timestamp,interval,accx,accy,accz,accGx,accGy,accGz,alpha,beta,gamma
1698414815.012,16,0.0,0.0,0.0,-0.9,9.5,-0.5,-0.7,0.8,0.1
1698414815.029,16,-0.1,-0.1,0.0,-0.9,9.4,-0.4,-0.8,1.2000000000000002,0.1
1698414815.046,16,-0.1,0.0,0.0,-0.9,9.5,-0.4,-0.4,1.0,0.2
1698414815.063,16,-0.1,0.0,0.0,-0.9,9.5,-0.4,-0.6000000000000001,0.4,0.2
1698414815.079,16,0.0,0.0,0.0,-0.8,9.5,-0.5,-0.2,0.30000000000000004,0.30000000000000004
1698414815.095,16,0.0,0.0,0.0,-0.8,9.5,-0.4,-0.4,0.30000000000000004,0.5
1698414815.113,16,0.0,0.0,0.1,-0.8,9.5,-0.4,-0.5,0.2,0.7
1698414815.128,16,0.0,0.0,0.0,-0.8,9.5,-0.4,-0.4,0.30000000000000004,0.8
1698414815.146,16,0.0,0.0,0.0,-0.8,9.5,-0.4,-0.6000000000000001,0.4,0.9
1698414815.162,16,0.0,-0.1,0.0,-0.8,9.5,-0.4,-0.4,0.4,0.7
1698414815.178,16,0.0,0.0,0.0,-0.8,9.5,-0.4,-0.2,0.2,0.8
1698414815.195,16,0.0,0.0,0.0,-0.8,9.5,-0.4,0.0,0.5,0.9
1698414815.212,16,0.0,0.0,0.0,-0.8,9.5,-0.4,-0.2,0.30000000000000004,0.9
1698414815.229,16,0.0,0.1,0.1,-0.8,9.600000000000001,-0.30000000000000004,-0.6000000000000001,-0.1,0.7
1698414815.246,16,0.0,0.0,0.0,-0.8,9.5,-0.4,-0.2,-0.2,0.9
1698414815.262,16,0.0,0.0,0.0,-0.8,9.5,-0.4,-0.1,0.2,0.9
1698414815.279,16,0.0,0.0,-0.1,-0.8,9.5,-0.5,0.1,0.5,0.8
1698414815.298,16,0.0,0.0,-0.1,-0.8,9.5,-0.5,0.4,0.4,0.8
1698414815.314,16,0.0,0.0,-0.1,-0.8,9.5,-0.5,0.4,0.4,0.9
1698414815.329,16,0.0,0.0,0.0,-0.8,9.5,-0.4,0.5,0.2,1.0
1698414815.345,16,0.0,0.0,0.0,-0.8,9.5,-0.4,0.5,0.30000000000000004,0.8
1698414815.365,16,0.0,0.1,0.0,-0.8,9.600000000000001,-0.4,0.5,0.4,0.7
1698414815.379,16,0.0,0.0,0.0,-0.8,9.5,-0.5,0.4,0.5,0.6000000000000001
1698414815.399,16,0.0,0.0,0.0,-0.8,9.5,-0.4,0.2,-0.1,0.6000000000000001
1698414815.412,16,0.0,0.0,0.0,-0.8,9.5,-0.5,0.1,-0.1,0.6000000000000001
1698414815.428,16,0.0,0.0,0.0,-0.8,9.5,-0.5,-0.1,-0.2,0.6000000000000001
1698414815.446,16,0.0,0.0,0.0,-0.8,9.5,-0.5,-0.1,-0.30000000000000004,0.7
1698414815.462,16,0.0,0.0,0.0,-0.8,9.5,-0.4,-0.1,-0.30000000000000004,0.7
1698414815.478,16,0.0,0.0,0.0,-0.8,9.5,-0.4,-0.1,-0.6000000000000001,0.6000000000000001
1698414815.497,16,0.0,0.0,0.0,-0.8,9.5,-0.4,-0.2,-0.9,0.7
1698414815.513,16,0.0,0.0,0.0,-0.8,9.5,-0.4,-0.2,-1.2000000000000002,0.9
1698414815.529,16,0.0,0.0,0.1,-0.8,9.5,-0.4,-0.1,-0.9,0.7
1698414815.545,16,0.0,0.0,0.1,-0.8,9.5,-0.4,0.1,-0.6000000000000001,0.6000000000000001
1698414815.562,16,0.0,0.0,0.0,-0.8,9.5,-0.4,0.5,-0.5,0.7
1698414815.578,16,0.0,0.0,0.0,-0.8,9.5,-0.4,0.6000000000000001,-0.5,0.6000000000000001
1698414815.595,16,0.0,0.0,0.0,-0.7000000000000001,9.5,-0.4,0.7,-0.4,0.7
1698414815.612,16,0.0,0.0,0.0,-0.7000000000000001,9.5,-0.4,0.7,-0.4,0.5
1698414815.628,16,0.0,0.0,0.0,-0.7000000000000001,9.5,-0.5,0.7,-0.1,0.4
1698414815.646,16,0.0,0.0,-0.1,-0.7000000000000001,9.5,-0.5,0.7,0.1,0.4
1698414815.662,16,0.0,0.0,-0.1,-0.7000000000000001,9.5,-0.5,0.5,0.1,0.4
1698414815.678,16,0.0,0.1,0.0,-0.7000000000000001,9.600000000000001,-0.5,0.2,0.4,0.4
1698414815.694,16,0.0,0.0,0.0,-0.8,9.600000000000001,-0.5,-0.1,0.4,0.2
1698414815.711,16,0.0,0.0,0.0,-0.8,9.5,-0.5,-0.1,0.4,0.2
1698414815.728,16,0.0,0.0,0.0,-0.8,9.5,-0.5,-0.2,0.5,0.0
1698414815.744,16,-0.1,0.0,0.0,-0.8,9.5,-0.5,-0.4,0.2,0.1
1698414815.763,16,0.0,0.0,0.0,-0.8,9.5,-0.5,-0.6000000000000001,-0.7,0.30000000000000004
1698414815.778,16,0.0,-0.1,0.0,-0.8,9.4,-0.5,-0.7,-1.0,0.6000000000000001
1698414815.795,16,0.0,0.0,0.0,-0.7000000000000001,9.4,-0.5,-0.7,-0.9,0.7
1698414815.812,16,0.0,0.0,0.0,-0.7000000000000001,9.5,-0.5,-0.8,-0.4,0.5
1698414815.828,16,0.0,0.0,-0.1,-0.7000000000000001,9.5,-0.5,-0.8,0.1,0.5
1698414815.846,16,0.0,0.0,-0.1,-0.8,9.5,-0.5,-1.4,0.6000000000000001,0.6000000000000001
1698414815.863,16,0.0,0.0,0.0,-0.7000000000000001,9.5,-0.4,-1.5000000000000002,0.8,0.4
1698414815.879,16,0.0,0.1,0.0,-0.8,9.600000000000001,-0.5,-1.6,1.0,0.4
1698414815.897,16,0.0,0.1,0.0,-0.8,9.5,-0.4,-1.7,0.7,0.4
1698414815.912,16,0.0,0.0,0.0,-0.8,9.600000000000001,-0.4,-1.5000000000000002,-0.4,0.1
1698414815.928,16,0.0,0.0,0.1,-0.7000000000000001,9.5,-0.4,-1.6,-0.30000000000000004,0.0
1698414815.945,16,0.0,-0.1,0.1,-0.7000000000000001,9.4,-0.4,-1.3,0.5,-0.2
1698414815.963,16,0.0,-0.1,0.0,-0.7000000000000001,9.4,-0.4,-1.2000000000000002,0.7,-0.2
1698414815.982,16,0.0,-0.1,0.0,-0.7000000000000001,9.4,-0.4,-1.2000000000000002,1.0,-0.2
1698414815.996,16,0.0,-0.1,0.0,-0.7000000000000001,9.4,-0.4,-1.2000000000000002,1.2000000000000002,-0.2
1698414816.012,16,0.0,0.0,0.0,-0.7000000000000001,9.5,-0.4,-0.7,1.0,-0.1
1698414816.028,16,0.0,0.0,0.0,-0.7000000000000001,9.5,-0.4,-0.2,0.5,-0.2
1698414816.045,16,0.0,0.0,0.0,-0.7000000000000001,9.5,-0.4,-0.1,0.4,-0.5
1698414816.062,16,0.0,0.0,0.1,-0.8,9.5,-0.30000000000000004,0.0,0.5,-0.7
1698414816.079,16,0.0,0.0,0.1,-0.8,9.5,-0.4,0.5,0.7,-0.2
1698414816.095,16,0.0,0.0,0.1,-0.7000000000000001,9.5,-0.4,0.1,0.8,-0.2
1698414816.112,16,0.0,0.0,0.1,-0.7000000000000001,9.5,-0.30000000000000004,0.0,1.0999999999999999,-0.2
1698414816.128,16,-0.1,0.0,0.1,-0.8,9.5,-0.30000000000000004,-0.2,1.6,0.0
1698414816.146,16,-0.1,0.0,0.1,-0.8,9.5,-0.4,0.0,1.3,0.1
1698414816.162,16,-0.1,0.0,0.1,-0.8,9.5,-0.30000000000000004,-0.30000000000000004,0.5,0.1
1698414816.179,16,0.0,0.0,0.0,-0.8,9.5,-0.4,-0.1,0.1,0.1
1698414816.195,16,0.0,0.0,0.0,-0.8,9.5,-0.4,-0.2,0.5,0.1
1698414816.211,16,-0.1,0.0,-0.1,-0.8,9.5,-0.5,-0.4,0.7,0.2
1698414816.228,16,-0.1,0.0,-0.2,-0.8,9.5,-0.6000000000000001,-0.7,0.8,0.2
1698414816.245,16,0.0,0.0,-0.1,-0.8,9.5,-0.5,-1.0,0.5,0.4
1698414816.262,16,0.0,0.0,0.0,-0.7000000000000001,9.5,-0.4,-1.0,0.1,0.5
1698414816.278,16,0.0,0.0,0.1,-0.8,9.5,-0.30000000000000004,-0.8,-0.1,0.4
1698414816.295,16,0.0,0.0,0.0,-0.7000000000000001,9.5,-0.4,-1.2000000000000002,0.30000000000000004,0.2
1698414816.311,16,0.0,0.0,0.0,-0.7000000000000001,9.5,-0.4,-1.3,0.4,0.2
1698414816.328,16,0.0,0.1,0.0,-0.8,9.600000000000001,-0.30000000000000004,-1.7,0.8,0.2
1698414816.345,16,0.0,0.1,0.1,-0.8,9.600000000000001,-0.30000000000000004,-2.1,0.8,0.1
1698414816.361,16,0.0,0.0,0.0,-0.8,9.5,-0.4,-2.3000000000000003,0.4,-0.1
1698414816.378,16,0.0,0.0,0.0,-0.8,9.5,-0.4,-2.3000000000000003,0.1,-0.1
1698414816.395,16,0.1,-0.1,0.0,-0.7000000000000001,9.4,-0.4,-2.0,-0.4,-0.2
1698414816.411,16,0.1,-0.1,0.0,-0.7000000000000001,9.4,-0.4,-1.5000000000000002,0.1,-0.5
1698414816.428,16,0.1,-0.1,0.0,-0.7000000000000001,9.4,-0.4,-1.2000000000000002,0.1,-0.6000000000000001
1698414816.444,16,0.0,-0.1,0.0,-0.7000000000000001,9.4,-0.4,-1.0999999999999999,0.30000000000000004,-0.4
1698414816.461,16,0.0,0.0,0.0,-0.7000000000000001,9.5,-0.30000000000000004,-0.8,0.1,-0.4
1698414816.478,16,0.0,0.0,0.0,-0.7000000000000001,9.5,-0.30000000000000004,-0.8,0.1,-0.2
1698414816.494,16,0.0,0.0,0.0,-0.7000000000000001,9.5,-0.30000000000000004,-0.9,0.5,-0.1
1698414816.511,16,0.0,0.0,0.0,-0.8,9.5,-0.30000000000000004,-1.0,1.0,0.2
1698414816.528,16,0.0,0.0,0.0,-0.8,9.5,-0.30000000000000004,-1.2000000000000002,1.0,0.30000000000000004
1698414816.545,16,0.0,0.0,0.0,-0.8,9.5,-0.4,-1.5000000000000002,0.9,0.2
1698414816.561,16,0.0,0.0,0.0,-0.8,9.5,-0.30000000000000004,-1.6,0.5,0.1
1698414816.579,16,-0.1,0.0,0.0,-0.8,9.5,-0.30000000000000004,-1.7,0.5,-0.1
1698414816.595,16,0.0,-0.1,0.0,-0.8,9.4,-0.30000000000000004,-1.2000000000000002,0.5,0.0
1698414816.611,16,0.0,0.0,0.0,-0.8,9.5,-0.30000000000000004,-0.9,-0.1,-0.2
1698414816.628,16,0.0,0.0,0.0,-0.8,9.5,-0.30000000000000004,-0.6000000000000001,-0.30000000000000004,-0.2
1698414816.645,16,0.0,0.0,0.1,-0.8,9.5,-0.2,-0.30000000000000004,-0.30000000000000004,-0.2
1698414816.661,16,0.0,0.0,0.1,-0.8,9.5,-0.2,-0.2,-0.4,0.0
1698414816.678,16,0.0,0.0,0.1,-0.8,9.5,-0.2,0.0,-0.4,0.1
1698414816.695,16,0.0,0.0,0.0,-0.8,9.5,-0.30000000000000004,-0.2,-0.30000000000000004,0.1
1698414816.711,16,0.0,0.0,0.0,-0.8,9.5,-0.30000000000000004,-0.4,-0.8,0.1
1698414816.728,16,0.0,0.0,0.0,-0.8,9.5,-0.30000000000000004,-0.4,-0.7,0.1
1698414816.744,16,0.0,0.0,-0.1,-0.8,9.5,-0.30000000000000004,-0.5,-0.5,0.2
1698414816.761,16,0.0,0.0,-0.1,-0.8,9.5,-0.4,-0.5,-0.6000000000000001,0.1
1698414816.778,16,0.0,0.1,0.0,-0.8,9.600000000000001,-0.30000000000000004,-0.4,-1.4,0.1
1698414816.794,16,0.0,0.0,0.0,-0.8,9.5,-0.30000000000000004,-0.4,-1.4,0.0
1698414816.811,16,0.0,0.0,0.0,-0.8,9.5,-0.30000000000000004,-0.2,-1.0999999999999999,0.0
1698414816.828,16,0.0,0.0,0.0,-0.8,9.5,-0.2,-0.1,-0.8,0.0
1698414816.844,16,0.0,-0.1,0.0,-0.8,9.4,-0.30000000000000004,0.1,-0.7,0.1
1698414816.862,16,0.0,0.0,0.0,-0.8,9.5,-0.30000000000000004,0.1,-0.7,0.2
1698414816.878,16,0.0,0.0,0.0,-0.8,9.5,-0.2,0.2,-0.9,0.1
1698414816.896,16,0.1,0.0,0.0,-0.7000000000000001,9.5,-0.30000000000000004,0.30000000000000004,-0.30000000000000004,0.1
1698414816.913,16,0.0,0.0,0.0,-0.7000000000000001,9.5,-0.30000000000000004,0.2,-0.30000000000000004,0.1
1698414816.929,16,0.0,0.0,0.0,-0.7000000000000001,9.5,-0.30000000000000004,0.4,0.1,0.0
1698414816.947,16,0.0,0.0,0.0,-0.7000000000000001,9.5,-0.30000000000000004,0.2,0.2,-0.1
1698414816.961,16,0.0,0.0,0.0,-0.8,9.5,-0.2,0.4,0.0,-0.2
1698414816.98,16,0.0,0.0,0.0,-0.8,9.5,-0.30000000000000004,0.4,0.1,-0.1
1698414816.997,16,0.0,0.0,0.0,-0.8,9.5,-0.30000000000000004,0.5,0.30000000000000004,-0.2
1698414817.012,16,0.0,0.0,0.0,-0.8,9.5,-0.30000000000000004,0.7,0.6000000000000001,-0.1
1698414817.028,16,0.0,0.0,0.0,-0.8,9.5,-0.30000000000000004,0.5,0.0,0.0
1698414817.045,16,0.0,0.0,0.0,-0.8,9.5,-0.30000000000000004,0.6000000000000001,-0.1,0.0
1698414817.062,16,0.0,0.0,0.0,-0.7000000000000001,9.5,-0.30000000000000004,0.7,-0.1,-0.1
1698414817.078,16,0.0,0.0,0.0,-0.8,9.5,-0.30000000000000004,0.7,0.0,0.0
1698414817.096,16,0.0,0.0,0.0,-0.8,9.5,-0.30000000000000004,0.5,0.0,0.1
1698414817.113,16,0.0,0.0,0.0,-0.8,9.5,-0.30000000000000004,0.6000000000000001,-0.30000000000000004,0.1
1698414817.129,16,0.0,0.0,0.0,-0.8,9.5,-0.30000000000000004,0.6000000000000001,-0.30000000000000004,0.2
1698414817.146,16,0.0,0.0,0.0,-0.7000000000000001,9.5,-0.30000000000000004,0.7,-0.1,0.0
1698414817.165,16,0.0,0.0,0.0,-0.8,9.5,-0.30000000000000004,0.7,0.1,0.1
1698414817.178,16,0.0,0.0,0.0,-0.8,9.5,-0.30000000000000004,0.8,0.2,0.1
1698414817.195,16,0.0,0.0,0.0,-0.8,9.5,-0.30000000000000004,0.7,0.1,0.1
1698414817.212,16,0.0,0.0,0.0,-0.7000000000000001,9.5,-0.30000000000000004,1.0,-0.4,0.1
1698414817.228,16,0.0,0.0,0.0,-0.8,9.5,-0.30000000000000004,1.0,-0.4,0.1
1698414817.246,16,0.0,0.0,0.0,-0.8,9.5,-0.30000000000000004,0.9,-0.30000000000000004,0.0
1698414817.262,16,0.0,0.0,0.0,-0.7000000000000001,9.5,-0.30000000000000004,0.9,-0.1,0.1
1698414817.28,16,0.0,0.0,0.0,-0.8,9.5,-0.30000000000000004,0.8,0.1,-0.1
1698414817.296,16,0.0,0.0,0.0,-0.8,9.5,-0.30000000000000004,0.7,0.0,0.1
1698414817.312,16,0.0,0.0,0.0,-0.8,9.5,-0.30000000000000004,0.8,-0.1,0.1
1698414817.329,16,0.0,0.0,0.0,-0.8,9.5,-0.30000000000000004,0.7,-0.1,0.0
1698414817.345,16,0.0,0.0,0.0,-0.8,9.5,-0.4,1.0,-0.1,-0.1
1698414817.363,16,0.0,0.0,0.0,-0.8,9.5,-0.30000000000000004,1.0,0.1,-0.1
1698414817.378,16,0.0,0.0,0.0,-0.8,9.5,-0.4,0.9,0.0,-0.1
1698414817.394,16,0.0,0.0,0.0,-0.8,9.5,-0.30000000000000004,0.9,0.1,-0.1
1698414817.412,16,0.0,0.0,0.0,-0.8,9.5,-0.4,0.9,0.1,-0.1
1698414817.428,16,0.0,0.0,0.0,-0.8,9.5,-0.4,0.7,-0.1,-0.2
1698414817.445,16,0.0,0.0,0.0,-0.8,9.5,-0.4,0.8,-0.1,-0.2
1698414817.463,16,0.0,0.0,0.0,-0.8,9.5,-0.4,0.5,-0.30000000000000004,-0.2
1698414817.478,16,0.0,0.0,0.0,-0.8,9.5,-0.4,0.7,-0.4,-0.2
1698414817.496,16,0.0,0.0,0.0,-0.8,9.5,-0.4,0.5,-0.30000000000000004,-0.1
1698414817.512,16,0.0,0.0,0.0,-0.7000000000000001,9.5,-0.4,0.9,-0.4,-0.1
1698414817.528,16,0.0,0.0,0.0,-0.7000000000000001,9.5,-0.4,0.8,0.1,-0.2
1698414817.544,16,0.0,0.0,0.0,-0.8,9.5,-0.4,0.7,-0.2,-0.2
1698414817.562,16,0.0,0.0,0.0,-0.8,9.5,-0.4,0.7,-0.1,-0.30000000000000004
1698414817.578,16,0.0,0.0,0.0,-0.8,9.5,-0.4,1.0999999999999999,0.1,-0.1
1698414817.594,16,0.0,0.0,0.0,-0.8,9.5,-0.4,1.5000000000000002,-0.2,-0.2
1698414817.611,16,0.0,0.0,0.1,-0.8,9.5,-0.30000000000000004,2.3000000000000003,-1.2000000000000002,-0.4
1698414817.628,16,0.0,0.0,0.1,-0.8,9.5,-0.30000000000000004,3.1,-1.5000000000000002,-0.7
1698414817.645,16,0.0,0.0,0.1,-0.7000000000000001,9.5,-0.30000000000000004,3.2,-0.9,-0.9
1698414817.662,16,0.1,0.0,0.1,-0.7000000000000001,9.5,-0.30000000000000004,3.2,-0.7,-0.9
1698414817.678,16,0.0,-0.1,0.1,-0.8,9.4,-0.30000000000000004,3.4,-0.2,-0.8
1698414817.694,16,0.0,0.0,0.1,-0.7000000000000001,9.5,-0.30000000000000004,3.6,0.2,-0.9
1698414817.711,16,0.1,0.0,0.0,-0.7000000000000001,9.5,-0.4,3.7000000000000006,0.2,-0.8
1698414817.728,16,0.0,0.0,0.0,-0.8,9.5,-0.5,3.6,0.5,-1.0999999999999999
1698414817.745,16,0.0,0.0,-0.1,-0.8,9.5,-0.5,3.4,0.7,-1.0
1698414817.761,16,0.0,0.0,-0.1,-0.8,9.5,-0.5,3.5,1.0,-1.0
1698414817.778,16,-0.1,0.0,-0.1,-0.9,9.5,-0.5,3.1,0.5,-0.7
1698414817.795,16,0.0,0.0,-0.1,-0.8,9.5,-0.5,3.0000000000000004,0.4,-0.7
1698414817.812,16,0.0,0.0,-0.1,-0.8,9.5,-0.5,2.7,0.2,-0.5
1698414817.828,16,0.0,0.1,-0.1,-0.8,9.600000000000001,-0.6000000000000001,2.3000000000000003,0.30000000000000004,-0.5
1698414817.845,16,0.0,0.0,-0.1,-0.8,9.5,-0.6000000000000001,2.1,0.30000000000000004,-0.5
1698414817.861,16,-0.1,0.1,-0.1,-0.9,9.600000000000001,-0.6000000000000001,1.6,0.1,-0.2
1698414817.878,16,0.0,0.0,-0.1,-0.9,9.600000000000001,-0.6000000000000001,1.3,-0.30000000000000004,0.0
1698414817.895,16,0.0,0.0,-0.1,-0.8,9.5,-0.6000000000000001,1.0,-0.2,0.1
1698414817.912,16,0.0,0.0,0.0,-0.8,9.5,-0.6000000000000001,0.7,-0.1,0.1
1698414817.928,16,0.0,0.0,0.0,-0.8,9.5,-0.6000000000000001,0.4,-0.2,0.4
1698414817.944,16,0.0,0.0,0.0,-0.8,9.5,-0.5,0.1,-0.4,0.4
1698414817.961,16,0.0,0.0,0.0,-0.8,9.5,-0.5,-0.1,-0.1,0.4
1698414817.978,16,0.0,0.0,0.0,-0.8,9.5,-0.5,-0.4,-0.4,0.6000000000000001
1698414817.994,16,0.0,0.0,0.0,-0.8,9.5,-0.5,-0.2,-0.4,0.7
1698414818.012,16,0.0,0.0,0.0,-0.8,9.5,-0.6000000000000001,-0.4,-0.30000000000000004,0.6000000000000001
1698414818.028,16,0.0,0.0,0.0,-0.8,9.5,-0.5,-0.6000000000000001,0.1,0.6000000000000001
1698414818.045,16,0.0,0.0,0.0,-0.8,9.5,-0.5,-0.7,-0.2,0.7
1698414818.061,16,0.0,0.0,0.0,-0.8,9.5,-0.5,-0.7,-0.1,0.7
1698414818.078,16,0.0,0.0,0.0,-0.8,9.5,-0.5,-0.9,-0.1,0.7
1698414818.094,16,0.0,0.0,0.0,-0.8,9.5,-0.5,-1.2000000000000002,0.30000000000000004,0.8
1698414818.112,16,0.0,0.0,0.0,-0.8,9.5,-0.5,-1.4,0.4,0.9
1698414818.129,16,0.0,0.0,0.0,-0.8,9.5,-0.5,-1.5000000000000002,0.4,0.9
1698414818.145,16,0.0,0.0,0.0,-0.8,9.5,-0.5,-1.5000000000000002,0.2,0.9
1698414818.162,16,0.0,0.0,0.0,-0.8,9.5,-0.5,-1.4,0.2,0.9
1698414818.178,16,0.0,0.0,0.0,-0.8,9.5,-0.5,-1.3,0.1,0.9
1698414818.194,16,0.0,0.0,0.0,-0.8,9.5,-0.5,-1.2000000000000002,0.2,1.0
1698414818.211,16,0.0,0.0,0.0,-0.8,9.5,-0.5,-1.2000000000000002,0.2,0.9
1698414818.228,16,0.0,0.0,0.0,-0.8,9.5,-0.5,-1.2000000000000002,0.0,0.8
1698414818.245,16,0.0,0.0,0.0,-0.8,9.5,-0.5,-1.2000000000000002,-0.1,0.9
1698414818.262,16,0.0,0.0,0.0,-0.8,9.5,-0.4,-1.2000000000000002,-0.4,1.0
1698414818.278,16,0.1,0.0,0.0,-0.7000000000000001,9.5,-0.4,-1.0,-0.30000000000000004,1.0
1698414818.295,16,0.0,0.0,0.1,-0.7000000000000001,9.5,-0.4,-0.9,0.1,0.6000000000000001
1698414818.312,16,0.0,0.0,0.0,-0.7000000000000001,9.5,-0.4,-0.8,0.30000000000000004,0.6000000000000001
1698414818.329,16,0.0,0.0,0.0,-0.8,9.5,-0.5,-0.7,0.1,0.6000000000000001
1698414818.345,16,0.0,0.0,0.0,-0.8,9.5,-0.4,-0.6000000000000001,0.4,0.7
1698414818.361,16,0.0,0.0,0.0,-0.8,9.5,-0.4,-0.6000000000000001,0.2,0.6000000000000001
1698414818.378,16,0.0,0.0,0.0,-0.8,9.5,-0.4,-0.6000000000000001,-0.4,0.6000000000000001
1698414818.395,16,0.0,0.0,0.0,-0.7000000000000001,9.5,-0.4,-0.6000000000000001,-0.4,0.6000000000000001
1698414818.411,16,0.0,0.0,0.0,-0.7000000000000001,9.5,-0.4,-0.2,0.1,0.4
1698414818.428,16,0.0,0.0,0.1,-0.7000000000000001,9.5,-0.4,-0.1,0.2,0.30000000000000004
1698414818.444,16,0.0,0.0,0.0,-0.7000000000000001,9.5,-0.4,0.1,0.2,0.2
1698414818.461,16,0.0,0.0,0.0,-0.7000000000000001,9.5,-0.5,0.30000000000000004,0.2,0.30000000000000004
1698414818.478,16,0.0,0.0,0.0,-0.7000000000000001,9.5,-0.5,0.1,0.4,0.4
1698414818.494,16,0.0,0.0,0.0,-0.7000000000000001,9.5,-0.5,-0.2,0.8,0.2
1698414818.511,16,0.0,0.0,0.0,-0.7000000000000001,9.5,-0.5,-0.30000000000000004,0.6000000000000001,0.1
1698414818.528,16,0.0,0.0,0.0,-0.8,9.5,-0.5,-0.30000000000000004,0.4,0.1
1698414818.545,16,0.0,0.0,0.0,-0.8,9.5,-0.5,-0.4,0.30000000000000004,0.0
1698414818.561,16,0.0,0.0,0.0,-0.8,9.5,-0.5,-0.4,-0.4,0.2
1698414818.578,16,0.0,0.0,0.0,-0.8,9.5,-0.5,-0.2,-0.4,0.1
1698414818.594,16,0.0,0.0,0.0,-0.7000000000000001,9.5,-0.4,0.1,-0.1,0.1
1698414818.611,16,0.0,0.0,0.0,-0.7000000000000001,9.5,-0.5,-0.1,0.2,0.1
1698414818.628,16,0.0,0.0,0.0,-0.8,9.5,-0.4,-0.1,0.30000000000000004,0.2
1698414818.644,16,0.0,0.0,0.0,-0.8,9.5,-0.4,0.0,0.2,0.4
1698414818.661,16,0.0,0.0,0.0,-0.7000000000000001,9.5,-0.4,0.0,0.0,0.6000000000000001
1698414818.678,16,0.0,0.0,0.0,-0.7000000000000001,9.5,-0.4,0.0,0.0,0.4
1698414818.696,16,0.0,0.0,0.0,-0.7000000000000001,9.5,-0.4,0.1,0.1,0.2
1698414818.711,16,0.0,0.0,0.0,-0.7000000000000001,9.5,-0.5,0.2,0.1,0.1
1698414818.728,16,0.0,0.0,0.0,-0.8,9.5,-0.4,0.30000000000000004,0.1,0.1
1698414818.744,16,0.0,0.0,0.0,-0.7000000000000001,9.5,-0.4,0.5,-0.30000000000000004,0.1
1698414818.761,16,0.0,0.0,0.0,-0.7000000000000001,9.5,-0.4,0.7,-0.2,0.1
1698414818.778,16,0.0,0.0,0.0,-0.7000000000000001,9.5,-0.4,0.7,-0.1,0.1
1698414818.795,16,0.0,0.0,0.0,-0.7000000000000001,9.5,-0.5,0.7,-0.1,0.1
1698414818.812,16,0.0,0.0,0.0,-0.7000000000000001,9.5,-0.4,0.6000000000000001,-0.30000000000000004,0.2
1698414818.829,16,0.0,0.0,0.0,-0.7000000000000001,9.5,-0.5,0.7,-0.30000000000000004,0.1
1698414818.845,16,0.0,0.0,0.0,-0.7000000000000001,9.5,-0.5,0.5,-0.30000000000000004,0.1
1698414818.861,16,0.0,0.0,0.0,-0.7000000000000001,9.5,-0.5,0.5,-0.1,0.0
1698414818.878,16,0.0,0.0,0.0,-0.7000000000000001,9.5,-0.5,0.4,-0.1,0.0
1698414818.895,16,0.0,0.0,0.0,-0.8,9.5,-0.5,0.4,-0.30000000000000004,0.1
1698414818.912,16,0.0,0.0,0.0,-0.7000000000000001,9.5,-0.5,0.4,-0.1,0.0
1698414818.928,16,0.0,0.0,0.0,-0.7000000000000001,9.5,-0.5,0.30000000000000004,0.1,-0.1
1698414818.945,16,0.0,0.0,0.0,-0.7000000000000001,9.5,-0.5,0.30000000000000004,0.1,-0.1
1698414818.962,16,0.0,0.0,0.0,-0.7000000000000001,9.5,-0.5,0.2,0.1,-0.2
1698414818.98,16,0.0,0.0,0.0,-0.8,9.5,-0.5,0.1,0.1,-0.1
1698414818.995,16,0.0,0.0,-0.1,-0.8,9.5,-0.5,-0.1,-0.1,0.0
1698414819.011,16,0.0,0.0,-0.1,-0.8,9.5,-0.6000000000000001,-0.6000000000000001,-0.4,0.1
1698414819.028,16,0.0,0.0,0.0,-0.7000000000000001,9.5,-0.5,-0.8,-0.4,0.1
1698414819.045,16,0.0,0.0,0.0,-0.8,9.5,-0.4,-0.30000000000000004,-0.9,0.2
1698414819.062,16,0.0,0.0,0.1,-0.7000000000000001,9.5,-0.4,0.0,-0.5,0.1
1698414819.078,16,0.0,0.0,0.1,-0.7000000000000001,9.5,-0.4,0.2,-0.7,-0.1
1698414819.095,16,0.0,-0.1,0.1,-0.7000000000000001,9.5,-0.30000000000000004,0.9,-1.0,-0.30000000000000004
1698414819.112,16,0.0,0.0,0.0,-0.7000000000000001,9.5,-0.4,1.2000000000000002,-0.7,-0.4
1698414819.129,16,0.0,0.0,0.1,-0.8,9.5,-0.4,1.3,-0.7,-0.30000000000000004
1698414819.145,16,0.0,0.0,0.1,-0.7000000000000001,9.5,-0.4,1.6,-1.4,-0.4
1698414819.162,16,0.0,0.0,0.0,-0.8,9.5,-0.4,2.0,-1.3,-0.4
1698414819.179,16,0.0,0.0,0.0,-0.8,9.5,-0.4,2.3000000000000003,-1.2000000000000002,-0.5
1698414819.195,16,0.0,0.0,0.0,-0.7000000000000001,9.5,-0.5,2.3000000000000003,-0.8,-0.6000000000000001
1698414819.212,16,0.0,0.0,0.0,-0.7000000000000001,9.5,-0.5,2.4000000000000004,-0.9,-0.8
1698414819.229,16,0.0,0.0,0.0,-0.7000000000000001,9.5,-0.5,2.4000000000000004,-0.7,-0.8
1698414819.245,16,0.0,0.0,0.0,-0.7000000000000001,9.5,-0.5,2.4000000000000004,-0.30000000000000004,-0.8
1698414819.263,16,0.1,0.0,0.0,-0.7000000000000001,9.5,-0.6000000000000001,2.3000000000000003,0.30000000000000004,-0.9
1698414819.279,16,0.0,0.1,-0.1,-0.7000000000000001,9.600000000000001,-0.6000000000000001,1.7,0.7,-1.0
1698414819.295,16,0.0,0.1,-0.1,-0.8,9.600000000000001,-0.6000000000000001,1.3,0.7,-1.0
1698414819.312,16,0.0,0.1,-0.1,-0.8,9.600000000000001,-0.6000000000000001,0.9,0.7,-0.9
1698414819.328,16,0.0,0.0,-0.1,-0.8,9.5,-0.6000000000000001,0.4,0.6000000000000001,-0.5
1698414819.345,16,0.0,0.0,-0.1,-0.8,9.5,-0.6000000000000001,0.2,0.4,-0.4
1698414819.362,16,0.0,0.0,0.0,-0.8,9.5,-0.6000000000000001,-0.1,0.6000000000000001,-0.4
1698414819.378,16,0.0,0.0,-0.1,-0.8,9.5,-0.6000000000000001,-0.2,0.5,-0.2
1698414819.395,16,-0.1,0.0,-0.1,-0.9,9.5,-0.6000000000000001,-0.6000000000000001,0.5,-0.2
1698414819.412,16,0.0,0.0,0.0,-0.8,9.5,-0.6000000000000001,-0.9,-0.1,0.2
1698414819.429,16,0.0,0.0,0.0,-0.8,9.5,-0.6000000000000001,-1.0,-0.4,0.2
1698414819.445,16,0.0,0.0,0.0,-0.8,9.5,-0.5,-1.0999999999999999,-0.6000000000000001,0.4
1698414819.462,16,0.0,0.0,0.0,-0.8,9.5,-0.5,-1.0,-0.6000000000000001,0.30000000000000004
1698414819.478,16,0.0,0.0,0.0,-0.8,9.5,-0.5,-1.0,-0.4,0.2
1698414819.495,16,0.0,0.0,0.0,-0.8,9.5,-0.5,-1.0999999999999999,-0.5,0.30000000000000004
1698414819.512,16,0.0,0.0,0.1,-0.8,9.5,-0.5,-0.9,-0.4,0.5
1698414819.528,16,0.0,0.0,0.0,-0.8,9.5,-0.5,-0.7,-0.1,0.4
1698414819.546,16,0.0,0.0,0.0,-0.8,9.5,-0.5,-0.7,0.0,0.4
1698414819.563,16,0.0,0.0,0.0,-0.8,9.5,-0.5,-0.5,0.1,0.5
1698414819.579,16,0.0,0.0,0.0,-0.8,9.5,-0.5,-0.4,0.2,0.5
1698414819.595,16,0.0,0.0,0.1,-0.8,9.5,-0.5,-0.5,0.2,0.4
1698414819.612,16,0.0,0.0,0.0,-0.8,9.5,-0.5,-0.4,0.1,0.4
1698414819.628,16,0.0,0.0,0.0,-0.7000000000000001,9.5,-0.5,-0.30000000000000004,0.1,0.5
1698414819.644,16,0.0,0.0,0.0,-0.8,9.5,-0.5,-0.1,0.30000000000000004,0.4
1698414819.661,16,0.0,0.0,0.0,-0.8,9.5,-0.5,-0.1,0.4,0.4
1698414819.678,16,0.0,0.0,0.0,-0.7000000000000001,9.5,-0.5,0.1,0.4,0.2
1698414819.696,16,0.0,0.0,0.0,-0.8,9.5,-0.5,0.0,0.4,0.5
1698414819.711,16,0.0,0.0,0.0,-0.8,9.5,-0.5,0.0,0.30000000000000004,0.5
1698414819.728,16,0.0,0.0,0.0,-0.8,9.5,-0.5,0.1,0.2,0.6000000000000001
1698414819.745,16,0.0,0.0,0.0,-0.8,9.5,-0.5,0.1,0.2,0.4
1698414819.762,16,0.0,0.0,0.0,-0.8,9.5,-0.5,0.1,0.1,0.5
1698414819.779,16,0.0,0.0,0.0,-0.8,9.5,-0.5,0.2,0.1,0.4
1698414819.795,16,0.0,0.0,0.0,-0.8,9.5,-0.5,0.1,0.0,0.5
1698414819.811,16,0.0,0.0,0.0,-0.8,9.5,-0.5,0.1,-0.30000000000000004,0.5
1698414819.828,16,0.0,0.0,0.0,-0.7000000000000001,9.5,-0.5,0.1,-0.2,0.4
1698414819.846,16,0.0,0.0,0.0,-0.7000000000000001,9.5,-0.5,-0.1,0.30000000000000004,0.1
1698414819.863,16,0.0,0.0,0.0,-0.7000000000000001,9.5,-0.5,-0.1,0.2,0.2
1698414819.878,16,0.0,0.0,0.0,-0.7000000000000001,9.5,-0.5,-0.1,-0.1,0.2
1698414819.895,16,0.0,0.0,0.0,-0.8,9.5,-0.5,0.1,0.0,0.2
1698414819.912,16,0.0,0.0,0.0,-0.8,9.5,-0.5,-0.1,0.1,0.1
1698414819.928,16,0.0,0.0,0.0,-0.8,9.5,-0.5,-0.2,-0.30000000000000004,0.1
1698414819.945,16,0.0,0.0,0.0,-0.8,9.5,-0.5,-0.2,-0.4,0.2
1698414819.962,16,-0.1,0.0,0.0,-0.8,9.5,-0.5,-0.1,-0.1,0.2
1698414819.978,16,0.0,-0.1,0.0,-0.8,9.4,-0.5,0.0,0.1,0.30000000000000004
1698414819.994,16,0.0,0.0,0.0,-0.7000000000000001,9.5,-0.5,0.1,0.0,0.4
1698414820.011,16,0.0,0.0,0.0,-0.7000000000000001,9.5,-0.5,0.1,-0.1,0.2
1698414820.028,16,0.0,0.0,0.0,-0.7000000000000001,9.5,-0.5,0.1,0.2,0.1
1698414820.045,16,0.0,0.0,0.0,-0.7000000000000001,9.5,-0.5,0.1,0.30000000000000004,0.1
1698414820.062,16,0.0,0.0,0.0,-0.8,9.5,-0.5,0.1,0.30000000000000004,0.1
1698414820.078,16,0.0,0.0,0.0,-0.8,9.5,-0.5,0.0,0.2,0.2
1698414820.095,16,0.0,0.0,0.0,-0.8,9.5,-0.5,-0.1,0.1,0.2
1698414820.111,16,0.0,0.0,0.0,-0.8,9.5,-0.5,-0.1,0.2,0.2
1698414820.127,16,0.0,0.0,0.0,-0.7000000000000001,9.5,-0.5,0.0,0.1,0.1
1698414820.144,16,0.0,0.0,0.0,-0.7000000000000001,9.5,-0.5,0.1,0.2,0.2
1698414820.161,16,0.0,0.0,0.0,-0.7000000000000001,9.5,-0.5,0.0,0.30000000000000004,0.1
1698414820.178,16,0.0,0.0,0.0,-0.8,9.5,-0.5,-0.1,-0.1,0.1
1698414820.194,16,0.0,0.0,0.0,-0.8,9.5,-0.5,-0.2,-0.30000000000000004,0.2
1698414820.211,16,0.0,0.0,0.0,-0.7000000000000001,9.5,-0.5,-0.2,-0.30000000000000004,0.1
1698414820.228,16,0.0,0.0,0.0,-0.7000000000000001,9.5,-0.5,-0.2,-0.1,0.1
1698414820.244,16,0.0,0.0,0.0,-0.7000000000000001,9.5,-0.5,-0.2,0.0,0.1
1698414820.261,16,0.0,0.0,0.0,-0.7000000000000001,9.5,-0.5,-0.2,-0.2,0.1
1698414820.278,16,0.0,0.0,0.0,-0.7000000000000001,9.5,-0.5,-0.1,0.0,0.0
1698414820.294,16,0.0,0.0,0.0,-0.7000000000000001,9.5,-0.5,0.0,-0.1,-0.1
1698414820.311,16,0.0,0.0,0.0,-0.7000000000000001,9.5,-0.5,0.1,-0.1,0.1
1698414820.328,16,0.0,0.0,0.0,-0.7000000000000001,9.5,-0.5,0.1,-0.2,-0.1
1698414820.344,16,0.0,0.0,0.0,-0.7000000000000001,9.5,-0.5,-0.1,-0.1,0.1
1698414820.361,16,0.0,0.0,0.0,-0.7000000000000001,9.5,-0.5,0.0,0.0,0.1
1698414820.378,16,0.0,0.0,0.0,-0.7000000000000001,9.5,-0.5,-0.2,0.1,0.1
1698414820.394,16,0.0,0.0,0.0,-0.7000000000000001,9.5,-0.5,-0.1,-0.1,-0.1
1698414820.411,16,0.0,0.0,0.0,-0.8,9.5,-0.5,0.0,-0.1,-0.2
1698414820.428,16,0.0,0.0,0.0,-0.7000000000000001,9.5,-0.5,0.2,0.0,-0.1
1698414820.444,16,0.0,0.0,0.0,-0.7000000000000001,9.5,-0.5,0.1,0.1,-0.2
1698414820.461,16,0.0,0.0,0.0,-0.7000000000000001,9.5,-0.5,0.2,0.1,-0.1
1698414820.478,16,0.0,0.0,0.0,-0.8,9.5,-0.5,0.2,0.0,-0.1
1698414820.495,16,0.0,0.0,0.0,-0.7000000000000001,9.5,-0.5,0.2,0.2,-0.2
1698414820.512,16,0.0,0.0,0.0,-0.7000000000000001,9.5,-0.5,0.1,0.30000000000000004,-0.2
1698414820.528,16,0.0,0.0,0.0,-0.8,9.5,-0.5,0.1,0.2,-0.2
1698414820.545,16,0.0,0.0,0.0,-0.8,9.5,-0.5,-0.1,0.2,-0.2
1698414820.561,16,0.0,0.0,0.0,-0.8,9.5,-0.5,-0.1,0.1,0.0
1698414820.579,16,0.0,0.0,0.0,-0.7000000000000001,9.5,-0.5,-0.1,0.2,-0.1
1698414820.595,16,0.0,0.0,0.0,-0.7000000000000001,9.5,-0.5,0.0,0.2,-0.2
1698414820.612,16,0.0,0.0,0.0,-0.8,9.5,-0.5,0.0,0.1,-0.2
1698414820.628,16,0.0,0.0,0.0,-0.8,9.5,-0.5,0.1,-0.1,0.1
1698414820.644,16,0.0,0.0,0.0,-0.8,9.5,-0.5,0.2,-0.1,0.1
1698414820.662,16,0.0,0.0,0.0,-0.7000000000000001,9.5,-0.5,0.0,0.4,-0.1
1698414820.678,16,0.0,0.0,0.0,-0.8,9.5,-0.5,0.1,0.30000000000000004,-0.1
1698414820.694,16,0.0,0.0,0.0,-0.8,9.5,-0.5,-0.1,-0.1,0.1
1698414820.711,16,0.0,0.0,0.0,-0.8,9.5,-0.5,-0.2,0.1,0.1
1698414820.728,16,0.0,0.0,0.0,-0.8,9.5,-0.5,-0.1,0.30000000000000004,0.1
1698414820.744,16,0.0,0.0,0.0,-0.8,9.5,-0.5,-0.2,-0.30000000000000004,-0.1
1698414820.761,16,0.0,0.0,0.0,-0.8,9.5,-0.5,-0.2,-0.6000000000000001,0.2
1698414820.778,16,0.0,0.0,0.0,-0.8,9.5,-0.5,-0.1,-0.5,0.1
1698414820.795,16,0.0,-0.1,0.0,-0.8,9.4,-0.5,0.0,-0.30000000000000004,0.2
1698414820.811,16,0.0,0.0,0.0,-0.8,9.5,-0.5,-0.1,0.0,0.30000000000000004
1698414820.828,16,0.0,0.0,0.0,-0.7000000000000001,9.5,-0.5,0.1,-0.30000000000000004,0.2
1698414820.845,16,0.0,0.0,0.0,-0.7000000000000001,9.5,-0.5,0.0,0.0,0.2
1698414820.862,16,0.0,0.0,0.0,-0.7000000000000001,9.5,-0.5,0.0,0.2,0.30000000000000004
1698414820.877,16,0.0,0.1,0.0,-0.7000000000000001,9.5,-0.5,0.1,0.4,0.1
1698414820.894,16,0.0,0.0,0.0,-0.7000000000000001,9.5,-0.5,-0.2,0.2,0.1
1698414820.912,16,0.0,0.0,0.0,-0.8,9.5,-0.5,-0.5,0.2,0.1
1698414820.928,16,0.0,0.0,0.0,-0.8,9.5,-0.5,-0.6000000000000001,0.5,0.1
1698414820.946,16,0.0,0.0,0.0,-0.8,9.5,-0.5,-1.0,0.6000000000000001,0.2
1698414820.962,16,0.0,0.0,0.0,-0.8,9.5,-0.5,-1.2000000000000002,0.8,0.2
1698414820.978,16,0.0,0.0,0.0,-0.7000000000000001,9.5,-0.5,-1.5000000000000002,1.2000000000000002,0.1
1698414820.995,16,0.0,0.0,0.0,-0.8,9.5,-0.5,-1.5000000000000002,0.7,0.1
1698414821.012,16,0.0,0.0,0.0,-0.7000000000000001,9.5,-0.5,-1.2000000000000002,0.2,0.0
1698414821.028,16,0.0,0.0,0.0,-0.8,9.5,-0.5,-1.0,-0.2,0.0
1698414821.045,16,0.0,0.0,0.0,-0.7000000000000001,9.5,-0.5,-0.7,0.0,-0.2
1698414821.061,16,0.0,0.0,0.0,-0.8,9.5,-0.4,-0.8,0.2,0.0
1698414821.078,16,0.0,0.0,0.0,-0.8,9.5,-0.4,-0.7,0.2,0.0
1698414821.095,16,0.0,0.0,0.0,-0.7000000000000001,9.5,-0.4,-0.4,0.0,0.2
1698414821.111,16,0.0,0.0,0.0,-0.7000000000000001,9.5,-0.5,-0.2,-0.1,0.2
1698414821.128,16,0.0,0.0,0.0,-0.7000000000000001,9.5,-0.5,-0.2,-0.1,0.1
1698414821.145,16,0.0,0.0,0.0,-0.8,9.5,-0.5,0.1,-0.30000000000000004,-0.1
1698414821.161,16,0.0,0.0,0.0,-0.7000000000000001,9.5,-0.5,0.0,-0.4,0.0
1698414821.179,16,0.0,0.0,0.0,-0.8,9.5,-0.5,0.1,-0.6000000000000001,0.1
1698414821.195,16,0.0,0.0,0.0,-0.8,9.5,-0.4,0.1,-0.6000000000000001,0.0
1698414821.211,16,0.0,0.0,0.0,-0.8,9.5,-0.4,0.1,-0.6000000000000001,0.2
1698414821.228,16,0.0,0.0,0.0,-0.8,9.5,-0.5,0.30000000000000004,-0.4,0.0
1698414821.245,16,0.0,0.0,0.0,-0.7000000000000001,9.5,-0.4,0.2,-0.5,0.0
1698414821.261,16,0.0,0.0,0.0,-0.7000000000000001,9.5,-0.4,0.30000000000000004,-0.30000000000000004,-0.1
1698414821.278,16,0.0,0.0,0.0,-0.7000000000000001,9.5,-0.4,0.4,-0.2,-0.2
1698414821.295,16,0.0,0.0,0.0,-0.7000000000000001,9.600000000000001,-0.5,0.2,0.0,-0.2
1698414821.312,16,0.0,0.0,0.0,-0.8,9.5,-0.5,0.2,-0.2,-0.30000000000000004
1698414821.328,16,0.0,0.0,0.0,-0.8,9.5,-0.5,0.2,0.1,-0.2
1698414821.346,16,0.0,0.0,-0.1,-0.7000000000000001,9.5,-0.5,0.0,0.2,-0.2
1698414821.361,16,0.0,0.0,0.0,-0.8,9.5,-0.4,-0.1,0.30000000000000004,-0.2
1698414821.378,16,0.0,0.0,0.0,-0.8,9.5,-0.5,0.0,0.30000000000000004,-0.2
1698414821.397,16,0.0,0.0,0.0,-0.8,9.5,-0.4,0.0,0.2,-0.1
1698414821.411,16,0.0,0.0,0.0,-0.8,9.5,-0.5,-0.1,0.30000000000000004,0.0
1698414821.428,16,0.0,0.0,0.0,-0.8,9.5,-0.5,-0.1,0.30000000000000004,0.1
1698414821.446,16,0.0,0.0,0.0,-0.8,9.5,-0.5,-0.2,0.4,0.1
1698414821.463,16,0.0,0.0,0.0,-0.8,9.5,-0.4,-0.1,0.2,0.1
1698414821.48,16,0.0,0.0,0.0,-0.8,9.5,-0.5,-0.1,0.1,0.2
1698414821.497,16,0.0,0.0,0.0,-0.8,9.5,-0.4,0.2,0.0,0.30000000000000004
1698414821.512,16,0.0,0.0,0.0,-0.8,9.5,-0.5,0.30000000000000004,-0.2,0.30000000000000004
1698414821.528,16,0.0,0.0,0.0,-0.8,9.5,-0.5,0.30000000000000004,-0.30000000000000004,0.4
1698414821.545,16,0.0,0.0,0.0,-0.8,9.5,-0.5,0.4,-0.30000000000000004,0.5
1698414821.561,16,0.0,0.0,0.0,-0.7000000000000001,9.5,-0.4,0.5,-0.30000000000000004,0.4
1698414821.579,16,0.0,0.0,0.0,-0.7000000000000001,9.5,-0.5,0.4,-0.1,0.2
1698414821.595,16,0.0,0.0,0.0,-0.7000000000000001,9.5,-0.5,0.4,-0.1,0.2
1698414821.611,16,0.0,0.0,0.0,-0.8,9.5,-0.4,0.30000000000000004,0.0,0.1
1698414821.627,16,0.0,0.0,-0.1,-0.8,9.5,-0.6000000000000001,0.2,0.2,0.1
1698414821.644,16,0.0,0.0,-0.1,-0.8,9.5,-0.5,0.2,0.1,0.1
1698414821.661,16,0.0,0.0,0.0,-0.7000000000000001,9.5,-0.5,0.1,-0.5,0.2
1698414821.678,16,0.0,0.0,0.0,-0.8,9.5,-0.5,0.30000000000000004,-0.2,0.1
1698414821.695,16,0.0,0.0,0.0,-0.8,9.5,-0.5,0.5,-0.1,0.1
1698414821.712,16,0.0,0.0,0.0,-0.8,9.5,-0.5,0.4,-0.1,0.2
1698414821.728,16,0.0,0.0,0.0,-0.7000000000000001,9.5,-0.5,0.5,-0.4,0.30000000000000004
1698414821.745,16,0.0,0.0,0.0,-0.7000000000000001,9.5,-0.5,0.5,-0.30000000000000004,0.2
1698414821.761,16,0.0,0.0,0.0,-0.7000000000000001,9.5,-0.5,0.6000000000000001,0.0,0.1
1698414821.779,16,0.0,0.0,0.0,-0.7000000000000001,9.600000000000001,-0.5,0.8,0.2,-0.1
1698414821.795,16,0.0,0.0,0.0,-0.8,9.5,-0.5,0.8,0.1,0.0
1698414821.812,16,0.0,0.0,0.0,-0.8,9.5,-0.5,0.7,0.1,0.1
1698414821.828,16,0.0,0.0,0.0,-0.8,9.5,-0.5,0.5,0.0,0.0
1698414821.845,16,0.0,0.0,0.0,-0.8,9.5,-0.5,0.5,0.2,0.1
1698414821.861,16,0.0,0.0,0.0,-0.7000000000000001,9.5,-0.5,0.5,0.2,0.1
1698414821.878,16,0.0,0.0,0.0,-0.7000000000000001,9.5,-0.5,0.7,0.1,0.2
1698414821.894,16,0.0,0.0,0.0,-0.8,9.5,-0.5,0.9,0.2,0.2
1698414821.912,16,0.0,0.0,0.0,-0.7000000000000001,9.5,-0.5,0.7,0.0,0.1
1698414821.928,16,0.0,0.0,0.0,-0.8,9.5,-0.5,0.7,-0.1,0.1
1698414821.945,16,0.0,0.0,0.0,-0.8,9.5,-0.5,0.6000000000000001,-0.1,0.1
1698414821.961,16,0.0,0.0,0.0,-0.7000000000000001,9.5,-0.5,0.5,-0.2,0.2
1698414821.984,16,0.0,0.0,0.0,-0.7000000000000001,9.5,-0.5,0.5,-0.2,0.30000000000000004
1698414821.994,16,0.0,0.0,0.0,-0.7000000000000001,9.5,-0.5,0.4,-0.30000000000000004,0.2
1698414822.011,16,0.0,0.0,0.0,-0.7000000000000001,9.5,-0.5,0.4,0.1,0.2
1698414822.029,16,0.0,0.0,0.0,-0.8,9.5,-0.5,0.5,0.30000000000000004,0.2
1698414822.044,16,0.0,0.0,0.0,-0.8,9.5,-0.5,0.5,0.2,0.2
1698414822.061,16,0.0,0.0,0.0,-0.8,9.5,-0.5,0.4,0.30000000000000004,0.2
1698414822.078,16,0.0,0.0,0.0,-0.7000000000000001,9.5,-0.5,0.2,0.2,0.4
1698414822.095,16,0.0,0.0,0.0,-0.8,9.5,-0.6000000000000001,0.1,0.4,0.4
1698414822.111,16,0.0,0.0,0.0,-0.8,9.5,-0.6000000000000001,0.0,0.1,0.4
1698414822.128,16,0.0,0.0,0.0,-0.8,9.5,-0.6000000000000001,0.0,0.1,0.4
1698414822.144,16,0.0,0.0,0.0,-0.7000000000000001,9.5,-0.5,-0.1,-0.1,0.5
1698414822.161,16,0.0,0.0,0.0,-0.7000000000000001,9.5,-0.5,-0.2,-0.1,0.6000000000000001
1698414822.177,16,0.0,0.0,0.0,-0.7000000000000001,9.5,-0.5,-0.1,-0.1,0.5
1698414822.194,16,0.0,0.0,0.0,-0.7000000000000001,9.5,-0.5,-0.1,0.0,0.6000000000000001
1698414822.211,16,0.0,0.0,0.0,-0.7000000000000001,9.5,-0.5,0.0,-0.1,0.4
1698414822.228,16,0.0,0.0,0.0,-0.7000000000000001,9.5,-0.5,0.1,0.1,0.5
1698414822.244,16,0.0,0.0,0.0,-0.7000000000000001,9.5,-0.5,0.0,-0.1,0.5
1698414822.262,16,0.0,0.0,0.0,-0.7000000000000001,9.5,-0.5,0.0,-0.1,0.4
1698414822.278,16,0.0,0.0,0.0,-0.7000000000000001,9.5,-0.5,0.1,-0.1,0.2
1698414822.294,16,0.0,0.0,0.0,-0.7000000000000001,9.5,-0.5,0.2,0.1,0.1
1698414822.312,16,0.0,0.0,0.0,-0.7000000000000001,9.5,-0.5,0.2,0.1,0.2
1698414822.328,16,0.0,0.0,0.0,-0.7000000000000001,9.5,-0.5,0.2,0.1,0.30000000000000004
1698414822.345,16,0.0,0.0,0.0,-0.7000000000000001,9.5,-0.5,0.2,0.4,0.1
1698414822.362,16,0.0,0.0,0.0,-0.7000000000000001,9.5,-0.5,0.30000000000000004,0.4,0.0
1698414822.378,16,0.0,0.0,0.0,-0.8,9.5,-0.5,0.4,0.4,0.1
1698414822.395,16,0.0,0.0,0.0,-0.8,9.5,-0.5,0.4,0.5,0.1
1698414822.411,16,0.0,0.0,0.0,-0.7000000000000001,9.5,-0.5,0.30000000000000004,0.2,0.1
1698414822.428,16,0.0,0.0,0.0,-0.8,9.5,-0.5,0.30000000000000004,0.2,0.1
1698414822.445,16,-0.1,0.0,0.0,-0.8,9.5,-0.5,0.30000000000000004,0.1,0.2
1698414822.462,16,0.0,0.0,0.0,-0.7000000000000001,9.5,-0.5,0.4,0.0,0.30000000000000004
1698414822.478,16,0.0,0.0,0.0,-0.7000000000000001,9.5,-0.5,0.30000000000000004,-0.2,0.2
1698414822.494,16,0.0,0.0,0.0,-0.7000000000000001,9.5,-0.5,0.2,0.1,0.1
1698414822.511,16,0.0,0.0,0.0,-0.7000000000000001,9.5,-0.5,0.2,0.0,0.2
1698414822.528,16,0.0,0.0,0.0,-0.7000000000000001,9.5,-0.5,0.2,-0.30000000000000004,0.1
1698414822.544,16,0.0,0.0,0.0,-0.7000000000000001,9.5,-0.5,0.2,-0.1,0.1
1698414822.561,16,0.0,0.0,-0.1,-0.7000000000000001,9.5,-0.6000000000000001,0.1,-0.1,0.0
1698414822.578,16,0.0,0.0,0.0,-0.7000000000000001,9.5,-0.5,0.0,-0.8,-0.1
1698414822.594,16,0.0,0.0,0.0,-0.7000000000000001,9.5,-0.5,0.1,-0.6000000000000001,-0.1
1698414822.611,16,0.0,0.0,0.0,-0.7000000000000001,9.5,-0.5,0.2,-0.4,-0.1
1698414822.628,16,0.0,0.0,0.0,-0.7000000000000001,9.5,-0.5,0.2,0.0,-0.2
1698414822.644,16,0.0,0.0,0.0,-0.7000000000000001,9.5,-0.5,0.1,0.2,0.0
1698414822.661,16,0.0,0.0,0.0,-0.8,9.5,-0.5,-0.2,0.2,0.0
1698414822.679,16,0.0,0.0,0.0,-0.7000000000000001,9.5,-0.6000000000000001,-0.4,0.0,0.0
1698414822.695,16,0.0,0.0,0.0,-0.7000000000000001,9.600000000000001,-0.5,-0.7,0.7,-0.1
1698414822.711,16,0.0,0.0,0.0,-0.7000000000000001,9.5,-0.5,-0.7,0.8,-0.2
1698414822.728,16,0.0,0.0,0.0,-0.7000000000000001,9.5,-0.5,-0.6000000000000001,0.1,-0.30000000000000004
1698414822.745,16,0.0,0.0,0.0,-0.7000000000000001,9.5,-0.5,-0.2,-0.1,-0.30000000000000004
1698414822.762,16,0.0,0.0,0.0,-0.7000000000000001,9.5,-0.5,0.1,0.0,-0.2
1698414822.778,16,0.0,0.0,0.0,-0.7000000000000001,9.5,-0.5,0.2,-0.1,-0.2
1698414822.794,16,0.0,0.0,0.0,-0.7000000000000001,9.5,-0.5,0.2,0.2,-0.2
1698414822.811,16,0.0,0.0,0.0,-0.7000000000000001,9.5,-0.5,0.2,0.30000000000000004,-0.2
1698414822.828,16,0.0,0.0,0.0,-0.7000000000000001,9.5,-0.5,0.2,0.4,-0.5
1698414822.845,16,0.0,0.0,0.0,-0.7000000000000001,9.5,-0.6000000000000001,0.2,0.0,-0.4
1698414822.862,16,0.0,0.0,0.0,-0.8,9.5,-0.5,0.0,-0.1,-0.4
1698414822.879,16,0.0,0.0,0.0,-0.8,9.5,-0.5,0.1,-0.1,-0.30000000000000004
1698414822.895,16,0.0,0.0,0.0,-0.8,9.5,-0.5,0.2,-0.5,-0.2
1698414822.914,16,0.0,0.0,0.0,-0.8,9.5,-0.5,0.30000000000000004,-0.4,-0.1
1698414822.929,16,0.0,0.0,0.0,-0.8,9.5,-0.5,0.2,-0.4,-0.1
1698414822.945,16,0.0,0.0,0.1,-0.7000000000000001,9.5,-0.5,0.4,-0.5,-0.2
1698414822.961,16,0.0,0.0,0.0,-0.7000000000000001,9.5,-0.5,0.5,-0.4,-0.2
1698414822.978,16,0.0,0.1,0.0,-0.7000000000000001,9.600000000000001,-0.5,0.5,-0.4,-0.2
1698414822.994,16,0.0,0.0,0.0,-0.8,9.5,-0.5,0.2,-0.30000000000000004,-0.4
1698414823.013,16,0.0,0.0,0.0,-0.8,9.5,-0.5,0.30000000000000004,-0.1,-0.1
1698414823.028,16,0.0,0.0,0.0,-0.7000000000000001,9.5,-0.5,0.30000000000000004,-0.1,-0.30000000000000004
1698414823.045,16,0.0,0.0,-0.1,-0.7000000000000001,9.5,-0.6000000000000001,0.1,-0.1,-0.4
1698414823.061,16,0.0,0.0,0.0,-0.8,9.5,-0.5,0.1,-0.2,-0.4
1698414823.078,16,0.0,0.0,0.0,-0.7000000000000001,9.5,-0.5,0.1,0.1,-0.4
1698414823.094,16,0.0,0.0,0.0,-0.7000000000000001,9.5,-0.6000000000000001,0.30000000000000004,0.2,-0.4
1698414823.111,16,0.0,0.0,0.0,-0.7000000000000001,9.5,-0.5,0.4,-0.1,-0.4
1698414823.128,16,0.0,0.0,0.0,-0.7000000000000001,9.5,-0.5,0.30000000000000004,-0.1,-0.5
1698414823.144,16,0.0,0.0,0.0,-0.7000000000000001,9.5,-0.5,0.2,-0.30000000000000004,-0.5
1698414823.161,16,0.0,0.0,0.0,-0.8,9.5,-0.5,0.30000000000000004,-0.1,-0.5
1698414823.178,16,0.0,0.0,0.0,-0.7000000000000001,9.5,-0.5,0.4,0.1,-0.4
1698414823.195,16,0.0,0.0,0.0,-0.7000000000000001,9.5,-0.6000000000000001,0.2,0.1,-0.5
1698414823.211,16,0.0,0.0,-0.1,-0.8,9.5,-0.6000000000000001,0.2,0.2,-0.5
1698414823.228,16,0.0,0.0,0.0,-0.8,9.5,-0.6000000000000001,0.1,0.1,-0.5
1698414823.244,16,0.0,0.0,0.0,-0.8,9.5,-0.5,0.1,-0.30000000000000004,-0.2
1698414823.264,16,0.0,0.0,0.0,-0.8,9.5,-0.6000000000000001,-0.1,-0.1,-0.2
1698414823.278,16,0.0,0.0,0.0,-0.8,9.5,-0.5,-0.1,-0.2,-0.1
1698414823.295,16,0.0,0.0,0.0,-0.8,9.5,-0.5,-0.1,-0.1,-0.30000000000000004
1698414823.311,16,0.0,0.0,0.0,-0.8,9.5,-0.5,-0.1,0.1,-0.1
1698414823.328,16,0.0,0.0,0.0,-0.8,9.5,-0.6000000000000001,-0.2,0.0,-0.1
1698414823.344,16,0.0,0.0,0.0,-0.8,9.5,-0.5,-0.2,0.0,0.0
1698414823.362,16,0.0,0.0,0.1,-0.8,9.5,-0.5,-0.4,0.0,-0.1
1698414823.378,16,0.0,0.0,0.0,-0.8,9.5,-0.5,-0.5,0.1,-0.30000000000000004
1698414823.395,16,0.0,0.1,0.0,-0.8,9.600000000000001,-0.6000000000000001,-0.7,-0.2,-0.30000000000000004
1698414823.412,16,0.0,0.0,-0.2,-0.7000000000000001,9.5,-0.7000000000000001,-1.6,-0.30000000000000004,-0.7
1698414823.428,16,0.0,0.0,-0.2,-0.7000000000000001,9.5,-0.8,-2.9,-0.5,-0.9
1698414823.444,16,-0.1,0.1,0.1,-0.8,9.600000000000001,-0.4,-5.1,-1.8,-1.2000000000000002
1698414823.462,16,0.0,0.2,0.1,-0.8,9.700000000000001,-0.4,-5.1,-2.8,-0.5
1698414823.478,16,0.0,0.2,0.0,-0.8,9.700000000000001,-0.5,-4.800000000000001,-3.1,-0.4
1698414823.495,16,0.1,0.0,-0.2,-0.7000000000000001,9.5,-0.6000000000000001,-3.8,-2.6,-1.0
1698414823.511,16,0.1,0.0,-0.2,-0.7000000000000001,9.5,-0.7000000000000001,-3.1,-1.5000000000000002,-0.4
1698414823.528,16,0.1,0.0,-0.30000000000000004,-0.7000000000000001,9.5,-0.8,-2.6,-1.0,-0.9
1698414823.545,16,0.0,0.0,-0.1,-0.8,9.5,-0.6000000000000001,-2.0,-0.4,-1.0999999999999999
1698414823.562,16,0.0,-0.1,0.0,-0.8,9.5,-0.5,-1.6,0.2,-0.9
1698414823.578,16,0.0,-0.1,0.0,-0.8,9.4,-0.5,-1.4,0.1,-0.5
1698414823.595,16,0.0,-0.1,0.1,-0.8,9.4,-0.4,-1.5000000000000002,0.2,-0.1
1698414823.612,16,0.0,0.0,0.2,-0.8,9.5,-0.30000000000000004,-1.9,0.7,0.0
1698414823.628,16,0.0,0.0,0.2,-0.8,9.5,-0.30000000000000004,-2.1,1.0,-0.1
1698414823.644,16,-0.1,0.0,0.30000000000000004,-0.8,9.5,-0.2,-2.4000000000000004,1.2000000000000002,-0.1
1698414823.662,16,0.0,0.0,0.2,-0.8,9.5,-0.2,-2.6,0.8,-0.1
1698414823.679,16,0.0,0.0,0.2,-0.8,9.5,-0.2,-2.4000000000000004,0.6000000000000001,-0.1
1698414823.695,16,0.0,0.0,0.1,-0.8,9.5,-0.30000000000000004,-2.3000000000000003,0.7,-0.2
1698414823.712,16,0.0,-0.1,0.1,-0.8,9.4,-0.30000000000000004,-2.0,0.8,-0.30000000000000004
1698414823.728,16,0.0,-0.1,0.1,-0.8,9.4,-0.30000000000000004,-1.5000000000000002,1.0,-0.30000000000000004
1698414823.745,16,0.0,-0.1,0.0,-0.8,9.4,-0.4,-1.0,0.8,-0.30000000000000004
1698414823.762,16,0.0,-0.1,0.0,-0.8,9.4,-0.30000000000000004,-0.5,0.7,-0.4
1698414823.778,16,0.0,-0.1,0.1,-0.8,9.5,-0.30000000000000004,0.0,0.30000000000000004,-0.1
1698414823.795,16,0.0,0.0,0.0,-0.8,9.5,-0.4,0.2,0.2,0.1
1698414823.812,16,0.0,0.0,0.1,-0.8,9.5,-0.30000000000000004,0.4,0.1,0.2
1698414823.828,16,0.0,0.0,0.0,-0.8,9.5,-0.30000000000000004,0.4,0.2,0.2
1698414823.847,16,0.0,0.0,0.0,-0.8,9.5,-0.30000000000000004,0.5,0.1,0.2
1698414823.861,16,0.0,0.0,0.0,-0.8,9.5,-0.4,0.5,0.1,0.2
1698414823.878,16,0.0,0.0,0.0,-0.8,9.5,-0.4,0.5,0.1,0.2
1698414823.895,16,0.0,0.0,0.0,-0.8,9.5,-0.4,0.6000000000000001,0.0,0.2
1698414823.912,16,0.0,0.0,0.0,-0.8,9.5,-0.4,0.9,0.1,0.2
1698414823.928,16,0.0,0.0,0.0,-0.8,9.5,-0.4,1.0999999999999999,0.2,0.2
1698414823.945,16,0.0,0.0,0.0,-0.8,9.5,-0.4,1.0999999999999999,0.30000000000000004,0.2
1698414823.962,16,0.0,0.0,0.0,-0.8,9.5,-0.4,1.2000000000000002,0.2,0.2
1698414823.978,16,-0.1,0.0,0.0,-0.9,9.5,-0.4,1.2000000000000002,0.1,0.2
1698414823.995,16,0.0,0.0,0.0,-0.8,9.5,-0.4,1.0999999999999999,0.1,0.30000000000000004
1698414824.012,16,0.0,0.0,0.0,-0.8,9.5,-0.4,1.2000000000000002,0.2,0.30000000000000004
1698414824.028,16,0.1,0.0,0.0,-0.7000000000000001,9.5,-0.4,1.2000000000000002,0.30000000000000004,0.1
1698414824.044,16,0.0,0.0,0.0,-0.7000000000000001,9.5,-0.4,1.2000000000000002,0.30000000000000004,-0.1
1698414824.061,16,0.0,0.1,0.0,-0.8,9.600000000000001,-0.4,1.2000000000000002,0.1,-0.1
1698414824.078,16,0.0,0.0,-0.1,-0.8,9.5,-0.5,0.9,0.2,0.2
1698414824.094,16,0.0,0.0,0.0,-0.8,9.5,-0.5,1.0,0.0,0.2
1698414824.111,16,0.0,0.0,0.0,-0.8,9.5,-0.4,0.9,-0.1,0.2
1698414824.128,16,0.0,0.0,0.0,-0.8,9.5,-0.4,1.2000000000000002,0.4,0.2
1698414824.145,16,0.0,0.0,0.0,-0.8,9.5,-0.5,1.2000000000000002,0.4,0.1
1698414824.161,16,0.0,0.0,0.0,-0.8,9.5,-0.4,1.3,0.2,0.2
1698414824.178,16,0.0,0.0,0.0,-0.8,9.5,-0.5,1.3,0.1,0.30000000000000004
1698414824.195,16,0.0,0.0,0.0,-0.8,9.5,-0.5,1.3,0.1,0.2
1698414824.212,16,0.0,0.0,0.0,-0.8,9.5,-0.4,1.0999999999999999,0.4,0.4
1698414824.228,16,0.0,0.0,0.0,-0.8,9.5,-0.5,1.0,0.2,0.2
1698414824.245,16,0.0,0.0,0.0,-0.8,9.5,-0.5,0.9,0.30000000000000004,0.30000000000000004
1698414824.262,16,0.0,0.0,0.0,-0.8,9.5,-0.5,0.5,0.2,0.2
1698414824.278,16,0.0,0.0,0.0,-0.8,9.5,-0.4,0.6000000000000001,0.2,0.1
1698414824.295,16,0.0,0.0,0.0,-0.8,9.5,-0.5,0.9,0.2,0.30000000000000004
1698414824.312,16,0.0,0.0,0.0,-0.8,9.5,-0.5,1.0,0.2,0.2
1698414824.328,16,0.0,0.0,0.0,-0.8,9.5,-0.5,1.0,-0.2,0.30000000000000004
1698414824.345,16,0.0,0.0,0.0,-0.8,9.5,-0.5,1.0999999999999999,-0.1,0.4
1698414824.362,16,0.0,0.0,0.0,-0.8,9.5,-0.5,0.9,-0.2,0.30000000000000004
1698414824.378,16,0.0,0.0,0.0,-0.8,9.5,-0.5,0.5,0.1,0.4
1698414824.394,16,0.0,0.0,0.0,-0.8,9.5,-0.5,0.4,-0.1,0.4
1698414824.412,16,0.0,0.0,0.0,-0.8,9.5,-0.4,0.30000000000000004,0.2,0.30000000000000004
1698414824.428,16,0.0,0.0,0.0,-0.8,9.5,-0.4,0.4,0.2,0.2
1698414824.444,16,0.0,0.0,0.0,-0.8,9.5,-0.5,0.4,0.2,0.2
1698414824.461,16,0.0,0.0,0.0,-0.8,9.5,-0.5,0.30000000000000004,0.2,0.2
1698414824.479,16,0.0,0.0,0.0,-0.8,9.5,-0.5,0.2,0.30000000000000004,0.2
1698414824.496,16,0.0,0.0,0.0,-0.8,9.5,-0.5,0.2,0.2,0.30000000000000004
1698414824.511,16,0.0,0.0,0.0,-0.8,9.5,-0.5,0.30000000000000004,0.1,0.4
1698414824.528,16,0.0,0.0,0.0,-0.8,9.5,-0.5,0.30000000000000004,0.0,0.30000000000000004
1698414824.545,16,0.0,0.0,0.0,-0.8,9.5,-0.5,0.2,0.1,0.2
1698414824.562,16,0.0,0.0,0.0,-0.8,9.5,-0.4,0.30000000000000004,0.1,0.2
1698414824.579,16,0.0,0.0,0.0,-0.8,9.5,-0.5,0.2,0.0,0.1
1698414824.595,16,0.0,0.0,0.0,-0.8,9.5,-0.5,0.1,0.2,0.30000000000000004
1698414824.612,16,0.0,0.0,0.0,-0.8,9.5,-0.5,0.1,0.2,0.30000000000000004
1698414824.628,16,0.0,0.0,0.0,-0.8,9.5,-0.5,-0.1,0.4,0.30000000000000004
1698414824.645,16,0.0,0.0,0.0,-0.8,9.5,-0.5,0.1,0.4,0.30000000000000004
1698414824.662,16,0.0,0.0,0.0,-0.8,9.5,-0.5,-0.1,0.1,0.4
1698414824.679,16,0.0,0.0,0.0,-0.7000000000000001,9.5,-0.5,-0.1,0.1,0.4
1698414824.695,16,0.0,0.0,0.0,-0.7000000000000001,9.5,-0.5,0.0,0.30000000000000004,0.2
1698414824.711,16,0.0,0.0,0.0,-0.7000000000000001,9.5,-0.4,-0.1,0.4,0.0
1698414824.728,16,0.0,0.0,0.0,-0.8,9.5,-0.5,-0.1,0.1,0.0
1698414824.744,16,0.0,0.0,0.0,-0.8,9.5,-0.5,-0.1,0.2,0.1
1698414824.761,16,0.0,0.0,0.0,-0.8,9.5,-0.5,-0.1,0.30000000000000004,0.1
1698414824.779,16,0.0,0.0,0.0,-0.8,9.5,-0.5,-0.30000000000000004,-0.1,0.2
1698414824.796,16,0.0,0.0,0.0,-0.8,9.5,-0.5,-0.30000000000000004,-0.5,0.1
1698414824.811,16,0.0,0.0,0.0,-0.8,9.5,-0.5,-0.30000000000000004,-0.30000000000000004,0.1
1698414824.828,16,0.0,0.0,0.0,-0.8,9.5,-0.5,-0.2,-0.1,0.1
1698414824.845,16,0.0,0.0,0.0,-0.8,9.5,-0.4,-0.1,-0.2,0.1
1698414824.861,16,0.0,0.0,0.0,-0.8,9.5,-0.4,0.0,-0.4,0.2
1698414824.878,16,0.0,0.0,0.0,-0.8,9.5,-0.4,0.1,-0.30000000000000004,0.2
1698414824.894,16,0.0,0.0,0.0,-0.7000000000000001,9.5,-0.4,0.2,-0.1,0.1
1698414824.911,16,0.0,0.0,0.0,-0.7000000000000001,9.5,-0.5,0.2,0.1,0.0
1698414824.928,16,0.0,0.0,0.0,-0.7000000000000001,9.5,-0.5,0.2,0.2,-0.2
1698414824.945,16,0.0,0.0,0.0,-0.8,9.5,-0.4,0.1,0.2,-0.1
1698414824.961,16,0.0,0.0,0.0,-0.8,9.5,-0.5,0.2,0.1,0.1
1698414824.978,16,0.0,0.0,0.0,-0.8,9.5,-0.5,0.2,0.0,0.1
1698414824.994,16,0.0,0.0,0.0,-0.8,9.5,-0.4,0.2,0.0,0.0
1698414825.011,16,0.0,0.0,0.0,-0.7000000000000001,9.5,-0.5,0.2,0.1,-0.1
1698414825.028,16,0.0,0.0,0.0,-0.8,9.5,-0.5,0.2,0.1,0.0
1698414825.044,16,0.0,0.0,0.0,-0.8,9.5,-0.5,0.2,-0.30000000000000004,0.1
1698414825.062,16,0.0,0.0,0.0,-0.8,9.5,-0.5,0.2,-0.30000000000000004,0.1
1698414825.077,16,0.0,0.0,0.0,-0.8,9.5,-0.5,0.2,-0.30000000000000004,0.2
1698414825.094,16,0.0,0.0,0.0,-0.7000000000000001,9.5,-0.5,0.1,0.0,0.0
1698414825.111,16,0.0,0.0,0.0,-0.8,9.5,-0.5,0.1,0.1,0.0
1698414825.127,16,0.0,0.0,0.0,-0.8,9.5,-0.5,0.0,0.1,0.1
1698414825.144,16,0.0,0.0,0.0,-0.8,9.5,-0.5,0.1,-0.1,0.1
1698414825.162,16,0.0,0.0,0.0,-0.8,9.5,-0.5,0.1,0.1,0.0
1698414825.178,16,0.0,0.0,0.0,-0.8,9.5,-0.5,0.1,0.1,0.1
1698414825.195,16,0.0,0.0,0.0,-0.8,9.5,-0.5,0.1,0.2,0.2
1698414825.211,16,0.0,0.0,0.0,-0.8,9.5,-0.5,0.1,0.1,0.1
1698414825.228,16,0.0,0.0,0.0,-0.8,9.5,-0.5,0.1,0.2,0.0
1698414825.244,16,0.0,0.0,0.0,-0.8,9.5,-0.5,0.1,0.0,0.0
1698414825.261,16,0.0,0.0,0.0,-0.8,9.5,-0.5,0.1,0.1,0.1
1698414825.278,16,0.0,0.0,0.0,-0.8,9.5,-0.5,0.1,-0.1,0.2
1698414825.294,16,0.0,0.0,0.0,-0.7000000000000001,9.5,-0.5,-0.1,-0.2,0.2
1698414825.311,16,0.0,0.0,0.0,-0.7000000000000001,9.5,-0.5,0.0,-0.1,0.2
1698414825.328,16,0.0,0.0,0.0,-0.8,9.5,-0.5,0.1,-0.1,0.1
1698414825.344,16,0.0,0.0,0.0,-0.8,9.5,-0.5,-0.1,-0.1,0.2
1698414825.361,16,0.0,0.0,0.0,-0.8,9.5,-0.4,0.0,-0.1,0.1
1698414825.378,16,0.0,0.0,0.0,-0.7000000000000001,9.5,-0.5,-0.1,0.1,0.1
1698414825.394,16,0.0,-0.1,0.0,-0.8,9.4,-0.4,0.0,0.1,0.0
1698414825.412,16,0.0,0.0,0.0,-0.8,9.5,-0.5,0.0,-0.1,0.1
1698414825.428,16,0.0,0.0,0.0,-0.8,9.5,-0.5,0.1,0.0,0.2
1698414825.444,16,0.0,0.0,0.0,-0.8,9.5,-0.5,0.1,0.1,0.1
1698414825.461,16,0.0,0.0,0.0,-0.8,9.5,-0.5,-0.2,-0.4,0.0
1698414825.478,16,0.0,0.0,0.0,-0.8,9.5,-0.4,-0.1,-0.4,-0.1
1698414825.496,16,0.0,0.0,0.0,-0.8,9.5,-0.5,0.1,-0.4,0.1
1698414825.511,16,0.0,0.0,0.0,-0.8,9.5,-0.5,0.1,-0.4,0.2
1698414825.529,16,0.0,0.0,0.0,-0.8,9.5,-0.5,0.1,-0.2,0.2
1698414825.545,16,0.0,0.0,0.0,-0.8,9.5,-0.5,0.1,-0.30000000000000004,0.2
1698414825.561,16,0.0,0.0,0.0,-0.7000000000000001,9.5,-0.4,0.0,0.0,0.2
1698414825.578,16,0.0,0.0,0.0,-0.7000000000000001,9.5,-0.5,0.0,0.1,0.2
1698414825.595,16,0.0,0.0,0.0,-0.7000000000000001,9.5,-0.4,0.1,0.2,0.1
1698414825.611,16,0.0,0.0,0.0,-0.8,9.5,-0.5,0.1,0.2,0.2
1698414825.628,16,0.0,0.0,0.0,-0.8,9.5,-0.4,0.2,0.2,0.2
1698414825.645,16,0.0,0.0,0.0,-0.8,9.5,-0.4,0.2,0.1,0.1
1698414825.662,16,0.0,0.0,0.0,-0.8,9.5,-0.5,0.4,0.0,0.2
1698414825.677,16,0.0,0.0,0.0,-0.7000000000000001,9.5,-0.4,0.4,0.1,0.2
1698414825.694,16,0.0,0.0,0.0,-0.7000000000000001,9.5,-0.5,0.5,0.4,0.1
1698414825.711,16,0.0,0.0,0.0,-0.7000000000000001,9.5,-0.5,0.4,0.2,-0.1
1698414825.728,16,0.0,0.0,0.0,-0.8,9.5,-0.5,0.4,0.2,-0.1
1698414825.744,16,0.0,0.0,0.0,-0.8,9.5,-0.5,0.4,0.2,-0.1
1698414825.761,16,0.0,0.0,0.0,-0.7000000000000001,9.5,-0.5,0.4,0.1,-0.1
1698414825.777,16,0.0,0.0,0.0,-0.8,9.5,-0.5,0.4,0.2,-0.2
1698414825.795,16,0.0,0.0,0.0,-0.8,9.5,-0.5,0.2,0.30000000000000004,-0.2
1698414825.812,16,0.0,-0.1,0.1,-0.8,9.4,-0.4,0.1,-0.1,-0.1
1698414825.828,16,0.0,0.0,0.0,-0.7000000000000001,9.5,-0.4,0.7,-0.1,-0.30000000000000004
1698414825.844,16,0.0,0.0,0.0,-0.8,9.5,-0.5,0.9,0.1,-0.30000000000000004
1698414825.862,16,0.0,0.0,0.0,-0.7000000000000001,9.5,-0.5,1.2000000000000002,0.0,-0.4
1698414825.882,16,0.0,0.0,0.0,-0.8,9.5,-0.5,1.2000000000000002,-0.2,-0.7
1698414825.894,16,0.0,0.0,0.0,-0.8,9.5,-0.5,1.3,-0.2,-0.6000000000000001
1698414825.911,16,0.0,0.0,0.1,-0.8,9.5,-0.4,1.3,-0.2,-0.6000000000000001
1698414825.927,16,0.0,0.0,0.0,-0.8,9.5,-0.5,1.4,-0.1,-0.5
1698414825.945,16,0.0,0.0,0.0,-0.8,9.5,-0.5,1.3,-0.1,-0.5
1698414825.961,16,0.0,0.0,0.0,-0.8,9.5,-0.5,1.3,0.1,-0.4
1698414825.978,16,-0.1,0.0,0.0,-0.8,9.5,-0.5,1.2000000000000002,-0.1,-0.2
1698414825.995,16,0.0,0.0,0.0,-0.8,9.5,-0.6000000000000001,1.2000000000000002,-0.30000000000000004,-0.1
1698414826.012,16,0.0,0.0,0.0,-0.8,9.5,-0.5,1.4,-0.2,0.0
1698414826.028,16,0.0,0.0,0.0,-0.8,9.5,-0.5,1.4,-0.30000000000000004,-0.2
1698414826.044,16,0.0,0.0,0.0,-0.8,9.5,-0.6000000000000001,1.3,-0.1,-0.2
1698414826.061,16,0.0,0.0,0.0,-0.8,9.5,-0.6000000000000001,1.0999999999999999,-0.1,-0.2
1698414826.079,16,0.1,0.0,0.0,-0.7000000000000001,9.5,-0.6000000000000001,0.7,0.1,-0.4
1698414826.096,16,0.0,0.0,-0.1,-0.7000000000000001,9.5,-0.6000000000000001,0.4,0.4,-0.5
1698414826.114,16,0.0,0.0,0.0,-0.8,9.5,-0.5,0.2,0.2,-0.4
1698414826.128,16,0.0,0.1,0.0,-0.8,9.600000000000001,-0.6000000000000001,0.1,0.1,-0.4
1698414826.145,16,0.0,0.0,0.0,-0.8,9.5,-0.6000000000000001,0.0,0.1,-0.2
1698414826.163,16,0.0,0.0,-0.1,-0.8,9.5,-0.6000000000000001,-0.2,0.0,-0.30000000000000004
1698414826.179,16,0.0,0.0,0.0,-0.8,9.5,-0.6000000000000001,-0.6000000000000001,-0.4,-0.2
1698414826.196,16,0.0,0.0,0.0,-0.8,9.5,-0.6000000000000001,-0.6000000000000001,-0.30000000000000004,-0.1
1698414826.213,16,0.0,0.0,0.0,-0.8,9.5,-0.6000000000000001,-0.7,-0.2,0.0
1698414826.227,16,0.0,0.0,0.0,-0.8,9.5,-0.6000000000000001,-0.7,-0.2,0.0
1698414826.245,16,0.0,0.0,0.0,-0.8,9.5,-0.5,-0.5,-0.2,0.1
1698414826.262,16,0.0,0.0,0.0,-0.8,9.5,-0.5,-0.4,-0.30000000000000004,0.1
1698414826.278,16,0.0,0.0,0.1,-0.8,9.5,-0.5,-0.4,0.1,0.0
1698414826.295,16,0.0,0.0,0.0,-0.8,9.5,-0.5,-0.5,0.2,0.0
1698414826.312,16,0.0,0.0,0.1,-0.8,9.5,-0.5,-0.4,0.30000000000000004,-0.1
1698414826.328,16,0.0,0.0,0.0,-0.8,9.5,-0.5,-0.4,0.1,-0.2
1698414826.345,16,0.0,0.0,0.0,-0.8,9.5,-0.5,-0.2,0.2,-0.2
1698414826.362,16,0.0,0.0,0.0,-0.8,9.5,-0.5,-0.2,0.2,-0.1
1698414826.379,16,0.0,0.0,0.0,-0.8,9.5,-0.5,-0.2,0.1,0.1
1698414826.395,16,0.0,0.0,0.0,-0.8,9.5,-0.5,-0.2,0.2,-0.1
1698414826.412,16,0.0,0.0,0.0,-0.8,9.5,-0.5,-0.1,0.2,-0.2
1698414826.428,16,0.0,0.0,0.0,-0.8,9.5,-0.5,-0.4,0.1,-0.1
1698414826.444,16,0.0,0.1,0.0,-0.8,9.600000000000001,-0.5,-0.6000000000000001,-0.1,-0.2
1698414826.462,16,0.0,0.0,0.0,-0.8,9.5,-0.5,-0.7,0.2,-0.1
1698414826.478,16,0.0,0.0,0.0,-0.8,9.5,-0.6000000000000001,-0.8,0.4,0.0
1698414826.495,16,0.0,0.0,-0.1,-0.8,9.5,-0.6000000000000001,-1.3,0.5,0.0
1698414826.512,16,0.0,0.0,0.0,-0.8,9.5,-0.5,-1.4,0.5,0.2
1698414826.528,16,0.0,0.0,0.0,-0.8,9.5,-0.5,-1.4,0.6000000000000001,0.4
1698414826.547,16,0.0,0.0,0.0,-0.8,9.5,-0.5,-1.5000000000000002,0.2,0.4
1698414826.562,16,0.0,0.0,0.0,-0.8,9.5,-0.5,-1.4,0.2,0.5
1698414826.578,16,0.0,0.0,0.0,-0.8,9.5,-0.5,-1.5000000000000002,0.30000000000000004,0.6000000000000001
1698414826.595,16,0.0,0.0,0.0,-0.8,9.5,-0.5,-1.3,0.1,0.7
1698414826.612,16,0.0,0.0,0.0,-0.8,9.5,-0.5,-1.2000000000000002,-0.30000000000000004,0.9
1698414826.628,16,0.0,0.0,0.1,-0.8,9.5,-0.4,-1.0,-0.4,0.9
1698414826.644,16,0.0,0.0,0.1,-0.8,9.5,-0.4,-0.7,-0.4,0.7
1698414826.663,16,0.0,0.0,0.1,-0.8,9.5,-0.4,-0.6000000000000001,-0.2,0.7
1698414826.678,16,0.0,0.0,0.1,-0.8,9.5,-0.4,-0.6000000000000001,-0.2,0.5
1698414826.695,16,0.0,0.0,0.1,-0.7000000000000001,9.5,-0.4,-0.5,-0.30000000000000004,0.6000000000000001
1698414826.712,16,0.0,0.0,0.0,-0.8,9.5,-0.4,-0.30000000000000004,-0.30000000000000004,0.6000000000000001
1698414826.728,16,0.0,0.0,0.0,-0.7000000000000001,9.5,-0.4,-0.1,-0.2,0.5
1698414826.744,16,0.0,0.0,0.0,-0.8,9.5,-0.4,0.2,0.1,0.2
1698414826.761,16,0.0,0.0,0.0,-0.8,9.5,-0.5,0.30000000000000004,0.1,0.2
1698414826.779,16,0.0,0.0,0.0,-0.8,9.5,-0.4,0.30000000000000004,0.1,0.2
1698414826.795,16,0.0,0.0,0.0,-0.8,9.5,-0.4,0.30000000000000004,-0.1,0.2
1698414826.811,16,0.0,0.0,0.0,-0.7000000000000001,9.5,-0.4,0.2,0.1,0.1
1698414826.828,16,0.0,0.0,0.0,-0.7000000000000001,9.5,-0.5,0.2,0.4,0.0
1698414826.844,16,0.0,0.0,0.0,-0.8,9.5,-0.5,0.1,0.5,0.0
1698414826.862,16,0.0,0.0,0.0,-0.8,9.5,-0.5,0.1,0.4,0.1
1698414826.878,16,0.1,0.0,0.0,-0.7000000000000001,9.5,-0.5,-0.1,0.5,0.1
1698414826.895,16,0.0,0.0,-0.1,-0.7000000000000001,9.5,-0.5,-0.1,0.6000000000000001,-0.30000000000000004
1698414826.911,16,0.0,0.0,-0.1,-0.8,9.5,-0.5,-0.6000000000000001,0.4,-0.8
1698414826.928,16,0.0,0.1,0.0,-0.8,9.600000000000001,-0.5,-0.9,0.1,-0.6000000000000001
1698414826.945,16,0.0,0.1,-0.1,-0.8,9.600000000000001,-0.6000000000000001,-1.4,0.30000000000000004,-0.30000000000000004
1698414826.961,16,0.0,0.1,-0.2,-0.8,9.600000000000001,-0.6000000000000001,-1.8,0.1,-0.5
1698414826.979,16,0.0,0.0,-0.30000000000000004,-0.7000000000000001,9.5,-0.8,-4.0,-0.9,-1.0999999999999999
1698414826.994,16,-0.1,0.1,-0.1,-0.8,9.600000000000001,-0.5,-7.8,-2.6,-1.0999999999999999
1698414827.011,16,-0.1,0.1,0.1,-0.9,9.600000000000001,-0.30000000000000004,-9.1,-3.0000000000000004,-0.30000000000000004
1698414827.029,16,-0.1,0.30000000000000004,0.1,-0.9,9.8,-0.30000000000000004,-10.0,-3.2,0.6000000000000001
1698414827.045,16,-0.1,0.1,-0.2,-0.9,9.600000000000001,-0.6000000000000001,-11.700000000000001,-3.9,1.3
1698414827.062,16,-0.1,0.0,-0.30000000000000004,-0.9,9.600000000000001,-0.6000000000000001,-13.100000000000001,-4.7,2.0
1698414827.082,16,0.0,0.2,-0.2,-0.8,9.700000000000001,-0.5,-16.2,-4.3999999999999995,3.1
1698414827.095,16,0.0,0.30000000000000004,-0.4,-0.7000000000000001,9.8,-0.7000000000000001,-19.400000000000002,-1.8,2.6
1698414827.111,16,0.0,0.2,-0.4,-0.8,9.700000000000001,-0.6000000000000001,-21.700000000000003,-1.4,2.1
1698414827.128,16,-0.1,0.30000000000000004,-0.4,-0.9,9.9,-0.5,-26.1,-2.8,2.1
1698414827.144,16,-0.1,0.5,-0.2,-0.9,10.0,-0.30000000000000004,-30.799999999999997,-4.300000000000001,1.8
1698414827.161,16,-0.1,0.30000000000000004,-0.30000000000000004,-0.9,9.9,-0.2,-34.50000000000001,-6.5,1.0
1698414827.177,16,-0.1,0.30000000000000004,-0.30000000000000004,-0.9,9.9,-0.2,-36.1,-6.1000000000000005,1.8
1698414827.195,16,-0.1,0.4,-0.5,-0.8,9.9,-0.2,-39.2,-3.9,3.3000000000000003
1698414827.211,16,-0.1,0.30000000000000004,-0.5,-0.8,9.9,-0.2,-41.300000000000004,-3.9,3.8
1698414827.229,16,0.0,0.2,-0.4,-0.8,9.8,0.0,-44.4,-4.1000000000000005,4.1000000000000005
1698414827.245,16,0.0,0.30000000000000004,-0.6000000000000001,-0.7000000000000001,9.9,0.0,-47.300000000000004,-3.5,4.300000000000001
1698414827.261,16,-0.1,0.4,-0.8,-0.9,10.0,-0.1,-53.00000000000001,-2.9,5.4
1698414827.278,16,-0.30000000000000004,0.5,-1.0,-1.0,10.100000000000001,-0.1,-56.0,-2.8,6.6000000000000005
1698414827.294,16,-0.30000000000000004,0.6000000000000001,-0.8,-1.0,10.200000000000001,0.2,-62.50000000000001,-3.7000000000000006,9.5
1698414827.311,16,-0.1,1.0,-0.7000000000000001,-0.7000000000000001,10.600000000000001,0.5,-70.39999999999999,-5.500000000000001,10.5
1698414827.328,16,0.0,1.2000000000000002,-1.0,-0.6000000000000001,10.700000000000001,0.30000000000000004,-75.80000000000001,-5.300000000000001,10.5
1698414827.344,16,0.0,1.4000000000000001,-2.2,-0.6000000000000001,10.9,-0.6000000000000001,-90.10000000000001,-3.1,10.3
1698414827.361,16,-0.1,1.3,-3.0,-0.7000000000000001,10.8,-1.1,-110.50000000000001,7.6,11.6
1698414827.378,16,-0.30000000000000004,0.9,-2.4000000000000004,-0.8,10.3,-0.30000000000000004,-105.80000000000001,11.1,13.100000000000001
1698414827.395,16,-0.5,1.3,-3.8000000000000003,-1.0,10.600000000000001,-1.4000000000000001,-88.5,11.000000000000002,16.2
1698414827.412,16,-0.5,1.2000000000000002,-3.0,-1.0,10.5,-0.4,-99.7,2.9,15.8
1698414827.43,16,-0.30000000000000004,1.1,-3.7,-1.0,10.3,-0.6000000000000001,-96.3,1.8,15.399999999999999
1698414827.444,16,-0.1,1.5,-4.3,-0.5,10.700000000000001,-1.3,-88.9,0.2,11.4
1698414827.461,16,0.4,2.6,-3.8000000000000003,0.0,11.700000000000001,-0.5,-98.2,-2.1999999999999997,8.200000000000001
1698414827.478,16,0.30000000000000004,2.6,-0.1,0.2,12.0,1.1,-105.80000000000001,-1.8,6.1000000000000005
1698414827.494,16,0.1,2.4000000000000004,1.1,-0.2,11.3,4.9,-106.80000000000001,-13.6,0.9
1698414827.511,16,-0.7000000000000001,2.6,3.4000000000000004,-1.0,11.4,7.6000000000000005,-108.2,-8.0,0.4
1698414827.528,16,-0.5,2.7,3.6,-0.8,11.4,7.9,-99.0,-5.2,7.9
1698414827.545,16,0.9,2.9000000000000004,4.2,0.6000000000000001,11.5,8.8,-91.2,4.6000000000000005,11.9
1698414827.562,16,1.3,2.5,4.4,1.1,11.100000000000001,9.200000000000001,-84.4,10.600000000000001,10.600000000000001
1698414827.578,16,-0.30000000000000004,2.6,5.0,0.0,10.700000000000001,9.8,-69.10000000000001,15.7,10.8
1698414827.594,16,-0.4,2.9000000000000004,5.1000000000000005,-0.7000000000000001,11.3,10.3,-55.300000000000004,19.200000000000003,13.700000000000001
1698414827.611,16,0.2,2.8000000000000003,4.9,0.0,11.100000000000001,10.3,-41.2,15.100000000000001,10.9
1698414827.628,16,0.4,2.4000000000000004,4.800000000000001,0.1,10.700000000000001,10.3,-33.6,12.100000000000001,9.600000000000001
1698414827.644,16,0.0,1.9000000000000001,4.6000000000000005,-0.2,10.200000000000001,10.200000000000001,-17.3,6.000000000000001,8.4
1698414827.661,16,-0.1,1.3,4.2,-0.30000000000000004,9.600000000000001,9.9,1.8,2.1,6.2
1698414827.678,16,-0.2,0.8,3.6,-0.4,9.1,9.3,12.000000000000002,0.30000000000000004,4.800000000000001
1698414827.694,16,0.30000000000000004,-0.1,2.6,0.1,8.3,8.200000000000001,29.800000000000004,-2.9,2.9
1698414827.711,16,0.5,-0.8,1.7000000000000002,0.30000000000000004,7.7,7.2,46.7,-4.1000000000000005,-0.9
1698414827.728,16,0.2,-1.5,1.0,0.0,7.0,6.300000000000001,61.50000000000001,-4.1000000000000005,-3.9
1698414827.745,16,-0.1,-2.0,0.7000000000000001,-0.30000000000000004,6.6000000000000005,6.0,68.7,-3.9,-5.2
1698414827.761,16,-0.30000000000000004,-3.0,0.2,-0.5,5.7,5.2,83.7,-6.3,-6.2
1698414827.777,16,-0.2,-3.1,0.1,-0.4,5.6000000000000005,5.0,91.10000000000001,-7.6,-6.6000000000000005
1698414827.794,16,-0.1,-3.7,-0.7000000000000001,-0.30000000000000004,5.2,3.8000000000000003,105.7,-7.8,-6.8
1698414827.812,16,0.0,-4.2,-1.4000000000000001,-0.2,4.800000000000001,2.8000000000000003,117.1,-7.500000000000001,-7.1000000000000005
1698414827.828,16,0.1,-4.6000000000000005,-2.1,-0.1,4.6000000000000005,1.7000000000000002,124.0,-6.2,-6.8
1698414827.845,16,0.0,-4.9,-2.0,-0.2,4.3,1.6,125.2,-4.2,-6.4
1698414827.862,16,0.2,-5.7,-1.8,0.0,3.6,1.4000000000000001,126.20000000000002,-1.2000000000000002,-5.500000000000001
1698414827.877,16,0.4,-6.300000000000001,-1.3,0.1,3.1,1.4000000000000001,125.2,1.5000000000000002,-5.9
1698414827.894,16,0.30000000000000004,-6.5,-1.0,0.0,2.9000000000000004,1.5,124.8,2.1,-6.7
1698414827.911,16,-0.1,-6.9,-0.8,-0.4,2.6,1.3,122.7,0.9,-7.8
1698414827.928,16,-0.1,-6.9,-0.4,-0.5,2.6,1.3,116.5,-2.3000000000000003,-8.700000000000001
1698414827.944,16,-0.1,-6.800000000000001,-0.1,-0.5,2.7,1.4000000000000001,111.30000000000001,-3.1,-9.4
1698414827.961,16,0.0,-6.300000000000001,0.4,-0.30000000000000004,3.2,1.6,96.2,-4.2,-10.700000000000001
1698414827.978,16,0.1,-5.800000000000001,0.7000000000000001,-0.30000000000000004,3.7,1.7000000000000002,87.3,-4.6000000000000005,-11.4
1698414827.995,16,0.6000000000000001,-4.6000000000000005,1.5,0.1,4.800000000000001,2.3000000000000003,67.80000000000001,0.4,-9.8
1698414828.012,16,1.0,-3.7,2.4000000000000004,0.6000000000000001,5.800000000000001,3.0,46.900000000000006,-0.2,-9.200000000000001
1698414828.028,16,1.1,-2.7,2.8000000000000003,0.7000000000000001,6.7,3.4000000000000004,36.4,1.8,-7.0
1698414828.045,16,1.2000000000000002,-0.8,3.4000000000000004,0.7000000000000001,8.6,4.0,17.3,8.200000000000001,-3.7000000000000006
1698414828.062,16,0.5,1.0,3.9000000000000004,0.0,10.5,4.4,5.1,14.600000000000001,-1.2000000000000002
1698414828.079,16,0.0,1.7000000000000002,3.9000000000000004,-0.5,11.200000000000001,4.4,2.5,15.7,-0.1
1698414828.094,16,-0.9,1.5,3.7,-1.3,10.9,4.3,-3.6,12.8,0.7
1698414828.112,16,-0.7000000000000001,1.2000000000000002,3.3000000000000003,-1.2000000000000002,10.700000000000001,4.0,-20.6,5.9,1.5000000000000002
1698414828.127,16,0.0,0.6000000000000001,3.1,-0.4,10.0,3.9000000000000004,-38.5,-1.8,-0.30000000000000004
1698414828.145,16,0.4,-0.4,2.4000000000000004,-0.1,9.1,3.3000000000000003,-45.2,-3.7000000000000006,-2.5
1698414828.162,16,0.8,-1.9000000000000001,1.1,0.30000000000000004,7.6000000000000005,2.2,-58.60000000000001,-7.400000000000001,-6.8
1698414828.178,16,0.9,-2.3000000000000003,0.6000000000000001,0.30000000000000004,6.7,1.4000000000000001,-66.2,-6.5,-8.600000000000001
1698414828.195,16,0.6000000000000001,-2.8000000000000003,0.1,0.1,6.5,1.6,-81.8,1.4,-9.4
1698414828.211,16,0.30000000000000004,-2.8000000000000003,0.4,-0.30000000000000004,6.4,2.2,-98.10000000000001,8.200000000000001,-4.800000000000001
1698414828.228,16,-0.30000000000000004,-3.6,0.7000000000000001,-0.8,5.6000000000000005,2.8000000000000003,-106.9,9.9,0.30000000000000004
1698414828.244,16,-0.5,-4.4,0.0,-1.0,4.7,2.2,-106.9,9.3,3.1
1698414828.261,16,-0.7000000000000001,-5.9,-1.7000000000000002,-1.2000000000000002,3.1,0.9,-106.3,-9.1,7.2
1698414828.278,16,-0.6000000000000001,-5.9,-2.1,-1.1,2.9000000000000004,0.9,-114.00000000000001,-5.2,9.0
1698414828.296,16,-0.4,-5.4,-1.3,-0.9,3.3000000000000003,1.8,-116.00000000000001,-7.6,10.1
1698414828.312,16,-0.1,-3.8000000000000003,-1.4000000000000001,-0.5,4.800000000000001,2.0,-111.30000000000001,-16.700000000000003,13.100000000000001
1698414828.328,16,0.1,-4.1000000000000005,-1.4000000000000001,-0.30000000000000004,4.3,2.3000000000000003,-102.10000000000001,-11.9,16.6
1698414828.344,16,0.2,-4.4,-1.4000000000000001,-0.1,3.9000000000000004,2.5,-96.5,-8.3,18.3
1698414828.361,16,0.2,-3.4000000000000004,-2.0,-0.1,4.800000000000001,2.1,-87.7,-7.9,21.200000000000003
1698414828.378,16,0.1,-1.6,-1.4000000000000001,-0.1,6.4,2.9000000000000004,-78.7,-9.4,22.000000000000004
1698414828.395,16,0.0,-0.9,-0.9,-0.2,7.0,3.5,-73.60000000000001,-7.0,19.3
1698414828.412,16,-0.2,-0.7000000000000001,0.0,-0.4,7.1000000000000005,4.6000000000000005,-61.599999999999994,0.5,11.1
1698414828.428,16,-0.1,-0.7000000000000001,1.3,-0.30000000000000004,7.1000000000000005,6.1000000000000005,-46.4,9.3,6.7
1698414828.444,16,-0.2,-0.30000000000000004,2.0,-0.4,7.4,6.800000000000001,-37.800000000000004,12.700000000000001,5.4
1698414828.462,16,-0.2,1.0,1.9000000000000001,-0.30000000000000004,8.700000000000001,6.800000000000001,-18.6,21.1,4.3999999999999995
1698414828.478,16,0.1,2.4000000000000004,2.7,-0.1,10.100000000000001,7.6000000000000005,-8.9,27.5,4.300000000000001
1698414828.495,16,0.4,2.7,2.5,0.6000000000000001,10.200000000000001,7.6000000000000005,1.2000000000000002,19.8,3.7000000000000006
1698414828.512,16,0.5,2.3000000000000003,3.0,0.30000000000000004,10.100000000000001,7.9,5.6,13.200000000000001,0.7
1698414828.528,16,0.5,2.4000000000000004,3.4000000000000004,0.30000000000000004,10.200000000000001,8.4,16.1,12.000000000000002,-6.6000000000000005
1698414828.544,16,0.8,2.8000000000000003,4.1000000000000005,0.5,10.600000000000001,9.0,19.700000000000003,10.2,-8.200000000000001
1698414828.561,16,0.8,2.4000000000000004,3.4000000000000004,0.5,10.200000000000001,8.3,25.2,3.9,-7.500000000000001
1698414828.579,16,-0.1,0.1,2.4000000000000004,-0.4,8.0,7.2,27.5,2.0,-9.8
1698414828.595,16,-0.2,0.2,2.4000000000000004,-0.5,8.200000000000001,7.2,34.7,-1.3,-9.5
1698414828.612,16,-0.7000000000000001,4.5,0.7000000000000001,-1.0,12.5,5.4,39.8,7.6,-7.1000000000000005
1698414828.628,16,-0.4,8.700000000000001,4.6000000000000005,-1.0,15.100000000000001,8.0,43.300000000000004,0.7,-4.800000000000001
1698414828.646,16,-0.1,10.100000000000001,4.3,-0.5,18.400000000000002,8.8,36.1,-5.9,-1.3
1698414828.663,16,0.0,9.5,3.6,-0.4,17.900000000000002,8.0,37.900000000000006,-9.5,-1.4
1698414828.678,16,0.0,6.2,0.1,-0.4,14.8,4.4,44.00000000000001,-8.9,-5.2
1698414828.695,16,0.1,4.9,-1.5,-0.2,13.5,2.8000000000000003,45.800000000000004,-6.8,-9.0
1698414828.711,16,-0.4,-0.2,-3.4000000000000004,-0.8,8.5,0.7000000000000001,55.2,-9.0,-20.1
1698414828.728,16,-0.7000000000000001,-0.5,-4.5,-1.1,8.3,-0.6000000000000001,64.0,-11.1,-15.100000000000001
1698414828.744,16,-0.5,-1.1,-4.9,-1.0,7.7,-1.1,68.3,-10.9,-11.8
1698414828.762,16,-0.6000000000000001,-0.7000000000000001,-4.6000000000000005,-1.0,8.200000000000001,-1.1,69.5,-9.0,-10.2
1698414828.778,16,-0.30000000000000004,-0.7000000000000001,-3.2,-0.8,8.200000000000001,0.1,63.300000000000004,-9.700000000000001,-4.1000000000000005
1698414828.795,16,-0.1,0.1,-2.6,-0.6000000000000001,9.0,0.6000000000000001,63.2,-9.700000000000001,-2.7
1698414828.812,16,0.0,1.2000000000000002,-1.6,-0.5,10.3,1.4000000000000001,55.0,-7.500000000000001,-1.8
1698414828.828,16,-0.30000000000000004,2.4000000000000004,-1.3,-0.7000000000000001,11.5,1.5,39.699999999999996,-7.9,-0.30000000000000004
1698414828.844,16,-0.30000000000000004,2.8000000000000003,-2.1,-0.8,12.0,0.6000000000000001,20.4,-6.5,-0.9
1698414828.863,16,-0.30000000000000004,3.0,-1.7000000000000002,-0.8,12.100000000000001,1.0,10.3,-6.9,-0.30000000000000004
1698414828.878,16,-0.30000000000000004,2.8000000000000003,-1.9000000000000001,-0.7000000000000001,12.0,0.8,-1.8,-5.7,1.0
1698414828.894,16,-0.30000000000000004,2.7,-2.0,-0.8,11.9,0.7000000000000001,-10.600000000000001,-4.2,2.3000000000000003
1698414828.911,16,-0.5,2.0,-2.0,-0.9,11.200000000000001,0.8,-24.1,-3.4,5.300000000000001
1698414828.928,16,-0.6000000000000001,1.4000000000000001,-2.7,-1.0,10.600000000000001,0.2,-34.300000000000004,-1.0,8.0
1698414828.944,16,-0.30000000000000004,0.7000000000000001,-2.8000000000000003,-0.8,9.9,0.1,-42.0,0.0,8.9
1698414828.961,16,-0.30000000000000004,0.6000000000000001,-2.7,-0.7000000000000001,9.8,0.30000000000000004,-46.800000000000004,1.2000000000000002,9.600000000000001
1698414828.978,16,-0.30000000000000004,0.8,-2.8000000000000003,-0.6000000000000001,9.8,0.4,-56.5,2.9,11.2
1698414828.994,16,-0.2,0.9,-3.0,-0.6000000000000001,10.0,0.30000000000000004,-59.5,6.000000000000001,11.1
1698414829.011,16,0.0,1.2000000000000002,-2.8000000000000003,-0.30000000000000004,10.200000000000001,0.7000000000000001,-73.60000000000001,10.0,10.2
1698414829.028,16,0.0,1.3,-3.1,-0.30000000000000004,10.200000000000001,0.6000000000000001,-81.6,9.700000000000001,9.5
1698414829.044,16,-0.30000000000000004,1.6,-2.1,-0.6000000000000001,10.4,1.8,-73.50000000000001,4.7,8.5
1698414829.061,16,-0.4,1.7000000000000002,-1.8,-0.6000000000000001,10.5,2.2,-68.5,-0.7,8.5
1698414829.078,16,-0.2,1.6,-1.8,-0.4,10.3,2.4000000000000004,-63.4,-6.2,6.000000000000001
1698414829.094,16,-0.1,1.9000000000000001,-0.8,-0.30000000000000004,10.5,3.5,-59.80000000000001,-20.4,5.6
1698414829.111,16,0.30000000000000004,2.3000000000000003,0.8,0.1,10.9,5.2,-63.50000000000001,-22.7,4.6000000000000005
1698414829.128,16,1.2000000000000002,2.7,3.1,1.1,11.200000000000001,7.800000000000001,-73.10000000000001,-8.1,0.4
1698414829.144,16,1.0,2.1,4.2,1.1,10.9,8.6,-74.2,0.30000000000000004,1.3
1698414829.162,16,0.8,1.9000000000000001,4.2,0.7000000000000001,10.200000000000001,9.200000000000001,-64.10000000000001,5.2,8.799999999999999
1698414829.18,16,0.5,1.9000000000000001,4.9,0.4,10.100000000000001,10.100000000000001,-53.300000000000004,3.5,8.1
1698414829.194,16,0.7000000000000001,2.1,4.3,0.6000000000000001,10.3,9.700000000000001,-42.5,8.5,3.1
1698414829.211,16,0.7000000000000001,1.9000000000000001,4.3,0.6000000000000001,10.100000000000001,9.8,-37.4,9.8,2.1
1698414829.228,16,0.1,1.2000000000000002,4.3,0.0,9.3,9.9,-27.2,9.0,1.7
1698414829.244,16,-0.2,0.9,4.3,-0.30000000000000004,9.0,10.0,-16.6,4.6000000000000005,2.6
1698414829.261,16,-0.1,0.9,3.8000000000000003,-0.30000000000000004,9.0,9.0,-3.5,2.1999999999999997,1.3
1698414829.278,16,-0.2,0.7000000000000001,3.2,-0.30000000000000004,8.8,8.9,2.9,1.5000000000000002,0.4
1698414829.294,16,-0.1,0.4,2.4000000000000004,-0.2,8.6,8.1,16.700000000000003,0.7,-1.3
1698414829.311,16,0.0,0.1,2.3000000000000003,-0.1,8.3,8.0,23.3,0.8,-1.9
1698414829.328,16,0.0,-0.30000000000000004,1.7000000000000002,-0.1,7.9,7.300000000000001,36.3,0.9,-2.7
1698414829.344,16,0.1,-0.7000000000000001,0.9,-0.1,7.6000000000000005,6.4,50.2,-1.7,-3.0000000000000004
1698414829.361,16,0.1,-0.8,0.7000000000000001,-0.1,7.5,6.1000000000000005,56.5,-2.0,-4.1000000000000005
1698414829.377,16,0.0,-1.1,0.1,-0.2,7.4,5.300000000000001,68.5,-2.8,-6.3
1698414829.394,16,0.0,-1.3,-0.30000000000000004,-0.2,7.2,4.7,78.9,-3.1,-7.400000000000001
1698414829.411,16,-0.1,-1.6,-0.7000000000000001,-0.30000000000000004,7.1000000000000005,4.0,87.10000000000001,-2.5,-7.6
1698414829.428,16,0.0,-1.7000000000000002,-0.5,-0.30000000000000004,7.0,4.0,90.0,-4.2,-7.2
1698414829.444,16,-0.2,-1.7000000000000002,-0.5,-0.4,7.2,3.8000000000000003,96.10000000000001,-3.9,-6.7
1698414829.461,16,-0.2,-1.8,-0.30000000000000004,-0.5,7.300000000000001,3.7,102.30000000000001,0.6000000000000001,-7.6
1698414829.478,16,-0.2,-1.8,-0.4,-0.4,7.300000000000001,3.4000000000000004,105.9,0.7,-7.500000000000001
1698414829.494,16,0.0,-2.1,-0.5,-0.30000000000000004,7.1000000000000005,2.9000000000000004,111.30000000000001,3.3000000000000003,-7.6
1698414829.511,16,0.1,-2.7,-0.6000000000000001,-0.2,6.7,2.4000000000000004,114.9,8.0,-9.1
1698414829.528,16,0.0,-2.8000000000000003,-0.30000000000000004,-0.30000000000000004,6.6000000000000005,2.6,115.60000000000001,7.8,-9.0
1698414829.544,16,0.0,-3.4000000000000004,-0.1,-0.4,6.0,2.4000000000000004,119.0,7.6,-8.200000000000001
1698414829.561,16,0.0,-3.5,-0.1,-0.4,6.0,2.0,119.0,9.1,-8.799999999999999
1698414829.578,16,0.1,-3.8000000000000003,0.1,-0.30000000000000004,5.800000000000001,2.0,115.7,8.799999999999999,-7.9
1698414829.596,16,0.2,-4.1000000000000005,0.4,-0.30000000000000004,5.4,1.9000000000000001,113.5,8.4,-10.5
1698414829.611,16,0.2,-4.3,0.6000000000000001,-0.30000000000000004,5.2,1.9000000000000001,111.9,8.3,-11.000000000000002
1698414829.628,16,0.2,-4.7,0.5,-0.30000000000000004,4.9,1.5,107.5,10.600000000000001,-12.000000000000002
1698414829.644,16,-0.1,-4.6000000000000005,0.9,-0.7000000000000001,5.0,1.5,99.4,9.3,-11.8
1698414829.664,16,-0.4,-4.6000000000000005,0.9,-1.0,5.0,1.3,87.5,6.1000000000000005,-9.8
1698414829.677,16,-0.4,-4.2,1.0,-1.1,5.4,1.2000000000000002,79.3,5.0,-8.9
1698414829.694,16,0.0,-3.4000000000000004,1.6,-0.7000000000000001,6.1000000000000005,1.6,61.8,-1.2000000000000002,-7.2
1698414829.712,16,0.4,-2.8000000000000003,2.2,-0.30000000000000004,6.7,2.1,41.7,-0.5,-4.6000000000000005
1698414829.728,16,0.7000000000000001,-2.3000000000000003,2.5,0.1,7.1000000000000005,2.3000000000000003,30.4,0.9,-3.4
1698414829.745,16,0.7000000000000001,-0.2,2.7,0.0,9.200000000000001,2.5,8.1,1.0,-0.4
1698414829.761,16,0.8,0.8,3.2,0.1,10.3,3.0,-10.1,2.4000000000000004,3.5
1698414829.777,16,0.5,0.9,3.3000000000000003,-0.1,10.4,3.2,-18.2,3.1,2.9
1698414829.794,16,0.1,0.6000000000000001,3.5,-0.6000000000000001,10.0,3.6,-31.0,4.3999999999999995,2.3000000000000003
1698414829.811,16,-0.5,-0.5,3.2,-1.1,9.0,3.4000000000000004,-36.2,4.1000000000000005,2.1999999999999997
1698414829.828,16,-0.6000000000000001,-1.0,2.8000000000000003,-1.0,8.1,2.8000000000000003,-45.5,0.7,1.8
1698414829.845,16,-0.2,-1.9000000000000001,2.1,-0.8,7.6000000000000005,2.6,-55.900000000000006,-9.0,1.0999999999999999
1698414829.861,16,0.6000000000000001,-3.2,1.3,0.0,6.2,2.0,-66.0,-16.5,-0.9
1698414829.879,16,1.1,-4.9,0.6000000000000001,0.5,4.5,1.5,-73.10000000000001,-13.6,-3.2
1698414829.894,16,0.9,-5.4,0.5,0.30000000000000004,4.0,1.5,-76.1,-9.700000000000001,-3.4
1698414829.912,16,0.1,-5.6000000000000005,-0.1,-0.5,3.7,1.2000000000000002,-79.3,-4.300000000000001,2.1
1698414829.928,16,-0.4,-5.6000000000000005,-0.7000000000000001,-0.8,3.6,0.9,-79.7,-6.7,6.3
1698414829.944,16,-0.1,-5.6000000000000005,-0.7000000000000001,-0.7000000000000001,3.5,1.0,-80.9,-13.9,10.8
1698414829.962,16,0.1,-5.4,-1.1,-0.4,3.6,0.9,-80.0,-9.3,9.3
1698414829.978,16,0.0,-5.6000000000000005,-1.5,-0.5,3.4000000000000004,0.7000000000000001,-78.5,0.6000000000000001,11.9
1698414829.995,16,0.0,-5.300000000000001,-1.2000000000000002,-0.4,3.6,1.1,-78.4,-2.6,15.000000000000002
1698414830.013,16,-0.4,-3.6,-1.4000000000000001,-0.8,5.2,1.1,-74.2,-2.1999999999999997,21.0
1698414830.028,16,-0.4,-2.6,-1.5,-0.8,6.1000000000000005,1.1,-71.0,-7.300000000000001,23.1
1698414830.045,16,-0.2,-1.4000000000000001,0.1,-0.5,7.300000000000001,2.9000000000000004,-65.5,-15.100000000000001,24.5
1698414830.062,16,0.1,0.1,0.0,-0.1,8.700000000000001,3.0,-56.300000000000004,-6.7,23.1
1698414830.079,16,0.7000000000000001,1.2000000000000002,1.1,0.30000000000000004,9.3,3.5,-53.50000000000001,-6.4,20.900000000000002
1698414830.094,16,0.6000000000000001,1.4000000000000001,1.0,0.5,10.0,4.3,-44.00000000000001,10.600000000000001,12.8
1698414830.112,16,0.2,1.8,1.6,0.1,10.4,4.9,-33.0,14.900000000000002,8.1
1698414830.128,16,-0.1,2.2,1.6,-0.4,11.0,4.800000000000001,-27.2,15.9,5.500000000000001
1698414830.144,16,-0.30000000000000004,2.6,1.3,-0.4,11.100000000000001,4.800000000000001,-17.200000000000003,19.0,1.4
1698414830.161,16,0.1,2.4000000000000004,1.9000000000000001,-0.1,10.9,5.4,-11.5,12.6,-0.7
1698414830.179,16,0.30000000000000004,1.8,2.0,0.2,10.3,5.6000000000000005,-4.2,9.8,-4.5
1698414830.194,16,0.2,1.2000000000000002,1.9000000000000001,0.0,9.700000000000001,5.5,0.5,10.700000000000001,-5.4
1698414830.212,16,0.4,0.4,1.0,0.2,9.0,4.6000000000000005,7.9,12.9,-4.9
1698414830.228,16,0.30000000000000004,-0.8,0.30000000000000004,0.1,7.7,3.8000000000000003,17.9,12.100000000000001,-5.9
1698414830.244,16,0.2,-1.4000000000000001,0.30000000000000004,-0.1,7.1000000000000005,3.7,19.1,12.6,-6.000000000000001
1698414830.261,16,-0.1,1.1,1.3,-0.4,9.700000000000001,4.7,22.8,11.3,-4.0
1698414830.279,16,0.5,9.3,3.5,0.2,18.0,6.9,30.799999999999997,7.699999999999999,-7.0
1698414830.294,16,1.1,13.9,4.5,0.8,22.700000000000003,7.800000000000001,35.0,6.3,-9.5
1698414830.311,16,0.7000000000000001,17.900000000000002,3.1,0.4,26.8,6.300000000000001,40.8,-0.7,-10.2
1698414830.328,16,-0.6000000000000001,9.1,-1.7000000000000002,-1.0,18.2,1.3,51.0,-6.5,-12.6
1698414830.344,16,-1.1,4.1000000000000005,-3.4000000000000004,-1.5,13.3,-0.4,55.2,-7.9,-14.0
1698414830.361,16,-1.1,0.8,-3.1,-1.5,10.0,-0.30000000000000004,59.00000000000001,-5.7,-13.4
1698414830.378,16,-1.0,-0.30000000000000004,-7.1000000000000005,-1.5,9.0,-4.9,159.8,-1.7,-14.800000000000002
1698414830.395,16,-0.9,-0.4,-6.4,-1.4000000000000001,8.9,-4.3,84.7,-1.3,-7.300000000000001
1698414830.411,16,0.1,-1.8,-3.2,-0.4,7.6000000000000005,-1.3,56.300000000000004,-8.4,8.700000000000001
1698414830.428,16,-0.5,-2.4000000000000004,-3.2,-1.0,7.0,-1.6,73.2,-1.4,-5.500000000000001
1698414830.444,16,-0.8,-1.8,-3.7,-1.3,7.6000000000000005,-2.3000000000000003,75.1,3.1,-5.300000000000001
1698414830.461,16,-0.2,-0.9,-3.2,-0.8,8.5,-2.0,46.4,-1.5000000000000002,-3.8
1698414830.477,16,0.2,-0.6000000000000001,-1.5,-0.30000000000000004,8.8,-0.30000000000000004,12.000000000000002,-3.5,1.6
1698414830.494,16,0.2,0.30000000000000004,-0.8,-0.30000000000000004,9.8,0.4,4.800000000000001,-3.7000000000000006,1.4
1698414830.511,16,-0.4,5.5,-1.9000000000000001,-0.9,15.0,-0.7000000000000001,0.5,-0.1,0.2
1698414830.528,16,0.0,1.1,-1.8,-0.5,10.600000000000001,-0.6000000000000001,-19.700000000000003,-2.0,1.7
1698414830.544,16,0.0,0.5,-2.0,-0.5,10.0,-0.8,-29.400000000000002,-1.5000000000000002,2.3000000000000003
1698414830.561,16,-0.2,2.6,-1.8,-0.7000000000000001,12.0,-0.4,-62.0,-5.7,1.5000000000000002
1698414830.578,16,-0.5,6.0,-2.2,-1.0,15.5,-0.6000000000000001,-82.50000000000001,-7.400000000000001,2.4000000000000004
1698414830.595,16,-0.4,3.5,-2.6,-0.9,13.0,-0.8,-92.30000000000001,-8.5,6.8
1698414830.611,16,-0.2,-1.3,-1.6,-0.7000000000000001,8.1,0.5,-108.8,-8.3,9.0
1698414830.628,16,-0.5,0.6000000000000001,-2.1,-0.9,9.9,0.30000000000000004,-118.80000000000001,-12.100000000000001,10.4
1698414830.645,16,-0.30000000000000004,-0.8,-2.6,-0.7000000000000001,8.5,0.2,-111.10000000000001,-7.500000000000001,10.9
1698414830.661,16,-0.2,-0.5,-2.9000000000000004,-0.6000000000000001,8.700000000000001,0.0,-66.5,-0.4,9.5
1698414830.677,16,-0.1,0.5,-2.7,-0.5,9.700000000000001,0.4,-93.3,-2.9,9.700000000000001
1698414830.696,16,-0.1,0.8,-2.6,-0.5,9.700000000000001,0.8,-88.4,-2.6,9.700000000000001
1698414830.711,16,0.0,1.3,-2.5,-0.30000000000000004,10.3,1.0,-70.5,0.30000000000000004,8.200000000000001
1698414830.728,16,0.0,1.5,-1.2000000000000002,-0.30000000000000004,10.4,2.4000000000000004,-74.89999999999999,-6.7,6.000000000000001
1698414830.745,16,0.2,1.8,-0.4,0.0,10.600000000000001,3.4000000000000004,-64.9,-3.2,3.2
1698414830.761,16,0.30000000000000004,1.7000000000000002,0.0,0.0,10.5,4.0,-68.7,-7.0,2.9
1698414830.778,16,0.4,1.7000000000000002,1.1,0.2,10.4,5.2,-67.3,-9.0,2.7
1698414830.794,16,0.4,1.6,2.0,0.2,10.200000000000001,6.4,-71.0,-10.1,2.0
1698414830.811,16,0.4,1.5,2.8000000000000003,0.2,10.100000000000001,7.300000000000001,-73.10000000000001,-9.3,2.5
1698414830.828,16,0.7000000000000001,1.4000000000000001,4.1000000000000005,0.6000000000000001,9.8,8.9,-67.60000000000001,-4.6000000000000005,3.8
1698414830.844,16,1.1,1.6,4.6000000000000005,0.9,10.0,9.600000000000001,-56.1,2.1,-0.2
1698414830.861,16,0.9,1.6,4.1000000000000005,0.8,10.0,9.200000000000001,-48.7,3.8,-2.1999999999999997
1698414830.878,16,0.0,1.8,3.8000000000000003,-0.1,10.100000000000001,9.0,-35.8,3.8,-1.9
1698414830.894,16,-0.2,1.7000000000000002,3.7,-0.4,10.0,9.0,-30.299999999999997,4.0,-2.4000000000000004
1698414830.912,16,0.1,1.5,3.8000000000000003,-0.1,9.8,9.200000000000001,-19.700000000000003,3.1,-2.6
1698414830.928,16,0.2,1.5,3.4000000000000004,0.1,9.700000000000001,8.8,-8.799999999999999,1.9,-2.0
1698414830.944,16,0.1,1.1,3.1,-0.1,9.3,8.5,2.8,2.6,-4.2
1698414830.961,16,0.1,0.8,2.9000000000000004,-0.1,9.1,8.3,9.4,3.5,-4.9
1698414830.978,16,0.4,0.4,2.1,0.2,8.700000000000001,7.5,21.700000000000003,4.9,-4.300000000000001
1698414830.994,16,0.1,0.1,1.6,-0.2,8.5,7.0,32.5,7.8,-5.1
1698414831.011,16,-0.1,-0.1,1.1,-0.30000000000000004,8.200000000000001,6.4,38.1,8.799999999999999,-5.4
1698414831.028,16,-0.4,-0.8,0.7000000000000001,-0.7000000000000001,7.6000000000000005,5.800000000000001,48.9,9.5,-5.2
1698414831.044,16,-0.30000000000000004,-1.5,0.30000000000000004,-0.6000000000000001,7.0,5.300000000000001,60.5,8.700000000000001,-4.9
1698414831.061,16,-0.30000000000000004,-1.6,0.0,-0.6000000000000001,7.0,5.0,66.3,8.0,-4.9
1698414831.078,16,-0.2,-1.8,-0.4,-0.6000000000000001,6.9,4.3,77.9,7.400000000000001,-4.300000000000001
1698414831.095,16,-0.2,-2.1,-0.30000000000000004,-0.6000000000000001,6.7,4.1000000000000005,89.4,7.400000000000001,-3.5
1698414831.111,16,-0.1,-2.1,-0.7000000000000001,-0.5,6.800000000000001,3.6,94.80000000000001,8.3,-3.4
1698414831.128,16,0.0,-2.0,-0.7000000000000001,-0.5,7.0,3.2,101.50000000000001,11.5,-4.2
1698414831.144,16,0.1,-2.1,-0.8,-0.30000000000000004,7.1000000000000005,2.8000000000000003,108.10000000000001,13.700000000000001,-6.3
1698414831.161,16,0.2,-1.9000000000000001,-0.6000000000000001,-0.30000000000000004,7.300000000000001,2.8000000000000003,110.50000000000001,12.9,-7.6
1698414831.178,16,0.1,-1.8,-0.1,-0.4,7.5,3.0,115.90000000000002,12.000000000000002,-9.200000000000001
1698414831.196,16,-0.2,-1.7000000000000002,-0.30000000000000004,-0.7000000000000001,7.7,2.3000000000000003,121.19999999999999,8.4,-9.8
1698414831.211,16,-0.2,-1.8,-0.5,-0.8,7.7,2.0,122.60000000000001,7.2,-9.600000000000001
1698414831.227,16,0.0,-2.3000000000000003,-0.6000000000000001,-0.7000000000000001,7.2,1.4000000000000001,122.10000000000001,9.3,-10.5
1698414831.244,16,0.2,-3.3000000000000003,-0.4,-0.5,6.300000000000001,1.3,119.60000000000002,9.8,-14.200000000000001
1698414831.262,16,0.2,-3.5,-0.1,-0.5,6.1000000000000005,1.3,117.4,9.600000000000001,-15.8
1698414831.279,16,-0.1,-3.9000000000000004,0.0,-0.9,5.7,1.0,114.3,7.9,-16.0
1698414831.295,16,-0.2,-4.3,-0.30000000000000004,-1.1,5.300000000000001,0.4,107.5,4.3999999999999995,-9.9
1698414831.312,16,-0.30000000000000004,-4.5,0.0,-1.1,5.1000000000000005,0.5,101.7,3.5,-6.9
1698414831.328,16,-0.30000000000000004,-4.9,0.6000000000000001,-1.2000000000000002,4.7,0.8,87.2,-0.6000000000000001,-3.8
1698414831.344,16,0.1,-4.7,1.1,-0.7000000000000001,4.800000000000001,1.0,68.7,1.0,-1.7
1698414831.362,16,0.30000000000000004,-4.2,1.4000000000000001,-0.5,5.300000000000001,1.2000000000000002,59.300000000000004,1.2000000000000002,-0.5
1698414831.378,16,0.5,-3.0,1.9000000000000001,-0.30000000000000004,6.5,1.7000000000000002,40.5,-0.8,2.6
1698414831.395,16,0.5,-1.4000000000000001,2.3000000000000003,-0.30000000000000004,8.0,2.0,23.6,-5.4,5.500000000000001
1698414831.411,16,0.5,-0.2,2.7,-0.30000000000000004,9.200000000000001,2.4000000000000004,7.0,-6.2,6.8
1698414831.429,16,0.6000000000000001,0.6000000000000001,2.8000000000000003,-0.2,10.0,2.5,0.7,-4.300000000000001,7.400000000000001
1698414831.444,16,0.8,0.8,3.1,0.0,10.200000000000001,2.8000000000000003,-9.9,-2.3000000000000003,5.8
1698414831.461,16,0.8,0.7000000000000001,2.9000000000000004,0.0,10.200000000000001,2.6,-14.0,-0.2,4.5
1698414831.478,16,0.4,-0.30000000000000004,2.4000000000000004,-0.4,9.200000000000001,2.3000000000000003,-25.1,4.9,1.3
1698414831.494,16,0.2,-1.3,2.0,-0.5,8.200000000000001,2.0,-39.6,5.2,1.5000000000000002
1698414831.513,16,0.2,-1.9000000000000001,1.7000000000000002,-0.6000000000000001,7.6000000000000005,1.8,-47.400000000000006,3.2,1.0999999999999999
1698414831.528,16,0.30000000000000004,-3.4000000000000004,1.3,-0.5,6.1000000000000005,1.6,-60.400000000000006,-0.1,-0.8
1698414831.544,16,0.2,-3.9000000000000004,0.9,-0.6000000000000001,5.5,1.4000000000000001,-72.5,3.3000000000000003,-0.9
1698414831.562,16,-0.2,-3.7,0.9,-1.0,5.7,1.7000000000000002,-83.2,8.1,3.5
1698414831.578,16,-0.6000000000000001,-3.4000000000000004,0.6000000000000001,-1.3,5.9,1.5,-86.0,4.7,5.9
1698414831.595,16,-0.6000000000000001,-3.6,-0.2,-1.3,5.6000000000000005,1.0,-86.7,-6.4,7.300000000000001
1698414831.612,16,-0.30000000000000004,-4.0,-0.2,-1.0,5.2,1.1,-88.7,-14.800000000000002,6.2
1698414831.629,16,0.30000000000000004,-4.3,-0.5,-0.4,4.800000000000001,1.2000000000000002,-93.80000000000001,-17.8,2.3000000000000003
1698414831.645,16,0.4,-3.9000000000000004,-1.2000000000000002,-0.2,5.1000000000000005,0.8,-97.7,-13.4,1.3
1698414831.664,16,0.2,-3.5,-1.0,-0.5,5.4,1.3,-103.5,-11.1,6.8
1698414831.68,16,0.1,-2.9000000000000004,-1.0,-0.6000000000000001,6.0,1.4000000000000001,-106.00000000000001,-9.1,11.1
1698414831.695,16,-0.2,-1.3,-0.7000000000000001,-0.8,7.5,2.1,-108.0,-14.0,15.8
1698414831.714,16,-0.4,-0.6000000000000001,-0.1,-0.8,8.1,3.0,-107.2,-15.8,17.599999999999998
1698414831.729,16,-0.2,-0.5,0.5,-0.7000000000000001,8.1,3.7,-105.7,-18.6,18.1
1698414831.745,16,-0.2,-0.5,-0.2,-0.6000000000000001,8.0,3.3000000000000003,-99.10000000000001,-16.5,16.700000000000003
1698414831.761,16,0.1,-0.30000000000000004,0.5,-0.2,8.1,4.3,-92.10000000000001,-19.0,14.900000000000002
1698414831.779,16,-0.1,0.1,0.1,-0.4,8.3,4.1000000000000005,-77.80000000000001,-3.7000000000000006,12.4
1698414831.794,16,-0.30000000000000004,0.2,0.1,-0.5,8.4,4.3,-70.2,-1.4,12.100000000000001
1698414831.811,16,-0.4,0.1,1.2000000000000002,-0.6000000000000001,8.3,5.5,-54.3,0.30000000000000004,10.3
1698414831.829,16,-0.4,0.2,0.9,-0.6000000000000001,8.3,5.300000000000001,-44.4,2.6,8.9
1698414831.845,16,-0.2,0.8,1.6,-0.4,8.8,6.1000000000000005,-27.0,0.2,6.8
1698414831.861,16,-0.2,1.8,1.6,-0.30000000000000004,9.8,6.2,-10.1,-6.4,4.6000000000000005
1698414831.88,16,-0.1,2.3000000000000003,2.2,-0.2,10.3,6.800000000000001,3.4,-2.0,1.2000000000000002
1698414831.894,16,0.1,2.3000000000000003,2.1,0.0,10.4,6.6000000000000005,7.500000000000001,2.5,-1.0999999999999999
1698414831.913,16,0.30000000000000004,2.3000000000000003,2.4000000000000004,0.1,10.4,7.0,11.6,4.800000000000001,-2.7
1698414831.928,16,0.6000000000000001,1.8,1.7000000000000002,0.30000000000000004,10.0,6.300000000000001,22.000000000000004,14.600000000000001,-2.1
1698414831.944,16,0.6000000000000001,1.7000000000000002,2.1,0.4,9.9,6.5,30.7,12.3,-1.9
1698414831.962,16,0.6000000000000001,1.9000000000000001,2.7,0.30000000000000004,10.100000000000001,7.1000000000000005,39.6,7.1000000000000005,-4.6000000000000005
1698414831.978,16,0.30000000000000004,2.4000000000000004,2.7,0.1,10.700000000000001,7.0,43.2,6.8,-6.4
1698414831.995,16,0.5,3.0,1.9000000000000001,0.2,11.4,6.0,47.300000000000004,4.0,-7.0
1698414832.013,16,0.6000000000000001,3.0,1.4000000000000001,0.30000000000000004,11.5,5.5,44.5,3.7000000000000006,-6.8
1698414832.028,16,0.7000000000000001,3.3000000000000003,1.1,0.4,11.9,5.1000000000000005,42.900000000000006,3.5,-5.8
1698414832.044,16,0.5,4.3,1.0,0.2,12.9,4.9,41.4,1.9,-2.7
1698414832.06,16,0.1,4.2,0.5,-0.2,12.9,4.2,41.300000000000004,1.0999999999999999,-0.1
1698414832.079,16,-0.1,3.1,-0.5,-0.4,11.9,3.1,38.5,1.0,-0.1
1698414832.094,16,-0.2,2.4000000000000004,-0.7000000000000001,-0.5,11.3,2.8000000000000003,39.2,-0.30000000000000004,0.1
1698414832.111,16,-0.1,1.8,-1.4000000000000001,-0.5,10.700000000000001,2.1,41.9,-1.8,-0.4
1698414832.128,16,-0.2,1.3,-1.6,-0.5,10.200000000000001,1.7000000000000002,41.7,-2.0,-1.0999999999999999
1698414832.144,16,-0.30000000000000004,0.6000000000000001,-2.3000000000000003,-0.7000000000000001,9.5,0.9,41.5,-3.1,-5.8
1698414832.163,16,-0.6000000000000001,0.4,-3.2,-0.9,9.4,-0.1,37.2,-1.9,-6.5
1698414832.178,16,-0.5,0.6000000000000001,-2.7,-0.9,9.600000000000001,0.30000000000000004,36.4,-4.800000000000001,-6.2
1698414832.195,16,-0.5,0.7000000000000001,-2.4000000000000004,-0.9,9.8,0.5,36.5,-7.6,-5.8
1698414832.211,16,-0.4,0.9,-2.4000000000000004,-0.8,10.100000000000001,0.4,29.200000000000003,-9.8,-5.500000000000001
1698414832.229,16,-0.30000000000000004,1.2000000000000002,-2.3000000000000003,-0.7000000000000001,10.4,0.4,27.5,-9.9,-5.2
1698414832.245,16,0.0,1.8,-2.4000000000000004,-0.4,11.0,0.2,19.3,-8.4,-3.8
1698414832.264,16,0.1,2.1,-1.7000000000000002,-0.30000000000000004,11.3,0.8,8.4,-6.7,-1.8
1698414832.279,16,0.0,1.9000000000000001,-1.9000000000000001,-0.4,11.200000000000001,0.6000000000000001,-1.5000000000000002,-5.4,-0.6000000000000001
1698414832.295,16,-0.1,1.8,-2.1,-0.4,11.100000000000001,0.5,-7.1000000000000005,-5.1,-0.1
1698414832.311,16,-0.2,1.7000000000000002,-2.0,-0.6000000000000001,11.0,0.6000000000000001,-15.2,-4.2,1.3
1698414832.329,16,-0.30000000000000004,1.6,-2.3000000000000003,-0.7000000000000001,10.8,0.30000000000000004,-20.6,-4.2,1.9
1698414832.345,16,-0.4,1.1,-1.9000000000000001,-0.7000000000000001,10.4,0.7000000000000001,-31.3,-3.2,1.9
1698414832.362,16,-0.4,1.0,-2.0,-0.8,10.200000000000001,0.8,-36.0,-1.8,4.7
1698414832.38,16,-0.4,1.1,-2.0,-0.8,10.200000000000001,0.9,-45.0,-2.0,6.000000000000001
1698414832.397,16,-0.30000000000000004,1.0,-2.0,-0.7000000000000001,10.100000000000001,0.9,-50.7,-1.9,6.7
1698414832.411,16,-0.30000000000000004,1.1,-2.3000000000000003,-0.6000000000000001,10.200000000000001,0.8,-58.800000000000004,-0.4,7.1000000000000005
1698414832.428,16,-0.1,1.5,-2.3000000000000003,-0.4,10.5,0.9,-59.5,0.8,7.6
1698414832.445,16,-0.1,1.6,-2.6,-0.4,10.600000000000001,0.8,-57.5,-2.0,9.1
1698414832.461,16,0.2,1.4000000000000001,-2.3000000000000003,-0.1,10.3,1.3,-69.00000000000001,-3.1,7.500000000000001
1698414832.478,16,-0.1,1.2000000000000002,-2.3000000000000003,-0.30000000000000004,10.100000000000001,1.5,-64.9,-8.1,6.2
1698414832.495,16,0.0,1.3,-2.2,-0.2,10.100000000000001,1.6,-66.2,-7.1000000000000005,4.0
1698414832.512,16,0.4,1.6,-0.9,0.2,10.4,3.1,-66.2,-6.4,1.7
1698414832.528,16,0.5,1.8,-0.1,0.30000000000000004,10.5,4.1000000000000005,-66.1,-10.4,0.7
1698414832.545,16,0.5,2.5,1.3,0.4,11.100000000000001,5.6000000000000005,-69.00000000000001,-10.8,1.0
1698414832.562,16,0.5,2.8000000000000003,2.3000000000000003,0.30000000000000004,11.3,7.9,-75.2,-5.2,-0.8
1698414832.578,16,0.6000000000000001,2.4000000000000004,4.0,0.4,11.0,8.5,-72.4,-3.1,0.5
1698414832.596,16,0.8,2.4000000000000004,4.2,0.6000000000000001,10.8,9.1,-63.6,4.1000000000000005,4.300000000000001
1698414832.612,16,0.7000000000000001,2.3000000000000003,4.1000000000000005,0.6000000000000001,10.600000000000001,9.1,-58.00000000000001,7.1000000000000005,4.6000000000000005
1698414832.629,16,0.1,2.0,4.1000000000000005,0.0,10.3,9.4,-39.699999999999996,14.900000000000002,2.4000000000000004
1698414832.645,16,-0.1,2.1,3.8000000000000003,-0.2,10.3,9.1,-33.300000000000004,14.3,2.4000000000000004
1698414832.662,16,0.1,2.0,3.8000000000000003,-0.1,10.200000000000001,9.200000000000001,-21.200000000000003,14.100000000000001,1.0
1698414832.678,16,0.1,2.0,3.3000000000000003,-0.1,10.200000000000001,8.8,-9.200000000000001,12.700000000000001,-1.5000000000000002
1698414832.695,16,0.0,1.8,3.3000000000000003,-0.2,10.0,8.8,-3.3000000000000003,11.6,-2.3000000000000003
1698414832.711,16,-0.2,1.1,2.9000000000000004,-0.4,9.3,8.4,12.000000000000002,10.8,-3.7000000000000006
1698414832.727,16,0.1,0.6000000000000001,2.5,-0.2,8.8,8.0,29.200000000000003,13.4,-5.1
1698414832.745,16,0.0,0.4,2.1,-0.30000000000000004,8.700000000000001,7.5,38.1,14.100000000000001,-6.000000000000001
1698414832.761,16,-0.2,0.1,1.5,-0.6000000000000001,8.5,6.800000000000001,54.2,16.2,-7.1000000000000005
1698414832.778,16,-0.4,-0.4,0.4,-0.8,8.1,5.5,69.5,18.400000000000002,-6.2
1698414832.796,16,-0.30000000000000004,-1.4000000000000001,0.2,-0.8,7.800000000000001,5.300000000000001,76.0,17.5,-5.2
1698414832.812,16,-0.2,-1.4000000000000001,0.1,-0.7000000000000001,7.300000000000001,4.800000000000001,88.7,15.8,-4.300000000000001
1698414832.827,16,0.1,-1.2000000000000002,-0.1,-0.4,7.7,4.4,94.4,15.000000000000002,-4.7
1698414832.845,16,0.2,-1.4000000000000001,-0.5,-0.30000000000000004,7.6000000000000005,3.7,106.7,15.6,-6.3
1698414832.862,16,0.30000000000000004,-2.0,-1.0,-0.2,7.1000000000000005,2.9000000000000004,114.5,14.900000000000002,-6.5
1698414832.878,16,0.0,-2.9000000000000004,-1.2000000000000002,-0.6000000000000001,6.300000000000001,2.3000000000000003,118.50000000000001,16.2,-6.8
1698414832.894,16,-0.2,-3.3000000000000003,-0.9,-0.8,6.300000000000001,2.2,118.60000000000001,16.700000000000003,-6.8
1698414832.911,16,-0.1,-3.7,-0.6000000000000001,-0.8,5.7,2.3000000000000003,119.1,16.1,-6.3
1698414832.928,16,0.1,-3.9000000000000004,-0.6000000000000001,-0.7000000000000001,5.6000000000000005,1.9000000000000001,118.80000000000001,17.0,-4.800000000000001
1698414832.944,16,0.0,-4.0,-0.6000000000000001,-0.7000000000000001,5.5,1.7000000000000002,118.00000000000001,15.399999999999999,-4.0
1698414832.962,16,0.0,-4.2,-0.2,-0.7000000000000001,5.300000000000001,1.7000000000000002,113.0,13.6,-3.7000000000000006
1698414832.979,16,0.1,-4.5,-0.1,-0.7000000000000001,5.1000000000000005,1.5,106.7,10.8,-2.9
1698414832.995,16,0.0,-4.6000000000000005,0.0,-0.8,5.0,1.4000000000000001,102.30000000000001,9.700000000000001,-2.9
1698414833.011,16,0.1,-4.5,0.4,-0.7000000000000001,5.0,1.5,91.60000000000001,7.9,-2.7
1698414833.028,16,0.0,-4.4,1.0,-0.8,5.2,1.8,80.9,2.9,-2.9
1698414833.044,16,-0.1,-4.2,1.2000000000000002,-0.9,5.4,1.8,70.10000000000001,1.9,-1.7
1698414833.061,16,-0.2,-4.3,1.4000000000000001,-1.0,5.2,1.9000000000000001,65.2,-1.2000000000000002,-1.0
1698414833.077,16,-0.1,-3.8000000000000003,1.6,-0.9,5.7,1.9000000000000001,53.7,-3.3000000000000003,1.2000000000000002
1698414833.095,16,0.1,-3.3000000000000003,2.1,-0.8,5.9,2.0,46.900000000000006,-6.2,1.5000000000000002
1698414833.114,16,0.2,-3.0,2.3000000000000003,-0.6000000000000001,6.5,2.5,31.4,-12.100000000000001,1.5000000000000002
1698414833.128,16,0.6000000000000001,-0.8,2.9000000000000004,-0.2,8.700000000000001,3.0,15.9,-12.200000000000001,2.6
1698414833.144,16,0.8,0.2,3.2,0.1,9.700000000000001,3.3000000000000003,1.5000000000000002,-9.3,3.1
1698414833.162,16,0.8,0.6000000000000001,3.3000000000000003,0.1,10.100000000000001,3.5,-5.300000000000001,-9.3,2.7
1698414833.178,16,0.5,0.8,3.2,-0.2,10.3,3.4000000000000004,-19.400000000000002,-6.5,0.9
1698414833.197,16,-0.1,0.0,2.6,-0.8,9.4,3.0,-33.400000000000006,-3.4,0.4
1698414833.212,16,-0.30000000000000004,-0.7000000000000001,2.4000000000000004,-1.1,8.8,2.8000000000000003,-40.0,-3.3000000000000003,0.8
1698414833.228,16,-0.5,-1.7000000000000002,1.3,-1.2000000000000002,7.800000000000001,1.9000000000000001,-52.0,-6.5,2.4000000000000004
1698414833.244,16,-0.30000000000000004,-2.9000000000000004,0.2,-1.0,6.5,1.0,-68.0,-8.5,3.6
1698414833.262,16,0.0,-3.5,0.2,-0.8,5.800000000000001,1.1,-75.60000000000001,-11.000000000000002,4.0
1698414833.279,16,0.1,-4.5,0.6000000000000001,-0.6000000000000001,4.800000000000001,1.8,-85.80000000000001,-12.000000000000002,3.2
1698414833.295,16,0.1,-4.7,0.4,-0.6000000000000001,4.6000000000000005,1.8,-86.9,-12.4,3.2
1698414833.312,16,0.1,-4.9,-0.7000000000000001,-0.6000000000000001,4.3,0.9,-88.00000000000001,-19.400000000000002,4.800000000000001
1698414833.327,16,0.1,-5.1000000000000005,-0.9,-0.5,4.0,1.0,-91.7,-25.1,5.1
1698414833.345,16,0.1,-5.0,-1.2000000000000002,-0.5,4.0,1.0,-93.80000000000001,-20.5,4.1000000000000005
1698414833.361,16,0.1,-4.800000000000001,-1.6,-0.5,4.2,0.8,-94.5,-16.5,4.800000000000001
1698414833.377,16,0.2,-4.2,-1.1,-0.4,4.6000000000000005,1.6,-96.5,-17.0,8.3
1698414833.394,16,-0.4,-3.4000000000000004,-1.1,-0.9,5.300000000000001,1.9000000000000001,-95.0,-5.6,11.4
1698414833.41,16,-0.30000000000000004,-2.4000000000000004,-0.6000000000000001,-0.7000000000000001,6.1000000000000005,2.6,-92.2,-9.200000000000001,12.9
1698414833.427,16,-0.2,-2.1,-0.4,-0.7000000000000001,6.4,3.0,-85.9,-22.6,14.0
1698414833.444,16,-0.5,-1.6,-0.9,-0.9,6.800000000000001,2.6,-76.4,-6.4,14.200000000000001
1698414833.461,16,-0.30000000000000004,-1.2000000000000002,-1.4000000000000001,-0.7000000000000001,7.2,2.2,-72.6,-5.7,15.000000000000002
1698414833.479,16,0.0,-1.0,-0.7000000000000001,-0.30000000000000004,7.300000000000001,3.2,-65.89999999999999,-11.2,13.700000000000001
1698414833.495,16,0.0,-0.8,0.9,-0.2,7.4,4.9,-54.800000000000004,-5.300000000000001,9.600000000000001
1698414833.511,16,-0.1,-0.2,0.6000000000000001,-0.4,7.9,4.7,-47.6,-2.8,9.1
1698414833.528,16,-0.1,0.8,0.7000000000000001,-0.30000000000000004,8.9,4.9,-35.0,-1.0999999999999999,8.9
1698414833.545,16,-0.1,1.0,1.6,-0.30000000000000004,9.1,5.9,-22.1,1.5000000000000002,6.5
1698414833.562,16,-0.1,1.4000000000000001,2.1,-0.30000000000000004,9.5,6.4,-16.2,1.0,5.9
1698414833.577,16,-0.2,2.6,2.6,-0.4,10.700000000000001,6.9,-3.7000000000000006,2.4000000000000004,7.699999999999999
1698414833.595,16,0.0,3.4000000000000004,3.2,-0.1,11.5,7.6000000000000005,5.500000000000001,-5.1,8.700000000000001
1698414833.611,16,0.1,4.3,3.0,-0.1,12.5,7.4,13.4,-4.0,8.0
1698414833.628,16,0.6000000000000001,4.2,2.8000000000000003,0.5,12.4,7.2,17.1,-2.1,6.3
1698414833.645,16,1.7000000000000002,4.7,3.4000000000000004,1.6,12.9,7.7,19.8,0.6000000000000001,1.5000000000000002
1698414833.662,16,1.8,5.4,2.9000000000000004,1.7000000000000002,13.700000000000001,7.300000000000001,20.900000000000002,2.6,-1.3
1698414833.679,16,0.7000000000000001,5.7,3.4000000000000004,0.6000000000000001,14.100000000000001,7.7,24.7,1.6,-7.500000000000001
1698414833.694,16,0.4,5.5,2.8000000000000003,0.30000000000000004,13.9,7.0,24.000000000000004,4.1000000000000005,-9.600000000000001
1698414833.711,16,0.7000000000000001,5.1000000000000005,1.7000000000000002,0.5,13.700000000000001,5.9,31.7,3.8,-10.0
1698414833.727,16,0.6000000000000001,4.6000000000000005,0.7000000000000001,0.4,13.200000000000001,4.800000000000001,36.3,3.2,-9.8
1698414833.745,16,0.0,3.5,-1.0,-0.2,12.200000000000001,2.9000000000000004,45.7,2.1999999999999997,-9.600000000000001
1698414833.761,16,0.1,2.5,-2.6,-0.1,12.0,1.8,48.50000000000001,2.1999999999999997,-7.8
1698414833.779,16,0.30000000000000004,1.9000000000000001,-2.9000000000000004,0.1,10.700000000000001,0.8,44.7,4.9,-4.800000000000001
1698414833.794,16,0.2,0.4,-3.4000000000000004,0.0,9.3,0.2,37.2,6.6000000000000005,-4.1000000000000005
1698414833.811,16,0.1,0.4,-3.1,-0.2,9.3,0.4,32.2,5.8,-3.2
1698414833.828,16,-0.7000000000000001,0.6000000000000001,-3.3000000000000003,-1.0,9.5,0.1,28.700000000000003,3.2,-3.4
1698414833.845,16,-0.5,1.0,-2.8000000000000003,-0.8,9.9,0.5,20.5,3.0000000000000004,-2.1
1698414833.861,16,-0.6000000000000001,1.7000000000000002,-2.4000000000000004,-0.9,10.600000000000001,0.8,14.700000000000001,-1.4,-0.9
1698414833.878,16,-0.5,2.1,-2.7,-0.8,11.100000000000001,0.5,10.600000000000001,-0.8,0.1
1698414833.894,16,-0.4,2.2,-3.0,-0.7000000000000001,11.200000000000001,0.2,4.0,1.5000000000000002,0.7
1698414833.913,16,-0.6000000000000001,2.6,-2.3000000000000003,-0.9,11.700000000000001,0.8,-4.9,1.3,1.0
1698414833.927,16,-0.7000000000000001,2.6,-2.5,-1.0,11.600000000000001,0.7000000000000001,-10.600000000000001,0.1,1.0
1698414833.944,16,-0.6000000000000001,2.1,-2.7,-0.9,11.200000000000001,0.5,-24.8,-0.4,2.0
1698414833.963,16,-0.6000000000000001,1.8,-2.8000000000000003,-0.9,10.8,0.4,-25.5,-1.6,4.6000000000000005
1698414833.978,16,-0.5,1.8,-2.9000000000000004,-0.8,10.8,0.4,-31.6,-1.8,5.4
1698414833.995,16,-0.30000000000000004,1.3,-2.3000000000000003,-0.6000000000000001,10.3,1.1,-47.5,-3.7000000000000006,5.1
1698414834.011,16,-0.1,1.1,-2.1,-0.4,10.0,1.5,-48.9,-6.5,4.7
1698414834.028,16,0.0,0.8,-2.1,-0.30000000000000004,9.700000000000001,1.5,-51.2,-4.6000000000000005,4.300000000000001
1698414834.044,16,-0.2,0.5,-2.6,-0.5,9.3,1.2000000000000002,-54.1,-6.2,4.6000000000000005
1698414834.061,16,-0.1,1.1,-2.1,-0.4,9.9,1.8,-47.5,-3.5,5.500000000000001
1698414834.077,16,-0.2,1.5,-1.9000000000000001,-0.30000000000000004,10.200000000000001,2.2,-48.2,-7.500000000000001,5.4
1698414834.094,16,-0.2,1.5,-1.6,-0.4,10.200000000000001,2.5,-52.2,-10.8,4.800000000000001
1698414834.111,16,0.5,2.0,-0.30000000000000004,0.30000000000000004,10.600000000000001,3.9000000000000004,-47.5,-9.4,3.2
1698414834.128,16,0.6000000000000001,2.4000000000000004,0.6000000000000001,0.5,11.0,4.9,-50.7,-10.3,2.4000000000000004
1698414834.144,16,0.0,2.5,2.4000000000000004,-0.1,11.0,6.9,-55.4,-15.8,4.1000000000000005
1698414834.161,16,0.30000000000000004,2.3000000000000003,2.3000000000000003,0.2,10.700000000000001,7.0,-62.7,-12.4,6.000000000000001
1698414834.178,16,0.4,1.9000000000000001,3.6,0.4,10.3,8.4,-63.2,-13.4,5.4
1698414834.195,16,1.2000000000000002,1.9000000000000001,4.2,1.1,10.3,9.3,-54.3,-6.8,1.8
1698414834.212,16,1.0,2.4000000000000004,4.1000000000000005,1.0,10.700000000000001,9.200000000000001,-48.800000000000004,-2.9,0.0
1698414834.228,16,0.6000000000000001,2.2,4.0,0.30000000000000004,10.100000000000001,9.3,-36.9,3.6,-1.3
1698414834.244,16,-0.1,1.8,4.0,-0.1,10.0,9.4,-25.1,5.300000000000001,-1.5000000000000002
1698414834.261,16,-0.1,1.9000000000000001,4.1000000000000005,-0.1,10.100000000000001,9.5,-18.8,6.6000000000000005,-1.0
1698414834.277,16,0.30000000000000004,2.3000000000000003,3.7,0.30000000000000004,10.5,9.1,-5.1,6.2,-0.5
1698414834.294,16,0.30000000000000004,2.0,3.4000000000000004,0.2,10.200000000000001,8.9,9.0,6.8,-1.3
1698414834.311,16,0.0,1.3,2.8000000000000003,-0.1,9.600000000000001,8.3,24.8,9.4,-4.2
1698414834.327,16,0.0,0.8,2.4000000000000004,-0.1,9.200000000000001,7.800000000000001,41.9,12.700000000000001,-5.6
1698414834.344,16,0.0,0.7000000000000001,2.0,-0.1,9.200000000000001,7.300000000000001,50.4,15.9,-6.2
1698414834.361,16,0.1,0.5,1.6,-0.1,9.0,6.7,67.7,17.599999999999998,-7.2
1698414834.377,16,0.0,-0.2,0.5,-0.30000000000000004,8.5,5.4,85.2,19.9,-8.799999999999999
1698414834.395,16,-0.1,-0.7000000000000001,0.30000000000000004,-0.4,8.0,5.0,92.50000000000001,19.9,-9.3
1698414834.412,16,-0.2,-1.4000000000000001,-0.7000000000000001,-0.6000000000000001,7.5,3.7,105.5,19.200000000000003,-9.3
1698414834.429,16,-0.6000000000000001,-1.4000000000000001,-1.3,-1.0,7.7,2.8000000000000003,112.5,16.2,-10.0
1698414834.446,16,-0.7000000000000001,-1.6,-1.2000000000000002,-1.1,7.5,2.6,114.9,15.6,-8.4
1698414834.463,16,-0.4,-2.2,-0.9,-0.8,7.1000000000000005,2.6,119.1,15.2,-6.000000000000001
1698414834.478,16,0.0,-3.1,-0.7000000000000001,-0.5,6.300000000000001,2.4000000000000004,123.00000000000001,12.700000000000001,-6.4
1698414834.496,16,0.30000000000000004,-3.2,-0.6000000000000001,-0.4,6.2,2.3000000000000003,124.3,10.700000000000001,-7.0
1698414834.512,16,0.4,-3.2,-0.5,-0.2,6.300000000000001,2.0,126.0,9.600000000000001,-8.1
1698414834.528,16,0.30000000000000004,-3.4000000000000004,-0.4,-0.5,5.9,1.6,127.69999999999999,7.6,-9.0
1698414834.545,16,0.0,-4.0,-0.5,-0.6000000000000001,5.6000000000000005,1.4000000000000001,127.69999999999999,7.1000000000000005,-9.4
1698414834.563,16,0.0,-4.2,-0.7000000000000001,-0.6000000000000001,5.4,0.9,127.00000000000001,5.2,-9.4
1698414834.579,16,-0.1,-4.800000000000001,-0.4,-0.8,4.800000000000001,0.8,121.6,2.1999999999999997,-9.8
1698414834.595,16,-0.2,-5.1000000000000005,0.0,-0.9,4.5,0.8,114.6,3.4,-11.000000000000002
1698414834.613,16,0.0,-5.300000000000001,0.2,-0.7000000000000001,4.3,0.7000000000000001,105.5,-0.4,-10.600000000000001
1698414834.628,16,0.1,-5.4,0.30000000000000004,-0.6000000000000001,4.2,0.6000000000000001,99.5,-0.4,-10.600000000000001
1698414834.645,16,0.2,-5.4,0.6000000000000001,-0.6000000000000001,4.1000000000000005,0.6000000000000001,83.30000000000001,0.9,-9.3
1698414834.661,16,0.1,-4.800000000000001,1.0,-0.7000000000000001,4.7,0.8,61.8,3.5,-5.1
1698414834.677,16,0.0,-4.0,1.2000000000000002,-0.8,5.4,0.9,50.800000000000004,4.0,-2.4000000000000004
1698414834.695,16,0.1,-2.3000000000000003,1.6,-0.7000000000000001,7.2,1.2000000000000002,27.2,4.6000000000000005,1.0
1698414834.712,16,0.5,-0.2,2.7,-0.2,9.3,2.3000000000000003,0.9,1.5000000000000002,5.7
1698414834.729,16,0.6000000000000001,1.6,3.7,-0.2,11.100000000000001,3.4000000000000004,-16.8,-5.0,7.8
1698414834.745,16,0.5,0.4,4.0,0.1,10.9,3.6,-19.0,-8.4,6.8
1698414834.761,16,0.2,-0.6000000000000001,4.0,-0.5,8.9,3.8000000000000003,-26.1,-10.700000000000001,3.8
1698414834.779,16,0.30000000000000004,-1.2000000000000002,3.7,-0.4,8.3,3.7,-36.5,-10.9,5.300000000000001
1698414834.795,16,0.5,-1.1,3.3000000000000003,0.1,8.200000000000001,2.9000000000000004,-44.4,-12.200000000000001,5.300000000000001
1698414834.812,16,0.9,-1.7000000000000002,2.6,0.2,7.800000000000001,2.8000000000000003,-49.7,-12.5,4.5
1698414834.828,16,0.8,-3.2,1.5,0.1,6.300000000000001,1.9000000000000001,-54.9,-13.3,2.4000000000000004
1698414834.845,16,0.5,-3.8000000000000003,0.6000000000000001,-0.2,5.6000000000000005,1.1,-60.7,-9.4,2.1
1698414834.862,16,-0.30000000000000004,-4.3,-0.8,-0.9,5.1000000000000005,0.0,-75.7,-1.7,5.6
1698414834.88,16,-0.4,-4.2,-0.6000000000000001,-1.0,5.1000000000000005,0.30000000000000004,-83.7,-0.6000000000000001,8.700000000000001
1698414834.895,16,0.2,-2.9000000000000004,0.30000000000000004,-0.6000000000000001,5.9,1.4000000000000001,-93.2,-10.3,16.2
1698414834.911,16,0.30000000000000004,-2.9000000000000004,-0.1,-0.2,6.300000000000001,1.4000000000000001,-94.5,-11.700000000000001,15.8
1698414834.928,16,0.8,-3.9000000000000004,-0.8,0.30000000000000004,5.2,1.0,-97.7,-4.3999999999999995,9.600000000000001
1698414834.945,16,0.7000000000000001,-4.0,-0.4,0.2,5.1000000000000005,1.5,-100.50000000000001,-4.5,7.699999999999999
1698414834.962,16,-0.2,-3.2,-1.2000000000000002,-0.6000000000000001,5.800000000000001,1.0,-102.2,3.5,8.600000000000001
1698414834.977,16,-0.7000000000000001,-2.7,-0.9,-1.1,6.2,1.7000000000000002,-104.2,6.2,14.200000000000001
1698414834.994,16,-0.9,-2.2,-0.5,-1.2000000000000002,6.6000000000000005,2.4000000000000004,-101.30000000000001,8.0,19.500000000000004
1698414835.011,16,-0.5,-2.4000000000000004,-0.6000000000000001,-0.8,6.300000000000001,2.4000000000000004,-96.5,4.3999999999999995,21.1
1698414835.028,16,0.30000000000000004,-2.1,-0.30000000000000004,0.1,6.5,3.0,-90.4,-13.8,22.900000000000002
1698414835.045,16,0.4,-1.2000000000000002,-0.7000000000000001,0.2,7.300000000000001,2.8000000000000003,-81.8,-8.600000000000001,19.8
1698414835.061,16,0.5,-1.0,-0.8,0.4,7.4,2.9000000000000004,-76.7,-8.600000000000001,17.8
1698414835.077,16,0.30000000000000004,-0.8,0.1,0.2,7.6000000000000005,3.9000000000000004,-64.50000000000001,3.4,12.5
1698414835.094,16,-0.5,-0.30000000000000004,0.0,-0.5,7.9,4.0,-50.0,16.1,11.2
1698414835.111,16,-0.8,0.0,0.30000000000000004,-0.9,8.200000000000001,4.4,-42.2,13.0,11.4
1698414835.127,16,-1.0,0.5,0.7000000000000001,-1.1,8.6,4.9,-25.900000000000002,3.7000000000000006,11.000000000000002
1698414835.144,16,0.0,0.9,1.5,-0.1,9.1,5.7,-9.9,-4.300000000000001,9.5
1698414835.161,16,0.4,1.3,1.6,0.30000000000000004,9.4,5.9,-2.8,-5.4,7.6
1698414835.177,16,0.7000000000000001,2.4000000000000004,2.4000000000000004,0.7000000000000001,10.600000000000001,6.6000000000000005,8.1,0.1,2.3000000000000003
1698414835.196,16,0.6000000000000001,3.1,2.4000000000000004,0.6000000000000001,11.3,6.6000000000000005,18.1,6.9,-3.2
1698414835.212,16,0.5,3.2,2.7,0.5,11.4,6.9,20.6,9.4,-6.000000000000001
1698414835.227,16,-0.1,3.2,2.7,-0.2,11.5,6.800000000000001,23.6,11.4,-11.3
1698414835.244,16,-0.4,3.3000000000000003,2.7,-0.5,11.700000000000001,6.800000000000001,23.5,9.0,-12.9
1698414835.261,16,-0.2,3.7,2.5,-0.30000000000000004,12.100000000000001,6.6000000000000005,23.400000000000002,8.0,-12.6
1698414835.278,16,0.4,4.1000000000000005,2.1,0.2,12.600000000000001,6.1000000000000005,24.8,3.4,-13.5
1698414835.295,16,0.5,5.1000000000000005,2.4000000000000004,0.30000000000000004,13.600000000000001,6.300000000000001,20.8,-2.6,-12.100000000000001
1698414835.311,16,0.5,5.800000000000001,2.0,0.30000000000000004,14.4,6.0,21.5,-3.4,-10.700000000000001
1698414835.328,16,0.7000000000000001,5.9,1.1,0.5,14.600000000000001,5.0,24.5,-5.0,-5.1
1698414835.344,16,0.5,5.5,-0.5,0.2,14.200000000000001,3.3000000000000003,26.400000000000002,-4.9,-3.2
1698414835.361,16,0.4,5.0,-1.1,0.2,13.700000000000001,2.7,26.200000000000003,-2.1,-4.5
1698414835.377,16,0.1,2.1,-1.9000000000000001,-0.2,11.0,1.7000000000000002,35.6,-0.8,-4.0
1698414835.395,16,-0.4,0.7000000000000001,-3.8000000000000003,-0.6000000000000001,9.600000000000001,-0.30000000000000004,35.6,1.2000000000000002,-6.000000000000001
1698414835.413,16,-0.9,0.0,-4.3,-1.2000000000000002,8.9,-1.0,32.0,-0.7,-5.7
1698414835.428,16,-0.8,0.30000000000000004,-3.9000000000000004,-1.1,9.3,-0.6000000000000001,32.5,-2.5,-4.300000000000001
1698414835.444,16,-0.7000000000000001,0.4,-2.8000000000000003,-1.0,9.4,0.4,26.200000000000003,-4.800000000000001,-3.2
1698414835.461,16,-0.6000000000000001,0.8,-2.1,-1.0,9.9,1.0,23.400000000000002,-7.500000000000001,-2.5
1698414835.478,16,-0.4,1.7000000000000002,-2.4000000000000004,-0.7000000000000001,10.700000000000001,0.6000000000000001,15.5,-8.1,-1.9
1698414835.494,16,-0.1,2.5,-2.3000000000000003,-0.4,11.600000000000001,0.8,1.2000000000000002,-4.6000000000000005,-1.2000000000000002
1698414835.511,16,-0.2,2.5,-2.4000000000000004,-0.5,11.600000000000001,0.6000000000000001,-6.8,-3.2,-0.8
1698414835.527,16,-0.30000000000000004,2.5,-2.1,-0.6000000000000001,11.5,0.9,-14.900000000000002,-2.6,0.2
1698414835.544,16,-0.4,2.2,-2.4000000000000004,-0.7000000000000001,11.200000000000001,0.7000000000000001,-26.400000000000002,-0.6000000000000001,2.0
1698414835.561,16,-0.4,1.9000000000000001,-2.6,-0.7000000000000001,11.0,0.5,-30.100000000000005,0.1,3.2
1698414835.577,16,-0.6000000000000001,1.7000000000000002,-3.2,-0.9,10.700000000000001,0.0,-37.800000000000004,1.8,6.9
1698414835.594,16,-0.7000000000000001,1.4000000000000001,-2.6,-1.0,10.4,0.7000000000000001,-52.6,-0.8,9.700000000000001
1698414835.611,16,-0.2,0.9,-2.4000000000000004,-0.4,9.9,1.1,-54.2,-5.0,8.799999999999999
1698414835.628,16,-0.1,0.8,-2.4000000000000004,-0.4,9.700000000000001,1.2000000000000002,-55.1,-3.7000000000000006,7.6
1698414835.644,16,-0.30000000000000004,0.9,-3.2,-0.5,9.8,0.5,-48.300000000000004,-3.9,7.400000000000001
1698414835.661,16,-0.2,1.2000000000000002,-2.9000000000000004,-0.4,10.0,0.8,-48.7,-8.4,6.7
1698414835.678,16,0.0,1.8,-1.5,-0.2,10.600000000000001,2.4000000000000004,-46.900000000000006,-12.000000000000002,2.0
1698414835.694,16,0.7000000000000001,2.3000000000000003,0.0,0.5,11.0,4.0,-49.7,-6.000000000000001,-1.0999999999999999
1698414835.711,16,0.6000000000000001,2.4000000000000004,0.7000000000000001,0.5,11.100000000000001,4.800000000000001,-49.9,-11.1,-1.9
1698414835.727,16,-0.2,3.2,2.0,-0.30000000000000004,11.9,6.300000000000001,-57.699999999999996,-10.1,-1.6
1698414835.746,16,-0.1,3.0,3.5,-0.30000000000000004,11.600000000000001,7.9,-66.9,-15.5,0.7
1698414835.761,16,1.3,2.2,4.2,1.2000000000000002,10.8,8.9,-57.400000000000006,-2.9,4.0
1698414835.778,16,1.2000000000000002,2.2,3.9000000000000004,1.1,10.700000000000001,8.700000000000001,-45.2,5.7,0.7
1698414835.797,16,1.0,2.1,3.7,0.9,10.600000000000001,8.6,-37.5,11.6,-2.1999999999999997
1698414835.812,16,0.5,2.0,3.9000000000000004,0.4,10.5,8.9,-22.900000000000002,16.900000000000002,-3.5
1698414835.828,16,-0.30000000000000004,2.2,3.8000000000000003,-0.5,10.600000000000001,8.9,-8.700000000000001,14.500000000000002,-2.3000000000000003
1698414835.845,16,-0.30000000000000004,2.2,3.3000000000000003,-0.5,10.600000000000001,8.4,4.2,9.3,-2.7
1698414835.863,16,-0.30000000000000004,1.6,3.0,-0.5,10.100000000000001,8.1,17.400000000000002,6.000000000000001,-1.6
1698414835.879,16,-0.1,1.2000000000000002,2.8000000000000003,-0.30000000000000004,9.700000000000001,7.800000000000001,24.8,6.4,-1.9
1698414835.894,16,0.30000000000000004,0.7000000000000001,2.1,0.0,9.3,7.0,39.9,10.3,-5.500000000000001
1698414835.912,16,0.30000000000000004,0.5,1.8,0.0,9.200000000000001,6.6000000000000005,55.900000000000006,9.3,-6.8
1698414835.928,16,0.1,0.5,1.8,-0.2,9.3,6.5,64.0,9.9,-6.8
1698414835.944,16,-0.1,0.2,1.0,-0.4,9.0,5.5,80.6,8.1,-7.400000000000001
1698414835.961,16,-0.2,-0.4,0.5,-0.6000000000000001,8.6,4.7,94.80000000000001,7.1000000000000005,-7.8
1698414835.977,16,-0.2,-0.6000000000000001,0.2,-0.6000000000000001,8.5,4.2,101.30000000000001,6.6000000000000005,-7.300000000000001
1698414835.994,16,-0.2,-0.8,-0.1,-0.6000000000000001,8.4,3.6,112.2,4.9,-7.300000000000001
1698414836.011,16,0.0,-1.3,-0.5,-0.5,8.3,3.2,116.69999999999999,5.9,-7.1000000000000005
1698414836.029,16,0.1,-1.8,-0.5,-0.4,7.6000000000000005,2.6,121.9,3.0000000000000004,-7.0
1698414836.044,16,0.0,-1.9000000000000001,-0.4,-0.5,7.7,2.3000000000000003,123.30000000000001,1.9,-7.1000000000000005
1698414836.061,16,0.0,-2.9000000000000004,-0.30000000000000004,-0.5,6.7,2.0,123.70000000000002,2.7,-7.6
1698414836.078,16,0.1,-3.4000000000000004,-0.30000000000000004,-0.5,6.300000000000001,1.8,123.4,2.0,-8.200000000000001
1698414836.094,16,0.30000000000000004,-4.0,0.1,-0.2,5.6000000000000005,1.8,120.9,2.1,-9.8
1698414836.111,16,0.5,-4.4,0.0,-0.1,5.4,1.6,120.10000000000001,4.3999999999999995,-11.6
1698414836.129,16,0.5,-4.800000000000001,0.0,-0.1,4.9,1.1,117.20000000000002,6.9,-14.900000000000002
1698414836.144,16,0.2,-4.9,0.2,-0.4,4.800000000000001,0.9,111.4,8.3,-16.5
1698414836.161,16,-0.1,-4.9,0.1,-0.8,4.7,0.4,105.00000000000001,7.9,-16.2
1698414836.178,16,-0.2,-4.9,0.2,-1.0,4.7,0.4,100.10000000000001,8.700000000000001,-15.100000000000001
1698414836.194,16,-0.30000000000000004,-5.1000000000000005,0.5,-1.1,4.5,0.30000000000000004,88.8,7.9,-12.000000000000002
1698414836.211,16,-0.2,-5.1000000000000005,0.9,-1.0,4.4,0.5,74.0,6.3,-7.9
1698414836.227,16,-0.1,-4.9,1.1,-0.9,4.6000000000000005,0.6000000000000001,65.89999999999999,4.6000000000000005,-5.6
1698414836.244,16,0.30000000000000004,-4.3,1.5,-0.6000000000000001,5.2,0.9,47.6,4.1000000000000005,-1.2000000000000002
1698414836.261,16,0.30000000000000004,-2.9000000000000004,2.0,-0.5,6.5,1.3,26.700000000000003,3.2,3.9
1698414836.279,16,0.30000000000000004,-2.0,2.4000000000000004,-0.5,7.4,1.6,15.000000000000002,0.8,6.8
1698414836.294,16,0.1,-0.30000000000000004,3.0,-0.7000000000000001,9.1,2.3000000000000003,-4.800000000000001,-7.9,10.0
1698414836.311,16,0.2,0.8,3.1,-0.6000000000000001,10.200000000000001,2.4000000000000004,-14.3,-14.600000000000001,8.9
1698414836.328,16,0.30000000000000004,0.5,3.1,-0.5,10.0,2.5,-16.900000000000002,-15.100000000000001,7.300000000000001
1698414836.345,16,0.2,-0.7000000000000001,2.7,-0.5,8.700000000000001,2.2,-20.0,-15.8,4.9
1698414836.361,16,0.1,-1.1,2.2,-0.6000000000000001,8.3,1.7000000000000002,-23.900000000000002,-14.800000000000002,3.8
1698414836.379,16,0.30000000000000004,-1.9000000000000001,1.4000000000000001,-0.5,7.800000000000001,1.1,-37.5,-13.3,2.9
1698414836.394,16,0.4,-2.1,1.3,-0.4,7.300000000000001,1.2000000000000002,-51.0,-17.599999999999998,1.3
1698414836.41,16,0.0,-2.0,0.9,-0.7000000000000001,7.4,1.0,-61.900000000000006,-13.100000000000001,-0.9
1698414836.428,16,0.0,-2.1,0.4,-0.7000000000000001,7.300000000000001,0.6000000000000001,-67.60000000000001,-7.6,-0.2
1698414836.445,16,0.2,-2.6,0.30000000000000004,-0.5,6.800000000000001,0.7000000000000001,-74.0,-11.1,3.3000000000000003
1698414836.461,16,0.5,-3.3000000000000003,-0.7000000000000001,-0.2,6.0,0.0,-79.6,-8.700000000000001,6.5
1698414836.478,16,0.7000000000000001,-3.8000000000000003,-0.7000000000000001,0.0,5.5,0.0,-84.80000000000001,-11.1,7.300000000000001
1698414836.494,16,0.7000000000000001,-4.3,0.1,0.1,4.9,1.1,-92.10000000000001,-10.1,8.600000000000001
1698414836.511,16,0.0,-4.5,-1.4000000000000001,-0.6000000000000001,4.7,0.0,-95.2,1.0,12.5
1698414836.528,16,-0.30000000000000004,-4.3,-1.2000000000000002,-0.9,4.6000000000000005,0.0,-98.5,2.3000000000000003,15.8
1698414836.545,16,-0.4,-4.2,-0.8,-0.9,4.9,1.1,-104.7,-2.0,21.700000000000003
1698414836.561,16,0.0,-3.6,-0.4,-0.5,5.300000000000001,1.8,-104.9,-9.0,22.900000000000002
1698414836.578,16,0.0,-3.1,-0.1,-0.4,5.7,2.2,-103.7,-14.4,22.2
1698414836.595,16,0.5,-2.5,0.1,0.2,6.2,2.7,-94.2,-10.600000000000001,22.000000000000004
1698414836.611,16,0.9,-1.8,0.1,0.6000000000000001,6.800000000000001,3.0,-86.9,-8.0,20.6
1698414836.628,16,0.8,-1.4000000000000001,0.2,0.6000000000000001,7.2,3.2,-79.8,-1.0,18.0
1698414836.645,16,0.9,-0.8,-0.2,0.7000000000000001,7.800000000000001,3.0,-63.10000000000001,11.8,7.2
1698414836.661,16,-0.2,-0.4,0.1,-0.4,8.1,3.5,-47.400000000000006,19.500000000000004,-3.6
1698414836.679,16,-0.9,-0.30000000000000004,0.1,-1.7000000000000002,8.4,3.5,-31.0,20.900000000000002,-7.9
1698414836.695,16,-1.7000000000000002,0.30000000000000004,0.7000000000000001,-2.0,8.8,4.2,-24.000000000000004,14.800000000000002,-9.0
1698414836.712,16,-1.1,0.9,1.3,-1.4000000000000001,9.3,4.9,-8.3,12.3,-7.9
1698414836.728,16,-0.4,1.1,2.1,-0.7000000000000001,9.600000000000001,5.6000000000000005,0.0,13.8,-6.000000000000001
1698414836.745,16,0.6000000000000001,1.9000000000000001,2.2,0.30000000000000004,10.4,5.7,16.400000000000002,17.3,-5.1
1698414836.761,16,0.30000000000000004,3.1,2.6,-0.1,11.600000000000001,6.1000000000000005,29.700000000000003,17.599999999999998,-6.3
1698414836.779,16,-0.30000000000000004,4.2,3.5,-0.8,12.8,6.9,38.7,11.2,-7.0
1698414836.795,16,-0.2,5.0,4.4,-0.7000000000000001,13.600000000000001,7.7,40.2,8.5,-6.6000000000000005
1698414836.814,16,0.2,7.2,4.3,-0.30000000000000004,16.0,7.5,42.7,6.9,-5.6
1698414836.827,16,0.7000000000000001,7.300000000000001,3.7,0.2,16.2,6.9,44.7,7.1000000000000005,-6.000000000000001
1698414836.844,16,0.6000000000000001,7.5,3.1,0.1,16.400000000000002,6.2,40.7,6.5,-5.6
1698414836.861,16,-0.5,8.200000000000001,0.8,-1.0,17.2,3.8000000000000003,27.5,4.0,-1.7
1698414836.878,16,-1.1,5.6000000000000005,-0.9,-1.6,14.700000000000001,2.1,6.000000000000001,2.3000000000000003,1.2000000000000002
1698414836.895,16,-0.8,3.6,-0.6000000000000001,-1.4000000000000001,12.700000000000001,2.4000000000000004,5.8,-0.1,-1.2000000000000002
1698414836.911,16,-0.4,0.6000000000000001,-2.0,-1.0,9.700000000000001,0.9,17.5,0.4,-2.8
1698414836.927,16,0.0,-0.4,-2.6,-0.6000000000000001,8.700000000000001,0.1,27.2,3.0000000000000004,-3.7000000000000006
1698414836.945,16,0.0,-0.30000000000000004,-3.2,-0.6000000000000001,8.9,-0.5,33.400000000000006,3.2,-5.4
1698414836.961,16,-0.30000000000000004,-0.7000000000000001,-4.5,-0.9,8.5,-1.9000000000000001,38.6,2.0,-6.6000000000000005
1698414836.978,16,-0.30000000000000004,-0.2,-4.3,-0.9,9.1,-2.7,35.199999999999996,2.4000000000000004,-7.400000000000001
1698414836.994,16,-0.1,0.0,-2.9000000000000004,-0.8,9.200000000000001,-0.6000000000000001,31.8,0.9,-7.1000000000000005
1698414837.012,16,-0.2,1.4000000000000001,-2.2,-0.9,10.600000000000001,0.0,37.4,0.2,-5.1
1698414837.028,16,0.7000000000000001,1.0,-2.2,0.1,10.3,-0.2,70.7,12.200000000000001,1.7
1698414837.045,16,0.5,2.0,-2.5,-0.1,11.3,-0.6000000000000001,64.9,8.799999999999999,-1.0
1698414837.062,16,0.0,3.1,-3.2,-0.7000000000000001,12.5,-1.5,19.700000000000003,11.000000000000002,-1.9
1698414837.078,16,-0.1,2.7,-2.7,-0.8,12.100000000000001,-1.0,6.2,4.0,-1.0999999999999999
1698414837.095,16,-0.30000000000000004,2.4000000000000004,-3.1,-1.1,10.8,0.1,-12.5,2.9,-4.6000000000000005
1698414837.111,16,-0.6000000000000001,3.4000000000000004,-3.1,-1.4000000000000001,12.8,-1.2000000000000002,-36.9,-1.5000000000000002,2.8
1698414837.127,16,-0.5,0.8,-2.7,-1.2000000000000002,10.200000000000001,-0.6000000000000001,-66.3,-4.5,8.700000000000001
1698414837.144,16,-0.4,0.7000000000000001,-2.4000000000000004,-1.1,10.0,-0.30000000000000004,-77.9,-7.2,9.200000000000001
1698414837.16,16,-0.1,0.9,-2.5,-0.7000000000000001,10.100000000000001,-0.1,-84.80000000000001,-6.9,9.700000000000001
1698414837.178,16,-0.2,0.5,-2.2,-0.8,9.700000000000001,0.30000000000000004,-53.8,8.799999999999999,9.0
1698414837.194,16,-0.4,0.9,-2.9000000000000004,-1.0,10.100000000000001,-0.30000000000000004,-44.7,12.6,9.5
1698414837.211,16,-0.9,0.8,-3.2,-1.5,9.9,-0.4,-71.0,1.9,10.3
1698414837.227,16,-0.6000000000000001,1.3,-2.2,-1.1,10.4,0.8,-69.00000000000001,-5.500000000000001,7.6
1698414837.244,16,-0.2,1.5,-1.9000000000000001,-0.8,10.600000000000001,1.3,-60.1,-3.7000000000000006,6.6000000000000005
1698414837.261,16,0.0,1.5,-2.2,-0.5,10.600000000000001,1.1,-61.8,-8.600000000000001,5.300000000000001
1698414837.277,16,-0.4,1.0,-1.5,-0.9,10.0,2.0,-67.3,-12.200000000000001,3.0000000000000004
1698414837.294,16,-0.2,1.5,-1.2000000000000002,-0.7000000000000001,10.4,2.4000000000000004,-56.2,-10.3,4.1000000000000005
1698414837.31,16,-0.30000000000000004,1.6,-0.8,-0.8,10.5,2.9000000000000004,-59.00000000000001,-14.4,4.7
1698414837.327,16,-0.2,2.1,1.1,-0.6000000000000001,10.9,5.0,-60.400000000000006,-26.6,4.5
1698414837.344,16,0.7000000000000001,2.0,3.1,0.30000000000000004,10.700000000000001,7.300000000000001,-77.2,-25.3,2.0
1698414837.361,16,1.3,1.8,4.7,0.9,10.5,9.0,-74.8,-15.5,1.6
1698414837.377,16,1.3,1.7000000000000002,3.9000000000000004,1.0,10.3,8.4,-59.7,-3.1,1.8
1698414837.394,16,0.7000000000000001,1.5,4.1000000000000005,0.4,10.0,8.8,-53.50000000000001,-1.5000000000000002,0.2
1698414837.413,16,-0.4,1.9000000000000001,3.7,-0.8,10.4,8.5,-43.2,4.9,-4.2
1698414837.429,16,0.0,2.2,3.7,-0.4,10.600000000000001,8.6,-31.900000000000002,9.600000000000001,-3.7000000000000006
1698414837.444,16,0.30000000000000004,1.5,3.5,-0.1,9.9,8.5,-19.8,9.3,-4.800000000000001
1698414837.461,16,0.1,1.3,3.2,-0.30000000000000004,9.700000000000001,8.3,-13.6,6.5,-6.000000000000001
1698414837.478,16,0.1,1.2000000000000002,2.9000000000000004,-0.30000000000000004,9.700000000000001,7.9,-1.0,2.7,-6.7
1698414837.496,16,0.1,1.0,2.6,-0.4,9.4,7.7,6.5,1.6,-6.6000000000000005
1698414837.511,16,0.0,0.30000000000000004,2.2,-0.5,8.8,7.2,22.8,1.9,-7.6
1698414837.527,16,0.0,0.2,1.7000000000000002,-0.5,8.8,6.7,38.900000000000006,1.2000000000000002,-7.400000000000001
1698414837.544,16,0.2,0.1,1.1,-0.30000000000000004,8.8,6.0,53.300000000000004,-0.6000000000000001,-6.7
1698414837.561,16,0.30000000000000004,0.0,0.8,-0.2,8.700000000000001,5.5,59.5,-1.2000000000000002,-6.2
1698414837.578,16,0.5,-0.2,0.30000000000000004,0.0,8.5,4.9,69.80000000000001,-3.9,-5.8
1698414837.596,16,0.7000000000000001,-0.4,0.30000000000000004,0.2,8.4,4.7,74.5,-3.9,-5.8
1698414837.612,16,0.6000000000000001,-0.9,0.2,0.0,8.200000000000001,4.2,87.3,-1.8,-6.5
1698414837.628,16,0.4,-1.1,0.1,-0.2,7.9,4.0,92.30000000000001,-0.30000000000000004,-6.2
1698414837.645,16,0.0,-1.7000000000000002,-0.30000000000000004,-0.6000000000000001,7.5,3.3000000000000003,102.10000000000001,4.1000000000000005,-6.1000000000000005
1698414837.663,16,-0.30000000000000004,-1.7000000000000002,-0.4,-0.9,7.300000000000001,2.6,109.8,10.2,-4.1000000000000005
1698414837.681,16,-0.30000000000000004,-2.4000000000000004,-0.8,-1.0,7.0,2.2,112.1,10.4,-4.5
1698414837.694,16,-0.30000000000000004,-2.8000000000000003,-0.5,-1.0,6.7,2.1,113.3,11.700000000000001,-5.1
