msFromStart,interval,accx,accy,accz,accGx,accGy,accGz,rotRate_alpha,rotRate_beta,rotRate_gamma
2,0.01666666753590107,0.055617988456040615,0.012402969977259636,-2.0130285061508415,0.06314714413514594,-7.063343225750327,-8.803031176105142,-0.5623790999603382,21.881525289227593,12.377987271467159
176,0.01666666753590107,0.1560369311417453,0.038766660767793656,-0.41229485297799107,0.39055416407929733,-5.8650464638859034,-8.239196100616455,2.396251488214852,-1.935858531785323,3.3787118748450102
192,0.01666666753590107,0.07954597653225064,0.1129126779526472,-0.3504758179247379,0.3012205146347172,-5.798308092609047,-8.172158454132079,4.417245553240034,-4.646015055526795,4.096689834452526
210,0.01666666753590107,0.0060902979654259976,0.13445523219704628,-0.2478074706107378,0.2099415763412602,-5.785888171496987,-8.06307264099121,4.236073077958153,-6.210090809419279,4.558901969078806
225,0.01666666753590107,-0.11020447843987494,0.22098668370246885,0.0002098433583974838,0.06793547210693358,-5.708973858642578,-7.808388854870199,2.686279249620165,-5.253051959993086,3.9317488768463575
242,0.01666666753590107,-0.15726453670794144,0.30168519127070903,0.2094347775965929,0.00897827449189499,-5.633108178058266,-7.595754404449463,2.125198419210658,-1.3402099005429702,2.2757887224838065
259,0.01666666753590107,-0.19044497657492757,0.25710779839754105,0.25069793135523794,-0.025737649580370635,-5.683087137714028,-7.550413625988364,3.3022434247750745,2.4880891445777857,1.5562418470795976
276,0.01666666753590107,-0.3397384430721402,-0.10645721820294857,0.42928515074551105,-0.013916297149658202,-5.748777461242676,-7.58497991245687,2.9008031117323947,3.274550209341846,1.0000519657243487
292,0.01666666753590107,-0.23515576830310744,-0.053155836126208306,0.22459902898073195,0.014963778642285614,-5.747431891852617,-7.755567365264892,0.5944680757329985,0.17973031819122956,1.5970568164037724
309,0.01666666753590107,-0.18758078278284518,-0.05724924291968345,0.18716566264331339,0.02094928279267624,-5.770176223102212,-7.780856120300292,-1.1938705362545081,-2.7767946240484664,3.23954399574165
326,0.01666666753590107,-0.23355423312429338,-0.015264789149165153,0.27870120604634285,-0.09546878206557594,-5.75865412761271,-7.668927192687987,-0.8974813074109749,-2.3571563391793453,2.3492021570040427
343,0.01666666753590107,-0.3069790964277461,0.10834697747230529,0.3934457756012678,-0.20545241169584913,-5.672312645721435,-7.527668710216879,1.085871371654855,1.4763702552557032,0.8627672444803552
358,0.01666666753590107,-0.3439424706332385,0.0900689779818058,0.3607236556947231,-0.2434603630508296,-5.703437851825356,-7.551012760925293,2.2692439071550536,4.223410761010595,-0.5019889151966126
376,0.01666666753590107,-0.2441193018835969,0.09346388111710548,0.18518939413428306,-0.13886368715590797,-5.712416108050942,-7.717409776306152,2.4250277155183504,2.881693096208345,-1.4641618257228344
392,0.01666666753590107,-0.1745179971899837,0.058331777459383005,0.1294698449999094,-0.07272387542724609,-5.755212462726235,-7.767537789043784,1.0015296344625988,0.16671726035762144,-2.1393292268297683
409,0.01666666753590107,-0.12487131082904525,0.013308978906273842,0.1481529181599617,-0.029927511618798596,-5.804443234363198,-7.745840921020507,0.4063029274840528,-1.1410206668910652,-2.1485376024914147
426,0.01666666753590107,-0.12911420909580773,-0.17430559654831884,0.33889643929004665,-0.057610468314355234,-6.000767770496011,-7.548917834472656,1.4531041763434067,1.132027015301451,-0.5355224759787307
442,0.01666666753590107,-0.11386806071503087,-0.18869301834106444,0.4083727110981941,-0.06599018325805664,-6.022015725708007,-7.474547945404052,0.8188574524102242,2.2339100579181084,0.2675018508834635
458,0.01666666753590107,-0.12436848500659689,-0.13695757040679454,0.35290567542016504,-0.08080430603027343,-5.96964256439209,-7.530511824688315,-0.8089132839480675,1.6117981789016582,0.0014605399044720234
476,0.01666666753590107,-0.0795285322071053,0.010744096854329109,0.25962942582964893,-0.043544538127514534,-5.817610758972168,-7.627028663635254,-1.824055378704796,-0.015240820080942984,-1.0297706524116033
492,0.01666666753590107,-0.004478255092329345,0.07719196075201035,0.25380817233026026,0.029179335016442928,-5.755811013141274,-7.6294228652954095,-1.5361891587283807,-0.3328921610064615,-1.728426006857153
509,0.01666666753590107,-0.019958356076164637,0.06077858608961105,0.30061493169069287,0.010175359338952694,-5.794866427722573,-7.565826883697509,0.642666052663134,-1.3644576057050444,-0.8690097172166296
525,0.01666666753590107,-0.029820690243458372,-0.023055881416797635,0.35657413479983807,-0.0053869537353515625,-5.8925797829777,-7.499536840710044,1.0384263163590077,-2.3207768306691534,0.8792398998502806
541,0.01666666753590107,-0.17782712173797188,-0.0025958617120981214,0.4618120403409004,-0.16669629401331185,-5.8844993523746725,-7.385064658355712,-0.5359449872119194,-4.056631628744047,1.4510477557947041
559,0.01666666753590107,-0.3216698120160028,0.11511924808621406,0.60648120803833,-0.32591070983651294,-5.766435283008217,-7.240664370727538,-1.1072114439429135,-4.215428831191789,0.9371828491787317
574,0.01666666753590107,-0.39726723358556626,0.1013227779239416,0.67850774885118,-0.41000704571820096,-5.7809507150948045,-7.168089548382163,1.3401223887442293,-3.2006245106338596,1.796512427433308
592,0.01666666753590107,-0.40501795731019224,0.028859014737606048,0.6160819800764322,-0.42616789322452386,-5.858611462402344,-7.226598435974121,1.4345595724165874,-2.9351698488715487,2.664604924949599
609,0.01666666753590107,-0.4429581406585872,-0.21898294266462326,0.23525194042026995,-0.48123452912482895,-6.111349959674477,-7.60368519744873,-3.127094109124087,-5.985658050368654,5.247735084611055
626,0.01666666753590107,-0.4231367841836065,-0.46982992710173127,-0.07608838342428206,-0.4929062896175543,-6.3522665017277,-7.922263655853271,-10.508297264483392,-11.732147635439203,10.977827519918518
642,0.01666666753590107,-0.5019927326250821,-0.6765034232914447,-0.7305366267740726,-0.6322188941513188,-6.5396127816349265,-8.590394972118736,-15.279964748849974,-18.814468116021096,16.9062344977773
659,0.01666666753590107,-0.7106518496740609,-0.32045769627988335,-0.9981044443875551,-0.9394249312027357,-6.151153562274575,-8.879794682312012,-9.932672826896813,-20.28366912724752,21.345924052629996
676,0.01666666753590107,-0.8336910771045833,-0.14427286185622215,-1.0737649577885866,-1.135300554524269,-5.9624611284554,-8.962245001983643,-3.0477330739406514,-17.786591240278586,20.65943198443577
692,0.01666666753590107,-1.2021655661217867,0.09461363567411898,-1.3261416360110043,-1.566107160949707,-5.724387116351723,-9.211391612243652,2.2644698183686263,-14.695392763450677,16.047676304012114
709,0.01666666753590107,-1.479102538974583,0.08792612073421478,-1.622911582711339,-1.9047370947906745,-5.73950051433146,-9.498844864544273,4.060475317699472,-11.622952547404562,8.763195884376183
726,0.01666666753590107,-1.5930096347920595,0.10015081153512001,-1.8234101896584032,-2.0477906439850107,-5.735759574237465,-9.69142846058309,5.007802491899554,-7.736562956836259,2.362901595488384
743,0.01666666753590107,-1.7801830423504112,0.21157705032229424,-2.134305107823014,-2.240224638952687,-5.6377463592529296,-9.992050406536459,8.773107342635518,2.1726165806366486,-4.432538773678515
759,0.01666666753590107,-1.8761945621237157,0.34955519594848156,-2.49899591358304,-2.2897545396666974,-5.546018508148193,-10.324694799694418,25.01870459954803,14.89563341934794,-15.978143270714092
775,0.01666666753590107,-1.782582943098992,0.35255788489580153,-2.8479595733791587,-2.1351789315154774,-5.6058735496521,-10.628908048138022,33.69691927027091,15.409337069466478,-19.814155093511673
792,0.01666666753590107,-1.5153654002279042,0.3229915986716747,-3.864213422441482,-1.8112136107071302,-5.728727191382646,-11.57521625431478,32.12801115754064,-9.629245941887227,-21.485630449460732
809,0.01666666753590107,-1.4177470297798513,0.4558867419451475,-4.258004065957665,-1.7202338562896473,-5.658396348571777,-11.919233105358481,28.70555021351441,-29.93055488643995,-22.369485956364354
826,0.01666666753590107,-1.3254828798413276,0.6567366465479135,-4.0560722113370895,-1.6569371864318847,-5.51549302150309,-11.66948852920532,28.872394659464895,-39.972408287219416,-30.9786713202405
844,0.01666666753590107,-1.1541767573699355,1.125775715532899,-3.521758413887024,-1.5168764258453622,-5.143493938556313,-11.054028480419516,41.75685667958778,-46.16379376982297,-46.05791217730943
859,0.01666666753590107,-0.8649030116438865,1.2956938907772302,-2.877174561947584,-1.2345102675506845,-5.069423324695229,-10.328286102184652,50.715763096894214,-46.68855720375505,-56.29604130917297
876,0.01666666753590107,-0.6860306917019188,1.4789730673760175,-2.5584873824715615,-1.0462661254882812,-4.993406837463379,-9.917081382530927,52.66122978385104,-48.96244329166819,-63.49792595872323
892,0.01666666753590107,-0.4606251686438918,1.6330781719386576,-2.1196821237087247,-0.8075941840240731,-4.969615042987465,-9.362226316833496,41.26810883314918,-57.86185193111464,-68.42381740700141
909,0.01666666753590107,-0.0826531487673521,1.751872893667221,-1.6937521286100148,-0.4209306159088388,-4.919486445727944,-8.873509902954101,24.464641361623887,-63.822011604651166,-73.43214240837247
925,0.01666666753590107,0.03506795238032937,1.9216431848734616,-1.636102488195896,-0.2946364783355966,-4.788703180041909,-8.779836178478599,11.402669555161543,-73.05949411744574,-83.89998104730729
943,0.01666666753590107,0.3780472040046006,2.337102639362216,-1.1831868710160254,0.07751226048124954,-4.409521492114663,-8.293962879070639,13.438008724991043,-78.09894429086455,-104.06319125080518
959,0.01666666753590107,1.0519763198286294,2.7729554780602452,-0.4343231449127197,0.809988257820066,-4.017321332660317,-7.505671982464194,26.69223584243726,-63.09520434488094,-108.95907767805949
976,0.01666666753590107,1.095144065099582,2.6949545390129086,-0.05358896684646606,0.9358335373809561,-4.1666590766906735,-7.058106494140625,42.9213253858995,-57.914423897156226,-98.86022634865625
992,0.01666666753590107,1.28021034431085,2.6109511446803806,0.1996218241125345,1.2452841362054807,-4.351761377063394,-6.706158850097656,41.11736655816699,-31.070547609860927,-94.39514044292216
1009,0.01666666753590107,1.577069576729834,1.8566250615179538,0.600638327229023,1.6588823930823708,-5.1892830453068015,-6.219836637878418,52.29477647450152,-39.268058689440196,-100.41742751714912
1026,0.01666666753590107,1.7299005697034298,2.393130816054344,0.6007002865493297,1.9291280790024437,-4.751444001227617,-6.113892629894614,65.57431712678544,-49.28983474915441,-112.99964683630978
1042,0.01666666753590107,2.0925334200203416,2.761191975030303,2.2467121743410825,2.5082256238190457,-4.559308733478188,-4.26541931065023,99.20835426046264,-10.135578110344028,-119.23898366198141
1059,0.01666666753590107,2.1426155477896334,2.4721330410987137,3.948413800650835,2.8042086213927715,-5.016451612964272,-2.3487112440913913,118.38191786454986,40.7562373812755,-107.07533882572665
1076,0.01666666753590107,1.917239104695618,2.2104747397899627,3.8981267979592085,2.8684032995361832,-5.455040014106035,-2.1438573645442722,124.97261328150529,79.83647611382409,-84.0084649418946
1092,0.01666666753590107,1.5484554766640066,1.1769517760187387,2.974688010716438,2.8761843818664548,-6.717681530109047,-2.689436652374267,127.01270882431805,85.93176424990016,-69.58492907533606
1109,0.01666666753590107,0.7650619967103004,1.0536392846047877,1.7746189784824846,2.348262915802002,-6.994810372272133,-3.5999808867305516,123.74630745754285,56.81416238413721,-74.83841688677556
1126,0.01666666753590107,0.6826198603451251,1.0411597422599792,1.2804676800727843,2.4868276291444897,-7.13711631796956,-3.8215941778987643,113.70057450931482,41.90072778426493,-72.3165881018018
1142,0.01666666753590107,0.7464252469100058,0.792166861256957,1.5371008466959,2.8242602794922886,-7.520038945990801,-3.233668617248535,96.12810969951613,34.20086770270738,-71.70325077471298
1159,0.01666666753590107,1.5918704016290603,-0.3222030786424875,1.3355994924470782,3.8549639480590816,-8.699481954303383,-3.232769914843142,78.49881771582295,9.293504578140666,-72.68877193986496
1175,0.01666666753590107,2.26431782752797,-0.8905676142543554,1.274020988151431,4.68006569519043,-9.311948081970215,-3.1322134451165793,73.20423265614748,-10.228357692482188,-67.16520478826482
1192,0.01666666753590107,2.563580029435456,-1.73380298396945,2.5855337948292494,5.139603068597615,-10.222045157080888,-1.5958844595760107,85.14537041981073,7.708081067997306,-45.47461743728493
1209,0.01666666753590107,0.9482488188505173,-0.489679705953598,2.2134882423922417,3.6355949286863205,-9.049334087371825,-1.7464198889583349,105.90433021328464,21.93910036883622,-43.92385713717938
1226,0.01666666753590107,-0.049293607740104196,0.4342880735993385,1.5127338826805352,2.7798180573061106,-8.203882795172929,-2.1680986563533544,124.09273465224591,34.4791979113854,-59.67831342012285
1242,0.01666666753590107,-1.1943398409321904,1.934676853969693,1.216074995139241,1.908029377801716,-6.776638745990395,-2.0486878485530613,114.31718349701606,45.131130639019574,-83.31582911854194
1259,0.01666666753590107,-0.8672858151271938,1.1461574093043803,1.0808218905627727,2.4585461220338938,-7.576900650897621,-1.92209385125041,85.53437701379964,33.5963379045533,-81.8461090129386
1275,0.01666666753590107,-0.26694471727907654,0.49342473770081996,0.6933405763238668,3.2519244049072262,-8.217649454718828,-2.1182687497794626,66.04169331131108,18.91383883070832,-69.74123112430264
1292,0.01666666753590107,0.30025282038003204,0.21391630692481994,-0.345068990445137,4.0221094437196845,-8.484004389411211,-2.926611669811606,84.95519746275006,-1.0515806203702176,-63.13765397057257
1309,0.01666666753590107,0.13159195172041654,1.2961013025343417,-1.9127610824987291,3.997119671630859,-7.397484579467773,-4.289660602459311,111.16854142172106,-40.31054704736465,-75.93509255048032
1326,0.01666666753590107,0.04469283594638109,1.7076304318368434,-2.5631127041846513,4.0614638412475585,-6.97146690608561,-4.733186460003257,116.83069994176992,-61.21466202107967,-82.14369352488688
1342,0.01666666753590107,0.19432780935764313,0.23105974942743776,0.2060527339428663,4.3936599061161274,-8.419809272876382,-1.717090626360476,91.36629305548001,-34.36236752563233,-62.46797441302033
1359,0.01666666753590107,1.0186635405525564,-0.38946985770761966,2.7006746702253817,5.337274343164265,-9.015964901733398,0.9389766942448914,75.5004671230249,-11.160418113226822,-53.83073575467564
1375,0.01666666753590107,1.1527943631008266,-0.31555823380053044,2.4909569840341805,5.585673057666421,-8.915110325843095,0.8885488217778503,73.99382984495763,-1.1997945514207307,-49.930595285760816
1393,0.01666666753590107,1.358703596919775,0.15618892509937285,-0.24032325233519075,5.920262739673256,-8.415171091681719,-1.6166839403681457,91.42748472025416,-35.52912776041059,-39.37013586658603
1409,0.01666666753590107,1.2443272761553525,0.08672434372901916,-3.5330963849812744,5.861604214477539,-8.475623514556885,-4.772989624211937,95.13621596786855,-83.23745952800522,-28.72501966774353
1425,0.01666666753590107,1.1143827993810176,-0.23817513439059257,-3.573399753797054,5.753566156823933,-8.803929001727699,-4.703108936321363,97.03009082092969,-78.99820699698843,-14.682260017224035
1442,0.01666666753590107,1.1902370817884802,-1.3004676810503004,2.02478090326488,5.8361664063602685,-9.893440979224442,1.1607398422125725,107.51654172535278,36.27975188981665,2.869309536356289
1459,0.01666666753590107,1.7926751519158481,-2.194755777132511,6.508145630225539,6.438158194024861,-10.813411798095702,5.952584973542019,87.68440445130376,82.64989250465487,6.399628558887134
1477,0.01666666753590107,2.1010922817900775,-1.4079711934357881,4.527714740818738,6.739377813610434,-10.041131540569662,4.173842339258268,18.204648336354847,36.81337749419682,8.273052118025959
1492,0.01666666753590107,0.4135959987044334,-0.2192155823767185,-0.7921825702827423,5.022136965124309,-8.866177075847983,-1.1944066590907052,-33.57783833718632,-18.756300517501977,9.998408275016308
1509,0.01666666753590107,-0.12102291917204856,0.4280786975651979,-0.8539215989023446,4.466981747436523,-8.225878938403724,-1.333120754308626,-8.709024800295165,-18.169366994197148,5.914012354182982
1526,0.01666666753590107,-0.06730185037851333,0.49462709922790526,-0.665253130480647,4.511424700275064,-8.164228245654702,-1.144726682381518,17.690656110743877,-4.794866648769352,0.9661519226045773
1542,0.01666666753590107,0.0873936212927103,-0.37746494713723655,-0.7561772639870643,4.669590770666301,-9.037961629486084,-1.1680701485680416,22.52068073137905,10.988039506501334,-2.076689135064758
1559,0.01666666753590107,0.3843380477771163,-0.9439549210488796,-0.08822828201856464,4.974402569524943,-9.603740824779868,-0.41958292762693017,28.087713499309857,31.850999175372436,-2.9709611073394733
1575,0.01666666753590107,0.6282341901630163,-0.8341273496299981,-0.20841012899028136,5.227590564130247,-9.49286169848144,-0.41494376005157824,39.50182532887846,46.97943788503297,-2.323902709431492
1592,0.01666666753590107,0.7805790070548653,-0.2457505380809307,-0.5911503679156304,5.382315554156899,-8.90568315680623,-0.5889721255451768,43.823040129935414,49.755773178859755,2.651215619742258
1609,0.01666666753590107,0.2688447056815028,0.17779402318596838,-0.30172318519353863,4.859781041827798,-8.486548228675126,-0.1503852894550655,38.34097662282685,44.65295592541615,5.849243804717867
1626,0.01666666753590107,-0.11021247908324003,0.3201899852544069,0.04665303010344505,4.464288855090737,-8.349629821234942,0.3269590775305405,30.794119608866758,40.69354648997854,6.413025974944113
1642,0.01666666753590107,-0.03350917863100767,0.2477116090208292,0.2674970904648304,4.516362448938191,-8.429835576850175,0.6789060274537653,18.438169088983,28.438500062250665,8.025619977605784
1659,0.01666666753590107,0.5809767644256353,0.10889175187349319,0.02668572581913322,5.106233882959187,-8.578724408069252,0.4933555083895102,8.050274399188591,15.380728822127878,11.547653980673402
1676,0.01666666753590107,0.743617057621479,0.183261056420207,-0.031816622434183955,5.239112659619749,-8.518720898005366,0.45445071779266,0.7425725103133799,4.180168406488422,14.066945350370512
1692,0.01666666753590107,0.467333141849935,0.4492950885951519,0.053427602272294455,4.9155952835083,-8.276905361285806,0.5400433175453916,-0.10026856439796235,2.083405985783231,16.728955230322327
1709,0.01666666753590107,0.026221359710395336,0.130789110904932,-0.043140126611664886,4.436754659216105,-8.613888660430908,0.45504919514246284,5.821026585709252,10.928590393739189,15.79981556922152
1725,0.01666666753590107,0.07948211751580238,0.07302139706909656,-0.20980711804032323,4.453215672412514,-8.687511530524493,0.3323468715161085,17.035007469294136,20.83952016718691,14.932886978628483
1742,0.01666666753590107,0.5949360239341854,0.0553518848657608,-0.14164718952775002,4.916343763788044,-8.724321796527505,0.5011374309699982,23.76778789645875,23.148260710434624,17.515335400033408
1759,0.01666666753590107,0.6543328002765775,0.11540157215893268,0.09292845906615256,4.929362527576089,-8.681525441852212,0.8060991596933453,17.87478264284179,16.01474625447619,20.39260893696193
1776,0.01666666753590107,-0.23433102618306872,0.044213820257782935,0.44388818805031477,3.9740751883909105,-8.780435313415527,1.2089235890146344,7.338482456534991,4.262552013823,20.55291347678213
1792,0.01666666753590107,-0.615653233270347,0.04500526289641857,0.5434708443086594,3.54985287399292,-8.798990960803627,1.3198046150092035,0.9092676525974781,1.1186185001870697,16.222737467534124
1809,0.01666666753590107,-0.6639835489362478,0.07470248202383518,0.3153951521933079,3.469647702899575,-8.78432706015706,1.0907088591311127,-0.7313205207077244,0.42990080417962373,12.077534933841115
1826,0.01666666753590107,-0.15656740302294492,0.07046469832360744,0.053615854853391647,3.945494990594685,-8.803181398230791,0.8294420413579792,0.981503733259533,-0.20612454370211247,9.371811843201217
1843,0.01666666753590107,0.06325549759715796,0.12144319041073322,0.04259535221047699,4.142269024060666,-8.762630192133784,0.8206142264537513,1.8816880880345404,-1.3868505943423426,11.320475912463255
1859,0.01666666753590107,0.00024257658421993254,0.25441373700797554,0.1989022776663303,4.051438414056599,-8.642320974189042,0.9775831960149108,1.9898575804766208,-5.645273438646953,13.811412605594702
1876,0.01666666753590107,-0.18803689251989125,0.18948738358914852,0.29395014003925024,3.829974175970256,-8.722675198364257,1.0681138001590966,1.0789300851891237,-8.469989523685875,15.650487143397532
1892,0.01666666753590107,-0.5733259574115276,0.11130115110278128,0.3072189330656081,3.4009643350347876,-8.821138495203853,1.0733518469430505,1.5548525439137346,-6.059017270262353,13.722830174701514
1909,0.01666666753590107,-0.07219254502952098,0.021326281145215033,0.042353287082910536,3.873220320239663,-8.923789306861162,0.8098401728525757,3.78327422466862,-2.2750412436565135,12.367569525435597
1925,0.01666666753590107,0.3911109029129147,-0.1789922930598259,-0.08948803628869355,4.304475309753418,-9.137021723175048,0.6913263138920068,9.124142353707384,-0.5523793828503222,16.08547115578438
1945,0.01666666753590107,0.385386680047214,-0.30922493912577625,0.15474975914172828,4.244620268249512,-9.287557152557373,0.9709995798408985,10.702473566171331,-2.9995953947742824,21.250142602351616
1959,0.01666666753590107,-0.17601473855376243,0.008351648759841918,0.4770796790342778,3.6351460158750415,-8.98932940826416,1.3060374440066516,5.242360579507901,-9.294852686728097,20.674565976089227
1975,0.01666666753590107,-0.05381897621005773,0.19501053092479706,0.6200210000257939,3.71235960393697,-8.822034567260742,1.4441544135816395,1.0130662508575734,-12.897225936134344,20.27399757938278
1992,0.01666666753590107,0.474399719235301,0.025953356423974037,0.6857354350823909,4.177583498547971,-9.018660716688633,1.4930854716196655,-0.37689514780616623,-12.355940274600004,22.742397209574126
2009,0.01666666753590107,0.6161757958397269,0.10982114167809486,0.4740998595058918,4.265868807983399,-8.95745718318522,1.27072406549789,-0.03694518691168655,-6.004321542275713,23.722218581863718
2025,0.01666666753590107,0.41473114021420476,0.2396633271217346,0.43975919848680495,3.9956235878542063,-8.853608686175942,1.2521687834359705,11.50119418016533,9.376322329374362,19.653503921591096
2042,0.01666666753590107,0.5325348050788045,0.29857670386135576,0.46526897586174304,4.066102899225056,-8.808120023676752,1.3326739603891968,22.097248276425987,20.806513278022827,17.680557676056015
2059,0.01666666753590107,1.0191168372780084,0.5904547868669032,0.9144037593286484,4.505737886810302,-8.526500884357095,1.8604463003065437,23.348132536116704,26.672496595735925,17.805664543535844
2076,0.01666666753590107,1.4624506793811916,0.823951992574334,1.6048609622359276,4.878185882568359,-8.310573822131753,2.636167053675279,10.442997240923486,20.826834798350905,22.86475151081844
2092,0.01666666753590107,1.4190604504659772,0.8830793043255806,1.9361048409461974,4.769698619842529,-8.273014783588051,2.9894610708259046,-3.749180054766032,9.458047250340858,28.13251783271785
2109,0.01666666753590107,1.1544029673412441,0.8217161963462829,2.4907307740628717,4.404433229064941,-8.375217266955971,3.5027184170480816,-24.73845169261865,0.3301790017608062,34.71450475848151
2125,0.01666666753590107,1.289701956886053,0.5141349327743053,2.743414910799265,4.452915812683105,-8.72073049403727,3.682432448511198,-35.70810262232702,3.376913614102593,37.42831308555141
2142,0.01666666753590107,1.6302663293883204,0.5555290194362401,2.7815771759331223,4.700865614373981,-8.718485345458983,3.638588776740059,-35.897616466132774,12.514957323761656,37.711123898324956
2159,0.01666666753590107,2.3576895003169773,0.4708604391932487,2.8945184954583643,5.2967225525453685,-8.853160357886551,3.6659723120976238,-30.27119008072683,24.173651397319247,41.98544945072977
2175,0.01666666753590107,2.3612182589650152,0.058279170489311215,3.1706676789343353,5.187786377008259,-9.305364611926674,3.8799537932131436,-37.56576039731416,19.53224928080315,48.08502694560459
2192,0.01666666753590107,2.302726907029748,-0.006546645164489746,3.4858921507358547,5.002983936364949,-9.414600647193193,4.092140755594707,-56.626311691394356,8.56660852591123,54.06453996015435
2209,0.01666666753590107,2.1151602623701096,-0.3914584011763334,3.6996015369117257,4.633827967889607,-9.861867444831132,4.071191783329286,-87.29783623484855,-9.298583677562217,58.05928537926303
2226,0.01666666753590107,2.4855972105666995,-0.8695522987544536,3.1209915016174317,4.862923431506752,-10.382757112562656,3.2540208291972053,-101.40026441795727,-10.013683993095041,60.93597664256481
2242,0.01666666753590107,2.6985189534962175,-1.3040391097962856,2.7792046015828844,4.923975427710265,-10.85396417323649,2.6500825014415663,-105.67482902698303,-2.46673306403386,61.55375359261412
2259,0.01666666753590107,1.823214959347248,-1.5690882225871086,1.3667857810884714,3.8569099675603207,-11.151595120680332,0.9084503673495724,-92.05944797320959,22.774724494915795,54.11042858609308
2276,0.01666666753590107,-0.3363029156655073,-1.4074685046106576,-0.6642378159582615,1.5783774444580077,-11.003751999121905,-1.3090285886466502,-71.35952833492127,41.67537593788411,44.5214064820017
2292,0.01666666753590107,-1.4483648708835244,-1.053500752916932,-1.8545476707220077,0.3827732826784253,-10.655844570380449,-2.6370623950798064,-57.311420646281654,42.01024303741691,28.335820120910572
2309,0.01666666753590107,-3.0681629977494476,0.1990080761283636,-3.484078963834047,-1.2898761444091795,-9.399337027087807,-4.422089881786704,-49.37660888746483,25.755722992127424,11.160838169860778
2326,0.01666666753590107,-4.792335106803477,0.8041220874667168,-3.003467530477047,-3.016245032855123,-8.78417683803141,-4.042908047728985,-39.21320544021582,22.733169624005438,-5.636239659695964
2342,0.01666666753590107,-5.1635179049313065,1.3417588918596506,-2.688094590115547,-3.3382651561461385,-8.229919738227128,-3.7934619430657475,-23.53594566281913,29.617581958291627,-26.72761963743251
2359,0.01666666753590107,-4.213320874622464,1.2310375864714382,-3.6192777078747747,-2.266560491888225,-8.314165709143877,-4.746054855535179,-1.049352698040324,24.786783818732953,-35.602579614744904
2375,0.01666666753590107,-2.4305308646440507,0.7453408126741647,-3.7713580286115405,-0.3902547244749963,-8.782979737201332,-4.875341964379325,7.63047218977939,16.92803475406069,-33.8197124111694
2392,0.01666666753590107,-1.9700665856502948,0.6823556564509868,-3.188468124040961,0.15442615321055053,-8.830116166907548,-4.270058003301545,2.550997748154542,6.508059519508378,-31.07490185545681
2409,0.01666666753590107,-2.0334929097697136,0.39415655421912665,-2.2529449312508105,0.1889924396790564,-9.092579939380288,-3.36325405145213,-17.53072723132803,-24.945957962245515,-29.92693830127443
2424,0.01666666753590107,-2.5743428309902545,0.92813892775774,-2.359758707806468,-0.28476021382436156,-8.533234576526283,-3.5474575763542204,-28.183416402412785,-37.168065802700994,-33.186973931743175
2442,0.01666666753590107,-2.690083133584261,1.2611679363191126,-2.6150287693828345,-0.3203741096496582,-8.168867595893143,-3.8914747927241025,-24.16195982100748,-30.253957513450885,-41.38611401143949
2459,0.01666666753590107,-1.7510644998937843,1.5858663389086722,-3.8670436774313446,0.758513013458252,-7.800159955707192,-5.199307157323509,4.0025736696711585,-10.562409438182819,-47.489929638694306
2476,0.01666666753590107,-0.797775056527555,1.5879185952633619,-3.7113872517734765,1.8236337692812083,-7.772177723804115,-5.010315302166342,23.189006203928333,0.5735459256447801,-45.84220797313126
2492,0.01666666753590107,-0.8979051175355911,1.7699650151968,-3.111491851866245,1.8387471672609448,-7.5652295023262495,-4.350562668798118,23.430950287350402,-3.080157689477994,-49.03490476857285
2509,0.01666666753590107,-0.9973349213197826,1.6473329072624443,-1.678831622853875,1.8950106140136718,-7.645285620337725,-2.8838153151363133,1.9150337118927774,-19.480211777064117,-48.737012898111914
2526,0.01666666753590107,-0.5973287642896175,1.052838489615917,-1.0868879126034676,2.4033295539855954,-8.200590183368325,-2.328060962511599,-13.9844153208556,-29.894354883838883,-47.84035590915639
2541,0.01666666753590107,-0.32544103765040633,0.915305749669671,-0.9363315865635872,2.7799679871708154,-8.294113685718179,-2.245310929241031,-21.574634644535166,-26.858132599640406,-46.42718635478617
2559,0.01666666753590107,-0.43571401474922894,0.22994565070569514,-1.516559578448534,2.802562973077595,-8.920497279578447,-2.9141913103081283,-12.658306772740945,-23.640133368418507,-45.30311480232049
2576,0.01666666753590107,-0.6098913087427615,-1.2990168977200984,-1.4967635756105184,2.7269959831789135,-10.409690127673745,-2.921972757964581,5.743853558937746,-19.80625597973655,-43.9651934420363
2592,0.01666666753590107,-0.31587709049135443,-2.224004667970538,-1.0067251193471252,3.113959118762612,-11.301830690333247,-2.4208362768426537,14.911228448770371,-16.717854465373765,-38.99229321679551
2609,0.01666666753590107,0.8083221695050596,-2.6300357843786477,-0.4223310938239097,4.332607763782144,-11.676073752814531,-1.8076213766351341,18.23656068770444,-21.70917912590066,-27.105392277784038
2626,0.01666666753590107,0.6055214230954646,-2.030330938607454,-0.07975625828206538,4.175787262780964,-11.062110664588213,-1.440111567931622,21.031344322479427,-23.013927964933398,-19.48077356012335
2642,0.01666666753590107,-0.05073825359046459,-1.435330909526348,-0.20878961156085132,3.54940454570353,-10.459072290480137,-1.543511444390565,19.74573879614295,-24.425936387144716,-14.243632098914986
2659,0.01666666753590107,-1.4068521262779832,-0.244966694226861,-0.6546043106943369,2.228553125055134,-9.258079129138588,-1.965339410997927,19.29413864105275,-28.932934041173304,-18.85061176956151
2676,0.01666666753590107,-1.282145257896185,-0.3564163138896227,-0.7763929535418749,2.389413256835937,-9.358187270575762,-2.064100229479372,26.112055668674284,-25.50983788955426,-20.32114637522338
2692,0.01666666753590107,-0.6539157439082861,-0.5061614696770906,-0.6362795494526624,3.054104077258706,-9.500193356543779,-1.8725643889278172,36.37216434928692,-18.028596795403185,-17.185032574413466
2708,0.01666666753590107,0.5802011038780212,0.010872691670060157,-0.381410469892621,4.327669430597126,-8.981399199786782,-1.5065505178704857,45.7610209295619,-9.86303734076124,-12.085183891937882
2726,0.01666666753590107,0.4027735759168863,0.5545867701500654,-0.041730771270394325,4.162918428857624,-8.443452598792314,-1.0746963203545659,43.77937814566611,-13.894927889897387,-3.2716616796531657
2742,0.01666666753590107,-0.09540069439858198,0.6158154380947352,0.062379007023572915,3.658938979394734,-8.392875088721514,-0.8961787321344018,33.77676418166836,-18.738361025646938,2.669550835682334
2759,0.01666666753590107,-0.7783323971718549,0.770616708227992,0.309008592961356,2.95878521592468,-8.251168862482904,-0.5919653375603259,22.428437319090733,-21.356714043971326,3.0623526669722403
2776,0.01666666753590107,-0.1839043227598071,0.45810558703839777,-0.03498356203250587,3.539527879333496,-8.572139768981932,-0.907401844677329,20.361376189434754,-20.205758866932477,3.946813285947644
2792,0.01666666753590107,0.23322744885534047,0.41047523633539673,-0.4020434350114315,3.9417540505006907,-8.628853005328773,-1.2433378267265855,23.54851833353383,-19.286372715966447,4.58165503675141
2809,0.01666666753590107,0.4066001484677195,0.5243395159244537,-0.70944824603796,4.089895278222858,-8.531439509803056,-1.4818602401848882,35.96443620678301,-15.381080576870135,8.693822506750008
2826,0.01666666753590107,-0.41068128030151124,0.5621989987194538,-0.19608261713571845,3.2472862237125635,-8.510490829798579,-0.8860035212092101,44.030633484474194,-10.81215615895798,9.619654648745238
2842,0.01666666753590107,-0.9013131724134087,0.6825725140720605,0.22537001335322857,2.73567496419698,-8.405594285041094,-0.36451574145406485,44.26823869022601,-0.9806414218768188,6.4115758404059555
2859,0.01666666753590107,-1.2490779778137802,1.2594558717042208,0.755023417776823,2.376545299695432,-7.841012190577388,0.30032343793082983,36.76496511335977,9.127592453011886,1.9822848216777806
2876,0.01666666753590107,-0.4358814802706241,1.3389467570483684,0.7432523159623146,3.1845877754762766,-7.767539542609453,0.3764890513097867,30.504085871045923,6.18032697945048,3.8613437137686892
2892,0.01666666753590107,0.23150164797604084,1.312736795514822,0.5641723446190356,3.8328175827026363,-7.803601620593667,0.2587246042107232,21.089436788917677,-6.7530818838120075,13.334325599616603
2909,0.01666666753590107,0.5183408600315451,0.9599076924622059,0.07896191130029037,4.0520366722106935,-8.18413004695475,-0.18554997107498347,18.693269824293804,-21.74258728867849,27.08585622921051
2925,0.01666666753590107,0.05970540390014648,0.4146136513143778,0.39192777225375175,3.519626078033447,-8.758288948059082,0.15278127208035439,20.531388135612833,-23.382375689520565,32.475479956092116
2943,0.01666666753590107,-0.027338088780641555,0.22150164748728274,0.7128735443115234,3.3515830490112304,-8.98229760993123,0.5045790775901637,20.319199771309925,-18.117618065950545,33.35183079264519
2959,0.01666666753590107,-0.2440317514643073,-0.09311199893951415,1.1979384499460457,3.0321073495060205,-9.334844973433016,1.0314534457544795,14.377976797247259,-6.737831352055839,29.363744807977273
2976,0.01666666753590107,-0.15016396572142837,-0.42918812011182306,0.9269617006719112,3.0609868225097654,-9.694123106494546,0.7858971333377063,10.609268804757336,-3.1544729224120833,23.863530073149406
2992,0.01666666753590107,0.07747136221528053,-0.59409752728343,0.5865116021990776,3.236811299188435,-9.87712989589274,0.46701964632081794,10.208551851436445,-6.017223342731045,19.073521823314046
3009,0.01666666753590107,0.4355480105325579,-1.1224942096441983,0.013894678972894325,3.53399099573344,-10.42629990169108,-0.08230008841282688,11.41140963597822,-14.039126843654696,19.11762606233211
3026,0.01666666753590107,0.32304186755418773,-1.2592401831269264,-0.19827450115680692,3.3716347801759836,-10.57967786102295,-0.27518271306399256,15.735905489157712,-16.767412610444083,21.592097730695595
3042,0.01666666753590107,0.22450229060798882,-1.1449036098510026,-0.019155946802231483,3.2173581184387205,-10.48361051940918,-0.06105102808913215,22.99069678401889,-11.454362988121137,23.722025629019665
3059,0.01666666753590107,0.11222060403525828,-0.6699556090831756,0.7255074004352092,3.0264211205631493,-10.033501191821694,0.7686898318186401,29.775697422482835,7.761926010545455,23.082320356640025
3076,0.01666666753590107,-0.5180582436978817,-0.26489655257761474,1.2104548171699046,2.348562775531411,-9.642349080115556,1.3380596720155327,30.048891328905007,19.731118776224534,14.155532903905577
3093,0.01666666753590107,-0.3357394365638494,0.23706454280018804,0.7368506322264671,2.5038866082340476,-9.146299839130043,0.9805762038184329,28.03968360906633,21.75145628931575,2.2873234178880772
3109,0.01666666753590107,-0.10339870741516351,0.23241993186473844,0.47039632881283755,2.7359742394044995,-9.14854440318644,0.7957742380991578,26.945178237970342,16.039418605305567,-3.382588007198992
3126,0.01666666753590107,0.3706210725918412,0.3569067277550697,0.1220330825952813,3.221698777991533,-9.017614422506094,0.5222374290786683,27.356511012808728,10.948270730058933,-6.6978495590886995
3142,0.01666666753590107,0.8995318419545888,-0.05474982731938362,0.7657985673565417,3.769371530969441,-9.418043481123448,1.278804751829244,35.12627637297407,12.106739968958443,-5.69529689035448
3159,0.01666666753590107,1.0912398242026566,-0.0852542711764574,1.0225766954082995,3.971382588306069,-9.439740933668613,1.6298549721084534,32.56483590590881,13.475202520116348,-4.658069912525044
3176,0.01666666753590107,0.8260308446750044,-0.019041385078430173,1.5197627584040163,3.717896195276081,-9.364473218977452,2.205659594593197,21.74664783614006,18.002698425617787,-8.001926905148656
3192,0.01666666753590107,0.5097928119167685,0.19492402168512343,1.2110744103729725,3.4353806916385885,-9.134778328162431,1.9647426872137932,9.859270491433978,17.286360138297898,-15.372720425326039
3209,0.01666666753590107,0.3778101073130965,0.2802799996703863,0.9185680394012481,3.342755014911294,-9.034372080561518,1.7039241977300494,6.96255439414619,14.208826308678248,-19.603918455764095
3225,0.01666666753590107,0.2722571444734931,0.3317705329328775,0.5012134918808937,3.2855931580141187,-8.965089285498857,1.3127717206977307,6.959436412790079,11.119227803663414,-22.118401372285515
3242,0.01666666753590107,0.5329261424839496,0.049424248382449146,0.819501954362914,3.6127006675720215,-9.222315741840005,1.6681616872143,9.115069301168667,8.165759237675166,-20.088790169848714
3259,0.01666666753590107,0.5599734316244721,0.030024551385641095,1.0589712932825088,3.6851252677917476,-9.224410668292641,1.9303258922185749,4.246181331042949,4.576697173187628,-19.176772085449837
3276,0.01666666753590107,0.3763572781562805,0.3434434350699186,1.29002461296916,3.5473096192508935,-8.895358746668697,2.1618153383001686,-6.141056379930668,1.4509644061424887,-19.31251355746738
3292,0.01666666753590107,0.207261817471683,0.5229857632279395,1.0445158477548508,3.44121538914144,-8.697834187096356,1.8742114985477178,-18.618170186822223,-2.6244148112127745,-20.200668668453524
3309,0.01666666753590107,0.16824936524927614,0.5796352866888046,0.8650374516785144,3.453037928882241,-8.627955764228105,1.6401796014416963,-23.44193152398849,-4.130698200103666,-21.058248437620108
3326,0.01666666753590107,0.3781625740125775,0.5259247392892837,0.5033305571001023,3.7276223472595214,-8.664616392627359,1.200094532001391,-20.785985144472352,-4.284343732369925,-18.237559602870554
3342,0.01666666753590107,0.38548341841995715,0.3523918806791305,-0.06883220175094902,3.774608554840088,-8.826823555102944,0.5840369557138532,-11.803190140543798,-5.741506535184201,-14.3513185689167
3359,0.01666666753590107,0.14746581267863512,0.28158406800627706,-0.11805595912523567,3.5699043128967283,-8.88697787181437,0.5102652517341077,-5.27966024256534,-5.71694987068389,-13.156961808570651
3376,0.01666666753590107,-0.4006269192770123,0.33884558588564395,-0.004084638965129852,3.068020374408364,-8.813805668097734,0.6024412849977612,-4.843423744239442,-6.8784568362167615,-15.032093768775626
3392,0.01666666753590107,-0.42169630305171013,0.3331821532964706,0.14609302648808806,3.0846295639038086,-8.806472840991615,0.7315785370424389,-7.1535892357027455,-8.761056327618675,-15.421636532614377
3408,0.01666666753590107,-0.21184271552115677,0.2784814258158207,0.196564190107584,3.331831469836831,-8.84852100764811,0.753875928242132,-9.140043887868819,-10.03336347564114,-14.602519266211429
3425,0.01666666753590107,0.028018179999291896,0.10090893642604351,0.3720656819095835,3.6073137138366698,-9.01416983501017,0.8958816488839685,-10.995077162667386,-10.750178168655639,-14.630569145585378
3442,0.01666666753590107,0.1769704318434,-0.2545516841739416,0.32507951086163517,3.8042368003845213,-9.353698142462969,0.7929300641817971,-15.361995320781826,-12.738217424709156,-13.96043367290604
3459,0.01666666753590107,0.24502193154543636,-0.3656564359217882,0.21986904131677001,3.905840733337402,-9.453954167938232,0.6341654068429022,-18.35073412987037,-15.006922814136836,-12.974842498315077
3476,0.01666666753590107,0.28515637353509665,-0.433792983558774,-0.026622633987665175,3.9849996102482077,-9.509470887976883,0.3104989776495844,-17.638997682503778,-13.682923086928422,-10.486952923327102
3494,0.01666666753590107,0.04208440701365471,-0.437060460922122,-0.14277528024222702,3.7674268266424535,-9.503935465681552,0.1470948056754656,-12.219105972315262,-10.086747380420315,-10.721679204343761
3509,0.01666666753590107,-0.17290391305685043,-0.38791444495916366,-0.06668112466428429,3.580977495574951,-9.443927863964438,0.19288365669762714,-7.373731355294135,-5.101733387799685,-13.206334684759735
3526,0.01666666753590107,-0.23578122499138116,-0.26442308984696866,0.03722589759919792,3.564069323132932,-9.301775647523998,0.27772932880688456,-2.6545525940386328,-0.005439498621974686,-15.230828367960902
3542,0.01666666753590107,0.14115823696702717,-0.4345324037492275,0.0835726382324472,3.975722371076047,-9.457247948786616,0.32261969661936163,0.17337258601271127,1.3196839014266124,-14.196294619098566
3559,0.01666666753590107,0.2384676875963807,-0.44996202807128427,0.13178394889486952,4.104110558319092,-9.459341706195474,0.3731965856356546,-0.26392048388084965,2.754398220316583,-12.306695464457858
3574,0.01666666753590107,0.2975947070866823,-0.43518356113433837,0.32654435924980785,4.188656973487139,-9.433605791914463,0.5683242584004067,-2.704731645993189,3.9526560858957667,-9.472375279672253
3591,0.01666666753590107,0.16489596316814423,-0.1961363200843334,0.29282212239000943,4.079570868085325,-9.184608819258212,0.523284307783097,-7.381207851114359,2.8364228158329126,-6.540837170448446
3608,0.01666666753590107,0.030453005930781363,-0.021540216156840323,0.2992038958489895,3.959860492816567,-9.003995062476395,0.5129587286017835,-9.149914364993133,2.3511837656369923,-6.366973424465303
3625,0.01666666753590107,-0.19653204140365121,0.29140111314356326,0.14822773696184158,3.7529113945558663,-8.68287276480794,0.33459075971907004,-9.64273641927165,1.0155141266230825,-6.7514285511460415
3642,0.01666666753590107,-0.2939575196281075,0.39591713415086266,-0.05404136852277443,3.671359485028684,-8.571693194258213,0.11522225180296226,-9.432690173047186,-0.6605807850824312,-7.102096012663197
3658,0.01666666753590107,-0.2805591088727116,0.29110651411116123,-0.10836451312899589,3.700837508447468,-8.66970407115519,0.04249824851155281,-8.761098162527341,-0.5170176258873149,-6.53435745536022
3675,0.01666666753590107,-0.1738219046846032,0.16143559358119963,-0.20261399166584013,3.8262341126590966,-8.791360027533768,-0.07062815439016558,-7.598210645008481,-1.8939196761775638,-5.344532952415298
3692,0.01666666753590107,-0.20555530581474302,0.12109539988636969,-0.20308044013381002,3.8048353507995603,-8.827272467914224,-0.08529315101527608,-8.299824752025115,-3.3862901831725507,-4.641362416041547
3708,0.01666666753590107,-0.1939355951696634,0.07936755122542381,-0.16079729567766188,3.8242891160711645,-8.865730501124263,-0.06329484322685748,-7.712452389066114,-4.890615655649175,-3.261234968998318
3725,0.01666666753590107,-0.02983867342472076,0.08107084801197051,-0.1655810228228569,3.99322938619405,-8.862138614112139,-0.09965787235244643,-9.080831270406687,-7.113252272898766,-3.1059109177435276
3742,0.01666666753590107,0.08932809648662805,0.07148936519622802,-0.1032008467555046,4.114136862292885,-8.871116285815834,-0.06958082359458785,-10.819852928378939,-7.4654906779250245,-2.927123672585862
3757,0.01666666753590107,0.1822071634531021,-0.0037304186999797817,-0.11498305448591709,4.211700579944253,-8.944289658576249,-0.11701551430005419,-11.721631705438321,-7.655019889656415,-2.3333430980815075
3774,0.01666666753590107,0.2690940042674541,-0.21463468432724475,-0.28616438153386115,4.300435971234738,-9.15423180117309,-0.33413985131352675,-8.631047945635714,-6.5025193823178515,-2.059447816608942
3792,0.01666666753590107,0.2712719328284263,-0.30261224298775197,-0.3128238404005766,4.301932055011392,-9.242367765265703,-0.3832205697881989,-5.221333842148017,-4.282014637862951,-2.621367906512714
3808,0.01666666753590107,0.2676201323226094,-0.2165928326576948,-0.3151239340364933,4.305373719897866,-9.153034115821123,-0.3986335352363996,-2.910893008683796,-2.3833274896447185,-3.947153514745675
3824,0.01666666753590107,0.2278404951199889,-0.07770224836170674,-0.2685556596070528,4.283526337487995,-9.005940351325274,-0.3601771094615571,-1.954327576744449,1.142046689370448,-4.962081205595489
3841,0.01666666753590107,0.15557780746370553,0.02916822681725025,-0.26420798579156396,4.2281610086187715,-8.891318531367181,-0.3612242073616944,-1.6063362687214695,1.5563170858821735,-4.821736186077359
3858,0.01666666753590107,0.03864040403962135,0.1287023677587509,-0.3269190012484789,4.125059822845459,-8.785373938861488,-0.43095516631696373,-1.6020653727778016,0.4929394481548746,-5.446232761609496
3875,0.01666666753590107,-0.15330810896605251,0.20409400109052656,-0.2029570877487771,3.953874404144287,-8.700228973278403,-0.3232164386698045,-2.3771197014628234,-0.37648837802458024,-6.506174387297455
3892,0.01666666753590107,-0.10661357780843972,0.1627186191290617,-0.11026303109354339,4.017620023345947,-8.73344969035685,-0.24914526768629439,-4.510725229768121,-1.1581045708308537,-6.0173744606664314
3908,0.01666666753590107,-0.02941489505469799,0.1273790102005005,-0.12395018652928992,4.109348166711628,-8.761731197467446,-0.2813175077582709,-6.045963498097989,-2.0447629098934144,-5.033294465429334
3924,0.01666666753590107,0.2695321034237742,-0.013691840744018554,-0.028894652306567875,4.423437497003376,-8.895207940021157,-0.21368140219040213,-5.889594001013363,-0.8563941443762044,-2.4402159217983432
3942,0.01666666753590107,0.40453590941429135,-0.11765607308745384,0.10119829302774741,4.56140336766988,-8.997260785785317,-0.10728937644446268,-7.145064732731747,-0.3811450195737951,-1.1827593125787783
3958,0.01666666753590107,0.3948883756250143,-0.1692062275826931,0.17287180088553578,4.552125251714885,-9.048136402019859,-0.05596314863190054,-8.483442435029861,-0.42568004075724675,-0.9043576003578851
3975,0.01666666753590107,0.24330226814597844,-0.10847381872236728,0.15798453981187194,4.400543820410967,-8.986488047358392,-0.10399716649865731,-11.223073146030641,-1.226134002016121,-0.9814805746493783
3992,0.01666666753590107,-0.008421499125659464,0.06310147607922553,-0.051665305307507514,4.154688652911782,-8.811261828833818,-0.3425199270168319,-11.840108166781363,-0.4463488868767929,-2.475178592942581
4009,0.01666666753590107,-0.0905456555828452,0.14958791939914226,-0.11371288841962814,4.083012240710854,-8.719084480395912,-0.4275136110283434,-9.322674608538497,1.4604365978608271,-3.95925831750223
4025,0.01666666753590107,-0.12224749253094196,0.0761480046570301,-0.1950818425953388,4.072686953790486,-8.782081911578773,-0.5186432770442218,-3.312000776891261,4.792316426887998,-4.497263353800849
4042,0.01666666753590107,-0.156252053463459,-0.13927870683073998,-0.040254816966317594,4.055927542169392,-8.98977832107544,-0.35104927043113854,1.29668057135395,6.41477493025846,-4.7465507443543276
4059,0.01666666753590107,-0.17185557304769752,-0.14343933364152908,0.058981820599641646,4.053532755987346,-8.988131722912192,-0.23747405518284065,1.5379285090892068,5.780121863430514,-4.703678927594627
4075,0.01666666753590107,-0.1224286943167448,-0.14064239639937876,0.16652970184981822,4.115483600726724,-8.979453910937904,-0.12659270039470866,-3.587117595008201,1.2581162560830002,-3.548827767964521
4092,0.01666666753590107,0.04630728540569543,-0.04657704225778579,0.26810093810949476,4.287716190393269,-8.883087294116615,-0.04324420804064721,-7.117360204797706,-2.063264398251098,-1.6195368899529885
4109,0.01666666753590107,-0.007207154899835586,-0.07177694996595382,0.28644381952974945,4.233995998382568,-8.907477054485678,-0.049678953795880075,-8.591262947494036,-3.742860422236478,-0.2600807969893918
4125,0.01666666753590107,-0.23626199424564837,0.07554828519821166,0.2765011387187987,4.00280531605184,-8.75993437717855,-0.09082889297101646,-6.963009882386465,-2.2557681573660298,-2.4990486099878946
4142,0.01666666753590107,-0.24152356803566216,0.10537293009757995,0.179305633325316,3.9989153228759764,-8.729110199847817,-0.19617431400716304,-2.992588687902907,0.12540051225328872,-3.5601447510889974
4159,0.01666666753590107,-0.09479454519897698,0.07045943762660026,0.14241996399853377,4.150647560827434,-8.761730612945556,-0.23044103300720453,0.8610857372840628,1.7299597044909383,-2.366256285587918
4176,0.01666666753590107,0.07101882507503032,0.018161095112562177,0.25035076188538224,4.320187258148193,-8.812757620349526,-0.10998250625226647,0.5994528331666384,-1.9756985983271842,-0.2574507739525402
4192,0.01666666753590107,-0.10171031593680381,-0.09414718720614909,0.5439508463779464,4.144811986541748,-8.926331977081299,0.18345646939445287,-4.639972899432272,-5.281026707286165,0.48104408674591564
4209,0.01666666753590107,-0.20135083986222743,-0.05404664748609066,0.5665232916593551,4.0412630570009345,-8.887128093940019,0.18270861016921697,-11.088141051429748,-10.019522951061756,0.16421032746817552
4226,0.01666666753590107,-0.31050884145647284,0.06372691450119018,0.3679728961706161,3.927987683215737,-8.768914386969804,-0.06793474145457148,-14.168157654812699,-11.362601957942955,-1.354878372115807
4242,0.01666666753590107,-0.21496903084814548,0.1078285065561533,-0.0010257993837818502,4.027496105194092,-8.721179406848549,-0.47060909478068347,-9.856444500664885,-8.277870816485402,-2.59949721390351
4259,0.01666666753590107,-0.11017302385568618,0.15401859532296658,-0.09870938055515288,4.1391263421207665,-8.670752118903398,-0.5858301592735573,-2.9150918674760615,-4.598447056825887,-2.647470968529799
4275,0.01666666753590107,0.028655016598105428,0.04317044868469238,0.055540721968747674,4.282628511865437,-8.779538072314859,-0.42811186918243765,0.13298023464343103,-3.8394640565361997,-1.1639962493202245
4292,0.01666666753590107,0.1743646332591772,0.005908931782841682,0.46364046134445813,4.425232855987549,-8.818293627166748,-0.020050817849300802,-4.566116356389632,-7.363404963042721,0.18817663417253047
4309,0.01666666753590107,0.2168675579458475,-0.02920212908685207,0.6293932970702648,4.462941824395954,-8.85420782111287,0.11896313709802925,-11.86303625805145,-11.757316882530699,1.1640373371769503
4326,0.01666666753590107,0.20936960340589283,-0.002270283019542694,0.4940899601439014,4.445134657287597,-8.828468984222411,-0.07766096650324761,-15.165533467042872,-13.633417875824168,1.8340150751751438
4342,0.01666666753590107,0.11267828467488288,-0.01019289271235466,0.1747575050342828,4.341885002954304,-8.83640036174357,-0.443525053826347,-12.861142046749167,-11.193847620345803,2.1008507158102665
4359,0.01666666753590107,0.016516835036873817,-0.029730536875128746,0.10490122093260287,4.242077013507485,-8.85510506221354,-0.5491691290155053,-10.348234342605082,-8.201437584578375,0.010956103676376469
4375,0.01666666753590107,-0.15392127242833376,0.128314245223999,0.0005693243205547332,4.078522820337117,-8.691551161304115,-0.68264579850398,-7.881831688972322,-4.7609453680301295,-2.900939288628972
4392,0.01666666753590107,-0.18173311620056629,0.1797673690855503,-0.14922076658718286,4.061314203643799,-8.634089736938476,-0.844104407634586,-5.922130460898365,-3.662755109876922,-3.7465201229711353
4409,0.01666666753590107,-0.09429390220046042,0.201788062235713,-0.20221929325982926,4.161421176037192,-8.604610544475912,-0.9139851685903966,-4.448789074374445,-4.121765593329759,-3.2429603709871255
4426,0.01666666753590107,-0.061506023581326,0.12078560328483581,-0.17653605901412664,4.199728987121582,-8.681824717059731,-0.9020145256157964,-4.146285972450104,-4.999315128082166,-2.0715430144119766
4442,0.01666666753590107,0.03817395557165146,-0.0149707746386528,-0.07302716922275722,4.301033937127888,-8.8154510972172,-0.8146262380853295,-5.812223752529574,-5.252540976465805,-0.6983893505938896
4459,0.01666666753590107,0.17315730329602955,-0.03725333359539509,-0.01084105442278087,4.433014011383056,-8.836699052429198,-0.7814069092463701,-7.374844676128847,-6.059390369345764,0.8736829006302406
4476,0.01666666753590107,0.20380174014568328,-0.012452069815993309,0.029773864560201764,4.458003783471882,-8.812457760620116,-0.7652456827141344,-7.144210105311849,-6.827159554229027,1.8456678047860087
4492,0.01666666753590107,0.2227604153767228,0.0823088653743267,0.03119235305599868,4.468778275464475,-8.719086233961582,-0.7917314655143767,-8.079009005026835,-8.137126230900828,3.1099349663817226
4509,0.01666666753590107,0.15003215603530407,0.06259820273220539,-0.022128172112628818,4.382137518365681,-8.741379898834229,-0.887948810058087,-10.046147882220112,-10.995197544751507,4.414602270031239
4526,0.01666666753590107,0.09506371752917767,0.006684007808566093,-0.10731295824944972,4.314501321466267,-8.799589511218667,-1.0108009174186736,-11.025526145987302,-12.90462303100547,4.699264917843506
4541,0.01666666753590107,0.132124451161921,-0.03193418439924717,-0.24116145672500133,4.3414360901430245,-8.839542751422524,-1.1782453229606151,-8.08310541098155,-12.867807457605453,4.932662727066598
4559,0.01666666753590107,0.06067337214946746,-0.0942255131393671,-0.2402121931761503,4.257788961902261,-8.903886921039224,-1.2120638598017395,-6.609098507900377,-11.796850017446733,4.559250308726477
4575,0.01666666753590107,-0.03863455882072449,-0.07585808179974556,-0.2510439683139324,4.14990024959147,-8.88652954352498,-1.2503710863642394,-7.5412647965771455,-11.861998069297607,3.412730272336493
4592,0.01666666753590107,-0.10453940188288688,-0.041863457739353176,-0.19617489852905273,4.079271008355915,-8.851513759723305,-1.2238847190421074,-7.839940431245341,-12.264647112379967,2.809763947172118
4608,0.01666666753590107,-0.11340718347132206,-0.0717477238714695,-0.19586334836184977,4.063260077014565,-8.880992952185869,-1.2556081833001225,-8.238186563633983,-12.966104978819338,1.6210891571635797
4626,0.01666666753590107,-0.12341858213692902,0.03323065395057201,-0.2820832497000694,4.048744937188923,-8.772654742541908,-1.3865412327203899,-7.298945906524373,-12.80518059933196,0.3944250150739891
4642,0.01666666753590107,-0.07382745275497436,0.055717211046814916,-0.32094445688351986,4.093935201263427,-8.7470661277771,-1.465998288860172,-5.9926282584166515,-13.707510060393174,0.2120058968664488
4659,0.01666666753590107,-0.19105448677539824,-0.04197802402973175,-0.249845040852949,3.971681278991699,-8.843433329120279,-1.4230526619073003,-5.314481827614535,-14.163641192224027,0.2930911012480634
4676,0.01666666753590107,-0.2823457000285387,-0.039375732576847074,-0.2569293730907142,3.876511470739543,-8.839242891693115,-1.4555243872493504,-3.545399653331409,-12.5170883427827,-0.7242325986182494
4692,0.01666666753590107,-0.20248510458916424,-0.037653731089830396,-0.39630248020663855,3.9535760057196017,-8.835953202497958,-1.6159357523493467,0.6262853380427393,-8.984610980474132,-0.8301945525762405
4709,0.01666666753590107,0.06430208404064178,-0.11801555404961109,-0.41514615075588224,4.2170872414186595,-8.916756339484452,-1.6427208834223448,2.5814853647319516,-7.362114057289589,0.20775403740704973
4726,0.01666666753590107,0.1074424298480153,-0.12128946115374564,-0.3030259383551776,4.255992726135253,-8.921394520679115,-1.5351308617971837,1.588510969091617,-6.706041090337661,1.1874699019502657
4742,0.01666666753590107,0.07452420284748076,-0.08350947333574295,-0.17458645931631325,4.212298253576457,-8.88667742756307,-1.4209576623894273,-1.7805537971592789,-8.326679348294313,2.402837498122037
4758,0.01666666753590107,-0.022534780152142046,-0.16054244413375854,-0.13937354550734163,4.102316076117754,-8.966736468183994,-1.4070415113702415,-4.2010389032710425,-9.797938807781849,1.759526953077689
4776,0.01666666753590107,-0.06016279227882623,-0.12668167558610438,-0.12217603472992777,4.056525800323486,-8.933215891376138,-1.4137750574089585,-4.910085963651944,-8.719931758626029,1.163340551159903
4792,0.01666666753590107,0.10744330663084983,-0.14170388815104962,-0.2133205329887569,4.2149920227050774,-8.947730738940834,-1.5370761506460606,-5.163313946469697,-6.615398076749244,2.2013806416656876
4809,0.01666666753590107,0.18679478350430725,0.043293198281526564,-0.2458269643180072,4.2880151733398435,-8.762628438568115,-1.5897490255609155,-5.045256687986965,-4.4197193623800475,3.0178938984475696
4826,0.01666666753590107,0.17492840462177991,0.07614566656947136,-0.22813757837042212,4.267065616552531,-8.731653454589843,-1.587354093248397,-4.750355159722025,-3.281108898492351,4.243138908654531
4842,0.01666666753590107,0.08084171543121338,0.11882336330115795,-0.14465104751884936,4.152893001666665,-8.694394860297441,-1.5288465208306907,-7.286008674462722,-7.460558427570629,7.583430115644574
4859,0.01666666753590107,0.20462357792258262,-0.01932137106359005,0.19774375528097152,4.249858168902993,-8.839842611151933,-1.2181985631644725,-9.800702473074764,-14.797763638730828,11.913110936177752
4876,0.01666666753590107,0.4841878305390477,-0.1506143398374319,0.6912725378781557,4.488080941827595,-8.98169905951619,-0.7754208936393261,-18.95487802233634,-20.34679544310407,19.368213750148833
4892,0.01666666753590107,1.269918229007721,-0.725343734306097,1.9513393810875712,5.178658483178913,-9.578153379058838,0.3639198213875294,-44.567247296616245,-14.024394979388624,38.36157647336361
4909,0.01666666753590107,1.9023449024245143,-1.43111241504848,3.7669706073075533,5.698200535693764,-10.307039316016436,2.0407582245975733,-69.70617859348214,3.0324439089269895,57.24054377326443
4925,0.01666666753590107,2.1702336225554344,-1.161199495613575,4.375574214327335,5.822698729760945,-10.062082558661698,2.4771022078134117,-88.2388792081254,21.341236835312078,70.12239666112437
4942,0.01666666753590107,2.4213494870617986,0.10856617318093777,4.867320205160975,5.870283780017495,-8.814853131324051,2.711433672387898,-101.93070373908964,45.003255837378596,73.78311167887357
4959,0.01666666753590107,2.598223765054345,1.588416023391485,5.327205661353468,5.9105357109069825,-7.338378895026445,2.979584258325398,-103.36996120099472,66.91356695886321,71.44315034092973
4976,0.01666666753590107,2.560792736804485,1.8526216710954904,5.795367362982034,5.7619461548954245,-7.0688827396988865,3.2794586007818576,-99.86683230777605,96.0003168601452,68.27243309423724
4992,0.01666666753590107,2.8375200124293563,2.3781682247221467,6.047551733502745,5.927744619861245,-6.526893585315347,3.341857189288735,-102.99322162675516,117.76635389579164,70.28085704986866
5009,0.01666666753590107,3.176070122499764,2.225961062735319,5.314042812919617,6.174496151678264,-6.65887395183146,2.443583238440752,-121.60754300198009,114.12511174736613,82.85859576493378
5026,0.01666666753590107,3.0129461374402045,1.7876292667031286,4.872865272067487,5.885846090808511,-7.0594555706620215,1.7670710473209619,-155.6523067312068,100.98462008620533,97.58731131379766
5042,0.01666666753590107,2.852778371837735,1.3992571411043404,3.3053988054633137,5.502025344903767,-7.334637954932451,-0.28221535164713857,-216.00071635042127,85.5013803699193,119.6043031599287
5059,0.01666666753590107,2.9463059658408164,2.1776877379536628,0.5563192930310964,5.39608235983327,-6.40898032259643,-3.498077970831096,-240.5127899607363,75.40776779560949,125.50139286666933
5075,0.01666666753590107,3.0129908533647654,2.87162394208312,-0.8582277716636657,5.268291407831013,-5.524322224646807,-5.396081629180908,-227.25655391390046,65.07621875137309,119.03777994941116
5092,0.01666666753590107,2.634714005322754,3.6879105145961044,-3.2859424098432064,4.66210932886973,-4.465784646606445,-8.343342703789473,-157.15768042427763,38.84403713067122,102.39471947054362
5109,0.01666666753590107,1.3850563279248773,3.213350636363029,-4.472543473216891,3.2338184009827673,-4.805762451392412,-9.80605144958496,-120.16235693587542,-0.32968173197271755,92.81963436745366
5126,0.01666666753590107,0.5090289879374206,2.3070015156090258,-4.137002774095535,2.142361719159037,-5.582381030383706,-9.728089673504233,-124.81185794919986,-37.486868297305925,88.46413201676324
5143,0.01666666753590107,-0.11983560908362269,1.8872177681803701,-2.7651708155333994,1.1801917808532714,-5.765538041907549,-8.758138725933431,-155.30378949861776,-39.49483463026296,93.16516680737544
5159,0.01666666753590107,-0.4972095900017768,1.6259914285480974,-1.466004864731431,0.579696076965332,-5.793968602100015,-7.786990677532553,-168.3643269653544,1.821246036521805,99.82762019175101
5176,0.01666666753590107,-0.6561961829956621,1.658536438322067,-1.2829577433228492,0.28086978225708004,-5.511152946472167,-7.907748223766684,-153.99920970676698,55.750852194527965,96.45635493064862
5192,0.01666666753590107,-0.780387576135993,2.6015783361792564,-2.4188573779851197,0.12823949948735536,-4.291607060351968,-9.3346929977417,-102.01408668847715,87.73377305862462,75.98708395044245
5209,0.01666666753590107,-1.007725236300379,2.175274247071147,-4.2276726405799385,-0.08065466842651367,-4.57696597072184,-11.278784161266683,-73.9152553487458,63.49900512861209,64.80553152437632
5226,0.01666666753590107,-1.0743090015374124,1.7275410009652374,-4.644819025242328,-0.18046287706904113,-4.912453478351235,-11.805957439312339,-65.34302643092131,14.696246537096929,57.97190676921105
5242,0.01666666753590107,-1.0170127776708453,1.300901396292448,-4.100606349590421,-0.2862567359924316,-5.180753117370605,-11.423483724102377,-76.13204788538681,-41.67388354155047,48.575465263862775
5259,0.01666666753590107,-1.4540999074041843,1.310644207149744,-2.290197095802426,-0.868795854363963,-5.027075882831215,-9.750834589275717,-74.23192340923511,-27.452283925350645,43.65001777788065
5275,0.01666666753590107,-1.303138215433806,1.1770441304773092,-1.4460311672389508,-0.8294412011077628,-5.034857038226724,-9.019556204223631,-62.23976413247186,-14.578046698415273,39.4000725857182
5292,0.01666666753590107,-2.201231256756931,0.5620388397216797,-0.7988467774122953,-1.7841290765624491,-5.513847007861733,-8.48519973667562,-40.6656076011786,32.25234792119156,32.82873733996518
5309,0.01666666753590107,-1.5815822318486867,-0.08664426423013209,-0.7853770549863577,-1.1233294914245604,-6.104615682983398,-8.514827982220053,-22.205281378528078,53.81307971567116,31.33580142137296
5326,0.01666666753590107,-1.4952449877411127,0.07695347582101822,-1.1706319253474473,-0.982221084948629,-5.906196804919839,-8.923638500213622,-17.820178695522124,45.0551857656382,30.653800202558017
5342,0.01666666753590107,-0.8761991163577884,0.09656652330756187,-1.7703402782499789,-0.3489548554351553,-5.847089951434731,-9.552714401897788,-15.386377388571479,11.3924865968827,33.03513199630462
5359,0.01666666753590107,-0.6967989731494337,0.06891746888160705,-1.6696236495256422,-0.22251104372553526,-5.851280388861894,-9.473257418823241,-12.024301293223681,-9.997914793848775,34.365680167379786
5376,0.01666666753590107,-0.6967613445527852,-0.12937515245378017,-1.2803607125669716,-0.30451245058588683,-6.029796881103516,-9.10350231541097,-11.774212209216373,-18.8569006662398,31.276491473715154
5392,0.01666666753590107,-1.0513621334530412,-0.2674035669624805,-0.490041525003314,-0.7565676698104478,-6.1369379899173975,-8.340650395965575,-12.646015847329506,-4.140441038067866,26.259469933983375
5409,0.01666666753590107,-1.2530739155821502,-0.03464753501117229,0.2690039878964424,-0.9801262680938467,-5.883451889148354,-7.5978493309021,-8.115254257631154,18.024186200746648,20.256251040371794
5425,0.01666666753590107,-1.174057954273373,0.07942775698006152,0.2738666254967451,-0.8695441519806161,-5.763891443744302,-7.595903457531333,2.1178529776451325,35.558606856868366,13.590611372748407
5442,0.01666666753590107,-0.6404601230729371,0.11554945619702338,-0.26932898206710815,-0.26007011880185454,-5.7532677583992475,-8.116791956219076,13.81815485607915,32.2718583565557,11.447444006491914
5459,0.01666666753590107,-0.37602819233238693,-0.2485480598449707,-0.6695300771474838,0.036661285986378786,-6.147561675262451,-8.492682201385497,12.7975410327453,18.4257091163896,14.167256923615904
5476,0.01666666753590107,-0.31719752544015645,-0.5508569359719753,-0.6887889043688774,0.0953191535949707,-6.468235644641518,-8.49806857059896,2.8156460207079683,5.146319582041059,16.555755293349144
5492,0.01666666753590107,-0.36930494849197565,-0.16201017859876155,-0.5178478158175945,0.010175393588282167,-6.07124649734497,-8.334964167022704,-8.484412321892004,-1.6460544590753283,14.632054711729856
5509,0.01666666753590107,-0.4519513752575963,0.44096915879845616,-0.25515432624220846,-0.08678977364804595,-5.453991966357827,-8.083722045788168,-5.028281533465368,6.766192431923847,9.022146285057937
5525,0.01666666753590107,-0.3965599986316636,0.5333475827664137,-0.17127835768163202,-0.016609737484715878,-5.361964840045571,-7.998878108978271,5.010835095891039,16.394644791206883,3.5663047279467026
5542,0.01666666753590107,-0.24653204384744165,0.5024088391453028,-0.2631120072484016,0.18031338559575377,-5.420323505511879,-8.067561769104003,13.31277037636969,16.757069996493392,-1.5769649611865337
5559,0.01666666753590107,-0.08588051331602037,0.141451374694705,-0.351339156755805,0.3721487570831552,-5.806388523212075,-8.134898106274008,10.738589898955066,10.112246184139265,-2.1452477991889958
5575,0.01666666753590107,0.010192344723083079,0.10776830080151557,-0.40425826151669025,0.48153384543154387,-5.855768932452798,-8.175001568603514,5.070589859618543,1.1042018918398766,-0.08094251746098483
5592,0.01666666753590107,0.04273899846486747,0.023206688064336775,-0.28759646016359325,0.504428398806788,-5.949142797198891,-8.052148511394858,2.5153138517226337,-3.4157908374148938,3.218328147519121
5609,0.01666666753590107,-0.03755560447759926,0.20552023450136184,-0.04858019877374172,0.4143465613434091,-5.774515129089355,-7.80779030445516,5.3988436284874775,-0.8965037365860168,2.6643882798868623
5626,0.01666666753590107,-0.0903092895437032,0.27614801443219184,0.056627311629056924,0.36047702398989345,-5.718102336993813,-7.691672108459472,9.795319430235148,2.6634104956184927,-0.01334098695504807
5642,0.01666666753590107,-0.10613942095804958,0.057203065690398215,0.10480945099592208,0.3494038413116708,-5.958869241443276,-7.626280475616455,7.676851735564715,0.6773498599901645,1.1006420826218306
5659,0.01666666753590107,-0.06455054237637668,-0.07120528755784035,0.06199322257637977,0.3835212149688974,-6.093243809619546,-7.664886977386474,1.5369427206929034,-5.302879897535622,2.3580528015079096
5675,0.01666666753590107,-0.06823270148783922,-0.02056172651350498,0.10708674827814102,0.3628712256500497,-6.040122460284829,-7.622688588604331,-2.3544750630432922,-6.838079319164585,2.3934024455573106
5692,0.01666666753590107,-0.15846384776141492,0.17578092979788779,0.3576818037807941,0.2584242147583514,-5.838111695209145,-7.377283502960204,0.8328489882032896,-1.5150518576813068,-0.22571277918976856
5709,0.01666666753590107,-0.16924495215788482,0.3076169194072485,0.33766368262469765,0.25184016019292177,-5.711518282428384,-7.39299545135498,5.367852498902191,3.9872522747023504,-2.6606950685365898
5725,0.01666666753590107,-0.15694646546840668,0.27990239852964877,0.27049218062758446,0.27967271795962007,-5.7519204354435205,-7.4494088279724116,6.797859323350142,5.2761990442034366,-4.391194357971959
5742,0.01666666753590107,0.009069185912050306,0.16968144387900827,0.059656304061412806,0.4634276953766122,-5.876119646564126,-7.64827720336914,3.421609304814098,1.1153344598567627,-4.3409621586079234
5759,0.01666666753590107,0.22276753923725334,-0.002970540243387222,0.11055062499642372,0.6817489592621102,-6.053739482226968,-7.593209980663657,1.9360371839208013,-0.7891265460876579,-1.8666885657303691
5776,0.01666666753590107,0.2715760668741539,-0.043536359387636184,0.16913783852159975,0.727238790805079,-6.097881990814209,-7.532008785247802,1.6416122747938813,-2.710887994312898,0.4981591534237924
5792,0.01666666753590107,0.29349256899747994,-0.08966682692170143,0.3692196813613176,0.73935943670962,-6.146814071765542,-7.330297295379638,0.1679459206758568,-1.159667937098846,1.8951367305102955
5809,0.01666666753590107,0.20712452789284289,-0.15134499219954012,0.41039632588028907,0.6471826727936044,-6.206220200458168,-7.29124129627645,-2.322593660988377,-0.25958254002552467,2.732371287130115
5825,0.01666666753590107,0.14791633292511105,-0.14111761269569395,0.32978841920495033,0.5828385031769052,-6.190208976855874,-7.376684952545165,-3.4424021081949094,0.34938680104777786,3.7966007775129613
5842,0.01666666753590107,0.14367350772358475,-0.0033417116433382033,0.11979191607236861,0.5728127471923827,-6.0435641251713035,-7.593958168682455,-3.447461143935773,-0.057187199568959804,3.7900852039315924
5859,0.01666666753590107,0.17787355469558386,0.09220131383538245,-0.03160860570669174,0.6018424788543955,-5.94375525894165,-7.748983310699463,-2.1224274968417487,-1.5434942594891208,3.870005674296735
5876,0.01666666753590107,0.2084261485433206,0.06982932302951812,0.07153671146929264,0.6230910551209002,-5.967099309650063,-7.645583726501465,0.050652709565241004,-0.5276587938099304,4.530029051909869
5892,0.01666666753590107,0.17805420849211512,-0.006131634622812271,0.16287702456116676,0.5874772323608398,-6.045059916687011,-7.5529574652522795,-0.8832542368132499,1.4987072149974663,5.519999231532457
5909,0.01666666753590107,0.17557488583177328,-0.0580447772115469,0.1762111379086971,0.5811924895355478,-6.095488373675942,-7.540987041473389,-3.9360954384794242,1.4760937393160234,6.344324944064363
5925,0.01666666753590107,0.15679364952687172,-0.009915829336643218,0.02528875503540039,0.5545569960663095,-6.0332391305118795,-7.703343257030844,-6.577236529195914,0.9783556563823917,6.241735502730772
5942,0.01666666753590107,0.10854114833753556,0.02408347089886665,0.0007248071432113647,0.5011363715240732,-5.987299801635742,-7.737461215209961,-5.0816325679591605,1.9217168385522232,5.4919741115942475
5959,0.01666666753590107,0.02464512336961925,0.08138648983240127,-0.022833763098716736,0.41748895102236416,-5.923704404559731,-7.765891775402427,0.2352602097106828,3.4073807401124925,4.724350068230848
5975,0.01666666753590107,-0.11533716515321284,-0.046328620454669,-0.017787585625052452,0.2786252182006836,-6.055834408679604,-7.757363016510009,1.0149482881390293,2.349547081557128,5.162506276600342
5992,0.01666666753590107,-0.10950579211860895,-0.021496961537003517,-0.06757189949154853,0.28042090597841884,-6.031593116870522,-7.806893063354492,-2.268851171277778,0.06673204208850883,5.286376879840401
6009,0.01666666753590107,-0.17223982312493025,0.11005319686830044,-0.16602467493712902,0.20560210409853608,-5.888838842883706,-7.914632138061523,-6.288274277301123,-3.612000827928204,3.5397342248582953
6026,0.01666666753590107,-0.19671645805984733,0.1935743606418371,-0.13789046734273433,0.1701379554748535,-5.793219829559326,-7.896375765880942,-5.085347337094001,-4.007081594523367,2.5619663916313478
6042,0.01666666753590107,-0.21240718100350348,0.23110417309105394,-0.08291793718338013,0.14484923697207122,-5.748628408160806,-7.847295216369629,-1.68369104255792,-2.3704722198531085,1.1350914223612594
6059,0.01666666753590107,-0.26780396445691584,0.17020459097027776,0.061140989661216734,0.08678984671328216,-5.8101300478279585,-7.702894928741455,1.098983627313987,1.2173140933635191,-0.18892906221892936
6076,0.01666666753590107,-0.1364180567026138,0.08033668851852417,0.005960954231023788,0.22700031796880066,-5.901558623725175,-7.756464606365561,-0.5354740243243059,4.35394250623871,-1.375559117705548
6092,0.01666666753590107,-0.032730705071799454,0.03778992469012737,-0.11129121423065662,0.3404255850860849,-5.9403135940551755,-7.876175273895263,-2.0886893505496475,4.297239556409733,-0.43283044840545676
6109,0.01666666753590107,0.20518424401264637,-0.10819500178098677,-0.3372381506890058,0.5762544486114755,-6.079028237262368,-8.10781428451538,1.3984931853911582,-9.999970680788948,1.9703373267155473
6125,0.01666666753590107,0.4263544310558587,-0.23330840513706205,0.2971417026221752,0.7570166739532723,-6.206818750873207,-7.473201206970215,-5.041707124052674,-4.5047014298069925,4.793197948177753
6155,0.01666666753590107,0.3653666591949761,-0.31829321172237396,0.06982581589818,0.6712743087326176,-6.279691679382323,-7.710825721740722,-5.9642257705268,-11.177581524837418,7.395335243638884
6199,0.01666666753590107,-0.14766469625160097,0.5298959810078143,-0.03532733396887779,0.10474635916445403,-5.386804682269692,-7.851933982086181,-2.665479829493595,-3.354573986318185,0.0690920858901598
6210,0.01666666753590107,0.0012862586845643817,0.4723264200925827,-0.14196984561085702,0.2501941100189462,-5.443666387176513,-7.959224143981933,-0.12417281243040537,-4.485620869473739,-0.36008151658626913
6226,0.01666666753590107,0.19615233963737264,0.13414777368307113,-0.09886427885591983,0.43559508281098674,-5.784989761352539,-7.914033003124594,0.3321870506963635,-6.541666184658957,1.3451949781417274
6243,0.01666666753590107,0.2200155005827546,0.020536592072248457,-0.1268546940654516,0.43933600463867184,-5.897217964172363,-7.943661248669028,-2.901844075250587,-10.354925366670756,2.547007850462197
6265,0.01666666753590107,0.07848779098251835,-0.027965280768275258,0.1445148539185524,0.24959550480498,-5.927594982257485,-7.68718239582479,-6.43233363906727,-10.021384177610585,3.46070381351937
6278,0.01666666753590107,0.05185191392078995,-0.04449672885239124,0.27130700414180753,0.20814590682983397,-5.934328089904785,-7.568070863232016,-6.337057622787469,-5.935339619866347,3.6823987339298787
6295,0.01666666753590107,0.013792131913872435,-0.07412322083115577,0.339962607216835,0.15981297908173872,-5.951088086047768,-7.509263284954428,-4.822607462083359,1.7736290525579437,3.839106752265243
6311,0.01666666753590107,-0.15522417172044514,-0.03707505441904068,0.11454174045920372,0.008978237959276884,-5.906047167316078,-7.740303160637617,0.15566139856676575,13.24831558871957,1.4626060366959523
6333,0.01666666753590107,-0.22564585288623346,-0.015606149932742118,-0.5717027401238679,-0.031872809600830075,-5.888688620758057,-8.422800855907797,3.774497004698331,13.76951024881032,0.4700981216315884
6347,0.01666666753590107,-0.18788630506806075,0.05396949059665203,-1.0284703565567732,0.03292029109345749,-5.837811835479736,-8.864830921936035,11.733194361929506,2.2919728557221517,0.47377553816940554
6366,0.01666666753590107,-0.14631211259886623,0.11032967572212218,-0.37865503370463843,0.07796120982514694,-5.824345035663247,-8.182482864269614,17.103748200648436,5.053461879614266,-1.4375146964496759
