ts,interval,accx,accy,accz,accGx,accGy,accGz,alpha,beta,gamma
1698744123005.0,16,0.0,0.0,0.0,-0.1,9.200000000000001,2.6,0.9,-0.2,0.0
1698744123021.0,16,0.0,0.0,0.0,-0.1,9.200000000000001,2.5,0.6000000000000001,-0.1,0.0
1698744123037.0,16,0.0,0.0,0.0,-0.1,9.200000000000001,2.5,0.4,-0.30000000000000004,-0.1
1698744123054.0,16,0.0,0.0,0.0,-0.1,9.200000000000001,2.5,0.4,-0.2,-0.1
1698744123072.0,16,0.0,0.0,0.0,-0.1,9.1,2.5,0.4,-0.1,-0.2
1698744123088.0,16,0.0,0.0,0.0,-0.1,9.200000000000001,2.5,0.4,-0.1,-0.2
1698744123105.0,16,0.0,0.0,0.0,-0.1,9.1,2.5,0.5,0.0,-0.1
1698744123121.0,16,0.0,0.0,0.0,-0.1,9.200000000000001,2.5,0.6000000000000001,-0.1,0.0
1698744123138.0,16,0.0,0.0,0.0,-0.1,9.200000000000001,2.5,0.6000000000000001,0.0,0.0
1698744123154.0,16,0.0,0.0,0.0,-0.1,9.200000000000001,2.5,0.6000000000000001,0.0,0.0
1698744123172.0,16,0.0,0.0,0.0,-0.1,9.200000000000001,2.5,0.5,-0.1,-0.1
1698744123187.0,16,0.0,0.0,0.0,-0.1,9.200000000000001,2.5,0.5,-0.1,-0.1
1698744123204.0,16,0.0,0.0,0.0,-0.1,9.200000000000001,2.5,0.4,-0.1,0.0
1698744123221.0,16,0.0,0.0,0.0,-0.1,9.200000000000001,2.5,0.4,0.0,0.0
1698744123237.0,16,0.0,0.0,0.0,-0.1,9.200000000000001,2.5,0.4,-0.1,0.0
1698744123255.0,16,0.0,0.0,0.0,-0.1,9.200000000000001,2.5,0.4,-0.1,0.0
1698744123272.0,16,0.0,0.0,0.0,-0.1,9.200000000000001,2.5,0.30000000000000004,-0.1,0.0
1698744123288.0,16,0.0,0.0,0.0,-0.1,9.200000000000001,2.5,0.4,-0.1,0.1
1698744123305.0,16,0.0,0.0,0.0,-0.1,9.200000000000001,2.5,0.30000000000000004,-0.2,0.0
1698744123321.0,16,0.0,0.0,0.0,-0.1,9.200000000000001,2.5,0.4,-0.2,0.0
1698744123338.0,16,0.0,0.0,0.0,-0.1,9.1,2.5,0.4,-0.1,0.0
1698744123355.0,16,0.0,0.0,0.0,-0.1,9.200000000000001,2.5,0.4,-0.2,0.0
1698744123373.0,16,0.0,0.0,0.0,-0.1,9.1,2.5,0.4,0.0,0.0
1698744123388.0,16,0.0,0.0,0.0,-0.1,9.200000000000001,2.5,0.4,0.0,0.1
1698744123404.0,16,0.0,0.0,0.0,-0.1,9.1,2.5,0.4,-0.2,0.0
1698744123422.0,16,0.0,0.0,0.0,-0.1,9.200000000000001,2.5,0.30000000000000004,-0.2,-0.1
1698744123438.0,16,0.0,0.0,0.0,-0.1,9.200000000000001,2.5,0.1,-0.2,0.0
1698744123456.0,16,0.0,0.0,0.0,-0.1,9.200000000000001,2.5,0.0,-0.2,0.0
1698744123472.0,16,0.0,0.0,0.0,-0.1,9.200000000000001,2.5,0.1,0.1,0.0
1698744123488.0,16,0.0,0.0,0.0,-0.1,9.1,2.5,0.4,-0.2,0.0
1698744123504.0,16,0.0,0.0,0.0,-0.1,9.200000000000001,2.5,0.30000000000000004,-0.2,0.0
1698744123521.0,16,0.0,0.0,0.0,-0.1,9.200000000000001,2.5,0.1,0.4,0.1
1698744123538.0,16,0.0,0.0,0.0,-0.1,9.1,2.5,0.1,0.2,0.30000000000000004
1698744123555.0,16,0.0,0.0,0.0,-0.1,9.200000000000001,2.5,0.2,0.1,0.1
1698744123573.0,16,0.0,0.0,0.0,-0.1,9.200000000000001,2.5,0.2,0.1,0.1
1698744123588.0,16,0.0,0.0,0.0,-0.1,9.200000000000001,2.5,0.2,0.1,0.1
1698744123607.0,16,0.0,0.0,0.0,-0.1,9.200000000000001,2.5,0.30000000000000004,-0.30000000000000004,-0.1
1698744123622.0,16,0.0,0.0,0.0,-0.1,9.200000000000001,2.5,0.2,-0.2,0.0
1698744123637.0,16,0.0,0.0,0.0,-0.1,9.200000000000001,2.5,0.30000000000000004,-0.1,0.0
1698744123655.0,16,0.0,0.0,0.0,-0.1,9.200000000000001,2.5,0.30000000000000004,-0.1,0.0
1698744123671.0,16,0.0,0.0,0.0,-0.1,9.200000000000001,2.5,0.30000000000000004,0.0,0.0
1698744123688.0,16,0.0,0.0,0.0,-0.1,9.200000000000001,2.5,0.30000000000000004,-0.2,0.0
1698744123705.0,16,0.0,0.0,0.0,-0.1,9.1,2.5,0.2,0.0,0.0
1698744123721.0,16,0.0,0.0,0.0,-0.1,9.200000000000001,2.5,0.2,0.1,0.0
1698744123738.0,16,0.0,0.0,0.0,-0.1,9.200000000000001,2.5,0.30000000000000004,0.0,-0.1
1698744123754.0,16,0.0,0.0,0.0,-0.1,9.200000000000001,2.4000000000000004,0.30000000000000004,0.0,0.0
1698744123771.0,16,0.0,0.0,0.0,-0.1,9.200000000000001,2.5,0.1,0.0,0.0
1698744123788.0,16,0.0,0.0,0.0,-0.1,9.200000000000001,2.5,0.30000000000000004,0.0,0.0
1698744123804.0,16,0.0,0.0,0.0,-0.1,9.200000000000001,2.5,0.30000000000000004,0.1,0.0
1698744123821.0,16,0.0,0.0,0.0,-0.1,9.200000000000001,2.5,0.2,0.2,0.0
1698744123838.0,16,0.0,0.0,0.0,-0.1,9.200000000000001,2.5,0.2,0.0,0.0
1698744123854.0,16,0.0,0.0,0.0,-0.1,9.200000000000001,2.5,0.30000000000000004,-0.2,-0.1
1698744123871.0,16,0.0,0.0,0.0,-0.1,9.200000000000001,2.5,0.1,0.0,-0.1
1698744123888.0,16,0.0,0.0,0.0,-0.1,9.200000000000001,2.5,0.0,-0.1,-0.2
1698744123904.0,16,0.0,0.0,0.0,-0.1,9.1,2.5,0.1,-0.1,-0.1
1698744123921.0,16,0.0,0.0,0.0,-0.1,9.200000000000001,2.5,0.1,-0.1,-0.1
1698744123938.0,16,0.0,0.0,0.0,-0.1,9.200000000000001,2.5,0.1,0.0,-0.1
1698744123955.0,16,0.0,0.0,0.0,-0.1,9.200000000000001,2.5,0.1,0.0,0.0
1698744123971.0,16,0.0,0.0,0.0,-0.1,9.200000000000001,2.5,0.1,0.0,0.1
1698744123988.0,16,0.0,0.0,0.0,-0.1,9.200000000000001,2.5,0.1,-0.1,0.0
1698744124005.0,16,0.0,0.0,0.0,-0.1,9.200000000000001,2.5,0.1,-0.2,0.0
1698744124021.0,16,0.0,0.0,0.0,-0.1,9.200000000000001,2.5,0.1,-0.1,0.0
1698744124038.0,16,0.0,0.0,0.0,-0.1,9.200000000000001,2.5,0.1,0.0,0.0
1698744124055.0,16,0.0,0.0,0.0,-0.1,9.200000000000001,2.5,0.1,-0.1,0.0
1698744124071.0,16,0.0,0.0,0.0,-0.1,9.200000000000001,2.5,0.1,0.0,0.0
1698744124088.0,16,0.0,0.0,0.0,-0.1,9.200000000000001,2.5,0.0,0.0,0.0
1698744124105.0,16,0.0,0.0,0.0,-0.1,9.200000000000001,2.5,0.0,0.0,0.0
1698744124122.0,16,0.0,0.0,0.0,-0.1,9.200000000000001,2.5,-0.1,0.0,0.0
1698744124138.0,16,0.0,0.0,0.0,-0.1,9.200000000000001,2.5,0.0,0.0,-0.2
1698744124154.0,16,0.0,0.0,0.0,-0.1,9.200000000000001,2.5,0.1,-0.1,-0.1
1698744124171.0,16,0.0,0.0,0.0,-0.1,9.200000000000001,2.5,0.1,0.0,0.0
1698744124188.0,16,0.0,0.0,0.0,-0.1,9.200000000000001,2.5,0.1,0.1,0.1
1698744124204.0,16,0.0,0.0,0.0,-0.1,9.200000000000001,2.5,0.1,-0.2,0.0
1698744124221.0,16,0.0,0.0,0.0,-0.1,9.200000000000001,2.5,0.1,-0.2,0.0
1698744124247.0,16,0.0,0.0,0.0,-0.1,9.200000000000001,2.5,0.0,-0.30000000000000004,0.0
1698744124254.0,16,0.0,0.0,0.0,-0.1,9.200000000000001,2.5,-0.1,-0.30000000000000004,0.0
1698744124271.0,16,0.0,0.0,0.0,-0.1,9.200000000000001,2.5,0.1,-0.1,0.0
1698744124287.0,16,0.0,0.0,0.0,-0.1,9.200000000000001,2.5,0.2,-0.2,0.0
1698744124304.0,16,0.0,0.0,0.0,-0.1,9.200000000000001,2.5,0.1,-0.2,0.0
1698744124321.0,16,0.0,0.0,0.0,-0.1,9.200000000000001,2.5,-0.2,0.2,0.1
1698744124338.0,16,0.0,0.0,0.0,-0.1,9.200000000000001,2.5,0.0,0.4,0.2
1698744124355.0,16,0.0,0.0,0.0,-0.1,9.200000000000001,2.5,0.1,0.2,0.1
1698744124372.0,16,0.0,0.0,0.0,-0.1,9.200000000000001,2.4000000000000004,0.1,0.2,0.0
1698744124388.0,16,0.0,0.0,0.0,-0.1,9.200000000000001,2.5,0.1,-0.2,0.0
1698744124404.0,16,0.0,0.0,0.0,-0.1,9.1,2.4000000000000004,0.1,0.0,-0.1
1698744124422.0,16,0.0,0.0,0.0,-0.1,9.200000000000001,2.5,0.2,-0.1,0.0
1698744124438.0,16,0.0,0.0,0.0,-0.1,9.200000000000001,2.5,0.30000000000000004,0.0,0.0
1698744124455.0,16,0.0,0.0,0.0,-0.1,9.1,2.5,0.2,0.1,0.0
1698744124471.0,16,0.0,0.0,0.0,-0.1,9.1,2.5,0.2,0.0,0.0
1698744124487.0,16,0.0,0.0,0.0,-0.1,9.200000000000001,2.5,0.2,0.0,0.0
1698744124504.0,16,0.0,0.0,0.0,-0.1,9.1,2.5,0.1,0.0,0.0
1698744124521.0,16,0.0,0.0,0.0,-0.1,9.200000000000001,2.5,0.1,0.0,-0.2
1698744124538.0,16,0.0,0.0,0.0,-0.1,9.200000000000001,2.5,0.1,0.1,-0.1
1698744124555.0,16,0.0,0.0,0.0,-0.1,9.200000000000001,2.5,0.30000000000000004,0.2,-0.2
1698744124571.0,16,0.0,0.0,0.0,-0.1,9.200000000000001,2.5,0.1,0.0,-0.1
1698744124587.0,16,0.0,0.0,0.0,-0.1,9.200000000000001,2.5,0.1,0.0,-0.1
1698744124605.0,16,0.0,0.0,0.0,-0.1,9.200000000000001,2.5,0.30000000000000004,0.0,0.0
1698744124621.0,16,0.0,0.0,0.0,-0.1,9.200000000000001,2.5,0.30000000000000004,0.2,0.0
1698744124638.0,16,0.0,0.0,0.0,-0.1,9.1,2.5,0.2,0.1,0.0
1698744124655.0,16,0.0,-0.1,0.1,-0.1,9.1,2.5,0.6000000000000001,0.0,-0.2
1698744124671.0,16,0.0,0.2,-0.1,-0.1,9.3,2.4000000000000004,1.0999999999999999,-0.30000000000000004,-0.1
1698744124687.0,16,0.0,0.1,-0.1,-0.1,9.3,2.4000000000000004,-0.6000000000000001,-0.5,-0.30000000000000004
1698744124704.0,16,0.0,0.0,-0.1,-0.1,9.200000000000001,2.4000000000000004,-1.5000000000000002,-0.4,-0.4
1698744124721.0,16,0.0,0.0,0.0,0.0,9.200000000000001,2.4000000000000004,-1.7,0.0,-0.30000000000000004
1698744124737.0,16,0.0,-0.1,0.0,-0.1,9.1,2.5,-1.7,0.2,-0.30000000000000004
1698744124754.0,16,0.0,-0.1,0.0,-0.1,9.1,2.4000000000000004,-1.3,0.4,-0.2
1698744124771.0,16,0.0,0.0,0.0,-0.1,9.1,2.5,-0.6000000000000001,0.30000000000000004,0.1
1698744124788.0,16,0.0,0.0,0.0,-0.1,9.200000000000001,2.5,-0.2,0.5,0.1
1698744124804.0,16,0.0,0.0,0.0,-0.1,9.200000000000001,2.5,0.0,0.4,0.0
1698744124821.0,16,0.0,0.0,0.1,-0.1,9.1,2.5,0.1,0.30000000000000004,0.1
1698744124838.0,16,0.0,-0.1,0.1,-0.1,9.1,2.6,0.30000000000000004,0.0,-0.2
1698744124855.0,16,0.0,-0.1,0.1,-0.1,9.0,2.6,0.4,-0.2,-0.1
1698744124871.0,16,0.0,-0.1,0.1,-0.1,9.0,2.6,0.7,-0.30000000000000004,-0.1
1698744124889.0,16,0.0,-0.1,0.1,-0.1,9.1,2.6,0.9,-0.30000000000000004,-0.1
1698744124905.0,16,0.0,0.0,0.1,-0.1,9.1,2.6,1.2000000000000002,-0.30000000000000004,0.1
1698744124922.0,16,0.0,0.0,0.0,-0.1,9.1,2.5,1.4,-0.2,0.0
1698744124937.0,16,0.0,0.0,0.0,-0.1,9.1,2.5,1.5000000000000002,-0.30000000000000004,0.1
1698744124955.0,16,0.0,0.0,0.0,-0.1,9.1,2.5,1.6,-0.2,0.1
1698744124975.0,16,0.0,0.0,0.0,-0.1,9.200000000000001,2.4000000000000004,2.0,-0.2,0.0
1698744124988.0,16,0.0,0.0,-0.1,-0.1,9.1,2.4000000000000004,2.1999999999999997,-0.2,0.0
1698744125004.0,16,0.0,0.1,0.0,-0.1,9.200000000000001,2.4000000000000004,2.1999999999999997,-0.2,0.0
1698744125021.0,16,0.0,0.1,-0.1,-0.1,9.3,2.4000000000000004,1.9,-0.2,0.0
1698744125038.0,16,0.0,0.1,-0.1,-0.1,9.3,2.4000000000000004,1.7,-0.2,-0.1
1698744125055.0,16,0.0,0.1,-0.1,-0.1,9.3,2.4000000000000004,1.0,-0.2,-0.30000000000000004
1698744125071.0,16,0.0,0.1,-0.1,-0.1,9.200000000000001,2.4000000000000004,0.6000000000000001,0.0,-0.30000000000000004
1698744125088.0,16,0.0,0.0,0.0,-0.1,9.200000000000001,2.4000000000000004,0.6000000000000001,0.2,-0.4
1698744125105.0,16,0.0,0.0,-0.1,-0.1,9.200000000000001,2.3000000000000003,0.6000000000000001,0.30000000000000004,-0.2
1698744125121.0,16,0.0,0.0,0.0,-0.1,9.200000000000001,2.4000000000000004,0.1,0.2,-0.2
1698744125138.0,16,0.0,0.0,0.0,-0.1,9.200000000000001,2.4000000000000004,0.0,0.5,-0.1
1698744125154.0,16,0.0,0.0,0.0,-0.1,9.1,2.4000000000000004,0.4,0.6000000000000001,0.1
1698744125171.0,16,0.0,0.0,0.0,-0.1,9.200000000000001,2.4000000000000004,0.5,0.2,0.1
1698744125187.0,16,0.0,0.0,0.0,-0.1,9.200000000000001,2.4000000000000004,0.4,0.0,0.0
1698744125205.0,16,0.0,0.0,0.0,-0.1,9.200000000000001,2.4000000000000004,0.4,-0.2,-0.1
1698744125221.0,16,0.0,0.0,0.0,-0.1,9.1,2.4000000000000004,0.5,-0.30000000000000004,-0.1
1698744125238.0,16,0.0,0.0,0.0,-0.1,9.200000000000001,2.5,0.4,-0.30000000000000004,0.0
1698744125254.0,16,0.0,0.0,0.0,-0.1,9.200000000000001,2.4000000000000004,0.6000000000000001,-0.4,0.1
1698744125272.0,16,0.0,0.0,0.0,-0.1,9.200000000000001,2.4000000000000004,0.5,-0.4,0.0
1698744125288.0,16,0.0,0.0,0.0,-0.1,9.200000000000001,2.4000000000000004,0.5,-0.30000000000000004,0.0
1698744125304.0,16,0.1,0.0,0.0,0.0,9.200000000000001,2.4000000000000004,0.4,-0.30000000000000004,-0.1
1698744125321.0,16,0.0,0.0,0.0,-0.1,9.200000000000001,2.4000000000000004,0.5,0.0,-0.2
1698744125337.0,16,0.0,0.0,0.0,-0.1,9.200000000000001,2.4000000000000004,0.5,0.0,-0.2
1698744125355.0,16,0.0,0.0,-0.1,-0.1,9.200000000000001,2.4000000000000004,0.4,0.1,-0.1
1698744125371.0,16,0.0,0.1,0.0,-0.1,9.3,2.4000000000000004,0.2,0.0,0.0
1698744125388.0,16,0.0,0.1,-0.1,-0.1,9.3,2.3000000000000003,-0.2,0.0,-0.2
1698744125405.0,16,0.0,0.1,-0.2,-0.1,9.3,2.2,-0.30000000000000004,0.2,-0.30000000000000004
1698744125421.0,16,0.0,0.2,-0.2,-0.1,9.4,2.2,2.1,1.0,0.0
1698744125438.0,16,0.0,0.2,-0.1,-0.1,9.4,2.1,2.6,1.0999999999999999,-0.2
1698744125454.0,16,-0.1,0.2,0.0,-0.2,9.5,2.4000000000000004,0.9,1.3,-0.7
1698744125471.0,16,-0.1,0.1,0.1,-0.2,9.3,2.4000000000000004,1.2000000000000002,0.2,-0.4
1698744125488.0,16,0.0,0.0,0.1,-0.1,9.200000000000001,2.4000000000000004,0.7,0.2,0.0
1698744125505.0,16,0.0,-0.2,0.1,-0.1,9.1,2.4000000000000004,1.2000000000000002,-0.30000000000000004,0.5
1698744125522.0,16,0.0,-0.30000000000000004,0.1,-0.1,9.0,2.5,2.1999999999999997,-0.6000000000000001,0.0
1698744125537.0,16,0.1,-0.30000000000000004,0.1,-0.1,9.0,2.5,2.8,-0.5,-0.5
1698744125555.0,16,0.1,-0.2,0.2,-0.1,9.0,2.5,2.8,-0.2,-0.8
1698744125571.0,16,0.0,-0.1,0.2,-0.1,9.1,2.5,2.9,-0.2,-1.0
1698744125588.0,16,0.0,-0.1,0.1,-0.1,9.200000000000001,2.5,2.5,-0.5,-0.8
1698744125604.0,16,0.0,-0.1,0.1,-0.2,9.200000000000001,2.4000000000000004,2.3000000000000003,-0.9,-1.0
1698744125621.0,16,0.0,0.0,0.0,-0.2,9.200000000000001,2.4000000000000004,1.8,-1.0999999999999999,-0.9
1698744125637.0,16,-0.1,-0.1,0.0,-0.2,9.200000000000001,2.3000000000000003,1.4,-1.7,-1.0
1698744125656.0,16,-0.1,0.0,0.0,-0.2,9.200000000000001,2.3000000000000003,1.5000000000000002,-1.8,-1.0
1698744125672.0,16,0.0,0.0,0.0,-0.2,9.3,2.3000000000000003,1.6,-2.0,-0.7
1698744125687.0,16,0.0,0.0,-0.1,-0.1,9.200000000000001,2.2,2.1999999999999997,-1.9,-0.6000000000000001
1698744125705.0,16,0.0,-0.1,-0.1,-0.1,9.200000000000001,2.2,2.6,-1.8,-0.5
1698744125721.0,16,0.1,-0.1,0.0,-0.1,9.1,2.3000000000000003,2.9,-1.0999999999999999,-0.5
1698744125738.0,16,0.0,-0.1,0.0,-0.1,9.1,2.3000000000000003,3.3000000000000003,0.0,-0.5
1698744125754.0,16,0.1,0.0,0.0,0.0,9.200000000000001,2.3000000000000003,3.2,0.9,-0.4
1698744125771.0,16,0.1,0.0,0.0,0.0,9.200000000000001,2.3000000000000003,2.9,1.2000000000000002,-0.30000000000000004
1698744125787.0,16,0.1,0.1,0.0,0.0,9.4,2.2,2.5,1.9,-0.2
1698744125804.0,16,0.1,0.1,0.0,0.0,9.4,2.2,2.1999999999999997,2.1999999999999997,-0.2
1698744125821.0,16,0.0,0.1,0.0,-0.1,9.4,2.2,1.4,2.5,0.1
1698744125837.0,16,-0.1,0.1,0.0,-0.2,9.3,2.2,0.9,2.5,0.1
1698744125855.0,16,-0.1,0.0,0.0,-0.2,9.3,2.2,0.9,2.3000000000000003,0.1
1698744125872.0,16,-0.1,0.0,0.0,-0.2,9.200000000000001,2.2,0.5,1.3,0.0
1698744125888.0,16,-0.1,-0.1,0.0,-0.2,9.200000000000001,2.2,0.7,0.5,-0.30000000000000004
1698744125905.0,16,-0.1,0.0,0.0,-0.2,9.200000000000001,2.2,0.9,0.30000000000000004,-0.30000000000000004
1698744125921.0,16,-0.1,0.1,0.0,-0.2,9.3,2.2,1.0999999999999999,-0.5,-0.30000000000000004
1698744125937.0,16,-0.1,0.0,0.0,-0.2,9.200000000000001,2.2,1.5000000000000002,-1.0999999999999999,-0.2
1698744125955.0,16,-0.1,-0.1,0.1,-0.2,9.200000000000001,2.3000000000000003,1.2000000000000002,-1.0999999999999999,-0.2
1698744125972.0,16,0.0,-0.1,0.0,-0.2,9.200000000000001,2.3000000000000003,0.9,-1.4,-0.1
1698744125988.0,16,0.0,0.0,0.0,-0.1,9.200000000000001,2.3000000000000003,0.9,-1.6,-0.2
1698744126005.0,16,0.0,-0.1,0.0,-0.1,9.200000000000001,2.3000000000000003,1.6,-1.9,-0.30000000000000004
1698744126021.0,16,0.0,0.0,0.0,-0.1,9.3,2.2,1.8,-2.0,-0.30000000000000004
1698744126037.0,16,0.0,0.0,0.0,-0.1,9.3,2.2,1.9,-2.1,-0.2
1698744126055.0,16,0.0,0.0,0.0,-0.1,9.200000000000001,2.2,1.8,-1.8,-0.1
1698744126071.0,16,0.0,0.0,0.0,-0.1,9.200000000000001,2.2,1.5000000000000002,-1.4,-0.2
1698744126090.0,16,0.0,-0.1,0.0,-0.1,9.200000000000001,2.2,1.4,-1.0999999999999999,0.1
1698744126104.0,16,0.1,0.1,0.0,0.0,9.3,2.2,1.7,-1.0999999999999999,0.0
1698744126122.0,16,0.1,0.0,0.0,-0.1,9.200000000000001,2.2,2.1999999999999997,-1.2000000000000002,-0.1
1698744126138.0,16,0.1,-0.1,0.0,-0.1,9.1,2.2,2.5,-0.7,-0.30000000000000004
1698744126154.0,16,0.0,-0.1,0.0,-0.1,9.1,2.2,2.1999999999999997,0.0,-0.8
1698744126171.0,16,0.1,0.0,0.0,-0.1,9.200000000000001,2.1,2.1,0.4,-1.2000000000000002
1698744126188.0,16,0.1,0.2,0.0,0.0,9.4,2.1,2.1999999999999997,0.30000000000000004,-1.0999999999999999
1698744126204.0,16,0.0,0.0,0.0,-0.1,9.200000000000001,2.1,4.0,0.2,-0.6000000000000001
1698744126221.0,16,0.0,0.0,0.0,-0.1,9.200000000000001,2.1,4.300000000000001,0.1,-0.7
1698744126238.0,16,-0.1,-0.2,0.0,-0.2,9.1,2.1,5.1,-0.6000000000000001,-0.30000000000000004
1698744126254.0,16,-0.1,-0.1,0.0,-0.2,9.1,2.2,4.300000000000001,-0.6000000000000001,-0.30000000000000004
1698744126271.0,16,-0.1,-0.2,0.0,-0.2,9.1,2.1,4.300000000000001,-0.4,-0.30000000000000004
1698744126287.0,16,0.0,0.1,0.0,-0.2,9.3,2.1,4.5,-1.2000000000000002,0.0
1698744126304.0,16,0.0,0.0,0.0,-0.1,9.200000000000001,2.1,6.2,-2.7,0.5
1698744126321.0,16,0.1,0.0,0.0,0.0,9.3,2.0,7.699999999999999,-5.300000000000001,0.5
1698744126338.0,16,0.1,0.0,0.0,-0.1,9.200000000000001,2.0,8.3,-7.699999999999999,0.5
1698744126354.0,16,-0.1,0.1,-0.1,-0.30000000000000004,9.4,2.0,7.8,-10.2,0.6000000000000001
1698744126371.0,16,-0.30000000000000004,0.1,-0.1,-0.4,9.4,1.9000000000000001,8.1,-10.8,0.8
1698744126387.0,16,-0.2,0.0,-0.1,-0.30000000000000004,9.3,1.9000000000000001,9.3,-11.8,0.1
1698744126404.0,16,-0.1,-0.1,0.0,-0.30000000000000004,9.200000000000001,2.0,9.700000000000001,-11.8,-1.0999999999999999
1698744126421.0,16,-0.1,0.1,0.0,-0.2,9.4,1.9000000000000001,8.5,-10.8,-1.0999999999999999
1698744126438.0,16,0.0,0.1,-0.1,-0.2,9.4,1.8,7.8,-10.600000000000001,-2.3000000000000003
1698744126455.0,16,0.0,0.2,0.0,-0.1,9.5,1.8,8.0,-10.0,-2.1
1698744126472.0,16,0.0,0.2,0.0,0.0,9.700000000000001,1.9000000000000001,6.2,-10.2,-1.5000000000000002
1698744126488.0,16,0.1,0.5,0.0,0.0,9.8,1.9000000000000001,5.0,-11.8,-2.8
1698744126504.0,16,-0.1,0.1,0.1,-0.30000000000000004,9.4,1.9000000000000001,2.0,-9.8,-0.8
1698744126521.0,16,-0.2,0.1,0.1,-0.30000000000000004,9.5,1.9000000000000001,0.7,-10.5,-0.8
1698744126538.0,16,-0.2,0.0,0.1,-0.30000000000000004,9.3,1.9000000000000001,-0.1,-12.5,-2.7
1698744126555.0,16,0.0,-0.1,-0.1,-0.2,9.200000000000001,1.8,-0.7,-12.4,-4.1000000000000005
1698744126571.0,16,0.1,-0.1,-0.1,0.1,9.200000000000001,1.7000000000000002,-0.7,-10.700000000000001,-4.3999999999999995
1698744126588.0,16,0.30000000000000004,-0.1,-0.1,0.1,9.200000000000001,1.7000000000000002,-0.4,-10.0,-4.1000000000000005
1698744126605.0,16,0.30000000000000004,0.0,-0.1,0.1,9.3,1.7000000000000002,-0.30000000000000004,-8.0,-2.8
1698744126622.0,16,0.30000000000000004,0.0,-0.1,0.1,9.4,1.7000000000000002,-0.2,-7.0,-2.1
1698744126638.0,16,0.1,0.1,-0.1,0.0,9.4,1.8,-0.6000000000000001,-5.9,-0.9
1698744126654.0,16,0.1,0.1,-0.1,0.0,9.4,1.7000000000000002,-0.7,-5.300000000000001,-0.8
1698744126672.0,16,0.1,0.1,0.0,-0.1,9.4,1.8,-1.0,-5.300000000000001,-1.0
1698744126688.0,16,0.0,0.1,0.0,-0.2,9.5,1.9000000000000001,-1.9,-4.5,-1.4
1698744126704.0,16,0.0,0.0,0.0,-0.2,9.4,1.8,-2.7,-3.9,-1.6
1698744126721.0,16,0.0,0.0,0.0,-0.1,9.3,1.8,-2.9,-3.7000000000000006,-1.6
1698744126738.0,16,0.0,0.0,0.0,-0.1,9.4,1.8,-3.5,-3.3000000000000003,-1.4
1698744126755.0,16,0.0,0.1,0.0,-0.1,9.4,1.9000000000000001,-5.1,-2.3000000000000003,-1.0
1698744126776.0,16,0.0,0.1,-0.1,-0.2,9.4,1.8,-5.9,-1.8,-0.8
1698744126788.0,16,0.0,0.0,-0.1,-0.2,9.4,1.8,-6.3,-1.4,-0.5
1698744126804.0,16,0.0,0.0,-0.1,-0.1,9.4,1.8,-6.8,-2.0,-0.2
1698744126821.0,16,0.1,0.0,-0.1,-0.1,9.4,1.9000000000000001,-7.1000000000000005,-1.8,-0.30000000000000004
1698744126837.0,16,0.1,0.0,0.0,0.0,9.3,1.9000000000000001,-7.699999999999999,-0.6000000000000001,-0.5
1698744126855.0,16,0.1,0.0,-0.1,-0.1,9.3,1.9000000000000001,-7.699999999999999,-0.30000000000000004,-0.2
1698744126871.0,16,0.0,0.0,-0.1,-0.1,9.3,1.9000000000000001,-6.9,0.8,0.1
1698744126888.0,16,0.0,0.0,-0.1,-0.1,9.3,1.9000000000000001,-6.2,0.6000000000000001,0.30000000000000004
1698744126905.0,16,0.0,-0.2,-0.1,-0.1,9.1,1.9000000000000001,-4.9,-0.30000000000000004,0.6000000000000001
1698744126921.0,16,0.0,-0.30000000000000004,-0.1,-0.1,9.0,1.9000000000000001,-3.5,-0.9,1.0
1698744126938.0,16,0.0,-0.30000000000000004,-0.1,-0.1,9.0,1.9000000000000001,-3.1,-0.6000000000000001,1.4
1698744126955.0,16,0.0,-0.30000000000000004,-0.1,-0.1,9.0,1.9000000000000001,-3.1,1.3,2.1999999999999997
1698744126971.0,16,0.1,-0.1,-0.1,-0.1,9.0,2.0,-2.4000000000000004,2.5,2.6
1698744126987.0,16,0.2,-0.1,-0.2,0.1,9.1,1.8,-1.6,3.0000000000000004,3.3000000000000003
1698744127004.0,16,0.30000000000000004,-0.1,-0.2,0.2,9.1,1.8,2.1999999999999997,4.3999999999999995,4.1000000000000005
1698744127021.0,16,0.1,0.1,0.1,0.2,9.200000000000001,1.9000000000000001,4.3999999999999995,5.500000000000001,5.2
1698744127038.0,16,-0.1,0.2,0.2,-0.2,9.5,2.2,1.5000000000000002,5.0,5.4
1698744127054.0,16,-0.2,0.30000000000000004,0.1,-0.2,9.600000000000001,2.1,1.4,4.7,5.0
1698744127072.0,16,-0.30000000000000004,0.4,0.1,-0.30000000000000004,9.600000000000001,2.0,1.7,1.7,0.9
1698744127087.0,16,0.0,0.2,0.1,-0.1,9.5,2.1,0.30000000000000004,2.7,1.2000000000000002
1698744127104.0,16,-0.1,0.2,0.2,-0.1,9.4,2.2,-1.0999999999999999,2.1999999999999997,0.1
1698744127121.0,16,-0.1,0.1,0.2,-0.1,9.3,2.2,-2.1,2.1999999999999997,-0.5
1698744127138.0,16,-0.1,0.0,0.2,-0.1,9.3,2.2,-3.2,3.0000000000000004,-0.6000000000000001
1698744127155.0,16,0.0,-0.1,0.2,0.0,9.200000000000001,2.2,-4.0,4.2,-0.5
1698744127171.0,16,0.0,-0.1,0.2,0.0,9.1,2.2,-3.5,4.1000000000000005,-0.2
1698744127188.0,16,0.0,-0.2,0.2,0.0,9.1,2.2,-3.2,3.8,0.1
1698744127205.0,16,0.0,-0.1,0.1,-0.1,9.1,2.2,-2.9,3.3000000000000003,0.6000000000000001
1698744127221.0,16,0.1,-0.1,0.1,0.1,9.1,2.1,-2.1999999999999997,3.7000000000000006,1.0999999999999999
1698744127238.0,16,0.0,0.0,0.1,0.0,9.1,2.1,-1.4,3.4,1.0999999999999999
1698744127256.0,16,0.0,0.0,0.0,-0.1,9.200000000000001,2.1,0.30000000000000004,2.6,1.0999999999999999
1698744127271.0,16,-0.2,0.0,0.0,-0.2,9.200000000000001,2.1,1.5000000000000002,1.7,1.3
1698744127288.0,16,-0.30000000000000004,0.0,0.0,-0.30000000000000004,9.200000000000001,2.1,1.9,0.9,1.0999999999999999
1698744127304.0,16,-0.2,0.0,0.0,-0.30000000000000004,9.200000000000001,2.1,2.1,0.7,1.0
1698744127321.0,16,-0.2,0.0,0.1,-0.2,9.200000000000001,2.1,2.4000000000000004,0.2,0.8
1698744127338.0,16,-0.1,0.0,0.1,-0.2,9.200000000000001,2.1,2.6,0.5,0.5
1698744127354.0,16,0.0,0.0,0.2,-0.1,9.200000000000001,2.2,2.8,0.6000000000000001,0.2
1698744127371.0,16,0.1,0.1,0.0,0.0,9.3,2.1,2.6,0.1,-0.2
1698744127387.0,16,0.2,0.0,0.0,0.1,9.200000000000001,2.1,1.8,0.0,-0.5
1698744127405.0,16,0.2,0.0,0.0,0.2,9.200000000000001,2.0,0.7,0.6000000000000001,-0.9
1698744127421.0,16,0.30000000000000004,0.1,0.0,0.2,9.3,2.0,0.0,1.8,-0.8
1698744127437.0,16,0.2,0.2,0.0,0.2,9.4,2.0,0.5,3.0000000000000004,-0.5
1698744127454.0,16,0.2,0.2,-0.1,0.1,9.5,2.0,1.2000000000000002,3.3000000000000003,-0.30000000000000004
1698744127472.0,16,0.1,0.0,0.0,0.1,9.3,2.0,1.7,4.3999999999999995,0.30000000000000004
1698744127488.0,16,0.0,-0.1,0.0,0.0,9.200000000000001,2.0,2.0,4.9,0.30000000000000004
1698744127504.0,16,-0.1,0.0,-0.1,-0.1,9.200000000000001,1.9000000000000001,2.1999999999999997,5.6,0.5
1698744127521.0,16,-0.2,0.1,-0.1,-0.2,9.3,1.9000000000000001,1.5000000000000002,5.8,0.1
1698744127538.0,16,-0.30000000000000004,0.1,-0.1,-0.4,9.3,1.9000000000000001,1.3,5.0,-0.2
1698744127555.0,16,-0.30000000000000004,0.1,0.0,-0.4,9.3,1.9000000000000001,1.0999999999999999,4.3999999999999995,-0.2
1698744127573.0,16,-0.30000000000000004,0.2,-0.1,-0.4,9.4,1.9000000000000001,0.7,3.4,0.4
1698744127588.0,16,-0.2,0.2,-0.1,-0.30000000000000004,9.5,1.9000000000000001,0.4,0.9,0.5
1698744127605.0,16,-0.2,0.2,0.0,-0.30000000000000004,9.5,1.9000000000000001,0.2,0.2,0.5
1698744127621.0,16,-0.2,0.2,-0.1,-0.30000000000000004,9.4,1.9000000000000001,-0.6000000000000001,-0.9,0.6000000000000001
1698744127637.0,16,-0.1,0.2,0.0,-0.2,9.4,2.0,-0.7,-1.0999999999999999,1.2000000000000002
1698744127654.0,16,0.0,0.1,0.1,-0.1,9.4,2.0,-0.5,-1.5000000000000002,1.5000000000000002
1698744127671.0,16,0.0,-0.1,0.1,0.0,9.200000000000001,2.1,-0.2,-1.6,1.9
1698744127687.0,16,0.1,-0.2,0.1,0.0,9.1,2.1,-0.4,-0.6000000000000001,2.0
1698744127704.0,16,0.1,-0.2,0.1,0.0,9.1,2.1,0.0,-0.5,1.9
1698744127724.0,16,0.2,-0.1,0.1,0.1,9.1,2.1,0.2,0.4,1.4
1698744127738.0,16,0.30000000000000004,0.0,0.0,0.2,9.200000000000001,2.0,0.1,1.4,0.8
1698744127754.0,16,0.30000000000000004,0.0,0.1,0.2,9.200000000000001,2.1,0.9,2.3000000000000003,0.2
1698744127771.0,16,0.2,0.0,0.1,0.2,9.200000000000001,2.1,1.6,2.9,0.0
1698744127787.0,16,0.2,0.0,0.0,0.2,9.3,2.0,1.9,3.6,-0.1
1698744127804.0,16,0.2,0.1,0.0,0.1,9.3,2.0,1.8,3.9,-0.2
1698744127821.0,16,0.1,0.1,0.0,0.0,9.4,2.0,1.5000000000000002,4.5,0.0
1698744127838.0,16,0.0,0.2,-0.1,0.0,9.5,1.9000000000000001,0.4,3.9,-0.30000000000000004
1698744127855.0,16,-0.1,0.1,-0.1,-0.1,9.5,1.9000000000000001,-0.30000000000000004,3.5,-0.30000000000000004
1698744127871.0,16,-0.1,0.1,-0.1,-0.2,9.4,1.9000000000000001,-0.8,2.7,-0.5
1698744127888.0,16,-0.2,0.0,-0.1,-0.2,9.3,1.9000000000000001,-0.9,1.9,-0.7
1698744127904.0,16,-0.2,0.0,-0.1,-0.2,9.3,1.9000000000000001,-0.5,1.3,-0.8
1698744127921.0,16,-0.2,0.0,-0.1,-0.30000000000000004,9.3,1.8,0.0,0.5,-1.0
1698744127938.0,16,-0.2,0.1,-0.1,-0.30000000000000004,9.4,1.9000000000000001,-0.4,-0.7,-1.0
1698744127954.0,16,-0.2,0.1,-0.1,-0.30000000000000004,9.4,1.9000000000000001,-0.6000000000000001,-1.3,-0.8
1698744127971.0,16,-0.2,0.0,0.0,-0.30000000000000004,9.3,2.0,-0.9,-2.3000000000000003,-0.6000000000000001
1698744127987.0,16,-0.1,0.0,0.0,-0.2,9.3,2.0,-0.30000000000000004,-3.3000000000000003,-0.7
1698744128004.0,16,-0.1,-0.1,0.1,-0.1,9.200000000000001,2.1,-0.2,-3.5,-0.8
1698744128021.0,16,0.0,-0.1,0.1,-0.1,9.200000000000001,2.1,-0.30000000000000004,-3.6,-1.0
1698744128038.0,16,0.1,0.0,0.1,0.0,9.3,2.1,-0.30000000000000004,-3.2,-0.8
1698744128055.0,16,0.1,0.1,0.0,0.0,9.4,2.0,-0.5,-3.1,-0.5
1698744128071.0,16,0.0,0.1,0.0,0.0,9.4,2.0,-0.8,-2.8,-0.5
1698744128087.0,16,0.0,0.0,0.0,-0.1,9.3,2.0,-1.8,-2.5,-0.2
1698744128104.0,16,0.0,0.0,0.0,-0.1,9.3,2.0,-2.1,-2.4000000000000004,-0.1
1698744128121.0,16,0.1,-0.1,0.0,0.0,9.200000000000001,2.0,-2.1999999999999997,-2.1,-0.1
1698744128138.0,16,0.1,-0.1,0.1,0.0,9.1,2.1,-1.6,-1.6,-0.2
1698744128155.0,16,0.1,0.0,0.0,0.0,9.1,2.1,-0.9,-1.0999999999999999,-0.30000000000000004
1698744128173.0,16,0.1,0.0,0.0,0.0,9.3,2.0,-0.4,0.0,-0.1
1698744128187.0,16,0.1,0.1,0.0,0.0,9.3,2.0,-0.2,0.30000000000000004,0.1
1698744128204.0,16,0.0,0.0,0.0,0.0,9.3,2.0,-0.2,0.4,0.1
1698744128221.0,16,0.0,0.0,0.0,0.0,9.3,2.0,-0.2,0.6000000000000001,-0.1
1698744128237.0,16,0.0,-0.1,0.0,0.0,9.200000000000001,2.0,0.30000000000000004,1.0,-0.2
1698744128254.0,16,0.0,0.0,0.0,0.0,9.3,2.1,0.2,1.3,-0.30000000000000004
1698744128271.0,16,0.0,0.0,0.0,-0.1,9.3,2.0,0.1,1.5000000000000002,-0.30000000000000004
1698744128287.0,16,0.0,0.0,0.0,-0.1,9.3,2.0,0.1,1.6,-0.30000000000000004
1698744128304.0,16,-0.1,0.0,0.0,-0.2,9.3,2.0,-0.5,1.4,-0.1
1698744128320.0,16,-0.1,0.0,0.0,-0.2,9.3,2.0,-0.7,1.0,0.0
1698744128337.0,16,-0.1,0.0,0.0,-0.2,9.3,2.1,-1.0,0.2,-0.5
1698744128354.0,16,0.0,0.0,0.0,-0.1,9.200000000000001,2.0,-0.5,-0.2,-0.6000000000000001
1698744128371.0,16,0.0,-0.1,0.0,-0.1,9.200000000000001,2.1,-0.5,-0.2,-0.5
1698744128388.0,16,0.0,0.0,0.0,-0.1,9.200000000000001,2.1,-0.4,-0.30000000000000004,-0.4
1698744128404.0,16,0.0,0.0,0.0,-0.1,9.3,2.0,-0.1,-0.8,-0.6000000000000001
1698744128421.0,16,0.1,0.0,0.0,-0.1,9.3,2.1,-0.1,-0.8,-0.6000000000000001
1698744128438.0,16,0.1,0.0,0.0,0.0,9.3,2.0,0.0,-0.7,-0.9
1698744128457.0,16,0.1,0.1,0.0,-0.1,9.3,2.1,0.6000000000000001,-0.6000000000000001,-1.3
1698744128472.0,16,0.1,0.1,0.0,0.0,9.3,2.0,0.30000000000000004,-0.6000000000000001,-1.3
1698744128488.0,16,0.1,-0.1,0.1,0.0,9.200000000000001,2.1,0.4,-0.30000000000000004,-1.4
1698744128504.0,16,0.0,-0.1,0.1,-0.1,9.200000000000001,2.1,1.0999999999999999,0.0,-1.2000000000000002
1698744128521.0,16,0.0,-0.1,0.1,-0.1,9.200000000000001,2.1,1.3,0.30000000000000004,-1.0999999999999999
1698744128538.0,16,0.0,-0.1,0.0,-0.1,9.200000000000001,2.1,1.6,0.8,-0.8
1698744128554.0,16,0.0,0.0,0.0,-0.1,9.200000000000001,2.1,2.1,1.4,-0.6000000000000001
1698744128572.0,16,0.0,0.0,0.0,-0.2,9.3,2.1,2.3000000000000003,1.4,-0.6000000000000001
1698744128588.0,16,-0.1,0.0,0.0,-0.2,9.3,2.1,2.1999999999999997,1.6,0.0
1698744128604.0,16,-0.1,0.0,0.0,-0.2,9.3,2.0,2.1999999999999997,1.6,0.4
1698744128621.0,16,-0.1,0.0,0.0,-0.2,9.3,2.0,2.1,1.8,0.7
1698744128638.0,16,-0.1,0.0,0.0,-0.2,9.200000000000001,2.0,2.5,1.6,1.2000000000000002
1698744128654.0,16,-0.1,-0.1,0.0,-0.2,9.200000000000001,2.0,2.5,1.0999999999999999,1.3
1698744128673.0,16,0.0,0.0,0.0,-0.1,9.200000000000001,2.0,2.6,0.9,1.0999999999999999
1698744128687.0,16,0.0,0.0,0.0,-0.1,9.3,2.0,2.6,1.2000000000000002,0.8
1698744128704.0,16,0.0,0.1,0.0,-0.1,9.3,1.9000000000000001,2.6,1.0,0.8
1698744128721.0,16,0.0,0.0,0.0,-0.1,9.3,1.9000000000000001,2.7,0.8,0.8
1698744128737.0,16,-0.1,0.0,0.0,-0.2,9.200000000000001,1.9000000000000001,2.8,0.4,1.0
1698744128755.0,16,-0.1,-0.1,0.0,-0.2,9.200000000000001,2.0,3.4,-0.5,1.2000000000000002
1698744128772.0,16,-0.1,0.0,0.0,-0.2,9.200000000000001,2.0,3.7000000000000006,-0.9,1.0
1698744128788.0,16,0.0,0.0,0.0,-0.1,9.3,1.9000000000000001,4.2,-1.8,0.7
1698744128805.0,16,0.0,0.1,-0.1,-0.1,9.4,1.8,4.300000000000001,-2.4000000000000004,0.30000000000000004
1698744128821.0,16,0.0,0.1,-0.1,-0.1,9.4,1.8,3.9,-2.1999999999999997,0.2
1698744128837.0,16,0.0,0.1,0.0,-0.1,9.4,1.9000000000000001,2.9,-2.0,0.5
1698744128854.0,16,0.0,0.0,0.0,-0.1,9.3,1.9000000000000001,3.2,-3.1,0.1
1698744128871.0,16,0.0,-0.1,0.0,-0.1,9.200000000000001,1.9000000000000001,3.9,-3.5,-0.5
1698744128888.0,16,0.0,0.0,0.0,-0.1,9.3,1.8,4.2,-3.4,-0.5
1698744128905.0,16,0.0,0.0,-0.1,-0.1,9.3,1.8,4.0,-3.1,-0.6000000000000001
1698744128923.0,16,0.0,0.0,-0.1,-0.1,9.3,1.8,3.8,-2.7,-0.5
1698744128937.0,16,0.0,0.0,0.0,-0.1,9.3,1.8,3.8,-2.1999999999999997,0.1
1698744128954.0,16,0.0,0.0,-0.1,-0.1,9.3,1.8,3.6,-2.1999999999999997,0.6000000000000001
1698744128971.0,16,0.1,0.1,0.0,0.0,9.4,1.8,2.8,-1.0999999999999999,1.0999999999999999
1698744128988.0,16,0.2,0.2,-0.1,0.1,9.5,1.7000000000000002,2.7,-1.2000000000000002,1.0999999999999999
1698744129004.0,16,0.30000000000000004,0.4,-0.1,0.2,9.700000000000001,1.6,0.4,-1.7,0.8
1698744129021.0,16,0.0,0.5,0.0,-0.1,9.9,1.7000000000000002,-4.0,1.0,0.5
1698744129037.0,16,-0.5,0.2,-0.1,-0.6000000000000001,9.5,1.7000000000000002,-5.2,3.0000000000000004,0.1
1698744129055.0,16,-0.4,0.1,-0.1,-0.5,9.5,1.7000000000000002,-5.7,1.4,0.2
1698744129075.0,16,-0.4,0.0,-0.30000000000000004,-0.5,9.4,1.5,-7.1000000000000005,-1.2000000000000002,0.6000000000000001
1698744129088.0,16,-0.4,0.0,-0.30000000000000004,-0.4,9.3,1.6,-7.1000000000000005,-1.4,0.8
1698744129105.0,16,0.0,0.1,-0.4,-0.1,9.5,1.5,-8.0,-0.7,0.6000000000000001
1698744129121.0,16,0.5,0.2,-0.5,0.2,9.600000000000001,1.4000000000000001,-11.5,0.5,0.30000000000000004
1698744129138.0,16,0.6000000000000001,0.30000000000000004,-0.30000000000000004,0.6000000000000001,9.600000000000001,1.5,-10.3,4.6000000000000005,1.0999999999999999
1698744129154.0,16,0.30000000000000004,0.30000000000000004,-0.2,0.30000000000000004,9.600000000000001,1.7000000000000002,-9.0,7.2,1.6
1698744129171.0,16,0.0,0.1,-0.2,0.1,9.600000000000001,1.8,-8.5,8.3,1.9
1698744129188.0,16,0.0,0.0,-0.2,-0.1,9.3,1.8,-10.4,6.4,2.4000000000000004
1698744129204.0,16,0.0,0.0,-0.2,0.0,9.3,1.8,-9.700000000000001,4.3999999999999995,3.8
1698744129221.0,16,0.0,0.1,-0.30000000000000004,0.0,9.4,1.7000000000000002,-9.200000000000001,2.8,5.0
1698744129237.0,16,0.30000000000000004,0.2,-0.1,0.30000000000000004,9.5,1.9000000000000001,-10.2,3.1,4.2
1698744129254.0,16,0.4,0.30000000000000004,0.2,0.4,9.5,2.3000000000000003,-11.3,5.7,4.1000000000000005
1698744129271.0,16,0.1,0.4,0.4,0.1,9.700000000000001,2.5,-16.5,8.0,5.2
1698744129287.0,16,-0.2,0.30000000000000004,0.30000000000000004,-0.2,9.600000000000001,2.5,-23.1,9.0,4.9
1698744129304.0,16,-0.2,0.30000000000000004,0.2,-0.2,9.5,2.5,-24.400000000000002,9.1,4.5
1698744129321.0,16,-0.2,0.1,0.1,-0.2,9.3,2.5,-26.0,7.2,3.6
1698744129338.0,16,-0.1,0.1,0.0,-0.1,9.3,2.4000000000000004,-26.8,5.7,3.4
1698744129355.0,16,0.0,0.1,-0.1,0.1,9.4,2.3000000000000003,-27.5,4.1000000000000005,3.3000000000000003
1698744129371.0,16,0.1,0.30000000000000004,-0.2,0.1,9.5,2.3000000000000003,-27.5,3.6,3.9
1698744129388.0,16,0.0,0.30000000000000004,-0.30000000000000004,0.1,9.5,2.3000000000000003,-27.0,3.8,3.9
1698744129405.0,16,-0.1,0.2,-0.4,-0.1,9.4,2.3000000000000003,-26.700000000000003,3.7000000000000006,3.7000000000000006
1698744129421.0,16,-0.2,0.1,-0.5,-0.1,9.200000000000001,2.3000000000000003,-27.400000000000002,2.0,2.8
1698744129437.0,16,-0.2,0.0,-0.5,-0.1,9.1,2.4000000000000004,-27.2,0.4,2.5
1698744129455.0,16,-0.2,-0.1,-0.5,-0.1,9.0,2.4000000000000004,-25.8,-0.9,0.7
1698744129474.0,16,0.0,0.0,-0.4,0.1,9.1,2.5,-25.400000000000002,-0.9,-0.8
1698744129488.0,16,0.1,0.0,-0.30000000000000004,0.2,9.0,2.7,-25.900000000000002,0.5,-1.2000000000000002
1698744129505.0,16,0.1,-0.1,-0.30000000000000004,0.1,9.0,2.8000000000000003,-25.700000000000003,0.9,-1.2000000000000002
1698744129521.0,16,0.0,0.0,-0.2,0.0,9.0,3.0,-25.5,1.4,-0.8
1698744129538.0,16,-0.1,-0.1,0.0,0.0,8.9,3.2,-25.900000000000002,1.9,-0.8
1698744129555.0,16,-0.1,-0.1,0.0,0.0,8.9,3.3000000000000003,-25.6,1.9,-0.9
1698744129571.0,16,-0.1,-0.1,-0.1,-0.1,8.9,3.3000000000000003,-25.400000000000002,1.0,-0.5
1698744129588.0,16,-0.1,0.1,0.0,-0.1,9.0,3.5,-24.3,-0.8,-0.5
1698744129604.0,16,-0.1,0.1,0.2,0.0,8.9,3.6,-24.1,-1.0,-0.5
1698744129621.0,16,0.1,0.1,0.2,0.1,8.9,3.8000000000000003,-26.200000000000003,0.5,0.1
1698744129637.0,16,0.2,0.0,0.30000000000000004,0.2,8.9,3.9000000000000004,-27.2,1.0999999999999999,1.0999999999999999
1698744129655.0,16,0.1,0.0,0.30000000000000004,0.1,8.8,3.9000000000000004,-27.7,1.0,2.7
1698744129671.0,16,0.1,-0.1,0.2,0.1,8.700000000000001,4.0,-28.700000000000003,1.4,3.8
1698744129687.0,16,0.0,-0.1,0.2,0.1,8.6,4.1000000000000005,-30.100000000000005,2.6,3.8
1698744129704.0,16,0.0,-0.1,0.2,0.1,8.5,4.2,-30.799999999999997,2.8,3.9
1698744129721.0,16,0.0,-0.1,0.2,0.1,8.5,4.2,-31.900000000000002,3.3000000000000003,4.2
1698744129737.0,16,0.0,-0.2,0.2,0.1,8.4,4.3,-32.0,3.2,4.5
1698744129754.0,16,0.0,-0.2,0.0,0.1,8.4,4.2,-32.2,3.0000000000000004,4.5
1698744129772.0,16,-0.1,-0.1,0.1,0.0,8.4,4.3,-33.6,3.6,4.5
1698744129788.0,16,-0.1,0.0,0.1,0.0,8.4,4.4,-33.6,3.5,4.7
1698744129804.0,16,-0.1,0.1,0.1,0.0,8.5,4.5,-34.7,2.7,4.2
1698744129821.0,16,-0.1,0.1,0.1,0.0,8.5,4.6000000000000005,-35.199999999999996,2.9,3.7000000000000006
1698744129837.0,16,0.0,0.2,0.0,0.1,8.5,4.6000000000000005,-36.1,2.8,2.9
1698744129855.0,16,0.0,0.2,0.0,0.1,8.5,4.6000000000000005,-36.9,3.1,2.6
1698744129871.0,16,0.0,0.2,-0.1,0.1,8.5,4.7,-38.400000000000006,2.8,2.0
1698744129888.0,16,0.0,0.2,-0.1,0.1,8.4,4.800000000000001,-39.50000000000001,3.1,1.6
1698744129905.0,16,0.0,0.30000000000000004,-0.1,0.1,8.4,4.9,-41.7,4.2,0.1
1698744129921.0,16,0.1,0.4,-0.2,0.2,8.5,4.800000000000001,-43.800000000000004,5.300000000000001,-1.5000000000000002
1698744129937.0,16,0.1,0.5,0.0,0.2,8.6,5.2,-46.2,7.2,-3.5
1698744129954.0,16,0.1,0.8,-0.2,0.1,8.8,5.1000000000000005,-49.4,6.7,-3.3000000000000003
1698744129971.0,16,0.1,1.0,-0.30000000000000004,0.2,8.9,5.1000000000000005,-51.1,5.6,-3.0000000000000004
1698744129987.0,16,0.4,1.3,-0.30000000000000004,0.4,9.1,5.2,-52.400000000000006,3.7000000000000006,-3.8
1698744130005.0,16,0.4,1.5,0.2,0.4,9.1,5.5,-53.400000000000006,4.5,-4.2
1698744130022.0,16,0.30000000000000004,1.6,0.4,0.4,9.3,6.1000000000000005,-55.6,6.000000000000001,-4.7
1698744130037.0,16,0.1,1.4000000000000001,0.5,0.0,9.0,6.4,-56.5,8.4,-5.6
1698744130055.0,16,-0.5,1.3,0.6000000000000001,-0.5,8.8,6.6000000000000005,-53.300000000000004,7.699999999999999,-5.6
1698744130073.0,16,-0.5,1.3,0.8,-0.6000000000000001,8.8,6.9,-50.7,5.6,-6.1000000000000005
1698744130088.0,16,-0.1,1.3,0.8,-0.5,8.700000000000001,7.0,-49.2,3.5,-6.9
1698744130104.0,16,0.1,1.2000000000000002,0.9,0.0,8.5,7.2,-48.00000000000001,1.6,-8.5
1698744130121.0,16,0.1,0.7000000000000001,0.8,0.0,7.9,7.300000000000001,-42.6,2.1999999999999997,-8.3
1698744130137.0,16,-0.2,0.2,1.1,-0.1,7.5,7.4,-40.6,0.6000000000000001,-8.799999999999999
1698744130154.0,16,-0.30000000000000004,-0.1,1.1,-0.4,6.9,7.800000000000001,-33.400000000000006,-1.6,-10.0
1698744130171.0,16,-0.2,-0.2,1.2000000000000002,-0.4,6.800000000000001,7.9,-30.299999999999997,-2.3000000000000003,-9.600000000000001
1698744130188.0,16,-0.1,-0.1,1.4000000000000001,-0.30000000000000004,6.800000000000001,8.1,-26.0,-2.3000000000000003,-8.5
1698744130205.0,16,0.0,0.2,1.4000000000000001,-0.30000000000000004,6.9,8.200000000000001,-23.8,-2.1,-9.1
1698744130221.0,16,0.1,0.2,1.5,-0.2,7.0,8.3,-19.1,-2.7,-6.2
1698744130237.0,16,0.0,0.4,1.5,-0.2,7.2,8.4,-15.100000000000001,-2.9,-3.6
1698744130254.0,16,-0.1,0.30000000000000004,1.3,-0.30000000000000004,7.1000000000000005,8.200000000000001,-11.000000000000002,-3.8,-4.1000000000000005
1698744130272.0,16,-0.2,0.4,1.3,-0.4,7.2,8.3,-9.200000000000001,-4.2,-4.0
1698744130288.0,16,-0.2,0.4,1.3,-0.4,7.2,8.3,-6.000000000000001,-5.8,-3.6
1698744130306.0,16,-0.2,0.4,1.3,-0.4,7.2,8.3,-6.000000000000001,-5.8,-3.6
1698744130322.0,16,-0.1,0.4,1.1,-0.30000000000000004,7.2,8.1,-2.5,-7.400000000000001,-3.9
1698744130338.0,16,0.0,0.30000000000000004,1.0,-0.2,7.1000000000000005,8.1,1.5000000000000002,-8.3,-4.6000000000000005
1698744130355.0,16,0.1,0.2,0.9,-0.2,7.2,7.9,2.6,-7.300000000000001,-7.500000000000001
1698744130371.0,16,0.0,0.5,0.8,-0.2,7.300000000000001,7.9,3.1,-7.1000000000000005,-8.0
1698744130388.0,16,-0.1,0.30000000000000004,0.4,-0.30000000000000004,7.2,7.5,5.4,-7.0,-9.1
1698744130404.0,16,-0.2,0.30000000000000004,0.2,-0.4,7.1000000000000005,7.4,6.1000000000000005,-7.0,-9.4
1698744130421.0,16,-0.2,0.1,0.0,-0.4,7.0,7.0,8.5,-7.9,-8.799999999999999
1698744130438.0,16,-0.1,-0.2,0.0,-0.30000000000000004,6.6000000000000005,7.0,11.2,-9.0,-9.9
1698744130455.0,16,0.1,-0.2,-0.30000000000000004,-0.1,6.800000000000001,6.7,13.5,-9.4,-11.6
1698744130471.0,16,0.2,-0.1,-0.6000000000000001,-0.1,6.800000000000001,6.4,13.6,-9.0,-12.000000000000002
1698744130487.0,16,0.2,-0.4,-1.0,0.0,6.5,6.0,14.800000000000002,-7.699999999999999,-13.0
1698744130505.0,16,0.2,-0.6000000000000001,-1.1,-0.1,6.4,5.800000000000001,16.2,-8.1,-13.200000000000001
1698744130520.0,16,0.1,-1.2000000000000002,-1.5,-0.1,5.800000000000001,5.4,21.700000000000003,-10.3,-12.9
1698744130537.0,16,0.0,-1.3,-1.4000000000000001,-0.2,5.800000000000001,5.4,22.6,-9.3,-13.3
1698744130554.0,16,0.2,-1.6,-1.3,-0.1,5.5,5.4,28.0,-8.3,-13.200000000000001
1698744130571.0,16,0.2,-1.4000000000000001,-1.4000000000000001,-0.1,5.7,5.300000000000001,30.4,-8.200000000000001,-12.4
1698744130588.0,16,0.30000000000000004,-1.4000000000000001,-1.7000000000000002,0.0,5.800000000000001,4.9,31.4,-6.000000000000001,-11.3
1698744130604.0,16,0.6000000000000001,-1.5,-1.8,0.4,5.7,4.7,33.5,-5.300000000000001,-9.4
1698744130621.0,16,0.9,-1.8,-1.7000000000000002,0.6000000000000001,5.6000000000000005,4.7,36.3,-7.8,-8.0
1698744130637.0,16,0.9,-1.7000000000000002,-1.5,0.6000000000000001,5.7,4.9,38.0,-9.1,-7.400000000000001
1698744130654.0,16,0.8,-1.6,-1.4000000000000001,0.5,5.800000000000001,4.800000000000001,45.3,-8.9,-7.6
1698744130671.0,16,0.7000000000000001,-1.2000000000000002,-1.3,0.5,6.1000000000000005,4.9,46.6,-8.4,-7.400000000000001
1698744130688.0,16,0.8,-0.8,-1.3,0.5,6.800000000000001,4.800000000000001,44.00000000000001,-2.7,-6.4
1698744130705.0,16,0.9,-0.5,-1.2000000000000002,0.6000000000000001,7.1000000000000005,4.800000000000001,42.800000000000004,-0.2,-5.6
1698744130722.0,16,0.9,-1.1,-1.1,0.6000000000000001,6.6000000000000005,4.800000000000001,43.7,3.5,-1.9
1698744130738.0,16,0.8,-1.7000000000000002,-1.2000000000000002,0.6000000000000001,6.0,4.5,43.50000000000001,6.000000000000001,3.0000000000000004
1698744130755.0,16,0.8,-2.0,-1.4000000000000001,0.5,5.800000000000001,4.2,44.1,7.400000000000001,6.7
1698744130772.0,16,0.8,-1.5,-0.9,0.5,5.9,4.2,43.800000000000004,14.4,7.500000000000001
1698744130787.0,16,0.8,-1.2000000000000002,-0.7000000000000001,0.5,6.7,4.7,45.7,14.800000000000002,7.8
1698744130804.0,16,0.4,-1.4000000000000001,-0.7000000000000001,0.1,6.6000000000000005,4.5,43.2,10.600000000000001,9.5
1698744130820.0,16,0.0,-1.3,-0.6000000000000001,-0.30000000000000004,6.800000000000001,4.5,38.5,10.3,9.3
1698744130837.0,16,-0.1,-1.0,-0.7000000000000001,-0.4,7.1000000000000005,4.4,37.300000000000004,9.600000000000001,8.600000000000001
1698744130854.0,16,-0.2,-0.9,-0.5,-0.5,7.300000000000001,4.4,36.2,6.4,6.6000000000000005
1698744130870.0,16,-0.4,-0.7000000000000001,-0.30000000000000004,-0.6000000000000001,7.5,4.5,33.400000000000006,1.7,3.5
1698744130887.0,16,-0.4,-0.4,-0.2,-0.7000000000000001,7.800000000000001,4.6000000000000005,30.9,-0.6000000000000001,2.8
1698744130904.0,16,-0.4,-0.2,0.1,-0.6000000000000001,8.1,4.800000000000001,25.2,-3.5,2.5
1698744130921.0,16,-0.4,-0.1,0.30000000000000004,-0.7000000000000001,8.3,5.0,21.900000000000002,-2.4000000000000004,4.1000000000000005
1698744130938.0,16,-0.5,-0.1,0.4,-0.7000000000000001,8.200000000000001,5.0,20.8,-0.9,5.9
1698744130954.0,16,-0.6000000000000001,-0.6000000000000001,0.6000000000000001,-0.8,7.7,5.2,14.200000000000001,3.8,9.600000000000001
1698744130971.0,16,-0.4,-0.6000000000000001,0.7000000000000001,-0.8,7.7,5.300000000000001,8.700000000000001,6.2,11.5
1698744130987.0,16,-0.2,-0.4,0.8,-0.4,7.9,5.4,-4.9,7.6,10.5
1698744131004.0,16,0.0,0.5,0.9,-0.1,8.8,5.5,-8.1,9.4,8.3
1698744131021.0,16,-0.2,0.30000000000000004,0.4,-0.1,8.8,5.300000000000001,-10.2,12.6,7.8
1698744131038.0,16,-0.4,0.2,0.2,-0.6000000000000001,8.5,4.9,-12.200000000000001,15.000000000000002,7.0
1698744131055.0,16,-0.9,0.30000000000000004,-0.1,-1.0,8.6,4.7,-12.6,13.9,6.7
1698744131072.0,16,-1.1,0.7000000000000001,-0.2,-1.3,9.0,4.6000000000000005,-13.0,12.6,7.6
1698744131088.0,16,-1.1,1.3,-0.2,-1.3,9.600000000000001,4.6000000000000005,-13.8,13.0,5.2
1698744131105.0,16,-0.30000000000000004,1.1,-0.2,-0.5,9.4,4.6000000000000005,-9.9,12.8,0.5
1698744131122.0,16,0.7000000000000001,0.8,0.2,0.0,9.3,4.9,-8.5,15.100000000000001,0.1
1698744131137.0,16,0.6000000000000001,0.9,-0.1,0.4,9.1,4.7,-10.4,24.6,0.9
1698744131154.0,16,-0.1,0.6000000000000001,-0.5,-0.4,8.8,4.4,-14.0,30.599999999999998,4.7
1698744131172.0,16,-0.5,0.4,-0.7000000000000001,-0.8,8.6,4.2,-14.800000000000002,29.200000000000003,6.9
1698744131187.0,16,-0.6000000000000001,0.2,-0.8,-0.9,8.4,4.1000000000000005,-16.2,27.1,7.699999999999999
1698744131204.0,16,-0.5,-0.1,-0.8,-0.9,8.1,4.2,-16.5,25.0,6.9
1698744131220.0,16,-0.6000000000000001,-0.1,-0.9,-1.0,8.1,4.1000000000000005,-14.900000000000002,23.5,3.2
1698744131237.0,16,-0.5,-0.4,-1.1,-0.9,7.7,4.0,-13.700000000000001,22.5,1.0999999999999999
1698744131254.0,16,-0.5,-0.4,-1.3,-1.0,7.7,3.8000000000000003,-11.8,21.0,0.30000000000000004
1698744131271.0,16,-0.4,-0.5,-1.5,-0.9,7.6000000000000005,3.6,-10.8,18.6,-0.2
1698744131287.0,16,-0.6000000000000001,-0.30000000000000004,-1.8,-1.2000000000000002,7.800000000000001,3.3000000000000003,-8.3,14.600000000000001,3.8
1698744131306.0,16,-0.9,0.1,-1.8,-1.4000000000000001,8.200000000000001,3.3000000000000003,-8.700000000000001,15.6,5.6
1698744131321.0,16,-0.8,-0.1,-1.7000000000000002,-1.3,8.0,3.4000000000000004,-6.1000000000000005,13.100000000000001,8.3
1698744131337.0,16,-1.1,0.1,-1.6,-1.6,8.200000000000001,3.5,-2.5,9.200000000000001,12.200000000000001
1698744131354.0,16,-1.0,0.1,-1.6,-1.5,8.200000000000001,3.5,-2.0,6.2,13.5
1698744131371.0,16,-0.9,0.2,-1.6,-1.4000000000000001,8.3,3.5,0.5,-1.5000000000000002,14.600000000000001
1698744131387.0,16,-0.9,0.5,-1.3,-1.3,8.5,3.7,5.0,-8.700000000000001,13.700000000000001
1698744131404.0,16,-1.0,0.5,-1.1,-1.4000000000000001,8.5,3.9000000000000004,5.6,-9.200000000000001,13.6
1698744131420.0,16,-0.7000000000000001,0.30000000000000004,-0.9,-1.1,8.4,4.1000000000000005,6.2,-5.300000000000001,13.3
1698744131437.0,16,0.2,0.5,-1.0,-0.2,8.6,4.0,8.9,-7.2,9.9
1698744131454.0,16,0.4,0.9,-1.1,0.0,9.0,3.9000000000000004,9.200000000000001,-6.4,7.6
1698744131471.0,16,0.2,2.1,-0.8,-0.1,10.200000000000001,4.1000000000000005,8.1,-4.6000000000000005,1.5000000000000002
1698744131487.0,16,0.4,2.8000000000000003,0.30000000000000004,0.0,10.9,5.2,7.9,7.2,-10.1
1698744131504.0,16,-0.4,2.8000000000000003,0.30000000000000004,-0.7000000000000001,11.0,5.2,8.799999999999999,18.8,-10.600000000000001
1698744131521.0,16,-1.5,1.5,-0.5,-2.0,9.8,4.4,11.2,25.6,-3.8
1698744131537.0,16,-1.4000000000000001,1.3,-0.5,-1.8,9.600000000000001,4.3,17.0,19.9,-3.1
1698744131554.0,16,-0.5,1.2000000000000002,-0.30000000000000004,-1.0,9.5,4.4,23.1,14.600000000000001,-5.2
1698744131571.0,16,0.0,1.6,-0.4,-0.6000000000000001,9.9,4.3,20.5,20.2,-0.6000000000000001
1698744131588.0,16,-0.30000000000000004,0.8,-0.7000000000000001,-0.9,9.200000000000001,3.9000000000000004,20.6,15.5,-0.7
1698744131604.0,16,-0.9,0.5,-0.8,-1.5,8.9,3.8000000000000003,23.5,12.4,-0.5
1698744131621.0,16,-1.3,-0.2,-0.1,-1.9000000000000001,8.3,4.3,30.200000000000003,3.5,-4.9
1698744131637.0,16,-0.2,-0.6000000000000001,0.4,-1.6,8.1,4.5,33.2,3.4,-8.9
1698744131656.0,16,0.4,-0.8,0.6000000000000001,-0.30000000000000004,7.7,4.9,37.800000000000004,9.1,-14.4
1698744131672.0,16,1.1,-1.2000000000000002,1.1,0.4,7.4,5.4,35.0,11.3,-16.8
1698744131687.0,16,1.0,-1.0,1.1,0.2,7.5,5.2,22.900000000000002,11.1,-13.8
1698744131706.0,16,0.8,-0.8,1.3,0.0,7.800000000000001,5.5,15.8,10.3,-10.8
1698744131721.0,16,0.6000000000000001,-0.30000000000000004,1.8,-0.30000000000000004,8.3,5.9,7.300000000000001,9.5,-7.400000000000001
1698744131737.0,16,0.6000000000000001,-0.2,1.6,-0.30000000000000004,8.4,5.800000000000001,5.1,9.600000000000001,-6.8
1698744131754.0,16,0.5,-0.30000000000000004,1.4000000000000001,-0.30000000000000004,8.3,5.5,4.6000000000000005,7.9,-4.6000000000000005
1698744131771.0,16,0.5,-0.6000000000000001,0.7000000000000001,-0.4,8.0,4.800000000000001,9.4,6.4,-1.2000000000000002
1698744131787.0,16,0.6000000000000001,-0.30000000000000004,1.0,-0.30000000000000004,8.4,5.0,5.4,3.6,3.4
1698744131804.0,16,0.5,0.1,0.9,-0.4,8.8,5.0,2.8,5.2,7.6
1698744131821.0,16,0.6000000000000001,0.7000000000000001,1.0,-0.30000000000000004,9.3,5.1000000000000005,0.30000000000000004,4.6000000000000005,15.6
1698744131837.0,16,0.7000000000000001,0.5,0.8,-0.1,9.1,4.9,1.0999999999999999,-0.2,18.900000000000002
1698744131854.0,16,0.8,0.2,0.7000000000000001,0.0,8.8,4.800000000000001,2.3000000000000003,-1.2000000000000002,18.6
1698744131871.0,16,0.6000000000000001,-0.1,0.4,-0.1,8.6,4.5,2.6,-0.8,18.6
1698744131888.0,16,0.5,-0.1,0.4,-0.2,8.5,4.5,2.9,0.0,19.3
1698744131905.0,16,0.0,-0.2,0.30000000000000004,-0.6000000000000001,8.5,4.4,2.6,4.800000000000001,22.6
1698744131921.0,16,0.1,-0.5,0.0,-0.4,8.200000000000001,4.1000000000000005,0.30000000000000004,6.2,24.6
1698744131937.0,16,0.2,-0.9,0.0,-0.4,7.800000000000001,4.1000000000000005,-3.1,5.4,30.7
1698744131954.0,16,0.2,-1.1,-0.4,-0.2,7.6000000000000005,3.7,-6.9,3.5,30.5
1698744131972.0,16,0.30000000000000004,-1.0,-0.6000000000000001,0.0,7.7,3.5,-9.4,3.1,29.600000000000005
1698744131987.0,16,0.30000000000000004,-0.9,-0.6000000000000001,-0.1,7.800000000000001,3.5,-12.4,5.8,28.3
1698744132004.0,16,0.1,-0.6000000000000001,-1.0,-0.1,8.0,3.2,-13.5,9.1,26.700000000000003
1698744132021.0,16,0.2,-0.30000000000000004,-1.2000000000000002,0.1,8.3,2.9000000000000004,-15.9,8.799999999999999,21.5
1698744132037.0,16,0.2,-0.2,-1.3,0.1,8.3,2.9000000000000004,-17.9,4.300000000000001,12.4
1698744132056.0,16,0.5,-0.30000000000000004,-1.3,0.4,8.200000000000001,2.9000000000000004,-18.7,4.6000000000000005,8.600000000000001
1698744132071.0,16,1.0,-0.6000000000000001,-1.3,0.9,7.9,3.0,-16.1,5.300000000000001,2.4000000000000004
1698744132088.0,16,1.0,-0.8,-1.3,0.9,7.7,3.0,-13.100000000000001,7.1000000000000005,1.3
1698744132105.0,16,0.5,-0.5,-1.3,0.30000000000000004,8.0,3.0,-7.2,6.1000000000000005,3.1
1698744132121.0,16,0.30000000000000004,-0.7000000000000001,-1.3,0.2,7.800000000000001,3.0,-1.8,-3.4,3.1
1698744132137.0,16,0.30000000000000004,-1.1,-0.6000000000000001,0.2,7.4,3.7,0.7,-18.5,-0.1
1698744132154.0,16,0.0,-1.0,-0.7000000000000001,0.0,7.4,3.6,-0.2,-31.8,-3.5
1698744132171.0,16,-0.4,-0.2,-1.4000000000000001,-0.4,8.3,2.9000000000000004,-4.2,-29.1,-2.7
1698744132187.0,16,0.6000000000000001,1.5,-2.2,0.6000000000000001,10.0,2.1,-8.9,-9.9,-5.6
1698744132205.0,16,2.0,2.1,-2.0,2.0,10.600000000000001,2.3000000000000003,-2.7,-2.1999999999999997,-9.600000000000001
1698744132221.0,16,2.6,2.6,-0.5,2.6,11.100000000000001,3.8000000000000003,23.3,-9.5,0.8
1698744132237.0,16,0.6000000000000001,1.0,0.5,0.7000000000000001,9.600000000000001,4.6000000000000005,34.400000000000006,-21.6,13.5
1698744132254.0,16,-1.0,1.9000000000000001,1.3,-0.8,10.5,5.4,21.6,-24.7,11.1
1698744132271.0,16,-1.3,1.6,1.2000000000000002,-1.1,10.3,5.300000000000001,15.5,-27.8,11.4
1698744132288.0,16,-0.2,0.8,2.3000000000000003,0.1,9.5,6.300000000000001,10.600000000000001,-33.7,6.9
1698744132305.0,16,-0.2,0.8,2.3000000000000003,0.1,9.5,6.300000000000001,10.600000000000001,-33.7,6.9
1698744132320.0,16,-0.1,0.4,3.3000000000000003,0.30000000000000004,9.0,7.0,16.6,-37.300000000000004,9.700000000000001
1698744132337.0,16,-0.1,-1.0,1.7000000000000002,0.4,7.7,5.7,2.6,-34.2,11.3
1698744132354.0,16,0.1,-0.4,2.5,0.6000000000000001,8.3,6.5,9.1,-32.800000000000004,5.9
1698744132371.0,16,-0.30000000000000004,0.5,2.7,0.30000000000000004,9.200000000000001,6.7,8.4,-35.0,5.2
1698744132387.0,16,-1.1,0.9,2.1,-0.4,9.600000000000001,6.1000000000000005,-7.9,-37.0,2.3000000000000003
1698744132404.0,16,-1.0,0.8,2.0,-0.30000000000000004,9.5,6.0,-12.700000000000001,-37.300000000000004,-2.8
1698744132421.0,16,-0.2,0.5,1.6,0.4,9.200000000000001,5.6000000000000005,-9.3,-37.0,-16.3
1698744132437.0,16,-0.1,0.2,1.4000000000000001,0.6000000000000001,8.9,5.5,-8.600000000000001,-36.6,-26.9
1698744132454.0,16,-0.1,-0.4,1.2000000000000002,0.4,8.3,5.300000000000001,-14.900000000000002,-30.7,-34.6
1698744132470.0,16,-0.4,-0.7000000000000001,1.0,0.2,8.0,5.1000000000000005,-17.9,-26.400000000000002,-34.50000000000001
1698744132487.0,16,-0.2,-1.3,0.4,0.30000000000000004,7.300000000000001,4.6000000000000005,-18.2,-20.2,-34.6
1698744132504.0,16,-0.1,-1.7000000000000002,0.0,0.30000000000000004,6.9,4.3,-11.6,-17.7,-35.8
1698744132521.0,16,0.0,-1.7000000000000002,0.0,0.4,6.9,4.2,-9.700000000000001,-15.5,-37.0
1698744132538.0,16,0.5,-1.4000000000000001,-0.2,0.8,7.1000000000000005,4.1000000000000005,-9.200000000000001,-13.200000000000001,-36.800000000000004
1698744132554.0,16,0.2,-0.9,-0.30000000000000004,0.4,7.6000000000000005,4.0,-7.9,-11.8,-33.400000000000006
1698744132575.0,16,0.1,-0.7000000000000001,-0.4,0.2,7.9,4.0,-6.1000000000000005,-10.3,-33.0
1698744132588.0,16,-0.30000000000000004,-0.5,-0.7000000000000001,-0.30000000000000004,8.0,3.7,-3.6,-9.8,-31.0
1698744132604.0,16,-0.4,-0.5,-0.8,-0.4,8.0,3.5,-7.0,-11.3,-25.400000000000002
1698744132621.0,16,-0.4,-0.6000000000000001,-0.8,-0.5,7.9,3.6,-10.1,-11.4,-23.8
1698744132638.0,16,-0.1,-0.6000000000000001,-0.9,-0.4,7.9,3.6,-12.5,-12.5,-22.8
1698744132654.0,16,-0.1,-0.6000000000000001,-1.5,-0.2,7.800000000000001,2.9000000000000004,-17.599999999999998,-17.200000000000003,-20.7
1698744132671.0,16,-0.2,-0.7000000000000001,-1.6,-0.30000000000000004,7.800000000000001,2.9000000000000004,-18.8,-18.5,-18.8
1698744132687.0,16,-0.1,-0.8,-1.6,-0.2,7.6000000000000005,2.9000000000000004,-18.900000000000002,-20.4,-14.100000000000001
1698744132704.0,16,0.0,-0.9,-1.6,-0.1,7.5,2.9000000000000004,-15.399999999999999,-20.900000000000002,-9.8
1698744132721.0,16,0.1,-0.9,-1.6,0.0,7.5,2.9000000000000004,-12.000000000000002,-19.200000000000003,-8.5
1698744132738.0,16,0.2,-0.8,-1.7000000000000002,0.1,7.5,2.8000000000000003,-3.5,-15.5,-4.6000000000000005
1698744132755.0,16,0.1,-0.30000000000000004,-1.2000000000000002,0.0,8.0,3.3000000000000003,1.2000000000000002,-7.8,0.1
1698744132771.0,16,0.0,-0.2,-0.6000000000000001,0.0,8.1,3.8000000000000003,2.4000000000000004,-1.7,1.5000000000000002
1698744132788.0,16,0.1,-0.2,-0.6000000000000001,0.0,8.1,3.9000000000000004,5.0,15.5,7.699999999999999
1698744132804.0,16,0.8,1.3,-0.9,0.7000000000000001,9.600000000000001,3.6,5.2,18.8,8.1
1698744132821.0,16,1.1,2.4000000000000004,-0.8,1.0,10.8,3.6,3.4,13.0,4.1000000000000005
1698744132837.0,16,-0.30000000000000004,3.8000000000000003,-0.2,-0.4,12.200000000000001,4.2,-1.3,4.300000000000001,-0.6000000000000001
1698744132855.0,16,-2.2,2.2,-0.2,-2.3000000000000003,10.600000000000001,4.3,6.4,17.599999999999998,-3.8
1698744132874.0,16,-2.3000000000000003,0.9,-0.5,-2.4000000000000004,9.4,3.9000000000000004,15.8,14.200000000000001,-6.3
1698744132888.0,16,-1.0,1.0,0.30000000000000004,-1.3,9.5,4.7,28.500000000000004,-2.8,-12.000000000000002
1698744132904.0,16,0.7000000000000001,2.0,1.4000000000000001,0.4,10.5,5.7,27.900000000000002,-0.8,-18.1
1698744132921.0,16,1.9000000000000001,1.3,2.6,1.5,9.9,6.800000000000001,23.2,5.500000000000001,-23.3
1698744132938.0,16,1.9000000000000001,1.3,2.6,1.5,9.9,6.800000000000001,23.2,5.500000000000001,-23.3
1698744132955.0,16,-0.2,-0.4,1.2000000000000002,-0.7000000000000001,8.200000000000001,5.300000000000001,15.6,18.0,-21.6
1698744132973.0,16,-1.3,-1.0,1.3,-1.9000000000000001,7.7,5.5,7.400000000000001,5.1,-20.0
1698744132988.0,16,-1.3,-1.0,1.4000000000000001,-1.9000000000000001,7.6000000000000005,5.5,5.9,-2.5,-19.6
1698744133004.0,16,-0.2,-0.1,1.7000000000000002,-0.9,8.5,5.800000000000001,5.2,-10.5,-18.2
1698744133020.0,16,1.0,-0.1,1.7000000000000002,0.30000000000000004,8.5,5.9,5.6,-11.6,-18.5
1698744133038.0,16,1.3,-0.30000000000000004,1.7000000000000002,0.6000000000000001,8.3,5.800000000000001,7.2,-11.4,-14.700000000000001
1698744133054.0,16,1.3,-0.8,1.1,0.6000000000000001,7.800000000000001,5.2,5.4,-12.200000000000001,-10.5
1698744133070.0,16,0.7000000000000001,-1.0,1.0,0.1,7.7,5.1000000000000005,0.7,-11.9,-3.9
1698744133089.0,16,0.4,-0.8,0.9,-0.2,7.800000000000001,5.1000000000000005,-0.6000000000000001,-11.000000000000002,0.6000000000000001
1698744133105.0,16,0.30000000000000004,-0.30000000000000004,0.8,-0.4,8.3,5.0,-3.9,-10.4,8.1
1698744133120.0,16,0.6000000000000001,-0.30000000000000004,0.7000000000000001,0.0,8.3,4.800000000000001,-5.300000000000001,-12.100000000000001,11.4
1698744133138.0,16,0.8,-0.4,0.6000000000000001,0.4,7.9,4.7,-4.3999999999999995,-12.100000000000001,15.7
1698744133154.0,16,0.9,-0.8,0.30000000000000004,0.4,7.800000000000001,4.5,-3.4,-11.3,16.1
1698744133171.0,16,0.7000000000000001,-0.8,0.1,0.30000000000000004,7.800000000000001,4.4,-3.3000000000000003,-9.9,17.0
1698744133188.0,16,0.30000000000000004,-0.8,0.1,0.0,7.800000000000001,4.4,-5.4,-5.2,17.200000000000003
1698744133204.0,16,0.1,-0.9,0.0,-0.2,7.7,4.2,-7.400000000000001,-3.2,17.5
1698744133221.0,16,0.2,-0.8,-0.30000000000000004,0.0,7.7,4.0,-7.500000000000001,-0.30000000000000004,17.8
1698744133237.0,16,0.5,-0.8,-0.4,0.30000000000000004,7.7,3.9000000000000004,-7.400000000000001,1.0999999999999999,16.5
1698744133255.0,16,0.9,-0.7000000000000001,-0.5,0.7000000000000001,7.800000000000001,3.8000000000000003,-7.699999999999999,0.1,15.8
1698744133271.0,16,0.9,-0.6000000000000001,-0.6000000000000001,0.8,7.9,3.7,-8.200000000000001,-0.30000000000000004,15.399999999999999
1698744133287.0,16,0.5,-0.4,-0.9,0.7000000000000001,8.1,3.3000000000000003,-12.9,6.1000000000000005,16.900000000000002
1698744133307.0,16,0.8,-0.5,-1.1,0.8,8.0,3.2,-13.5,7.1000000000000005,15.6
1698744133320.0,16,0.8,-0.6000000000000001,-1.4000000000000001,0.8,7.800000000000001,3.0,-11.2,12.100000000000001,13.6
1698744133337.0,16,0.8,-0.8,-1.6,0.8,7.6000000000000005,2.8000000000000003,-9.0,16.900000000000002,9.600000000000001
1698744133355.0,16,1.1,-1.0,-1.8,1.1,7.4,2.6,-6.8,21.200000000000003,6.5
1698744133371.0,16,1.1,-1.2000000000000002,-1.9000000000000001,1.1,7.2,2.5,-0.8,25.1,4.5
1698744133387.0,16,1.0,-1.1,-1.7000000000000002,1.0,7.4,2.7,3.1,26.500000000000004,4.800000000000001
1698744133404.0,16,0.6000000000000001,-0.8,-1.5,0.5,7.6000000000000005,2.9000000000000004,10.8,22.4,6.7
1698744133420.0,16,0.5,-0.8,-0.6000000000000001,0.5,7.7,3.7,14.500000000000002,5.9,10.0
1698744133437.0,16,0.30000000000000004,-0.8,-0.1,0.30000000000000004,7.7,4.2,15.2,-5.1,8.9
1698744133454.0,16,-0.9,0.5,-1.5,-0.9,8.9,2.8000000000000003,7.2,3.3000000000000003,16.700000000000003
1698744133470.0,16,0.9,1.7000000000000002,-1.8,0.9,10.100000000000001,2.4000000000000004,6.4,28.200000000000003,3.6
1698744133488.0,16,1.4000000000000001,2.5,-0.6000000000000001,1.5,11.0,3.6,15.8,28.500000000000004,2.8
1698744133504.0,16,0.30000000000000004,2.5,0.6000000000000001,0.4,11.0,4.7,28.200000000000003,9.600000000000001,21.0
1698744133520.0,16,-0.7000000000000001,1.6,2.8000000000000003,-0.6000000000000001,10.200000000000001,6.800000000000001,20.8,-0.6000000000000001,24.3
1698744133538.0,16,-1.6,2.5,4.1000000000000005,-1.4000000000000001,11.100000000000001,8.1,19.6,-7.699999999999999,30.4
1698744133554.0,16,-3.3000000000000003,3.1,4.5,-3.0,11.8,8.5,6.2,-26.8,41.0
1698744133571.0,16,-0.1,-1.1,0.7000000000000001,-1.7000000000000002,9.8,6.300000000000001,-3.3000000000000003,-30.7,37.800000000000004
1698744133588.0,16,1.4000000000000001,-1.6,0.9,1.8,7.1000000000000005,4.9,16.900000000000002,-23.1,12.700000000000001
1698744133605.0,16,1.5,0.2,3.2,2.0,8.9,7.1000000000000005,31.4,-20.5,15.7
1698744133621.0,16,-1.0,1.2000000000000002,2.8000000000000003,-0.4,9.9,6.800000000000001,-11.3,-10.0,18.3
1698744133637.0,16,-1.5,1.1,2.4000000000000004,-0.9,9.600000000000001,6.2,-16.700000000000003,-7.300000000000001,12.4
1698744133655.0,16,-1.4000000000000001,0.5,1.8,-0.8,9.200000000000001,5.9,-4.9,-11.5,4.3999999999999995
1698744133671.0,16,-0.9,-0.2,1.5,-0.6000000000000001,8.8,5.7,1.4,-14.3,-3.6
1698744133689.0,16,-0.8,-0.6000000000000001,1.3,-0.2,8.0,5.4,-6.1000000000000005,-11.4,-11.3
1698744133704.0,16,-0.7000000000000001,-0.7000000000000001,0.9,-0.1,7.9,5.0,-11.2,-10.9,-15.399999999999999
1698744133720.0,16,-0.4,-0.9,0.5,0.1,7.800000000000001,4.7,-10.1,-8.3,-20.5
1698744133737.0,16,-0.2,-1.2000000000000002,0.7000000000000001,0.2,7.6000000000000005,4.800000000000001,-10.5,-5.0,-22.7
1698744133754.0,16,-0.1,-1.3,0.7000000000000001,0.4,7.300000000000001,4.9,-11.3,3.9,-22.7
1698744133771.0,16,-0.2,-1.1,0.5,0.2,7.5,4.800000000000001,-12.3,9.4,-18.400000000000002
1698744133787.0,16,-0.2,-0.9,0.2,0.2,7.6000000000000005,4.7,-11.8,10.700000000000001,-13.8
1698744133807.0,16,-0.2,-0.9,0.1,0.1,7.7,4.5,-11.000000000000002,10.9,-12.5
1698744133821.0,16,-0.1,-0.8,0.1,0.1,7.7,4.4,-9.9,11.5,-9.9
1698744133837.0,16,0.0,-0.8,0.0,0.2,7.7,4.4,-10.2,10.9,-6.1000000000000005
1698744133855.0,16,-0.2,-0.8,0.0,0.0,7.7,4.4,-10.2,11.5,-4.2
1698744133872.0,16,-0.30000000000000004,-0.8,-0.1,-0.1,7.7,4.4,-10.2,12.700000000000001,-2.1
1698744133887.0,16,-0.30000000000000004,-0.6000000000000001,-0.1,-0.2,7.800000000000001,4.3,-11.1,12.8,1.5000000000000002
1698744133904.0,16,-0.4,-0.6000000000000001,-0.2,-0.30000000000000004,7.9,4.3,-11.4,12.5,3.5
1698744133921.0,16,-0.6000000000000001,-0.5,-0.4,-0.5,8.0,4.1000000000000005,-11.700000000000001,13.8,5.2
1698744133937.0,16,-0.6000000000000001,-0.5,-0.6000000000000001,-0.5,7.9,4.0,-11.1,12.8,5.4
1698744133954.0,16,-0.6000000000000001,-0.6000000000000001,-0.7000000000000001,-0.5,7.800000000000001,3.9000000000000004,-10.5,12.100000000000001,6.6000000000000005
1698744133971.0,16,-0.8,-0.5,-0.9,-0.7000000000000001,7.9,3.7,-10.3,10.0,9.700000000000001
1698744133987.0,16,-0.9,-0.5,-1.2000000000000002,-0.7000000000000001,7.9,3.4000000000000004,-9.8,9.600000000000001,10.9
1698744134004.0,16,-0.5,-0.7000000000000001,-1.2000000000000002,-0.4,7.6000000000000005,3.4000000000000004,-7.2,6.7,11.3
1698744134020.0,16,-0.4,-0.7000000000000001,-1.2000000000000002,-0.2,7.6000000000000005,3.4000000000000004,-5.0,6.000000000000001,11.8
1698744134037.0,16,-0.30000000000000004,-0.5,-1.0,-0.1,7.800000000000001,3.6,-2.1,6.1000000000000005,13.0
1698744134054.0,16,-0.30000000000000004,-0.30000000000000004,-1.0,-0.30000000000000004,8.200000000000001,3.6,-2.3000000000000003,8.5,15.7
1698744134070.0,16,-0.8,-0.1,-0.9,-0.6000000000000001,8.200000000000001,3.8000000000000003,-2.1999999999999997,9.200000000000001,18.0
1698744134087.0,16,-0.9,0.1,-0.7000000000000001,-0.7000000000000001,8.4,3.9000000000000004,-0.2,11.700000000000001,20.5
1698744134104.0,16,-0.5,0.8,-0.9,-0.2,9.1,3.7,-0.7,7.300000000000001,16.2
1698744134121.0,16,-0.30000000000000004,1.3,-1.2000000000000002,0.0,9.600000000000001,3.5,-1.6,3.0000000000000004,12.3
1698744134137.0,16,-0.8,1.8,-1.8,-0.5,10.100000000000001,2.8000000000000003,-1.6,-5.500000000000001,5.500000000000001
1698744134155.0,16,-2.2,2.4000000000000004,-1.2000000000000002,-1.9000000000000001,10.8,3.4000000000000004,2.5,-9.600000000000001,-0.8
1698744134170.0,16,-1.9000000000000001,2.5,-0.30000000000000004,-1.7000000000000002,10.8,4.3,6.2,-4.5,-6.7
1698744134187.0,16,-0.4,1.1,0.2,-0.1,9.5,4.7,11.6,10.2,-11.5
1698744134204.0,16,0.2,0.8,-0.1,0.4,9.200000000000001,4.5,15.6,17.7,-6.7
1698744134221.0,16,1.3,0.4,-0.5,1.5,8.9,3.9000000000000004,22.7,27.0,1.9
1698744134237.0,16,0.8,0.1,-0.1,1.0,8.6,4.2,20.8,35.7,7.0
1698744134254.0,16,-0.7000000000000001,0.1,0.0,0.2,8.6,4.2,19.0,39.50000000000001,9.0
1698744134271.0,16,-1.1,0.1,0.30000000000000004,-1.0,8.6,4.6000000000000005,15.8,39.300000000000004,5.300000000000001
1698744134287.0,16,-0.9,-0.2,1.9000000000000001,-0.9,8.3,6.2,18.400000000000002,26.0,-8.600000000000001
1698744134304.0,16,-0.7000000000000001,-0.4,2.3000000000000003,-0.7000000000000001,8.1,6.5,15.5,28.900000000000002,-20.7
1698744134321.0,16,-0.4,-0.4,2.3000000000000003,-0.5,8.1,6.6000000000000005,9.8,30.9,-23.2
1698744134337.0,16,1.2000000000000002,-0.6000000000000001,2.6,0.9,8.0,6.9,2.5,33.2,-27.400000000000002
1698744134355.0,16,1.7000000000000002,-0.6000000000000001,2.5,1.4000000000000001,8.0,6.800000000000001,1.4,33.2,-25.700000000000003
1698744134370.0,16,1.6,-0.2,2.3000000000000003,1.2000000000000002,8.4,6.6000000000000005,-3.8,37.800000000000004,-14.800000000000002
1698744134387.0,16,1.1,-0.2,2.1,0.6000000000000001,8.4,6.4,-7.8,45.800000000000004,-4.3999999999999995
1698744134404.0,16,0.7000000000000001,0.0,2.0,0.2,8.5,6.300000000000001,-10.700000000000001,51.1,4.3999999999999995
1698744134421.0,16,0.6000000000000001,0.0,1.7000000000000002,0.0,8.5,6.1000000000000005,-12.700000000000001,53.2,6.9
1698744134437.0,16,0.7000000000000001,-0.1,1.4000000000000001,0.1,8.4,5.800000000000001,-14.500000000000002,55.800000000000004,9.0
1698744134454.0,16,0.7000000000000001,-0.2,1.4000000000000001,-0.1,8.3,5.7,-14.800000000000002,55.800000000000004,13.100000000000001
1698744134472.0,16,0.4,-0.1,1.1,-0.2,8.4,5.6000000000000005,-17.9,55.800000000000004,16.700000000000003
1698744134488.0,16,0.5,-0.5,0.8,-0.1,7.9,5.300000000000001,-21.0,52.7,23.3
1698744134504.0,16,0.7000000000000001,-0.7000000000000001,0.7000000000000001,0.0,7.7,5.300000000000001,-17.9,50.5,26.1
1698744134521.0,16,0.8,-0.8,0.6000000000000001,0.1,7.5,5.2,-11.1,47.2,30.7
1698744134538.0,16,0.5,-0.7000000000000001,0.5,-0.2,7.7,5.1000000000000005,-11.6,47.5,32.9
1698744134555.0,16,0.30000000000000004,-0.5,0.2,-0.30000000000000004,7.800000000000001,5.0,-11.9,47.900000000000006,33.6
1698744134571.0,16,0.30000000000000004,-0.5,0.1,-0.30000000000000004,7.9,4.800000000000001,-8.600000000000001,47.2,33.7
1698744134587.0,16,0.5,-0.5,0.0,-0.1,7.800000000000001,4.7,-4.5,46.4,33.0
1698744134604.0,16,0.8,-0.4,0.1,0.1,7.9,4.7,-4.0,46.2,33.400000000000006
1698744134621.0,16,0.8,-0.4,0.1,0.30000000000000004,8.0,4.7,-5.500000000000001,51.2,36.3
1698744134637.0,16,0.8,-0.30000000000000004,0.0,0.30000000000000004,8.0,4.7,-5.500000000000001,54.0,37.800000000000004
1698744134654.0,16,0.8,-0.4,0.1,0.30000000000000004,8.0,4.7,-5.1,56.1,39.2
1698744134671.0,16,0.6000000000000001,-0.2,0.1,0.1,8.1,4.800000000000001,-3.5,59.400000000000006,41.800000000000004
1698744134687.0,16,0.7000000000000001,-0.2,0.2,0.30000000000000004,8.200000000000001,4.9,-2.5,65.89999999999999,44.00000000000001
1698744134704.0,16,1.1,-0.1,0.0,0.7000000000000001,8.3,4.7,0.5,75.0,47.0
1698744134721.0,16,1.3,-0.1,0.0,0.9,8.3,4.6000000000000005,2.4000000000000004,79.7,48.1
1698744134737.0,16,1.6,-0.30000000000000004,0.0,1.2000000000000002,8.1,4.7,6.2,86.80000000000001,51.6
1698744134754.0,16,1.4000000000000001,-0.30000000000000004,0.0,0.9,8.200000000000001,4.5,6.6000000000000005,90.4,54.5
1698744134771.0,16,1.3,-0.4,-0.30000000000000004,0.9,8.0,4.3,5.9,99.10000000000001,57.6
1698744134787.0,16,1.2000000000000002,-0.4,-0.5,0.9,8.0,4.1000000000000005,6.8,103.5,56.5
1698744134805.0,16,1.3,-0.7000000000000001,-0.7000000000000001,1.0,7.7,3.8000000000000003,9.600000000000001,115.8,54.9
1698744134821.0,16,1.4000000000000001,-1.2000000000000002,-1.2000000000000002,1.0,7.5,3.5,11.700000000000001,122.8,54.3
1698744134837.0,16,1.5,-1.4000000000000001,-1.4000000000000001,1.2000000000000002,7.0,3.0,15.7,139.60000000000002,53.6
1698744134854.0,16,1.8,-1.1,-0.8,1.3,7.4,3.5,18.400000000000002,151.4,53.1
1698744134871.0,16,0.9,0.1,0.30000000000000004,-0.9,9.8,5.6000000000000005,5.1,149.9,65.8
1698744134887.0,16,-2.1,2.5,2.8000000000000003,-2.5,11.0,7.1000000000000005,-14.900000000000002,141.2,76.1
1698744134904.0,16,-6.6000000000000005,2.0,2.4000000000000004,-5.0,11.4,7.800000000000001,-50.300000000000004,134.1,95.0
1698744134920.0,16,-6.4,0.1,1.3,-6.800000000000001,8.5,5.7,-44.7,132.0,91.4
1698744134938.0,16,-1.0,-2.2,0.1,-1.5,6.300000000000001,4.6000000000000005,10.4,105.60000000000001,60.300000000000004
1698744134955.0,16,2.1,0.4,0.9,1.6,8.9,5.300000000000001,25.400000000000002,94.7,51.7
1698744134970.0,16,2.2,0.8,0.30000000000000004,1.8,9.3,4.7,-4.800000000000001,111.80000000000001,52.1
1698744134988.0,16,1.3,0.8,0.30000000000000004,0.9,9.3,4.7,-12.6,119.0,53.400000000000006
1698744135004.0,16,-0.7000000000000001,0.30000000000000004,0.0,-1.2000000000000002,8.8,4.4,1.8,125.2,59.400000000000006
1698744135020.0,16,-0.9,-0.2,0.0,-1.4000000000000001,8.3,4.3,8.9,132.5,63.70000000000001
1698744135037.0,16,-0.7000000000000001,-0.30000000000000004,-0.2,-1.2000000000000002,8.200000000000001,4.1000000000000005,5.2,137.20000000000002,67.7
1698744135054.0,16,-0.5,-0.30000000000000004,-0.5,-0.9,8.3,3.8000000000000003,0.7,143.8,75.5
1698744135071.0,16,-0.7000000000000001,0.1,-0.4,-1.1,8.6,3.8000000000000003,0.6000000000000001,141.1,79.3
1698744135087.0,16,-0.9,0.1,-0.4,-1.4000000000000001,8.6,3.8000000000000003,-0.4,139.4,78.80000000000001
1698744135104.0,16,-1.1,-0.1,-0.30000000000000004,-1.6,8.5,4.0,0.4,133.70000000000002,74.30000000000001
1698744135122.0,16,-1.1,-0.2,-0.2,-1.5,8.4,4.1000000000000005,5.1,128.60000000000002,67.9
1698744135138.0,16,-1.0,-0.1,-0.2,-1.4000000000000001,8.5,4.0,5.9,127.2,65.60000000000001
1698744135154.0,16,-1.1,-0.2,-0.4,-1.6,8.4,3.7,3.6,126.8,64.4
1698744135172.0,16,-1.3,-0.30000000000000004,-0.5,-1.7000000000000002,8.3,3.6,2.8,125.80000000000001,65.3
1698744135187.0,16,-1.4000000000000001,-0.5,-0.4,-1.8,8.200000000000001,3.7,2.9,121.19999999999999,66.0
1698744135204.0,16,-1.5,0.1,-0.30000000000000004,-1.9000000000000001,8.8,3.8000000000000003,2.7,117.20000000000002,64.30000000000001
1698744135221.0,16,-1.3,0.2,-0.2,-1.7000000000000002,8.8,3.9000000000000004,1.7,115.7,63.300000000000004
1698744135238.0,16,-1.2000000000000002,0.2,-0.30000000000000004,-1.6,8.8,3.7,2.5,111.70000000000002,59.5
1698744135257.0,16,-1.4000000000000001,0.2,-0.30000000000000004,-1.8,8.9,3.7,4.2,106.80000000000001,54.9
1698744135271.0,16,-1.5,0.30000000000000004,-0.30000000000000004,-1.9000000000000001,8.9,3.7,3.3000000000000003,104.60000000000001,53.2
1698744135288.0,16,-1.6,0.0,-0.2,-2.0,8.700000000000001,3.7,1.3,102.0,50.7
1698744135305.0,16,-1.7000000000000002,0.1,-0.1,-2.1,8.700000000000001,3.8000000000000003,4.6000000000000005,95.1,47.5
1698744135322.0,16,-1.5,0.0,0.1,-2.0,8.8,4.0,5.4,95.3,45.9
1698744135337.0,16,-1.6,0.0,0.1,-2.0,8.8,4.0,2.1999999999999997,92.60000000000001,42.7
1698744135354.0,16,-1.7000000000000002,0.2,0.0,-2.1,8.9,3.8000000000000003,1.4,92.30000000000001,42.300000000000004
1698744135371.0,16,-1.7000000000000002,0.1,-0.1,-2.1,8.8,3.8000000000000003,1.2000000000000002,89.10000000000001,42.0
1698744135387.0,16,-1.8,0.0,-0.2,-2.2,8.8,3.7,1.5000000000000002,86.2,41.4
1698744135404.0,16,-1.8,-0.1,-0.30000000000000004,-2.2,8.700000000000001,3.6,1.4,83.30000000000001,40.3
1698744135421.0,16,-1.9000000000000001,-0.2,-0.30000000000000004,-2.3000000000000003,8.6,3.6,0.5,76.4,38.7
1698744135437.0,16,-2.0,-0.2,-0.30000000000000004,-2.4000000000000004,8.6,3.6,1.5000000000000002,67.5,36.6
1698744135455.0,16,-2.0,-0.4,-0.30000000000000004,-2.4000000000000004,8.4,3.6,1.0,58.3,35.5
1698744135472.0,16,-2.4000000000000004,0.30000000000000004,-0.2,-2.7,8.6,3.6,0.7,51.6,34.800000000000004
1698744135489.0,16,-2.2,0.0,-0.1,-2.6,8.8,3.7,1.0999999999999999,45.9,33.1
1698744135504.0,16,-2.2,0.0,-0.1,-2.5,8.8,3.7,2.0,35.5,31.5
1698744135521.0,16,-2.1,0.0,0.0,-2.4000000000000004,8.700000000000001,3.7,2.1999999999999997,31.3,31.0
1698744135537.0,16,-1.8,-0.30000000000000004,-0.1,-2.1,8.4,3.7,2.6,24.1,28.900000000000002
1698744135554.0,16,-2.2,0.2,-0.1,-2.4000000000000004,9.0,3.7,3.2,16.6,26.8
1698744135571.0,16,-1.8,0.1,0.1,-2.1,8.9,3.8000000000000003,3.0000000000000004,18.5,26.1
1698744135589.0,16,-1.5,-0.30000000000000004,-0.1,-1.6,8.4,3.7,4.1000000000000005,15.2,23.3
1698744135604.0,16,-1.2000000000000002,-0.30000000000000004,0.0,-1.4000000000000001,8.5,3.7,4.300000000000001,14.600000000000001,21.8
1698744135620.0,16,-1.1,-0.1,0.1,-1.2000000000000002,8.700000000000001,3.8000000000000003,2.3000000000000003,17.3,20.7
1698744135637.0,16,-0.9,-0.1,0.2,-1.0,8.700000000000001,3.9000000000000004,2.1999999999999997,18.8,20.1
1698744135654.0,16,-0.6000000000000001,0.30000000000000004,0.2,-0.7000000000000001,9.1,3.9000000000000004,3.0000000000000004,21.400000000000002,18.3
1698744135670.0,16,-0.4,0.8,0.7000000000000001,-0.5,9.600000000000001,4.4,1.0,24.1,16.0
1698744135687.0,16,-0.6000000000000001,1.0,0.1,-0.7000000000000001,9.8,3.9000000000000004,-1.0,29.1,12.700000000000001
1698744135704.0,16,-1.1,0.9,-0.1,-1.2000000000000002,9.700000000000001,3.6,-2.6,30.7,12.000000000000002
1698744135720.0,16,-1.9000000000000001,0.4,-0.5,-2.0,9.200000000000001,3.3000000000000003,-2.8,27.900000000000002,9.9
1698744135737.0,16,-2.2,0.1,-0.5,-2.3000000000000003,9.0,3.2,-2.4000000000000004,24.400000000000002,8.200000000000001
1698744135755.0,16,-2.1,-0.1,-0.5,-2.2,8.700000000000001,3.2,-1.8,15.2,3.6
1698744135771.0,16,-1.3,0.0,-0.1,-1.4000000000000001,8.8,3.6,1.2000000000000002,5.300000000000001,-1.6
1698744135787.0,16,-0.9,0.4,0.1,-1.0,9.200000000000001,3.9000000000000004,2.9,6.000000000000001,-4.5
1698744135805.0,16,0.30000000000000004,-0.2,0.30000000000000004,0.1,8.6,4.0,4.7,12.4,-7.500000000000001
1698744135821.0,16,0.6000000000000001,-0.30000000000000004,0.6000000000000001,0.30000000000000004,8.5,4.2,4.7,23.1,-4.3999999999999995
1698744135838.0,16,0.7000000000000001,-0.6000000000000001,0.6000000000000001,0.5,8.200000000000001,4.2,5.4,32.9,3.0000000000000004
1698744135854.0,16,0.9,-0.7000000000000001,0.6000000000000001,0.6000000000000001,8.1,4.2,6.3,35.0,6.8
1698744135871.0,16,1.4000000000000001,-1.0,0.8,1.1,7.800000000000001,4.4,5.6,41.1,14.600000000000001
1698744135888.0,16,1.5,-1.5,0.7000000000000001,1.2000000000000002,7.4,4.3,4.9,44.00000000000001,17.400000000000002
1698744135904.0,16,1.8,-1.4000000000000001,0.4,1.5,7.4,4.0,7.6,57.6,21.900000000000002
1698744135920.0,16,2.3000000000000003,-1.3,0.5,2.1,7.6000000000000005,4.1000000000000005,13.3,69.2,23.8
1698744135938.0,16,2.8000000000000003,-1.1,0.7000000000000001,2.4000000000000004,7.6000000000000005,4.2,14.600000000000001,75.80000000000001,24.3
1698744135954.0,16,2.7,-0.8,0.9,2.5,8.1,4.4,11.1,91.50000000000001,27.900000000000002
1698744135971.0,16,2.5,-0.2,1.3,2.3000000000000003,8.700000000000001,4.800000000000001,0.4,104.7,40.6
1698744135987.0,16,2.0,0.0,1.2000000000000002,1.8,8.9,4.7,-8.200000000000001,113.7,51.2
1698744136004.0,16,1.7000000000000002,0.30000000000000004,1.1,1.5,9.1,4.7,-10.0,115.0,54.7
1698744136020.0,16,0.8,1.0,0.9,0.7000000000000001,9.9,4.5,-14.700000000000001,115.39999999999999,58.7
1698744136037.0,16,0.2,2.0,1.0,0.1,10.8,4.7,-20.6,113.0,59.9
1698744136054.0,16,0.0,2.2,0.8,0.0,11.0,4.5,-20.3,111.30000000000001,60.1
1698744136071.0,16,-0.1,2.0,0.6000000000000001,-0.1,10.8,4.4,-16.6,108.10000000000001,61.50000000000001
1698744136088.0,16,-0.30000000000000004,1.6,0.5,-0.30000000000000004,10.4,4.3,-15.399999999999999,105.10000000000001,62.6
1698744136104.0,16,-0.6000000000000001,1.0,0.30000000000000004,-0.5,9.8,4.1000000000000005,-17.400000000000002,103.4,64.50000000000001
1698744136120.0,16,-0.7000000000000001,0.5,0.0,-0.6000000000000001,9.200000000000001,3.9000000000000004,-19.700000000000003,100.2,65.8
1698744136137.0,16,-0.9,0.4,-0.5,-0.7000000000000001,9.200000000000001,3.7,-19.200000000000003,98.4,66.2
1698744136154.0,16,-0.9,0.2,-0.7000000000000001,-0.7000000000000001,9.0,3.3000000000000003,-17.200000000000003,93.2,65.5
1698744136172.0,16,-0.9,-0.2,-0.9,-0.6000000000000001,8.5,3.1,-15.100000000000001,85.7,63.4
1698744136188.0,16,-1.0,-0.4,-1.0,-0.7000000000000001,8.3,3.1,-14.200000000000001,80.5,62.7
1698744136206.0,16,-1.2000000000000002,-0.6000000000000001,-1.2000000000000002,-0.8,8.1,2.9000000000000004,-12.000000000000002,72.10000000000001,60.5
1698744136221.0,16,-1.0,-0.7000000000000001,-1.5,-0.5,7.9,2.7,-10.2,63.300000000000004,55.6
1698744136238.0,16,-1.0,-0.6000000000000001,-1.4000000000000001,-0.5,7.9,2.7,-8.5,58.1,52.300000000000004
1698744136255.0,16,-1.1,-0.5,-1.5,-0.5,8.1,2.7,-5.1,50.800000000000004,45.9
1698744136270.0,16,-1.0,-0.5,-1.7000000000000002,-0.4,8.1,2.5,-4.300000000000001,45.4,39.6
1698744136287.0,16,-0.9,-0.4,-1.8,-0.2,8.200000000000001,2.3000000000000003,-3.1,40.5,34.50000000000001
1698744136304.0,16,-0.9,-0.4,-1.7000000000000002,-0.2,8.1,2.5,-0.6000000000000001,32.2,29.600000000000005
1698744136321.0,16,-0.9,-0.4,-1.7000000000000002,-0.2,8.200000000000001,2.4000000000000004,1.0999999999999999,31.3,27.8
1698744136337.0,16,-0.9,-0.30000000000000004,-1.8,-0.2,8.200000000000001,2.4000000000000004,1.0999999999999999,31.3,27.8
1698744136353.0,16,-0.5,-0.5,-1.9000000000000001,0.2,8.0,2.2,4.3999999999999995,26.3,18.400000000000002
1698744136371.0,16,-0.5,-0.6000000000000001,-1.8,0.2,8.0,2.3000000000000003,7.300000000000001,24.5,16.400000000000002
1698744136387.0,16,0.0,-0.6000000000000001,-1.6,0.7000000000000001,8.0,2.4000000000000004,14.500000000000002,17.1,13.3
1698744136404.0,16,-0.1,-0.7000000000000001,-1.6,0.7000000000000001,7.800000000000001,2.4000000000000004,20.8,8.9,11.700000000000001
1698744136422.0,16,-0.1,-0.6000000000000001,-1.7000000000000002,0.6000000000000001,8.0,2.3000000000000003,22.000000000000004,6.3,11.5
1698744136437.0,16,-0.30000000000000004,0.1,-1.8,0.5,8.8,2.0,21.3,5.2,13.100000000000001
1698744136454.0,16,0.1,1.2000000000000002,-1.0,0.9,9.8,2.8000000000000003,21.700000000000003,6.6000000000000005,16.3
1698744136472.0,16,-0.1,1.7000000000000002,-0.2,0.7000000000000001,10.3,3.6,23.5,3.8,20.7
1698744136488.0,16,-1.1,2.0,0.8,-0.2,10.700000000000001,4.5,24.6,-8.4,29.500000000000004
1698744136504.0,16,-0.7000000000000001,1.0,0.6000000000000001,-0.1,10.200000000000001,4.1000000000000005,20.900000000000002,-19.3,31.4
1698744136520.0,16,-0.4,1.1,1.0,0.7000000000000001,9.9,4.6000000000000005,18.3,-27.8,24.000000000000004
1698744136537.0,16,0.8,1.9000000000000001,1.9000000000000001,2.0,10.700000000000001,5.5,28.200000000000003,-20.4,18.5
1698744136555.0,16,0.8,3.2,4.7,2.1,12.0,8.200000000000001,29.400000000000002,-10.2,22.4
1698744136571.0,16,0.1,3.8000000000000003,5.1000000000000005,1.6,11.5,6.9,28.1,-11.9,34.2
1698744136587.0,16,0.6000000000000001,0.8,2.6,2.1,9.700000000000001,6.0,4.6000000000000005,4.3999999999999995,40.2
1698744136604.0,16,1.4000000000000001,-0.2,3.0,2.6,8.8,6.1000000000000005,13.4,23.2,31.3
1698744136620.0,16,1.4000000000000001,-0.1,3.4000000000000004,3.0,8.700000000000001,6.800000000000001,21.400000000000002,28.200000000000003,31.900000000000002
1698744136637.0,16,-1.0,-0.30000000000000004,2.9000000000000004,0.7000000000000001,8.5,6.300000000000001,16.6,31.8,35.1
1698744136653.0,16,-1.9000000000000001,-0.6000000000000001,2.3000000000000003,-0.2,8.200000000000001,5.800000000000001,2.5,34.900000000000006,27.900000000000002
1698744136671.0,16,-2.0,-0.8,1.8,-0.30000000000000004,8.1,5.2,1.4,33.800000000000004,20.7
1698744136687.0,16,-1.7000000000000002,-1.1,1.2000000000000002,0.0,7.7,4.7,6.4,31.2,6.9
1698744136704.0,16,-1.5,-1.7000000000000002,1.1,0.2,7.1000000000000005,4.6000000000000005,11.2,29.000000000000004,1.3
1698744136720.0,16,-1.6,-1.7000000000000002,1.1,0.0,7.1000000000000005,4.5,9.8,28.700000000000003,1.7
1698744136737.0,16,-1.9000000000000001,-1.1,1.2000000000000002,-0.30000000000000004,7.7,4.6000000000000005,0.1,29.800000000000004,2.5
1698744136754.0,16,-1.9000000000000001,-0.6000000000000001,1.2000000000000002,-0.4,8.3,4.7,-9.600000000000001,32.7,-0.8
1698744136771.0,16,-2.1,-0.2,1.0,-0.7000000000000001,8.6,4.6000000000000005,-11.5,34.7,-3.5
1698744136787.0,16,-2.2,-0.6000000000000001,0.9,-0.8,8.200000000000001,4.5,-9.8,34.1,-9.4
1698744136805.0,16,-2.2,-1.0,0.6000000000000001,-0.9,7.800000000000001,4.3,-4.300000000000001,27.400000000000002,-14.800000000000002
1698744136821.0,16,-2.1,-1.1,0.5,-0.8,7.7,4.2,-1.8,17.5,-19.500000000000004
1698744136837.0,16,-1.6,-1.2000000000000002,0.4,-0.5,7.6000000000000005,4.1000000000000005,-1.9,14.700000000000001,-20.7
1698744136854.0,16,-1.1,-1.2000000000000002,0.4,0.0,7.6000000000000005,4.1000000000000005,-4.5,7.500000000000001,-20.4
1698744136871.0,16,-1.2000000000000002,-1.0,0.30000000000000004,-0.1,7.7,4.0,-5.4,6.1000000000000005,-19.400000000000002
1698744136888.0,16,-1.1,-0.8,0.2,-0.1,8.0,3.9000000000000004,-7.0,6.3,-17.599999999999998
1698744136904.0,16,-0.9,-0.8,0.1,0.0,7.9,3.9000000000000004,-6.6000000000000005,6.7,-16.2
1698744136921.0,16,-1.0,-0.8,0.0,-0.2,7.9,3.9000000000000004,-6.000000000000001,6.8,-15.7
1698744136937.0,16,-0.9,-0.7000000000000001,-0.1,-0.1,8.0,3.6,-5.9,9.600000000000001,-13.3
1698744136954.0,16,-0.7000000000000001,-0.4,-0.4,0.1,8.3,3.4000000000000004,-10.1,12.3,-11.1
1698744136970.0,16,-1.0,-0.30000000000000004,-0.6000000000000001,-0.1,8.4,3.3000000000000003,-13.0,14.0,-9.3
1698744136987.0,16,-1.1,-0.2,-0.8,-0.4,8.5,3.1,-16.8,15.299999999999999,-2.6
1698744137004.0,16,-1.1,-0.30000000000000004,-0.9,-0.5,8.4,3.0,-17.1,12.200000000000001,0.0
1698744137020.0,16,-1.1,-0.30000000000000004,-1.2000000000000002,-0.5,8.3,2.8000000000000003,-14.500000000000002,7.500000000000001,0.4
1698744137037.0,16,-1.0,-0.4,-1.2000000000000002,-0.4,8.200000000000001,2.7,-13.3,5.500000000000001,0.5
1698744137054.0,16,-0.7000000000000001,-0.8,-1.3,-0.2,8.0,2.7,-10.9,1.0999999999999999,1.6
1698744137070.0,16,-0.7000000000000001,-0.8,-1.2000000000000002,0.0,7.800000000000001,2.8000000000000003,-9.3,0.1,1.9
1698744137087.0,16,-0.7000000000000001,-0.6000000000000001,-1.0,-0.1,7.9,3.0,-5.7,4.0,2.3000000000000003
1698744137104.0,16,-0.7000000000000001,-0.1,-0.7000000000000001,-0.1,8.4,3.3000000000000003,-4.300000000000001,12.200000000000001,3.3000000000000003
1698744137121.0,16,-0.7000000000000001,0.0,-0.5,-0.1,8.6,3.5,-3.3000000000000003,17.5,3.4
1698744137137.0,16,-0.8,0.30000000000000004,-0.4,-0.2,8.9,3.6,-1.8,27.400000000000002,5.9
1698744137155.0,16,-0.1,1.1,-0.30000000000000004,0.4,9.700000000000001,3.7,-2.4000000000000004,27.900000000000002,6.4
1698744137170.0,16,0.30000000000000004,1.8,-0.30000000000000004,0.8,10.3,3.7,-2.9,24.400000000000002,2.8
1698744137188.0,16,-0.6000000000000001,3.0,-0.1,-0.1,11.600000000000001,4.0,-5.1,21.200000000000003,-3.6
1698744137204.0,16,-1.2000000000000002,3.2,0.2,-0.7000000000000001,11.8,4.3,-0.5,27.2,-12.100000000000001
1698744137221.0,16,-1.8,1.8,-0.30000000000000004,-1.5,10.4,3.8000000000000003,8.700000000000001,26.3,-13.200000000000001
1698744137237.0,16,-1.7000000000000002,1.4000000000000001,-0.2,-1.5,10.100000000000001,3.8000000000000003,12.5,22.4,-12.200000000000001
1698744137254.0,16,-1.4000000000000001,1.2000000000000002,0.1,-1.2000000000000002,9.9,4.1000000000000005,15.6,16.400000000000002,-11.6
1698744137270.0,16,-0.7000000000000001,1.0,1.2000000000000002,-0.5,9.8,5.2,14.700000000000001,18.8,-13.5
1698744137287.0,16,-0.30000000000000004,0.6000000000000001,1.5,-0.2,9.4,5.4,15.2,21.400000000000002,-15.5
1698744137304.0,16,-0.6000000000000001,-0.5,1.5,-0.6000000000000001,8.3,5.4,16.400000000000002,23.2,-17.3
1698744137320.0,16,-1.5,-1.3,0.6000000000000001,-1.0,7.800000000000001,4.800000000000001,15.9,19.700000000000003,-18.3
1698744137337.0,16,-1.7000000000000002,-1.5,0.9,-1.8,7.300000000000001,4.7,11.9,1.6,-19.0
1698744137354.0,16,-1.0,-1.6,1.7000000000000002,-1.2000000000000002,7.2,5.5,10.600000000000001,-12.4,-21.6
1698744137371.0,16,-0.2,-1.2000000000000002,2.0,-0.4,7.6000000000000005,5.800000000000001,8.700000000000001,-14.200000000000001,-21.900000000000002
1698744137387.0,16,1.0,-0.4,2.1,0.7000000000000001,8.3,5.9,4.2,-11.5,-21.5
1698744137405.0,16,0.8,-0.5,1.6,0.5,8.200000000000001,5.4,3.2,-5.8,-16.700000000000003
1698744137421.0,16,0.4,-0.6000000000000001,1.5,0.1,8.200000000000001,5.300000000000001,2.3000000000000003,-4.300000000000001,-11.6
1698744137438.0,16,-0.4,-0.2,1.5,-0.7000000000000001,8.6,5.300000000000001,-2.3000000000000003,-3.9,-3.3000000000000003
1698744137455.0,16,-0.6000000000000001,0.30000000000000004,1.5,-0.9,9.0,5.4,-5.7,-6.7,2.5
1698744137472.0,16,-0.30000000000000004,0.7000000000000001,1.2000000000000002,-0.8,9.4,5.300000000000001,-6.000000000000001,-8.600000000000001,5.0
1698744137488.0,16,-0.1,0.4,1.1,-0.30000000000000004,9.200000000000001,5.0,-5.500000000000001,-12.8,9.200000000000001
1698744137504.0,16,0.4,-0.4,0.7000000000000001,0.2,8.4,4.6000000000000005,-2.8,-16.1,12.5
1698744137521.0,16,0.30000000000000004,-0.9,0.5,0.2,7.800000000000001,4.5,-0.5,-16.0,15.6
1698744137538.0,16,0.4,-1.2000000000000002,0.30000000000000004,0.30000000000000004,7.5,4.3,-0.8,-15.100000000000001,17.200000000000003
1698744137554.0,16,0.2,-1.5,0.1,0.2,7.2,4.1000000000000005,-1.8,-13.3,21.200000000000003
1698744137575.0,16,0.1,-1.7000000000000002,0.0,0.2,7.0,4.0,-0.6000000000000001,-10.3,24.6
1698744137587.0,16,-0.1,-1.6,-0.1,0.0,7.1000000000000005,3.9000000000000004,-0.5,-9.200000000000001,26.8
1698744137604.0,16,0.0,-1.4000000000000001,-0.30000000000000004,0.2,7.300000000000001,3.6,-2.6,-5.0,28.500000000000004
1698744137620.0,16,0.2,-1.1,-0.8,0.6000000000000001,7.6000000000000005,3.2,-4.3999999999999995,-2.5,24.3
1698744137637.0,16,0.30000000000000004,-0.8,-1.0,0.6000000000000001,7.800000000000001,3.0,-5.8,-1.2000000000000002,22.1
1698744137654.0,16,0.30000000000000004,-0.5,-1.0,0.7000000000000001,8.1,3.0,-7.9,3.4,17.400000000000002
1698744137671.0,16,0.2,-0.6000000000000001,-0.9,0.8,8.0,3.0,-7.500000000000001,3.9,15.100000000000001
1698744137687.0,16,-0.1,-0.7000000000000001,-0.9,0.30000000000000004,7.9,3.1,-5.8,2.7,9.700000000000001
1698744137704.0,16,-0.30000000000000004,-0.9,-1.1,0.2,7.7,2.9000000000000004,-6.6000000000000005,3.9,6.6000000000000005
1698744137721.0,16,-0.1,-1.0,-1.3,0.4,7.6000000000000005,2.8000000000000003,-8.0,10.8,2.3000000000000003
1698744137737.0,16,0.0,-0.8,-1.4000000000000001,0.5,7.800000000000001,2.6,-7.400000000000001,8.799999999999999,1.6
1698744137754.0,16,-0.2,-0.1,-1.5,0.30000000000000004,8.5,2.6,-3.8,8.700000000000001,3.0000000000000004
1698744137771.0,16,0.0,0.2,-1.1,0.5,8.700000000000001,2.9000000000000004,2.7,4.3999999999999995,2.5
1698744137788.0,16,0.4,-0.2,-0.6000000000000001,1.0,8.6,3.1,6.8,-1.7,0.8
1698744137804.0,16,0.0,-0.2,-0.30000000000000004,0.5,8.4,3.7,12.3,-19.9,0.9
1698744137821.0,16,-0.6000000000000001,0.8,-1.2000000000000002,0.0,9.3,2.7,8.200000000000001,-15.5,5.2
1698744137837.0,16,-0.4,1.1,-1.8,0.2,9.700000000000001,2.1,5.4,-4.300000000000001,3.6
1698744137855.0,16,0.7000000000000001,2.5,-0.6000000000000001,1.3,11.100000000000001,3.3000000000000003,13.100000000000001,12.700000000000001,-0.5
1698744137871.0,16,-0.30000000000000004,2.1,0.6000000000000001,0.30000000000000004,10.8,4.4,26.400000000000002,-4.1000000000000005,13.8
1698744137887.0,16,-0.6000000000000001,1.6,3.2,0.0,10.4,7.0,21.400000000000002,-7.0,14.700000000000001
1698744137905.0,16,-1.1,2.5,4.9,-0.5,11.200000000000001,8.6,20.8,-9.1,21.3
1698744137920.0,16,-2.2,2.8000000000000003,5.4,-1.5,11.600000000000001,9.200000000000001,5.6,-26.9,35.8
1698744137938.0,16,0.2,-1.8,2.1,-0.30000000000000004,9.1,7.5,-8.9,-24.3,33.800000000000004
1698744137954.0,16,1.5,-2.4000000000000004,1.7000000000000002,2.4000000000000004,6.300000000000001,5.5,1.2000000000000002,-3.7000000000000006,10.9
1698744137970.0,16,1.8,-0.6000000000000001,3.2,2.7,8.200000000000001,7.0,20.6,3.5,12.200000000000001
1698744137987.0,16,-0.5,1.0,2.5,1.7000000000000002,9.3,6.9,14.4,2.6,17.9
1698744138004.0,16,-1.1,0.7000000000000001,2.3000000000000003,-0.1,9.5,6.1000000000000005,-19.8,11.700000000000001,22.900000000000002
1698744138021.0,16,-1.2000000000000002,-0.5,1.6,-0.2,8.200000000000001,5.5,-13.6,11.3,11.5
1698744138037.0,16,-1.0,-1.0,1.1,0.0,7.7,5.0,0.0,9.1,1.2000000000000002
1698744138054.0,16,-0.7000000000000001,-1.2000000000000002,1.1,0.30000000000000004,7.5,5.0,0.30000000000000004,8.600000000000001,-1.9
1698744138070.0,16,-0.5,-1.5,0.7000000000000001,0.5,7.2,4.7,-4.5,11.6,-2.8
1698744138087.0,16,-1.0,-1.5,0.4,-0.1,7.1000000000000005,4.4,-5.2,15.000000000000002,-2.4000000000000004
1698744138104.0,16,-1.2000000000000002,-1.6,0.30000000000000004,-0.30000000000000004,7.0,4.3,-2.8,15.2,-3.0000000000000004
1698744138120.0,16,-1.4000000000000001,-1.4000000000000001,0.30000000000000004,-0.5,7.2,4.3,2.3000000000000003,13.8,-3.6
1698744138137.0,16,-1.2000000000000002,-1.0,0.2,-0.30000000000000004,7.6000000000000005,4.2,3.2,11.8,-5.0
1698744138154.0,16,-1.0,-0.9,0.2,-0.2,7.7,4.2,2.9,8.5,-7.8
1698744138172.0,16,-1.0,-0.8,0.0,-0.2,7.9,4.0,3.9,4.7,-12.000000000000002
1698744138188.0,16,-0.9,-0.7000000000000001,-0.1,-0.2,7.9,3.9000000000000004,4.5,2.1999999999999997,-13.9
1698744138204.0,16,-0.7000000000000001,-0.6000000000000001,-0.1,0.0,8.1,3.8000000000000003,1.8,-2.4000000000000004,-12.3
1698744138220.0,16,-0.6000000000000001,-0.4,-0.2,0.0,8.200000000000001,3.7,-0.4,-3.9,-11.000000000000002
1698744138237.0,16,-1.1,-0.30000000000000004,-0.4,-0.5,8.4,3.6,-4.300000000000001,-3.1,-8.3
1698744138253.0,16,-1.2000000000000002,-0.2,-0.30000000000000004,-0.6000000000000001,8.4,3.6,-8.0,-3.4,-6.2
1698744138270.0,16,-1.4000000000000001,-0.2,-0.4,-0.8,8.4,3.6,-9.0,-4.5,-5.300000000000001
1698744138287.0,16,-1.6,-0.1,-0.6000000000000001,-1.2000000000000002,8.5,3.4000000000000004,-10.700000000000001,-7.699999999999999,-3.8
1698744138303.0,16,-1.9000000000000001,-0.1,-0.6000000000000001,-1.4000000000000001,8.4,3.4000000000000004,-11.000000000000002,-14.500000000000002,-4.3999999999999995
1698744138320.0,16,-1.7000000000000002,-0.2,-0.8,-1.2000000000000002,8.3,3.3000000000000003,-9.700000000000001,-17.200000000000003,-5.8
1698744138337.0,16,-1.1,-0.5,-1.2000000000000002,-0.5,8.1,2.8000000000000003,-5.2,-28.200000000000003,-8.3
1698744138353.0,16,-0.7000000000000001,-0.30000000000000004,-1.2000000000000002,-0.2,8.3,2.8000000000000003,-2.4000000000000004,-37.300000000000004,-9.8
1698744138370.0,16,-0.9,-0.1,-0.8,-0.30000000000000004,8.5,3.2,-1.3,-38.2,-11.000000000000002
1698744138387.0,16,-1.0,-0.1,-0.30000000000000004,-0.5,8.5,3.7,3.5,-20.0,-16.900000000000002
1698744138404.0,16,-0.9,-0.30000000000000004,-0.4,-0.2,8.3,3.3000000000000003,10.0,-2.0,-18.3
1698744138420.0,16,-0.4,-0.2,-1.2000000000000002,0.1,8.4,2.8000000000000003,10.700000000000001,1.4,-20.0
1698744138437.0,16,0.1,1.0,-1.4000000000000001,0.5,9.600000000000001,2.6,8.4,-0.2,-24.6
1698744138453.0,16,-0.30000000000000004,1.8,0.2,0.0,10.4,4.1000000000000005,10.8,-0.5,-29.1
1698744138470.0,16,-1.0,1.6,0.30000000000000004,-0.7000000000000001,10.3,4.2,16.0,3.8,-30.9
1698744138487.0,16,-1.8,0.8,-0.1,-1.7000000000000002,9.5,3.7,26.700000000000003,3.6,-36.2
1698744138503.0,16,-1.0,0.2,0.9,-1.0,9.0,4.6000000000000005,34.900000000000006,-6.000000000000001,-38.0
1698744138521.0,16,0.1,0.30000000000000004,1.4000000000000001,0.0,9.1,5.1000000000000005,35.0,-9.700000000000001,-38.800000000000004
1698744138537.0,16,2.1,1.2000000000000002,3.6,2.0,10.0,7.2,24.9,-16.0,-42.400000000000006
1698744138554.0,16,2.9000000000000004,1.3,3.7,2.5,10.700000000000001,8.5,15.000000000000002,2.4000000000000004,-56.900000000000006
1698744138572.0,16,1.8,0.1,2.2,1.4000000000000001,8.9,5.800000000000001,8.700000000000001,7.8,-58.1
1698744138587.0,16,-0.30000000000000004,-0.2,2.0,-0.8,8.700000000000001,5.6000000000000005,1.5000000000000002,-5.6,-41.1
1698744138603.0,16,-1.0,-0.30000000000000004,1.8,-1.6,8.5,5.4,-1.9,-20.7,-37.800000000000004
1698744138620.0,16,-0.8,-0.1,1.7000000000000002,-1.4000000000000001,8.700000000000001,5.300000000000001,-3.4,-27.6,-35.6
1698744138637.0,16,0.4,0.5,2.7,-0.30000000000000004,9.3,6.300000000000001,-5.8,-35.3,-35.1
1698744138653.0,16,2.1,0.4,2.5,1.3,9.200000000000001,6.2,-10.2,-37.5,-37.6
1698744138671.0,16,2.4000000000000004,0.0,1.9000000000000001,1.6,8.8,5.7,-15.299999999999999,-40.1,-35.6
1698744138687.0,16,1.6,-0.9,1.3,0.8,7.800000000000001,5.2,-19.3,-44.2,-29.900000000000006
1698744138703.0,16,0.1,-0.4,1.3,-0.7000000000000001,8.3,5.2,-20.2,-46.2,-24.7
1698744138720.0,16,-0.30000000000000004,-0.1,1.1,-1.1,8.6,5.1000000000000005,-27.400000000000002,-51.1,-22.4
1698744138737.0,16,0.30000000000000004,-0.1,0.7000000000000001,-0.5,8.6,4.800000000000001,-27.8,-56.400000000000006,-22.7
1698744138753.0,16,1.0,-0.5,0.7000000000000001,0.2,8.1,4.800000000000001,-19.8,-65.89999999999999,-24.3
1698744138770.0,16,1.0,-0.7000000000000001,0.5,0.30000000000000004,7.9,4.7,-16.900000000000002,-68.2,-24.3
1698744138787.0,16,0.7000000000000001,-0.8,0.30000000000000004,0.0,7.7,4.6000000000000005,-18.3,-70.3,-24.7
1698744138804.0,16,0.5,-1.0,-0.2,-0.2,7.5,4.2,-19.8,-73.60000000000001,-25.5
1698744138820.0,16,0.5,-1.1,-0.4,-0.2,7.4,4.0,-16.400000000000002,-75.5,-26.9
1698744138837.0,16,0.6000000000000001,-1.2000000000000002,-0.5,0.0,7.300000000000001,4.0,-14.0,-77.80000000000001,-28.500000000000004
1698744138854.0,16,0.8,-1.2000000000000002,-0.6000000000000001,0.30000000000000004,7.300000000000001,3.9000000000000004,-10.2,-77.7,-31.7
1698744138870.0,16,1.0,-1.1,-0.6000000000000001,0.5,7.300000000000001,4.0,-9.3,-78.00000000000001,-33.2
1698744138887.0,16,1.1,-0.9,-0.6000000000000001,0.5,7.4,4.0,-8.799999999999999,-77.2,-37.1
1698744138904.0,16,1.2000000000000002,-1.0,-0.7000000000000001,0.7000000000000001,7.300000000000001,3.9000000000000004,-6.3,-74.7,-37.7
1698744138922.0,16,1.1,-1.0,-0.8,0.6000000000000001,7.300000000000001,3.9000000000000004,-4.6000000000000005,-73.60000000000001,-38.5
1698744138937.0,16,1.1,-0.9,-0.8,0.7000000000000001,7.4,3.8000000000000003,-1.0,-69.5,-38.5
1698744138954.0,16,1.2000000000000002,-0.7000000000000001,-0.9,0.7000000000000001,7.6000000000000005,3.7,2.0,-65.89999999999999,-38.300000000000004
1698744138971.0,16,1.2000000000000002,-0.6000000000000001,-0.9,0.7000000000000001,7.7,3.7,3.5,-64.50000000000001,-38.1
1698744138987.0,16,1.4000000000000001,-0.5,-0.9,0.9,7.800000000000001,3.7,7.6,-62.1,-37.900000000000006
1698744139004.0,16,1.4000000000000001,-0.4,-1.0,1.0,7.800000000000001,3.6,10.4,-61.199999999999996,-37.6
1698744139021.0,16,1.1,-0.4,-1.0,0.7000000000000001,7.9,3.5,17.7,-61.4,-34.6
1698744139037.0,16,1.1,-0.5,-1.1,0.6000000000000001,7.9,3.3000000000000003,19.9,-61.199999999999996,-33.400000000000006
1698744139054.0,16,0.7000000000000001,-0.6000000000000001,-1.0,0.30000000000000004,7.800000000000001,3.4000000000000004,21.400000000000002,-65.3,-31.0
1698744139071.0,16,0.6000000000000001,-0.7000000000000001,-0.7000000000000001,0.1,7.5,3.9000000000000004,21.900000000000002,-68.0,-29.1
1698744139087.0,16,0.30000000000000004,-0.8,0.1,-0.1,7.6000000000000005,4.5,23.8,-75.80000000000001,-28.1
1698744139105.0,16,-1.5,1.0,2.3000000000000003,-1.9000000000000001,9.4,6.5,22.7,-75.9,-17.9
1698744139121.0,16,-2.7,2.3000000000000003,1.9000000000000001,-3.0,10.8,6.2,15.7,-74.60000000000001,-4.7
1698744139137.0,16,-1.5,0.5,0.1,-1.8,9.0,4.4,-2.3000000000000003,-82.30000000000001,3.3000000000000003
1698744139154.0,16,-0.6000000000000001,-1.5,-0.5,-0.8,7.0,3.8000000000000003,4.300000000000001,-84.60000000000001,-8.3
1698744139172.0,16,2.1,0.5,1.2000000000000002,2.0,9.0,5.300000000000001,43.800000000000004,-104.3,-17.3
1698744139187.0,16,0.5,1.8,1.7000000000000002,0.6000000000000001,10.4,5.800000000000001,34.0,-112.1,-14.3
1698744139204.0,16,-3.1,2.0,1.6,-3.0,10.600000000000001,5.7,-7.0,-118.69999999999999,-10.3
1698744139220.0,16,-3.2,0.8,0.8,-2.9000000000000004,9.4,4.9,-4.5,-125.6,-24.1
1698744139238.0,16,-2.4000000000000004,0.5,0.7000000000000001,-2.1,9.1,4.800000000000001,7.500000000000001,-133.4,-32.6
1698744139254.0,16,-1.0,0.9,0.9,-0.7000000000000001,9.600000000000001,4.9,14.4,-141.4,-39.2
1698744139270.0,16,-0.6000000000000001,1.2000000000000002,0.6000000000000001,0.2,9.9,4.3,-3.2,-137.4,-39.2
1698744139288.0,16,0.0,1.3,0.0,0.4,10.0,4.1000000000000005,-9.600000000000001,-136.9,-39.2
1698744139304.0,16,0.30000000000000004,1.3,-0.2,0.9,9.9,3.9000000000000004,-9.3,-140.10000000000002,-42.5
1698744139320.0,16,-0.1,0.8,-0.2,0.5,9.4,3.9000000000000004,-10.2,-141.4,-44.1
1698744139337.0,16,-0.6000000000000001,0.6000000000000001,-0.2,0.1,9.200000000000001,3.8000000000000003,-13.5,-141.1,-43.7
1698744139354.0,16,-1.1,0.4,-0.5,-0.30000000000000004,9.0,3.6,-17.9,-143.2,-43.400000000000006
1698744139372.0,16,-1.1,0.4,-0.7000000000000001,-0.30000000000000004,9.1,3.4000000000000004,-19.0,-148.0,-45.0
1698744139388.0,16,-1.1,0.6000000000000001,-0.8,-0.30000000000000004,9.200000000000001,3.3000000000000003,-20.0,-149.4,-46.300000000000004
1698744139404.0,16,-0.8,0.6000000000000001,-0.9,0.0,9.200000000000001,3.2,-22.6,-150.9,-50.1
1698744139421.0,16,-0.4,0.6000000000000001,-1.1,0.30000000000000004,9.200000000000001,3.1,-23.6,-151.8,-52.1
1698744139437.0,16,-0.2,0.6000000000000001,-1.1,0.8,9.200000000000001,3.0,-23.8,-154.1,-56.300000000000004
1698744139454.0,16,-0.1,0.4,-1.1,0.9,9.0,3.0,-22.6,-155.1,-58.800000000000004
1698744139470.0,16,0.0,0.4,-0.8,1.1,9.0,3.3000000000000003,-22.000000000000004,-153.0,-61.1
1698744139488.0,16,0.1,0.5,-0.8,1.1,9.0,3.4000000000000004,-22.3,-149.9,-61.900000000000006
1698744139504.0,16,0.1,0.7000000000000001,-0.7000000000000001,1.2000000000000002,9.200000000000001,3.4000000000000004,-23.700000000000003,-143.5,-62.4
1698744139520.0,16,0.2,0.7000000000000001,-0.9,1.3,9.200000000000001,3.2,-23.700000000000003,-137.5,-63.0
1698744139537.0,16,0.2,0.7000000000000001,-0.9,1.3,9.200000000000001,3.2,-23.700000000000003,-135.1,-63.6
1698744139554.0,16,0.1,0.5,-0.9,1.2000000000000002,9.1,3.3000000000000003,-24.5,-131.9,-64.0
1698744139571.0,16,-0.1,0.4,-0.7000000000000001,1.1,9.0,3.3000000000000003,-27.8,-128.70000000000002,-62.50000000000001
1698744139587.0,16,0.0,0.30000000000000004,-0.7000000000000001,1.1,8.8,3.5,-29.300000000000004,-126.60000000000001,-62.0
1698744139604.0,16,0.0,-0.1,-0.7000000000000001,1.1,8.4,3.5,-29.500000000000004,-124.10000000000002,-61.199999999999996
1698744139620.0,16,0.0,-0.5,-0.7000000000000001,1.1,8.0,3.5,-27.0,-122.10000000000001,-60.20000000000001
1698744139637.0,16,-0.1,-0.6000000000000001,-0.7000000000000001,1.0,7.800000000000001,3.5,-26.0,-122.50000000000001,-59.7
1698744139655.0,16,-0.5,-0.7000000000000001,-0.8,0.6000000000000001,7.7,3.5,-26.500000000000004,-125.30000000000001,-58.3
1698744139671.0,16,-1.1,-0.8,-1.1,0.4,7.7,3.4000000000000004,-27.1,-128.70000000000002,-57.699999999999996
1698744139687.0,16,-1.2000000000000002,-0.8,-1.1,-0.1,7.6000000000000005,3.3000000000000003,-28.900000000000002,-138.9,-58.60000000000001
1698744139704.0,16,-0.1,0.6000000000000001,0.1,1.1,9.0,4.5,-39.8,-150.5,-65.7
1698744139722.0,16,1.1,1.5,0.9,2.3000000000000003,9.9,5.300000000000001,-48.2,-151.60000000000002,-73.9
1698744139737.0,16,1.9000000000000001,1.8,0.6000000000000001,3.0,10.100000000000001,5.1000000000000005,-56.6,-124.7,-82.10000000000001
1698744139754.0,16,1.6,0.1,-0.30000000000000004,2.7,8.4,4.3,-49.5,-113.0,-78.2
1698744139771.0,16,1.7000000000000002,-1.5,-0.7000000000000001,2.7,7.300000000000001,3.8000000000000003,-45.2,-110.7,-82.4
1698744139787.0,16,1.1,-1.7000000000000002,-0.2,2.2,6.5,4.5,-41.2,-96.00000000000001,-79.7
1698744139806.0,16,0.30000000000000004,-0.7000000000000001,-0.4,1.3,7.5,4.4,-41.1,-71.6,-67.7
1698744139820.0,16,0.8,-0.30000000000000004,-0.5,1.7000000000000002,7.800000000000001,4.4,-39.300000000000004,-62.0,-60.300000000000004
1698744139837.0,16,0.8,-0.1,-0.6000000000000001,1.7000000000000002,8.0,4.3,-35.199999999999996,-61.50000000000001,-56.6
1698744139854.0,16,0.7000000000000001,0.1,-0.8,1.5,8.1,4.2,-27.900000000000002,-66.9,-54.6
1698744139871.0,16,0.7000000000000001,0.4,-1.1,1.5,8.4,4.0,-27.900000000000002,-71.6,-56.400000000000006
1698744139888.0,16,0.5,0.6000000000000001,-0.9,1.4000000000000001,8.6,4.2,-27.5,-74.5,-57.699999999999996
1698744139904.0,16,0.4,0.6000000000000001,-0.9,1.3,8.6,4.2,-26.700000000000003,-74.8,-56.400000000000006
1698744139920.0,16,0.7000000000000001,0.2,-0.8,1.5,8.200000000000001,4.4,-23.700000000000003,-71.10000000000001,-53.6
1698744139937.0,16,1.0,0.1,-0.8,1.8,8.1,4.4,-21.3,-68.1,-51.1
1698744139954.0,16,1.5,0.30000000000000004,-0.5,2.3000000000000003,8.200000000000001,4.7,-16.5,-62.7,-43.900000000000006
1698744139970.0,16,1.4000000000000001,0.6000000000000001,-0.4,2.2,8.5,4.800000000000001,-13.8,-56.400000000000006,-38.2
1698744139988.0,16,0.9,0.7000000000000001,-0.5,1.7000000000000002,8.6,4.800000000000001,-10.3,-51.5,-34.800000000000004
1698744140003.0,16,0.7000000000000001,0.7000000000000001,-0.5,1.5,8.6,4.800000000000001,-8.700000000000001,-50.2,-33.800000000000004
1698744140020.0,16,0.5,0.4,-0.4,1.3,8.3,4.800000000000001,-6.6000000000000005,-47.800000000000004,-32.1
1698744140037.0,16,0.7000000000000001,0.1,-0.5,1.5,8.0,4.800000000000001,-5.6,-45.0,-29.900000000000006
1698744140056.0,16,0.7000000000000001,0.0,-0.5,1.6,7.9,4.800000000000001,-4.7,-43.2,-28.400000000000002
1698744140070.0,16,1.0,-0.1,-0.6000000000000001,1.8,7.800000000000001,4.6000000000000005,-1.0,-38.900000000000006,-25.2
1698744140087.0,16,1.2000000000000002,-0.2,-0.6000000000000001,2.1,7.800000000000001,4.6000000000000005,2.0,-33.5,-23.400000000000002
1698744140104.0,16,1.2000000000000002,-0.1,-0.1,2.1,7.9,5.1000000000000005,4.0,-30.9,-22.8
1698744140120.0,16,0.1,0.9,0.9,0.9,8.8,6.1000000000000005,7.0,-31.2,-18.6
1698744140137.0,16,-1.2000000000000002,1.5,0.5,-0.30000000000000004,9.5,5.7,-0.4,-35.7,-13.0
1698744140153.0,16,-0.8,1.1,0.1,0.1,9.1,5.300000000000001,-2.9,-38.7,-15.299999999999999
1698744140170.0,16,0.5,-0.1,-0.30000000000000004,1.4000000000000001,7.800000000000001,4.800000000000001,-0.8,-39.699999999999996,-23.3
1698744140187.0,16,0.9,-0.5,-0.30000000000000004,1.8,7.5,4.800000000000001,2.6,-32.300000000000004,-26.200000000000003
1698744140204.0,16,0.9,-0.6000000000000001,-0.4,1.7000000000000002,7.4,4.800000000000001,3.9,-27.7,-24.9
1698744140220.0,16,0.8,-0.6000000000000001,-0.30000000000000004,1.7000000000000002,7.4,4.800000000000001,7.699999999999999,-19.3,-19.3
1698744140237.0,16,0.6000000000000001,-0.7000000000000001,-0.2,1.4000000000000001,7.300000000000001,4.9,11.4,-12.8,-13.5
1698744140254.0,16,0.2,-0.7000000000000001,-0.1,1.1,7.4,5.0,11.4,-10.4,-11.3
1698744140270.0,16,-0.6000000000000001,-0.4,0.0,0.2,7.6000000000000005,5.1000000000000005,8.200000000000001,-8.0,-8.200000000000001
1698744140288.0,16,-0.7000000000000001,-0.2,0.0,0.1,7.800000000000001,5.0,6.9,-7.500000000000001,-7.699999999999999
1698744140307.0,16,-0.30000000000000004,-0.30000000000000004,-0.2,0.30000000000000004,7.800000000000001,4.9,7.6,-6.7,-9.3
1698744140321.0,16,-0.4,-0.30000000000000004,-0.2,0.4,7.800000000000001,4.7,9.600000000000001,-5.500000000000001,-11.8
1698744140337.0,16,-0.7000000000000001,-0.2,-0.30000000000000004,0.1,7.9,4.7,8.1,-7.1000000000000005,-13.9
1698744140353.0,16,-0.9,-0.2,-0.1,-0.1,7.9,4.800000000000001,7.6,-9.3,-14.700000000000001
1698744140370.0,16,-0.9,-0.2,0.0,-0.2,7.9,4.9,7.9,-11.9,-16.0
1698744140387.0,16,-0.8,-0.1,0.1,-0.2,8.1,5.0,6.7,-13.0,-16.5
1698744140404.0,16,-0.7000000000000001,-0.1,0.1,-0.1,8.1,5.0,5.4,-13.6,-16.1
1698744140421.0,16,-0.5,-0.1,0.1,0.1,8.1,4.9,4.1000000000000005,-14.900000000000002,-14.200000000000001
1698744140437.0,16,-0.2,-0.1,0.1,0.4,8.0,4.9,4.2,-14.600000000000001,-12.3
1698744140454.0,16,-0.2,-0.1,0.1,0.4,8.0,5.0,4.0,-13.5,-11.8
1698744140473.0,16,-0.30000000000000004,0.0,0.2,0.30000000000000004,8.200000000000001,5.0,3.3000000000000003,-10.8,-11.1
1698744140487.0,16,-0.5,0.2,0.2,0.1,8.4,5.0,2.9,-9.700000000000001,-10.2
1698744140504.0,16,-0.6000000000000001,0.2,0.2,0.0,8.3,5.0,2.6,-9.1,-10.0
1698744140521.0,16,-0.6000000000000001,0.1,0.2,-0.1,8.3,5.0,2.4000000000000004,-6.7,-9.9
1698744140556.0,16,-0.5,-0.1,0.4,0.0,8.1,5.2,-1.3,-0.4,-7.699999999999999
1698744140571.0,16,-0.5,-0.1,0.5,0.0,8.1,5.4,-3.8,2.7,-7.0
1698744140587.0,16,-0.5,-0.30000000000000004,0.8,0.0,8.0,5.5,-6.1000000000000005,6.5,-6.1000000000000005
1698744140604.0,16,-0.5,-0.5,0.7000000000000001,-0.1,7.7,5.5,-10.2,13.5,-3.8
1698744140622.0,16,-1.0,-0.7000000000000001,0.5,-0.6000000000000001,7.4,5.4,-14.900000000000002,16.0,-0.4
1698744140637.0,16,-1.6,-0.8,0.7000000000000001,-1.3,7.300000000000001,5.7,-20.7,13.3,3.3000000000000003
1698744140654.0,16,-2.1,-0.7000000000000001,0.8,-1.7000000000000002,7.4,5.800000000000001,-28.500000000000004,7.8,3.6
1698744140672.0,16,-2.2,-0.6000000000000001,0.7000000000000001,-1.8,7.4,5.800000000000001,-33.6,4.1000000000000005,2.0
1698744140688.0,16,-2.1,-0.7000000000000001,0.5,-1.8,7.2,5.7,-43.0,-3.8,-3.9
1698744140704.0,16,-2.1,-1.0,0.2,-1.8,6.800000000000001,5.5,-47.800000000000004,-5.8,-7.500000000000001
1698744140721.0,16,-1.6,-1.6,0.1,-1.3,6.2,5.6000000000000005,-62.0,-13.700000000000001,-13.6
1698744140737.0,16,-1.4000000000000001,-2.5,-0.7000000000000001,-1.1,5.1000000000000005,5.0,-73.30000000000001,-14.800000000000002,-17.8
1698744140755.0,16,-1.2000000000000002,-3.0,-1.3,-0.7000000000000001,3.8000000000000003,4.4,-75.80000000000001,-10.9,-20.1
1698744140771.0,16,-0.7000000000000001,-4.1000000000000005,-1.9000000000000001,-0.5,3.3000000000000003,3.9000000000000004,-67.3,1.8,-21.8
1698744140787.0,16,-0.5,-4.3,-2.5,-0.4,2.9000000000000004,3.5,-53.8,5.8,-16.3
1698744140804.0,16,-0.6000000000000001,-3.9000000000000004,-2.1,-0.30000000000000004,3.0,3.6,-50.300000000000004,4.1000000000000005,-12.100000000000001
1698744140821.0,16,-0.6000000000000001,-3.5,-2.1,-0.6000000000000001,3.5,4.0,-45.800000000000004,5.2,-5.6
1698744140837.0,16,-0.7000000000000001,-2.5,-1.9000000000000001,-0.7000000000000001,4.4,4.3,-44.2,-2.7,-0.8
1698744140854.0,16,-1.2000000000000002,-2.1,-1.7000000000000002,-0.9,4.6000000000000005,4.4,-43.300000000000004,-8.1,1.4
1698744140872.0,16,-1.5,-2.1,-1.6,-1.4000000000000001,4.6000000000000005,4.800000000000001,-42.900000000000006,-24.6,1.0999999999999999
1698744140888.0,16,-1.6,-2.8000000000000003,-1.6,-1.5,3.8000000000000003,4.800000000000001,-44.00000000000001,-35.8,-5.300000000000001
1698744140904.0,16,-1.7000000000000002,-3.0,-2.1,-1.5,3.5,4.4,-40.3,-38.400000000000006,-8.4
1698744140920.0,16,-1.6,-2.7,-2.0,-1.4000000000000001,3.7,4.5,-32.1,-40.7,-11.3
1698744140937.0,16,-0.8,-1.8,-0.8,-1.0,4.1000000000000005,4.800000000000001,-26.8,-39.8,-13.3
1698744140954.0,16,0.0,-1.0,0.0,-0.1,5.1000000000000005,6.5,-16.3,-32.6,-16.1
1698744140972.0,16,0.2,-0.7000000000000001,0.5,0.5,5.6000000000000005,7.1000000000000005,-12.000000000000002,-28.500000000000004,-9.8
1698744140988.0,16,0.30000000000000004,0.30000000000000004,1.1,0.7000000000000001,6.6000000000000005,7.800000000000001,-11.4,-36.0,-8.3
1698744141003.0,16,0.0,0.7000000000000001,1.5,0.5,7.0,8.200000000000001,-9.9,-38.1,-13.0
1698744141021.0,16,-0.9,1.1,2.1,-0.5,7.4,8.8,1.5000000000000002,-41.2,-21.8
1698744141037.0,16,-1.1,0.9,2.2,-0.6000000000000001,7.2,8.9,4.300000000000001,-39.6,-22.000000000000004
1698744141054.0,16,-0.30000000000000004,0.6000000000000001,2.6,0.30000000000000004,6.9,9.3,13.9,-37.6,-22.7
1698744141071.0,16,0.30000000000000004,0.6000000000000001,2.7,0.9,7.0,9.3,19.0,-34.2,-19.9
1698744141087.0,16,1.5,0.8,2.8000000000000003,2.1,7.2,9.5,26.500000000000004,-29.400000000000002,-13.5
1698744141104.0,16,1.4000000000000001,1.0,3.1,2.1,7.5,9.700000000000001,32.1,-26.9,-10.9
1698744141120.0,16,1.0,1.5,3.1,1.2000000000000002,8.6,9.600000000000001,34.7,-26.400000000000002,-10.3
1698744141137.0,16,0.0,2.7,2.8000000000000003,0.7000000000000001,9.4,9.3,36.3,-25.1,-9.600000000000001
1698744141154.0,16,0.6000000000000001,3.9000000000000004,3.0,1.4000000000000001,10.700000000000001,9.4,45.2,-24.8,-12.8
1698744141172.0,16,1.9000000000000001,5.7,3.5,2.1,11.5,9.600000000000001,48.00000000000001,-23.700000000000003,-14.700000000000001
1698744141188.0,16,2.0,6.4,3.7,2.8000000000000003,13.5,10.0,45.3,-23.8,-19.400000000000002
1698744141204.0,16,1.3,6.1000000000000005,3.2,2.5,13.700000000000001,9.8,47.400000000000006,-16.3,-24.000000000000004
1698744141220.0,16,0.9,5.2,2.2,1.7000000000000002,12.5,8.3,50.800000000000004,-12.9,-25.1
1698744141237.0,16,0.0,2.9000000000000004,0.2,0.8,10.3,6.2,52.2,-9.8,-21.700000000000003
1698744141254.0,16,-0.4,0.5,-1.0,0.30000000000000004,8.0,4.9,52.900000000000006,-8.799999999999999,-15.000000000000002
1698744141272.0,16,-0.4,-1.0,-1.6,0.30000000000000004,6.6000000000000005,4.1000000000000005,49.4,-9.5,-12.000000000000002
1698744141287.0,16,-0.4,-1.3,-1.8,0.30000000000000004,6.4,3.9000000000000004,44.3,-8.0,-11.1
1698744141304.0,16,-0.30000000000000004,-0.8,-1.6,0.4,7.2,4.1000000000000005,39.300000000000004,-5.9,-7.2
1698744141321.0,16,0.1,-0.4,-1.2000000000000002,0.8,7.4,4.2,49.9,0.4,-3.4
1698744141337.0,16,0.1,-0.4,-1.1,0.8,7.5,4.2,54.0,3.1,-3.8
1698744141355.0,16,-0.4,-0.2,-0.8,0.2,7.800000000000001,4.3,52.0,7.300000000000001,-7.2
1698744141370.0,16,-1.2000000000000002,0.6000000000000001,-0.7000000000000001,-0.6000000000000001,8.700000000000001,4.3,48.00000000000001,10.2,-11.000000000000002
1698744141387.0,16,-1.4000000000000001,0.9,-0.6000000000000001,-0.8,9.0,4.4,47.400000000000006,11.000000000000002,-12.700000000000001
1698744141404.0,16,-1.6,1.2000000000000002,-0.30000000000000004,-1.1,9.4,4.5,45.2,9.8,-16.1
1698744141420.0,16,-1.4000000000000001,1.5,-0.2,-1.0,9.8,4.6000000000000005,41.9,8.4,-16.1
1698744141437.0,16,-1.2000000000000002,1.6,-0.1,-0.8,9.9,4.6000000000000005,40.5,7.1000000000000005,-15.7
1698744141453.0,16,-0.7000000000000001,1.5,-0.1,-0.4,9.9,4.5,38.1,5.2,-13.8
1698744141470.0,16,-0.5,1.0,-0.2,-0.30000000000000004,9.700000000000001,4.4,36.1,5.0,-12.6
1698744141487.0,16,-0.6000000000000001,0.7000000000000001,-0.2,-0.30000000000000004,9.200000000000001,4.1000000000000005,32.0,5.7,-10.2
1698744141504.0,16,-0.7000000000000001,0.1,-0.30000000000000004,-0.5,8.6,4.0,29.1,5.1,-8.200000000000001
1698744141520.0,16,-0.7000000000000001,-0.1,-0.4,-0.5,8.4,3.8000000000000003,28.0,3.9,-7.2
1698744141537.0,16,-0.7000000000000001,-0.2,-0.4,-0.5,8.4,3.8000000000000003,27.0,3.8,-6.7
1698744141554.0,16,-0.7000000000000001,-0.2,-0.30000000000000004,-0.6000000000000001,8.4,3.8000000000000003,24.7,3.8,-6.000000000000001
1698744141573.0,16,-0.7000000000000001,-0.2,-0.4,-0.6000000000000001,8.5,3.6,23.6,3.8,-5.8
1698744141587.0,16,-0.7000000000000001,-0.1,-0.30000000000000004,-0.6000000000000001,8.5,3.6,23.5,3.5,-5.500000000000001
1698744141604.0,16,-0.7000000000000001,0.0,-0.30000000000000004,-0.6000000000000001,8.8,3.6,23.400000000000002,2.7,-4.6000000000000005
1698744141621.0,16,-0.6000000000000001,0.30000000000000004,-0.2,-0.6000000000000001,8.9,3.7,23.6,2.0,-3.9
1698744141637.0,16,-0.5,0.4,-0.1,-0.5,9.1,3.7,23.3,0.8,-3.2
1698744141656.0,16,-0.4,0.4,-0.1,-0.4,9.200000000000001,3.6,22.7,0.0,-2.3000000000000003
1698744141670.0,16,-0.4,0.4,-0.1,-0.4,9.3,3.5,21.700000000000003,-0.6000000000000001,-1.6
1698744141687.0,16,-0.5,0.4,-0.1,-0.5,9.3,3.5,21.0,-0.8,-1.2000000000000002
1698744141705.0,16,-0.4,0.30000000000000004,-0.1,-0.4,9.200000000000001,3.5,20.3,-1.0999999999999999,-0.30000000000000004
1698744141721.0,16,-0.4,0.2,0.0,-0.4,9.1,3.5,19.9,-1.7,-0.2
1698744141737.0,16,-0.4,0.0,-0.1,-0.4,8.9,3.4000000000000004,19.500000000000004,-1.7,0.5
1698744141754.0,16,-0.4,-0.1,0.0,-0.4,8.8,3.4000000000000004,18.3,-1.2000000000000002,1.9
1698744141770.0,16,-0.4,-0.2,0.0,-0.4,8.8,3.4000000000000004,16.8,-1.2000000000000002,2.5
1698744141787.0,16,-0.4,0.0,0.0,-0.30000000000000004,9.0,3.3000000000000003,16.2,-1.6,2.6
1698744141804.0,16,-0.30000000000000004,0.0,0.1,-0.30000000000000004,9.0,3.4000000000000004,16.3,-1.6,3.7000000000000006
1698744141820.0,16,-0.30000000000000004,0.0,0.1,-0.30000000000000004,9.0,3.3000000000000003,15.6,-1.0999999999999999,4.300000000000001
1698744141838.0,16,-0.30000000000000004,-0.1,0.1,-0.2,9.0,3.3000000000000003,14.600000000000001,-0.7,4.7
1698744141854.0,16,-0.30000000000000004,0.1,0.1,-0.30000000000000004,9.1,3.2,13.100000000000001,-0.6000000000000001,4.5
1698744141871.0,16,-0.30000000000000004,0.1,0.1,-0.2,9.3,3.2,13.100000000000001,-0.9,5.4
1698744141888.0,16,-0.2,0.0,0.1,-0.2,9.0,3.2,11.700000000000001,-0.8,6.3
1698744141904.0,16,-0.2,-0.1,0.1,-0.2,9.0,3.2,10.600000000000001,-0.6000000000000001,6.3
1698744141925.0,16,-0.2,-0.1,0.1,-0.2,9.0,3.2,9.4,-0.6000000000000001,6.9
1698744141936.0,16,-0.2,-0.1,0.1,-0.2,8.9,3.1,9.4,-0.30000000000000004,6.9
1698744141953.0,16,-0.2,-0.2,0.1,-0.1,8.9,3.1,9.1,-0.2,6.9
1698744141971.0,16,-0.2,-0.2,0.1,-0.1,8.9,3.1,8.600000000000001,-0.2,6.7
1698744141987.0,16,-0.2,-0.2,0.1,-0.1,8.9,3.1,8.3,-0.6000000000000001,6.7
1698744142004.0,16,-0.2,-0.1,0.0,-0.1,9.0,3.0,8.1,-0.6000000000000001,6.7
1698744142020.0,16,-0.2,0.0,0.0,-0.1,9.1,3.0,7.300000000000001,-0.4,6.7
1698744142037.0,16,-0.1,0.0,0.0,0.0,9.1,3.0,7.400000000000001,-1.2000000000000002,6.3
1698744142055.0,16,-0.1,0.0,0.0,0.0,9.1,3.0,7.400000000000001,-1.4,6.1000000000000005
1698744142070.0,16,-0.1,-0.1,0.0,0.1,9.0,2.9000000000000004,7.500000000000001,-1.2000000000000002,5.6
1698744142087.0,16,-0.1,0.0,0.0,0.1,9.1,2.9000000000000004,7.300000000000001,-1.0999999999999999,5.2
1698744142104.0,16,0.0,0.0,0.0,0.1,9.1,2.9000000000000004,7.300000000000001,-0.7,4.7
1698744142120.0,16,-0.1,0.0,0.0,0.1,9.1,2.8000000000000003,7.400000000000001,-1.4,4.5
1698744142137.0,16,-0.1,-0.1,-0.1,0.1,9.0,2.8000000000000003,7.500000000000001,-1.9,4.5
1698744142154.0,16,-0.2,-0.1,0.0,0.0,9.1,2.8000000000000003,6.9,-1.2000000000000002,4.7
1698744142172.0,16,-0.1,0.0,-0.1,0.1,9.1,2.7,6.4,-0.7,4.5
1698744142187.0,16,-0.1,0.1,0.0,0.1,9.200000000000001,2.7,6.2,-0.5,4.2
1698744142205.0,16,0.0,0.1,-0.1,0.2,9.200000000000001,2.7,6.1000000000000005,-0.30000000000000004,3.6
1698744142220.0,16,0.0,0.1,-0.1,0.30000000000000004,9.3,2.6,5.500000000000001,0.30000000000000004,2.4000000000000004
1698744142237.0,16,0.0,0.1,-0.1,0.30000000000000004,9.200000000000001,2.6,5.300000000000001,0.30000000000000004,2.1
1698744142254.0,16,0.0,0.0,-0.1,0.2,9.200000000000001,2.6,5.300000000000001,0.7,1.7
1698744142273.0,16,0.0,0.0,-0.1,0.2,9.200000000000001,2.6,5.4,0.6000000000000001,1.6
1698744142287.0,16,0.0,0.0,-0.1,0.2,9.200000000000001,2.5,5.300000000000001,1.0,1.8
1698744142304.0,16,0.0,0.1,-0.2,0.30000000000000004,9.3,2.4000000000000004,4.5,1.0999999999999999,2.0
1698744142321.0,16,0.0,0.1,-0.1,0.30000000000000004,9.200000000000001,2.5,3.6,1.6,1.8
1698744142337.0,16,0.0,0.0,-0.1,0.30000000000000004,9.200000000000001,2.4000000000000004,3.8,1.9,1.9
1698744142354.0,16,0.0,0.1,-0.1,0.2,9.3,2.5,4.3999999999999995,2.1,1.7
1698744142370.0,16,-0.1,0.1,-0.1,0.2,9.3,2.4000000000000004,4.300000000000001,2.0,1.4
1698744142386.0,16,-0.1,0.0,-0.1,0.2,9.200000000000001,2.4000000000000004,4.5,1.6,1.0
1698744142403.0,16,-0.1,0.0,-0.1,0.1,9.200000000000001,2.4000000000000004,4.3999999999999995,1.6,0.7
1698744142420.0,16,-0.1,0.0,-0.1,0.1,9.200000000000001,2.5,4.300000000000001,1.4,0.5
1698744142437.0,16,-0.1,0.0,0.0,0.1,9.200000000000001,2.4000000000000004,4.1000000000000005,1.0999999999999999,0.30000000000000004
1698744142454.0,16,-0.1,0.0,0.0,0.1,9.200000000000001,2.5,4.0,1.0,0.0
1698744142470.0,16,-0.1,0.0,0.0,0.1,9.200000000000001,2.5,3.3000000000000003,0.8,-0.2
1698744142487.0,16,-0.1,0.0,0.0,0.1,9.200000000000001,2.5,2.9,0.6000000000000001,-0.1
1698744142505.0,16,-0.1,0.0,0.0,0.1,9.200000000000001,2.5,2.7,0.5,-0.1
1698744142520.0,16,0.0,0.0,0.0,0.2,9.200000000000001,2.5,2.3000000000000003,0.6000000000000001,0.0
1698744142537.0,16,-0.1,-0.1,0.0,0.2,9.200000000000001,2.5,2.0,0.6000000000000001,0.1
1698744142556.0,16,-0.1,-0.1,0.0,0.1,9.200000000000001,2.4000000000000004,2.0,0.6000000000000001,0.1
1698744142570.0,16,-0.1,0.0,0.0,0.1,9.200000000000001,2.4000000000000004,1.8,0.4,0.1
1698744142588.0,16,0.0,0.0,0.0,0.2,9.3,2.4000000000000004,1.5000000000000002,0.30000000000000004,0.1
1698744142604.0,16,-0.1,0.0,0.0,0.1,9.200000000000001,2.5,1.5000000000000002,0.2,0.1
1698744142620.0,16,-0.1,-0.1,0.0,0.1,9.200000000000001,2.4000000000000004,1.3,0.2,0.0
1698744142637.0,16,-0.1,-0.1,0.0,0.1,9.1,2.4000000000000004,1.0999999999999999,-0.2,-0.1
1698744142654.0,16,-0.1,-0.1,0.0,0.1,9.200000000000001,2.4000000000000004,1.0,-0.5,0.0
1698744142673.0,16,0.0,0.0,0.0,0.2,9.200000000000001,2.4000000000000004,1.0,-0.5,0.0
1698744142687.0,16,0.0,-0.1,0.0,0.2,9.1,2.4000000000000004,0.9,0.1,-0.2
1698744142704.0,16,0.0,0.0,0.0,0.2,9.200000000000001,2.4000000000000004,0.8,0.2,-0.30000000000000004
1698744142721.0,16,0.0,0.0,0.0,0.2,9.200000000000001,2.4000000000000004,0.30000000000000004,0.4,-0.2
1698744142737.0,16,0.0,0.0,0.0,0.2,9.200000000000001,2.4000000000000004,0.0,0.2,-0.2
1698744142755.0,16,0.0,0.0,0.0,0.2,9.200000000000001,2.4000000000000004,-0.1,-0.5,-0.30000000000000004
1698744142771.0,16,-0.1,0.0,0.1,0.1,9.200000000000001,2.5,-0.4,-0.5,-0.4
1698744142788.0,16,0.0,-0.1,0.0,0.1,9.200000000000001,2.4000000000000004,0.0,-0.30000000000000004,-0.30000000000000004
1698744142804.0,16,0.0,-0.1,0.0,0.1,9.1,2.4000000000000004,-0.30000000000000004,-0.5,-0.30000000000000004
1698744142821.0,16,0.0,0.0,0.0,0.1,9.200000000000001,2.4000000000000004,-0.6000000000000001,-0.5,-0.4
1698744142837.0,16,0.0,0.0,0.0,0.1,9.200000000000001,2.4000000000000004,-0.5,-0.1,-0.5
1698744142854.0,16,0.0,0.0,0.1,0.1,9.200000000000001,2.5,-0.2,0.0,-0.5
1698744142873.0,16,0.0,0.0,0.0,0.2,9.200000000000001,2.5,0.0,0.30000000000000004,-0.30000000000000004
1698744142887.0,16,0.0,-0.1,0.0,0.1,9.200000000000001,2.4000000000000004,-0.5,0.30000000000000004,-0.30000000000000004
1698744142904.0,16,0.0,0.0,0.0,0.1,9.200000000000001,2.4000000000000004,-0.8,0.30000000000000004,-0.2
1698744142921.0,16,0.0,0.0,0.0,0.2,9.200000000000001,2.4000000000000004,-0.7,0.2,-0.30000000000000004
1698744142937.0,16,0.0,0.0,0.0,0.2,9.200000000000001,2.5,-0.7,0.1,-0.30000000000000004
1698744142954.0,16,0.0,-0.1,0.0,0.1,9.1,2.5,-0.6000000000000001,0.1,-0.6000000000000001
1698744142972.0,16,0.0,-0.1,0.0,0.1,9.1,2.5,-0.4,0.0,-0.6000000000000001
1698744142988.0,16,0.0,-0.1,0.0,0.2,9.1,2.4000000000000004,-0.4,0.30000000000000004,-0.6000000000000001
1698744143004.0,16,0.0,0.0,0.0,0.2,9.200000000000001,2.5,-1.2000000000000002,-0.9,-1.5000000000000002
1698744143020.0,16,-0.2,0.0,0.2,0.1,9.1,2.4000000000000004,-1.0,0.0,-1.5000000000000002
1698744143037.0,16,0.0,0.0,0.0,0.1,9.1,2.5,-0.1,1.4,0.0
1698744143053.0,16,0.0,-0.1,0.0,0.1,9.1,2.5,-0.7,1.0999999999999999,-0.2
1698744143071.0,16,0.0,-0.1,0.0,0.1,9.1,2.5,-0.8,1.3,-0.2
1698744143087.0,16,0.0,-0.1,0.0,0.1,9.1,2.5,-0.9,1.4,-0.30000000000000004
1698744143105.0,16,-0.1,0.0,0.0,0.1,9.200000000000001,2.5,-1.0,0.9,-0.30000000000000004
1698744143120.0,16,0.0,0.0,0.0,0.1,9.200000000000001,2.5,-0.7,1.0,0.1
1698744143136.0,16,0.0,0.0,0.0,0.1,9.200000000000001,2.4000000000000004,-0.5,0.8,-0.1
1698744143153.0,16,0.0,0.1,0.0,0.1,9.200000000000001,2.5,-0.5,1.0999999999999999,0.5
1698744143170.0,16,0.0,0.0,0.0,0.1,9.200000000000001,2.4000000000000004,-0.7,1.3,0.8
1698744143187.0,16,0.0,0.0,0.0,0.1,9.200000000000001,2.5,-1.0,1.5000000000000002,0.4
1698744143204.0,16,0.0,-0.1,0.0,0.1,9.1,2.5,-1.3,1.4,0.30000000000000004
1698744143220.0,16,-0.1,-0.1,0.0,0.1,9.1,2.5,-0.6000000000000001,1.3,0.30000000000000004
1698744143237.0,16,0.0,0.0,0.0,0.1,9.200000000000001,2.5,-0.5,1.0999999999999999,0.5
1698744143254.0,16,0.0,0.1,0.0,0.2,9.200000000000001,2.5,-0.5,1.0,0.7
1698744143270.0,16,0.0,0.0,0.0,0.1,9.200000000000001,2.5,-0.9,1.0999999999999999,0.6000000000000001
1698744143286.0,16,0.0,0.0,0.0,0.1,9.1,2.5,-1.0999999999999999,1.3,0.9
1698744143303.0,16,0.0,0.0,0.0,0.1,9.1,2.5,-1.8,1.9,1.5000000000000002
1698744143320.0,16,0.0,-0.1,0.0,0.2,9.1,2.5,-1.8,1.9,1.3
1698744143337.0,16,0.1,0.0,0.0,0.2,9.200000000000001,2.5,-1.8,2.5,1.0999999999999999
1698744143354.0,16,0.0,0.0,0.0,0.2,9.1,2.5,-1.9,3.5,2.0
1698744143370.0,16,0.0,-0.1,0.0,0.1,9.1,2.5,-1.3,2.6,1.7
1698744143387.0,16,0.0,-0.1,0.0,0.1,9.1,2.5,-1.3,2.3000000000000003,1.6
1698744143404.0,16,0.0,-0.1,0.0,0.1,9.1,2.6,-0.6000000000000001,0.6000000000000001,0.9
1698744143420.0,16,0.0,0.0,0.0,0.1,9.200000000000001,2.5,-0.5,0.4,0.5
1698744143438.0,16,0.0,0.1,0.0,0.2,9.200000000000001,2.6,-1.4,1.3,0.8
1698744143454.0,16,0.0,0.1,0.0,0.2,9.200000000000001,2.6,-1.8,1.6,1.0999999999999999
1698744143471.0,16,0.0,-0.1,0.1,0.2,9.1,2.6,-1.9,2.1,2.0
1698744143487.0,16,0.0,-0.1,0.0,0.1,9.0,2.6,-1.3,2.4000000000000004,2.3000000000000003
1698744143504.0,16,-0.1,0.0,0.0,0.1,9.1,2.5,-1.3,2.1999999999999997,2.8
1698744143521.0,16,-0.1,0.0,0.1,0.0,9.1,2.6,-0.8,1.9,2.8
1698744143537.0,16,-0.2,-0.1,0.0,0.0,9.1,2.6,0.0,1.4,2.7
1698744143554.0,16,-0.1,0.0,0.1,0.1,9.1,2.7,-0.1,1.0999999999999999,2.9
1698744143571.0,16,0.0,-0.1,0.1,0.1,9.1,2.7,0.5,-0.2,3.0000000000000004
1698744143587.0,16,0.0,0.0,0.2,0.2,9.1,2.7,2.0,-1.5000000000000002,1.9
1698744143604.0,16,0.1,0.0,0.1,0.30000000000000004,9.200000000000001,2.7,2.3000000000000003,-2.5,1.4
1698744143620.0,16,0.30000000000000004,0.1,0.1,0.5,9.200000000000001,2.6,2.9,-5.500000000000001,-0.2
1698744143637.0,16,0.0,0.2,0.30000000000000004,0.2,9.3,2.9000000000000004,3.1,-7.1000000000000005,-2.5
1698744143654.0,16,0.0,0.30000000000000004,-0.1,0.2,9.4,2.5,4.7,-5.7,-0.6000000000000001
1698744143670.0,16,-0.30000000000000004,0.30000000000000004,-0.1,-0.2,9.5,2.4000000000000004,2.5,-5.8,-1.4
1698744143687.0,16,-0.6000000000000001,0.30000000000000004,-0.2,-0.4,9.5,2.4000000000000004,2.0,-5.8,-2.0
1698744143704.0,16,-0.30000000000000004,0.1,-0.2,-0.2,9.3,2.3000000000000003,1.8,-8.1,-5.8
1698744143720.0,16,0.2,0.1,-0.2,0.1,9.200000000000001,2.3000000000000003,1.5000000000000002,-8.5,-6.000000000000001
1698744143737.0,16,0.2,0.0,-0.30000000000000004,0.4,9.1,2.3000000000000003,0.6000000000000001,-7.2,-3.9
1698744143754.0,16,0.4,-0.2,-0.30000000000000004,0.5,9.0,2.2,0.30000000000000004,-4.300000000000001,-1.2000000000000002
1698744143770.0,16,0.4,-0.2,-0.1,0.6000000000000001,9.0,2.4000000000000004,-0.8,-2.8,0.0
1698744143787.0,16,0.0,-0.1,0.0,0.2,9.0,2.5,-2.9,-2.7,0.8
1698744143803.0,16,0.2,0.0,-0.30000000000000004,0.4,9.1,2.2,-4.7,-4.1000000000000005,0.2
1698744143821.0,16,-0.4,0.0,0.30000000000000004,-0.2,9.1,2.9000000000000004,-5.6,-7.2,-3.1
1698744143837.0,16,0.0,-0.5,-0.1,0.2,8.6,2.4000000000000004,0.2,-0.2,1.9
1698744143856.0,16,-0.1,-0.2,-0.1,0.1,8.9,2.4000000000000004,-0.6000000000000001,0.2,2.0
1698744143870.0,16,-0.2,-0.1,-0.1,0.0,8.9,2.5,0.30000000000000004,-0.9,2.8
1698744143887.0,16,-0.1,-0.1,-0.2,0.1,9.1,2.3000000000000003,1.4,-3.6,3.4
1698744143904.0,16,0.0,0.0,-0.2,0.2,9.200000000000001,2.4000000000000004,1.8,-4.1000000000000005,3.6
1698744143920.0,16,0.0,0.0,-0.5,0.2,9.1,2.0,5.6,-5.4,3.7000000000000006
1698744143937.0,16,-0.1,0.0,-0.6000000000000001,0.2,9.1,1.9000000000000001,10.5,-7.400000000000001,3.8
1698744143954.0,16,-0.2,0.1,-0.1,0.2,9.1,2.1,15.8,-11.700000000000001,3.2
1698744143970.0,16,-0.7000000000000001,0.0,0.6000000000000001,-0.2,9.5,2.7,9.4,-18.3,-1.3
1698744143987.0,16,0.2,-0.2,0.0,0.2,8.9,2.4000000000000004,5.8,-11.4,1.2000000000000002
