ts,interval,accx,accy,accz,accGx,accGy,accGz,alpha,beta,gamma
1698744128004.0,0.01666666753590107,0.08769150826074182,0.1834548254266381,0.1293780750632286,0.8595184690613299,-2.5568577354431152,-9.254936154937743,-2.5570138641528537,34.64429041381378,-8.45262547526841
1698744128177.0,0.01666666753590107,-0.04329918963089585,0.7547182973504066,-3.6827088542997837,0.9326913303650916,-3.4389719941288233,-12.49354281311035,-14.81470250787246,-27.06199496334507,3.513400430513311
1698744128189.0,0.01666666753590107,-0.07685534920878707,0.042326691336929796,-4.307465139219165,0.806546830395609,-4.159028143420815,-13.124414950561523,20.13394455045167,-47.870364345274844,-1.0191619812483983
1698744128206.0,0.01666666753590107,0.272814047703892,0.9642994976803659,-3.552431784570217,0.9693525432862341,-3.3372187158331275,-12.337769483074545,39.99483862845374,-85.38216624814591,-1.6643954379875165
1698744128222.0,0.01666666753590107,-0.07405625654216855,1.2515809005454182,-3.6345267149329183,0.40581729099433866,-3.1350583131536838,-12.39223815536499,31.463983581526588,-96.83637299568979,-1.7331056469339639
1698744128239.0,0.01666666753590107,0.16680340422466397,1.1515922938346863,-3.0596231329411268,0.46088391091162334,-3.277214036725461,-11.80431201019287,3.3114291754350953,-66.95911066024885,-7.899060841153679
1698744128256.0,0.01666666753590107,0.07517846550513059,0.6726230747267603,-2.2390789029836653,0.25797528368076306,-3.698892511859536,-11.015571616253256,-37.99118214486299,-24.582043775719942,-16.28808359487093
1698744128273.0,0.01666666753590107,-0.3561607316933572,0.7893141021743416,-2.960818475317955,-0.19542663744501768,-3.4757828446537253,-11.789946215710044,-50.26533602679397,-13.607312892816381,-19.881895202152567
1698744128289.0,0.01666666753590107,-0.40679815525785085,0.8970058306083083,-3.1303561268121003,-0.23762444170527158,-3.2579107858404517,-12.011709729003906,-42.0339574542152,-1.7017580668513672,-23.310161806973312
1698744128306.0,0.01666666753590107,-0.3176813634343445,1.5383081766590476,-3.022691870906949,-0.08798683794550598,-2.52139420787394,-11.946617371368408,-16.446856464769755,19.065482690660943,-27.787137364505107
1698744128323.0,0.01666666753590107,-0.37217217449136075,1.8224354994073508,-2.9837177048683166,-0.05626366594843566,-2.224064289203286,-11.911003037151694,6.941605777074938,25.914178258229843,-32.72625376656372
1698744128339.0,0.01666666753590107,-0.46235319801289587,1.8260750249534845,-2.7461235852360724,-0.0595556566985324,-2.2626707909733055,-11.650633606609702,33.25618423860291,11.715792747471607,-37.22674395786058
1698744128356.0,0.01666666753590107,-0.6054199354823678,1.7756953755423426,-1.9859867699682712,-0.1432031137328595,-2.4817399506166575,-10.80817389744222,84.15437827313359,-0.18857403912443413,-43.0167362984154
1698744128372.0,0.01666666753590107,0.04637669738009572,1.8979218252852559,0.3928361192703247,0.600346175882034,-2.601450325885415,-8.303091357421874,132.1393805134379,37.216792372239865,-50.034434651712516
1698744128388.0,0.01666666753590107,0.28004867513254283,1.9559402990117667,0.5259171405047178,0.9937434726990759,-2.8525425172552463,-7.991096369060873,132.41671351449713,24.13595558328995,-58.578823718480045
1698744128405.0,0.01666666753590107,1.0217354222785682,1.80909291049242,-6.405507678049802,1.8237832607544957,-3.182942638617754,-14.808286321148275,15.149252003608854,7.745438787662691,-54.274472654483866
1698744128422.0,0.01666666753590107,-0.6003913667306303,0.6584089636743068,-0.2259948672533035,0.33010062695927916,-4.318990157318115,-8.624213070568441,-13.279105227724342,40.20377753025902,-39.99753996827048
1698744128439.0,0.01666666753590107,-1.056138554074615,-0.3369873907983303,-1.3008593107163906,-0.016160788140818477,-5.28609799041748,-9.702950556072592,0.5072884483014549,20.111271737501813,-26.29540868184869
1698744128456.0,0.01666666753590107,0.09136661657691002,0.9909475583702325,-1.3344997145116329,1.2023383654054254,-4.012084016528726,-9.695468675884603,42.26415190471755,-3.0441711302884897,-29.631713619684383
1698744128472.0,0.01666666753590107,0.0720225222248584,1.9197072483748197,-1.2900702056765556,1.1935097467835991,-3.1814456780582665,-9.590123802837729,51.90556838993209,-24.211712626469144,-29.920012489456035
1698744128489.0,0.01666666753590107,0.012039543492347001,1.649213898703456,-1.1789157695680856,1.115698119763285,-3.5426708535343407,-9.424924472808838,39.44602951354863,-34.562379370192396,-45.26391634667379
1698744128506.0,0.01666666753590107,-0.45405426582098,0.3421323524713516,0.009496727141737937,0.6875849354065954,-4.886266897693276,-8.208221116638184,-8.911277800676643,17.631771342361905,-51.55220172303232
1698744128522.0,0.01666666753590107,-1.6101264815486966,0.7499976985692978,-0.17804712116420268,-0.29867651097401976,-4.4092222169071436,-8.41412245941162,-36.91404423727905,74.20844804905778,-45.93159465879922
1698744128539.0,0.01666666753590107,-1.1531029906585812,1.1574193925529719,-0.046753567868471145,0.39040480047017334,-3.8940199471622705,-8.309376136779784,-44.15052379497543,81.2017694572071,-42.786435979980915
1698744128556.0,0.01666666753590107,-0.5159902052521705,0.8277221587628125,-0.5660165111809968,1.3018474449709057,-4.097826363483071,-8.84881969833374,-29.20985040069313,54.039780524413054,-29.707979511956747
1698744128572.0,0.01666666753590107,-0.844482154905796,1.2111039287284016,-0.8593862940490246,1.083975093896687,-3.6557968819767233,-9.151835261425376,-12.867107363215528,19.061205284693223,-20.23425441614977
1698744128591.0,0.01666666753590107,-0.46464346437454224,1.2751333333075046,-0.02417640987932682,1.4899420590274035,-3.574543370874226,-8.320598372539877,4.623652162410527,-16.73956251410336,-14.047012297051475
1698744128606.0,0.01666666753590107,-0.6416270479604601,1.6309075499013066,0.0366296487390995,1.1751042484559118,-3.2493811501652,-8.273163252148032,16.9140926304174,-75.5708249016652,4.20741232354031
1698744128622.0,0.01666666753590107,-0.7200523498997092,1.3047148171007632,0.12076689858436583,0.9044098232544958,-3.6198838570743797,-8.202684525299071,16.13197449874841,-83.15131035200385,22.177672046355593
1698744128639.0,0.01666666753590107,-1.1275178830251098,1.3142881166100502,0.3233633545935154,0.28401231806650756,-3.641431672015786,-8.020425339397788,-0.6816981291705239,-71.91590188433217,41.00385905944514
1698744128656.0,0.01666666753590107,-1.3546464304834605,1.347321202161908,0.42083179517686364,-0.19018924824818967,-3.5977374917179343,-7.967303990063071,-15.711443166645312,-42.54995092525298,46.60851763196626
1698744128672.0,0.01666666753590107,-0.5403137685172259,1.6169231559514998,1.0727174945622682,0.5060745220459998,-3.3180653948128223,-7.336881349945068,-1.8990647296132874,-17.57094680025565,33.90160979441244
1698744128690.0,0.01666666753590107,-0.04520071240328252,2.0287305176734924,1.8537866232216358,0.9485528432983904,-2.93065246963501,-6.5478416807979345,17.825595035533944,-2.900629582238794,1.5337535559590365
1698744128706.0,0.01666666753590107,1.8172408533737063,2.207611167052388,2.6476532741338015,2.8673559824403374,-2.8130378976017236,-5.710619872283935,26.017655624155537,0.40648787620017207,-33.9792656301809
1698744128722.0,0.01666666753590107,-0.11537234606444835,1.5544038636744022,1.2485405099362135,0.9332898807801305,-3.50496159286499,-7.086537054333091,16.090122514609156,-35.761832305432925,-22.631411758203296
1698744128739.0,0.01666666753590107,-0.056979778328537935,1.804399199718237,0.8127081295043229,0.9319430692810564,-3.2845454025268555,-7.511657486614585,19.12304069479664,-36.18958656258331,-11.716386973929398
1698744128756.0,0.01666666753590107,0.27305910850614307,2.442790626758337,0.7055564992964267,1.1522096220154314,-2.7454011161804197,-7.569716876873374,52.30665758856276,-51.23536973800294,-3.7107999411592614
1698744128772.0,0.01666666753590107,-0.07418912567421794,2.635695709836483,0.6750245829105377,0.6799534176148474,-2.6847984711796045,-7.528267260631918,68.88096879833954,-70.50040665054955,-7.981384257446196
1698744128789.0,0.01666666753590107,-0.08564422034211457,2.8807939214885234,1.0936387020379303,0.5268741489686072,-2.587234753528237,-7.023988535961508,70.08574586603808,-74.55888456480362,-12.977495173033981
1698744128806.0,0.01666666753590107,-0.31061339780949054,2.58862883823514,1.7687895416766404,0.13826529200449586,-3.055301178088784,-6.238391700744629,55.16832926587968,-59.090445868449024,-16.33525288127904
1698744128823.0,0.01666666753590107,0.03981733886450529,1.791011894878745,1.9330588973790406,0.4070144283570349,-3.949386445075273,-6.009445582470297,38.4750088400046,-43.67491723249993,-17.607467821747708
1698744128839.0,0.01666666753590107,-0.39783151640482245,2.081318198522925,2.216318789643049,-0.08035532015375793,-3.724032213813066,-5.680991626739502,9.813745573068552,-21.953192756641247,-23.562901004378585
1698744128855.0,0.01666666753590107,-0.2491454777488485,2.2467267873883245,2.457456865492463,0.07481891147773713,-3.558981352344155,-5.43932689666748,-3.66784061260082,-15.080347347714472,-32.05239071814485
1698744128872.0,0.01666666753590107,0.35117888816017656,1.4415297641664742,1.799286971271038,0.6877345364777371,-4.3602907204777,-6.0998266951411955,5.492574741354385,-23.16636241928245,-32.11203534507198
1698744128889.0,0.01666666753590107,0.9023694034680724,1.4442302552968262,0.8184276761949062,1.1957542012421414,-4.416106131201982,-7.039102518463134,41.73134592303778,-47.26617947167386,-17.869663416058867
1698744128906.0,0.01666666753590107,1.0612930142283439,2.0080571474790574,0.6527046145528554,1.2593502011063509,-3.9613574533760545,-7.125293193706869,63.249293412556426,-58.50302910926042,-1.1888316709160371
1698744128922.0,0.01666666753590107,1.3852728932850062,1.7847195167362688,0.6119499948382378,1.4558243109108413,-4.318990741840005,-7.063343810272216,67.07116674377208,-54.68348145745715,15.154340494540513
1698744128939.0,0.01666666753590107,1.0216418987762181,1.3060545412719249,1.1998042438179253,0.9115923277702648,-4.9545016450077295,-6.347627151489258,48.35080668168271,-48.00082778861126,25.870630679629134
1698744128956.0,0.01666666753590107,0.7269595720048994,1.3802449821203946,1.4692413624346254,0.48273103759316727,-4.951808752661943,-6.015131811413169,25.109027021132277,-46.12804455970713,22.449901188557497
1698744128973.0,0.01666666753590107,0.22490962929986416,1.4124655822455883,1.414368200996518,-0.13721760958246887,-4.9470203493416305,-6.041916942486167,6.543017708340973,-39.7588555926298,18.708782891446198
1698744128989.0,0.01666666753590107,-0.10127696602083743,1.0637994440913199,0.6362023925632238,-0.5952583877563477,-5.29896740886271,-6.809707487377524,-1.0678352966560842,-28.482716999390036,20.08911972647617
1698744129006.0,0.01666666753590107,-0.12463950223401188,1.1417015989392996,0.5116425314366817,-0.6986579354217276,-5.210381947436929,-6.937647638592123,-6.91012287386941,-18.75332426257114,21.57427435205645
1698744129022.0,0.01666666753590107,-0.16382665343619882,1.3381898012012243,0.5363461800605058,-0.8119336380004882,-4.994604522815346,-6.923283013153076,-8.365276747294056,-22.95515589467273,20.526939974915862
1698744129039.0,0.01666666753590107,-0.0620710370529443,1.5852110898703335,0.8994032471388578,-0.8304886278014629,-4.733187629047036,-6.561009789928794,1.9609014203771749,-44.599294544201946,11.662852804988484
1698744129056.0,0.01666666753590107,0.10010996806807815,1.7481231857448816,1.0811012920260428,-0.7962216165404766,-4.579659447589516,-6.357053151482344,8.771640559511257,-70.60126805402314,9.61959061572177
1698744129072.0,0.01666666753590107,0.5808534303069114,1.630438471084833,1.1490484545707702,-0.5536591339111328,-4.718672781482339,-6.2382414786189795,9.96366822535033,-89.83475973788805,8.827188780483677
1698744129089.0,0.01666666753590107,0.652931116785109,1.704632419064641,1.201945932021737,-0.6563106762208044,-4.658668686896562,-6.144119425854086,6.72543242427815,-73.55548196440456,9.424096941297664
1698744129106.0,0.01666666753590107,0.6909799846723675,1.6670266187697649,1.1961229249566794,-0.7502829452514648,-4.696526416125893,-6.124965812572836,-3.1067604225215475,-44.715657061996865,11.983498596895672
1698744129123.0,0.01666666753590107,0.9492771389849484,1.4276251574546097,1.1565414406746626,-0.5883752041138708,-4.900781745257973,-6.175393685039878,-19.006263243009638,-7.914064205439258,18.838204730934184
1698744129139.0,0.01666666753590107,1.2505173629671333,1.0434469764143228,1.2181968095988034,-0.3280054813109338,-5.2269917214542625,-6.15474369572103,-32.76071207092644,-3.734370070211329,21.492026921618447
1698744129156.0,0.01666666753590107,1.376031456078589,0.7677484593152999,1.4434721304059028,-0.2611177646912634,-5.416133652606606,-5.989544365692138,-47.269376000205426,-23.10754253769759,20.90451966242334
1698744129172.0,0.01666666753590107,1.68503281558156,0.24259002822339534,1.6372019738703965,-0.16130948298349976,-5.610063987079262,-6.011840368652344,-58.97523423752925,-54.07017145112503,21.29777975671787
1698744129189.0,0.01666666753590107,1.8525399841614067,0.060955696222186086,1.2657377284526825,-0.18599968760386107,-5.545869455066323,-6.517465831756591,-58.07341021046661,-63.64778030911331,24.38522845969144
1698744129206.0,0.01666666753590107,1.9269496207185088,0.0018254618614912033,1.217257482922077,-0.2919428188048303,-5.432444151416421,-6.638671706280112,-52.79084969882496,-61.78627372252887,28.22864591509661
1698744129222.0,0.01666666753590107,1.9743559534072874,-0.14329963290989398,1.3945494018048048,-0.46956309285908937,-5.359271363177895,-6.542156036376952,-39.67031243532434,-51.72844109418615,28.554466429073727
1698744129239.0,0.01666666753590107,1.9463275442749262,-0.2440425651192665,1.946695208543539,-0.6548141540527344,-5.311088054767251,-6.036380935668945,-36.863866252541555,-54.30674529831217,28.227699933896563
1698744129256.0,0.01666666753590107,2.118966084393859,-0.19005904599726198,2.2812182550549505,-0.6413470619753002,-5.140501186481118,-5.7215428328365086,-36.11083106635848,-57.599811723607104,32.88604945729075
1698744129273.0,0.01666666753590107,2.297875667606294,0.054959670677781104,2.7120418674141167,-0.6902782661437988,-4.708497424426675,-5.322309706005454,-51.62854957757472,-57.924081784642624,39.7836833302628
1698744129289.0,0.01666666753590107,2.149758697542548,0.0897226487621665,2.758013344994187,-1.0115504936769604,-4.486884133258462,-5.318569350433349,-71.93977339548137,-59.9024050966018,39.187260966653525
1698744129306.0,0.01666666753590107,2.1410314934685823,-0.10117401710301636,2.3824194524258373,-1.1876736610412597,-4.474613557489216,-5.73934970768392,-78.04476723036801,-54.65573722904856,37.784551846997175
1698744129322.0,0.01666666753590107,2.153835445462167,-0.08453618603497744,1.5136714557915925,-1.3452423500612378,-4.186112257440388,-6.67802698059082,-67.32305729017298,-23.825385174182177,39.4120527375224
1698744129339.0,0.01666666753590107,2.414888474354148,0.2408265256822109,1.4417869537979364,-1.1614873726442456,-3.6745015824466942,-6.807463507843017,-58.503821411204136,-13.394281853924621,47.85275953268914
1698744129356.0,0.01666666753590107,2.5484143167465922,0.21711218035668134,1.4558435362011193,-1.1165963837772608,-3.5185791993290185,-6.8376897192806005,-54.54477056069795,-20.616540103995384,61.95595611207949
1698744129372.0,0.01666666753590107,2.4229998846173286,0.3601721592918038,1.663467464983463,-1.4046487710148094,-3.1245833886295555,-6.665756697082519,-49.79222589846011,-33.28636001435603,78.8743756673361
1698744129389.0,0.01666666753590107,1.4688497327685355,0.45328971118927,1.4294593871444463,-2.505831312561035,-2.8324904938295483,-6.911760333141684,-51.139057240516586,-42.81117151006012,79.89500400482193
1698744129406.0,0.01666666753590107,1.1517498224839569,0.15472002159059048,1.1021627847552298,-2.9893107025697825,-2.9285581277042625,-7.235427054595947,-55.5295677257979,-50.2415498930094,76.86563069281368
1698744129422.0,0.01666666753590107,0.5589285987466573,0.2613365220084786,0.11824468663036823,-3.777601599176228,-2.535160867419839,-8.221089366039633,-58.9325387250275,-30.11322829579194,77.22196166181325
1698744129439.0,0.01666666753590107,0.16936112588346003,0.434594947591424,-0.40201895815730093,-4.258836425128579,-2.1381723046451806,-8.765172277832031,-59.0923173402816,-9.01669067145839,78.04063496592015
1698744129458.0,0.01666666753590107,0.08582505680173635,0.552390429149568,-0.23599019156694412,-4.395904470172524,-1.7989437107913195,-8.635735166057945,-57.42878378678998,0.35499878862672185,77.88933261542603
1698744129472.0,0.01666666753590107,-0.2163917571276426,0.8467245270051061,0.4129267211407423,-4.778676876068115,-1.2153567638672889,-8.01937787617147,-57.83484536313641,-28.19538630893323,71.10161356167242
1698744129489.0,0.01666666753590107,-0.8021674462676048,0.8866039713203906,0.15971534565985201,-5.497237233844399,-0.9576809563234447,-8.250119645690917,-61.470910228171036,-63.40745327297724,62.09962914127071
1698744129506.0,0.01666666753590107,-0.8037658213749528,0.9190075267970561,-0.2967874823570251,-5.679345905359089,-0.7100307221010327,-8.648155087170004,-62.20202733730754,-73.10807725301204,62.429390674398924
1698744129522.0,0.01666666753590107,-1.1777590007483958,1.4787009724363684,-1.0306143828481436,-6.271013282886147,0.15667042500600217,-9.305961993297934,-69.72069274546841,-53.862441492802844,68.20056584379037
1698744129539.0,0.01666666753590107,-1.3367401869148015,2.028052180020511,-0.6680173344969749,-6.541558070483803,0.9732426825925707,-8.91226545780599,-84.22394374983017,-31.064687307553058,73.61474751583276
1698744129556.0,0.01666666753590107,-1.4054671016603708,2.2656373856939376,-0.24410452443957328,-6.673986765289306,1.5179236333433537,-8.481459381103516,-101.13161258733317,-15.429853250185904,78.93640061518899
1698744129572.0,0.01666666753590107,-1.7948317454278468,2.7990499965205786,0.6734019501447677,-7.132476383209228,2.528127023260295,-7.548917249950766,-124.12856582463179,-30.367406955564796,76.25951970586675
1698744129589.0,0.01666666753590107,-2.346436869418621,3.275151843498647,1.385337921345234,-7.777713730621337,3.3963246103370093,-6.779031778606772,-140.38548155877265,-57.5712956838223,64.13960174067842
1698744129606.0,0.01666666753590107,-2.485899700644612,3.2495015616744753,1.2885767522484064,-8.060828661456704,3.766378267437592,-6.762721279796957,-152.1036409667917,-79.48444133381247,46.60553283929896
1698744129622.0,0.01666666753590107,-2.513015086585283,3.532413078892231,0.4143634759455919,-8.288577094379066,4.56948335988149,-7.442973826488852,-159.12073143325264,-66.18671871795796,37.237781543559315
1698744129639.0,0.01666666753590107,-2.028348824879527,3.993384576755762,-0.5315770659625529,-7.90326026469767,5.429151539611816,-8.251316746520995,-159.8196783513984,-43.82265763934189,43.53386358085541
1698744129656.0,0.01666666753590107,-1.7873855210751295,4.006711091318726,-0.949112742203474,-7.712622542029619,5.834519954327494,-8.546551738739014,-150.86042359444428,-28.257561520947856,50.884888826027485
1698744129673.0,0.01666666753590107,-1.5900544382482766,4.1714726144522425,-1.4573486800670623,-7.538294149127602,6.502502363641559,-8.897451335033773,-134.56262234793172,-21.14725092514725,60.45278173992143
1698744129689.0,0.01666666753590107,-1.474928760421276,3.9500539690732954,-1.6708248420089482,-7.419780582427978,6.644059244537353,-8.990077011761068,-125.4813804124012,-17.85615842452246,64.90834636195252
1698744129706.0,0.01666666753590107,-1.519185250777006,3.632645431230962,-1.7189321625739336,-7.446566882544755,6.667552348327637,-8.917952271270751,-120.24203792273279,-15.267918002701363,62.62859997173152
1698744129722.0,0.01666666753590107,-1.4972440526038406,3.035212914305925,-1.7023808407455683,-7.400178640857338,6.500107869720458,-8.725219037628174,-113.75921168333939,-20.04238074198577,55.73434704239863
1698744129739.0,0.01666666753590107,-1.3153876022845505,2.7191630975961685,-1.6446972980618475,-7.202956279101968,6.488436428888142,-8.522160809326172,-107.89408043172524,-21.341865212715717,54.96916436477669
1698744129756.0,0.01666666753590107,-1.3172305998027325,2.4967437507420778,-1.7245920880317687,-7.182904840198159,6.548890020807087,-8.458414605602622,-106.14297702288488,-17.085909454083655,54.48872202836882
1698744129772.0,0.01666666753590107,-1.4694482831835747,2.387916004015505,-1.7020365573525427,-7.2816656586796045,6.815245247760415,-8.243235731396078,-109.26582147368475,-6.165712509060768,50.39285224350352
1698744129789.0,0.01666666753590107,-1.520196473646164,2.1185060656666757,-1.593764983204007,-7.27792471858561,6.823923936517536,-7.987356013488769,-113.56049415962703,0.5571876225825996,41.72633597928158
1698744129806.0,0.01666666753590107,-1.5635153908908366,1.8456722903490066,-1.6787836920589208,-7.268198274341225,6.802226776233315,-7.928548435211181,-115.69083699194317,9.850547486090226,26.553745219278788
1698744129822.0,0.01666666753590107,-1.0567623850613832,1.154013383501768,-1.8223410991221665,-6.693140963092446,6.408828931427002,-7.887696784862875,-110.21467135318292,21.41607863314249,10.279345054636334
1698744129839.0,0.01666666753590107,-0.541582911670208,0.8086708368122577,-1.7837538865745066,-6.122872055163979,6.264578865924477,-7.721150716400146,-105.99876440874924,27.58873573704187,8.553542374028995
1698744129855.0,0.01666666753590107,-0.34707506957054135,0.5586106188386678,-1.7657786694228648,-5.868188853564858,6.199785783496499,-7.585129550060629,-104.37704527335643,27.91845287394048,12.336195051483143
1698744129873.0,0.01666666753590107,-0.07067746429145336,0.32138299443125723,-1.5224907220631836,-5.5002305704414844,6.220735048022866,-7.169436286816,-106.54564399521381,25.450934338152067,20.54411448558386
1698744129889.0,0.01666666753590107,-0.024919921723008154,0.18939853626191616,-1.6471294936448335,-5.383811930194497,6.289867036437988,-7.145942598503828,-105.64254955296556,19.212104654026312,20.430453307605678
1698744129906.0,0.01666666753590107,-0.09197451934218406,-0.07057634200453758,-2.0582325064897535,-5.396979454803467,6.2009822998046875,-7.414991594585776,-91.3426059594384,16.689638953912443,12.27721039158456
1698744129922.0,0.01666666753590107,-0.3336369113266468,-0.4748573998749256,-2.6286224104493856,-5.586421245685219,5.969493511310219,-7.829488341522216,-70.62558352746838,16.7915522065182,3.4546960218141094
1698744129939.0,0.01666666753590107,-0.2657639830619097,-0.813166979187727,-2.7418974919736385,-5.48391948710978,5.737854500690102,-7.8434040541499845,-67.166939656314,20.076845876537657,2.859637988491551
1698744129956.0,0.01666666753590107,-0.14712708224356175,-1.1536913119405507,-2.6417221305191516,-5.326500727954507,5.496040133014321,-7.654262707519531,-69.44911759387954,26.668591435077968,3.3532610958936617
1698744129972.0,0.01666666753590107,0.01004383963048458,-1.6600655475854873,-2.3982047583177684,-5.102642288208007,5.122993002319336,-7.299321434618532,-68.82530275660393,37.27170709316677,1.8806934417366572
1698744129989.0,0.01666666753590107,0.042483635464310644,-2.1097534348905085,-2.221077090086043,-5.012859141430258,4.763713700214028,-7.055262795147299,-64.82286654448981,45.26418272405142,-1.9118478555317895
1698744130008.0,0.01666666753590107,0.09708324065804481,-2.4560610272198913,-2.1147382375657555,-4.903475222125649,4.493318550220132,-6.897096140234172,-62.69582952373195,50.66407564035014,-6.0378257545887415
1698744130022.0,0.01666666753590107,0.20188976904451847,-2.8810902740865942,-1.768208819179237,-4.725405889129639,4.164264875030518,-6.485741782976686,-65.34223412897758,52.418402898478746,-6.453167423583102
1698744130039.0,0.01666666753590107,0.1855658262312412,-3.086955376502871,-1.502835004478693,-4.687847435107827,4.033182918658852,-6.1637219519466155,-68.01195700004963,49.07343386568089,-5.6168671087756925
1698744130056.0,0.01666666753590107,0.11079641645103692,-3.2394711660474536,-1.5303025648579,-4.719420677240192,3.955071504974365,-6.121374217821657,-67.58905217720996,41.01124590903251,-8.067414758910738
1698744130072.0,0.01666666753590107,-0.07482786196917295,-3.336562005490064,-1.7754732572242617,-4.875343060357868,3.9356186164855953,-6.274453194206953,-55.74559977905623,33.265705522305915,-16.446624238337975
1698744130089.0,0.01666666753590107,-0.2602940272182226,-3.3542619128316638,-2.0503928989052773,-5.06239035731852,3.952229559546709,-6.491727871648967,-49.05848258158773,28.373141982082814,-23.369871320697563
1698744130106.0,0.01666666753590107,-0.2624582195147872,-3.304188845151663,-2.1894693611621854,-5.090372589221596,4.030190166583657,-6.556221094347536,-49.95749940090149,28.457146478684802,-30.042341177490965
1698744130122.0,0.01666666753590107,-0.29463293467164037,-3.2867490500509735,-2.236573057642579,-5.149329805102944,4.065654278674722,-6.542903639873862,-54.77058344484774,31.363853008294203,-33.33683852741701
1698744130139.0,0.01666666753590107,-0.2650055659100413,-3.215201232665777,-2.4207541515171527,-5.149778717914224,4.153790827289224,-6.664259736523031,-58.92352970551225,35.385505957638145,-36.533001643862384
1698744130156.0,0.01666666753590107,-0.22842647831439972,-3.183850401112437,-2.8450024771392344,-5.152472194781899,4.204069062152505,-7.009473688396811,-54.989528573787084,38.97371168715849,-36.50969020822513
1698744130172.0,0.01666666753590107,-0.16532266414761543,-3.1368776375353336,-3.2164626309037208,-5.11371605540812,4.259135700336098,-7.337479315838217,-43.91433926857097,40.491967117003945,-32.4965510896816
1698744130189.0,0.01666666753590107,-0.07845861968696118,-3.37590325127542,-3.719927408842742,-5.042039058685303,4.01597400970459,-7.8300860151544205,-25.68524568517665,39.068367863771115,-27.568757433719583
1698744130206.0,0.01666666753590107,-0.2129588600695133,-3.298550547003746,-3.884206993678212,-5.184793917194009,4.06640246669352,-8.03254598530233,-0.08959712086143806,33.396759777005535,-19.055423529560805
1698744130222.0,0.01666666753590107,-0.39708442436456676,-3.145522131761908,-3.9062788324937223,-5.366902296447754,4.190152765002846,-8.1085613034904,13.934926331450628,23.571718778597074,-11.52123993160567
1698744130239.0,0.01666666753590107,-0.9607757074683904,-2.6040976255238055,-3.9101393073141573,-5.926098021697998,4.694580542755126,-8.181584454125165,25.621666869287584,13.656363896340826,-5.182295895946808
1698744130256.0,0.01666666753590107,-1.6785189036428927,-2.0786738214939833,-4.016079223644733,-6.637475189971924,5.167286317554116,-8.383595511461793,33.87343867918072,-0.6197667762536084,2.279750232202414
1698744130272.0,0.01666666753590107,-1.9640701217144727,-1.9166355858445165,-4.077177543208003,-6.9229837379455565,5.289839515033364,-8.509590081566571,37.65703904538221,-8.267895325202598,3.04371777648233
1698744130289.0,0.01666666753590107,-2.4738141260534525,-1.7321651536345481,-4.1962750472754236,-7.443274270740151,5.421371553260087,-8.70202462452352,43.400674892040165,-6.635449377718286,-3.990858614584117
1698744130306.0,0.01666666753590107,-2.411853636702895,-1.942556793564558,-4.09479766331166,-7.41184978942871,5.108778014484048,-8.726115986467898,48.40386017606079,8.693356346339156,-20.46380512132285
1698744130322.0,0.01666666753590107,-2.122039500489831,-1.9705647444307803,-3.839316297072172,-7.1493860169559715,4.985027716174722,-8.584409467968344,45.69824124580573,24.820019519234236,-30.11631895639137
1698744130339.0,0.01666666753590107,-1.249466392609477,-1.8615449822634458,-3.392382384650409,-6.2976481918334954,4.986973005023598,-8.269272382189333,43.61308694503839,33.629409680514506,-32.28149916856917
1698744130356.0,0.01666666753590107,-0.5082897138774395,-1.3789748160541058,-3.11252704013288,-5.5745998749881975,5.334282467871904,-8.155847370800375,45.064990502191755,18.442176702478505,-20.928146994309706
1698744130372.0,0.01666666753590107,-0.3346393663674593,-1.0371364780932664,-3.1204245153844354,-5.419425679889321,5.588815447345375,-8.259695867809652,51.56170934635697,-10.306043410328268,-6.016372557292555
1698744130389.0,0.01666666753590107,-0.47993864866197106,-0.20414777710437773,-3.5847009000122547,-5.614104202380776,6.307973771014809,-8.819490143474935,70.80967078597857,-49.90432637821294,12.42236130295744
1698744130406.0,0.01666666753590107,-1.074640571579337,0.10589315457940102,-4.1740830892115826,-6.266373932647705,6.511629965209961,-9.482833640941976,90.35559581304737,-61.01625185587997,12.78574956491692
1698744130422.0,0.01666666753590107,-1.2762059309750795,0.17093816594183445,-4.275039371910691,-6.533627277484536,6.439356171637773,-9.682151513671874,108.18811324530512,-47.47489980742569,2.6286894424161447
1698744130439.0,0.01666666753590107,-1.3002537460386752,0.5077636441767216,-3.950768839344382,-6.624456718444824,6.522554094806313,-9.57620692116618,120.23970199803665,-7.924866149611633,-9.990055807435029
1698744130456.0,0.01666666753590107,-0.7234639119088649,1.0553460885226726,-3.134233845028281,-6.063465926471352,6.825570242419839,-8.9959128783077,122.36450554693592,10.937877743463114,-8.810657161371308
1698744130472.0,0.01666666753590107,-0.4174000671625137,1.5234236189991235,-2.6008506064265964,-5.751022609820962,7.024737893024087,-8.72117823780477,126.65980661028183,9.089904322945403,-1.351582272232747
1698744130489.0,0.01666666753590107,-0.10558569606542587,2.189090590977669,-1.8758406341195106,-5.436184506988525,7.421576233673095,-8.230067622265219,134.12126918414384,-9.287689525836047,7.410975523064567
1698744130506.0,0.01666666753590107,-0.4836059389978647,2.791675376099348,-1.3161176701247692,-5.8449950249820946,7.717709636035561,-7.885751496013999,145.29485760963775,-34.09784454436149,14.348950200821998
1698744130522.0,0.01666666753590107,-0.670963909342885,2.9825673657894134,-0.9791483995050191,-6.081721129608154,7.66728117904663,-7.6834414557307955,149.44198454912942,-40.33264270932965,10.782464472862289
1698744130539.0,0.01666666753590107,-0.6358592782139778,2.8195862963318823,-0.33174189136028287,-6.125864807239174,7.157166880090534,-7.203104747661948,145.2810606275143,-29.330259805571284,-2.7299696218632095
1698744130556.0,0.01666666753590107,-0.27889935896694656,2.654266554793715,0.42252573961317536,-5.813421490588784,6.720374714715779,-6.577918839153647,135.26725198346693,-9.427961120820598,-14.290527323982648
1698744130572.0,0.01666666753590107,0.014427753803133964,2.6778879611387847,0.7763081978678703,-5.540332863727212,6.4785603470399975,-6.356006272777915,122.47570102662372,6.411565168235377,-21.223361430615995
1698744130589.0,0.01666666753590107,0.6397369964301586,2.8830837859913707,1.330258423680067,-4.913799632263183,6.345083312225341,-5.973382335442304,112.30941523954496,13.240673460811973,-21.105088167400762
1698744130606.0,0.01666666753590107,1.0539257003307343,3.2631296895325184,1.6212603083729742,-4.495413476672768,6.481253531646728,-5.796212581634522,110.8708134758002,6.786175004114366,-15.671723909074394
1698744130622.0,0.01666666753590107,1.120958086118102,3.606033903159201,1.8158581668436526,-4.434212281256914,6.590638912256062,-5.694308788952231,109.32763468567337,-3.214001863010153,-8.181657356742019
1698744130639.0,0.01666666753590107,1.0810194589614868,3.8561823839381333,2.0896376985788345,-4.50080043040812,6.54679509435445,-5.511301999554037,104.46175327944293,-11.133533634880006,-4.329348275697963
1698744130656.0,0.01666666753590107,0.9695394441604613,3.7172616967648264,2.4156325707197186,-4.635623911395669,6.195446000726521,-5.240158661541343,98.92639722133534,-7.74183330155457,-7.791693682495663
1698744130672.0,0.01666666753590107,1.0581582233339548,3.6598382663220166,2.613583831271529,-4.560954162597656,5.931335045568645,-5.095908011516928,90.60295794402855,0.4979338105420349,-13.595342132522287
1698744130689.0,0.01666666753590107,1.408120246517658,3.366754899179935,2.9724048682153223,-4.202273995429278,5.377376928710937,-4.815487142071127,78.67833557777838,14.08643358761985,-19.07286100251185
1698744130706.0,0.01666666753590107,1.8980664944529533,3.2109856607973573,3.3496950433075425,-3.6840789736092088,5.0442839150026435,-4.501996946716308,70.71669142080718,20.433936704082384,-18.464461902192962
1698744130722.0,0.01666666753590107,2.094090001812577,3.29460794685781,3.5991584644317625,-3.4478000282287597,4.970362646484375,-4.3159974052429195,64.61716173725654,22.919772099677477,-14.379445287918811
1698744130739.0,0.01666666753590107,2.378424829831719,3.428031497919559,4.025953551927208,-3.106926151385903,4.919485861206055,-3.9650966399043797,55.434119247241554,20.322541441361356,-8.138108924367662
1698744130756.0,0.01666666753590107,2.467345222300291,3.4006735353946684,4.333655811530352,-2.9819787522464987,4.779275572613626,-3.702183370098471,47.04061247433419,15.265211540242746,-2.637399000824969
1698744130773.0,0.01666666753590107,2.4706261436671015,3.457629348325729,4.513230288392305,-2.953697245135903,4.7484500801086424,-3.5540421423763036,36.76379032082253,8.227665510991224,1.8848675410931812
1698744130789.0,0.01666666753590107,2.440616205328703,3.525161500328779,4.636135952571034,-2.974047959247231,4.741716168743745,-3.4491467666625977,23.10591012248596,-2.7792714213962424,6.6707721278978305
1698744130806.0,0.01666666753590107,2.3404022654294967,3.5478929720968004,4.508696152094006,-3.0844799263000486,4.740219792706147,-3.573345393261313,12.639265059108595,-9.379917570198728,10.838085264594643
1698744130822.0,0.01666666753590107,2.299360645467043,3.6166453135445713,4.377704212093353,-3.1458319283634424,4.812045988641306,-3.69021294631958,2.937612068386651,-14.025080559626565,15.09299173541546
1698744130839.0,0.01666666753590107,2.037011439284682,3.9187159970015286,3.936739144948125,-3.447051840209961,5.153369289752096,-4.0988732421875,-7.176642831698832,-18.759070159210417,18.463739609688233
1698744130855.0,0.01666666753590107,1.5402216090649365,4.652599596115946,3.494206390094757,-3.9793133813053365,5.9412115658082065,-4.508581001281738,-17.468396632509787,-20.344391216516225,19.58180742587347
1698744130872.0,0.01666666753590107,1.2161264330655335,5.139111193427444,3.2816338989943263,-4.3345524681091305,6.508038516589254,-4.68620025242269,-31.662472293901743,-15.710859185471275,21.570157455534222
1698744130889.0,0.01666666753590107,0.6497627158820629,5.8645408524513245,2.8836574942260977,-4.918738257709145,7.409156750952452,-5.0394952194213865,-60.33376569363396,-6.920051834488493,29.7886884422842
1698744130906.0,0.01666666753590107,0.4400526284754276,5.872193997552991,2.386860065221786,-5.126135976520181,7.6132622963503,-5.49708701171875,-80.8115334291676,-5.40422880576121,36.7781917746875
1698744130922.0,0.01666666753590107,0.21566110476553438,5.777053123134374,2.109687383916974,-5.344756515613198,7.757363016510009,-5.721693054962158,-96.30329722153779,-7.614029363126231,39.30179640884547
1698744130939.0,0.01666666753590107,-0.16095570110976695,4.878069270451366,1.484373465114832,-5.722890740314126,7.2087917072571805,-6.248866333007812,-103.79963474130189,-14.549317215218906,36.63012351876538
1698744130956.0,0.01666666753590107,-0.5533651194006204,4.42550085927397,1.029119760376215,-6.121225457000732,7.0178539787292475,-6.616076428112387,-106.7177511019198,-10.885024885891909,29.66214894262596
1698744130972.0,0.01666666753590107,-0.7297773328393697,4.343443630573153,0.8457166651368141,-6.28822160731852,7.18844084701538,-6.716034347423911,-109.90690985937132,3.3565972164163895,20.98920376284774
1698744130989.0,0.01666666753590107,-0.7858937723368405,4.23494292384386,0.7374526897728443,-6.292710735431313,7.410353705652057,-6.729951229095459,-115.62847736482097,19.34041488022688,16.83248553021409
1698744131006.0,0.01666666753590107,-0.48333764345049857,4.02044004920274,0.580956890681386,-5.933131573596596,7.454197231292724,-6.813598065075278,-118.23441309923426,20.292089042946852,23.91337167107028
1698744131022.0,0.01666666753590107,-0.40180326958000656,3.63510129995048,0.49278819336295127,-5.7917240380436175,7.335684833636879,-6.816441179546714,-115.43672663406203,12.780687540968295,33.7555496141063
1698744131039.0,0.01666666753590107,-0.3344336146622896,2.70257115149647,0.18131693661510942,-5.659893309131264,6.752397454181313,-6.988674645996094,-101.03675492014003,-3.5931029751552477,42.651471441981464
1698744131056.0,0.01666666753590107,-0.6190852535456418,1.9119658404678106,-0.21366788512170312,-5.912631221881509,6.199186940820515,-7.268347327423095,-85.06437803663272,-12.942157481815627,45.0640240304242
1698744131072.0,0.01666666753590107,-0.7742740616917609,1.5381453873127697,-0.364741074642539,-6.0423670243412255,6.025457682855427,-7.313238608551025,-66.20018102081205,-13.119511027577826,42.25389979077336
1698744131089.0,0.01666666753590107,-1.142942538911104,1.264783496467769,-0.35589141323268414,-6.368576416015625,5.9627595268800855,-7.196371055492758,-50.993171230034285,-2.67901448966421,35.483286945796046
1698744131106.0,0.01666666753590107,-1.2257231134504079,1.0728376138105988,0.013099135547876357,-6.405836763873696,5.908591006579995,-6.7657146163940425,-51.72611199967918,7.688340967522323,30.264339400989304
1698744131122.0,0.01666666753590107,-1.1984931612193583,0.8461275840252638,0.24311609792411326,-6.321441155353188,5.817312068286538,-6.480954256439208,-59.16235410003092,16.922594508386773,24.36225170332352
1698744131139.0,0.01666666753590107,-1.0182850626289843,0.4352285693198442,0.5508855775445699,-6.056432959094643,5.597494428363442,-6.092794312286377,-72.15020469362028,24.585981379776456,15.475687234611273
1698744131155.0,0.01666666753590107,-0.7897744131624698,0.1475730724453926,0.6760925044029951,-5.766584920611977,5.460276161193847,-5.894823762512207,-80.08501303734252,26.152978747086415,9.022226539780684
1698744131173.0,0.01666666753590107,-0.7779343377649783,-0.08406301556527614,0.583733954179287,-5.702689663806558,5.378424391937256,-5.903053246197104,-83.84878194928888,24.028766009550353,3.9406797760729724
1698744131189.0,0.01666666753590107,-0.657934916421771,-0.3432610642403364,0.4452110341519117,-5.53195286565572,5.314080806842446,-5.9115825896114105,-85.87353005703662,19.230208070421433,-0.998118168415589
1698744131206.0,0.01666666753590107,-0.5892828204780817,-0.4745575401455164,0.2579541860938072,-5.43588552404195,5.325303042602539,-5.990441606792807,-87.82833702768345,18.52058215150837,-3.641291240410157
1698744131222.0,0.01666666753590107,-0.5600327605962753,-0.6699170306384563,0.10651976204514503,-5.384260843005776,5.26649663336873,-6.029945934185386,-88.34664593284987,19.95849406614697,-7.733663541533589
1698744131239.0,0.01666666753590107,-0.5083399827599525,-0.8742302274376154,-0.14792904627621173,-5.310190229144692,5.233725413623452,-6.131700089263916,-89.29892456731137,23.112706160710122,-13.808202416684795
1698744131256.0,0.01666666753590107,-0.5187278135225176,-1.1042279005914926,-0.43524552045464515,-5.307945665088296,5.125387788501381,-6.302586232757568,-91.22878085692014,26.207415354771417,-18.113560933583557
1698744131272.0,0.01666666753590107,-0.43267420866191386,-1.2643167557388544,-0.6245838509619236,-5.212327236285805,5.08154397059977,-6.373962785229087,-93.87520595273328,30.78721087252129,-22.60907533207006
1698744131289.0,0.01666666753590107,-0.35115181749016044,-1.3633002770602702,-0.9171247817903757,-5.120449455316365,5.128679231262207,-6.509833144921064,-93.23276518959105,35.1269286560398,-26.617149865344018
1698744131306.0,0.01666666753590107,-0.1594660470739007,-1.3978583802223206,-1.1610264771342276,-4.923825351715087,5.194819052124023,-6.638970396965742,-90.45539170701042,36.60984127202502,-27.716668595290795
1698744131322.0,0.01666666753590107,-0.13340864575356245,-1.3292016081035136,-1.3365069626808166,-4.892102471978962,5.355530423083901,-6.706756815990805,-85.23285831288943,36.53289577593025,-25.51608580509753
1698744131339.0,0.01666666753590107,-0.011587269680202007,-1.3136024724334479,-1.610305783638358,-4.761618481500446,5.485116003417969,-6.843375363701582,-79.30771018903839,32.811272546257456,-21.311120823714198
1698744131356.0,0.01666666753590107,0.019701018030941486,-1.3463959040105342,-1.766975770252943,-4.723011979730427,5.534048084369301,-6.898890914696454,-75.00681520076223,29.304721728264607,-17.62084474723718
1698744131372.0,0.01666666753590107,-0.02124678616821766,-1.430108790963888,-1.8839923763930797,-4.75623182002604,5.5280625802189105,-6.917296924480795,-70.66247337917562,25.347129123146214,-14.109320697754915
1698744131389.0,0.01666666753590107,-0.0016799159109592437,-1.768130200985074,-2.1009043580025435,-4.726304007013142,5.289391186743974,-7.0039370970577,-64.29885443136644,21.14358823620483,-9.787972708009153
1698744131406.0,0.01666666753590107,-0.02446399464905262,-2.034391612175107,-2.2070693152606484,-4.735881398175657,5.090223536139726,-7.025036875970661,-55.223718684953894,24.02069443349869,-6.485406343352385
1698744131423.0,0.01666666753590107,0.06123831255584955,-2.572919812449813,-2.413707740136981,-4.621707321985066,4.629488769641518,-7.142950430950522,-44.53953380405892,19.677500083692642,-0.32368872122370734
1698744131439.0,0.01666666753590107,0.032787001836299894,-2.672880654370785,-2.4712498285233973,-4.626196742358803,4.583101112475991,-7.141902675463259,-37.31782111534811,12.147533273776343,4.952588096422817
1698744131456.0,0.01666666753590107,-0.23528058199286458,-2.6993425448387858,-2.623468096426129,-4.866963354547321,4.606444578662514,-7.2433572630733245,-27.72388298260162,10.521046666342867,10.14156562492519
1698744131473.0,0.01666666753590107,-0.7378314599573612,-2.437596565246582,-2.928586769276857,-5.319466883794963,4.920682962036133,-7.514949221636354,-9.509767150283487,8.54043097214351,16.3760325257186
1698744131489.0,0.01666666753590107,-0.9972364293813705,-2.3054490254700184,-3.0100942551404235,-5.539584383447468,5.078701440650224,-7.593958168682455,1.1617391919646525,0.02098706356576,18.53473601101593
1698744131506.0,0.01666666753590107,-1.7026029590636491,-1.7880378475040197,-3.1386715352147814,-6.213701788385212,5.613505651965737,-7.725340277044475,7.495159312132268,-7.078332503880253,19.14984747974165
1698744131522.0,0.01666666753590107,-2.413888357400894,-1.063191541326046,-3.2517917184382674,-6.889165931756794,6.35181758891642,-7.851783759960532,11.539461168763973,-5.579796257055449,16.487023099731307
1698744131539.0,0.01666666753590107,-2.5634891362816092,-1.0057704489707946,-3.365296224804222,-7.016956153106689,6.4103258919864885,-7.984661952099204,14.651203147067987,-3.4402531599272943,11.528234045315765
1698744131556.0,0.01666666753590107,-2.4330340796366334,-1.0863216570228338,-3.3858500602722166,-6.875100289264321,6.32009500144124,-8.03164815967977,17.066971047062506,-2.1762673167480204,4.012593130296744
1698744131572.0,0.01666666753590107,-2.33627495636642,-0.975289970511198,-3.275591696220636,-6.784868814197182,6.400001481848955,-7.9644608755916355,18.795797793924866,-1.335215965042633,-7.233701378251472
1698744131589.0,0.01666666753590107,-2.2241844084516167,-0.8151502619594335,-3.1871246004775164,-6.697929074151814,6.524199523925781,-7.908346774181723,19.864537983924272,-7.703226511044719,-12.861630405274823
1698744131606.0,0.01666666753590107,-1.7880320022851228,-0.5597147806882858,-3.150418379370868,-6.3049804344177245,6.739528035736083,-7.892634533526003,21.422644152482164,-22.08808387010712,-11.63624324175576
1698744131622.0,0.01666666753590107,-1.5459829490706323,-0.3675824355483055,-3.32891382882446,-6.138134506225586,6.875548617553711,-8.084919146618246,32.54216309295895,-42.001930697197004,-5.660928232224622
1698744131639.0,0.01666666753590107,-1.4250895014971494,-0.5265612836271524,-3.4335178203761574,-6.088156131091713,6.660520549994707,-8.205527055248618,46.602172386227316,-52.41686952101008,-6.574073724723375
1698744131656.0,0.01666666753590107,-1.2970815457433462,-0.7347089440226554,-3.384586616207659,-6.0682540375307195,6.344335124206543,-8.21091342446208,64.21648234997608,-43.67117087374018,-12.957784954636617
1698744131672.0,0.01666666753590107,-1.2615835313826798,-0.4315004887074232,-3.059424980020523,-6.109254156439006,6.539612197113037,-7.9659572516292325,72.95988263859027,-29.163637340768823,-19.471993351945297
1698744131689.0,0.01666666753590107,-1.23601420584023,-0.21328969945907592,-2.8742811785936353,-6.153996676746011,6.631490270343423,-7.887547731781005,77.80789626995197,-16.762172147803394,-24.538339102768326
1698744131706.0,0.01666666753590107,-1.2681091337591408,0.4682978952288627,-2.2927187232345343,-6.2689183564335105,7.124246899524331,-7.475445186504722,81.94239418966828,-4.651055308247441,-30.446756678247418
1698744131723.0,0.01666666753590107,-1.131277235558629,1.0570248353898524,-1.7692986602425573,-6.193201728931069,7.553257909503579,-7.0934203841060395,86.37060390407348,1.4555884442105873,-35.91546033533943
1698744131739.0,0.01666666753590107,-1.057076273316145,1.2941969302177427,-1.415306358629465,-6.176891230121255,7.615357515063882,-6.892607304382324,89.1464952356042,8.467356485760835,-41.08853632968037
1698744131756.0,0.01666666753590107,-0.4894394674569368,1.290774554553628,-0.7634247508972882,-5.6857800300598145,7.355885910144448,-6.454018903240561,91.40423475631943,14.24022810338738,-47.4978116769965
1698744131772.0,0.01666666753590107,0.06892506766617297,1.43749071790874,-0.10262333912849425,-5.180604064288735,7.296330143848061,-5.9581198843806975,93.44678233704423,19.188277539106725,-49.4340610236684
1698744131789.0,0.01666666753590107,0.3659855217456817,1.7012439456701278,0.25486206529736516,-4.927866151538491,7.344812727466225,-5.769726141247153,96.81462567337246,20.94670461828463,-48.48099691745233
1698744131806.0,0.01666666753590107,0.5278261889964342,2.2322318135678767,0.7716343608379364,-4.814740123096108,7.577349563708901,-5.47793281391561,101.91765807777492,18.34125041220781,-43.13292464638649
1698744131822.0,0.01666666753590107,0.6544406445652247,2.6315228080660105,1.2270838804095983,-4.723012271991371,7.748684620013832,-5.181351083263754,103.30448017742181,13.413119515655517,-40.63792825956712
1698744131839.0,0.01666666753590107,0.7603384753197431,2.839225647303462,1.5807342367172241,-4.650886362457275,7.725939411981403,-4.977395029339194,101.19233979924375,11.666314003350388,-40.264733553506794
1698744131856.0,0.01666666753590107,1.1531003603100776,2.7982164683058857,2.1668910341292618,-4.301332920074462,7.38656103439331,-4.5685850958675145,91.55851506929167,11.399484979461024,-39.973210834446895
1698744131872.0,0.01666666753590107,1.6815999185234307,2.6548122059777377,2.632532861891389,-3.8006460824161765,7.0335662193849675,-4.218882600402832,82.81654912040318,11.75534637295515,-38.92906957074329
1698744131889.0,0.01666666753590107,1.8678209937930106,2.783909418272972,2.786801632583141,-3.6361943558841943,6.969521324975788,-4.167107404980063,73.13435982093826,9.917962306971898,-34.784688367297974
1698744131906.0,0.01666666753590107,1.9614953027904032,2.969623128542304,2.794638317558169,-3.5705034478336573,6.932710474450886,-4.266616411480308,64.16108951580728,2.330654991756284,-25.132850720957283
1698744131922.0,0.01666666753590107,2.0676082376003264,2.892834780155122,2.8215602267533537,-3.4893992820739745,6.708702689361572,-4.300883422741293,62.15623091892261,-4.270632981384772,-19.18897251085477
1698744131939.0,0.01666666753590107,2.1602596332907678,2.869344014452398,2.8337223737120625,-3.424906059375405,6.545897560992836,-4.339789784240723,61.17820247129014,-7.787117455751755,-15.11239288775288
1698744131956.0,0.01666666753590107,2.4846517464101314,2.868377215246856,2.7888708400726316,-3.1423902634769676,6.372018373163044,-4.438250742992759,59.02857801494705,-13.326650174536802,-9.012566090973348
1698744131972.0,0.01666666753590107,2.7573504971712826,2.7200302358195185,2.878570984742045,-2.9049148017883297,6.1047656128481025,-4.377647513470054,56.11806023978078,-16.66042794237959,-5.431161522319039
1698744131989.0,0.01666666753590107,2.8056021946430203,2.873495288912952,2.8933880301237105,-2.8935429284244774,6.1516021828249094,-4.382884829601645,51.59454548079181,-19.248526637775406,-0.8494056335556649
1698744132006.0,0.01666666753590107,2.7277754431188104,3.101547965478897,2.8909160870522257,-3.0250743821293113,6.264728211267292,-4.393958596801758,42.870338023745354,-25.63029339820931,4.887606530432962
1698744132023.0,0.01666666753590107,2.7651620477050542,3.1203347912743684,2.84433962931633,-3.0356986519962548,6.2204351882934565,-4.429571761974692,35.23264290891868,-30.231827700540045,8.385455687423212
1698744132039.0,0.01666666753590107,2.764296955308318,3.0969407639443873,2.799036844778061,-3.0876229005008935,6.152200440979003,-4.452915812683105,27.30216490513023,-31.19141122231889,10.421890248840853
1698744132055.0,0.01666666753590107,2.8136510610640046,2.95150294996202,2.6486417006492613,-3.099444271197915,5.977424012048542,-4.565891618999839,16.137795527468555,-26.223240903078334,12.827108921662287
1698744132071.0,0.01666666753590107,2.8078321456521746,2.846535093533993,2.5438684900105,-3.1373025849491354,5.87028348775655,-4.645200133514404,9.916828495569677,-19.32681938868397,14.500932155138536
1698744132089.0,0.01666666753590107,2.83943432161808,2.7843746976971624,2.479663436603546,-3.124134475818276,5.817311776025593,-4.690241052246093,6.287690296127087,-13.71353343346748,15.853475242888434
1698744132106.0,0.01666666753590107,2.8507167631328105,2.773141063760221,2.385176057657599,-3.125481214252114,5.8310784355714915,-4.763562893566489,3.1102734876324614,-11.947976490569728,19.511505996293824
1698744132122.0,0.01666666753590107,2.748192792725563,2.8933412683725357,2.361972292202711,-3.232172825732827,5.983858429010212,-4.76924912250936,-0.889146662354561,-11.633417250986668,23.70808521292367
1698744132139.0,0.01666666753590107,2.684138545966148,2.9455224142476917,2.349748770445585,-3.2987615594059227,6.083068160302937,-4.758774490246177,-6.203738306604345,-13.466529887417725,27.405230752158428
1698744132156.0,0.01666666753590107,2.2844389706671238,3.2980329528704284,2.2599685462772845,-3.700239250293374,6.523900248718261,-4.80740729598999,-16.386784951019493,-13.835632456391567,30.88688723817387
1698744132172.0,0.01666666753590107,1.8494225827932356,3.706891693919897,2.103985957404971,-4.132542287555337,7.025186221313477,-4.92277788848877,-28.459940026055335,-13.413263803401733,33.97693312057934
1698744132189.0,0.01666666753590107,1.6812065352916716,3.824000654518604,1.9466659824490546,-4.292205610767007,7.262960665948689,-5.0291702247619625,-42.61662381683606,-11.230862976779042,37.37022915684962
1698744132206.0,0.01666666753590107,1.112181489944458,4.047222842188179,1.5151666627854108,-4.8340433739811175,7.69661044164449,-5.376478518566489,-60.63837847023818,-8.300970516258385,43.388021966602714
1698744132222.0,0.01666666753590107,0.6269301218271255,3.6633313691347835,0.9869546893417834,-5.288941689410805,7.499986338043213,-5.82868394165039,-68.86447389149394,-6.488578112448209,46.333653744292015
1698744132239.0,0.01666666753590107,0.4070020072668791,3.242723153580725,0.7408224584668874,-5.468058485633135,7.276278704944253,-5.9959787826538085,-70.84850041141009,-1.4491016854897794,46.87103253762111
1698744132256.0,0.01666666753590107,0.05715864202678203,2.4900047978758812,0.4304705611377954,-5.742942179217934,6.777685624694824,-6.213700911602378,-64.69460242206614,7.34449131545731,46.09717551975325
1698744132272.0,0.01666666753590107,-0.16550152784585953,1.7207675613075493,0.3100157972425222,-5.897368770819902,6.18631781463623,-6.27595073928833,-60.751110742489246,10.50517501425905,44.96835698581442
1698744132289.0,0.01666666753590107,-0.267544436737895,1.3495894393548369,0.3407259928047657,-5.928643030005693,5.982661328180134,-6.190507083019614,-58.15339855583663,10.603744035492443,42.720476843166104
1698744132306.0,0.01666666753590107,-0.35086101785004137,0.7293047468915581,0.5073650002479553,-5.924153317371011,5.575347770746052,-5.944353224834799,-60.63638405500054,6.517678133407049,38.46620814125904
1698744132322.0,0.01666666753590107,-0.3288134366929531,0.31428397608101366,0.5202934554040431,-5.84768850184977,5.322011599841714,-5.854271387371421,-66.58761667129185,0.5138939349199448,36.55376200384463
1698744132339.0,0.01666666753590107,-0.38723523052334785,0.09727028766274452,0.4028109853178262,-5.859360819464921,5.272631190600991,-5.877465800476074,-72.39935633416401,-1.3635642383059479,35.555960158564986
1698744132356.0,0.01666666753590107,-0.5049135154426098,-0.09210019154846667,-0.005990180325508117,-5.915773611560463,5.308693853107094,-6.14801058807373,-73.65690344339008,-0.9368612966792123,33.14764570250224
1698744132372.0,0.01666666753590107,-0.7746668604016304,-0.12021744800806045,-0.6066682550430298,-6.140080379596352,5.4424692863464355,-6.643160834392905,-70.28472976712806,-1.572313602361755,32.23458942934952
1698744132389.0,0.01666666753590107,-0.8791670993179083,-0.17923253155648708,-0.9408978715658187,-6.202778535571694,5.534347359576821,-6.872554696434736,-65.7158659671448,-5.082242589229407,31.445637693415936
1698744132406.0,0.01666666753590107,-0.9010866701811552,-0.0952139396548271,-1.4187123676806688,-6.174346806335449,5.8087827248722315,-7.207144378441572,-61.55216898872668,-11.211412305570137,34.57027165377835
1698744132422.0,0.01666666753590107,-0.9311679201900959,-0.0882867707401514,-1.9298165544569492,-6.169408765411377,5.957821193695068,-7.602187652367353,-58.2881103768368,-21.634613950731634,40.72102775610408
1698744132439.0,0.01666666753590107,-0.9439397234797477,-0.17197101612091065,-2.317373856541514,-6.152350663104653,6.016629356494546,-7.862108754619956,-51.64752042799443,-35.13058280724576,48.87483245518443
1698744132456.0,0.01666666753590107,-1.1619827549457549,-0.22717384790480136,-2.935752423122525,-6.330867739868164,6.140829152137041,-8.311769753918052,-32.573626359370614,-45.40007275268341,57.61529576245552
1698744132472.0,0.01666666753590107,-1.2595453035533428,-0.45856092959046363,-3.3362744207203385,-6.392668654742836,6.022165947833657,-8.610895323833823,-11.987861380228017,-47.361737233256925,61.2571116467713
1698744132489.0,0.01666666753590107,-1.3022078027158974,-0.680510905367136,-3.364151438683271,-6.392967929950356,5.885397762519121,-8.57408447330892,9.024725535243263,-45.56624784009524,62.58348657226358
1698744132506.0,0.01666666753590107,-1.333949094891548,-0.7761626519173384,-3.0950632796347137,-6.355558529010414,5.864447913470864,-8.277353105053304,32.50636265642433,-39.516643424282805,63.980765691529776
1698744132522.0,0.01666666753590107,-1.2996300611823797,-0.6369879899829626,-2.4123183316051957,-6.2603890130192035,6.034585868945717,-7.613411641693115,45.049970916206895,-36.49909658482244,63.853587569184135
1698744132540.0,0.01666666753590107,-1.275755556859076,-0.809923467221856,-2.126390681436658,-6.177040867725014,5.877166525268555,-7.363815534099936,52.0942284600916,-39.342876581608515,62.75887216977117
1698744132556.0,0.01666666753590107,-1.1413421179771424,-0.9320359351962805,-1.4610855285078286,-5.974281622369587,5.760598831939697,-6.7546408491939305,56.05399306536606,-42.41520495330697,59.89558856781013
1698744132572.0,0.01666666753590107,-1.0573062826797366,-0.986950013166666,-1.0356430246651172,-5.84753827972412,5.699397636523843,-6.375757851952314,58.35672645723874,-42.09236581690256,54.96800323261779
1698744132589.0,0.01666666753590107,-1.0180626520499587,-1.0686275949001312,-0.8773615112006664,-5.774964626422524,5.600936677771807,-6.2680193617671724,59.7623725582382,-41.36278208523472,50.234214269840805
1698744132606.0,0.01666666753590107,-0.8898866462528705,-0.9930576823920011,-0.5415887568891048,-5.609764711871743,5.642086434283852,-6.006752105602621,60.291227275483116,-37.372988553274304,45.11213588293777
1698744132622.0,0.01666666753590107,-0.7002846963733435,-0.9393658396929502,-0.3103384533256292,-5.397428367614745,5.664082577514648,-5.833172485241294,59.44377155421378,-36.5670501368749,41.616014763807534
1698744132639.0,0.01666666753590107,-0.6542436606884002,-0.8539186762928962,-0.16096680702567098,-5.3354792764410375,5.71391248408854,-5.739499345287681,57.784725435006855,-37.150040933481336,38.76068150204038
1698744132656.0,0.01666666753590107,-0.5274816133424639,-0.6407242539018392,0.010846972706913947,-5.199308472497761,5.879411089324951,-5.63116172016561,52.62564108318069,-39.868193260863364,34.329664579886305
1698744132672.0,0.01666666753590107,-0.3866036546215415,-0.4830827919065952,0.0901250920832157,-5.062988907733559,6.002413784137368,-5.587916452679038,48.76611291907076,-41.26229292707091,30.439455206024675
1698744132689.0,0.01666666753590107,-0.32025574396699663,-0.38262101472616195,0.11574877816140651,-5.008669873046875,6.068852880206704,-5.591058257836103,45.10741622222129,-40.88046486189969,27.345309502569908
1698744132706.0,0.01666666753590107,-0.1392068106383085,-0.1795487578988075,0.0337538010418415,-4.84870756688863,6.227468740192055,-5.705681831359863,43.47553718043809,-38.612664472537034,24.346362975766777
1698744132722.0,0.01666666753590107,-0.0068611179411411285,0.0636211160391569,-0.047424014475941655,-4.732439441028237,6.434716821399331,-5.813570543670654,44.96053641921475,-37.33145758802604,23.899936688972865
1698744132739.0,0.01666666753590107,0.19991846897155044,0.3114198188215494,-0.04668693237304687,-4.54838548066467,6.629395343890786,-5.852475736126303,48.338099114731904,-40.026452159027144,25.38545672967374
1698744132756.0,0.01666666753590107,0.23766660034656523,0.43631578003466126,-0.010108721560239791,-4.529231575122475,6.713491677203774,-5.844844218334555,49.940714211016186,-42.85456028676262,28.58505543127163
1698744132772.0,0.01666666753590107,0.44660015042275186,0.6326952612251043,0.16693009934425354,-4.336048844146728,6.872107537189126,-5.6953562521785495,49.66133556830057,-43.897922908900846,31.938162634465552
1698744132789.0,0.01666666753590107,0.5394494067728519,0.5992676233977079,0.21829554492235181,-4.261679539600014,6.796541131812334,-5.673509746551513,48.438253593626385,-47.96586405024996,36.79094032277333
1698744132806.0,0.01666666753590107,0.6122860949248076,0.5980629237830638,0.28411270970106123,-4.203021891187131,6.770204913550615,-5.622483323669433,47.81486222807932,-52.19619976930531,40.24304428779742
1698744132822.0,0.01666666753590107,0.693733667294681,0.48642099641859526,0.3162082221418619,-4.137779311425984,6.637625412097573,-5.598989050835371,48.63103909804458,-56.980532131940386,43.3284627170402
1698744132840.0,0.01666666753590107,0.8203703346952795,0.3170762371480465,0.3510357898950577,-4.036325016076862,6.443395802417397,-5.569361389812827,51.26668615534744,-61.60431065285056,47.88768228991542
1698744132855.0,0.01666666753590107,0.8952908433839678,0.24751170253455637,0.42277416141629215,-3.977367800195515,6.356006857299804,-5.502921709221601,54.164469042806225,-62.77080451025118,52.178700824651735
1698744132872.0,0.01666666753590107,1.0861878015100956,-0.021794483178853987,0.5320896916598081,-3.797353762872517,6.070647946929931,-5.40116872318685,58.01844084802635,-65.41577477577111,57.419392276681215
1698744132889.0,0.01666666753590107,1.2549229044497012,-0.13468728738725186,0.7657727753281592,-3.6399350037172433,5.936872513690591,-5.179555432018637,63.11314725183056,-71.53117098876369,64.64750826773891
1698744132906.0,0.01666666753590107,1.2396300582498312,-0.11598550952672958,0.8877975650191307,-3.6641765877872703,5.942258882904053,-5.063735926708579,65.49748432881198,-78.82562860722972,70.25053784014298
1698744132922.0,0.01666666753590107,1.00475338088274,0.0905003551363945,0.9418658398151397,-3.9124253724247215,6.1385845880806444,-5.008969148254394,67.46896379122279,-86.46100828792775,74.10440377743097
1698744132939.0,0.01666666753590107,0.615970336395502,0.6247498551785946,0.8379244038254022,-4.329315736499429,6.66456018077433,-5.098003522491455,67.34677170697127,-96.17060030634279,78.24813611290514
1698744132956.0,0.01666666753590107,0.5493979693353176,0.7961053697496652,0.7441665081977844,-4.425831990924477,6.836793062701821,-5.165788772472739,64.90376330501945,-105.48316708868332,80.73821817861669
1698744132972.0,0.01666666753590107,0.585654693108797,1.041314640560746,0.49665655922889707,-4.431667857471108,7.09297264033854,-5.366303746032714,61.01306898772674,-119.04902244078501,83.66787755893192
1698744132990.0,0.01666666753590107,0.6162170046329498,1.0415472802728414,0.004371639212965965,-4.4783553743660445,7.127838202014565,-5.755211293682455,56.35031399231789,-139.8213079333296,90.38887249468367
1698744133006.0,0.01666666753590107,0.6499725592404604,1.0604098016530275,-0.40478491573929787,-4.516661431884765,7.189488310241699,-6.053737728661298,55.20151373996218,-158.65920189065656,96.39784753021829
1698744133022.0,0.01666666753590107,0.5973574058622122,0.853870745497942,-1.1726847662240265,-4.657770276752114,7.03521252528727,-6.681319007873535,57.1214491798015,-180.50651817742613,98.96539760149611
1698744133039.0,0.01666666753590107,0.5365677138566971,0.3348118003249168,-1.9746213263452053,-4.868160747638345,6.583157908850908,-7.258321023449302,62.952904183712896,-197.10145997359095,91.53133091639502
1698744133056.0,0.01666666753590107,0.47201194731593127,0.12459668600559234,-2.297886481261253,-5.0577510070800775,6.405537488666177,-7.410801741680502,67.84072415755742,-188.84932104102992,76.7370318911207
1698744133072.0,0.01666666753590107,0.5076935015499592,-0.2996539777040481,-2.722421807131171,-5.1813522523075335,5.98206248550415,-7.656506687054038,72.56455811961911,-148.35435888607492,49.13090307735738
1698744133090.0,0.01666666753590107,0.8444833239495754,-0.27416122452914715,-2.6006802182957527,-4.941632811084389,5.975328793334961,-7.462277077373862,71.99873841858609,-107.71407079614956,32.29098630132632
1698744133106.0,0.01666666753590107,1.1355512596160173,-0.027080899149179456,-2.361276711153984,-4.7203187951236965,6.177489780536294,-7.1968199683040375,65.68362064407316,-78.03607922974375,25.014881401160114
1698744133122.0,0.01666666753590107,1.7197551693946123,0.3354068436086178,-1.9005092114299535,-4.206014935523271,6.48604251948893,-6.71977499525696,58.741149994294574,-73.90276293275386,24.06572928579117
1698744133139.0,0.01666666753590107,2.0509177995622156,0.5219967521905898,-1.6807061845541,-3.9362177514225243,6.637774465179443,-6.468383820940554,58.116139873914214,-88.385379935633,24.272088083637474
1698744133156.0,0.01666666753590107,2.1966987278938293,0.5107201558947563,-1.7231331213951109,-3.8730712671577927,6.591686667743325,-6.450726875957846,57.794547247033336,-106.26523057883894,22.890586701354014
1698744133172.0,0.01666666753590107,2.435738954681158,0.4752887770295143,-2.120171953052282,-3.7735622606575485,6.508937072864175,-6.725610569542646,57.989856506349845,-119.78727026741501,20.240343529794835
1698744133189.0,0.01666666753590107,2.5095623157829046,0.5418325025171041,-2.6066861807122823,-3.8103719421386715,6.536320754352212,-7.111676464025676,59.83432860114428,-116.31003462133985,17.20895701952873
1698744133206.0,0.01666666753590107,2.7351959485083817,0.463170469212532,-2.8806705873697993,-3.691111940985918,6.414515744891762,-7.291390641619265,60.47146913749058,-109.66814693655519,14.920411638109455
1698744133222.0,0.01666666753590107,3.050066200044751,0.4456248756498098,-3.3072482327222823,-3.501670150104165,6.336255278125405,-7.6137100401178,64.89795081403577,-98.34881593455155,15.640760954019434
1698744133239.0,0.01666666753590107,3.3179666106134653,0.6329571270316838,-3.5972207743674516,-3.3135756821781395,6.478411001697182,-7.842655866131186,69.71138319762969,-94.42860836985523,18.99363593078158
1698744133256.0,0.01666666753590107,3.4723043548882004,0.804520731395483,-3.69237567731142,-3.2305273966133594,6.607698475867509,-7.883506931957602,74.83435975440858,-96.00734512480115,24.163532472063874
1698744133272.0,0.01666666753590107,3.5323967122793194,1.1588947258025406,-3.813836403378844,-3.257611218371987,6.914903307342529,-7.928996763500571,81.27483199075874,-103.87147467099209,31.233150508336838
1698744133289.0,0.01666666753590107,3.4566491051167247,1.4568003985345364,-3.9264264252483843,-3.396923827472329,7.181707739368081,-7.979125360760092,86.38633382973201,-108.38331322159492,33.421037684410344
1698744133306.0,0.01666666753590107,3.3956162520051,1.5592571489244698,-4.017650418484211,-3.521871811133623,7.249942486682534,-8.00950208658427,91.00647869000373,-106.18919691299836,31.771345509271747
1698744133322.0,0.01666666753590107,3.172552762028575,1.749288137871027,-4.111347523835301,-3.8236902733951803,7.381773215594888,-8.048107711571454,94.68431016181299,-89.76119177033785,25.847233866627256
1698744133339.0,0.01666666753590107,3.1370617619305845,1.832284400987625,-4.021699109353125,-3.905841317859292,7.409155728039145,-7.954434571617841,96.4513688925545,-68.34723732602723,20.078176055878515
1698744133356.0,0.01666666753590107,3.2329069852262733,1.9021376894146202,-3.8466467860907314,-3.8426948335945603,7.4112518235355616,-7.8160203726619475,98.69514067641705,-46.992189848213386,15.851089799320807
1698744133372.0,0.01666666753590107,3.4955239024341105,1.986509332537651,-3.438505837921798,-3.6022266198307276,7.390601249694824,-7.511357626885175,103.64790208889005,-28.49223657554574,14.566375612671013
1698744133388.0,0.01666666753590107,3.7420378261029716,2.199291666996479,-2.865963432103395,-3.360561889758706,7.518092488098144,-7.0413456212148064,106.95525726992865,-23.648469614300506,16.314712794897517
1698744133406.0,0.01666666753590107,3.8667104999542232,2.277391974765062,-2.492347561609745,-3.2369612290531395,7.511209742847084,-6.771998811230063,108.11927176866057,-25.43474166717726,20.206283083951273
1698744133422.0,0.01666666753590107,3.9183015709817406,2.3491034582793713,-1.9440332958579063,-3.1841391549259423,7.47589526835978,-6.353312795910239,106.76065152009664,-28.03136273110996,24.773852563086827
1698744133438.0,0.01666666753590107,3.7974621916830538,2.2817928400725127,-1.5598229661136864,-3.302352861896157,7.333589907184243,-6.058975921575724,104.36100798918524,-28.25702535109801,26.415087256485652
1698744133456.0,0.01666666753590107,3.749467683842778,2.2588363273769616,-1.4011480694174765,-3.3478432779610157,7.236325464740395,-5.986251169365644,103.01836355308998,-25.87759405748796,25.632479058743716
1698744133472.0,0.01666666753590107,3.551858953118324,2.255105616416037,-1.2088833300694823,-3.5390795510441064,7.125144432885945,-5.917567801500857,104.12867910456725,-18.78485241577992,22.66761859099353
1698744133489.0,0.01666666753590107,3.481177397173643,2.257114325889945,-1.0219675505340098,-3.5995331429630517,7.037606434686482,-5.836613857866824,104.60474328971713,-10.249161594920402,20.851119535944886
1698744133506.0,0.01666666753590107,3.4494881274461746,2.3307135228469966,-0.8304039451926947,-3.611953064075112,7.016208257348835,-5.76523701313436,103.05183148002304,-0.2656552452083271,20.36314008578791
1698744133522.0,0.01666666753590107,3.3830233124136924,2.5135832418620585,-0.46260640558898447,-3.6333518259346484,7.076213520978391,-5.57370088032186,98.16882678954337,9.485481558915861,23.232241301374515
1698744133539.0,0.01666666753590107,3.4397079071879384,2.629318283759057,-0.052883448925614356,-3.5318969460636374,7.106739299884438,-5.298816602215171,94.16820057755932,10.853798114780256,26.34645410061078
1698744133556.0,0.01666666753590107,3.4329099176108837,2.610004803740978,0.16022271066009997,-3.492542256274819,7.010223045459389,-5.210680053600669,90.5653645828368,6.848704105305363,30.10491937066662
1698744133572.0,0.01666666753590107,3.326142902806401,2.685924260339141,0.35311727234423157,-3.546112518420815,6.998849710790813,-5.155163918083906,84.24372397766652,-4.862628101751402,36.00095722827507
1698744133589.0,0.01666666753590107,3.0279356167793274,2.7633184656649825,0.31137247254848477,-3.814412741962075,7.025934993854165,-5.272780243682861,78.90226332971726,-14.163180154455052,39.789243104247184
1698744133606.0,0.01666666753590107,2.833712436839938,2.7949884461700916,0.22108722146749496,-3.9873943964302536,7.017854270990193,-5.418975598034263,75.01118652183104,-17.961623375496625,41.594680667934995
1698744133623.0,0.01666666753590107,2.368260578691959,2.6498066527754065,-0.005037994167208671,-4.422988876453042,6.824822346661985,-5.716305516704916,72.67181258015582,-12.48090712320185,40.908550599766784
1698744133639.0,0.01666666753590107,2.0563474233955144,2.440474166509509,-0.17975217151641845,-4.7031110552132125,6.579565729577839,-5.954529166412353,70.34657029987336,-5.263316880541969,40.153135092657955
1698744133656.0,0.01666666753590107,1.9125602992296218,2.355480592095852,-0.22820260643064974,-4.805612229266762,6.459706301227212,-6.075585403332114,68.34941615637246,2.3100451093791827,39.89042552661176
1698744133672.0,0.01666666753590107,1.6696160507410764,2.1264903424188493,-0.16810557286441324,-4.980388365936279,6.185569918878376,-6.123917764824628,65.56648972999662,6.831120210173989,39.69821717317843
1698744133689.0,0.01666666753590107,1.476148657605052,2.1413798685148357,-0.10124562103450298,-5.120001419287919,6.167314131219685,-6.138882109722495,64.51445618270706,6.492613046700394,39.922705000629236
1698744133705.0,0.01666666753590107,1.3303916946709156,2.224178270971775,-0.04058043219149112,-5.215021297675371,6.217293675397336,-6.1547442802429195,62.61481664998643,3.707968827748291,39.95489909728209
1698744133722.0,0.01666666753590107,1.0499977132320404,2.444176528158784,0.043294367325305935,-5.43259437354207,6.40029988027364,-6.1611781126827,57.43165246624139,1.980779618739439,41.76005662321393
1698744133739.0,0.01666666753590107,1.0174310761481522,2.4858120223611593,0.24739421363472938,-5.416133652606606,6.423344071252644,-6.019620355004072,52.81955015371735,3.223928475751708,43.167772271531895
1698744133756.0,0.01666666753590107,1.0412380681931972,2.368250057297945,0.3730763567894697,-5.339220508795976,6.296002762714028,-5.954079669079184,48.19813829335459,5.799094848284341,44.80435048346407
1698744133772.0,0.01666666753590107,1.0716022267967462,2.0245570313811303,0.6573737754076718,-5.2247465728759765,5.954379528808594,-5.752217957085371,42.08533072205745,12.331403673780379,47.8388976637686
1698744133789.0,0.01666666753590107,1.1542267339915036,1.6563298681885004,0.9719675480902195,-5.0661312974125146,5.597644065967202,-5.504418669781089,39.00786604810314,16.83271775664587,50.01536134845526
1698744133806.0,0.01666666753590107,1.060164302459359,1.470963948443532,1.1204840388655661,-5.076306654468178,5.430648500171303,-5.424363136291504,36.94220169213243,17.71573998047075,53.50564265584513
1698744133822.0,0.01666666753590107,0.840754074293375,1.2740277101531623,1.3331857093036175,-5.1804544266849755,5.2702366966798895,-5.295973487743735,35.75024147441141,12.406716754663526,59.61449896270742
1698744133839.0,0.01666666753590107,0.5758288801431656,1.1545853381708264,1.54581022285223,-5.365107814246416,5.1835965241029855,-5.135711614117026,35.97300467909679,4.839363623664693,62.14440786146931
1698744133855.0,0.01666666753590107,0.39173254194259644,1.1036398715704678,1.6753525485664604,-5.480776512908935,5.167435370635986,-5.045480139049888,34.430525983359885,-2.709955246604368,63.46807803205028
1698744133872.0,0.01666666753590107,0.10128595304489135,0.910630159074068,1.8014660688757895,-5.6943105425179,5.027973708453774,-4.953453012737632,29.675013603927678,-8.732535165191996,63.800277942712185
1698744133889.0,0.01666666753590107,-0.05086334127485752,0.9149410080105066,1.987958362302184,-5.792023313251137,5.0813940407350655,-4.783315057262778,22.18052706542866,-7.876064447991892,63.221870203038826
1698744133906.0,0.01666666753590107,-0.15805530349314212,0.820555920395255,2.0383254444926977,-5.84125466940999,5.049073195105791,-4.743362401580811,14.919416138037924,-5.987252899539851,63.633252496748696
1698744133922.0,0.01666666753590107,-0.24755554167628288,0.5538257226496934,2.1463386599659917,-5.850381978717446,4.878934362848103,-4.64130955581665,8.683156312587387,-7.120003061119678,62.85034206313598
1698744133939.0,0.01666666753590107,-0.47126960451602934,0.4577013901516795,2.1078227590888736,-6.016180443683266,4.860828212793171,-4.677221996197104,6.306248773875658,-9.707023867287102,62.90643157660013
1698744133955.0,0.01666666753590107,-0.6136556297123432,0.3731272101938724,2.0818834311902523,-6.107160106769204,4.85843430339396,-4.6911382933467625,3.724697668572945,-15.926824644385201,63.675169367685065
1698744133972.0,0.01666666753590107,-0.8258306459277868,0.35750030973404645,2.0005945565134287,-6.2660746574401855,4.962731713214517,-4.734832473644614,-2.280631113161934,-26.507948800893853,65.35950084719937
1698744133989.0,0.01666666753590107,-1.1359440583258866,0.4353264767363667,1.8053677524894476,-6.547243714904785,5.141099444635212,-4.883721889385581,-7.099609823805312,-31.434016126543156,65.41421749264035
1698744134006.0,0.01666666753590107,-1.2938544003903865,0.40216187375932927,1.6864806763023137,-6.681320176917314,5.216517381452023,-4.944325118908286,-12.696804280224075,-34.20178977824533,64.11818909763043
1698744134022.0,0.01666666753590107,-1.5895038186281918,0.4649743037641048,1.3562456823736428,-6.9511150229305025,5.434388855743408,-5.180452673119306,-20.15627926903761,-37.34970102329915,61.81330078107461
1698744134039.0,0.01666666753590107,-1.8333797950088977,0.6734504654616117,1.0596358946710824,-7.1793129531860345,5.767931659045815,-5.393088292583823,-26.44854493813496,-40.55040280044799,61.705315490296705
1698744134056.0,0.01666666753590107,-1.991063927102089,0.8573334531724452,0.7134855387300253,-7.321768536487221,6.135891111212969,-5.602431300243735,-34.125237018027825,-49.45869068581546,64.47042195312798
1698744134072.0,0.01666666753590107,-2.0610978327929974,0.8595768481850623,0.4515080884695053,-7.388356685638428,6.289867620959877,-5.737404418835044,-38.27990790145777,-60.74148017575953,68.3095005308629
1698744134089.0,0.01666666753590107,-2.2920523682802916,0.8417471769839525,-0.07392448338866234,-7.624484824371337,6.430526968494057,-6.1155380590140815,-38.29694239324778,-72.05402879991733,71.08436733401814
1698744134106.0,0.01666666753590107,-2.411542671057582,0.6117313836514949,-0.6132599083930254,-7.761852729144692,6.407482777515053,-6.440251659172773,-32.170593971921086,-82.88939991809055,72.17783963900216
1698744134122.0,0.01666666753590107,-2.3710113387048244,0.40067105067968367,-0.9105395581811666,-7.738658900561928,6.339248030200601,-6.575524637493491,-24.898780138100946,-85.96882485633664,70.59177409107681
1698744134139.0,0.01666666753590107,-2.2312381263554095,0.08551789054870605,-1.194131458878517,-7.614608742523193,6.150106683570146,-6.708702104839682,-14.664894261259278,-84.35172975901193,68.1274213479687
1698744134156.0,0.01666666753590107,-1.9351590845286846,-0.4560141677170992,-1.3172767770320177,-7.3286512817382805,5.748179495349526,-6.664108929875493,-1.4434936732943757,-76.28619842476482,65.04409637170653
1698744134172.0,0.01666666753590107,-1.73505210724771,-0.7233931847602129,-1.301207101240754,-7.123199436298012,5.565471396636963,-6.553676962822675,8.450736927962902,-66.72415898298958,62.7479097161533
1698744134189.0,0.01666666753590107,-1.369598500421643,-1.1423270373612642,-1.0371259566992521,-6.740276808276772,5.21576948569417,-6.223726631054282,16.324184559729034,-58.60712119221141,61.09112438956165
1698744134206.0,0.01666666753590107,-1.1231459515511988,-1.5410890395492314,-0.613553338381648,-6.460453904724121,4.892402039447426,-5.741293827489018,20.506628699871538,-51.55308964762442,56.44819743331335
1698744134222.0,0.01666666753590107,-1.016361401090026,-1.695575836905837,-0.3976847283452749,-6.328025794440507,4.784813186866045,-5.492896574291587,19.696322377497903,-45.29803655667259,50.30556925609993
1698744134239.0,0.01666666753590107,-0.8344459140598773,-1.8878338542520998,-0.11147416958212852,-6.123770465308428,4.632331884112954,-5.179106519207358,16.857531833900527,-41.63302876503003,43.28957845009532
1698744134256.0,0.01666666753590107,-0.486354360923171,-2.0641484525352713,0.053203766921162604,-5.75835485240519,4.50065079280436,-4.974701552471518,11.394438323438031,-38.06148869708451,33.41019817419753
1698744134272.0,0.01666666753590107,-0.4090823206722736,-2.066499399575591,0.08505904086530208,-5.67575547965169,4.528334334021807,-4.9090112289428705,6.481365005797853,-34.427448983138795,28.199858375292298
1698744134289.0,0.01666666753590107,-0.24323066421449183,-2.043578542715311,0.12269582082033156,-5.506514765277505,4.590433939582109,-4.822818800133467,0.6628885352482492,-27.774993288160825,21.437786681872083
1698744134306.0,0.01666666753590107,-0.19569968223273754,-1.9388772282689808,0.12644786683022974,-5.45863014755249,4.721366258350014,-4.784062076237798,-2.242818545586509,-22.438983131169234,16.192988578604133
1698744134323.0,0.01666666753590107,-0.1938970167249441,-1.8857547098904848,0.08824147029370069,-5.458031597137451,4.797831073871254,-4.789150339287519,-4.561358702745895,-18.1558022385055,12.169074836644917
1698744134339.0,0.01666666753590107,-0.07790332389175891,-1.824809535062313,0.03609481121003628,-5.346103254047036,4.888063133460283,-4.796483166393638,-7.529508333468262,-16.53933893367902,9.102379663464431
1698744134355.0,0.01666666753590107,0.027559038054943082,-1.8440204314887523,0.006661211454868316,-5.247940985980629,4.8903071129947895,-4.787953530718386,-9.806363846123059,-17.947129714077857,7.25312131360911
1698744134372.0,0.01666666753590107,0.07446575065851212,-1.9111030861586331,-0.09818740250766277,-5.212177598682046,4.846014382281899,-4.848257485033572,-12.449635955860593,-18.95082430506394,6.24834797962099
1698744134389.0,0.01666666753590107,0.14901859507858753,-1.9854829120993613,-0.2444125674754381,-5.154866396442055,4.805163900977373,-4.926966864611209,-15.726078554489355,-17.8240565354234,5.470775765731467
1698744134405.0,0.01666666753590107,0.11926818445920943,-2.107889979106188,-0.4386784175127744,-5.196166375079751,4.708797284156084,-5.070020998327434,-16.44259101163308,-15.683405240102408,4.386057201942463
1698744134423.0,0.01666666753590107,0.11666764657199383,-2.1668092010647055,-0.5597554049596191,-5.20963317489624,4.6736312782287595,-5.143342547386885,-15.304186307194131,-12.415872623245928,2.3435828323078263
1698744134439.0,0.01666666753590107,0.09034896396696566,-2.173777871033549,-0.7434311796605586,-5.251233013263344,4.690242221289873,-5.27367748478353,-12.653462461072113,-10.933870983741254,0.0019336105457747426
1698744134456.0,0.01666666753590107,-0.03180149793028831,-2.0382757601320742,-1.0547405238449572,-5.38800178309977,4.838383449012041,-5.548412125286459,-10.659215416836702,-12.869265702993252,-0.9410289927333895
1698744134472.0,0.01666666753590107,-0.17479834850132464,-1.8598329176485537,-1.2333464479357004,-5.549011844745278,5.025131178504228,-5.692662190788984,-7.482042787604904,-12.803750528474488,-2.3905175444066264
1698744134489.0,0.01666666753590107,-0.47343175098598,-1.4119950421243905,-1.5696362118586897,-5.8741743577152485,5.474641371154785,-5.9941819623649115,-2.6006845996020345,-11.544817744620556,-3.8372433912822994
1698744134506.0,0.01666666753590107,-0.6467629495441913,-0.9604191491156816,-1.9963275467187165,-6.066758538275956,5.921310787421465,-6.404938061468303,0.3518408399917959,-10.340017625033557,-3.8943386501017283
1698744134522.0,0.01666666753590107,-0.6826911720156669,-0.7723720274627208,-2.2386124545156956,-6.121375679126381,6.101324240222573,-6.636726417431235,2.2645976709721523,-7.750631438979193,-5.121574660451749
1698744134539.0,0.01666666753590107,-0.775193514624238,-0.3989402813643217,-2.481563717266917,-6.235399533191323,6.458209925189614,-6.878840060314536,3.2126800079623434,-1.5534550231765267,-6.539247443919126
1698744134556.0,0.01666666753590107,-0.8487164314746857,-0.18623568831682205,-2.815971028444171,-6.324433907428383,6.649746058002114,-7.22689712665975,2.7472564037656886,0.09566909900261988,-6.501710858674851
1698744134572.0,0.01666666753590107,-0.8503408178061246,-0.09262333863973617,-2.9981913436397907,-6.340145855823159,6.724564859881997,-7.420677531267702,2.4959688350024534,-1.1207526141375812,-5.986854614133875
1698744134589.0,0.01666666753590107,-0.8458359076023101,0.15315116483867167,-3.283005771869421,-6.356007441821694,6.943485258704423,-7.721449114824831,2.671082932490533,-2.795015861206768,-6.120703269977676
1698744134606.0,0.01666666753590107,-0.8834732720792293,0.6263321559339762,-3.5837212413251396,-6.40987697917521,7.400777191272377,-8.026261205944419,3.7706938699911032,-6.863727533271629,-5.720537427545438
1698744134622.0,0.01666666753590107,-0.8754185604393482,0.9547107083410024,-3.7434129138484593,-6.421548712268471,7.720103253173828,-8.175150037163496,1.826301657168084,-16.493224911497677,-1.1314592558266936
1698744134639.0,0.01666666753590107,-0.9844669641792774,1.4467770171701908,-4.240400896988809,-6.5601125488281244,8.216900682178139,-8.627654443193972,0.7999849460423915,-32.58007064285252,7.767280878854745
1698744134656.0,0.01666666753590107,-0.8928624471932649,1.1229226641893386,-4.756547461846471,-6.4942725876957175,7.905055915942787,-9.09212985752523,4.257717947437923,-44.74202842238229,12.524238697070057
1698744134672.0,0.01666666753590107,-0.673518854522705,0.6767652890980244,-4.992198630717397,-6.304382468524575,7.46946085139811,-9.272741860741377,13.47132980285695,-50.02703755684139,14.965099858301555
1698744134689.0,0.01666666753590107,-0.18971534712612628,-0.17594810305833816,-5.005244574773311,-5.855768932452798,6.612935207477212,-9.245208833910525,33.34894845281544,-46.43582654408624,16.631739440318245
1698744134706.0,0.01666666753590107,0.4478881444066763,-0.6900760215699673,-4.577527988518774,-5.233575776019692,6.077531276702881,-8.830862309099734,54.03018752372377,-41.11076518033418,21.04163229491676
1698744134722.0,0.01666666753590107,0.6853676977485418,-0.7593821975082159,-4.198650836496055,-4.997297415161133,5.968744738769531,-8.512582833641767,79.99908925758376,-37.7552776562145,27.372305825264384
1698744134739.0,0.01666666753590107,1.0674030215412378,-0.8343605738639831,-3.3548972881257533,-4.600459074512123,5.808034536853432,-7.818564211925864,114.03995294879442,-43.47157225562489,38.097319869470404
1698744134755.0,0.01666666753590107,1.1525409728616476,-0.5903571717113256,-2.5406404678747054,-4.499004194641113,5.965154020801187,-7.151030861553549,136.61760770313512,-54.417954438378324,47.270748868228594
1698744134772.0,0.01666666753590107,1.0729337676614523,-0.3398971407651901,-2.062839708024263,-4.569035177722573,6.110302496448159,-6.830806097246706,154.72382447581361,-70.14316726639038,53.07254719076379
1698744134789.0,0.01666666753590107,0.766398213750124,0.18433657669723033,-1.272471420621872,-4.8888107369571925,6.462400362616777,-6.249913211712241,167.79533122635732,-83.16684903236563,52.51607118851535
1698744134806.0,0.01666666753590107,0.4832973114401102,0.5779314053803682,-0.6694020668536425,-5.201253469085693,6.705410662078857,-5.798755251854658,168.31905647153556,-81.82104904887383,46.56169668520582
1698744134822.0,0.01666666753590107,0.5033265385121107,0.7473848857223987,-0.29516134245991704,-5.218612015643716,6.714090227618813,-5.570408853039146,160.57452353771154,-72.7105602433173,39.57476833411962
1698744134839.0,0.01666666753590107,0.8941635929197073,0.7557119845628738,0.3080348525583744,-4.874444942474365,6.5111810523986815,-5.147981313103437,139.43082601848,-55.28387557606878,33.432918798471576
1698744134855.0,0.01666666753590107,1.3065478777468205,0.6022790801733732,0.8081400909364223,-4.4850878974914545,6.21774229594767,-4.768052021679282,120.55356285077707,-43.892595361348235,31.557659625993313
1698744134872.0,0.01666666753590107,1.4827426490426063,0.5427116234391928,1.013132502171397,-4.324826608386635,6.038027533832192,-4.665250987896323,106.31157341235748,-40.486031682615206,30.178108262717892
1698744134889.0,0.01666666753590107,1.7029770530730486,0.2851385456174612,1.0917243928492069,-4.139724308013916,5.633557090869545,-4.689940607994795,100.38220423159937,-52.4069111052002,28.211206734598274
1698744134906.0,0.01666666753590107,1.8214532103717327,0.23878888237476348,1.0498048210084439,-4.075679413604736,5.475988109588623,-4.778226794213056,100.01462394103679,-69.75543791777626,27.214258662964873
1698744134922.0,0.01666666753590107,1.7945710486650466,0.3410457262784242,0.9912345586180686,-4.182670884814859,5.468506813922524,-4.852746905407309,96.71198159052551,-81.25779066877956,26.47126556240901
1698744134939.0,0.01666666753590107,1.68878135446012,0.6096206751078367,0.8786685021460056,-4.410269680133462,5.604228120532632,-4.9545004759639495,85.35928511442636,-80.33669184787915,24.13015163004273
1698744134956.0,0.01666666753590107,1.4148100995451212,0.8193167339891195,0.667875295677781,-4.772990647125244,5.7237879814147945,-5.148281172832847,77.16983365806772,-72.28962934514776,18.703836126939816
1698744134972.0,0.01666666753590107,1.3298825761049986,0.907235840460658,0.5542530081510544,-4.94118389827311,5.722741102710366,-5.247041991314291,71.8799067874062,-62.13007129440146,10.939215606766789
1698744134989.0,0.01666666753590107,1.3895225135535,1.0369035461202263,0.5083376446723937,-4.985027131652831,5.724536461694538,-5.284899720543622,66.48849013586747,-50.423526623066046,1.9953003874714745
1698744135006.0,0.01666666753590107,1.6499252618432043,1.1696028745606541,0.535958057525754,-4.79453846206665,5.759402023370564,-5.258264227074385,62.31732093049736,-43.175193272065115,-0.5261289381575533
1698744135022.0,0.01666666753590107,1.82498313806355,1.2962068087354301,0.5988537818998098,-4.6830596163094045,5.793220414081215,-5.19706303165853,58.79463037549577,-40.58346433112544,-0.15715286108548795
1698744135039.0,0.01666666753590107,2.098887172961235,1.4197156995043159,0.7604805141389369,-4.491672536578774,5.802797220721841,-5.029468915447592,54.429927759993355,-42.639228327894216,1.5942957124317947
1698744135056.0,0.01666666753590107,2.200532022446394,1.3923118520110844,0.8629232360035181,-4.454561826324463,5.697601693017781,-4.911553899163008,51.65680948526565,-45.075020634987915,1.9273035064064705
1698744135073.0,0.01666666753590107,2.2930741125434637,1.418070270384848,0.9208014244765043,-4.4295729310184715,5.64986758967936,-4.829702714428305,47.899645366246695,-46.199372225209565,0.4883097538363696
1698744135089.0,0.01666666753590107,2.3219617688536642,1.3684028608962893,0.9478840771913528,-4.491373261371255,5.509507225091755,-4.761766657799482,39.367994602281236,-41.62495548143108,-2.0175998878945083
1698744135106.0,0.01666666753590107,2.332031911969185,1.39715052421391,1.0067851789712905,-4.538808381763101,5.478083620563149,-4.677221411675214,31.675364275960142,-29.30959506823741,-5.036964411447746
1698744135122.0,0.01666666753590107,2.37443312984705,1.4833981903418898,1.0337012429475785,-4.535815629687905,5.511003893390297,-4.640560198754072,23.71772431738985,-14.008566869760765,-8.484363656794166
1698744135139.0,0.01666666753590107,2.4632348643720148,1.6588266534402965,1.094866782528162,-4.470423996844888,5.619940068927407,-4.597614790996909,16.81657118944796,5.011556107735299,-12.660102258719013
1698744135156.0,0.01666666753590107,2.4629800128281114,2.074492151895165,1.1592869399905203,-4.467431244769692,5.987599661365151,-4.570231109508872,14.234494159579155,17.382604333892548,-13.942039119697549
1698744135173.0,0.01666666753590107,2.46022223855257,2.333876078531146,1.2505278843611478,-4.451270383563638,6.201431504876911,-4.532522433361411,12.567086181280839,25.951124458997736,-13.592904608762238
1698744135189.0,0.01666666753590107,2.303409628596902,2.865867570513487,1.432285550481081,-4.563947499194741,6.68102002492696,-4.43750197045207,9.236470791023766,32.72021929443201,-10.29150876777448
1698744135206.0,0.01666666753590107,2.0532015265852213,3.6311622069358824,1.6964987969696521,-4.770447976905107,7.420529354968666,-4.240579468426108,3.017567970358113,34.44097275769542,-6.667497479077633
1698744135222.0,0.01666666753590107,1.8777356540858745,4.066327063369751,1.8534680587917565,-4.896742114478349,7.850139499884843,-4.143165388378501,-7.095296559344449,34.28167225568321,-1.990498124154721
1698744135239.0,0.01666666753590107,1.5262486132919788,4.851167819522321,2.0395207917571065,-5.172822908893227,8.6759888505131,-4.0155250968933105,-26.043878427926508,33.65466772006521,9.614450898371334
1698744135256.0,0.01666666753590107,1.289101652905345,5.104378318220377,2.155002443414926,-5.338921233588457,9.009231794086098,-3.927088688549399,-41.88278829240989,36.71393335497602,21.46097688165157
1698744135273.0,0.01666666753590107,1.2616098348677158,4.776879178996384,2.2142478285878897,-5.2753246674686665,8.807370666614174,-3.884441971477866,-57.40991880430241,42.90506953567487,32.62891674070187
1698744135289.0,0.01666666753590107,1.3071820839971302,3.6791041078060864,2.2548510571330787,-5.0752591912418605,7.931092858996987,-3.857058289989829,-68.83894264437644,50.06046791773402,42.40566317903646
1698744135306.0,0.01666666753590107,1.1809849770575762,2.698361424846947,2.2448832053482533,-5.071218975940346,7.135020514734089,-3.8703766212463377,-69.9835184247305,47.725441391465516,46.86557521647427
1698744135322.0,0.01666666753590107,0.9362252035796642,2.3180498561069367,2.1366624846041202,-5.190929058948159,6.943335328839719,-3.965395915111899,-66.27046366737149,35.09348804986342,51.283000062180015
1698744135339.0,0.01666666753590107,0.32509587747454644,2.1139479639708996,2.0236200427919626,-5.662287510791421,6.986879579272866,-4.0242034933894875,-61.077013218736404,11.41213363603024,57.33712264812841
1698744135356.0,0.01666666753590107,-0.07738836010694504,2.140357247468829,1.915999041506648,-5.984008358874917,7.20145990306437,-4.056225940594077,-62.741578130792696,-6.128378695057478,60.955374379807644
1698744135372.0,0.01666666753590107,-0.5644388866007328,1.9305436996877192,1.6143600274652241,-6.385635687366127,7.257125676184892,-4.209005934032797,-72.083624009591,-18.35520790377673,63.46176693725718
1698744135389.0,0.01666666753590107,-0.6791197432696819,1.5330600468724964,1.3867653237998485,-6.440103775134682,7.067534832221269,-4.301033060345054,-79.15425632895571,-18.47735046915678,60.77968825397657
1698744135406.0,0.01666666753590107,-0.842123024559021,1.1136550696283578,0.8510808225184678,-6.5420069832950825,6.8514581323921675,-4.695029455566406,-82.2882134975352,-10.234243607999447,51.64013016331248
1698744135422.0,0.01666666753590107,-0.922142902213335,0.9173784642904996,0.3806137665569782,-6.535422928729653,6.899940131488442,-4.99250901184082,-83.93768369152576,6.853604339148024,36.669468823479235
1698744135439.0,0.01666666753590107,-0.9168640850275754,0.8540040164887904,0.13299509651660918,-6.460753179931641,6.999299500384926,-5.127331323784589,-82.77346428711874,19.00257835595242,28.725289460215745
1698744135456.0,0.01666666753590107,-0.8497744160950184,1.2360124522745608,-0.06237023919522762,-6.319046369171142,7.531410819354653,-5.22235178669393,-81.00062721633941,25.218292972379558,26.086509053631143
1698744135472.0,0.01666666753590107,-0.8415121991842984,1.549881417813897,-0.1634200453966856,-6.207715991973877,8.036587369647622,-5.193022231835126,-79.11692934514159,22.899535956714022,27.03162452720061
1698744135489.0,0.01666666753590107,-0.9065279844522476,1.5414093575447796,-0.2723632351964712,-6.200533386993408,8.168567736163736,-5.194219917187095,-78.8287090225454,16.1265564511893,27.148051931792647
1698744135505.0,0.01666666753590107,-1.010574049860239,1.417766611263156,-0.3864145617902279,-6.241983587756753,8.182035120502114,-5.1871869498103855,-80.72158666798771,10.344261733829073,25.492176727907896
1698744135522.0,0.01666666753590107,-1.0882277829051017,0.9442705628693103,-0.6611749212563037,-6.248268367114663,7.887399263221025,-5.280411176952719,-86.04566448449928,10.32878537894347,21.00954577374333
1698744135539.0,0.01666666753590107,-1.1196049179434775,0.6113210492849349,-0.8514782974034547,-6.228965116229653,7.683443209296464,-5.329192743517458,-89.42085710437445,18.74010955407446,16.03266013312184
1698744135556.0,0.01666666753590107,-0.9221177677720784,0.0029150106638669965,-1.0823147594690323,-5.979219955554604,7.196970774951577,-5.423015813335776,-91.05633907094483,28.20863175328118,11.044531147352862
1698744135572.0,0.01666666753590107,-0.7439607564926147,-0.6204688168585301,-1.2982993971005081,-5.730970586395263,6.720224784851074,-5.47134817482829,-87.44700073613247,38.665075929133124,5.902412131651362
1698744135589.0,0.01666666753590107,-0.6477572212785482,-0.9223544991374015,-1.3949988991379738,-5.581333567157388,6.515521127429604,-5.458030720354616,-82.58336646213895,43.65949125025946,3.2104241245455354
1698744135606.0,0.01666666753590107,-0.3451964162170887,-1.572828578159213,-1.418821965534985,-5.213972957666218,5.976974806976318,-5.3514887464776635,-75.13731962523366,44.41608838009469,-0.4916848811425608
1698744135622.0,0.01666666753590107,-0.1660603307723999,-1.9889777684777974,-1.2557345130935311,-4.9932571998596185,5.632060714831948,-5.1012943807303905,-70.83500395761014,44.72888030823001,-3.1305606435712803
1698744135639.0,0.01666666753590107,-0.10453180309832096,-2.211034127238393,-1.2369450569495557,-4.896292324884236,5.473295217242836,-4.999990015245974,-68.797544867817,45.52770166751427,-6.419880069776221
1698744135656.0,0.01666666753590107,0.024755671072006224,-2.407595394736528,-1.0465458192124961,-4.728998068402707,5.3520905117630955,-4.701612633349001,-69.75441338940077,46.56217138335313,-9.339591279565328
1698744135672.0,0.01666666753590107,0.041489363729953765,-2.3517063342541453,-0.972996014355123,-4.68919388128072,5.4625207252502435,-4.540752209307253,-72.41107693877976,44.92874871881751,-10.2166362340928
1698744135689.0,0.01666666753590107,-0.02546381934136152,-2.2620091121941805,-1.035863389417529,-4.73737748195231,5.607969645148516,-4.504539616936445,-76.18113645495168,40.747088342882265,-9.891426168272751
1698744135706.0,0.01666666753590107,-0.21025953798294067,-2.1872370720654724,-1.2792907452479003,-4.905719493921101,5.758803765216469,-4.593424645830691,-81.96032343623956,35.68523514898581,-11.516225718981236
1698744135722.0,0.01666666753590107,-0.387152812936902,-2.166716846606135,-1.6844123455956577,-5.079298529760539,5.834819083404541,-4.867111530846357,-85.07562052800657,33.86362028224883,-13.189709150546276
1698744135739.0,0.01666666753590107,-0.4248787324801087,-2.216844859343767,-1.9446230784446,-5.118205183520913,5.837962642127275,-4.988168936809897,-86.97616847588681,32.99114899314432,-13.734233175520849
1698744135756.0,0.01666666753590107,-0.40682518939524887,-2.270536702042818,-2.531843997956812,-5.10099744361043,5.854273725458979,-5.381865180040895,-87.60753067219527,30.84391168791615,-9.644934032637101
1698744135772.0,0.01666666753590107,-0.4048755166321993,-2.370657118439674,-3.0940248764976856,-5.094113237054645,5.8077346771240235,-5.795014604021609,-85.886521076838,27.026758017416974,-5.50575828711298
1698744135789.0,0.01666666753590107,-0.46243630971908567,-2.461050506070256,-3.4469904654115435,-5.142745458276569,5.770325860705971,-5.99837210753113,-81.13716269784796,20.007553607407875,-1.368399905516611
1698744135806.0,0.01666666753590107,-0.689347122773528,-2.480069679316878,-4.11118210414052,-5.354333322253823,5.818060256305337,-6.466887444902956,-69.21156361454649,6.793808594285501,4.337715684318051
1698744135822.0,0.01666666753590107,-1.0386445445686578,-2.4872300724655387,-4.762160625553131,-5.689222279468178,5.856218429785967,-6.982389135985821,-57.5453068140304,-2.573198637721434,7.939917325221403
1698744135839.0,0.01666666753590107,-1.2216077870860695,-2.475850015795231,-5.138505044227839,-5.853823059082031,5.907243683624268,-7.244853200719505,-40.9245366575192,-7.485862570898234,11.604433343243718
1698744135856.0,0.01666666753590107,-1.6228177669480441,-2.444144379454851,-5.620395411479473,-6.224175836126506,5.979517477196454,-7.630319083482772,-14.934898469339052,-9.72270427407416,13.196279792527829
1698744135872.0,0.01666666753590107,-2.1186352450042962,-2.066089065209031,-5.892324346911907,-6.697182055176794,6.374862948939204,-7.88171098845154,5.7240071636438055,-8.258318546212594,12.123983635291786
1698744135889.0,0.01666666753590107,-2.5294714236065743,-1.7429267861455677,-5.953700314372778,-7.0848922097355125,6.704363783374428,-7.969099641308188,22.992284803000917,-2.3426806070071495,11.219670858050328
1698744135905.0,0.01666666753590107,-3.0377637678325176,-1.219911212301254,-5.818546578517556,-7.564181746838987,7.219266777911781,-7.930941613958031,37.574154699804104,8.596576834668307,6.789202485463973
1698744135922.0,0.01666666753590107,-3.0800597717702387,-1.3714333146333693,-5.535975253039598,-7.5911156387329095,7.048829547229409,-7.7540701124444595,44.15289728571201,17.3599298133954,0.1039786644581751
1698744135939.0,0.01666666753590107,-3.0200702902317045,-1.265227440842986,-5.161004460805654,-7.5270713288456195,7.122601470404863,-7.506568785173445,48.364634399657405,25.173101025736166,-7.9359353249352855
1698744135956.0,0.01666666753590107,-2.862232428881526,-0.9209592453867197,-4.6271080119848245,-7.383419229236245,7.404069218555092,-7.161505201555788,51.25235983356334,25.38202455961581,-16.386467347223086
1698744135972.0,0.01666666753590107,-2.353770281046629,-0.7170382627755403,-4.181021656303107,-6.899491218677163,7.552060808673501,-6.85100629697144,51.95040516673864,11.576345044055687,-17.356024652737442
1698744135989.0,0.01666666753590107,-2.1014593615368007,-0.5910580134570598,-4.030691978625953,-6.680571112115681,7.621791932025551,-6.814794873644411,54.13956275799777,-11.791353422712165,-13.722451099202578
1698744136005.0,0.01666666753590107,-1.8161863758847117,-0.6071849723935127,-4.145094018353522,-6.457162169702351,7.526322556304931,-7.056758586663007,67.8858034060795,-40.50989636357523,-11.4574690166462
1698744136022.0,0.01666666753590107,-1.9898598120093345,-0.6248527310311794,-4.35853832385242,-6.693439946039021,7.434146961432695,-7.375038062120973,83.0170288329214,-47.7938218303411,-14.886974447027656
1698744136039.0,0.01666666753590107,-2.1342109997987744,-0.3943851022779941,-4.3591225534811615,-6.911611280059814,7.568669998168945,-7.51135791914612,98.72281660293395,-38.889365681098006,-21.88963955396157
1698744136056.0,0.01666666753590107,-2.4637805155560373,0.04853986676335335,-4.170845422464609,-7.352743520465493,7.836672115546464,-7.578695133098959,120.81022769940782,-13.994686217820007,-37.85068173854124
1698744136072.0,0.01666666753590107,-2.295966326853633,0.4587304409384727,-3.512259348657727,-7.278223993793129,8.070255830493569,-7.174523380821943,134.04165649917817,7.763873468232555,-51.196704037111495
1698744136089.0,0.01666666753590107,-2.028297971475124,0.7972083625555038,-2.896684441320598,-7.1035963256835934,8.197746484375,-6.851904999376833,139.7402882293949,26.397854689209712,-60.344004147199804
1698744136106.0,0.01666666753590107,-1.4214339015990496,1.5165198309600352,-1.7677172362700104,-6.604255641937256,8.59952403499186,-6.142622757555544,140.92308574834436,43.96830117810866,-64.7104416307514
1698744136122.0,0.01666666753590107,-0.9473416408777237,2.008139565065503,-0.7505497794941067,-6.191555715289711,8.835053623309731,-5.447555795830488,139.92367880860976,51.27812330711263,-65.30205895627957
1698744136139.0,0.01666666753590107,-0.6403320397138595,2.2694933304697273,-0.13212474342286587,-5.933280626678466,8.828020071411132,-5.146185077336431,139.18069083069577,53.331681152779495,-66.39219812894862
1698744136156.0,0.01666666753590107,-0.26311259177029134,2.645904384639859,0.7245289107918739,-5.606322462463378,8.82876884395182,-4.696973575371503,136.31161522831854,53.532164280392294,-66.86135016265845
1698744136172.0,0.01666666753590107,0.14915537320077418,2.8784418054044245,1.3603724069148302,-5.223550056567788,8.770410178485513,-4.34831795861125,132.58111616781932,51.569792875239685,-67.1559362215611
1698744136189.0,0.01666666753590107,0.3591115443229675,3.1209277887314557,1.7850725679576396,-5.038448340716958,8.719832668414712,-4.188954495128989,127.54837324016547,47.23279009191625,-66.59006870920389
1698744136206.0,0.01666666753590107,0.7842091802507638,3.4443250455945726,2.363844515815377,-4.641759053149819,8.655039001464843,-3.9272383261531587,119.66326135284426,40.58521285955296,-62.07577812068902
1698744136222.0,0.01666666753590107,1.2068301969319581,3.62984235650897,2.8098750496566294,-4.234146220508218,8.5610671708256,-3.6900627241939303,112.04315397513035,35.37111133396234,-56.247984098172765
1698744136239.0,0.01666666753590107,1.3602724536716937,3.7937493086397645,3.0392911235302686,-4.090943033710122,8.463503745435178,-3.642627603802085,104.6084452522473,29.540441801805503,-48.52272254309194
1698744136255.0,0.01666666753590107,1.6510855377942322,3.8276442717179653,3.393513142246008,-3.8084266532897946,8.177545700128375,-3.494336153954267,95.9872643686413,20.08764099052086,-37.19008633258512
1698744136272.0,0.01666666753590107,1.9304875855863093,3.6182732070073484,3.628676235339045,-3.53653571178019,7.7506299088627095,-3.3859991133540865,90.2410193897204,11.827707104569559,-29.099006675747578
1698744136289.0,0.01666666753590107,2.030267810243368,3.591151391325891,3.734139181807637,-3.450344452014565,7.523929231427609,-3.38390418690145,85.73000729200714,3.0645500668942804,-22.36368541821172
1698744136306.0,0.01666666753590107,2.078572699207067,3.6657618111521004,3.9174201119720933,-3.4310412011295557,7.356035547748208,-3.3072897337764497,78.62083221515606,-6.017091861589522,-15.684593693017991
1698744136322.0,0.01666666753590107,2.153221989738941,3.4792870533823965,4.06700043258667,-3.3861505045235156,7.0055839874818915,-3.216609345898032,72.4107217689429,-11.745218909963315,-11.694269967623251
1698744136339.0,0.01666666753590107,2.185479414743185,3.4950200445652007,4.164616757208108,-3.3894425318062305,6.875698547418415,-3.1607945196956395,63.49941493996229,-15.590215846614047,-8.50116762969969
1698744136356.0,0.01666666753590107,2.164723626962304,3.4612355561241506,4.314488754245638,-3.458873210906982,6.686706253869831,-3.043628275951743,45.96865185014112,-15.20228671496671,-5.971291601223178
1698744136372.0,0.01666666753590107,2.1670798346996305,3.2766508498847484,4.419228647136688,-3.488651678577065,6.417508496966958,-2.950852961620688,31.51515877388291,-13.021426096001857,-7.056374299472308
1698744136389.0,0.01666666753590107,2.2085072391092777,3.221147281588614,4.432203279522061,-3.4763813950687643,6.302586817279457,-2.9405285514831543,17.679434109937546,-10.18989860481314,-9.37016149874301
1698744136406.0,0.01666666753590107,2.242048858705163,3.124214847578108,4.452780788126588,-3.4766800857543942,6.162226452691852,-2.9117975470393893,-1.6318278153644263,-6.572557849614455,-12.1821529413582
1698744136422.0,0.01666666753590107,2.231435110232234,3.2131320251762867,4.380740803310275,-3.5052614525943993,6.249315830340981,-2.970605125316977,-16.795513716236808,-1.6956433399969133,-13.469248302707388
1698744136439.0,0.01666666753590107,2.2618875316411255,3.1376135505944487,4.312263479411602,-3.4865573366463183,6.198738320270181,-3.0195366217464206,-31.23341688571447,0.6732985973169949,-14.694530452067962
1698744136456.0,0.01666666753590107,2.3415368224173783,3.0420237633645533,4.075497042775154,-3.4195191056400533,6.172401809747517,-3.2170576741874215,-47.16016127537692,2.3918925468639145,-16.51142565808847
1698744136472.0,0.01666666753590107,2.1601626026570795,3.3971947533681988,3.7412118966728447,-3.6079128487735983,6.600365648761391,-3.514088902172446,-56.8062154590379,5.128052667992683,-16.9552735484707
1698744136489.0,0.01666666753590107,2.041487707915902,3.616919746571779,3.550408169788122,-3.7277731539070604,6.912958603015541,-3.662230129894614,-67.77100158650993,8.489900378890107,-15.247307906880849
1698744136506.0,0.01666666753590107,1.7134423329859971,4.238608460614085,3.1643601032227275,-4.039766973224282,7.697209284320473,-3.984699165996909,-83.19046099632637,16.440702464327572,-10.104256570357641
1698744136522.0,0.01666666753590107,1.4904951628655194,4.424629337136447,2.7211288447111843,-4.235941287231445,8.036437147521973,-4.37345766056478,-92.77412481701387,18.56003503170166,-4.499771313886713
1698744136539.0,0.01666666753590107,1.3411059809088706,4.2838747125342485,2.4180858090907336,-4.3535576128304,8.067413300544024,-4.612279860687256,-95.69166061155232,18.24776902813243,0.3803422322224806
1698744136556.0,0.01666666753590107,0.6940589537262916,4.132312278191745,1.9514462024629116,-4.955549108234048,8.15180832454264,-4.983679808697104,-93.15634220296778,14.197553935226788,3.921774666224023
1698744136572.0,0.01666666753590107,-0.12744038499891758,3.763934600612521,1.4200468311548233,-5.7519204354435205,7.950545747485757,-5.436184506988525,-87.64319108985191,9.752606842260475,1.9477298274496284
1698744136589.0,0.01666666753590107,-0.6221703600794076,3.722068804785609,1.1587678845524787,-6.231508955493569,8.061876124683023,-5.614103033336996,-85.99148059381358,9.073730434990813,-3.4263601282686653
1698744136606.0,0.01666666753590107,-1.4057634542584418,3.7908155932754277,0.996409330907464,-6.997503849139809,8.326734391076862,-5.661538153728842,-101.22416848077602,19.337621332856344,-15.588603921969924
1698744136622.0,0.01666666753590107,-1.5486100827038287,3.700904728464782,0.8961918838769197,-7.119907409015298,8.401104280145466,-5.664231630596518,-124.01936476018163,31.49672067821846,-23.991570506877757
1698744136639.0,0.01666666753590107,-1.428216109085083,3.3461043253391978,0.39124738877415655,-6.961291549029946,8.310574406653641,-6.0048074012756345,-158.26466284343994,44.356112488992814,-31.182767617924238
1698744136656.0,0.01666666753590107,-1.3103461009860038,2.6647043621778486,-0.04320610451996326,-6.807164817157387,7.857621380072832,-6.287322612652182,-170.41021450858332,48.903464608185125,-30.83521344200814
1698744136672.0,0.01666666753590107,-1.2236305250853299,1.8849667743831873,-1.1031722540587185,-6.6816188676029435,7.308600427356362,-7.183053308758139,-165.68357333877276,48.76174159800195,-26.93540252972076
1698744136689.0,0.01666666753590107,-1.4125988532364369,1.4868500843614338,-2.2590526004761458,-6.81838763743937,7.182604980468749,-8.133251508110762,-135.72369986532053,45.80460778175034,-21.13003201824965
1698744136706.0,0.01666666753590107,-1.5658096393078564,1.3383072901010513,-2.647325941875577,-6.9339072830200195,7.187244330707192,-8.404395430645346,-102.6440896771408,44.29542967331183,-19.497905382109035
1698744136723.0,0.01666666753590107,-1.6183002895236014,1.290436700901389,-2.6889403932899234,-6.948272492980957,7.242011693683266,-8.375814063805342,-71.85169127594487,45.96698186888905,-18.782268896726364
1698744136739.0,0.01666666753590107,-1.4329261864721774,1.0790823534190654,-2.062054695126414,-6.708254361072182,7.113772851783037,-7.71217187565267,-49.112878208137715,46.098022463210334,-16.586846314451044
1698744136756.0,0.01666666753590107,-1.3607576068401337,0.913408976137638,-1.627318293237686,-6.594380144611001,6.995109647479653,-7.2658023191154,-45.53756787577035,44.680607946270946,-15.487184150531697
1698744136772.0,0.01666666753590107,-1.2837667216181754,0.4800666589558124,-0.9499404251992702,-6.478710276904702,6.609044629779458,-6.572980798229575,-49.03317331561825,41.766056944399786,-16.494828298405338
1698744136789.0,0.01666666753590107,-1.414198689648509,-0.16466449249982834,-0.8017085965842008,-6.574478343310952,6.031444063788652,-6.382941041454672,-55.30978248359064,35.16068345091801,-22.712731990461467
1698744136806.0,0.01666666753590107,-1.4903613073527813,-0.5598550659418106,-1.0387123491078614,-6.64615475551188,5.683536635047197,-6.571185146984457,-57.41360027626504,29.952834963512533,-29.502834780235414
1698744136822.0,0.01666666753590107,-1.6453800196290016,-1.070634843069315,-1.586200685429573,-6.8127014084964985,5.208885571399331,-7.066784306114911,-55.272629669600356,30.27664398677908,-37.73700690018472
1698744136839.0,0.01666666753590107,-1.7426532299011945,-1.486309401613474,-2.3949837504446507,-6.94572865371704,4.810699907794595,-7.82140674187541,-45.69293418882063,36.725356846362864,-51.40576246722724
1698744136855.0,0.01666666753590107,-1.7258265982627867,-1.6546178035736083,-2.7045804454922675,-6.95829879695475,4.620959426227212,-8.12756527916789,-31.32766325097689,52.418126275817365,-59.72286674407884
1698744136873.0,0.01666666753590107,-1.726844250872731,-1.6282272247761487,-3.0229028833091256,-6.9782005982548,4.570232278552651,-8.515874860924482,-13.016244543742756,73.7365024679774,-69.90157664525786
1698744136889.0,0.01666666753590107,-1.4660592252671718,-1.8449118273705243,-2.954331451386213,-6.723367759051919,4.266019030109048,-8.538919636425375,-7.839303516105237,82.13650133569087,-78.51890530217196
1698744136906.0,0.01666666753590107,-1.4072352803766726,-1.7819301782786845,-2.840547251296043,-6.67144409506917,4.22621542750895,-8.52919319218099,-8.35032973206913,86.54382433161416,-87.60088489813285
1698744136922.0,0.01666666753590107,-1.344816525864601,-1.8038105861753224,-2.933937482655048,-6.622960342407226,4.049343779864907,-8.769360961693526,-4.618905607824191,91.03416827689897,-97.16226864174777
1698744136939.0,0.01666666753590107,-1.1961392915695905,-1.6407903537511825,-3.235093681615591,-6.478710276904702,4.0734354340702295,-9.202711462181806,8.423467397701625,97.47543964538202,-99.87267894970559
1698744136956.0,0.01666666753590107,-1.0346697957187891,-1.5363374611079692,-3.259718419784307,-6.302886092486977,4.014627855792641,-9.39185339333415,25.599900763950046,105.74934639082788,-98.21876230256534
1698744136972.0,0.01666666753590107,-0.7644862426489591,-1.596816187468171,-3.095311116915941,-5.971738075366616,3.694852296558022,-9.502585804638265,50.22715868442818,115.32180187108739,-94.41224323660387
1698744136989.0,0.01666666753590107,-0.5843365962475537,-1.8832985489100216,-2.6253309676885603,-5.72019726344645,3.1835406045109034,-9.267654766735435,63.448516370267356,117.24221883926319,-93.88358659484489
1698744137006.0,0.01666666753590107,-0.4771235912412405,-1.949309774956107,-2.145776934430003,-5.526416566577553,2.874987281036377,-9.030628217858075,68.94605367094059,117.3059718249761,-93.33385198930723
1698744137022.0,0.01666666753590107,-0.36567514062225814,-2.111416399666667,-1.5520511630684137,-5.278168366461992,2.384775952424109,-8.750805314305424,66.43500975466627,114.44858267626877,-90.80372452449191
1698744137038.0,0.01666666753590107,-0.17285364417433738,-2.2535355906203387,-1.525099443256855,-4.975450909534096,2.0023010681703686,-8.940846824645996,67.04627070424739,107.53622633054077,-88.17979807180478
1698744137056.0,0.01666666753590107,-0.16045272002369165,-2.118933351168036,-1.475885622754693,-4.853196402740478,1.892167791803181,-9.095571522411703,72.66500288155332,99.81191075665998,-84.64195132703495
1698744137072.0,0.01666666753590107,-0.09044277973026037,-2.004715435835719,-1.7681237712442874,-4.625298916736245,1.6702555176883935,-9.648483052825927,79.62104511721272,99.8243212103819,-77.18731211215378
1698744137089.0,0.01666666753590107,-0.40475802773237224,-1.7101462140500545,-1.9640496634483335,-4.796334990094602,1.7037740486696362,-10.040533574676513,87.25464894872655,103.59057631118614,-73.12755695252491
1698744137106.0,0.01666666753590107,-0.6587532470673322,-1.5147195035398004,-1.9166566286325453,-4.888062548938393,1.6213240212589501,-10.19002095631063,96.74354389468013,105.86584892750079,-71.60132386172889
1698744137122.0,0.01666666753590107,-1.1917770047068594,-1.1908972992628812,-1.9345400758475064,-5.181202614703774,1.5337857307985423,-10.468646759033202,113.93540324316903,107.46994617483496,-72.55481826986266
1698744137139.0,0.01666666753590107,-1.7091899362385272,-0.7248824004046619,-1.639036203560233,-5.505167734582722,1.6533463223330676,-10.362852388653158,126.71388804813,107.43039937954059,-73.99305803358142
1698744137156.0,0.01666666753590107,-2.077604146435857,-0.1988967247083783,-1.188527063000202,-5.672911488397419,1.8061263157717882,-10.089315433502197,132.40021177746237,102.83741135140883,-76.89159907203808
1698744137172.0,0.01666666753590107,-2.590274559615552,0.4605633554540574,-0.6194938343465328,-5.9439051888063545,1.967285722760111,-9.710881933593749,121.54512873334451,80.22037372631382,-81.18954341859279
1698744137189.0,0.01666666753590107,-2.8154233314335344,0.945187823844701,-0.5778139164805411,-6.024410219629108,2.1055509416993705,-9.771634800720214,108.37142186224992,66.07820750261396,-86.63076580955925
1698744137206.0,0.01666666753590107,-3.082608871731162,1.3204568683728575,-0.6103811380863189,-6.165518479974567,2.1549311317443847,-9.882366042980552,100.8156890174634,58.3109095482863,-95.24319039064929
1698744137222.0,0.01666666753590107,-3.464375315454602,1.9331883689776062,-0.8129273252129554,-6.38398908920288,2.3391350219726563,-10.166078939709067,97.55400048121551,57.72823977057085,-109.15735806966495
1698744137239.0,0.01666666753590107,-3.450399104811251,2.575870478948951,-0.990004724562168,-6.22806699834615,2.6544215261597186,-10.394725782775879,101.1361410027529,63.94264640577193,-116.76416023887566
1698744137256.0,0.01666666753590107,-3.5427263831138607,3.070626757514477,-0.9152718474000692,-6.150704649463296,2.8067525154556145,-10.365097537231446,107.69594347409235,69.9035710604955,-120.40073053790887
1698744137272.0,0.01666666753590107,-3.274887347343564,3.50182855553627,-0.7016326038509607,-5.62742165685445,2.7720363904539496,-10.193912118530273,109.63626361350957,72.51518268210909,-118.891176769066
1698744137289.0,0.01666666753590107,-2.7949413921579715,3.6098657364070412,-0.12248188580870628,-4.930260207068175,2.543689626312256,-9.634267480468749,104.08201525215773,80.1807244781819,-114.36268621726668
1698744137306.0,0.01666666753590107,-2.633669756966829,3.759557116180658,0.23621873962581155,-4.5184575215213,2.385821662084758,-9.28905352859497,95.15634453535257,88.62647195295611,-106.40859624951752
1698744137322.0,0.01666666753590107,-3.2603871128261086,3.610474808216095,0.5456254650592803,-4.822371348626912,1.8831892433166504,-8.980500205120444,81.01818080250634,68.9973005802832,-101.6564306627786
1698744137339.0,0.01666666753590107,-3.0064743110775947,3.5145173567175862,0.6737251907497644,-4.370765060479939,1.552489700616151,-8.837297018322348,76.24911732776083,48.019426393721204,-105.41353331009503
1698744137356.0,0.01666666753590107,-3.0034950030058623,3.326820071415603,0.6631015054047107,-4.21544108164683,1.1406873073302208,-8.819640365600586,74.6728667616728,27.859390520640087,-113.28154923392371
1698744137372.0,0.01666666753590107,-2.6202131862834093,3.2566499721243978,0.6795663179934024,-3.6607346306398507,0.7784145224973559,-8.751555255889892,75.22575008441781,21.16116060539198,-120.57883455070612
1698744137390.0,0.01666666753590107,-2.1421197270967065,3.267628754517436,1.0046832382559776,-3.0440779924806205,0.5738599181577563,-8.381501461791991,74.69741446154983,25.092311840685962,-119.91948906936811
1698744137406.0,0.01666666753590107,-2.0054615780279037,3.3370839835375548,1.186361993920803,-2.754678793743998,0.4403831756040454,-8.152705565643311,70.05285850518447,29.138707150298277,-115.3378801363936
1698744137422.0,0.01666666753590107,-1.4965690759517252,3.2424703478634354,1.7600404180318117,-2.0367176074372604,0.11013269184529781,-7.517194662475585,59.40955913666119,25.68380110016719,-103.78193089097321
1698744137439.0,0.01666666753590107,-1.0344931239776314,2.9122543508961796,2.188615959203243,-1.4443023341523482,-0.36511604543477294,-7.045088022613525,50.39100467733303,13.296115813852259,-97.1379599984917
1698744137456.0,0.01666666753590107,-0.6784544112287462,2.926693795137107,2.467763155451417,-0.9907508302217349,-0.47090983129292724,-6.726210289001465,43.21880061482106,0.6223753749080244,-84.30934160502284
1698744137477.0,0.01666666753590107,-0.5457644351385533,3.0784862388432024,2.243275770151615,-0.7671921771394088,-0.44906274114400146,-6.904278452953696,34.802016557222295,1.6659854846819544,-65.66957094495045
1698744137489.0,0.01666666753590107,-0.949594826631993,2.2988450971603394,1.8959347431212663,-1.1134535922395066,-1.3160633095890282,-7.218667642974853,36.09159725365572,-1.1596218333219486,-55.01463634917605
1698744137505.0,0.01666666753590107,-1.3862882078073917,2.2442878698036073,1.6833651746302842,-1.5089456967781762,-1.463156781823933,-7.394640880474448,40.93833363964262,-6.989523822970808,-51.048714328364824
1698744137522.0,0.01666666753590107,-0.7766412292145192,1.2758470345348119,1.4255512737900018,-0.843357726586284,-2.560449622455239,-7.599345706939697,39.42227070052074,-8.947226793825713,-77.6590391271807
1698744137539.0,0.01666666753590107,-0.5197216468654573,1.360616737064719,1.6676736845016478,-0.5313632177158957,-2.5709242547184226,-7.31638099822998,40.16494107463832,-17.730578566442603,-90.58211903687085
1698744137556.0,0.01666666753590107,-0.705173637458682,1.049534187373519,1.7199387092679739,-0.6657377904587425,-2.964471152606606,-7.227496261596679,30.173088073677935,-20.7237467532079,-102.78429980042281
1698744137572.0,0.01666666753590107,-0.13794468174800276,2.439584524193406,2.2332354376524686,-0.014066090017044916,-1.6546932068973779,-6.676979517364502,22.150576685918153,-27.636528278211742,-99.83199834300899
1698744137589.0,0.01666666753590107,0.11164324253872036,1.6860896311581133,2.010461870533228,0.24435813387446104,-2.4450790299564598,-6.88258100040853,13.091844492571042,-53.78054069446522,-94.8083054160054
1698744137606.0,0.01666666753590107,0.5708215733751655,1.6582991224348544,1.9672019899994133,0.662296006841259,-2.4952076272159815,-6.915950770568847,8.801667778649925,-64.30141575230519,-89.92927589562268
1698744137622.0,0.01666666753590107,0.7460001533657312,1.8300822147682307,1.762514699190855,0.7796117443417315,-2.33958422704488,-7.113471823009848,2.908969670102203,-49.55557691919209,-78.1072907820303
1698744137639.0,0.01666666753590107,0.5349386513501405,1.5301917979598045,1.9247043260097503,0.5478231360754056,-2.6393083473756906,-6.951414298138022,-3.485081825884204,-37.33392328631642,-65.85201895805983
1698744137656.0,0.01666666753590107,0.44765448178127404,1.0762734334781765,2.0381442427068945,0.44966086258618887,-3.0734073281437158,-6.847267110443115,-13.95842474351641,-26.683472709732133,-54.590181073394774
1698744137672.0,0.01666666753590107,0.811182527372241,1.3285218091458082,2.3345891952365636,0.8372223131207865,-2.7471973519474266,-6.584952391052246,-31.99203575154403,-7.212551697486528,-52.51300101848342
1698744137689.0,0.01666666753590107,0.7445015853710473,2.3217206535741686,2.235342639064789,0.8186671383734326,-1.6716019638612865,-6.721122025951742,-37.92663685720637,1.7744329871675955,-46.0779417070505
1698744137706.0,0.01666666753590107,0.5941390283375978,2.1393916173070666,2.1252426804453135,0.7160157878600061,-1.7552496766239403,-6.874051656994223,-46.179581752089454,1.4548887767074843,-37.20376037130348
1698744137722.0,0.01666666753590107,0.6963039561741053,1.845214609709382,1.8634142832666634,0.85727377714077,-1.874211571612954,-7.209090836334228,-63.96303452044442,-5.0381174327570095,-25.30859661094359
1698744137739.0,0.01666666753590107,0.11399857349321245,0.2819029246971011,1.8672937550485134,0.29224220361020414,-3.283797799029946,-7.266402038574219,-60.113908734440415,19.929692865964316,-45.026215518273595
1698744137756.0,0.01666666753590107,-1.5433946861431003,-0.5065548529088497,0.8862351380079985,-1.2141595899719744,-3.926790582385659,-8.29875128239095,-56.02273811972408,47.39858268873456,-114.23750934034787
1698744137772.0,0.01666666753590107,-2.8431074571728705,-1.3416682909667492,-1.6988737094074486,-2.1631611268859356,-4.554669675500691,-10.939257022857666,-58.04037941564043,59.94627540164079,-154.93154418885206
1698744137789.0,0.01666666753590107,-0.4897842623066157,0.5798430842205882,-1.1947715103477239,0.44262795885615047,-2.4618381493166086,-10.47104037617147,-52.97000897584898,42.417376953463034,-168.43630349882798
