timestamp,interval,accx,accy,accz,accGx,accGy,accGz,alpha,beta,gamma
1698420068.013,16,0.0,0.0,0.0,0.2,9.5,0.1,0.0,0.1,-0.5
1698420068.029,16,0.0,0.0,0.0,0.2,9.5,0.1,0.2,0.2,-0.5
1698420068.046,16,0.0,0.0,0.0,0.2,9.5,0.1,0.0,0.2,-0.2
1698420068.063,16,0.0,0.0,0.0,0.2,9.5,0.1,0.0,0.30000000000000004,-0.2
1698420068.08,16,0.0,0.0,-0.1,0.30000000000000004,9.5,0.0,-0.2,0.30000000000000004,-0.1
1698420068.096,16,0.0,0.0,0.0,0.2,9.5,0.0,-0.5,0.5,-0.2
1698420068.113,16,0.0,0.0,0.1,0.2,9.4,0.2,0.0,0.4,-0.2
1698420068.129,16,0.0,0.0,0.0,0.2,9.4,0.1,0.6000000000000001,0.2,0.2
1698420068.147,16,0.0,0.1,-0.1,0.2,9.5,0.0,-0.6000000000000001,0.2,0.0
1698420068.163,16,0.0,0.1,-0.1,0.30000000000000004,9.5,0.0,-1.0,0.30000000000000004,-0.1
1698420068.18,16,0.0,0.0,-0.1,0.2,9.5,0.0,-1.6,0.6000000000000001,-0.2
1698420068.196,16,0.0,-0.1,0.0,0.2,9.4,0.1,-1.5000000000000002,0.9,-0.4
1698420068.213,16,0.0,0.0,0.0,0.2,9.4,0.1,-1.0999999999999999,0.9,-0.4
1698420068.229,16,0.0,0.0,0.0,0.2,9.5,0.2,-1.2000000000000002,0.7,-0.4
1698420068.246,16,0.0,0.0,0.0,0.2,9.5,0.2,-1.0999999999999999,0.6000000000000001,-0.2
1698420068.262,16,0.0,0.0,0.0,0.2,9.5,0.2,-1.0999999999999999,0.8,-0.2
1698420068.279,16,0.0,0.0,0.0,0.2,9.5,0.1,-1.0999999999999999,0.8,-0.2
1698420068.297,16,0.0,0.0,-0.1,0.2,9.5,0.1,-1.2000000000000002,0.8,-0.2
1698420068.313,16,0.0,0.0,-0.1,0.2,9.5,0.1,-1.3,1.0,-0.30000000000000004
1698420068.331,16,0.0,0.0,0.0,0.2,9.5,0.1,-1.2000000000000002,0.9,-0.4
1698420068.346,16,0.0,0.0,0.0,0.2,9.5,0.1,-1.2000000000000002,1.0999999999999999,-0.30000000000000004
1698420068.365,16,0.0,0.0,0.0,0.2,9.5,0.1,-1.2000000000000002,1.2000000000000002,-0.4
1698420068.38,16,0.0,0.0,0.0,0.2,9.5,0.1,-1.0,1.3,-0.4
1698420068.398,16,0.0,0.0,0.0,0.2,9.4,0.1,-0.9,1.3,-0.30000000000000004
1698420068.412,16,0.0,0.0,0.0,0.2,9.4,0.1,-1.0,0.9,-0.2
1698420068.429,16,0.0,0.0,0.0,0.2,9.4,0.1,-0.9,0.9,-0.2
1698420068.447,16,0.0,0.0,0.0,0.2,9.5,0.2,-0.9,1.0999999999999999,-0.30000000000000004
1698420068.462,16,0.0,0.0,0.0,0.2,9.5,0.2,-1.0,1.0,-0.4
1698420068.48,16,0.0,0.0,0.0,0.2,9.5,0.1,-0.8,1.0999999999999999,-0.2
1698420068.496,16,0.0,0.0,0.0,0.2,9.5,0.1,-0.6000000000000001,1.0999999999999999,-0.1
1698420068.513,16,0.0,0.0,0.0,0.2,9.5,0.1,-0.5,1.4,0.1
1698420068.529,16,0.0,0.0,0.0,0.2,9.5,0.2,-0.4,1.3,-0.1
1698420068.546,16,-0.1,0.0,0.1,0.2,9.4,0.2,0.6000000000000001,1.4,0.1
1698420068.562,16,0.0,0.0,0.0,0.2,9.5,0.2,0.6000000000000001,1.0999999999999999,0.1
1698420068.579,16,0.0,0.0,0.0,0.2,9.5,0.2,0.5,1.3,0.0
1698420068.596,16,0.0,0.0,0.0,0.2,9.5,0.1,0.30000000000000004,1.2000000000000002,-0.1
1698420068.612,16,0.0,0.0,0.0,0.2,9.5,0.1,0.2,1.0999999999999999,-0.2
1698420068.63,16,0.0,0.0,-0.1,0.2,9.5,0.1,0.30000000000000004,1.2000000000000002,-0.2
1698420068.646,16,0.0,-0.1,0.1,0.2,9.4,0.2,0.4,1.0999999999999999,-0.5
1698420068.663,16,0.0,0.0,0.0,0.2,9.5,0.2,0.5,1.3,-0.4
1698420068.68,16,0.0,0.0,0.1,0.2,9.5,0.2,0.4,1.0,-0.5
1698420068.696,16,0.0,0.0,0.0,0.2,9.5,0.2,0.5,0.9,-0.30000000000000004
1698420068.712,16,0.0,0.0,0.0,0.2,9.5,0.2,0.4,0.6000000000000001,-0.2
1698420068.729,16,0.0,0.0,0.0,0.2,9.5,0.2,0.5,0.5,-0.30000000000000004
1698420068.746,16,0.0,0.0,0.0,0.2,9.4,0.2,0.6000000000000001,0.5,-0.2
1698420068.762,16,0.0,0.0,0.0,0.2,9.5,0.2,0.6000000000000001,0.4,-0.2
1698420068.78,16,0.0,0.0,0.0,0.2,9.5,0.2,0.7,0.1,0.0
1698420068.796,16,0.0,0.0,0.0,0.2,9.5,0.2,0.8,0.0,0.1
1698420068.812,16,0.0,0.0,0.0,0.2,9.5,0.2,0.8,-0.1,0.1
1698420068.831,16,0.0,0.0,0.0,0.2,9.5,0.2,0.7,-0.2,0.0
1698420068.847,16,0.0,0.0,0.0,0.2,9.5,0.2,0.7,-0.4,0.1
1698420068.863,16,0.0,0.0,0.0,0.2,9.5,0.1,0.5,-0.6000000000000001,0.0
1698420068.879,16,0.0,0.0,0.0,0.2,9.5,0.2,0.30000000000000004,-0.7,0.1
1698420068.896,16,0.0,0.0,0.0,0.2,9.5,0.1,0.30000000000000004,-0.7,0.0
1698420068.912,16,0.0,0.0,0.0,0.2,9.5,0.2,0.30000000000000004,-0.8,-0.1
1698420068.929,16,0.0,0.0,0.0,0.2,9.5,0.1,0.30000000000000004,-0.8,-0.2
1698420068.947,16,0.0,0.0,0.0,0.2,9.5,0.2,0.5,-0.7,0.0
1698420068.963,16,0.0,0.0,0.0,0.2,9.5,0.1,0.2,-0.8,-0.1
1698420068.979,16,0.0,0.0,0.0,0.2,9.5,0.1,0.1,-0.8,-0.1
1698420068.996,16,0.0,0.0,0.0,0.2,9.5,0.1,0.0,-0.7,-0.2
1698420069.014,16,0.0,0.0,0.0,0.2,9.5,0.2,0.0,-0.8,-0.1
1698420069.032,16,0.0,0.0,0.0,0.2,9.5,0.2,0.5,-0.9,-0.1
1698420069.046,16,0.0,0.0,0.0,0.2,9.5,0.2,0.5,-0.9,-0.2
1698420069.063,16,0.0,0.0,0.0,0.2,9.5,0.1,0.5,-0.9,-0.30000000000000004
1698420069.08,16,0.0,0.0,0.0,0.2,9.5,0.1,0.5,-1.0999999999999999,-0.2
1698420069.096,16,0.0,0.0,0.0,0.2,9.5,0.1,0.4,-1.3,0.0
1698420069.113,16,0.0,0.0,0.0,0.2,9.5,0.1,0.2,-1.5000000000000002,0.1
1698420069.13,16,0.0,0.0,0.0,0.2,9.5,0.1,0.2,-1.6,0.0
1698420069.146,16,0.0,0.0,0.0,0.2,9.5,0.1,0.4,-1.8,0.2
1698420069.163,16,0.0,0.0,-0.1,0.2,9.5,0.0,0.30000000000000004,-1.9,0.30000000000000004
1698420069.179,16,0.0,0.0,0.0,0.2,9.5,0.1,0.1,-1.5000000000000002,0.2
1698420069.196,16,0.0,0.0,0.0,0.2,9.5,0.1,0.2,-1.4,0.2
1698420069.212,16,0.0,0.0,0.0,0.2,9.4,0.1,0.6000000000000001,-1.5000000000000002,0.30000000000000004
1698420069.231,16,0.0,0.0,0.0,0.2,9.5,0.1,1.0,-1.5000000000000002,0.30000000000000004
1698420069.246,16,0.0,0.0,0.0,0.2,9.5,0.1,1.0999999999999999,-1.5000000000000002,0.4
1698420069.262,16,0.0,0.0,0.0,0.2,9.5,0.1,1.4,-1.2000000000000002,0.30000000000000004
1698420069.28,16,0.0,0.0,0.0,0.2,9.5,0.1,1.6,-1.0999999999999999,0.2
1698420069.296,16,0.0,0.0,0.0,0.2,9.5,0.1,1.6,-1.0999999999999999,0.1
1698420069.313,16,0.0,0.0,0.0,0.2,9.5,0.1,1.7,-0.9,0.0
1698420069.33,16,0.0,0.0,0.0,0.2,9.5,0.0,1.9,-0.6000000000000001,0.1
1698420069.346,16,0.0,0.1,0.0,0.2,9.5,0.1,2.0,-0.30000000000000004,0.1
1698420069.363,16,0.0,0.0,0.0,0.2,9.5,0.0,2.3000000000000003,-0.30000000000000004,0.2
1698420069.379,16,0.0,0.0,0.0,0.2,9.4,0.1,2.6,-0.30000000000000004,0.4
1698420069.396,16,0.0,0.0,0.0,0.2,9.5,0.1,2.6,-0.1,0.4
1698420069.413,16,0.0,-0.1,0.1,0.2,9.4,0.1,2.8,0.0,0.2
1698420069.43,16,0.0,0.0,0.1,0.2,9.5,0.1,2.8,0.1,0.1
1698420069.447,16,0.0,0.0,0.1,0.2,9.5,0.1,2.8,0.0,0.1
1698420069.465,16,0.0,0.0,0.0,0.2,9.5,0.1,2.8,0.2,0.1
1698420069.481,16,0.0,0.0,0.0,0.2,9.5,0.1,2.5,0.0,0.0
1698420069.496,16,0.0,0.1,0.0,0.2,9.5,0.0,2.1999999999999997,0.30000000000000004,-0.1
1698420069.513,16,0.0,0.1,0.0,0.2,9.600000000000001,0.0,1.3,0.2,-0.1
1698420069.529,16,0.0,0.1,-0.1,0.2,9.5,-0.1,0.6000000000000001,-0.1,0.2
1698420069.546,16,0.0,0.1,-0.1,0.2,9.600000000000001,-0.1,0.30000000000000004,-0.1,0.30000000000000004
1698420069.563,16,0.0,0.0,0.0,0.2,9.5,0.0,-0.5,-0.1,0.30000000000000004
1698420069.579,16,0.0,0.0,0.0,0.2,9.5,0.0,-1.0999999999999999,0.0,0.1
1698420069.596,16,0.0,0.0,0.0,0.2,9.5,0.0,-1.5000000000000002,-0.1,0.1
1698420069.612,16,0.0,0.0,-0.1,0.2,9.5,0.0,-1.6,-0.1,0.1
1698420069.629,16,0.0,0.0,0.0,0.2,9.5,0.0,-1.9,-0.2,0.1
1698420069.645,16,0.0,0.0,0.0,0.2,9.5,0.0,-1.8,-0.30000000000000004,0.2
1698420069.663,16,0.0,-0.1,0.0,0.2,9.4,0.0,-1.8,-0.2,0.1
1698420069.679,16,0.0,0.0,0.0,0.2,9.4,0.0,-1.7,-0.1,0.2
1698420069.696,16,0.0,0.0,0.0,0.2,9.4,0.0,-1.4,0.0,0.2
1698420069.713,16,0.0,0.0,0.0,0.2,9.4,0.0,-1.0999999999999999,0.0,0.1
1698420069.729,16,0.0,0.0,-0.1,0.2,9.5,0.0,-0.8,0.0,0.30000000000000004
1698420069.746,16,0.0,0.0,-0.1,0.2,9.5,0.0,-0.30000000000000004,0.1,0.30000000000000004
1698420069.763,16,0.0,0.0,-0.1,0.2,9.5,0.0,-0.2,0.0,0.30000000000000004
1698420069.779,16,0.0,0.0,0.0,0.2,9.5,0.0,0.0,0.0,0.30000000000000004
1698420069.796,16,0.0,0.0,0.0,0.2,9.5,0.0,0.0,-0.1,0.2
1698420069.813,16,0.0,0.0,0.0,0.2,9.5,0.0,0.0,0.0,0.30000000000000004
1698420069.829,16,0.0,0.0,0.0,0.2,9.5,0.0,0.2,-0.1,0.30000000000000004
1698420069.846,16,0.0,0.0,0.0,0.2,9.5,0.1,0.2,0.0,0.30000000000000004
1698420069.862,16,0.0,0.0,0.0,0.2,9.5,0.0,0.4,-0.1,0.4
1698420069.879,16,0.0,0.0,0.0,0.2,9.5,0.0,0.30000000000000004,-0.1,0.4
1698420069.896,16,0.0,0.0,0.0,0.2,9.5,0.1,0.2,-0.1,0.4
1698420069.913,16,0.0,0.0,0.0,0.2,9.5,0.0,0.30000000000000004,-0.1,0.4
1698420069.929,16,0.0,0.0,0.0,0.2,9.5,0.0,0.2,-0.30000000000000004,0.4
1698420069.947,16,0.0,0.0,0.1,0.2,9.5,0.1,0.2,-0.1,0.4
1698420069.962,16,0.0,0.0,0.0,0.2,9.5,0.1,0.0,-0.30000000000000004,0.2
1698420069.98,16,0.0,0.0,0.1,0.2,9.5,0.1,0.0,-0.5,0.4
1698420069.996,16,0.0,0.0,0.0,0.2,9.5,0.1,0.0,-0.4,0.4
1698420070.013,16,0.0,0.0,0.0,0.2,9.5,0.1,0.2,-0.4,0.5
1698420070.029,16,0.0,0.0,0.0,0.2,9.5,0.1,0.1,-0.4,0.30000000000000004
1698420070.045,16,0.0,0.0,0.0,0.2,9.5,0.1,-0.1,-0.6000000000000001,0.30000000000000004
1698420070.062,16,0.0,0.0,0.0,0.2,9.5,0.1,-0.2,-0.6000000000000001,0.30000000000000004
1698420070.079,16,0.0,0.0,0.0,0.2,9.5,0.1,-0.1,-0.6000000000000001,0.2
1698420070.096,16,0.0,0.0,0.0,0.2,9.5,0.1,-0.30000000000000004,-0.5,0.30000000000000004
1698420070.113,16,0.0,0.0,0.0,0.2,9.5,0.1,-0.4,-0.6000000000000001,0.1
1698420070.129,16,0.0,0.0,0.0,0.30000000000000004,9.5,0.1,-0.7,-0.4,0.1
1698420070.146,16,0.0,0.1,0.0,0.30000000000000004,9.5,0.1,-0.7,-0.5,0.0
1698420070.163,16,0.0,0.0,0.0,0.2,9.5,0.1,-0.7,-0.30000000000000004,-0.2
1698420070.179,16,-0.1,0.0,0.0,0.2,9.5,0.0,-0.6000000000000001,-0.30000000000000004,0.1
1698420070.196,16,0.0,0.0,0.0,0.2,9.4,0.1,-0.6000000000000001,-0.5,0.30000000000000004
1698420070.213,16,0.0,0.0,0.0,0.2,9.5,0.1,-0.7,-0.5,0.30000000000000004
1698420070.229,16,0.0,0.0,0.0,0.2,9.5,0.1,-0.6000000000000001,-0.5,0.1
1698420070.246,16,0.0,0.0,0.0,0.2,9.5,0.1,-0.5,-0.6000000000000001,0.1
1698420070.262,16,0.0,0.0,0.0,0.2,9.5,0.1,-0.5,-0.5,0.1
1698420070.279,16,0.0,0.0,0.0,0.2,9.5,0.1,-0.4,-0.4,0.0
1698420070.297,16,0.0,0.0,0.0,0.2,9.5,0.1,-0.30000000000000004,-0.30000000000000004,-0.1
1698420070.313,16,0.0,0.0,0.0,0.2,9.5,0.1,-0.30000000000000004,-0.2,-0.1
1698420070.329,16,0.0,0.0,0.0,0.2,9.5,0.1,-0.30000000000000004,0.0,-0.2
1698420070.346,16,0.0,0.0,0.0,0.2,9.4,0.1,-0.2,-0.30000000000000004,0.0
1698420070.362,16,0.0,0.0,0.0,0.2,9.4,0.1,-0.30000000000000004,-0.1,0.0
1698420070.379,16,0.0,0.0,0.0,0.2,9.5,0.1,-0.30000000000000004,0.0,-0.1
1698420070.396,16,0.0,0.0,0.0,0.2,9.5,0.1,-0.30000000000000004,0.0,-0.2
1698420070.412,16,0.0,0.0,0.0,0.2,9.5,0.1,-0.4,-0.1,0.0
1698420070.43,16,0.0,0.0,0.0,0.2,9.5,0.1,-0.30000000000000004,-0.1,-0.1
1698420070.447,16,0.0,0.0,0.0,0.2,9.5,0.1,-0.30000000000000004,-0.1,0.1
1698420070.463,16,0.0,0.0,0.0,0.2,9.5,0.1,-0.30000000000000004,0.0,0.0
1698420070.479,16,0.0,0.0,0.0,0.30000000000000004,9.5,0.1,-0.30000000000000004,0.0,-0.1
1698420070.496,16,0.0,0.0,0.0,0.2,9.5,0.1,-0.1,-0.2,0.0
1698420070.512,16,0.0,0.0,0.0,0.2,9.5,0.1,-0.1,-0.30000000000000004,0.1
1698420070.531,16,0.0,0.0,0.0,0.2,9.5,0.1,-0.1,-0.30000000000000004,0.0
1698420070.546,16,0.0,0.0,0.0,0.2,9.5,0.1,0.0,-0.1,-0.1
1698420070.563,16,0.0,0.0,0.0,0.2,9.5,0.1,0.0,0.1,-0.1
1698420070.58,16,0.0,0.0,0.0,0.2,9.5,0.1,0.0,0.0,-0.1
1698420070.596,16,0.0,0.0,0.0,0.2,9.5,0.1,0.1,-0.2,-0.1
1698420070.615,16,0.0,0.0,0.0,0.2,9.5,0.1,0.0,-0.2,-0.1
1698420070.63,16,0.0,0.0,0.0,0.2,9.5,0.1,0.1,-0.1,-0.1
1698420070.646,16,0.0,0.0,0.0,0.2,9.5,0.1,0.2,-0.1,0.0
1698420070.663,16,0.0,0.0,0.0,0.2,9.5,0.1,0.2,0.1,0.1
1698420070.68,16,0.0,0.0,0.0,0.2,9.5,0.1,0.2,-0.1,0.1
1698420070.696,16,0.0,0.0,0.0,0.2,9.5,0.1,0.2,-0.30000000000000004,0.1
1698420070.713,16,0.0,0.0,0.0,0.2,9.5,0.1,0.1,-0.5,0.0
1698420070.73,16,0.0,0.0,0.0,0.2,9.5,0.1,0.2,-0.5,0.0
1698420070.747,16,0.0,0.0,0.0,0.2,9.5,0.1,0.30000000000000004,-0.6000000000000001,0.2
1698420070.762,16,0.0,0.0,0.0,0.2,9.5,0.0,0.1,-0.6000000000000001,0.1
1698420070.779,16,0.0,0.0,0.0,0.2,9.5,0.1,0.1,-0.6000000000000001,0.2
1698420070.796,16,0.0,0.0,0.0,0.2,9.5,0.1,0.2,-0.4,0.2
1698420070.813,16,0.0,0.0,0.0,0.2,9.5,0.1,0.30000000000000004,-0.5,0.1
1698420070.829,16,0.0,0.0,0.0,0.2,9.5,0.1,0.30000000000000004,-0.5,0.1
1698420070.845,16,0.0,0.0,0.0,0.2,9.5,0.1,0.30000000000000004,-0.5,0.1
1698420070.862,16,0.0,0.0,0.0,0.2,9.5,0.1,0.2,-0.4,0.1
1698420070.879,16,0.1,0.0,0.0,0.30000000000000004,9.5,0.1,0.2,-0.4,0.1
1698420070.895,16,0.0,0.0,0.0,0.30000000000000004,9.5,0.1,0.30000000000000004,-0.4,-0.1
1698420070.912,16,0.0,0.0,0.0,0.2,9.5,0.0,0.0,-0.4,-0.2
1698420070.929,16,0.0,0.1,0.0,0.2,9.5,0.1,-0.1,-0.4,-0.2
1698420070.946,16,0.0,0.1,0.0,0.2,9.600000000000001,0.1,-0.1,-0.30000000000000004,-0.2
1698420070.962,16,0.0,0.0,0.0,0.2,9.5,0.0,0.0,-0.30000000000000004,-0.1
1698420070.979,16,0.0,0.0,0.0,0.2,9.5,0.0,0.0,-0.4,-0.1
1698420070.996,16,0.0,0.0,0.0,0.2,9.4,0.0,0.0,-0.4,0.1
1698420071.013,16,0.0,0.0,0.0,0.2,9.4,0.1,0.1,-0.4,-0.1
1698420071.029,16,0.0,0.0,0.0,0.2,9.4,0.1,0.2,-0.4,-0.2
1698420071.046,16,0.0,0.0,0.0,0.2,9.4,0.1,0.1,-0.30000000000000004,-0.2
1698420071.063,16,0.0,0.0,0.0,0.2,9.5,0.1,0.30000000000000004,-0.30000000000000004,-0.2
1698420071.079,16,0.0,0.0,0.0,0.2,9.5,0.0,0.30000000000000004,-0.5,-0.2
1698420071.096,16,0.0,0.0,0.0,0.2,9.5,0.0,0.5,-0.30000000000000004,-0.2
1698420071.113,16,0.0,0.0,0.0,0.2,9.5,0.0,0.5,-0.30000000000000004,-0.2
1698420071.129,16,0.0,0.0,0.0,0.2,9.5,0.0,0.5,-0.1,-0.2
1698420071.146,16,0.0,0.0,0.0,0.2,9.4,0.1,0.5,-0.30000000000000004,-0.1
1698420071.162,16,0.0,0.0,0.0,0.2,9.5,0.1,0.30000000000000004,-0.1,0.1
1698420071.179,16,0.0,0.0,0.0,0.2,9.5,0.1,0.30000000000000004,-0.1,-0.1
1698420071.196,16,0.0,0.0,0.0,0.2,9.5,0.1,0.4,-0.1,0.0
1698420071.212,16,0.0,0.0,0.0,0.2,9.5,0.0,0.2,-0.1,0.1
1698420071.229,16,0.0,0.0,0.0,0.2,9.5,0.0,0.1,-0.2,0.1
1698420071.246,16,0.0,0.0,0.0,0.2,9.5,0.0,0.1,-0.4,0.1
1698420071.263,16,0.0,0.0,0.0,0.2,9.5,0.1,0.2,-0.30000000000000004,0.0
1698420071.279,16,0.0,0.0,0.0,0.2,9.5,0.1,0.30000000000000004,-0.5,0.1
1698420071.296,16,0.0,0.0,0.0,0.2,9.5,0.1,0.0,-0.6000000000000001,0.1
1698420071.313,16,0.0,0.0,0.0,0.2,9.5,0.1,-0.30000000000000004,-0.8,0.1
1698420071.329,16,0.0,0.0,0.0,0.2,9.5,0.1,-0.5,-0.6000000000000001,0.1
1698420071.346,16,0.0,0.0,0.1,0.2,9.5,0.1,-0.30000000000000004,-0.6000000000000001,0.1
1698420071.362,16,0.0,0.0,-0.1,0.2,9.5,0.0,-0.30000000000000004,-0.6000000000000001,-0.1
1698420071.379,16,0.0,0.0,-0.1,0.30000000000000004,9.5,0.0,-1.2000000000000002,-0.7,-0.1
1698420071.396,16,0.0,0.0,0.0,0.30000000000000004,9.5,0.0,-1.8,-0.6000000000000001,-0.2
1698420071.413,16,0.0,0.0,-0.1,0.2,9.5,0.0,-2.0,-0.6000000000000001,-0.2
1698420071.43,16,0.0,0.0,0.0,0.30000000000000004,9.5,0.0,-2.0,0.0,-0.2
1698420071.445,16,0.0,0.0,0.0,0.2,9.5,0.0,-1.9,0.0,-0.30000000000000004
1698420071.462,16,0.0,0.0,0.0,0.2,9.5,0.1,-1.9,-0.1,-0.2
1698420071.479,16,0.0,0.0,0.0,0.30000000000000004,9.5,0.1,-1.9,0.0,-0.4
1698420071.496,16,0.0,0.0,0.0,0.30000000000000004,9.5,0.1,-1.9,0.2,-0.4
1698420071.513,16,0.0,0.0,0.0,0.2,9.5,0.0,-1.6,0.2,-0.4
1698420071.53,16,0.0,0.0,-0.1,0.2,9.5,0.0,-1.4,0.6000000000000001,-0.2
1698420071.546,16,0.0,0.0,-0.1,0.30000000000000004,9.5,0.0,-1.2000000000000002,0.5,-0.1
1698420071.562,16,0.0,0.0,0.0,0.30000000000000004,9.5,0.1,-1.0,0.9,-0.1
1698420071.579,16,0.0,-0.1,0.0,0.2,9.4,0.1,-0.6000000000000001,1.0,-0.1
1698420071.596,16,0.0,-0.1,0.0,0.2,9.4,0.1,-0.30000000000000004,1.0,-0.2
1698420071.613,16,-0.1,0.0,0.0,0.2,9.4,0.1,0.30000000000000004,1.0,0.1
1698420071.629,16,0.0,0.0,0.1,0.2,9.4,0.2,0.8,1.0999999999999999,0.2
1698420071.646,16,0.0,0.0,0.0,0.2,9.4,0.1,1.0,1.2000000000000002,0.0
1698420071.662,16,0.0,0.0,0.0,0.2,9.4,0.1,1.0999999999999999,0.7,0.2
1698420071.679,16,0.0,0.1,0.0,0.2,9.5,0.1,0.8,0.30000000000000004,0.30000000000000004
1698420071.696,16,0.0,0.1,0.0,0.2,9.600000000000001,0.1,0.9,0.30000000000000004,0.4
1698420071.714,16,0.0,0.0,0.0,0.2,9.5,0.0,1.0999999999999999,0.30000000000000004,0.1
1698420071.73,16,0.0,0.0,0.0,0.2,9.5,0.0,0.8,0.4,0.2
1698420071.746,16,0.0,0.0,0.0,0.2,9.5,0.1,0.6000000000000001,0.2,0.30000000000000004
1698420071.763,16,0.0,0.0,0.1,0.2,9.5,0.1,0.2,0.2,0.2
1698420071.779,16,0.0,0.0,0.0,0.2,9.5,0.1,0.2,0.0,0.0
1698420071.796,16,0.0,0.0,0.0,0.2,9.5,0.1,-0.4,0.0,-0.1
1698420071.813,16,0.0,0.0,0.1,0.2,9.5,0.2,-0.30000000000000004,0.0,-0.30000000000000004
1698420071.829,16,0.0,0.0,0.0,0.2,9.5,0.1,-0.30000000000000004,0.1,-0.2
1698420071.846,16,0.0,0.0,0.0,0.2,9.5,0.1,-0.30000000000000004,0.0,-0.1
1698420071.862,16,0.0,0.0,0.0,0.2,9.5,0.1,-0.5,0.0,-0.1
1698420071.879,16,0.0,0.0,0.0,0.2,9.5,0.1,-0.7,0.2,-0.1
1698420071.895,16,0.0,0.0,0.0,0.2,9.5,0.1,-0.7,0.2,0.1
1698420071.912,16,0.0,0.0,0.0,0.2,9.4,0.1,-0.8,0.2,0.30000000000000004
1698420071.929,16,0.0,0.0,0.0,0.2,9.5,0.1,-0.9,0.30000000000000004,0.2
1698420071.945,16,0.0,0.0,0.0,0.30000000000000004,9.5,0.1,-1.2000000000000002,0.4,0.0
1698420071.962,16,0.0,0.0,0.0,0.30000000000000004,9.5,0.1,-1.0999999999999999,0.4,0.0
1698420071.979,16,0.0,0.0,0.0,0.2,9.5,0.1,-1.0999999999999999,0.30000000000000004,0.1
1698420071.996,16,0.0,0.0,0.0,0.2,9.5,0.1,-0.9,0.2,0.1
1698420072.012,16,0.0,0.0,0.0,0.2,9.5,0.1,-0.9,0.2,0.1
1698420072.029,16,0.0,0.0,0.0,0.2,9.5,0.1,-0.9,-0.1,0.1
1698420072.045,16,0.0,0.0,0.0,0.2,9.5,0.2,-0.9,-0.4,0.2
1698420072.062,16,0.0,0.0,0.0,0.2,9.5,0.1,-0.9,-0.5,0.2
1698420072.079,16,0.0,0.0,0.0,0.2,9.5,0.1,-0.8,-0.5,0.2
1698420072.095,16,0.0,0.0,0.0,0.2,9.5,0.1,-0.8,-0.30000000000000004,0.1
1698420072.112,16,0.0,0.0,0.0,0.2,9.5,0.1,-0.8,-0.30000000000000004,0.1
1698420072.129,16,0.0,0.0,0.0,0.30000000000000004,9.5,0.1,-0.8,-0.30000000000000004,-0.1
1698420072.145,16,0.0,0.0,0.0,0.2,9.5,0.1,-0.8,-0.30000000000000004,-0.1
1698420072.162,16,0.0,0.0,0.0,0.2,9.5,0.2,-0.6000000000000001,-0.4,0.1
1698420072.179,16,0.0,0.0,0.0,0.2,9.5,0.2,-0.4,-0.5,0.1
1698420072.196,16,0.0,0.0,0.0,0.2,9.5,0.2,-0.2,-0.5,0.1
1698420072.213,16,0.0,0.0,0.0,0.2,9.5,0.1,0.0,-0.5,0.30000000000000004
1698420072.229,16,0.0,0.0,0.0,0.30000000000000004,9.5,0.1,0.0,-0.5,0.2
1698420072.246,16,0.0,0.0,0.0,0.2,9.4,0.1,0.1,-0.4,0.1
1698420072.262,16,0.0,0.0,0.0,0.30000000000000004,9.5,0.1,0.1,-0.5,0.0
1698420072.279,16,0.0,0.0,0.0,0.2,9.5,0.2,0.2,-0.5,-0.1
1698420072.296,16,0.0,0.0,0.0,0.2,9.5,0.2,0.30000000000000004,-0.8,-0.1
1698420072.312,16,0.0,0.0,0.0,0.2,9.5,0.2,0.30000000000000004,-0.8,0.0
1698420072.329,16,0.0,0.0,0.0,0.2,9.5,0.1,0.4,-1.0,0.1
1698420072.346,16,0.0,0.0,0.0,0.30000000000000004,9.5,0.2,0.30000000000000004,-1.0999999999999999,0.2
1698420072.362,16,0.0,0.0,0.0,0.30000000000000004,9.5,0.1,0.4,-0.9,0.2
1698420072.379,16,0.0,0.0,0.0,0.30000000000000004,9.5,0.1,0.2,-0.9,0.2
1698420072.396,16,0.0,0.0,0.0,0.30000000000000004,9.5,0.1,-0.2,-1.2000000000000002,0.30000000000000004
1698420072.413,16,0.0,0.1,0.0,0.30000000000000004,9.5,0.1,-0.4,-1.0999999999999999,0.30000000000000004
1698420072.429,16,0.0,0.0,0.0,0.30000000000000004,9.5,0.1,-0.4,-0.9,0.2
1698420072.446,16,0.0,0.0,0.0,0.2,9.5,0.2,-0.2,-0.6000000000000001,0.2
1698420072.462,16,0.0,0.0,0.0,0.2,9.5,0.1,0.0,-0.8,0.30000000000000004
1698420072.479,16,0.0,0.0,0.0,0.2,9.5,0.1,0.0,-0.9,0.4
1698420072.496,16,0.0,0.0,0.0,0.2,9.4,0.1,0.30000000000000004,-0.8,0.4
1698420072.512,16,0.0,-0.1,0.0,0.2,9.4,0.2,0.5,-0.8,0.5
1698420072.529,16,0.0,0.0,0.0,0.2,9.4,0.2,0.6000000000000001,-0.9,0.4
1698420072.546,16,0.0,0.0,0.0,0.30000000000000004,9.5,0.1,1.0999999999999999,-0.8,0.4
1698420072.563,16,0.0,0.0,0.0,0.30000000000000004,9.5,0.1,1.2000000000000002,-0.4,0.30000000000000004
1698420072.579,16,0.0,0.0,0.0,0.30000000000000004,9.5,0.1,1.4,-0.30000000000000004,0.1
1698420072.596,16,0.0,0.0,0.0,0.30000000000000004,9.5,0.1,1.9,-0.1,0.2
1698420072.612,16,0.0,0.0,0.0,0.30000000000000004,9.4,0.1,2.1999999999999997,-0.1,0.4
1698420072.629,16,0.0,-0.1,0.0,0.2,9.4,0.2,2.6,0.1,0.6000000000000001
1698420072.646,16,0.0,-0.1,0.0,0.30000000000000004,9.4,0.1,3.3000000000000003,-0.1,0.6000000000000001
1698420072.663,16,0.0,-0.1,0.1,0.30000000000000004,9.4,0.2,3.5,-0.1,0.5
1698420072.679,16,0.0,-0.1,0.1,0.30000000000000004,9.5,0.1,3.5,-0.1,0.5
1698420072.695,16,0.0,0.0,0.0,0.30000000000000004,9.5,0.1,3.6,-0.2,0.5
1698420072.712,16,0.0,0.0,0.0,0.2,9.5,0.1,3.9,-0.30000000000000004,0.7
1698420072.73,16,0.0,0.0,0.0,0.2,9.5,0.1,4.0,-0.5,0.7
1698420072.745,16,0.0,0.0,0.0,0.30000000000000004,9.5,0.1,4.2,-0.8,0.6000000000000001
1698420072.762,16,0.0,0.0,0.1,0.30000000000000004,9.5,0.1,4.1000000000000005,-0.9,0.30000000000000004
1698420072.779,16,0.0,0.0,0.0,0.30000000000000004,9.5,0.1,3.9,-1.0,0.2
1698420072.795,16,0.0,0.0,0.0,0.30000000000000004,9.5,0.0,3.0000000000000004,-0.9,-0.1
1698420072.812,16,0.0,0.1,0.0,0.30000000000000004,9.600000000000001,0.0,2.4000000000000004,-0.8,0.0
1698420072.829,16,0.0,0.1,0.0,0.30000000000000004,9.600000000000001,0.0,1.4,-1.0,0.1
1698420072.846,16,0.0,0.1,-0.1,0.30000000000000004,9.600000000000001,0.0,0.5,-0.7,0.0
1698420072.862,16,0.0,0.0,-0.1,0.30000000000000004,9.5,-0.1,-0.1,-0.30000000000000004,0.1
1698420072.879,16,0.0,0.0,0.0,0.30000000000000004,9.5,0.0,-0.30000000000000004,0.0,0.1
1698420072.896,16,0.0,0.0,0.0,0.30000000000000004,9.5,0.0,-0.8,0.4,0.1
1698420072.913,16,0.0,0.0,0.0,0.30000000000000004,9.5,0.0,-1.0999999999999999,0.5,-0.1
1698420072.929,16,0.0,0.0,0.0,0.2,9.4,0.0,-1.2000000000000002,0.6000000000000001,-0.1
1698420072.946,16,0.0,0.0,0.0,0.30000000000000004,9.5,0.0,-1.4,0.4,0.0
1698420072.962,16,0.0,0.0,-0.1,0.30000000000000004,9.5,0.0,-1.3,0.4,-0.1
1698420072.979,16,0.0,0.0,0.0,0.30000000000000004,9.5,0.0,-1.4,0.5,-0.30000000000000004
1698420072.996,16,0.0,0.0,-0.1,0.30000000000000004,9.5,-0.1,-1.2000000000000002,0.1,-0.6000000000000001
1698420073.013,16,0.0,-0.1,-0.1,0.2,9.5,0.0,-1.2000000000000002,-0.1,-0.6000000000000001
1698420073.029,16,0.0,0.0,-0.1,0.30000000000000004,9.5,0.0,-1.4,-0.30000000000000004,-0.8
1698420073.046,16,0.0,0.0,0.0,0.30000000000000004,9.5,0.0,-1.3,-0.5,-0.8
1698420073.062,16,0.0,0.0,-0.1,0.30000000000000004,9.5,-0.1,-1.3,-0.5,-0.8
1698420073.079,16,0.0,0.0,-0.1,0.30000000000000004,9.5,-0.1,-1.4,-0.5,-0.7
1698420073.096,16,0.0,0.0,-0.1,0.30000000000000004,9.5,0.0,-1.4,-0.7,-0.7
1698420073.113,16,0.0,0.0,0.0,0.30000000000000004,9.4,0.0,-1.4,-0.6000000000000001,-0.6000000000000001
1698420073.129,16,0.0,0.0,-0.1,0.30000000000000004,9.4,0.0,-1.4,-0.6000000000000001,-0.6000000000000001
1698420073.146,16,0.1,0.0,0.0,0.30000000000000004,9.4,0.0,-1.5000000000000002,-0.6000000000000001,-0.4
1698420073.163,16,0.1,0.0,0.0,0.30000000000000004,9.4,0.0,-1.6,-0.5,-0.4
1698420073.179,16,0.0,0.0,0.0,0.30000000000000004,9.5,0.0,-1.4,-0.1,-0.4
1698420073.196,16,0.0,0.0,0.0,0.30000000000000004,9.5,0.0,-1.2000000000000002,0.2,-0.30000000000000004
1698420073.212,16,0.0,0.0,0.0,0.2,9.5,0.0,-0.9,0.30000000000000004,0.1
1698420073.229,16,0.0,0.0,-0.1,0.30000000000000004,9.4,0.0,-0.7,0.2,0.1
1698420073.246,16,0.0,0.0,0.0,0.30000000000000004,9.5,0.0,-0.8,0.2,-0.1
1698420073.262,16,0.0,0.0,0.0,0.2,9.5,0.0,-0.6000000000000001,0.0,-0.1
1698420073.279,16,0.0,0.0,0.0,0.30000000000000004,9.5,0.0,-0.6000000000000001,0.0,0.0
1698420073.296,16,0.0,0.0,0.0,0.30000000000000004,9.5,0.0,-0.6000000000000001,-0.1,0.1
1698420073.312,16,0.0,0.0,0.0,0.30000000000000004,9.5,0.1,-0.6000000000000001,0.2,-0.1
1698420073.331,16,0.0,0.0,0.0,0.30000000000000004,9.5,0.0,-0.5,0.5,-0.1
1698420073.346,16,0.0,0.0,0.0,0.30000000000000004,9.5,0.0,-0.5,0.5,-0.1
1698420073.362,16,0.0,0.0,0.0,0.30000000000000004,9.5,0.0,-1.0,0.6000000000000001,0.1
1698420073.379,16,0.0,-0.1,0.1,0.30000000000000004,9.4,0.1,-0.7,0.30000000000000004,0.1
1698420073.397,16,0.0,0.0,0.0,0.2,9.4,0.1,-0.6000000000000001,0.2,0.0
1698420073.413,16,0.0,0.0,0.0,0.30000000000000004,9.5,0.1,-0.6000000000000001,0.30000000000000004,-0.1
1698420073.429,16,0.1,0.0,0.0,0.30000000000000004,9.5,0.1,-0.8,0.5,-0.2
1698420073.446,16,0.0,0.1,0.0,0.30000000000000004,9.5,0.0,-0.9,0.30000000000000004,-0.2
1698420073.462,16,0.0,0.0,0.0,0.2,9.5,0.0,-1.0999999999999999,0.4,-0.2
1698420073.479,16,0.0,0.0,0.0,0.2,9.5,0.0,-1.2000000000000002,0.30000000000000004,0.1
1698420073.496,16,0.0,0.0,0.0,0.2,9.5,0.0,-1.3,0.30000000000000004,0.1
1698420073.512,16,0.0,0.0,0.0,0.2,9.5,0.1,-1.7,0.5,0.1
1698420073.529,16,0.0,0.0,0.0,0.2,9.5,0.1,-1.7,0.4,0.1
1698420073.546,16,0.0,0.0,0.0,0.2,9.5,0.1,-1.7,0.30000000000000004,0.1
1698420073.562,16,0.0,0.0,0.0,0.2,9.5,0.1,-1.7,0.2,0.0
1698420073.579,16,0.0,0.0,0.0,0.2,9.5,0.1,-1.7,0.30000000000000004,-0.2
1698420073.596,16,0.0,0.0,0.0,0.2,9.5,0.1,-1.7,0.1,-0.4
1698420073.613,16,0.0,0.0,0.0,0.2,9.5,0.1,-2.0,-0.1,-0.5
1698420073.629,16,0.0,0.0,0.0,0.2,9.5,0.1,-2.1999999999999997,-0.2,-0.5
1698420073.646,16,0.0,0.0,-0.1,0.2,9.5,0.0,-2.3000000000000003,-0.2,-0.4
1698420073.662,16,0.0,0.1,-0.1,0.2,9.5,0.0,-2.8,-0.2,-0.4
1698420073.679,16,-0.1,0.0,-0.1,0.2,9.5,0.0,-3.2,-0.2,-0.7
1698420073.695,16,-0.1,0.0,-0.1,0.2,9.5,0.0,-3.4,-0.1,-0.7
1698420073.712,16,-0.1,0.0,-0.1,0.1,9.5,0.1,-3.9,-0.1,-0.9
1698420073.729,16,-0.1,0.0,-0.1,0.1,9.5,0.1,-4.5,-0.2,-1.3
1698420073.745,16,-0.1,0.0,-0.1,0.1,9.5,0.1,-5.2,-0.30000000000000004,-1.6
1698420073.762,16,-0.1,0.0,-0.1,0.1,9.5,0.1,-5.500000000000001,-0.30000000000000004,-1.8
1698420073.779,16,-0.2,0.0,0.0,0.0,9.5,0.1,-5.7,-0.4,-2.0
1698420073.797,16,-0.2,0.0,-0.1,0.0,9.5,0.1,-6.000000000000001,-0.30000000000000004,-1.9
1698420073.813,16,-0.1,0.1,-0.1,0.0,9.600000000000001,0.1,-6.7,-0.30000000000000004,-2.0
1698420073.829,16,-0.2,0.1,-0.1,0.0,9.600000000000001,0.2,-6.7,-0.30000000000000004,-1.8
1698420073.847,16,-0.2,0.0,-0.1,-0.1,9.5,0.2,-6.3,-1.0,-1.0
1698420073.863,16,-0.2,0.0,-0.1,-0.1,9.5,0.1,-6.2,-1.6,-0.5
1698420073.879,16,-0.1,0.0,-0.2,0.0,9.5,0.1,-6.8,-1.7,0.0
1698420073.896,16,-0.1,0.0,-0.2,0.0,9.5,0.1,-7.300000000000001,-1.8,0.1
1698420073.912,16,0.0,0.0,-0.1,0.1,9.5,0.1,-7.699999999999999,-1.6,0.4
1698420073.929,16,-0.1,0.0,-0.1,0.0,9.5,0.2,-7.6,-1.4,0.6000000000000001
1698420073.945,16,-0.1,0.0,-0.1,0.0,9.4,0.2,-7.300000000000001,-1.3,0.7
1698420073.963,16,-0.1,0.0,-0.1,0.0,9.5,0.2,-7.1000000000000005,-1.2000000000000002,0.9
1698420073.979,16,-0.1,0.1,0.0,0.0,9.600000000000001,0.30000000000000004,-6.7,-1.7,1.0
1698420073.996,16,-0.1,0.1,0.0,0.0,9.600000000000001,0.30000000000000004,-6.8,-2.3000000000000003,0.9
1698420074.012,16,-0.1,0.0,0.0,0.0,9.5,0.4,-6.9,-2.8,0.8
1698420074.029,16,0.0,0.1,0.0,0.1,9.5,0.4,-7.300000000000001,-3.8,0.7
1698420074.046,16,0.0,0.0,0.0,0.1,9.5,0.4,-7.300000000000001,-3.8,0.7
1698420074.062,16,0.0,0.0,0.0,0.1,9.5,0.4,-7.6,-4.800000000000001,0.4
1698420074.079,16,-0.1,0.0,0.0,0.0,9.5,0.5,-7.8,-5.300000000000001,0.4
1698420074.095,16,0.0,-0.1,0.1,0.1,9.4,0.5,-8.1,-5.2,0.6000000000000001
1698420074.112,16,0.0,-0.1,0.1,0.1,9.4,0.6000000000000001,-8.3,-5.2,0.7
1698420074.129,16,0.0,-0.1,0.1,0.1,9.4,0.6000000000000001,-8.700000000000001,-4.5,1.0
1698420074.147,16,0.1,0.0,0.0,0.2,9.4,0.6000000000000001,-8.799999999999999,-3.4,1.5000000000000002
1698420074.162,16,0.0,0.0,0.0,0.2,9.5,0.6000000000000001,-8.600000000000001,-3.1,1.5000000000000002
1698420074.179,16,0.1,0.0,-0.1,0.2,9.5,0.5,-8.4,-2.5,1.4
1698420074.196,16,0.0,0.0,-0.1,0.2,9.4,0.5,-8.600000000000001,-2.4000000000000004,1.3
1698420074.213,16,0.0,-0.1,-0.1,0.1,9.4,0.5,-8.700000000000001,-2.1999999999999997,1.3
1698420074.23,16,0.0,-0.1,-0.1,0.2,9.4,0.5,-8.9,-2.0,1.5000000000000002
1698420074.246,16,0.1,0.0,-0.1,0.2,9.5,0.5,-9.0,-2.3000000000000003,1.7
1698420074.263,16,0.1,0.0,-0.1,0.2,9.4,0.6000000000000001,-8.9,-2.1999999999999997,1.8
1698420074.279,16,0.1,-0.1,-0.1,0.30000000000000004,9.4,0.6000000000000001,-9.0,-1.9,1.8
1698420074.295,16,0.1,-0.1,-0.1,0.30000000000000004,9.4,0.6000000000000001,-9.200000000000001,-1.2000000000000002,1.5000000000000002
1698420074.313,16,0.1,-0.1,-0.1,0.30000000000000004,9.3,0.6000000000000001,-9.4,-0.9,1.7
1698420074.329,16,0.2,-0.2,-0.1,0.4,9.200000000000001,0.6000000000000001,-9.700000000000001,-0.4,1.8
1698420074.346,16,0.2,-0.2,-0.2,0.5,9.200000000000001,0.6000000000000001,-9.9,0.30000000000000004,1.4
1698420074.362,16,0.2,-0.30000000000000004,-0.30000000000000004,0.5,9.1,0.5,-9.9,1.0,0.9
1698420074.38,16,0.1,-0.2,-0.4,0.4,9.200000000000001,0.5,-10.2,2.4000000000000004,0.4
1698420074.396,16,0.1,-0.2,-0.4,0.30000000000000004,9.200000000000001,0.4,-10.2,2.8,0.30000000000000004
1698420074.412,16,-0.1,0.1,-0.6000000000000001,0.2,9.5,0.30000000000000004,-9.5,2.5,0.1
1698420074.43,16,-0.1,0.2,-0.8,0.2,9.600000000000001,0.1,-9.600000000000001,1.0,-0.30000000000000004
1698420074.446,16,-0.1,0.0,-0.7000000000000001,0.1,9.4,0.1,-11.2,-3.3000000000000003,-0.8
1698420074.462,16,0.0,-0.1,-0.8,0.2,9.3,0.1,-12.5,-6.2,-1.4
1698420074.479,16,0.30000000000000004,-0.2,-0.7000000000000001,0.6000000000000001,9.1,0.2,-17.200000000000003,-13.100000000000001,-3.3000000000000003
1698420074.495,16,0.6000000000000001,-0.6000000000000001,-0.7000000000000001,0.9,8.700000000000001,0.30000000000000004,-20.3,-21.6,-6.1000000000000005
1698420074.512,16,0.6000000000000001,-0.6000000000000001,-0.6000000000000001,0.8,8.700000000000001,0.4,-22.1,-27.1,-10.2
1698420074.53,16,0.4,-0.30000000000000004,-0.7000000000000001,0.6000000000000001,9.0,0.4,-22.5,-28.8,-10.9
1698420074.546,16,0.0,0.4,-1.1,0.2,9.700000000000001,0.1,-21.900000000000002,-30.4,-10.1
1698420074.562,16,0.0,0.7000000000000001,-1.3,0.1,10.0,-0.1,-22.1,-29.000000000000004,-8.0
1698420074.579,16,-0.1,1.0,-1.7000000000000002,0.1,10.3,-0.5,-22.3,-28.200000000000003,-2.9
1698420074.595,16,-0.2,0.9,-1.5,0.0,10.200000000000001,-0.2,-23.8,-23.900000000000002,1.2000000000000002
1698420074.612,16,-0.30000000000000004,0.9,-1.6,-0.1,10.200000000000001,-0.2,-24.1,-20.0,7.8
1698420074.63,16,-0.30000000000000004,0.5,-1.6,0.0,9.8,-0.2,-23.8,-20.4,11.1
1698420074.646,16,-0.30000000000000004,-0.4,-1.4000000000000001,0.0,8.9,0.1,-25.3,-22.7,14.4
1698420074.662,16,-0.4,-0.4,-1.3,0.0,8.9,0.30000000000000004,-26.3,-23.900000000000002,15.000000000000002
1698420074.679,16,-0.2,-0.4,-1.3,0.1,8.8,0.30000000000000004,-25.5,-25.400000000000002,14.900000000000002
1698420074.696,16,0.30000000000000004,-0.7000000000000001,-1.2000000000000002,0.8,8.5,0.4,-21.900000000000002,-28.0,16.1
1698420074.712,16,0.6000000000000001,-0.7000000000000001,-1.3,1.3,8.9,0.30000000000000004,-20.900000000000002,-30.100000000000005,16.2
1698420074.73,16,0.9,0.1,-1.6,1.4000000000000001,9.3,0.1,-19.3,-27.900000000000002,16.2
1698420074.746,16,0.6000000000000001,0.6000000000000001,-1.6,1.2000000000000002,9.8,0.1,-16.3,-23.2,14.4
1698420074.762,16,0.4,0.5,-1.7000000000000002,0.9,9.700000000000001,-0.2,-14.3,-16.900000000000002,16.5
1698420074.779,16,0.30000000000000004,0.6000000000000001,-2.2,1.0,9.8,-0.4,-14.0,-14.200000000000001,18.2
1698420074.796,16,0.4,0.7000000000000001,-2.3000000000000003,1.1,9.9,-0.5,-14.4,-11.8,19.200000000000003
1698420074.812,16,0.5,0.30000000000000004,-2.1,1.4000000000000001,9.5,-0.2,-12.200000000000001,-12.100000000000001,19.700000000000003
1698420074.829,16,0.7000000000000001,0.2,-2.3000000000000003,1.4000000000000001,9.5,-0.2,-12.200000000000001,-12.100000000000001,19.700000000000003
1698420074.845,16,1.0,-0.2,-2.2,2.0,8.9,-0.4,-12.200000000000001,-10.4,14.3
1698420074.862,16,0.6000000000000001,-0.8,-2.0,1.6,8.4,-0.2,-11.4,-8.700000000000001,11.2
1698420074.88,16,0.1,-0.9,-2.0,1.2000000000000002,8.200000000000001,-0.1,-8.1,-2.5,5.6
1698420074.896,16,-0.7000000000000001,-0.7000000000000001,-2.4000000000000004,0.4,8.4,-0.5,-5.300000000000001,2.3000000000000003,4.1000000000000005
1698420074.914,16,-0.7000000000000001,-0.5,-2.8000000000000003,0.30000000000000004,8.6,-0.9,-5.300000000000001,6.7,5.300000000000001
1698420074.929,16,-0.30000000000000004,-0.1,-3.0,1.4000000000000001,9.5,-1.3,-5.8,12.9,7.9
1698420074.946,16,0.8,1.2000000000000002,-3.1,1.9000000000000001,10.4,-1.2000000000000002,-3.7000000000000006,23.8,12.5
1698420074.962,16,1.3,3.0,-3.0,2.4000000000000004,12.200000000000001,-1.1,-0.9,27.8,16.700000000000003
1698420074.979,16,1.2000000000000002,3.6,-2.7,2.3000000000000003,12.8,-0.8,0.5,26.500000000000004,18.900000000000002
1698420074.995,16,0.7000000000000001,3.6,-2.4000000000000004,1.8,12.8,-0.6000000000000001,14.800000000000002,22.2,22.6
1698420075.013,16,-0.2,3.1,-2.9000000000000004,1.1,12.3,-1.1,24.6,16.1,16.700000000000003
1698420075.03,16,-1.2000000000000002,4.2,-1.3,0.0,13.4,0.4,23.0,9.8,8.700000000000001
1698420075.046,16,-1.7000000000000002,1.7000000000000002,3.1,-0.4,11.0,4.7,28.900000000000002,-29.700000000000003,1.4
1698420075.063,16,2.3000000000000003,-0.2,1.8,3.5,9.1,3.3000000000000003,31.7,19.0,-16.0
1698420075.08,16,2.4000000000000004,0.4,1.0,3.6,9.700000000000001,2.5,23.3,34.900000000000006,-27.3
1698420075.096,16,2.2,2.3000000000000003,2.5,3.2,11.600000000000001,4.0,5.2,51.5,-49.4
1698420075.113,16,-0.7000000000000001,2.8000000000000003,2.5,0.1,12.200000000000001,4.0,-0.7,47.800000000000004,-56.900000000000006
1698420075.13,16,-1.5,2.7,0.9,-0.7000000000000001,12.100000000000001,2.4000000000000004,0.8,39.50000000000001,-48.300000000000004
1698420075.146,16,-1.3,1.8,0.6000000000000001,-0.7000000000000001,11.200000000000001,2.1,-16.1,53.8,-36.1
1698420075.162,16,0.1,2.7,0.2,0.5,12.100000000000001,1.9000000000000001,-25.700000000000003,40.4,-31.900000000000002
1698420075.179,16,0.4,2.9000000000000004,0.30000000000000004,0.7000000000000001,12.3,2.0,-23.400000000000002,29.000000000000004,-32.800000000000004
1698420075.196,16,1.2000000000000002,0.30000000000000004,-0.9,1.5,9.700000000000001,0.9,-18.5,28.900000000000002,-36.4
1698420075.213,16,1.2000000000000002,-2.0,-1.0,1.3,7.4,0.8,-21.200000000000003,41.5,-42.5
1698420075.229,16,0.9,-3.2,-1.2000000000000002,0.9,6.2,0.7000000000000001,-25.2,54.3,-44.7
1698420075.246,16,0.9,-3.9000000000000004,-1.1,0.8,5.4,0.8,-25.2,56.5,-44.8
1698420075.262,16,0.0,-4.9,-1.7000000000000002,-0.4,4.4,0.30000000000000004,-22.000000000000004,57.400000000000006,-44.7
1698420075.279,16,-0.6000000000000001,-5.2,-1.8,-1.5,3.7,-0.2,-17.7,51.900000000000006,-29.1
1698420075.295,16,-1.1,-5.800000000000001,-2.2,-1.6,3.4000000000000004,-0.2,-16.5,46.900000000000006,-12.9
1698420075.312,16,-1.3,-5.6000000000000005,-3.0,-1.8,3.5,-1.0,-12.5,37.300000000000004,3.5
1698420075.329,16,-1.8,-5.300000000000001,-3.0,-2.4000000000000004,3.8000000000000003,-1.0,-14.100000000000001,29.200000000000003,-0.8
1698420075.346,16,-2.4000000000000004,-4.1000000000000005,-2.3000000000000003,-3.1,5.0,-0.30000000000000004,-14.600000000000001,19.200000000000003,-4.9
1698420075.362,16,-1.5,-1.8,-2.2,-2.2,7.2,-0.1,-3.7000000000000006,6.1000000000000005,-3.8
1698420075.379,16,-0.2,0.30000000000000004,-3.6,-0.9,9.3,-1.6,10.600000000000001,-0.1,2.8
1698420075.396,16,0.0,0.9,-4.0,-0.7000000000000001,10.0,-2.0,13.3,-10.600000000000001,-2.6
1698420075.413,16,-0.7000000000000001,3.3000000000000003,-2.4000000000000004,-1.5,12.3,-0.5,14.100000000000001,-34.300000000000004,-24.9
1698420075.429,16,-1.1,5.2,-1.6,-1.9000000000000001,14.3,0.30000000000000004,15.000000000000002,-25.3,-35.1
1698420075.446,16,0.4,8.0,-1.7000000000000002,-0.6000000000000001,17.1,0.1,20.3,10.700000000000001,-47.0
1698420075.462,16,1.0,1.2000000000000002,-4.3,0.0,10.4,-2.7,38.5,13.6,-8.600000000000001
1698420075.479,16,-2.4000000000000004,5.1000000000000005,5.5,-3.4000000000000004,14.4,7.1000000000000005,22.4,-83.10000000000001,-9.3
1698420075.496,16,-1.1,7.1000000000000005,15.8,-2.2,16.400000000000002,17.5,6.5,-101.7,-18.5
1698420075.513,16,1.5,-2.1,1.7000000000000002,0.6000000000000001,7.2,3.3000000000000003,60.7,-39.2,16.2
1698420075.529,16,-2.0,-0.5,3.1,-2.9000000000000004,8.8,4.6000000000000005,6.000000000000001,-37.800000000000004,23.900000000000002
1698420075.546,16,-0.7000000000000001,2.9000000000000004,2.2,-1.5,12.200000000000001,3.8000000000000003,-2.0,-42.5,38.0
1698420075.563,16,0.7000000000000001,7.6000000000000005,4.3,0.1,17.0,6.0,-21.1,-42.0,45.0
1698420075.579,16,-0.9,4.6000000000000005,3.3000000000000003,-1.4000000000000001,14.0,5.1000000000000005,-0.2,6.4,25.5
1698420075.596,16,-1.9000000000000001,2.6,2.2,-2.4000000000000004,12.100000000000001,4.0,-2.0,16.5,13.9
1698420075.612,16,-2.1,2.3000000000000003,1.2000000000000002,-2.6,11.700000000000001,3.0,-9.5,21.0,16.8
1698420075.629,16,-0.6000000000000001,0.4,-0.2,-1.1,9.9,1.6,-8.1,9.3,21.0
1698420075.646,16,-0.30000000000000004,-1.0,-0.6000000000000001,-0.7000000000000001,8.5,1.2000000000000002,-5.9,7.0,21.900000000000002
1698420075.663,16,-0.6000000000000001,-2.6,-1.5,-0.9,6.9,0.30000000000000004,-6.5,11.8,28.400000000000002
1698420075.679,16,-0.8,-3.2,-0.9,-1.0,6.6000000000000005,0.5,-7.699999999999999,15.2,28.8
1698420075.695,16,-0.8,-3.7,-0.4,-1.1,5.7,1.4000000000000001,-6.3,4.7,22.000000000000004
1698420075.712,16,-0.4,-5.2,-0.9,-0.6000000000000001,4.2,0.9,4.2,-9.3,1.8
1698420075.729,16,0.9,-6.5,-2.3000000000000003,0.7000000000000001,2.8000000000000003,-0.5,11.9,-20.2,-1.9
1698420075.746,16,1.3,-6.9,-3.0,1.1,2.4000000000000004,-1.3,13.5,-22.2,1.4
1698420075.763,16,1.6,-6.6000000000000005,-2.9000000000000004,1.5,2.6,-1.2000000000000002,13.8,-25.5,9.600000000000001
1698420075.779,16,1.4000000000000001,-3.4000000000000004,-1.3,1.4000000000000001,5.800000000000001,0.30000000000000004,21.6,-21.900000000000002,21.400000000000002
1698420075.796,16,1.1,-2.4000000000000004,-0.6000000000000001,1.1,6.800000000000001,0.9,29.000000000000004,-22.1,19.200000000000003
1698420075.812,16,1.7000000000000002,-2.5,-0.1,1.8,6.7,1.3,39.6,-9.8,19.6
1698420075.829,16,1.8,-1.8,-1.1,1.9000000000000001,7.4,0.2,50.800000000000004,38.300000000000004,32.0
1698420075.845,16,1.2000000000000002,-0.7000000000000001,-2.2,1.4000000000000001,8.5,-1.0,61.300000000000004,39.9,41.5
1698420075.862,16,-1.8,4.0,-4.800000000000001,-1.4000000000000001,13.3,-3.8000000000000003,52.0,-21.8,54.1
1698420075.879,16,-6.4,5.5,-3.2,-6.1000000000000005,14.8,-2.4000000000000004,41.6,-14.100000000000001,-22.900000000000002
1698420075.895,16,-3.4000000000000004,2.5,-2.8000000000000003,-0.5,15.600000000000001,5.300000000000001,49.3,22.900000000000002,-35.5
1698420075.912,16,0.2,11.100000000000001,15.4,0.5,20.5,16.1,14.0,88.7,31.900000000000002
1698420075.929,16,-1.0,-1.2000000000000002,3.7,-0.6000000000000001,8.3,4.3,95.7,-54.0,23.2
1698420075.945,16,5.5,-1.6,-4.7,6.0,7.9,-4.3,72.5,6.1000000000000005,33.300000000000004
1698420075.963,16,3.7,0.8,4.800000000000001,4.2,10.3,5.2,0.5,56.7,-19.500000000000004
1698420075.979,16,-2.5,11.700000000000001,3.9000000000000004,-2.1,21.200000000000003,4.4,-26.3,29.900000000000006,-26.1
1698420075.996,16,-1.3,8.5,1.5,-1.0,18.1,2.1,-11.700000000000001,55.7,-26.400000000000002
1698420076.012,16,2.0,3.6,2.2,2.2,13.3,2.9000000000000004,-11.4,51.900000000000006,-12.100000000000001
1698420076.029,16,3.6,1.2000000000000002,1.2000000000000002,3.8000000000000003,10.8,1.8,-6.3,15.5,-5.2
1698420076.046,16,0.6000000000000001,-0.30000000000000004,0.4,0.8,9.4,1.1,-19.400000000000002,25.8,-12.6
1698420076.064,16,-0.4,-1.3,0.9,-0.2,8.3,1.6,-21.900000000000002,37.800000000000004,-16.3
1698420076.079,16,-1.2000000000000002,-3.4000000000000004,0.2,-1.1,6.2,1.0,-14.200000000000001,35.1,-30.799999999999997
1698420076.096,16,-1.2000000000000002,-5.300000000000001,-0.8,-1.3,4.3,0.0,-12.000000000000002,36.6,-38.5
1698420076.113,16,-1.3,-5.800000000000001,-0.8,-1.4000000000000001,3.7,0.0,-11.000000000000002,32.5,-35.9
1698420076.129,16,-1.6,-5.9,-1.1,-1.8,3.6,-0.2,-11.4,27.6,-14.100000000000001
1698420076.146,16,-1.5,-5.800000000000001,-1.6,-1.6,3.7,-0.6000000000000001,-10.9,23.700000000000003,-2.3000000000000003
1698420076.163,16,-1.7000000000000002,-5.7,-1.6,-2.0,3.7,-0.7000000000000001,-6.9,6.1000000000000005,-2.4000000000000004
1698420076.179,16,-1.7000000000000002,-5.6000000000000005,-1.4000000000000001,-2.0,3.8000000000000003,-0.5,-3.8,-2.5,-12.100000000000001
1698420076.196,16,-1.2000000000000002,-5.7,-1.4000000000000001,-1.5,3.7,-0.5,-0.6000000000000001,-6.4,-7.300000000000001
1698420076.213,16,-0.5,-4.1000000000000005,-0.7000000000000001,-0.9,5.2,0.1,8.600000000000001,-22.4,-2.4000000000000004
1698420076.229,16,-0.6000000000000001,-2.6,-0.30000000000000004,-0.9,6.7,0.5,27.7,-31.0,-17.3
1698420076.245,16,-0.4,-1.2000000000000002,-0.30000000000000004,-0.9,8.0,0.4,33.800000000000004,-26.9,-44.7
1698420076.262,16,0.1,0.9,0.9,-0.5,10.100000000000001,1.6,26.9,-4.2,-59.9
1698420076.279,16,1.6,2.2,-2.9000000000000004,0.8,11.5,-2.3000000000000003,15.5,45.1,-59.20000000000001
1698420076.296,16,2.3000000000000003,1.9000000000000001,-3.5,-0.1,10.8,-3.4000000000000004,32.1,5.6,-13.100000000000001
1698420076.313,16,-1.5,3.1,-5.800000000000001,-2.4000000000000004,12.4,-5.4,49.1,-40.2,-13.5
1698420076.329,16,0.0,8.4,14.700000000000001,-0.9,17.8,15.100000000000001,-1.9,-146.1,-39.699999999999996
1698420076.346,16,3.8000000000000003,-1.4000000000000001,7.4,2.8000000000000003,8.0,7.800000000000001,48.6,-1.2000000000000002,-16.3
1698420076.363,16,2.1,-2.1,-2.2,1.0,7.2,-1.8,55.6,-25.1,-9.1
1698420076.379,16,-2.7,2.9000000000000004,2.9000000000000004,-3.7,12.3,3.3000000000000003,-11.700000000000001,-55.5,12.6
1698420076.396,16,-0.1,20.0,7.2,-1.0,29.400000000000002,7.800000000000001,-41.300000000000004,-69.9,16.3
1698420076.412,16,2.5,17.5,5.5,1.6,27.1,6.2,-11.8,-58.5,12.9
1698420076.428,16,-0.2,2.5,3.0,-1.1,12.100000000000001,3.6,5.7,-39.00000000000001,-19.1
1698420076.445,16,-2.6,3.6,0.6000000000000001,-3.6,13.200000000000001,1.3,-15.2,-7.400000000000001,-6.4
1698420076.462,16,-1.6,3.0,0.4,-2.6,12.600000000000001,1.1,-21.1,-3.8,6.9
1698420076.479,16,-0.8,-0.7000000000000001,-0.30000000000000004,-1.7000000000000002,9.0,0.6000000000000001,-27.900000000000002,-11.9,23.6
1698420076.496,16,-0.7000000000000001,-2.4000000000000004,-0.1,-1.6,7.2,0.8,-27.900000000000002,-13.100000000000001,31.6
1698420076.514,16,-0.30000000000000004,-4.3,-0.2,-1.1,5.300000000000001,0.8,-26.3,-2.1999999999999997,51.0
1698420076.53,16,1.1,-4.9,-0.7000000000000001,0.6000000000000001,4.7,0.30000000000000004,-23.1,-1.2000000000000002,49.9
1698420076.546,16,2.1,-5.4,-1.1,1.7000000000000002,4.1000000000000005,0.0,-19.1,-6.8,28.200000000000003
1698420076.563,16,1.9000000000000001,-6.2,-1.1,1.5,3.3000000000000003,0.0,-19.400000000000002,-12.700000000000001,10.600000000000001
1698420076.579,16,1.8,-7.4,-1.0,1.5,2.1,0.2,-15.7,-16.3,-7.400000000000001
1698420076.595,16,1.8,-6.300000000000001,-1.7000000000000002,1.5,3.1,-0.5,-7.300000000000001,-5.2,3.1
1698420076.612,16,1.2000000000000002,-5.6000000000000005,-1.7000000000000002,0.9,3.7,-0.5,-0.4,2.9,9.3
1698420076.629,16,0.2,-5.2,-1.6,-0.1,4.1000000000000005,-0.5,17.1,16.8,15.100000000000001
1698420076.646,16,0.30000000000000004,-4.2,-1.5,0.1,5.0,-0.4,29.500000000000004,29.200000000000003,25.5
1698420076.662,16,0.7000000000000001,-3.6,-1.3,0.5,5.6000000000000005,-0.30000000000000004,33.5,40.6,31.6
1698420076.679,16,2.0,-2.5,-1.6,1.9000000000000001,6.800000000000001,-0.8,41.2,71.9,49.2
1698420076.696,16,2.6,-0.6000000000000001,-2.9000000000000004,2.7,8.6,-2.2,47.7,70.10000000000001,61.4
1698420076.713,16,1.6,1.2000000000000002,-3.3000000000000003,1.8,10.4,-2.8000000000000003,42.0,22.1,61.300000000000004
1698420076.731,16,-6.300000000000001,5.9,-2.1,-6.0,15.200000000000001,-1.6,22.8,-30.9,8.5
1698420076.748,16,-2.1,6.7,-0.9,-1.9000000000000001,16.0,-0.5,14.800000000000002,55.800000000000004,-13.200000000000001
1698420076.762,16,0.8,11.600000000000001,7.0,1.0,21.0,7.5,-7.699999999999999,99.9,18.1
1698420076.784,16,1.0,-1.8,1.5,1.3,7.6000000000000005,1.9000000000000001,70.8,-48.400000000000006,8.799999999999999
1698420076.795,16,7.9,-1.2000000000000002,-3.3000000000000003,8.3,8.3,-3.0,42.7,-14.900000000000002,10.9
1698420076.812,16,5.800000000000001,1.7000000000000002,3.2,6.0,11.200000000000001,3.5,-16.3,63.900000000000006,-35.1
1698420076.828,16,4.1000000000000005,8.1,6.9,4.4,17.5,7.300000000000001,-42.400000000000006,44.2,-34.0
1698420076.845,16,-5.7,16.400000000000002,4.1000000000000005,-5.7,26.1,4.7,-10.0,16.1,-52.1
1698420076.862,16,-5.4,7.0,2.1,-5.4,16.7,2.6,-4.5,34.6,-36.800000000000004
1698420076.88,16,2.6,1.1,1.4000000000000001,2.6,10.700000000000001,2.0,-16.3,57.00000000000001,-0.8
1698420076.895,16,2.8000000000000003,1.5,-1.0,2.8000000000000003,11.200000000000001,-0.30000000000000004,-12.700000000000001,11.6,-6.6000000000000005
1698420076.913,16,0.2,-1.3,-0.9,0.2,8.4,-0.2,-17.5,17.599999999999998,-17.0
1698420076.929,16,0.2,-2.5,-0.7000000000000001,0.1,7.1000000000000005,0.1,-20.4,24.6,-24.6
1698420076.946,16,0.30000000000000004,-4.9,-0.4,0.0,4.800000000000001,0.4,-23.0,26.9,-48.2
1698420076.962,16,-0.30000000000000004,-6.300000000000001,-0.7000000000000001,-0.7000000000000001,3.2,0.1,-27.1,23.6,-40.8
1698420076.979,16,-0.9,-5.9,-0.9,-1.4000000000000001,3.6,0.0,-26.400000000000002,19.400000000000002,-21.3
1698420076.996,16,-1.5,-6.300000000000001,-1.0,-2.0,3.1,0.0,-26.400000000000002,6.3,4.5
1698420077.013,16,-2.4000000000000004,-6.300000000000001,-1.3,-2.5,2.9000000000000004,-0.30000000000000004,-26.3,-0.1,4.800000000000001
1698420077.032,16,-2.9000000000000004,-5.4,-1.0,-3.5,4.0,0.1,-19.700000000000003,-11.1,-12.3
1698420077.045,16,-2.6,-4.2,-1.5,-3.2,5.1000000000000005,-0.30000000000000004,-14.700000000000001,-17.9,-15.9
1698420077.062,16,-1.1,-2.3000000000000003,-1.3,-1.7000000000000002,7.0,-0.1,-2.1999999999999997,-29.600000000000005,-9.600000000000001
1698420077.079,16,-0.30000000000000004,-1.7000000000000002,-1.9000000000000001,-1.0,7.6000000000000005,-0.7000000000000001,5.2,-32.800000000000004,0.0
1698420077.096,16,-0.2,-1.2000000000000002,-2.8000000000000003,-0.8,8.1,-1.8,23.1,-36.800000000000004,3.2
1698420077.113,16,-0.9,-1.2000000000000002,-3.8000000000000003,-1.5,8.1,-2.8000000000000003,34.900000000000006,-47.300000000000004,-1.9
1698420077.129,16,-0.4,-2.2,-4.1000000000000005,-1.0,7.0,-3.3000000000000003,42.800000000000004,-80.7,-20.1
1698420077.146,16,0.9,4.9,-1.3,0.2,14.200000000000001,-0.6000000000000001,28.8,-70.6,-45.0
1698420077.162,16,1.9000000000000001,4.1000000000000005,-0.4,1.0,13.5,0.30000000000000004,17.599999999999998,-14.900000000000002,-40.6
1698420077.179,16,3.7,1.6,-1.1,2.8000000000000003,11.0,-0.5,24.6,-7.2,-12.200000000000001
1698420077.196,16,1.7000000000000002,0.0,-2.5,0.9,9.3,-2.0,42.5,-22.4,16.900000000000002
1698420077.212,16,1.8,5.4,11.9,1.0,14.700000000000001,12.5,-14.900000000000002,-89.6,-4.300000000000001
1698420077.229,16,3.3000000000000003,1.5,12.3,0.7000000000000001,8.6,11.4,-5.9,-6.1000000000000005,-5.8
1698420077.246,16,-3.1,-1.7000000000000002,-2.8000000000000003,-3.9000000000000004,7.7,-2.3000000000000003,58.3,-14.200000000000001,3.4
1698420077.262,16,-4.4,1.1,3.5,-5.1000000000000005,10.5,4.0,-10.9,-26.700000000000003,26.0
1698420077.279,16,-1.6,7.2,2.7,-2.2,16.6,3.3000000000000003,-33.0,-25.8,35.1
1698420077.296,16,3.9000000000000004,16.400000000000002,5.2,3.3000000000000003,25.900000000000002,5.9,-17.8,-31.5,32.2
1698420077.312,16,1.5,4.0,2.5,1.0,13.600000000000001,3.2,10.700000000000001,6.000000000000001,-3.7000000000000006
1698420077.329,16,-2.4000000000000004,3.9000000000000004,1.4000000000000001,-2.9000000000000004,13.5,2.1,4.3999999999999995,14.600000000000001,-11.3
1698420077.346,16,-3.4000000000000004,3.8000000000000003,-0.2,-3.9000000000000004,13.5,0.5,-14.800000000000002,9.5,5.0
1698420077.362,16,-1.8,-0.1,0.6000000000000001,-2.3000000000000003,9.5,1.4000000000000001,-18.6,1.5000000000000002,22.7
1698420077.379,16,-1.1,-1.7000000000000002,0.30000000000000004,-1.6,7.9,1.1,-19.700000000000003,-2.0,27.0
1698420077.396,16,-0.6000000000000001,-3.8000000000000003,0.4,-1.0,5.800000000000001,1.3,-18.0,-7.6,38.0
1698420077.413,16,0.2,-4.6000000000000005,-0.1,0.0,5.0,0.8,-15.8,-10.4,47.800000000000004
1698420077.43,16,0.9,-4.6000000000000005,-0.5,1.4000000000000001,4.7,0.30000000000000004,-8.3,-10.1,57.5
1698420077.446,16,1.4000000000000001,-5.7,-1.0,1.4000000000000001,3.8000000000000003,0.0,-9.9,-12.100000000000001,11.000000000000002
1698420077.463,16,2.0,-7.6000000000000005,-1.3,1.9000000000000001,1.8,-0.30000000000000004,-15.299999999999999,-6.4,-15.9
1698420077.479,16,2.5,-7.6000000000000005,-1.2000000000000002,2.5,1.8,-0.1,-16.900000000000002,-4.1000000000000005,-8.0
1698420077.496,16,2.6,-6.2,-0.5,2.7,3.1,0.6000000000000001,-13.5,1.0999999999999999,26.3
1698420077.513,16,0.4,-4.3,-0.6000000000000001,0.6000000000000001,5.0,0.4,8.799999999999999,9.4,31.3
1698420077.531,16,-1.4000000000000001,-4.2,-2.4000000000000004,-1.2000000000000002,5.1000000000000005,-1.5,32.4,26.6,15.299999999999999
1698420077.546,16,-1.5,-4.3,-3.6,-1.3,5.0,-2.7,40.4,38.1,15.399999999999999
1698420077.562,16,0.30000000000000004,-2.7,-3.0,0.6000000000000001,6.6000000000000005,-2.2,43.0,58.800000000000004,31.8
1698420077.579,16,1.3,-0.1,-2.3000000000000003,1.7000000000000002,9.1,-1.6,37.900000000000006,52.7,37.300000000000004
1698420077.596,16,0.1,3.0,-2.1,0.6000000000000001,12.3,-1.5,19.0,9.1,30.7
1698420077.612,16,-2.3000000000000003,5.5,-3.4000000000000004,-1.8,14.8,-2.9000000000000004,12.5,-9.0,9.8
1698420077.629,16,0.7000000000000001,3.4000000000000004,-2.3000000000000003,1.2000000000000002,12.8,-1.9000000000000001,29.500000000000004,57.1,-25.2
1698420077.646,16,1.9000000000000001,7.9,1.4000000000000001,2.3000000000000003,17.3,1.7000000000000002,21.200000000000003,107.10000000000001,-11.5
1698420077.662,16,-8.6,3.8000000000000003,8.8,-8.200000000000001,13.200000000000001,9.200000000000001,31.5,-50.9,-0.30000000000000004
1698420077.679,16,2.3000000000000003,-1.9000000000000001,0.8,2.8000000000000003,7.5,1.0,52.400000000000006,5.0,40.0
1698420077.696,16,7.300000000000001,-0.4,3.2,7.800000000000001,9.0,3.4000000000000004,19.3,22.1,35.1
1698420077.713,16,5.1000000000000005,6.6000000000000005,1.9000000000000001,5.7,16.1,2.2,-10.600000000000001,47.0,-29.000000000000004
1698420077.728,16,-0.7000000000000001,11.8,3.2,-0.30000000000000004,21.400000000000002,3.5,-6.1000000000000005,37.900000000000006,-43.900000000000006
1698420077.745,16,-1.3,9.1,1.7000000000000002,-0.9,18.7,2.0,1.7,34.900000000000006,-31.099999999999998
1698420077.764,16,1.6,2.5,1.6,1.9000000000000001,12.100000000000001,2.0,-2.4000000000000004,33.1,-1.8
1698420077.779,16,1.7000000000000002,1.2000000000000002,1.0,2.0,10.9,1.4000000000000001,-12.5,30.5,-8.700000000000001
1698420077.795,16,1.1,0.4,0.30000000000000004,1.3,10.0,0.7000000000000001,-14.700000000000001,35.4,-21.1
1698420077.812,16,-0.1,-1.9000000000000001,0.5,0.1,7.800000000000001,1.0,-16.1,42.800000000000004,-41.9
1698420077.829,16,-0.4,-4.3,0.2,-0.4,5.4,0.8,-14.3,52.2,-58.800000000000004
1698420077.845,16,-0.5,-5.4,0.0,-0.6000000000000001,4.2,0.6000000000000001,-13.8,55.6,-66.80000000000001
1698420077.862,16,-0.7000000000000001,-6.9,-0.6000000000000001,-1.2000000000000002,2.7,0.0,-16.3,50.800000000000004,-71.10000000000001
1698420077.879,16,-1.5,-6.9,-0.7000000000000001,-2.1,2.6,-0.1,-19.400000000000002,28.200000000000003,-59.400000000000006
1698420077.896,16,-2.0,-6.6000000000000005,-0.9,-2.7,2.8000000000000003,-0.2,-20.6,15.6,-49.6
1698420077.912,16,-1.8,-5.6000000000000005,-1.1,-2.6,3.8000000000000003,-0.30000000000000004,-22.3,0.4,-8.5
1698420077.928,16,-1.7000000000000002,-4.7,-1.7000000000000002,-2.5,4.7,-1.0,-9.600000000000001,-18.2,4.1000000000000005
1698420077.946,16,-1.7000000000000002,-4.1000000000000005,-2.2,-2.5,5.2,-1.4000000000000001,-6.9,-21.900000000000002,-2.7
1698420077.962,16,-1.2000000000000002,-2.7,-1.9000000000000001,-2.0,6.6000000000000005,-1.0,-4.6000000000000005,-28.400000000000002,-10.2
1698420077.979,16,0.0,-1.7000000000000002,-1.0,-0.8,7.6000000000000005,-0.30000000000000004,14.0,-35.4,5.1
1698420077.996,16,0.0,-1.6,-2.3000000000000003,-0.9,7.7,-1.5,27.5,-39.2,-0.4
1698420078.014,16,0.6000000000000001,-0.7000000000000001,-3.4000000000000004,-0.30000000000000004,8.6,-2.8000000000000003,35.5,-59.80000000000001,-16.3
1698420078.029,16,0.1,2.6,-0.8,-0.9,11.9,-0.30000000000000004,18.900000000000002,-18.8,-39.699999999999996
1698420078.046,16,0.1,3.1,-2.4000000000000004,-1.0,12.4,-1.9000000000000001,9.700000000000001,6.3,-39.50000000000001
1698420078.062,16,1.8,3.4000000000000004,-3.8000000000000003,0.8,12.700000000000001,-3.4000000000000004,7.1000000000000005,11.000000000000002,-19.0
1698420078.079,16,-0.9,6.5,-3.5,-1.9000000000000001,15.8,-3.1,29.500000000000004,-56.2,6.2
1698420078.095,16,0.1,9.9,5.7,-1.0,19.3,6.1000000000000005,-1.8,-92.30000000000001,-7.9
1698420078.115,16,4.800000000000001,-0.4,11.100000000000001,3.7,9.0,11.5,7.500000000000001,46.1,-9.3
1698420078.129,16,-3.3000000000000003,-3.3000000000000003,-1.6,-4.4,6.1000000000000005,-1.3,55.5,-42.1,-27.900000000000002
1698420078.145,16,-7.300000000000001,-2.2,-3.3000000000000003,-8.4,7.2,-3.0,16.8,2.8,-11.5
1698420078.162,16,-2.7,10.200000000000001,1.5,-3.7,19.700000000000003,1.9000000000000001,-33.1,-71.9,34.50000000000001
1698420078.179,16,1.2000000000000002,13.5,5.9,0.2,23.0,6.4,-17.7,-61.50000000000001,24.7
1698420078.196,16,2.0,7.0,4.0,1.0,16.6,4.6000000000000005,-1.4,-49.6,7.9
1698420078.213,16,-0.7000000000000001,1.5,1.8,-1.7000000000000002,11.200000000000001,2.5,-10.2,-43.400000000000006,-1.3
1698420078.229,16,-2.1,1.4000000000000001,0.30000000000000004,-3.0,11.0,1.1,-25.2,-37.6,18.1
1698420078.246,16,-0.5,-0.30000000000000004,0.6000000000000001,-2.1,10.4,1.1,-27.900000000000002,-36.2,27.2
1698420078.262,16,0.0,-1.9000000000000001,0.30000000000000004,-0.7000000000000001,7.800000000000001,1.2000000000000002,-22.1,-35.1,38.6
1698420078.279,16,-0.30000000000000004,-4.6000000000000005,-0.30000000000000004,-0.9,5.0,0.7000000000000001,-15.7,-32.6,47.900000000000006
1698420078.295,16,-0.5,-4.9,-0.4,-1.0,4.7,0.6000000000000001,-14.600000000000001,-33.5,51.800000000000004
1698420078.312,16,0.4,-5.1000000000000005,-0.7000000000000001,0.2,4.5,0.30000000000000004,-13.8,-21.5,59.20000000000001
1698420078.33,16,2.1,-4.9,-0.6000000000000001,2.0,4.6000000000000005,0.5,-14.600000000000001,-17.7,45.9
1698420078.347,16,2.3000000000000003,-4.9,-0.8,2.2,4.3,0.0,-14.200000000000001,-15.8,1.7
1698420078.362,16,1.8,-5.6000000000000005,-1.4000000000000001,1.7000000000000002,3.8000000000000003,-0.30000000000000004,-10.5,-13.0,-11.2
1698420078.379,16,1.2000000000000002,-5.0,-1.4000000000000001,1.2000000000000002,4.4,-0.30000000000000004,6.3,0.9,4.5
1698420078.396,16,0.9,-4.1000000000000005,-1.8,0.9,5.300000000000001,-0.8,19.0,7.400000000000001,22.7
1698420078.413,16,-0.6000000000000001,-3.6,-2.1,-0.5,5.7,-1.1,32.1,20.1,18.6
1698420078.429,16,0.0,-3.1,-2.3000000000000003,0.2,6.300000000000001,-1.6,45.0,47.6,18.900000000000002
1698420078.447,16,0.8,-2.4000000000000004,-2.3000000000000003,1.0,6.9,-1.6,51.7,65.2,24.8
1698420078.463,16,2.8000000000000003,-0.9,-2.5,3.1,8.4,-2.0,60.8,116.5,44.1
1698420078.479,16,3.0,-1.4000000000000001,-3.8000000000000003,3.5,7.9,-3.5,53.6,82.2,51.800000000000004
1698420078.495,16,-1.4000000000000001,2.1,-3.2,-0.8,11.4,-3.1,26.8,6.4,46.0
1698420078.513,16,-4.2,5.300000000000001,-2.3000000000000003,-3.6,14.600000000000001,-2.2,20.1,-4.3999999999999995,17.200000000000003
1698420078.529,16,-2.7,3.6,-2.8000000000000003,-2.1,13.0,-2.8000000000000003,38.1,45.9,-17.400000000000002
1698420078.545,16,0.2,9.700000000000001,6.300000000000001,0.8,19.200000000000003,6.300000000000001,-13.5,55.800000000000004,27.3
1698420078.562,16,-7.6000000000000005,6.0,10.3,-7.0,15.5,10.4,-5.4,-45.1,6.1000000000000005
1698420078.579,16,-0.6000000000000001,-1.9000000000000001,3.2,0.0,7.5,3.1,50.5,-33.900000000000006,25.6
1698420078.596,16,7.6000000000000005,1.9000000000000001,4.4,6.4,9.1,-2.8000000000000003,28.900000000000002,-38.400000000000006,33.5
1698420078.612,16,6.1000000000000005,6.800000000000001,3.5,6.800000000000001,16.3,3.5,-25.0,18.5,-24.5
1698420078.629,16,0.0,13.3,5.5,0.5,22.900000000000002,5.6000000000000005,-16.400000000000002,3.7000000000000006,-59.20000000000001
1698420078.646,16,-0.1,5.300000000000001,1.5,0.30000000000000004,15.0,1.6,-0.5,8.600000000000001,-27.900000000000002
1698420078.662,16,2.0,2.8000000000000003,1.2000000000000002,3.4000000000000004,11.600000000000001,1.4000000000000001,-8.799999999999999,20.4,-13.100000000000001
1698420078.679,16,2.7,1.6,0.5,3.1,11.3,0.8,-22.000000000000004,23.5,-9.5
1698420078.696,16,0.5,0.2,0.1,0.8,9.9,0.4,-26.500000000000004,26.0,-28.700000000000003
1698420078.712,16,-0.30000000000000004,-0.6000000000000001,-0.1,-0.1,9.1,0.30000000000000004,-25.700000000000003,24.200000000000003,-36.0
1698420078.729,16,-0.8,-3.3000000000000003,-0.30000000000000004,-0.8,6.4,0.2,-27.2,35.6,-48.400000000000006
1698420078.745,16,-0.9,-5.300000000000001,-0.2,-1.0,4.3,0.4,-29.000000000000004,40.7,-61.599999999999994
1698420078.768,16,-1.1,-6.1000000000000005,-0.6000000000000001,-1.4000000000000001,3.5,0.0,-32.300000000000004,31.8,-56.1
1698420078.778,16,-1.0,-5.800000000000001,-1.0,-1.4000000000000001,3.7,-0.30000000000000004,-31.0,20.8,-48.300000000000004
1698420078.795,16,-0.9,-5.7,-0.7000000000000001,-1.4000000000000001,3.8000000000000003,0.1,-28.900000000000002,3.0000000000000004,-21.6
1698420078.812,16,-1.2000000000000002,-5.0,-0.7000000000000001,-1.7000000000000002,4.4,0.2,-21.0,-5.300000000000001,3.3000000000000003
1698420078.829,16,-1.9000000000000001,-4.5,-0.8,-2.5,4.9,0.1,-13.0,-10.600000000000001,3.4
1698420078.845,16,-2.9000000000000004,-3.4000000000000004,-2.1,-3.5,5.9,-1.2000000000000002,-4.800000000000001,-22.900000000000002,-8.200000000000001
1698420078.862,16,-1.6,-2.4000000000000004,-1.4000000000000001,-2.2,6.9,-0.5,2.4000000000000004,-25.2,5.500000000000001
1698420078.879,16,-1.1,-1.6,-1.9000000000000001,-1.6,7.7,-1.0,11.4,-28.8,9.700000000000001
1698420078.895,16,-0.8,-1.3,-2.5,-1.3,8.1,-1.6,21.200000000000003,-37.300000000000004,11.4
1698420078.912,16,-1.2000000000000002,-2.0,-4.1000000000000005,-1.7000000000000002,7.300000000000001,-3.5,52.300000000000004,-74.0,-2.7
1698420078.929,16,-1.1,-1.9000000000000001,-4.2,-1.6,7.4,-3.7,56.0,-85.2,-10.3
1698420078.945,16,0.1,0.4,-0.8,-0.5,9.8,-0.5,42.2,-68.4,-23.2
1698420078.962,16,1.2000000000000002,1.0,0.0,0.6000000000000001,10.3,0.30000000000000004,23.700000000000003,-13.6,-22.900000000000002
1698420078.979,16,3.3000000000000003,0.0,-2.0,2.7,9.4,-1.8,27.0,1.5000000000000002,-1.6
1698420078.995,16,2.3000000000000003,4.2,-2.0,1.8,13.600000000000001,-2.0,41.800000000000004,-32.7,9.700000000000001
1698420079.012,16,6.1000000000000005,6.7,8.8,5.5,16.1,8.9,-16.1,-78.5,-14.100000000000001
1698420079.029,16,5.6000000000000005,1.0,6.5,5.0,10.4,6.7,-7.0,-1.3,-18.1
1698420079.046,16,-1.2000000000000002,-3.6,9.4,-1.9000000000000001,5.800000000000001,9.600000000000001,53.1,-58.400000000000006,-38.5
1698420079.062,16,-7.7,0.1,-3.4000000000000004,-8.5,9.5,-3.3000000000000003,21.900000000000002,-4.800000000000001,-25.8
1698420079.079,16,-7.2,3.7,-0.6000000000000001,-8.1,13.100000000000001,-0.5,-16.0,-38.400000000000006,-16.0
1698420079.096,16,-1.5,15.4,4.5,-2.4000000000000004,24.8,4.7,-29.400000000000002,-69.2,-4.7
1698420079.112,16,4.2,6.1000000000000005,4.1000000000000005,3.3000000000000003,15.700000000000001,4.4,6.3,-55.300000000000004,4.0
1698420079.129,16,4.7,2.7,3.1,3.8000000000000003,12.3,3.4000000000000004,8.3,-53.2,2.1
1698420079.145,16,0.9,4.1000000000000005,1.5,0.0,13.700000000000001,1.8,-8.0,-49.7,0.2
1698420079.162,16,0.1,2.6,1.4000000000000001,-0.8,12.200000000000001,1.8,-12.9,-43.0,18.2
1698420079.179,16,0.0,1.2000000000000002,1.1,-0.8,10.8,1.6,-14.900000000000002,-42.1,23.400000000000002
1698420079.196,16,0.6000000000000001,-0.6000000000000001,1.4000000000000001,-0.1,9.1,1.9000000000000001,-18.6,-35.199999999999996,32.5
1698420079.213,16,1.0,-0.6000000000000001,1.0,0.4,9.1,1.5,-18.7,-31.2,34.7
1698420079.231,16,1.4000000000000001,-0.8,0.30000000000000004,1.0,8.8,0.9,-20.0,-27.6,33.900000000000006
1698420079.246,16,1.4000000000000001,-1.9000000000000001,-0.1,1.0,7.800000000000001,0.6000000000000001,-13.5,-17.200000000000003,40.9
1698420079.262,16,1.3,-2.4000000000000004,-0.30000000000000004,1.1,7.2,0.4,-10.8,-15.000000000000002,42.2
1698420079.279,16,1.1,-3.7,-0.5,0.9,5.9,0.2,-5.8,-2.0,37.5
1698420079.296,16,0.7000000000000001,-4.3,-0.8,0.7000000000000001,5.300000000000001,-0.1,0.8,9.4,32.300000000000004
1698420079.313,16,0.5,-4.6000000000000005,-1.1,0.6000000000000001,4.9,-0.4,7.699999999999999,16.700000000000003,29.200000000000003
1698420079.33,16,0.2,-4.800000000000001,-1.3,0.4,4.7,-0.6000000000000001,10.9,18.3,26.3
1698420079.346,16,0.1,-4.800000000000001,-1.2000000000000002,0.30000000000000004,4.7,-0.6000000000000001,17.400000000000002,27.900000000000002,22.6
1698420079.362,16,-0.2,-4.800000000000001,-1.0,0.1,4.7,-0.4,22.5,31.8,19.200000000000003
1698420079.379,16,0.5,-5.7,-0.9,0.8,3.7,-0.5,35.3,49.7,14.700000000000001
1698420079.396,16,1.3,-5.6000000000000005,-1.2000000000000002,1.7000000000000002,3.8000000000000003,-0.9,45.7,63.50000000000001,14.4
1698420079.412,16,1.9000000000000001,-5.1000000000000005,-1.5,2.2,4.2,-1.3,46.0,71.6,16.6
1698420079.429,16,2.0,-3.1,-1.5,2.4000000000000004,6.2,-1.4000000000000001,42.5,75.4,17.599999999999998
1698420079.445,16,-0.1,-0.9,-0.9,0.5,8.4,-0.9,34.300000000000004,56.2,18.6
1698420079.462,16,-2.7,2.0,-1.3,-2.1,11.3,-1.4000000000000001,24.1,12.6,8.799999999999999
1698420079.479,16,-4.1000000000000005,2.4000000000000004,-1.8,-3.6,11.700000000000001,-2.0,28.900000000000002,8.0,-18.5
1698420079.496,16,-1.7000000000000002,4.9,-0.8,-1.3,14.3,-1.1,21.700000000000003,72.4,-24.400000000000002
1698420079.513,16,-5.5,3.7,2.3000000000000003,-1.5,15.4,1.7000000000000002,19.200000000000003,82.0,-13.200000000000001
1698420079.529,16,-5.5,1.0,1.4000000000000001,-5.2,10.4,1.0,41.300000000000004,-22.3,12.000000000000002
1698420079.546,16,6.6000000000000005,0.9,3.5,7.1000000000000005,10.200000000000001,3.0,41.7,-6.2,52.300000000000004
1698420079.562,16,7.1000000000000005,7.6000000000000005,1.6,7.800000000000001,17.0,1.1,4.6000000000000005,44.4,26.3
1698420079.579,16,1.9000000000000001,10.200000000000001,4.2,2.6,19.6,3.7,-5.300000000000001,52.800000000000004,9.0
1698420079.596,16,-1.7000000000000002,5.5,2.3000000000000003,-1.0,15.0,1.8,23.0,65.2,-3.0000000000000004
1698420079.613,16,0.7000000000000001,3.2,2.4000000000000004,1.4000000000000001,12.8,1.9000000000000001,7.6,53.400000000000006,7.8
1698420079.629,16,1.7000000000000002,3.4000000000000004,2.0,2.5,12.9,1.5,3.3000000000000003,49.8,7.400000000000001
1698420079.646,16,0.7000000000000001,2.8000000000000003,1.6,1.5,12.4,1.1,0.30000000000000004,30.799999999999997,-6.2
1698420079.662,16,-0.1,1.0,1.4000000000000001,0.6000000000000001,10.600000000000001,1.0,-0.8,29.200000000000003,-18.3
1698420079.679,16,-0.30000000000000004,0.4,1.4000000000000001,0.30000000000000004,10.0,0.9,-1.7,27.6,-24.3
1698420079.696,16,-0.7000000000000001,-0.6000000000000001,1.1,-0.1,9.0,0.6000000000000001,-2.6,22.5,-34.300000000000004
1698420079.717,16,-1.3,-1.5,0.9,-0.9,8.1,0.5,-4.9,23.0,-42.300000000000004
1698420079.729,16,-1.4000000000000001,-1.9000000000000001,0.7000000000000001,-1.1,7.7,0.30000000000000004,-5.8,24.6,-43.300000000000004
1698420079.746,16,-1.4000000000000001,-2.8000000000000003,0.6000000000000001,-1.3,6.800000000000001,0.2,-8.600000000000001,21.6,-42.0
1698420079.762,16,-1.4000000000000001,-3.0,0.4,-1.3,6.5,0.1,-10.9,11.9,-37.7
1698420079.778,16,-1.3,-2.9000000000000004,0.30000000000000004,-1.4000000000000001,6.6000000000000005,0.0,-10.0,0.30000000000000004,-31.099999999999998
1698420079.795,16,-1.1,-3.0,0.2,-1.2000000000000002,6.5,-0.1,-8.4,-5.1,-26.700000000000003
1698420079.812,16,-0.9,-2.7,-0.4,-1.1,6.800000000000001,-0.6000000000000001,-6.5,-14.100000000000001,-17.599999999999998
1698420079.828,16,-0.7000000000000001,-2.3000000000000003,-0.5,-1.0,7.2,-0.7000000000000001,-9.3,-19.1,-9.3
1698420079.845,16,-0.7000000000000001,-2.1,-0.30000000000000004,-0.9,7.4,-0.6000000000000001,-11.1,-20.4,-4.3999999999999995
1698420079.862,16,-0.7000000000000001,-1.7000000000000002,0.0,-1.0,7.7,-0.2,-12.200000000000001,-21.6,3.4
1698420079.879,16,-0.9,-1.7000000000000002,-0.2,-1.2000000000000002,7.7,-0.4,-5.0,-23.900000000000002,8.9
1698420079.895,16,-0.9,-1.7000000000000002,-0.6000000000000001,-1.1,7.7,-0.8,0.5,-28.0,10.0
1698420079.912,16,-0.7000000000000001,-1.9000000000000001,-1.3,-0.9,7.5,-1.5,7.500000000000001,-35.8,10.1
1698420079.929,16,-0.4,-1.2000000000000002,-2.0,-0.6000000000000001,8.200000000000001,-2.3000000000000003,11.1,-35.7,9.8
1698420079.945,16,-0.2,-0.5,-1.8,-0.30000000000000004,8.9,-2.1,8.5,-35.9,9.8
1698420079.962,16,0.5,1.3,-0.6000000000000001,0.4,10.700000000000001,-0.9,3.3000000000000003,-25.8,8.700000000000001
1698420079.979,16,1.0,2.3000000000000003,-1.0,0.9,11.700000000000001,-1.3,4.0,-10.0,9.700000000000001
1698420079.996,16,1.5,3.0,-1.2000000000000002,1.4000000000000001,12.4,-1.5,2.5,-8.3,13.6
1698420080.012,16,2.8000000000000003,3.4000000000000004,0.2,2.8000000000000003,12.9,-0.1,3.6,-11.9,17.9
1698420080.028,16,1.0,2.8000000000000003,0.8,1.1,12.200000000000001,0.5,14.900000000000002,-18.5,8.700000000000001
1698420080.045,16,-0.7000000000000001,3.2,1.2000000000000002,-0.7000000000000001,12.8,0.8,14.4,-21.6,-1.7
1698420080.062,16,-1.0,4.0,1.3,-1.0,13.5,0.9,-0.8,-29.400000000000002,-20.6
1698420080.079,16,-0.1,1.1,2.6,-0.1,10.600000000000001,2.3000000000000003,-4.5,-33.400000000000006,-19.8
1698420080.095,16,-0.7000000000000001,-0.1,2.7,-0.8,9.4,2.4000000000000004,3.1,-62.199999999999996,-8.0
1698420080.123,16,-1.5,0.30000000000000004,0.9,-1.7000000000000002,9.9,0.6000000000000001,-12.700000000000001,-63.300000000000004,-11.2
1698420080.128,16,-0.5,0.9,1.5,-0.7000000000000001,10.5,1.2000000000000002,-19.200000000000003,-59.400000000000006,-9.600000000000001
1698420080.145,16,1.1,1.5,1.9000000000000001,0.9,11.0,1.7000000000000002,-21.400000000000002,-55.300000000000004,-4.3999999999999995
1698420080.162,16,2.9000000000000004,0.8,2.2,2.7,10.3,2.1,-16.0,-47.300000000000004,8.700000000000001
1698420080.179,16,1.6,-0.7000000000000001,1.5,1.5,8.9,1.4000000000000001,-8.600000000000001,-34.900000000000006,20.900000000000002
1698420080.195,16,0.9,-0.7000000000000001,1.5,0.9,8.9,1.5,-9.3,-29.500000000000004,25.900000000000002
1698420080.212,16,0.6000000000000001,-0.7000000000000001,0.6000000000000001,0.7000000000000001,8.9,0.6000000000000001,-9.9,-25.1,31.099999999999998
1698420080.229,16,0.6000000000000001,-1.1,0.7000000000000001,0.8,8.5,0.8,-18.0,-26.8,29.400000000000002
1698420080.245,16,0.7000000000000001,-1.2000000000000002,1.0,0.9,8.4,1.1,-20.6,-27.3,27.0
1698420080.262,16,0.8,-1.3,1.0,1.1,8.3,1.2000000000000002,-24.1,-24.9,20.2
1698420080.279,16,0.7000000000000001,-1.4000000000000001,1.0,1.1,8.1,1.2000000000000002,-23.2,-25.5,12.8
1698420080.296,16,0.6000000000000001,-1.6,0.9,1.0,7.9,1.2000000000000002,-21.8,-25.400000000000002,9.0
1698420080.313,16,0.6000000000000001,-1.5,0.7000000000000001,1.0,8.0,1.0,-18.1,-22.4,4.5
1698420080.329,16,0.7000000000000001,-1.4000000000000001,0.6000000000000001,1.2000000000000002,8.1,1.0,-15.399999999999999,-21.1,3.3000000000000003
1698420080.346,16,1.0,-1.3,0.6000000000000001,1.5,8.200000000000001,1.0,-6.4,-19.3,0.5
1698420080.362,16,1.5,-1.3,-0.5,1.9000000000000001,8.1,-0.1,4.800000000000001,-13.9,-0.5
1698420080.379,16,2.1,-0.8,-0.7000000000000001,2.6,8.700000000000001,-0.30000000000000004,3.5,-2.7,-1.6
1698420080.396,16,2.1,-0.5,0.1,2.5,9.0,0.5,2.6,2.8,-2.1999999999999997
1698420080.412,16,1.4000000000000001,-0.8,0.30000000000000004,1.9000000000000001,8.700000000000001,0.7000000000000001,10.2,3.8,-5.1
1698420080.429,16,0.1,-1.7000000000000002,-0.4,0.5,7.7,-0.1,13.5,16.3,-15.8
1698420080.446,16,-0.5,-1.8,-0.30000000000000004,-0.1,7.7,0.0,11.700000000000001,27.6,-20.6
1698420080.462,16,-1.3,0.7000000000000001,0.4,-0.9,10.200000000000001,0.7000000000000001,7.0,49.3,-18.5
1698420080.479,16,-0.6000000000000001,3.1,1.2000000000000002,-0.30000000000000004,12.5,1.5,2.5,48.1,-12.3
1698420080.496,16,-0.6000000000000001,2.9000000000000004,1.6,-0.30000000000000004,12.8,2.2,2.5,49.5,-11.6
1698420080.513,16,-0.7000000000000001,2.1,1.5,-0.5,11.700000000000001,1.8,5.9,45.4,-11.5
1698420080.53,16,0.1,1.0,1.2000000000000002,-0.2,11.100000000000001,1.8,7.8,38.900000000000006,-10.1
1698420080.545,16,0.6000000000000001,0.2,0.8,0.7000000000000001,9.700000000000001,1.1,8.9,33.0,-10.4
1698420080.563,16,0.7000000000000001,0.0,0.9,0.8,9.5,1.1,8.5,33.300000000000004,-9.600000000000001
1698420080.579,16,0.5,0.1,0.5,0.6000000000000001,9.600000000000001,0.7000000000000001,5.6,33.400000000000006,-8.4
1698420080.595,16,-0.8,-0.1,0.6000000000000001,-0.8,9.4,0.9,2.9,31.7,-11.000000000000002
1698420080.612,16,-1.3,-0.1,0.4,-1.3,9.4,0.6000000000000001,2.6,30.9,-12.8
1698420080.628,16,-1.5,-0.1,0.2,-1.6,9.4,0.5,2.0,29.500000000000004,-16.400000000000002
1698420080.645,16,-1.0,-0.4,0.2,-1.1,9.1,0.4,2.4000000000000004,24.6,-16.0
1698420080.662,16,-0.8,-0.4,0.30000000000000004,-1.0,9.1,0.5,2.4000000000000004,21.8,-14.600000000000001
1698420080.679,16,-0.6000000000000001,-0.5,0.5,-0.8,9.0,0.7000000000000001,3.5,18.5,-10.2
1698420080.695,16,-0.6000000000000001,-0.6000000000000001,0.4,-0.8,8.9,0.6000000000000001,3.6,18.400000000000002,-5.6
1698420080.712,16,-0.8,-0.5,0.5,-1.0,9.0,0.7000000000000001,3.3000000000000003,18.900000000000002,-3.7000000000000006
1698420080.729,16,-1.0,-0.5,0.6000000000000001,-1.2000000000000002,9.0,0.8,3.5,19.3,-0.2
1698420080.746,16,-0.9,-0.5,0.5,-1.2000000000000002,9.0,0.6000000000000001,5.300000000000001,19.3,1.6
1698420080.763,16,-0.9,-0.5,0.4,-1.1,9.0,0.5,6.7,18.2,2.1
1698420080.779,16,-0.9,-0.6000000000000001,0.2,-1.1,8.9,0.4,8.600000000000001,14.900000000000002,2.6
1698420080.795,16,-0.7000000000000001,-0.30000000000000004,0.0,-1.1,9.0,0.4,9.3,14.600000000000001,2.8
1698420080.812,16,-0.5,0.0,0.2,-0.8,9.5,0.2,8.4,12.9,3.9
1698420080.829,16,-0.5,0.30000000000000004,-0.2,-0.7000000000000001,9.8,-0.2,9.4,12.000000000000002,5.0
1698420080.846,16,-0.7000000000000001,0.30000000000000004,0.1,-1.0,9.700000000000001,0.1,9.0,13.0,5.2
1698420080.862,16,-0.4,-0.30000000000000004,-0.4,-0.6000000000000001,9.200000000000001,-0.5,12.700000000000001,12.4,11.6
1698420080.878,16,0.30000000000000004,-0.4,-0.5,0.2,9.1,-0.6000000000000001,15.399999999999999,6.9,15.7
1698420080.897,16,-0.1,-0.1,-0.5,-0.2,9.4,-0.6000000000000001,13.5,2.1,12.100000000000001
1698420080.912,16,-0.2,0.1,-0.30000000000000004,-0.30000000000000004,9.600000000000001,-0.4,12.6,1.8,10.4
1698420080.929,16,-0.1,0.30000000000000004,-0.1,-0.1,9.8,-0.30000000000000004,10.9,0.0,7.300000000000001
1698420080.945,16,-0.1,0.30000000000000004,0.0,-0.1,9.8,-0.2,8.600000000000001,-1.7,5.4
1698420080.962,16,-0.1,0.30000000000000004,0.0,-0.2,9.8,-0.2,7.699999999999999,-1.9,5.1
1698420080.979,16,-0.1,0.30000000000000004,0.0,-0.1,9.8,-0.2,6.000000000000001,-1.7,3.9
1698420080.995,16,0.0,0.2,-0.1,-0.1,9.700000000000001,-0.30000000000000004,5.4,-1.7,3.4
1698420081.012,16,0.0,0.2,-0.1,-0.1,9.700000000000001,-0.30000000000000004,3.8,-2.8,3.0000000000000004
1698420081.029,16,-0.1,0.2,0.1,-0.1,9.700000000000001,-0.2,2.6,-3.5,3.6
1698420081.045,16,-0.1,0.0,0.0,-0.1,9.5,-0.2,1.7,-2.7,5.1
1698420081.062,16,0.0,0.0,0.0,0.0,9.5,-0.30000000000000004,1.0999999999999999,-2.3000000000000003,5.8
1698420081.079,16,0.1,0.0,-0.1,0.2,9.5,-0.4,-0.6000000000000001,-1.0,6.2
1698420081.095,16,0.2,0.1,-0.1,0.2,9.600000000000001,-0.4,-1.7,0.2,5.6
1698420081.112,16,0.1,0.1,-0.1,0.2,9.700000000000001,-0.4,-1.2000000000000002,0.5,5.6
1698420081.129,16,0.1,0.2,-0.1,0.2,9.700000000000001,-0.4,-0.5,0.0,5.9
1698420081.145,16,0.1,0.2,-0.2,0.2,9.700000000000001,-0.5,1.0,-1.0,6.6000000000000005
1698420081.162,16,0.1,0.1,-0.30000000000000004,0.2,9.700000000000001,-0.5,1.3,-1.2000000000000002,6.6000000000000005
1698420081.18,16,0.1,0.0,-0.2,0.2,9.600000000000001,-0.5,1.0999999999999999,-1.6,5.9
1698420081.197,16,0.0,0.0,-0.2,0.2,9.5,-0.5,0.30000000000000004,-1.8,4.1000000000000005
1698420081.212,16,0.0,0.0,-0.2,0.2,9.5,-0.5,0.1,-2.4000000000000004,3.5
1698420081.23,16,0.0,0.0,-0.2,0.2,9.5,-0.6000000000000001,-0.5,-3.6,3.4
1698420081.246,16,0.0,-0.1,-0.30000000000000004,0.2,9.4,-0.7000000000000001,-1.7,-4.0,4.2
1698420081.262,16,0.1,-0.1,-0.2,0.4,9.4,-0.6000000000000001,-2.9,-3.4,4.5
1698420081.278,16,0.1,-0.1,-0.2,0.30000000000000004,9.4,-0.6000000000000001,-3.3000000000000003,-3.9,4.2
1698420081.295,16,0.1,-0.1,-0.2,0.30000000000000004,9.4,-0.6000000000000001,-3.5,-3.6,3.5
1698420081.312,16,0.0,-0.1,-0.30000000000000004,0.30000000000000004,9.4,-0.6000000000000001,-3.7000000000000006,-4.1000000000000005,3.1
1698420081.329,16,0.0,-0.1,-0.30000000000000004,0.30000000000000004,9.4,-0.7000000000000001,-3.9,-4.2,3.1
1698420081.345,16,0.1,-0.1,-0.30000000000000004,0.4,9.4,-0.6000000000000001,-4.2,-4.1000000000000005,2.9
1698420081.363,16,0.1,0.0,-0.2,0.4,9.5,-0.6000000000000001,-3.7000000000000006,-4.3999999999999995,2.7
1698420081.379,16,0.1,0.0,-0.2,0.4,9.5,-0.6000000000000001,-3.4,-4.300000000000001,2.3000000000000003
1698420081.395,16,0.1,0.0,-0.30000000000000004,0.4,9.4,-0.7000000000000001,-2.8,-4.2,1.7
1698420081.412,16,0.1,0.0,-0.2,0.4,9.4,-0.6000000000000001,-2.4000000000000004,-4.1000000000000005,1.6
1698420081.428,16,0.1,-0.1,-0.30000000000000004,0.4,9.4,-0.7000000000000001,-2.5,-3.6,1.7
1698420081.445,16,0.1,0.0,-0.30000000000000004,0.4,9.4,-0.7000000000000001,-2.7,-3.5,2.0
1698420081.462,16,0.1,-0.1,-0.2,0.4,9.4,-0.6000000000000001,-2.0,-3.0000000000000004,1.8
1698420081.48,16,0.1,-0.1,-0.1,0.4,9.4,-0.5,-1.6,-2.7,1.5000000000000002
1698420081.496,16,0.1,-0.1,-0.1,0.4,9.4,-0.6000000000000001,-0.6000000000000001,-2.0,1.4
1698420081.512,16,0.1,0.0,-0.2,0.4,9.4,-0.6000000000000001,-0.6000000000000001,-1.9,1.4
1698420081.529,16,0.0,0.0,-0.2,0.4,9.4,-0.6000000000000001,-0.6000000000000001,-0.9,1.0
1698420081.545,16,0.0,0.0,-0.1,0.4,9.4,-0.5,-0.2,-0.8,1.2000000000000002
1698420081.562,16,0.0,-0.1,-0.2,0.4,9.4,-0.7000000000000001,0.4,-0.1,0.8
1698420081.579,16,0.0,-0.1,-0.30000000000000004,0.4,9.3,-0.7000000000000001,-0.1,-0.8,1.2000000000000002
1698420081.595,16,0.1,0.0,-0.1,0.4,9.4,-0.5,-0.6000000000000001,-0.4,1.5000000000000002
1698420081.612,16,0.1,0.0,-0.1,0.4,9.4,-0.6000000000000001,-0.5,-0.4,1.5000000000000002
1698420081.629,16,0.1,0.0,-0.1,0.5,9.4,-0.5,-0.5,-0.5,1.0999999999999999
1698420081.646,16,0.0,0.1,-0.1,0.4,9.5,-0.6000000000000001,-0.6000000000000001,-0.6000000000000001,0.7
1698420081.662,16,0.0,0.1,-0.2,0.4,9.5,-0.6000000000000001,-1.0,-0.8,0.4
1698420081.679,16,0.0,0.1,-0.2,0.4,9.5,-0.6000000000000001,-1.0999999999999999,-0.8,0.4
1698420081.695,16,0.0,0.0,-0.1,0.4,9.4,-0.6000000000000001,-1.4,-0.6000000000000001,0.4
1698420081.712,16,0.0,-0.1,-0.1,0.4,9.4,-0.5,-1.7,-0.4,0.7
1698420081.73,16,0.0,-0.1,0.0,0.4,9.4,-0.5,-1.7,-0.4,0.7
1698420081.746,16,0.0,0.0,0.0,0.4,9.4,-0.5,-1.9,0.1,0.9
1698420081.762,16,0.1,0.0,-0.2,0.5,9.4,-0.7000000000000001,-2.7,0.30000000000000004,0.8
1698420081.78,16,0.0,0.0,-0.2,0.5,9.4,-0.7000000000000001,-3.3000000000000003,0.2,0.8
1698420081.795,16,0.0,0.0,-0.1,0.4,9.5,-0.6000000000000001,-3.4,-0.1,0.8
1698420081.812,16,0.0,0.0,-0.1,0.4,9.4,-0.5,-2.7,-0.1,0.7
1698420081.829,16,0.0,0.0,0.0,0.4,9.4,-0.5,-2.5,-0.6000000000000001,0.7
1698420081.846,16,0.0,0.0,-0.1,0.4,9.4,-0.5,-2.0,-0.9,0.4
1698420081.862,16,0.0,0.0,-0.1,0.4,9.4,-0.5,-2.1,-0.8,0.30000000000000004
1698420081.879,16,0.0,0.0,-0.1,0.4,9.4,-0.5,-1.9,-0.9,0.2
1698420081.896,16,0.0,0.0,-0.1,0.4,9.4,-0.5,-1.4,-0.8,0.2
1698420081.912,16,0.0,0.0,-0.1,0.4,9.4,-0.5,-1.0,-0.9,0.4
1698420081.929,16,0.0,0.0,-0.1,0.4,9.5,-0.6000000000000001,-0.7,-0.8,0.2
1698420081.945,16,0.0,0.0,-0.1,0.4,9.5,-0.5,-0.6000000000000001,-0.6000000000000001,0.1
1698420081.962,16,0.0,0.0,-0.1,0.4,9.5,-0.6000000000000001,-0.1,-0.5,0.1
1698420081.978,16,0.0,0.0,-0.1,0.4,9.4,-0.5,0.0,-0.1,0.0
1698420081.996,16,0.0,0.0,-0.1,0.4,9.4,-0.6000000000000001,0.2,0.1,0.0
1698420082.012,16,0.0,0.0,-0.2,0.4,9.4,-0.6000000000000001,0.0,0.6000000000000001,0.1
1698420082.028,16,0.0,-0.1,-0.1,0.4,9.4,-0.6000000000000001,0.1,0.6000000000000001,0.1
1698420082.045,16,0.0,0.0,0.0,0.4,9.4,-0.4,0.30000000000000004,1.0999999999999999,0.1
1698420082.062,16,0.0,-0.1,-0.30000000000000004,0.4,9.3,-0.8,1.2000000000000002,1.3,-0.30000000000000004
1698420082.078,16,-0.1,0.0,-0.1,0.30000000000000004,9.5,-0.6000000000000001,0.30000000000000004,0.7,-0.1
1698420082.095,16,-0.1,0.0,-0.1,0.30000000000000004,9.4,-0.6000000000000001,0.5,0.4,0.2
1698420082.112,16,0.0,0.0,-0.1,0.4,9.5,-0.6000000000000001,0.6000000000000001,0.4,0.5
1698420082.129,16,0.0,0.0,0.0,0.4,9.5,-0.6000000000000001,0.6000000000000001,0.5,0.4
1698420082.146,16,0.0,-0.1,0.0,0.4,9.4,-0.6000000000000001,0.30000000000000004,1.0,0.0
1698420082.162,16,0.0,0.0,0.0,0.4,9.4,-0.5,0.0,0.9,-0.2
1698420082.18,16,0.0,0.0,0.1,0.4,9.4,-0.5,-0.1,1.0,-0.2
1698420082.196,16,0.0,0.1,0.0,0.4,9.5,-0.5,-0.2,1.2000000000000002,-0.1
1698420082.212,16,-0.1,0.1,-0.1,0.30000000000000004,9.5,-0.6000000000000001,-0.5,0.9,0.1
1698420082.229,16,-0.1,0.0,0.0,0.30000000000000004,9.5,-0.5,-0.5,0.6000000000000001,0.2
1698420082.245,16,-0.1,0.0,0.0,0.4,9.5,-0.5,0.1,0.1,0.6000000000000001
1698420082.262,16,0.0,0.0,0.0,0.4,9.4,-0.5,0.30000000000000004,-0.2,0.5
1698420082.279,16,-0.1,0.0,0.0,0.4,9.4,-0.5,0.30000000000000004,-0.4,0.4
1698420082.295,16,-0.1,0.0,0.0,0.30000000000000004,9.5,-0.5,0.5,-0.7,0.6000000000000001
1698420082.312,16,0.0,0.0,0.0,0.4,9.4,-0.5,0.1,-1.0999999999999999,0.30000000000000004
1698420082.329,16,0.0,0.0,0.1,0.4,9.4,-0.4,0.2,-1.0999999999999999,0.2
1698420082.345,16,0.0,0.0,0.1,0.4,9.5,-0.5,0.2,-1.0999999999999999,0.1
1698420082.362,16,0.0,0.0,0.0,0.4,9.5,-0.5,0.5,-1.0,0.2
1698420082.379,16,0.0,0.0,0.0,0.4,9.4,-0.5,0.6000000000000001,-0.8,0.4
1698420082.395,16,0.0,0.0,0.0,0.4,9.5,-0.5,0.5,-0.7,0.7
1698420082.412,16,0.0,0.0,0.0,0.4,9.4,-0.5,0.7,-0.5,0.9
1698420082.429,16,0.0,0.0,0.0,0.4,9.4,-0.5,0.7,-0.1,0.8
1698420082.445,16,0.0,0.0,0.0,0.5,9.4,-0.5,0.7,0.0,0.7
1698420082.462,16,0.0,0.0,0.0,0.4,9.4,-0.5,0.5,0.0,0.7
1698420082.479,16,0.0,0.0,0.0,0.4,9.5,-0.5,0.30000000000000004,0.2,0.6000000000000001
1698420082.495,16,0.0,0.0,0.0,0.4,9.5,-0.5,0.2,0.0,0.6000000000000001
1698420082.512,16,0.0,0.0,0.0,0.4,9.5,-0.5,0.1,0.0,0.30000000000000004
1698420082.529,16,0.0,0.0,0.0,0.4,9.5,-0.5,0.4,-0.1,0.1
1698420082.545,16,0.0,0.0,0.0,0.4,9.5,-0.5,0.4,-0.1,0.1
1698420082.562,16,0.0,0.0,0.0,0.4,9.4,-0.5,0.5,-0.2,-0.1
1698420082.579,16,0.0,0.0,0.0,0.4,9.4,-0.6000000000000001,0.4,0.0,-0.1
1698420082.596,16,0.0,0.0,0.0,0.4,9.4,-0.6000000000000001,0.2,0.1,-0.1
1698420082.612,16,0.0,0.0,0.0,0.5,9.4,-0.6000000000000001,0.0,0.2,-0.2
1698420082.629,16,0.0,0.0,0.0,0.4,9.4,-0.5,-0.1,0.2,-0.30000000000000004
1698420082.645,16,0.0,0.0,0.0,0.4,9.5,-0.5,-0.1,0.4,-0.2
1698420082.662,16,0.0,0.0,0.0,0.4,9.5,-0.5,-0.1,0.5,-0.2
1698420082.679,16,0.0,0.0,0.0,0.4,9.4,-0.5,-0.1,0.7,-0.30000000000000004
1698420082.695,16,0.0,0.0,0.0,0.4,9.4,-0.5,-0.30000000000000004,0.8,-0.4
1698420082.712,16,0.0,0.0,0.0,0.4,9.4,-0.5,-0.6000000000000001,1.0,-0.30000000000000004
1698420082.729,16,0.0,0.0,0.0,0.4,9.4,-0.5,-0.5,1.0999999999999999,-0.1
1698420082.745,16,0.0,0.0,0.0,0.4,9.5,-0.6000000000000001,-0.6000000000000001,1.2000000000000002,-0.30000000000000004
1698420082.762,16,0.0,0.0,0.0,0.4,9.5,-0.5,-0.7,1.0999999999999999,-0.5
1698420082.779,16,-0.1,0.0,0.0,0.4,9.4,-0.5,-0.8,0.8,-0.7
1698420082.795,16,-0.1,0.0,0.0,0.30000000000000004,9.5,-0.5,-0.7,0.5,-0.5
1698420082.812,16,0.0,0.0,0.0,0.4,9.5,-0.5,-0.7,0.6000000000000001,-0.7
1698420082.829,16,0.0,0.0,-0.1,0.4,9.5,-0.6000000000000001,-0.6000000000000001,0.6000000000000001,-0.9
1698420082.845,16,0.0,0.0,-0.1,0.4,9.5,-0.6000000000000001,-0.8,0.5,-1.0
1698420082.862,16,0.0,0.0,0.0,0.4,9.5,-0.5,-1.2000000000000002,0.7,-1.0999999999999999
1698420082.878,16,0.0,0.0,0.0,0.4,9.5,-0.5,-1.0,1.0,-0.9
1698420082.895,16,0.0,0.1,-0.1,0.4,9.5,-0.6000000000000001,-1.0999999999999999,1.3,-0.6000000000000001
1698420082.912,16,0.0,0.1,-0.1,0.4,9.5,-0.6000000000000001,-1.0999999999999999,1.3,-0.5
1698420082.929,16,0.0,0.0,0.0,0.4,9.5,-0.5,-1.2000000000000002,1.0999999999999999,-0.4
1698420082.945,16,0.0,0.0,0.0,0.4,9.4,-0.5,-1.0,1.3,-0.5
1698420082.962,16,0.0,0.0,0.0,0.4,9.4,-0.5,-1.0,1.4,-0.4
1698420082.979,16,0.0,-0.1,0.0,0.30000000000000004,9.4,-0.5,-0.9,1.3,-0.1
1698420082.995,16,0.0,0.0,0.0,0.4,9.4,-0.5,-0.9,0.8,0.0
1698420083.012,16,0.0,0.0,0.0,0.4,9.5,-0.5,-1.0999999999999999,0.6000000000000001,-0.1
1698420083.029,16,0.0,0.0,0.0,0.4,9.5,-0.5,-0.9,0.5,-0.4
1698420083.045,16,0.0,0.0,0.0,0.4,9.5,-0.5,-0.9,0.5,-0.5
1698420083.062,16,0.0,0.0,0.0,0.4,9.4,-0.5,-0.9,0.4,-0.5
1698420083.079,16,0.0,0.0,0.0,0.4,9.4,-0.5,-0.6000000000000001,0.2,-0.4
1698420083.096,16,0.0,0.0,0.0,0.4,9.4,-0.5,-0.2,0.0,-0.1
1698420083.113,16,0.0,0.0,0.0,0.4,9.4,-0.5,-0.2,-0.1,-0.2
1698420083.129,16,0.1,0.0,0.0,0.4,9.4,-0.5,-0.2,0.0,-0.4
1698420083.145,16,0.0,0.0,-0.1,0.4,9.5,-0.6000000000000001,-0.30000000000000004,0.1,-0.4
1698420083.162,16,0.0,0.1,-0.1,0.4,9.5,-0.6000000000000001,-0.5,0.0,-0.4
1698420083.179,16,0.0,0.0,0.0,0.4,9.5,-0.5,-0.8,0.0,-0.2
1698420083.195,16,0.0,0.0,0.0,0.4,9.5,-0.5,-1.2000000000000002,0.30000000000000004,-0.4
1698420083.212,16,0.0,0.0,0.0,0.4,9.4,-0.5,-1.3,0.4,-0.5
1698420083.229,16,0.0,0.0,0.1,0.4,9.4,-0.4,-1.3,0.30000000000000004,-0.7
1698420083.245,16,0.0,0.0,0.0,0.4,9.4,-0.4,-1.4,-0.1,-0.4
1698420083.262,16,0.0,0.0,0.1,0.4,9.4,-0.4,-1.6,-0.5,-0.2
1698420083.279,16,0.0,0.0,0.0,0.4,9.5,-0.4,-1.7,-0.9,-0.2
1698420083.295,16,0.0,0.0,0.1,0.4,9.5,-0.4,-1.7,-1.4,-0.2
1698420083.312,16,0.0,0.0,0.1,0.4,9.5,-0.4,-1.9,-2.6,-0.5
1698420083.328,16,0.0,0.0,0.1,0.30000000000000004,9.5,-0.4,-1.8,-3.1,-0.5
1698420083.345,16,-0.1,0.0,0.1,0.30000000000000004,9.5,-0.30000000000000004,-2.0,-4.300000000000001,-0.7
1698420083.362,16,0.0,0.0,0.1,0.4,9.5,-0.4,-2.0,-4.7,-0.8
1698420083.379,16,0.0,0.1,0.1,0.4,9.5,-0.30000000000000004,-2.5,-5.500000000000001,-1.3
1698420083.395,16,0.0,0.0,0.0,0.30000000000000004,9.5,-0.4,-3.1,-6.5,-1.5000000000000002
1698420083.413,16,-0.1,0.0,0.1,0.2,9.5,-0.30000000000000004,-3.9,-7.699999999999999,-1.9
1698420083.429,16,-0.2,0.0,0.1,0.2,9.5,-0.30000000000000004,-4.2,-8.3,-1.9
1698420083.446,16,-0.2,0.0,0.1,0.2,9.5,-0.2,-4.7,-9.4,-1.9
1698420083.463,16,-0.2,0.0,0.1,0.1,9.5,-0.2,-4.800000000000001,-10.2,-2.1
1698420083.479,16,-0.2,0.0,0.1,0.0,9.5,-0.2,-5.0,-11.3,-2.1999999999999997
1698420083.496,16,-0.2,0.1,0.2,0.1,9.5,-0.1,-5.2,-12.4,-2.3000000000000003
1698420083.513,16,-0.1,0.1,0.1,0.1,9.5,-0.2,-5.2,-13.0,-2.5
1698420083.53,16,-0.1,0.1,0.0,0.1,9.5,-0.30000000000000004,-5.8,-14.4,-3.0000000000000004
1698420083.546,16,-0.2,0.0,0.1,0.0,9.5,-0.1,-6.5,-15.2,-3.4
1698420083.562,16,-0.2,0.1,0.0,0.0,9.5,-0.2,-6.6000000000000005,-15.8,-3.4
1698420083.579,16,-0.2,0.1,0.0,0.0,9.600000000000001,-0.2,-8.0,-15.8,-3.4
1698420083.595,16,-0.30000000000000004,0.2,0.1,-0.1,9.700000000000001,-0.1,-9.1,-15.9,-2.9
1698420083.612,16,-0.2,0.1,0.1,-0.1,9.600000000000001,-0.1,-9.700000000000001,-15.8,-2.6
1698420083.63,16,-0.2,0.0,0.2,-0.1,9.5,0.1,-10.5,-14.900000000000002,-2.1999999999999997
1698420083.645,16,-0.30000000000000004,-0.1,0.2,-0.2,9.4,0.1,-10.8,-13.200000000000001,-1.8
1698420083.662,16,-0.5,-0.2,0.0,-0.4,9.3,0.0,-11.000000000000002,-13.200000000000001,-1.0999999999999999
1698420083.679,16,-0.5,-0.2,0.0,-0.5,9.3,0.0,-11.4,-13.4,-0.6000000000000001
1698420083.695,16,-0.6000000000000001,-0.2,-0.1,-0.5,9.3,-0.1,-11.700000000000001,-14.700000000000001,-0.2
1698420083.712,16,-0.7000000000000001,0.0,-0.2,-0.6000000000000001,9.5,-0.2,-11.9,-16.3,-0.5
1698420083.728,16,-0.7000000000000001,0.2,-0.30000000000000004,-0.6000000000000001,9.700000000000001,-0.2,-11.9,-17.9,-0.7
1698420083.745,16,-0.5,0.4,-0.30000000000000004,-0.5,9.9,-0.2,-12.000000000000002,-21.0,-1.8
1698420083.762,16,-0.6000000000000001,0.4,-0.4,-0.5,9.9,-0.2,-11.1,-23.400000000000002,-3.8
1698420083.779,16,-0.6000000000000001,0.30000000000000004,-0.30000000000000004,-0.6000000000000001,9.8,-0.2,-10.5,-24.1,-4.7
1698420083.795,16,-0.6000000000000001,0.1,-0.4,-0.6000000000000001,9.600000000000001,-0.2,-8.799999999999999,-24.8,-5.1
1698420083.812,16,-0.6000000000000001,0.1,-0.4,-0.6000000000000001,9.600000000000001,-0.2,-7.699999999999999,-24.7,-5.9
1698420083.829,16,-0.7000000000000001,0.0,-0.4,-0.7000000000000001,9.5,-0.2,-7.1000000000000005,-24.7,-6.5
1698420083.845,16,-0.8,0.0,-0.30000000000000004,-0.8,9.5,-0.1,-6.1000000000000005,-24.400000000000002,-7.300000000000001
1698420083.862,16,-0.8,0.1,-0.30000000000000004,-0.9,9.600000000000001,0.0,-4.3999999999999995,-24.6,-8.200000000000001
1698420083.879,16,-0.9,0.0,-0.4,-0.9,9.5,-0.1,-2.8,-25.400000000000002,-8.200000000000001
1698420083.896,16,-1.1,-0.2,-0.5,-1.2000000000000002,9.3,-0.30000000000000004,-0.6000000000000001,-27.7,-8.0
1698420083.912,16,-1.1,-0.4,-0.4,-1.3,9.1,-0.1,-0.30000000000000004,-29.800000000000004,-5.7
1698420083.928,16,-1.1,-0.4,-0.30000000000000004,-1.2000000000000002,9.1,-0.1,-0.5,-30.5,-3.5
1698420083.945,16,-0.7000000000000001,-0.30000000000000004,-0.30000000000000004,-0.8,9.200000000000001,0.0,-0.8,-32.0,2.3000000000000003
1698420083.962,16,-0.4,0.1,0.1,-0.5,9.600000000000001,0.4,-4.5,-30.5,6.7
1698420083.979,16,-0.2,0.30000000000000004,0.2,-0.30000000000000004,9.8,0.5,-5.1,-27.6,8.600000000000001
1698420083.996,16,0.30000000000000004,0.4,0.30000000000000004,0.30000000000000004,9.9,0.6000000000000001,-7.300000000000001,-23.400000000000002,13.200000000000001
1698420084.012,16,0.5,0.8,0.8,0.5,10.3,1.1,-9.200000000000001,-20.2,13.6
1698420084.029,16,0.4,0.9,0.6000000000000001,0.4,10.4,1.0,-8.600000000000001,-18.3,12.5
1698420084.046,16,0.1,0.6000000000000001,0.30000000000000004,0.2,10.200000000000001,0.7000000000000001,-11.1,-17.0,11.700000000000001
1698420084.062,16,-0.1,0.30000000000000004,0.5,-0.1,9.8,0.9,-16.700000000000003,-18.3,12.6
1698420084.079,16,-0.4,0.1,0.5,-0.30000000000000004,9.600000000000001,1.0,-20.4,-18.8,12.000000000000002
1698420084.096,16,-0.7000000000000001,-0.1,0.5,-0.6000000000000001,9.4,1.1,-27.900000000000002,-21.6,11.9
1698420084.112,16,-0.6000000000000001,-0.4,0.5,-0.5,9.1,1.2000000000000002,-34.1,-28.8,10.3
1698420084.13,16,-0.6000000000000001,-0.5,0.4,-0.4,9.0,1.2000000000000002,-36.800000000000004,-34.900000000000006,9.5
1698420084.145,16,-0.4,-0.5,0.4,-0.2,9.0,1.3,-42.400000000000006,-46.900000000000006,10.1
1698420084.162,16,0.0,-0.2,0.5,0.30000000000000004,9.3,1.6,-46.0,-59.300000000000004,11.1
1698420084.179,16,0.30000000000000004,0.0,0.7000000000000001,0.5,9.4,1.8,-46.0,-65.8,11.4
1698420084.195,16,0.5,0.1,0.4,0.9,9.5,1.7000000000000002,-42.900000000000006,-77.80000000000001,13.200000000000001
1698420084.212,16,0.5,0.2,-0.1,0.9,9.600000000000001,1.2000000000000002,-42.5,-79.6,15.6
1698420084.23,16,0.5,0.2,-0.5,1.1,9.700000000000001,1.1,-43.0,-79.00000000000001,17.5
1698420084.245,16,0.6000000000000001,0.30000000000000004,-0.5,1.2000000000000002,9.700000000000001,1.1,-42.900000000000006,-77.4,20.6
1698420084.262,16,0.4,0.1,-0.8,1.2000000000000002,9.5,0.9,-40.8,-74.7,22.000000000000004
1698420084.278,16,0.30000000000000004,-0.2,-0.8,1.1,9.200000000000001,0.9,-39.699999999999996,-74.4,22.5
1698420084.295,16,0.1,-0.4,-1.2000000000000002,1.0,8.9,0.6000000000000001,-37.7,-73.8,23.400000000000002
1698420084.312,16,0.1,-0.1,-1.1,1.2000000000000002,9.200000000000001,0.8,-37.0,-74.5,24.1
1698420084.33,16,0.2,0.0,-1.3,1.3,9.3,0.7000000000000001,-36.2,-75.4,24.1
1698420084.346,16,0.2,-0.1,-1.1,1.4000000000000001,9.1,0.9,-34.400000000000006,-77.5,20.4
1698420084.362,16,0.0,-0.5,-1.1,1.4000000000000001,8.700000000000001,1.0,-30.9,-79.10000000000001,14.4
1698420084.38,16,-0.1,-0.6000000000000001,-1.1,1.3,8.6,1.0,-29.1,-79.9,10.9
1698420084.396,16,-0.30000000000000004,-0.6000000000000001,-1.1,1.2000000000000002,8.6,1.0,-27.1,-83.30000000000001,4.0
1698420084.413,16,-0.2,-0.4,-1.1,1.3,8.700000000000001,1.1,-24.3,-87.7,-1.5000000000000002
1698420084.429,16,-0.1,-0.30000000000000004,-1.1,1.5,8.8,1.1,-21.3,-91.4,-6.000000000000001
1698420084.445,16,-0.1,-0.2,-1.1,1.6,8.9,1.1,-20.3,-92.9,-7.699999999999999
1698420084.463,16,-0.1,-0.1,-0.8,1.5,9.0,1.4000000000000001,-18.3,-97.2,-9.5
1698420084.479,16,-0.1,0.2,-0.7000000000000001,1.6,9.200000000000001,1.4000000000000001,-17.200000000000003,-99.8,-9.9
1698420084.496,16,-0.2,0.1,-0.5,1.5,9.200000000000001,1.6,-16.2,-108.7,-12.000000000000002
1698420084.512,16,0.0,0.0,-0.4,1.8,9.1,1.7000000000000002,-14.900000000000002,-114.4,-13.100000000000001
1698420084.528,16,0.1,-0.1,-0.4,1.9000000000000001,9.0,1.7000000000000002,-13.9,-119.20000000000002,-14.4
1698420084.545,16,0.0,-0.1,-0.5,1.8,9.0,1.5,-13.5,-121.5,-14.600000000000001
1698420084.562,16,0.0,-0.1,-0.6000000000000001,1.8,9.0,1.4000000000000001,-13.9,-124.50000000000001,-14.3
1698420084.578,16,0.1,0.0,-0.6000000000000001,2.0,9.1,1.4000000000000001,-14.100000000000001,-126.20000000000002,-14.800000000000002
1698420084.595,16,0.1,0.0,-0.6000000000000001,2.0,9.1,1.3,-14.0,-127.10000000000001,-15.399999999999999
1698420084.613,16,0.1,-0.1,-0.6000000000000001,2.1,9.0,1.3,-13.200000000000001,-128.1,-16.8
1698420084.63,16,0.1,-0.1,-0.7000000000000001,2.1,8.9,1.2000000000000002,-12.9,-128.60000000000002,-17.8
1698420084.646,16,0.2,-0.2,-0.7000000000000001,2.2,8.9,1.1,-12.5,-127.9,-19.400000000000002
1698420084.662,16,0.30000000000000004,-0.1,-0.7000000000000001,2.4000000000000004,9.0,1.1,-11.9,-126.8,-21.1
1698420084.679,16,0.5,-0.1,-0.6000000000000001,2.5,8.9,1.1,-11.1,-126.60000000000001,-22.7
1698420084.696,16,0.6000000000000001,-0.2,-0.6000000000000001,2.7,8.9,1.1,-11.000000000000002,-125.6,-23.6
1698420084.713,16,0.9,-0.2,-0.5,2.9000000000000004,8.9,1.2000000000000002,-10.600000000000001,-122.60000000000001,-26.200000000000003
1698420084.729,16,1.0,-0.30000000000000004,-0.4,3.0,8.8,1.2000000000000002,-10.3,-120.9,-27.6
1698420084.746,16,0.9,-0.30000000000000004,-0.30000000000000004,2.9000000000000004,8.8,1.2000000000000002,-9.9,-119.0,-29.500000000000004
1698420084.762,16,1.0,-0.4,-0.30000000000000004,2.9000000000000004,8.700000000000001,1.2000000000000002,-9.1,-115.60000000000001,-30.200000000000003
1698420084.779,16,1.1,-0.4,-0.2,3.0,8.700000000000001,1.2000000000000002,-8.700000000000001,-112.60000000000001,-29.800000000000004
1698420084.796,16,1.1,-0.4,-0.2,3.1,8.8,1.2000000000000002,-8.700000000000001,-111.70000000000002,-29.300000000000004
1698420084.817,16,1.2000000000000002,-0.4,-0.1,3.1,8.8,1.2000000000000002,-8.600000000000001,-108.7,-27.900000000000002
1698420084.831,16,1.2000000000000002,-0.30000000000000004,0.1,3.1,8.8,1.4000000000000001,-8.4,-106.7,-26.400000000000002
1698420084.845,16,1.2000000000000002,-0.5,0.1,3.0,8.6,1.4000000000000001,-6.5,-105.5,-25.700000000000003
1698420084.865,16,1.0,-0.4,0.1,3.0,8.700000000000001,1.3,-6.1000000000000005,-104.2,-25.2
1698420084.879,16,1.0,-0.8,0.1,3.0,8.3,1.3,-5.8,-107.00000000000001,-25.0
1698420084.895,16,1.1,-1.0,-0.1,3.0,8.1,1.0,-4.800000000000001,-106.5,-25.3
1698420084.912,16,1.3,-1.1,-0.1,3.2,8.0,1.0,-5.1,-105.7,-25.6
1698420084.929,16,1.3,-1.0,-0.2,3.2,8.1,0.8,-6.1000000000000005,-103.5,-27.6
1698420084.946,16,1.3,-0.9,0.1,3.1,8.200000000000001,1.1,-6.7,-102.60000000000001,-28.6
1698420084.962,16,0.5,-0.1,0.0,2.3000000000000003,9.1,1.0,-8.600000000000001,-91.9,-30.100000000000005
1698420084.979,16,-1.5,1.2000000000000002,1.5,0.30000000000000004,10.4,2.4000000000000004,-2.7,-89.7,-25.700000000000003
1698420084.995,16,-2.1,1.1,-0.8,-0.4,10.3,0.2,5.2,-85.3,-21.5
1698420085.013,16,1.0,-0.1,-0.6000000000000001,2.0,8.700000000000001,-1.6,-0.6000000000000001,-62.1,-5.7
1698420085.029,16,0.8,0.9,1.3,2.6,10.0,2.1,-2.1999999999999997,-61.900000000000006,15.6
1698420085.045,16,-1.0,1.6,-1.5,0.8,10.8,-0.8,8.0,-108.5,26.200000000000003
1698420085.062,16,-2.0,0.7000000000000001,-2.5,-0.1,9.9,-1.8,5.2,-115.60000000000001,23.400000000000002
1698420085.078,16,-2.1,-0.8,-1.7000000000000002,-0.1,8.4,-1.0,-1.2000000000000002,-103.2,17.200000000000003
1698420085.095,16,-1.6,0.9,-2.4000000000000004,0.4,10.0,-1.9000000000000001,-7.2,-80.4,10.8
1698420085.112,16,-1.4000000000000001,2.4000000000000004,-2.0,0.7000000000000001,11.600000000000001,-1.5,-12.4,-76.4,6.3
1698420085.129,16,-1.2000000000000002,4.0,-1.1,0.8,13.200000000000001,-0.6000000000000001,-7.699999999999999,-77.9,-7.1000000000000005
1698420085.145,16,-2.3000000000000003,1.8,-1.8,-0.4,11.0,-1.4000000000000001,4.800000000000001,-95.2,-20.8
1698420085.162,16,-2.5,0.8,-2.1,-0.6000000000000001,10.0,-1.7000000000000002,5.0,-99.9,-24.8
1698420085.178,16,-2.1,0.2,-2.0,-0.30000000000000004,9.4,-1.7000000000000002,-0.8,-103.4,-31.2
1698420085.195,16,-2.0,0.4,-1.5,-0.30000000000000004,9.700000000000001,-1.2000000000000002,-7.300000000000001,-107.00000000000001,-39.400000000000006
1698420085.212,16,-2.2,0.6000000000000001,-1.2000000000000002,-0.6000000000000001,9.9,-1.0,-10.2,-107.5,-41.9
1698420085.229,16,-2.1,0.7000000000000001,-0.6000000000000001,-0.6000000000000001,10.0,-0.4,-13.0,-108.2,-40.3
1698420085.245,16,-1.3,0.1,-0.4,0.0,9.5,-0.2,-12.000000000000002,-111.10000000000001,-34.7
1698420085.262,16,-1.0,-0.2,-0.4,0.4,8.9,-0.4,-11.8,-111.60000000000001,-32.2
1698420085.279,16,-0.8,-0.7000000000000001,-0.5,0.4,8.700000000000001,-0.30000000000000004,-13.9,-109.7,-29.500000000000004
1698420085.295,16,-0.9,-0.7000000000000001,-0.2,0.2,8.6,0.0,-14.700000000000001,-104.5,-28.900000000000002
1698420085.312,16,-1.1,-0.6000000000000001,-0.1,-0.1,8.8,0.1,-13.5,-102.4,-28.400000000000002
1698420085.328,16,-1.5,-0.2,-0.2,-0.6000000000000001,9.1,-0.1,-10.0,-100.4,-27.6
1698420085.345,16,-1.7000000000000002,-0.1,-0.6000000000000001,-0.8,9.200000000000001,-0.4,-9.5,-103.5,-25.3
1698420085.362,16,-1.6,-0.1,-0.6000000000000001,-0.8,9.3,-0.5,-9.5,-105.00000000000001,-24.1
1698420085.379,16,-1.2000000000000002,0.0,-0.8,-0.5,9.4,-0.6000000000000001,-8.0,-106.80000000000001,-22.2
1698420085.395,16,-0.9,0.30000000000000004,-1.3,-0.2,9.700000000000001,-1.2000000000000002,-7.0,-106.2,-23.8
1698420085.412,16,-0.8,0.30000000000000004,-1.4000000000000001,-0.2,9.700000000000001,-1.3,-7.699999999999999,-104.80000000000001,-25.1
1698420085.429,16,-0.7000000000000001,0.2,-1.4000000000000001,-0.1,9.600000000000001,-1.3,-8.600000000000001,-102.10000000000001,-24.3
1698420085.445,16,-0.7000000000000001,0.0,-1.4000000000000001,-0.2,9.4,-1.2000000000000002,-9.700000000000001,-97.9,-20.3
1698420085.462,16,-0.7000000000000001,0.0,-1.3,-0.2,9.4,-1.2000000000000002,-10.5,-97.00000000000001,-18.5
1698420085.479,16,-0.6000000000000001,0.1,-1.3,-0.30000000000000004,9.5,-1.2000000000000002,-12.000000000000002,-92.9,-16.3
1698420085.495,16,-0.5,0.1,-1.2000000000000002,-0.1,9.5,-1.0,-12.4,-91.50000000000001,-13.4
1698420085.512,16,-0.4,-0.1,-1.0,-0.1,9.5,-0.9,-12.5,-90.2,-12.6
1698420085.528,16,-0.5,-0.2,-1.0,-0.2,9.200000000000001,-0.9,-12.200000000000001,-88.3,-11.6
1698420085.545,16,-0.5,-0.4,-0.9,-0.30000000000000004,9.0,-0.7000000000000001,-12.6,-86.4,-12.000000000000002
1698420085.562,16,-0.6000000000000001,-0.4,-1.0,-0.30000000000000004,9.1,-0.7000000000000001,-12.700000000000001,-84.2,-11.1
1698420085.579,16,-0.6000000000000001,-0.5,-1.0,-0.4,9.0,-0.7000000000000001,-13.4,-84.0,-11.000000000000002
1698420085.595,16,-0.4,-0.30000000000000004,-0.8,-0.30000000000000004,8.9,-0.7000000000000001,-13.6,-82.60000000000001,-10.2
1698420085.612,16,-0.30000000000000004,-0.30000000000000004,-0.9,-0.2,9.1,-0.6000000000000001,-12.6,-82.9,-6.3
1698420085.629,16,-0.2,-0.30000000000000004,-1.0,-0.1,9.1,-0.7000000000000001,-11.6,-79.5,-2.6
1698420085.645,16,-0.1,-0.4,-1.0,0.0,9.0,-0.6000000000000001,-9.5,-76.0,1.0
1698420085.662,16,-0.2,-0.4,-1.1,0.0,9.0,-0.7000000000000001,-7.2,-72.4,3.4
1698420085.679,16,-0.2,-0.30000000000000004,-1.3,0.0,9.1,-0.9,-6.4,-71.0,4.300000000000001
1698420085.695,16,-0.5,-0.1,-1.4000000000000001,-0.30000000000000004,9.3,-1.1,-6.4,-69.10000000000001,5.9
1698420085.712,16,-0.7000000000000001,0.1,-1.4000000000000001,-0.5,9.600000000000001,-1.1,-6.4,-67.7,7.2
1698420085.729,16,-0.7000000000000001,0.2,-1.5,-0.5,9.600000000000001,-1.1,-6.1000000000000005,-67.2,7.400000000000001
1698420085.745,16,-0.8,0.1,-1.6,-0.5,9.5,-1.2000000000000002,-5.500000000000001,-65.7,8.700000000000001
1698420085.762,16,-0.7000000000000001,0.0,-1.6,-0.4,9.4,-1.2000000000000002,-5.300000000000001,-64.4,10.4
1698420085.779,16,-0.6000000000000001,0.0,-1.5,-0.30000000000000004,9.4,-1.2000000000000002,-4.7,-64.0,10.8
1698420085.795,16,-0.6000000000000001,-0.1,-1.8,-0.2,9.3,-1.4000000000000001,-2.1,-64.4,12.3
1698420085.812,16,-0.5,0.1,-2.1,-0.1,9.5,-1.8,0.5,-65.0,13.6
1698420085.829,16,-0.5,0.9,-1.9000000000000001,0.0,10.200000000000001,-1.6,0.1,-64.10000000000001,13.3
1698420085.845,16,1.0,3.4000000000000004,0.4,1.5,12.8,0.7000000000000001,-11.9,-59.5,8.4
1698420085.862,16,2.4000000000000004,2.2,0.9,2.9000000000000004,11.600000000000001,1.3,7.9,-49.2,7.9
1698420085.878,16,1.4000000000000001,1.2000000000000002,0.1,1.9000000000000001,10.600000000000001,0.4,9.600000000000001,-37.1,3.2
1698420085.895,16,-0.7000000000000001,0.5,-0.1,-0.1,10.0,0.1,3.1,-31.8,5.500000000000001
1698420085.912,16,-0.9,1.5,-0.1,-0.30000000000000004,10.3,0.2,3.7000000000000006,-34.1,11.3
1698420085.929,16,-1.2000000000000002,2.0,-0.2,-0.5,11.4,0.0,6.1000000000000005,-51.5,12.000000000000002
1698420085.945,16,-1.7000000000000002,1.3,0.6000000000000001,-1.1,10.8,0.8,4.800000000000001,-62.199999999999996,1.4
1698420085.962,16,-1.6,0.4,1.2000000000000002,-1.0,9.8,1.4000000000000001,-0.5,-70.6,-6.7
1698420085.979,16,-1.1,0.1,1.5,-0.5,9.600000000000001,1.7000000000000002,-5.2,-75.5,-6.9
1698420085.996,16,0.30000000000000004,0.6000000000000001,2.1,0.9,10.100000000000001,2.3000000000000003,-17.1,-86.80000000000001,-4.9
1698420086.012,16,0.6000000000000001,0.1,2.6,1.2000000000000002,9.600000000000001,2.9000000000000004,-16.700000000000003,-82.4,-0.5
1698420086.029,16,0.2,-0.4,2.3000000000000003,0.8,9.0,2.6,-13.100000000000001,-74.60000000000001,-0.4
1698420086.046,16,-0.8,-1.0,1.6,-0.2,8.5,2.0,-7.300000000000001,-54.3,-1.6
1698420086.062,16,-0.9,-1.2000000000000002,1.0,-0.30000000000000004,8.200000000000001,1.4000000000000001,-6.9,-45.1,3.2
1698420086.079,16,-0.5,-1.2000000000000002,1.1,0.1,8.3,1.5,-7.699999999999999,-42.0,7.6
1698420086.095,16,0.9,-1.0,1.0,1.6,8.4,1.4000000000000001,-9.3,-34.900000000000006,16.900000000000002
1698420086.112,16,1.4000000000000001,-0.8,1.0,2.5,8.700000000000001,1.4000000000000001,-10.2,-31.8,21.3
1698420086.128,16,1.3,-0.9,0.8,2.2,8.5,1.3,-4.2,-16.1,30.200000000000003
1698420086.145,16,0.8,-0.8,0.7000000000000001,1.7000000000000002,8.6,1.2000000000000002,-1.0999999999999999,-9.0,30.799999999999997
1698420086.161,16,-0.2,-0.5,0.0,0.8,8.9,0.5,3.8,0.5,30.299999999999997
1698420086.178,16,-0.5,-0.4,-0.2,0.6000000000000001,9.0,0.30000000000000004,3.9,1.3,28.700000000000003
1698420086.196,16,-0.8,-0.4,-0.2,0.4,9.0,0.2,2.3000000000000003,-1.6,22.8
1698420086.212,16,-0.6000000000000001,-0.8,-0.2,0.6000000000000001,8.6,0.30000000000000004,-0.8,-5.6,15.299999999999999
1698420086.229,16,-0.5,-0.8,-0.2,0.8,8.5,0.30000000000000004,-2.5,-5.8,11.6
1698420086.245,16,-0.1,-0.8,0.0,1.1,8.6,0.5,-6.1000000000000005,-6.6000000000000005,6.7
1698420086.262,16,0.2,-0.7000000000000001,0.2,1.5,8.700000000000001,0.7000000000000001,-7.2,-5.6,4.800000000000001
1698420086.278,16,0.30000000000000004,-0.4,0.1,1.6,8.9,0.7000000000000001,-6.6000000000000005,0.6000000000000001,4.6000000000000005
1698420086.295,16,0.30000000000000004,-0.4,0.1,1.6,9.0,0.6000000000000001,-6.1000000000000005,3.8,4.300000000000001
1698420086.311,16,0.30000000000000004,-0.30000000000000004,-0.1,1.6,9.0,0.5,-5.300000000000001,9.600000000000001,4.300000000000001
1698420086.328,16,0.2,-0.2,-0.2,1.5,9.1,0.4,-5.300000000000001,14.600000000000001,3.8
1698420086.345,16,0.1,-0.2,-0.30000000000000004,1.4000000000000001,9.1,0.30000000000000004,-5.8,16.6,2.9
1698420086.362,16,-0.1,-0.2,-0.30000000000000004,1.2000000000000002,9.1,0.30000000000000004,-6.6000000000000005,18.0,2.3000000000000003
1698420086.38,16,-0.1,-0.1,-0.4,1.2000000000000002,9.200000000000001,0.2,-6.4,17.599999999999998,1.0
1698420086.396,16,-0.2,-0.4,-0.6000000000000001,1.1,8.9,0.0,-6.4,18.3,-2.0
1698420086.412,16,0.0,-0.30000000000000004,-0.7000000000000001,1.3,9.0,0.0,-6.5,19.200000000000003,-2.7
1698420086.429,16,0.1,-0.2,-0.8,1.3,9.0,-0.1,-5.1,20.900000000000002,-5.2
1698420086.445,16,0.1,-0.2,-0.8,1.3,9.1,-0.1,-2.5,23.2,-6.8
1698420086.462,16,0.1,-0.2,-0.9,1.3,9.1,-0.2,-0.5,24.5,-7.6
1698420086.478,16,0.1,-0.1,-1.0,1.3,9.200000000000001,-0.30000000000000004,0.5,25.700000000000003,-8.799999999999999
1698420086.495,16,0.1,-0.1,-1.1,1.3,9.200000000000001,-0.4,0.8,26.8,-9.3
1698420086.512,16,0.0,-0.1,-1.1,1.1,9.200000000000001,-0.4,2.5,28.8,-9.9
1698420086.528,16,0.2,-0.2,-1.2000000000000002,1.2000000000000002,9.200000000000001,-0.4,3.8,30.9,-9.4
1698420086.545,16,0.2,-0.2,-1.2000000000000002,1.3,9.1,-0.5,6.1000000000000005,32.5,-7.8
1698420086.562,16,0.30000000000000004,0.0,-0.9,1.4000000000000001,9.3,-0.30000000000000004,8.5,30.599999999999998,-5.500000000000001
1698420086.579,16,0.4,0.1,-1.0,1.4000000000000001,9.4,-0.30000000000000004,9.9,29.500000000000004,-4.3999999999999995
1698420086.596,16,0.4,0.1,-1.1,1.5,9.4,-0.5,11.700000000000001,25.2,-3.2
1698420086.613,16,0.2,0.4,-1.4000000000000001,1.2000000000000002,9.700000000000001,-0.9,16.700000000000003,27.0,-2.1999999999999997
1698420086.631,16,0.2,0.4,-1.8,1.3,9.700000000000001,-1.3,20.7,32.2,-1.5000000000000002
1698420086.647,16,1.1,0.6000000000000001,-2.7,2.1,9.9,-2.3000000000000003,29.500000000000004,49.6,1.2000000000000002
1698420086.662,16,0.9,3.1,-0.9,2.0,12.5,-0.6000000000000001,16.3,68.7,15.9
1698420086.678,16,-2.1,3.8000000000000003,1.4000000000000001,0.7000000000000001,13.200000000000001,1.5,17.9,59.300000000000004,21.6
1698420086.696,16,-3.1,3.3000000000000003,0.5,-2.0,12.600000000000001,0.7000000000000001,31.3,14.900000000000002,17.5
1698420086.712,16,-2.8000000000000003,1.5,0.4,-1.6,10.9,0.5,31.2,22.4,5.7
1698420086.73,16,0.4,0.1,1.0,1.6,9.5,1.0,26.9,25.700000000000003,-1.9
1698420086.746,16,1.6,0.1,1.3,2.7,9.5,1.3,26.0,34.0,-3.3000000000000003
1698420086.762,16,1.0,0.7000000000000001,2.0,2.1,10.100000000000001,1.9000000000000001,16.5,31.7,-7.699999999999999
1698420086.778,16,-1.9000000000000001,1.7000000000000002,2.7,-0.7000000000000001,11.100000000000001,2.7,1.7,28.200000000000003,-7.300000000000001
1698420086.795,16,-2.7,1.7000000000000002,3.1,-1.6,11.200000000000001,3.1,-0.6000000000000001,26.8,-9.5
1698420086.812,16,-1.1,0.5,1.9000000000000001,0.0,9.9,2.0,-0.8,35.5,-10.2
1698420086.828,16,0.9,-0.2,1.7000000000000002,1.9000000000000001,9.200000000000001,1.8,-3.3000000000000003,42.0,-12.3
1698420086.845,16,0.8,-0.5,1.3,1.8,9.0,1.4000000000000001,-4.7,40.0,-13.0
1698420086.862,16,-0.6000000000000001,-0.4,0.9,0.4,9.0,1.1,-3.0000000000000004,23.700000000000003,-5.9
1698420086.879,16,-1.6,-0.30000000000000004,0.2,-0.6000000000000001,9.1,0.30000000000000004,0.7,8.200000000000001,1.4
1698420086.895,16,-1.7000000000000002,-0.30000000000000004,0.30000000000000004,-0.8,9.1,0.4,1.4,4.1000000000000005,0.5
1698420086.912,16,-1.6,-0.7000000000000001,0.4,-0.7000000000000001,8.700000000000001,0.5,1.3,-1.6,-7.9
1698420086.929,16,-1.6,-0.7000000000000001,0.4,-0.7000000000000001,8.6,0.5,-0.30000000000000004,-3.7000000000000006,-13.100000000000001
1698420086.945,16,-1.5,-0.6000000000000001,0.5,-0.7000000000000001,8.8,0.7000000000000001,-3.8,-7.8,-23.700000000000003
1698420086.962,16,-1.7000000000000002,-1.0,0.5,-1.1,8.5,0.7000000000000001,-6.1000000000000005,-14.200000000000001,-33.1
1698420086.978,16,-1.8,-1.0,0.4,-1.2000000000000002,8.4,0.6000000000000001,-7.699999999999999,-17.8,-38.1
1698420086.995,16,-1.7000000000000002,-0.9,0.30000000000000004,-1.2000000000000002,8.5,0.5,-7.400000000000001,-19.8,-38.800000000000004
