msFromStart,interval,accx,accy,accz,accGx,accGy,accGz,rotRate_alpha,rotRate_beta,rotRate_gamma
1698420253006.0,16,0.0,0.0,0.1,0.0,9.4,0.8,0.30000000000000004,-5.4,2.0
1698420253023.0,16,0.0,0.0,0.1,0.1,9.4,0.8,0.30000000000000004,-6.6000000000000005,1.7
1698420253040.0,16,0.1,0.0,0.0,0.1,9.5,0.8,0.0,-7.400000000000001,1.3
1698420253056.0,16,0.0,0.0,0.0,0.1,9.5,0.7000000000000001,-0.2,-8.5,1.5000000000000002
1698420253073.0,16,0.0,0.0,-0.1,0.1,9.5,0.7000000000000001,-0.8,-9.3,2.1
1698420253089.0,16,0.0,0.0,-0.1,0.1,9.5,0.7000000000000001,-0.8,-9.5,2.6
1698420253106.0,16,0.1,0.0,-0.1,0.2,9.5,0.6000000000000001,-0.9,-10.0,3.2
1698420253123.0,16,0.1,0.0,-0.1,0.2,9.5,0.7000000000000001,-0.9,-10.2,3.4
1698420253140.0,16,0.1,0.0,-0.1,0.2,9.5,0.7000000000000001,-0.6000000000000001,-10.5,3.4
1698420253156.0,16,0.0,0.0,-0.1,0.2,9.5,0.6000000000000001,-0.30000000000000004,-10.700000000000001,3.4
1698420253173.0,16,0.0,0.0,-0.1,0.2,9.5,0.7000000000000001,-0.1,-11.000000000000002,3.7000000000000006
1698420253190.0,16,0.1,0.0,0.0,0.2,9.5,0.7000000000000001,0.0,-10.9,3.8
1698420253206.0,16,0.1,0.0,0.0,0.2,9.4,0.7000000000000001,0.7,-11.5,3.5
1698420253223.0,16,0.1,-0.1,-0.1,0.30000000000000004,9.4,0.6000000000000001,1.3,-11.8,3.2
1698420253240.0,16,0.1,0.0,-0.1,0.30000000000000004,9.4,0.6000000000000001,1.4,-12.000000000000002,3.1
1698420253256.0,16,0.1,0.0,-0.1,0.30000000000000004,9.4,0.6000000000000001,2.0,-11.8,2.8
1698420253273.0,16,0.1,0.0,0.0,0.30000000000000004,9.4,0.7000000000000001,2.1999999999999997,-11.8,2.3000000000000003
1698420253290.0,16,0.1,0.0,-0.1,0.30000000000000004,9.4,0.6000000000000001,2.7,-11.2,1.8
1698420253306.0,16,0.1,-0.1,-0.1,0.30000000000000004,9.4,0.6000000000000001,3.1,-11.1,1.8
1698420253323.0,16,0.1,-0.1,-0.1,0.4,9.4,0.6000000000000001,3.2,-10.8,1.8
1698420253340.0,16,0.1,0.0,0.0,0.4,9.4,0.6000000000000001,3.4,-9.9,1.7
1698420253356.0,16,0.1,0.0,0.0,0.4,9.5,0.6000000000000001,3.8,-8.700000000000001,1.5000000000000002
1698420253373.0,16,0.1,0.0,0.0,0.4,9.5,0.6000000000000001,3.8,-7.8,1.5000000000000002
1698420253390.0,16,0.0,0.0,0.0,0.4,9.5,0.6000000000000001,4.0,-7.500000000000001,1.6
1698420253406.0,16,0.1,0.0,0.0,0.4,9.4,0.6000000000000001,4.300000000000001,-6.9,1.9
1698420253423.0,16,0.1,0.0,0.0,0.4,9.4,0.6000000000000001,4.300000000000001,-6.6000000000000005,1.8
1698420253440.0,16,0.1,0.0,0.0,0.4,9.4,0.6000000000000001,4.2,-5.9,1.5000000000000002
1698420253456.0,16,0.0,0.0,0.0,0.4,9.4,0.6000000000000001,4.300000000000001,-5.500000000000001,1.3
1698420253473.0,16,0.0,0.0,0.0,0.4,9.5,0.5,4.1000000000000005,-4.3999999999999995,1.4
1698420253490.0,16,0.0,0.0,0.0,0.4,9.5,0.5,4.300000000000001,-4.2,1.4
1698420253506.0,16,0.0,0.0,0.0,0.4,9.5,0.6000000000000001,4.7,-3.5,1.6
1698420253523.0,16,0.0,0.0,0.0,0.4,9.5,0.6000000000000001,4.7,-3.3000000000000003,1.6
1698420253540.0,16,0.0,0.0,0.1,0.4,9.5,0.6000000000000001,4.9,-2.9,1.5000000000000002
1698420253556.0,16,0.0,0.0,0.1,0.4,9.4,0.5,5.1,-2.7,1.8
1698420253573.0,16,0.0,0.0,0.0,0.4,9.5,0.5,5.500000000000001,-2.1999999999999997,1.8
1698420253589.0,16,0.0,0.0,0.0,0.4,9.4,0.5,5.6,-2.1999999999999997,1.6
1698420253606.0,16,0.0,0.0,0.0,0.4,9.5,0.5,5.9,-1.7,1.5000000000000002
1698420253623.0,16,0.0,0.1,0.0,0.4,9.5,0.4,6.1000000000000005,-1.6,1.4
1698420253639.0,16,0.0,0.0,0.0,0.4,9.5,0.4,6.1000000000000005,-1.7,1.5000000000000002
1698420253656.0,16,0.0,0.0,0.0,0.4,9.5,0.4,6.3,-2.1999999999999997,1.2000000000000002
1698420253673.0,16,0.0,0.0,0.0,0.4,9.5,0.4,6.1000000000000005,-2.1,0.8
1698420253691.0,16,0.0,0.0,0.0,0.4,9.5,0.30000000000000004,5.9,-1.8,0.1
1698420253706.0,16,0.0,0.1,0.0,0.5,9.5,0.30000000000000004,5.8,-1.7,-0.1
1698420253724.0,16,0.0,0.1,-0.1,0.4,9.5,0.30000000000000004,5.4,-1.6,-0.2
1698420253739.0,16,0.0,0.1,-0.1,0.4,9.5,0.2,4.3999999999999995,-1.0999999999999999,-0.30000000000000004
1698420253756.0,16,0.0,0.1,-0.1,0.4,9.5,0.2,3.8,-0.7,-0.30000000000000004
1698420253773.0,16,0.0,0.1,-0.1,0.4,9.600000000000001,0.2,3.0000000000000004,-0.4,-0.4
1698420253789.0,16,0.0,0.1,-0.1,0.4,9.5,0.2,2.5,-0.1,-0.5
1698420253806.0,16,0.0,0.0,-0.1,0.4,9.5,0.2,1.6,0.4,-0.6000000000000001
1698420253823.0,16,0.0,0.0,0.0,0.4,9.5,0.2,0.7,0.7,-0.9
1698420253839.0,16,0.0,0.0,0.0,0.4,9.5,0.2,0.30000000000000004,0.8,-1.0
1698420253856.0,16,0.0,0.0,0.0,0.4,9.5,0.2,-0.30000000000000004,1.0999999999999999,-1.0
1698420253873.0,16,0.0,0.0,0.0,0.4,9.5,0.30000000000000004,-0.6000000000000001,1.3,-0.9
1698420253890.0,16,0.0,0.0,0.0,0.4,9.5,0.30000000000000004,-0.8,1.5000000000000002,-1.0
1698420253906.0,16,0.0,0.0,0.0,0.4,9.5,0.30000000000000004,-0.8,1.4,-0.8
1698420253923.0,16,0.0,0.0,0.0,0.4,9.4,0.30000000000000004,-0.9,1.4,-0.5
1698420253939.0,16,0.0,0.0,0.0,0.4,9.5,0.2,-0.8,1.0999999999999999,-0.5
1698420253956.0,16,0.0,0.0,0.0,0.4,9.5,0.2,-0.9,0.9,-0.6000000000000001
1698420253973.0,16,0.0,0.0,0.0,0.4,9.5,0.2,-0.9,0.6000000000000001,-0.6000000000000001
1698420253989.0,16,0.0,0.0,0.0,0.4,9.5,0.30000000000000004,-1.2000000000000002,0.4,-0.6000000000000001
1698420254006.0,16,0.0,0.0,0.0,0.4,9.5,0.30000000000000004,-1.2000000000000002,0.4,-0.7
1698420254023.0,16,0.0,0.0,0.0,0.4,9.5,0.30000000000000004,-1.0999999999999999,0.4,-0.6000000000000001
1698420254039.0,16,0.0,0.0,0.0,0.4,9.5,0.30000000000000004,-1.0999999999999999,0.30000000000000004,-0.6000000000000001
1698420254058.0,16,0.0,0.0,0.0,0.4,9.5,0.30000000000000004,-1.2000000000000002,0.1,-0.5
1698420254073.0,16,0.0,0.0,0.0,0.4,9.5,0.30000000000000004,-1.0999999999999999,-0.1,-0.4
1698420254090.0,16,0.0,0.0,0.0,0.4,9.5,0.2,-1.0999999999999999,-0.1,-0.30000000000000004
1698420254106.0,16,0.0,0.0,0.0,0.4,9.5,0.30000000000000004,-1.3,0.1,-0.2
1698420254123.0,16,0.0,0.0,0.0,0.4,9.5,0.30000000000000004,-1.3,0.2,-0.1
1698420254139.0,16,0.0,0.0,0.0,0.4,9.5,0.30000000000000004,-1.3,0.1,0.1
1698420254156.0,16,0.0,0.0,0.0,0.4,9.5,0.30000000000000004,-1.2000000000000002,0.1,0.2
1698420254173.0,16,0.0,0.0,0.0,0.4,9.5,0.30000000000000004,-1.2000000000000002,0.30000000000000004,0.2
1698420254189.0,16,0.0,0.0,0.0,0.4,9.5,0.30000000000000004,-1.2000000000000002,0.2,0.30000000000000004
1698420254207.0,16,0.0,0.0,0.0,0.4,9.5,0.30000000000000004,-1.4,0.1,0.6000000000000001
1698420254223.0,16,0.0,0.0,0.0,0.4,9.5,0.30000000000000004,-1.5000000000000002,0.1,0.7
1698420254239.0,16,0.0,0.0,0.0,0.4,9.5,0.30000000000000004,-1.9,0.4,0.9
1698420254256.0,16,0.0,0.0,0.0,0.4,9.5,0.30000000000000004,-1.9,0.6000000000000001,0.7
1698420254273.0,16,0.0,0.0,0.0,0.4,9.5,0.30000000000000004,-1.6,0.30000000000000004,0.9
1698420254289.0,16,0.0,0.0,0.0,0.4,9.4,0.30000000000000004,-1.4,-0.30000000000000004,0.7
1698420254307.0,16,0.0,0.0,0.0,0.4,9.4,0.30000000000000004,-1.2000000000000002,-0.5,0.7
1698420254323.0,16,0.0,0.0,0.0,0.4,9.4,0.30000000000000004,-1.0999999999999999,-0.7,0.5
1698420254339.0,16,0.0,0.0,0.0,0.4,9.4,0.30000000000000004,-1.0999999999999999,-0.8,0.4
1698420254356.0,16,0.0,0.0,0.0,0.4,9.5,0.30000000000000004,-0.9,-0.8,0.4
1698420254373.0,16,0.0,0.0,0.0,0.4,9.5,0.4,-0.8,-0.7,0.4
1698420254389.0,16,0.0,0.0,0.0,0.4,9.5,0.4,-0.6000000000000001,-0.6000000000000001,0.30000000000000004
1698420254406.0,16,0.0,0.0,0.0,0.4,9.5,0.4,-0.4,-0.2,0.2
1698420254423.0,16,0.0,0.0,0.0,0.5,9.4,0.4,-0.5,0.0,0.6000000000000001
1698420254440.0,16,0.0,0.0,0.0,0.4,9.5,0.4,-0.4,0.30000000000000004,0.5
1698420254456.0,16,0.0,0.0,0.0,0.4,9.4,0.30000000000000004,-0.30000000000000004,0.4,0.6000000000000001
1698420254473.0,16,0.0,0.0,0.0,0.4,9.4,0.4,-0.30000000000000004,0.30000000000000004,0.6000000000000001
1698420254491.0,16,0.0,0.0,0.0,0.5,9.5,0.4,-0.5,0.4,0.4
1698420254506.0,16,0.0,0.0,0.0,0.4,9.5,0.4,-0.5,0.30000000000000004,0.0
1698420254524.0,16,0.0,0.0,0.0,0.4,9.5,0.4,-0.5,0.2,0.1
1698420254539.0,16,0.0,0.0,0.0,0.4,9.5,0.30000000000000004,-0.8,0.0,0.30000000000000004
1698420254556.0,16,0.0,0.0,0.0,0.4,9.5,0.30000000000000004,-0.8,0.1,0.1
1698420254573.0,16,0.0,0.0,0.0,0.4,9.5,0.30000000000000004,-0.9,0.0,0.30000000000000004
1698420254589.0,16,0.0,0.0,0.0,0.4,9.5,0.4,-0.9,0.0,0.0
1698420254606.0,16,0.0,0.0,0.0,0.4,9.5,0.30000000000000004,-0.8,0.0,-0.2
1698420254623.0,16,0.0,0.0,0.0,0.4,9.5,0.4,-0.9,-0.1,-0.2
1698420254640.0,16,0.0,0.0,0.0,0.4,9.4,0.4,-0.8,0.0,-0.4
1698420254656.0,16,0.0,0.0,0.0,0.4,9.4,0.4,-0.6000000000000001,0.0,-0.30000000000000004
1698420254673.0,16,0.0,0.0,0.0,0.4,9.5,0.4,-0.6000000000000001,0.1,-0.2
1698420254690.0,16,0.0,0.0,0.0,0.4,9.4,0.30000000000000004,-0.6000000000000001,0.1,-0.1
1698420254707.0,16,0.0,0.0,0.0,0.4,9.5,0.4,-0.6000000000000001,0.2,-0.1
1698420254723.0,16,0.0,0.0,0.0,0.4,9.4,0.4,-0.6000000000000001,0.1,-0.1
1698420254739.0,16,0.0,0.0,0.0,0.4,9.5,0.4,-0.5,0.2,-0.2
1698420254756.0,16,0.0,0.0,0.0,0.4,9.4,0.4,-0.5,0.1,-0.30000000000000004
1698420254773.0,16,0.0,0.0,0.0,0.4,9.5,0.4,-0.5,0.1,-0.4
1698420254790.0,16,0.0,0.0,0.0,0.4,9.5,0.4,-0.5,0.1,-0.4
1698420254806.0,16,0.0,0.0,0.0,0.4,9.5,0.4,-0.5,0.0,-0.4
1698420254825.0,16,0.0,0.0,0.0,0.4,9.5,0.4,-0.6000000000000001,0.0,-0.4
1698420254840.0,16,0.0,0.0,0.0,0.4,9.5,0.4,-0.6000000000000001,0.0,-0.4
1698420254856.0,16,0.0,0.0,0.0,0.4,9.5,0.4,-0.6000000000000001,0.0,-0.5
1698420254874.0,16,0.0,0.0,0.0,0.4,9.5,0.4,-0.7,0.1,-0.5
1698420254889.0,16,0.0,0.0,0.0,0.4,9.5,0.4,-0.7,0.0,-0.5
1698420254906.0,16,0.0,0.0,0.0,0.4,9.5,0.4,-0.7,0.0,-0.5
1698420254923.0,16,0.0,0.0,0.0,0.4,9.5,0.4,-0.8,0.2,-0.4
1698420254939.0,16,0.0,0.0,0.0,0.4,9.5,0.4,-0.7,0.1,-0.4
1698420254956.0,16,0.0,0.0,0.0,0.4,9.5,0.4,-0.7,0.30000000000000004,-0.4
1698420254973.0,16,0.0,0.0,0.0,0.4,9.5,0.4,-0.6000000000000001,0.2,-0.4
1698420254989.0,16,0.0,0.0,0.0,0.4,9.5,0.4,-0.5,0.30000000000000004,-0.1
1698420255006.0,16,0.0,0.0,0.0,0.4,9.5,0.4,-0.7,0.30000000000000004,-0.2
1698420255024.0,16,0.0,0.0,0.0,0.4,9.5,0.30000000000000004,-0.5,0.30000000000000004,-0.4
1698420255040.0,16,0.0,0.0,0.0,0.4,9.5,0.4,-0.5,0.30000000000000004,-0.4
1698420255056.0,16,0.0,0.0,0.0,0.4,9.5,0.4,-0.5,0.2,-0.1
1698420255073.0,16,0.0,0.0,0.0,0.4,9.5,0.4,-0.5,0.30000000000000004,-0.2
1698420255090.0,16,0.0,0.0,0.0,0.4,9.5,0.4,-0.30000000000000004,0.6000000000000001,-0.5
1698420255106.0,16,0.0,0.0,0.0,0.4,9.4,0.4,-0.6000000000000001,0.30000000000000004,-0.4
1698420255123.0,16,0.0,0.0,0.0,0.4,9.5,0.4,-0.6000000000000001,0.30000000000000004,-0.2
1698420255140.0,16,0.0,0.1,0.0,0.4,9.5,0.4,-0.6000000000000001,0.4,-0.4
1698420255156.0,16,0.0,0.0,-0.1,0.4,9.5,0.30000000000000004,-0.30000000000000004,0.4,-0.4
1698420255173.0,16,0.0,0.0,-0.1,0.4,9.5,0.30000000000000004,-0.4,0.5,-0.30000000000000004
1698420255189.0,16,0.0,0.0,-0.1,0.4,9.5,0.30000000000000004,-0.6000000000000001,0.4,-0.1
1698420255206.0,16,0.0,0.0,0.0,0.4,9.4,0.4,-0.4,0.4,-0.2
1698420255223.0,16,0.0,-0.1,0.0,0.4,9.4,0.4,-0.5,0.5,-0.2
1698420255239.0,16,0.0,0.0,0.0,0.4,9.4,0.4,-0.4,0.6000000000000001,-0.2
1698420255256.0,16,0.0,0.0,0.0,0.4,9.5,0.4,-0.4,0.5,-0.1
1698420255273.0,16,0.0,0.0,0.0,0.4,9.5,0.4,-0.30000000000000004,0.4,-0.1
1698420255289.0,16,0.0,0.0,0.0,0.4,9.5,0.4,-0.2,0.4,-0.2
1698420255306.0,16,0.0,0.0,0.0,0.4,9.5,0.4,-0.30000000000000004,0.2,-0.2
1698420255323.0,16,0.0,0.0,0.0,0.4,9.5,0.4,-0.30000000000000004,0.1,-0.1
1698420255340.0,16,0.0,0.0,0.0,0.4,9.4,0.4,-0.30000000000000004,0.1,-0.1
1698420255356.0,16,0.0,0.0,0.0,0.30000000000000004,9.5,0.4,-0.30000000000000004,0.1,-0.1
1698420255373.0,16,0.0,0.0,0.0,0.4,9.4,0.4,-0.30000000000000004,0.1,0.1
1698420255389.0,16,0.0,0.0,0.0,0.30000000000000004,9.5,0.4,-0.30000000000000004,0.30000000000000004,0.1
1698420255406.0,16,0.0,0.0,0.0,0.4,9.5,0.4,-0.30000000000000004,0.30000000000000004,0.0
1698420255423.0,16,0.0,0.0,0.0,0.4,9.5,0.4,-0.30000000000000004,0.30000000000000004,-0.1
1698420255440.0,16,0.0,0.0,0.0,0.4,9.5,0.4,-0.30000000000000004,0.2,0.1
1698420255456.0,16,0.0,0.0,0.0,0.30000000000000004,9.5,0.4,-0.30000000000000004,0.5,0.0
1698420255473.0,16,0.0,0.0,0.0,0.4,9.5,0.4,-0.2,0.6000000000000001,0.1
1698420255489.0,16,0.0,0.0,0.0,0.4,9.5,0.4,-0.30000000000000004,0.6000000000000001,-0.1
1698420255506.0,16,0.0,0.0,0.0,0.4,9.5,0.4,-0.2,0.4,-0.1
1698420255523.0,16,0.0,0.0,0.0,0.4,9.4,0.4,-0.1,0.5,-0.1
1698420255540.0,16,0.0,0.0,0.0,0.4,9.4,0.4,-0.1,0.30000000000000004,0.1
1698420255556.0,16,0.0,0.0,0.0,0.4,9.5,0.4,0.1,0.2,-0.1
1698420255573.0,16,0.0,0.0,0.0,0.30000000000000004,9.5,0.4,0.1,0.30000000000000004,-0.1
1698420255589.0,16,0.0,0.0,0.0,0.4,9.5,0.4,0.1,0.30000000000000004,-0.1
1698420255606.0,16,0.0,0.0,0.0,0.4,9.5,0.4,0.0,0.4,-0.2
1698420255623.0,16,0.0,0.0,0.0,0.4,9.5,0.4,-0.1,0.4,-0.1
1698420255640.0,16,0.0,0.0,0.0,0.4,9.5,0.4,0.1,0.4,-0.2
1698420255656.0,16,0.0,0.0,0.0,0.4,9.4,0.4,0.2,0.6000000000000001,0.0
1698420255673.0,16,0.0,0.0,0.0,0.4,9.5,0.4,0.2,0.6000000000000001,-0.2
1698420255690.0,16,0.0,0.0,0.0,0.4,9.5,0.4,0.1,0.6000000000000001,-0.2
1698420255706.0,16,0.0,0.0,0.0,0.30000000000000004,9.5,0.4,0.2,0.30000000000000004,-0.2
1698420255723.0,16,0.0,0.0,0.0,0.4,9.5,0.4,0.2,0.4,-0.2
1698420255740.0,16,0.0,0.0,0.0,0.30000000000000004,9.5,0.4,0.2,0.30000000000000004,-0.1
1698420255756.0,16,0.0,0.0,0.0,0.4,9.5,0.4,0.0,0.1,-0.1
1698420255773.0,16,0.0,0.0,0.0,0.4,9.5,0.4,0.2,-0.2,-0.1
1698420255790.0,16,0.0,0.0,0.1,0.30000000000000004,9.5,0.5,0.2,-0.2,-0.1
1698420255806.0,16,0.0,0.0,0.1,0.4,9.5,0.5,0.5,-0.2,-0.1
1698420255823.0,16,0.0,0.0,0.0,0.4,9.5,0.4,0.30000000000000004,0.0,0.0
1698420255840.0,16,0.0,0.1,0.0,0.4,9.5,0.4,0.0,0.1,0.1
1698420255856.0,16,0.0,0.2,-0.2,0.4,9.600000000000001,0.2,-0.9,0.7,-0.2
1698420255873.0,16,0.1,0.0,0.0,0.4,9.5,0.4,-2.0,1.5000000000000002,-0.7
1698420255889.0,16,0.1,-0.1,0.1,0.4,9.4,0.5,-1.9,1.7,-0.9
1698420255906.0,16,0.0,-0.1,0.1,0.30000000000000004,9.4,0.5,-0.7,1.4,-1.0
1698420255923.0,16,0.0,-0.1,0.1,0.30000000000000004,9.4,0.5,0.1,0.8,-0.7
1698420255940.0,16,0.0,-0.1,0.0,0.30000000000000004,9.4,0.4,0.4,0.4,-0.30000000000000004
1698420255956.0,16,0.0,-0.1,0.0,0.30000000000000004,9.4,0.4,0.30000000000000004,0.30000000000000004,-0.1
1698420255973.0,16,0.0,-0.1,0.0,0.30000000000000004,9.4,0.5,0.30000000000000004,0.30000000000000004,0.1
1698420255989.0,16,0.0,0.0,0.0,0.4,9.5,0.4,0.7,0.4,0.4
1698420256006.0,16,0.0,0.0,0.0,0.4,9.5,0.4,1.0999999999999999,0.5,0.30000000000000004
1698420256023.0,16,0.0,0.0,0.0,0.4,9.5,0.4,1.4,0.30000000000000004,0.5
1698420256040.0,16,0.0,0.0,0.0,0.4,9.5,0.4,1.5000000000000002,0.30000000000000004,0.5
1698420256056.0,16,0.0,0.0,0.0,0.30000000000000004,9.5,0.4,1.4,0.30000000000000004,0.6000000000000001
1698420256073.0,16,0.0,0.0,0.0,0.30000000000000004,9.5,0.4,1.0,0.0,0.8
1698420256090.0,16,-0.1,0.0,-0.1,0.30000000000000004,9.5,0.30000000000000004,0.8,-0.2,1.2000000000000002
1698420256106.0,16,0.0,0.0,-0.1,0.30000000000000004,9.5,0.30000000000000004,0.6000000000000001,-0.5,1.2000000000000002
1698420256123.0,16,0.0,0.0,-0.1,0.30000000000000004,9.5,0.30000000000000004,0.30000000000000004,-0.9,1.3
1698420256139.0,16,0.0,0.0,-0.1,0.4,9.4,0.30000000000000004,0.4,-1.2000000000000002,1.2000000000000002
1698420256156.0,16,0.0,0.0,0.0,0.30000000000000004,9.4,0.4,0.7,-1.3,1.0999999999999999
1698420256173.0,16,0.0,0.0,0.0,0.30000000000000004,9.4,0.4,1.0999999999999999,-1.6,1.2000000000000002
1698420256189.0,16,0.0,0.0,0.0,0.4,9.5,0.4,1.0999999999999999,-1.9,1.2000000000000002
1698420256207.0,16,0.0,0.0,0.0,0.4,9.5,0.4,1.0999999999999999,-2.1999999999999997,1.0
1698420256223.0,16,0.0,0.0,-0.1,0.4,9.5,0.30000000000000004,0.8,-2.4000000000000004,1.0
1698420256239.0,16,0.0,0.0,-0.1,0.30000000000000004,9.5,0.30000000000000004,0.5,-2.5,0.7
1698420256257.0,16,-0.1,0.0,-0.1,0.30000000000000004,9.5,0.30000000000000004,0.5,-2.6,0.8
1698420256273.0,16,0.0,0.0,0.0,0.30000000000000004,9.5,0.30000000000000004,0.30000000000000004,-2.7,1.0
1698420256289.0,16,0.0,0.0,0.0,0.4,9.5,0.30000000000000004,0.30000000000000004,-2.5,1.0
1698420256306.0,16,0.1,0.0,0.0,0.5,9.4,0.4,0.2,-2.5,0.8
1698420256323.0,16,0.1,0.0,0.0,0.5,9.5,0.4,0.1,-2.1,0.4
1698420256339.0,16,0.0,0.0,0.0,0.4,9.5,0.30000000000000004,-0.1,-1.9,0.1
1698420256356.0,16,0.0,0.1,-0.1,0.4,9.5,0.30000000000000004,-0.30000000000000004,-1.3,0.1
1698420256373.0,16,0.0,0.1,-0.1,0.4,9.5,0.30000000000000004,-0.9,-0.8,0.4
1698420256389.0,16,0.0,0.0,0.0,0.4,9.5,0.30000000000000004,-1.4,-0.8,0.4
1698420256406.0,16,0.0,0.0,0.0,0.4,9.5,0.30000000000000004,-1.7,-0.8,0.4
1698420256423.0,16,0.0,0.0,0.0,0.4,9.5,0.30000000000000004,-2.0,-0.6000000000000001,0.1
1698420256439.0,16,0.0,0.0,0.0,0.4,9.5,0.4,-2.0,-0.2,-0.1
1698420256456.0,16,0.0,0.0,0.0,0.4,9.5,0.30000000000000004,-1.9,-0.1,-0.1
1698420256473.0,16,0.0,0.0,0.0,0.4,9.5,0.4,-1.9,0.30000000000000004,-0.2
1698420256490.0,16,0.0,0.0,-0.1,0.4,9.5,0.30000000000000004,-1.9,0.4,-0.5
1698420256506.0,16,0.0,0.0,0.0,0.4,9.5,0.4,-1.9,0.5,-0.7
1698420256523.0,16,0.0,0.0,0.0,0.4,9.5,0.4,-1.8,0.8,-0.9
1698420256539.0,16,0.0,0.0,-0.1,0.4,9.4,0.30000000000000004,-1.5000000000000002,1.0999999999999999,-0.8
1698420256556.0,16,0.0,0.0,-0.1,0.4,9.4,0.30000000000000004,-1.4,1.2000000000000002,-0.7
1698420256573.0,16,0.0,-0.1,-0.1,0.4,9.4,0.30000000000000004,-1.0,1.5000000000000002,-0.5
1698420256589.0,16,0.0,0.0,0.0,0.4,9.4,0.4,-0.5,1.9,-0.5
1698420256606.0,16,0.0,-0.1,0.0,0.4,9.4,0.4,-0.30000000000000004,1.9,-0.5
1698420256623.0,16,0.0,0.0,0.0,0.4,9.4,0.4,0.2,1.9,-0.4
1698420256640.0,16,0.0,0.0,0.0,0.4,9.4,0.4,0.5,1.6,-0.4
1698420256656.0,16,0.0,0.0,0.0,0.4,9.5,0.30000000000000004,0.5,1.6,-0.5
1698420256673.0,16,0.0,0.0,0.0,0.4,9.5,0.4,0.6000000000000001,1.4,-0.5
1698420256689.0,16,0.0,0.0,0.0,0.4,9.5,0.4,0.8,1.4,-0.2
1698420256706.0,16,0.0,0.0,0.0,0.4,9.4,0.4,0.7,1.4,-0.2
1698420256723.0,16,0.0,0.0,0.1,0.4,9.4,0.4,1.0,1.5000000000000002,-0.1
1698420256739.0,16,0.0,0.0,0.0,0.4,9.5,0.4,1.0,1.4,-0.1
1698420256756.0,16,0.0,0.0,0.0,0.4,9.5,0.4,1.0999999999999999,1.4,-0.1
1698420256773.0,16,0.0,0.0,0.0,0.4,9.5,0.4,1.0,1.2000000000000002,-0.1
1698420256789.0,16,0.0,0.0,0.0,0.4,9.5,0.4,1.0,0.9,0.1
1698420256806.0,16,0.0,0.0,0.0,0.4,9.5,0.4,0.9,0.9,0.1
1698420256823.0,16,0.0,0.0,0.0,0.4,9.5,0.4,0.8,0.6000000000000001,0.0
1698420256839.0,16,0.0,0.0,0.0,0.30000000000000004,9.5,0.4,1.0,0.5,-0.1
1698420256856.0,16,-0.1,0.0,0.0,0.30000000000000004,9.4,0.4,1.0,0.1,0.2
1698420256873.0,16,0.0,0.0,0.0,0.4,9.5,0.4,1.0999999999999999,0.0,0.2
1698420256889.0,16,0.0,0.0,0.0,0.4,9.4,0.4,1.4,-0.2,0.1
1698420256906.0,16,0.0,0.0,0.0,0.4,9.4,0.4,1.4,-0.30000000000000004,0.0
1698420256922.0,16,0.0,0.0,0.0,0.30000000000000004,9.4,0.4,1.4,-0.8,0.1
1698420256939.0,16,0.0,0.0,0.1,0.4,9.5,0.4,1.5000000000000002,-1.3,0.1
1698420256956.0,16,0.0,0.0,0.0,0.4,9.5,0.4,1.6,-1.4,0.1
1698420256973.0,16,0.0,0.0,0.0,0.4,9.5,0.30000000000000004,1.6,-1.3,0.1
1698420256989.0,16,0.0,0.0,0.0,0.30000000000000004,9.5,0.30000000000000004,1.5000000000000002,-1.7,0.4
1698420257006.0,16,0.0,0.0,0.0,0.4,9.4,0.4,1.7,-1.7,0.5
1698420257023.0,16,0.0,-0.1,0.0,0.4,9.4,0.4,2.3000000000000003,-1.9,0.6000000000000001
1698420257040.0,16,0.0,-0.1,0.0,0.4,9.4,0.30000000000000004,2.8,-2.1,0.4
1698420257056.0,16,0.0,0.0,0.1,0.4,9.4,0.4,3.1,-1.9,0.6000000000000001
1698420257073.0,16,0.1,0.0,0.1,0.5,9.4,0.4,3.4,-1.9,0.7
1698420257089.0,16,0.1,0.0,0.1,0.5,9.4,0.4,4.1000000000000005,-1.5000000000000002,0.4
1698420257106.0,16,0.0,0.0,0.1,0.5,9.5,0.4,4.1000000000000005,-0.8,0.4
1698420257123.0,16,0.0,0.0,0.0,0.4,9.5,0.30000000000000004,4.0,-0.30000000000000004,0.4
1698420257140.0,16,0.0,0.1,0.0,0.4,9.5,0.2,3.3000000000000003,0.0,0.6000000000000001
1698420257156.0,16,0.0,0.1,0.0,0.4,9.5,0.30000000000000004,2.7,0.5,0.6000000000000001
1698420257173.0,16,-0.1,0.1,0.0,0.4,9.5,0.30000000000000004,2.5,0.6000000000000001,0.7
1698420257190.0,16,0.0,0.0,0.0,0.4,9.5,0.2,2.3000000000000003,0.9,0.9
1698420257206.0,16,0.0,0.0,0.0,0.5,9.5,0.30000000000000004,1.4,1.0999999999999999,0.6000000000000001
1698420257223.0,16,0.0,0.0,0.0,0.4,9.5,0.30000000000000004,1.0999999999999999,0.9,0.4
1698420257239.0,16,-0.1,0.0,0.0,0.4,9.5,0.2,0.5,0.30000000000000004,0.30000000000000004
1698420257256.0,16,0.0,0.0,-0.1,0.4,9.5,0.2,-0.30000000000000004,-0.2,0.4
1698420257273.0,16,0.0,0.0,-0.1,0.4,9.5,0.2,-1.0999999999999999,-0.4,0.1
1698420257291.0,16,0.0,0.0,-0.1,0.4,9.5,0.2,-1.3,-0.4,0.0
1698420257306.0,16,0.0,0.0,0.0,0.4,9.5,0.2,-1.4,-0.30000000000000004,-0.2
1698420257323.0,16,0.0,0.0,0.0,0.4,9.5,0.2,-1.2000000000000002,-0.5,-0.2
1698420257339.0,16,0.0,-0.1,0.0,0.4,9.4,0.2,-1.2000000000000002,-0.5,-0.1
1698420257356.0,16,0.0,0.0,-0.1,0.4,9.5,0.2,-1.0,-0.6000000000000001,0.0
1698420257373.0,16,0.0,0.0,-0.1,0.4,9.5,0.2,-0.6000000000000001,-0.6000000000000001,0.1
1698420257389.0,16,0.0,0.0,0.0,0.4,9.4,0.2,-0.4,-0.4,0.2
1698420257406.0,16,0.0,0.0,-0.1,0.4,9.5,0.2,0.0,-0.1,0.30000000000000004
1698420257424.0,16,0.0,0.0,-0.1,0.4,9.5,0.2,0.2,0.1,0.30000000000000004
1698420257439.0,16,0.0,0.0,-0.1,0.4,9.4,0.2,0.30000000000000004,0.6000000000000001,0.2
1698420257456.0,16,0.0,0.0,-0.1,0.4,9.5,0.2,0.8,0.9,0.4
1698420257473.0,16,0.0,0.0,-0.1,0.4,9.4,0.2,1.4,0.8,0.4
1698420257489.0,16,0.0,0.0,0.0,0.4,9.4,0.2,1.8,0.7,0.4
1698420257506.0,16,0.0,-0.1,0.1,0.4,9.4,0.30000000000000004,2.8,0.9,0.2
1698420257523.0,16,0.0,0.0,0.0,0.4,9.4,0.30000000000000004,3.2,0.8,0.0
1698420257539.0,16,0.0,0.0,0.0,0.5,9.5,0.2,2.7,0.8,-0.4
1698420257556.0,16,0.0,0.0,0.0,0.5,9.5,0.1,1.9,1.4,-0.30000000000000004
1698420257573.0,16,0.0,0.1,0.0,0.4,9.5,0.1,1.3,1.8,-0.2
1698420257589.0,16,0.0,0.0,0.0,0.4,9.5,0.1,1.2000000000000002,1.9,-0.1
1698420257606.0,16,0.0,0.0,0.0,0.5,9.5,0.2,0.8,2.1999999999999997,0.6000000000000001
1698420257623.0,16,0.1,0.0,0.0,0.5,9.5,0.2,0.2,1.7,0.1
1698420257639.0,16,0.0,0.0,0.0,0.4,9.5,0.2,0.0,1.7,-0.2
1698420257656.0,16,0.0,0.0,0.0,0.4,9.5,0.2,-0.6000000000000001,1.5000000000000002,-0.5
1698420257673.0,16,0.0,0.0,0.0,0.4,9.5,0.2,-1.0999999999999999,1.0999999999999999,-0.4
1698420257689.0,16,0.0,0.0,0.0,0.4,9.5,0.2,-1.2000000000000002,0.9,-0.4
1698420257706.0,16,0.0,0.0,0.0,0.4,9.5,0.2,-1.2000000000000002,0.4,-0.2
1698420257723.0,16,0.0,0.0,0.0,0.4,9.5,0.2,-1.4,0.30000000000000004,-0.2
1698420257740.0,16,0.0,0.0,0.0,0.4,9.5,0.2,-1.5000000000000002,0.1,-0.1
1698420257756.0,16,0.0,0.0,0.1,0.5,9.4,0.30000000000000004,-1.3,0.0,-0.2
1698420257773.0,16,0.0,0.0,0.0,0.5,9.5,0.2,-1.0999999999999999,0.0,-0.2
1698420257789.0,16,0.0,0.0,-0.1,0.4,9.5,0.2,-1.0999999999999999,-0.30000000000000004,-0.30000000000000004
1698420257806.0,16,0.0,0.0,0.0,0.4,9.5,0.2,-1.2000000000000002,-0.4,-0.2
1698420257823.0,16,0.0,0.0,0.0,0.4,9.5,0.2,-1.0,-0.30000000000000004,-0.2
1698420257840.0,16,0.0,0.0,-0.1,0.4,9.5,0.2,-0.9,-0.30000000000000004,-0.2
1698420257856.0,16,0.0,0.0,0.0,0.4,9.5,0.2,-0.9,-0.30000000000000004,-0.1
1698420257873.0,16,0.0,0.0,0.0,0.4,9.5,0.2,-0.8,-0.5,0.0
1698420257890.0,16,0.0,0.0,-0.1,0.4,9.4,0.2,-0.9,-0.6000000000000001,0.0
1698420257906.0,16,0.0,0.0,0.0,0.4,9.4,0.2,-1.0,-1.0,0.1
1698420257922.0,16,0.0,0.0,0.0,0.4,9.5,0.2,-0.9,-1.2000000000000002,0.1
1698420257940.0,16,0.0,0.0,0.0,0.4,9.5,0.2,-0.9,-1.0999999999999999,-0.1
1698420257956.0,16,0.0,0.0,0.0,0.4,9.5,0.2,-0.8,-1.0999999999999999,-0.4
1698420257973.0,16,0.0,0.0,0.0,0.4,9.5,0.2,-0.6000000000000001,-1.0999999999999999,-0.5
1698420257989.0,16,0.0,0.0,-0.1,0.4,9.5,0.2,-0.4,-0.9,-0.4
1698420258006.0,16,0.0,0.0,-0.1,0.4,9.5,0.2,-0.4,-0.30000000000000004,-0.1
1698420258023.0,16,0.0,0.0,0.0,0.4,9.4,0.2,-0.1,0.1,0.1
1698420258040.0,16,0.0,0.0,0.0,0.4,9.4,0.2,-0.30000000000000004,0.1,0.30000000000000004
1698420258056.0,16,0.0,0.0,0.0,0.4,9.5,0.2,0.1,0.2,0.2
1698420258073.0,16,0.0,0.0,0.0,0.4,9.5,0.2,0.30000000000000004,0.5,0.30000000000000004
1698420258090.0,16,0.0,0.0,0.0,0.4,9.5,0.1,0.2,0.7,0.30000000000000004
1698420258106.0,16,0.0,0.0,-0.1,0.4,9.5,0.1,0.2,0.5,0.4
1698420258123.0,16,0.0,0.0,-0.1,0.4,9.5,0.1,-0.1,0.8,0.30000000000000004
1698420258139.0,16,0.0,0.0,0.0,0.4,9.5,0.2,0.1,0.9,0.2
1698420258156.0,16,0.0,0.0,0.0,0.4,9.5,0.2,0.30000000000000004,0.9,0.30000000000000004
1698420258173.0,16,0.0,0.0,0.0,0.4,9.5,0.2,0.30000000000000004,0.8,0.0
1698420258189.0,16,0.0,0.0,-0.1,0.4,9.5,0.2,0.2,0.6000000000000001,-0.1
1698420258206.0,16,0.0,0.0,-0.1,0.4,9.5,0.1,-0.1,0.5,-0.1
1698420258223.0,16,0.0,0.0,0.0,0.4,9.5,0.2,0.0,0.30000000000000004,-0.2
1698420258240.0,16,0.0,0.0,0.0,0.4,9.4,0.2,0.30000000000000004,-0.2,-0.2
1698420258256.0,16,0.0,0.0,0.0,0.4,9.4,0.2,0.5,-0.5,-0.1
1698420258273.0,16,0.0,0.0,0.0,0.4,9.5,0.1,0.2,-0.8,0.1
1698420258289.0,16,0.0,0.0,0.0,0.4,9.5,0.2,-0.2,-1.0999999999999999,-0.1
1698420258306.0,16,0.0,0.1,-0.1,0.4,9.5,0.1,-0.30000000000000004,-1.0999999999999999,0.0
1698420258323.0,16,0.0,0.0,0.0,0.4,9.5,0.2,-0.8,-1.5000000000000002,-0.1
1698420258339.0,16,0.0,0.0,0.0,0.4,9.5,0.2,-0.7,-1.9,0.2
1698420258356.0,16,0.0,0.0,0.0,0.4,9.5,0.2,-0.9,-1.9,0.1
1698420258373.0,16,0.0,0.0,0.0,0.4,9.5,0.2,-0.9,-2.1999999999999997,0.0
1698420258389.0,16,0.0,0.0,0.0,0.4,9.5,0.2,-1.0999999999999999,-2.4000000000000004,0.1
1698420258406.0,16,0.0,0.0,0.0,0.4,9.4,0.2,-0.9,-2.7,0.30000000000000004
1698420258423.0,16,0.0,-0.1,0.1,0.4,9.4,0.30000000000000004,-0.4,-3.0000000000000004,0.6000000000000001
1698420258439.0,16,0.0,0.0,0.1,0.4,9.4,0.30000000000000004,-0.5,-2.8,0.5
1698420258457.0,16,0.0,0.0,0.0,0.4,9.5,0.30000000000000004,-0.6000000000000001,-2.7,0.4
1698420258473.0,16,0.1,0.1,0.0,0.5,9.5,0.2,-0.8,-2.1999999999999997,0.4
1698420258489.0,16,0.1,0.0,0.1,0.5,9.5,0.30000000000000004,-0.7,-1.9,0.4
1698420258506.0,16,0.0,0.0,0.0,0.4,9.5,0.2,-0.30000000000000004,-1.7,0.5
1698420258523.0,16,0.0,0.0,0.0,0.5,9.5,0.30000000000000004,-0.6000000000000001,-1.0999999999999999,0.5
1698420258539.0,16,0.1,0.0,0.0,0.5,9.5,0.30000000000000004,-1.0,-0.6000000000000001,0.6000000000000001
1698420258556.0,16,0.1,0.0,0.1,0.5,9.5,0.30000000000000004,-1.2000000000000002,-0.6000000000000001,0.7
1698420258573.0,16,0.0,0.0,0.1,0.5,9.5,0.30000000000000004,-1.2000000000000002,-0.5,0.6000000000000001
1698420258589.0,16,0.0,0.0,0.0,0.4,9.5,0.2,-1.4,-0.4,0.30000000000000004
1698420258606.0,16,0.0,0.0,0.0,0.4,9.5,0.2,-1.7,-0.2,0.2
1698420258623.0,16,0.0,0.0,0.0,0.5,9.5,0.30000000000000004,-1.7,-0.30000000000000004,0.1
1698420258639.0,16,0.0,0.0,0.0,0.5,9.5,0.30000000000000004,-1.7,-0.30000000000000004,0.1
1698420258656.0,16,0.0,0.0,0.0,0.5,9.4,0.30000000000000004,-1.9,-0.4,0.1
1698420258672.0,16,0.0,0.0,0.0,0.4,9.5,0.30000000000000004,-2.0,-0.5,0.1
1698420258689.0,16,0.0,0.0,0.0,0.5,9.5,0.30000000000000004,-1.9,-0.5,0.1
1698420258707.0,16,0.1,0.0,0.0,0.5,9.5,0.30000000000000004,-1.7,-0.1,-0.1
1698420258723.0,16,0.1,0.0,-0.1,0.5,9.5,0.2,-2.0,0.30000000000000004,-0.4
1698420258739.0,16,0.0,0.0,-0.1,0.5,9.5,0.2,-2.8,1.2000000000000002,-0.5
1698420258756.0,16,0.0,0.0,-0.1,0.5,9.5,0.2,-3.0000000000000004,1.4,-0.30000000000000004
1698420258773.0,16,0.0,0.0,0.0,0.5,9.4,0.30000000000000004,-3.1,2.6,-0.4
1698420258791.0,16,0.1,0.0,0.0,0.5,9.5,0.30000000000000004,-3.1,3.4,-0.5
1698420258806.0,16,0.0,0.0,-0.1,0.5,9.5,0.2,-3.4,3.3000000000000003,-0.4
1698420258823.0,16,0.1,0.0,-0.1,0.5,9.5,0.30000000000000004,-3.4,2.4000000000000004,-0.2
1698420258839.0,16,0.1,-0.1,-0.1,0.6000000000000001,9.4,0.2,-4.2,1.9,-0.30000000000000004
1698420258856.0,16,0.1,-0.1,-0.1,0.6000000000000001,9.3,0.30000000000000004,-5.0,1.5000000000000002,-0.5
1698420258873.0,16,0.2,-0.1,0.0,0.6000000000000001,9.4,0.30000000000000004,-6.1000000000000005,0.8,-0.4
1698420258889.0,16,0.2,0.0,-0.1,0.7000000000000001,9.5,0.30000000000000004,-5.8,0.1,0.30000000000000004
1698420258906.0,16,0.2,0.0,-0.1,0.7000000000000001,9.5,0.30000000000000004,-5.8,0.4,0.1
1698420258923.0,16,0.2,-0.1,-0.2,0.7000000000000001,9.4,0.2,-5.500000000000001,1.0999999999999999,0.1
1698420258939.0,16,0.2,-0.1,-0.1,0.7000000000000001,9.4,0.30000000000000004,-5.7,1.0999999999999999,-0.2
1698420258956.0,16,0.2,-0.1,-0.1,0.7000000000000001,9.4,0.2,-4.800000000000001,1.0,-0.1
1698420258973.0,16,0.30000000000000004,0.0,-0.2,0.8,9.4,0.2,-4.0,1.0,0.30000000000000004
1698420258989.0,16,0.2,0.0,-0.4,0.7000000000000001,9.4,0.0,-2.9,1.9,-0.5
1698420259006.0,16,0.2,-0.1,-0.4,0.7000000000000001,9.4,0.0,-2.8,2.1999999999999997,-0.7
1698420259023.0,16,0.2,-0.1,-0.4,0.7000000000000001,9.4,0.0,-2.9,2.4000000000000004,-1.2000000000000002
1698420259039.0,16,0.1,0.0,-0.4,0.7000000000000001,9.4,0.0,-3.5,2.3000000000000003,-1.5000000000000002
1698420259056.0,16,0.1,0.1,-0.4,0.6000000000000001,9.5,0.0,-4.3999999999999995,1.9,-1.4
1698420259073.0,16,0.1,0.1,-0.4,0.7000000000000001,9.5,0.0,-4.3999999999999995,0.7,-1.2000000000000002
1698420259089.0,16,0.2,0.0,-0.4,0.8,9.4,-0.1,-4.800000000000001,-0.2,-0.7
1698420259106.0,16,0.30000000000000004,0.0,-0.30000000000000004,0.8,9.4,0.0,-5.300000000000001,-0.6000000000000001,-0.4
1698420259124.0,16,0.30000000000000004,0.0,-0.30000000000000004,0.9,9.4,0.0,-5.1,-1.2000000000000002,-0.6000000000000001
1698420259139.0,16,0.30000000000000004,-0.1,-0.30000000000000004,0.9,9.3,0.0,-5.500000000000001,-1.7,-0.4
1698420259156.0,16,0.30000000000000004,-0.2,-0.30000000000000004,0.9,9.200000000000001,0.0,-5.6,-2.8,0.0
1698420259175.0,16,0.30000000000000004,-0.2,-0.30000000000000004,0.9,9.200000000000001,0.0,-5.500000000000001,-3.5,0.30000000000000004
1698420259189.0,16,0.2,-0.1,-0.30000000000000004,0.9,9.3,0.0,-4.300000000000001,-4.6000000000000005,1.0
1698420259206.0,16,0.1,-0.1,-0.4,0.8,9.3,0.0,-3.4,-5.6,1.4
1698420259224.0,16,0.1,-0.1,-0.4,0.7000000000000001,9.3,-0.1,-1.5000000000000002,-6.6000000000000005,2.0
1698420259239.0,16,0.0,-0.1,-0.5,0.6000000000000001,9.3,-0.2,-0.8,-6.4,2.3000000000000003
1698420259256.0,16,-0.2,-0.2,-0.30000000000000004,0.5,9.200000000000001,0.0,-2.1,-3.2,3.4
1698420259274.0,16,0.1,0.0,-0.2,0.8,9.3,0.1,-3.1,-2.0,4.0
1698420259289.0,16,-0.30000000000000004,-0.5,0.1,0.4,8.9,0.30000000000000004,-5.9,-0.8,2.1999999999999997
1698420259306.0,16,-1.0,-0.8,0.2,-0.30000000000000004,8.5,0.5,-11.700000000000001,7.1000000000000005,1.5000000000000002
1698420259323.0,16,-1.2000000000000002,-0.9,0.30000000000000004,-0.5,8.5,0.6000000000000001,-14.700000000000001,11.3,2.8
1698420259340.0,16,-1.2000000000000002,-0.1,0.0,-0.5,9.3,0.5,-19.500000000000004,16.1,5.7
1698420259356.0,16,-0.6000000000000001,1.3,-0.30000000000000004,0.1,10.600000000000001,0.2,-20.8,11.8,3.7000000000000006
1698420259373.0,16,-0.4,1.5,-0.30000000000000004,0.30000000000000004,10.8,0.2,-18.5,10.8,0.8
1698420259389.0,16,-0.6000000000000001,0.8,-0.6000000000000001,0.1,10.200000000000001,0.0,-9.5,10.3,-7.8
1698420259406.0,16,-0.9,0.4,-1.6,-0.30000000000000004,9.8,-1.1,-2.0,10.700000000000001,-14.900000000000002
1698420259423.0,16,-0.8,1.1,-2.2,-0.30000000000000004,10.5,-1.6,-1.7,8.1,-18.6
1698420259439.0,16,-0.4,2.3000000000000003,-2.5,0.1,11.600000000000001,-2.0,-4.7,-1.5000000000000002,-26.400000000000002
1698420259456.0,16,0.1,1.5,-1.7000000000000002,0.5,10.9,-1.1,-5.9,-7.400000000000001,-33.2
1698420259473.0,16,0.1,0.8,-1.4000000000000001,0.4,10.200000000000001,-0.9,-6.5,-4.6000000000000005,-36.9
1698420259489.0,16,-0.2,-0.6000000000000001,-1.1,0.0,8.9,-0.5,-9.200000000000001,3.1,-38.0
1698420259506.0,16,-0.9,-1.3,-1.0,-0.8,8.1,-0.4,-12.700000000000001,9.8,-32.300000000000004
1698420259523.0,16,-1.1,-1.5,-1.0,-1.0,7.9,-0.4,-14.900000000000002,12.000000000000002,-27.5
1698420259539.0,16,-1.2000000000000002,-1.5,-1.0,-1.2000000000000002,7.9,-0.4,-18.8,13.4,-20.4
1698420259556.0,16,-0.9,-1.3,-1.2000000000000002,-1.0,8.1,-0.5,-20.2,13.9,-17.5
1698420259573.0,16,-0.8,-1.2000000000000002,-1.3,-1.0,8.200000000000001,-0.6000000000000001,-20.0,13.3,-17.0
1698420259589.0,16,-0.7000000000000001,-0.9,-1.6,-0.9,8.4,-0.8,-18.3,10.9,-15.7
1698420259606.0,16,-0.6000000000000001,-0.8,-1.8,-0.8,8.5,-1.0,-15.2,6.7,-13.8
1698420259623.0,16,-0.4,-0.8,-1.9000000000000001,-0.7000000000000001,8.5,-1.1,-14.100000000000001,4.7,-12.000000000000002
1698420259639.0,16,-0.2,-0.7000000000000001,-2.0,-0.5,8.6,-1.1,-12.3,2.3000000000000003,-9.4
1698420259656.0,16,-0.2,-0.8,-1.9000000000000001,-0.6000000000000001,8.5,-1.0,-10.5,1.4,-8.3
1698420259673.0,16,-0.1,-0.8,-1.8,-0.5,8.4,-0.9,-7.500000000000001,1.9,-7.9
1698420259689.0,16,-0.30000000000000004,-0.7000000000000001,-1.9000000000000001,-0.7000000000000001,8.5,-1.0,-5.7,2.1999999999999997,-8.4
1698420259706.0,16,-0.8,-0.30000000000000004,-1.7000000000000002,-1.2000000000000002,9.0,-0.8,-3.1,1.5000000000000002,-9.8
1698420259723.0,16,-1.0,0.1,-1.8,-1.5,9.3,-0.9,-1.8,0.4,-9.3
1698420259739.0,16,-1.0,0.8,-1.6,-1.5,10.100000000000001,-0.7000000000000001,-1.4,-2.5,-10.1
1698420259756.0,16,-0.9,1.9000000000000001,-1.7000000000000002,-1.5,11.200000000000001,-0.8,1.3,-2.8,-13.5
1698420259773.0,16,-1.3,3.3000000000000003,-2.9000000000000004,-1.7000000000000002,11.9,-1.4000000000000001,3.2,-1.9,-15.399999999999999
1698420259789.0,16,-1.2000000000000002,4.5,-3.3000000000000003,-1.8,13.9,-2.4000000000000004,5.500000000000001,-0.6000000000000001,-12.8
1698420259806.0,16,0.1,6.0,-1.0,-0.5,15.4,-0.2,0.30000000000000004,5.9,-11.3
1698420259823.0,16,1.0,4.7,-0.5,0.30000000000000004,14.100000000000001,0.2,6.2,15.000000000000002,-10.0
1698420259840.0,16,0.0,2.7,-1.8,-0.7000000000000001,12.200000000000001,-1.1,16.5,20.3,-10.3
1698420259856.0,16,-0.7000000000000001,3.0,-0.6000000000000001,-1.5,12.5,0.1,15.8,3.0000000000000004,-5.1
1698420259873.0,16,-0.30000000000000004,2.7,-0.9,-1.1,12.200000000000001,-0.30000000000000004,20.5,-13.5,-7.9
1698420259889.0,16,-0.9,1.7000000000000002,-0.4,-1.7000000000000002,11.200000000000001,0.2,20.1,-20.7,-9.700000000000001
1698420259906.0,16,-1.3,1.0,1.9000000000000001,-2.1,10.5,2.4000000000000004,9.0,-33.7,-4.800000000000001
1698420259922.0,16,0.6000000000000001,0.6000000000000001,3.3000000000000003,-0.2,10.100000000000001,3.9000000000000004,-5.1,-36.5,9.200000000000001
1698420259939.0,16,1.2000000000000002,0.2,2.7,0.4,9.700000000000001,3.3000000000000003,-6.000000000000001,-37.800000000000004,15.000000000000002
1698420259956.0,16,0.0,0.7000000000000001,2.8000000000000003,-0.7000000000000001,10.200000000000001,3.4000000000000004,-13.100000000000001,-48.2,16.700000000000003
1698420259972.0,16,-0.7000000000000001,2.2,2.4000000000000004,-1.3,11.8,3.2,-13.8,-42.800000000000004,12.9
1698420259990.0,16,-0.4,2.2,2.2,-1.0,11.8,3.0,-9.4,-29.500000000000004,8.200000000000001
1698420260006.0,16,0.2,0.1,1.2000000000000002,-0.4,9.600000000000001,2.0,-1.8,-14.200000000000001,6.6000000000000005
1698420260023.0,16,0.0,-0.4,0.4,-0.6000000000000001,9.1,1.2000000000000002,-1.3,-12.100000000000001,13.5
1698420260039.0,16,-0.2,-0.7000000000000001,0.2,-0.8,8.8,1.0,-2.1999999999999997,-16.5,18.3
1698420260056.0,16,-0.30000000000000004,-1.9000000000000001,-0.30000000000000004,-0.8,7.7,0.6000000000000001,-5.2,-26.200000000000003,25.900000000000002
1698420260073.0,16,-0.4,-2.9000000000000004,-0.2,-0.7000000000000001,6.6000000000000005,0.7000000000000001,-9.3,-32.9,28.8
1698420260090.0,16,-0.30000000000000004,-3.4000000000000004,-0.1,-0.6000000000000001,6.1000000000000005,0.8,-11.4,-34.300000000000004,28.900000000000002
1698420260106.0,16,0.0,-3.6,0.0,-0.2,5.9,0.9,-12.6,-31.2,28.6
1698420260123.0,16,0.6000000000000001,-3.7,0.0,0.5,5.800000000000001,1.0,-11.700000000000001,-21.5,29.200000000000003
1698420260139.0,16,0.9,-3.8000000000000003,0.0,0.9,5.6000000000000005,1.0,-10.0,-15.9,26.3
1698420260156.0,16,0.9,-4.0,-0.30000000000000004,1.0,5.4,0.7000000000000001,-3.3000000000000003,-6.6000000000000005,19.400000000000002
1698420260173.0,16,0.4,-3.9000000000000004,-0.7000000000000001,0.5,5.4,0.30000000000000004,0.1,-0.2,16.2
1698420260189.0,16,0.4,-3.4000000000000004,-0.8,0.8,6.800000000000001,0.1,-3.3000000000000003,1.2000000000000002,15.7
1698420260206.0,16,1.0,-1.6,-1.0,1.3,7.7,0.0,-4.5,1.0999999999999999,13.700000000000001
1698420260222.0,16,1.7000000000000002,-0.30000000000000004,-0.9,1.9000000000000001,9.0,0.1,-3.0000000000000004,5.0,6.6000000000000005
1698420260239.0,16,1.4000000000000001,-0.5,-0.8,1.6,8.8,0.2,2.1,7.6,1.5000000000000002
1698420260256.0,16,-0.30000000000000004,-1.6,-0.8,-0.1,7.7,0.1,20.3,13.0,-9.8
1698420260273.0,16,-1.2000000000000002,-2.1,-1.6,-1.0,7.2,-0.8,35.4,20.5,-11.3
1698420260289.0,16,-0.8,-1.8,-2.0,-0.7000000000000001,7.5,-1.2000000000000002,38.5,21.3,-8.5
1698420260306.0,16,1.0,0.2,-2.5,1.2000000000000002,9.5,-1.8,30.599999999999998,25.0,2.5
1698420260323.0,16,3.0,3.1,-1.4000000000000001,3.2,12.5,-0.8,14.0,25.2,16.5
1698420260340.0,16,2.9000000000000004,3.7,-0.9,3.2,13.0,-0.4,10.700000000000001,17.3,25.8
1698420260356.0,16,0.0,5.6000000000000005,-1.5,0.4,15.0,-1.0,16.8,-4.800000000000001,35.8
1698420260373.0,16,-2.5,5.2,-2.9000000000000004,-2.1,14.600000000000001,-2.5,21.0,-1.8,14.900000000000002
1698420260390.0,16,-2.5,8.1,2.3000000000000003,-2.0,17.6,2.7,0.6000000000000001,0.2,26.0
1698420260406.0,16,-2.6,4.9,3.3000000000000003,-2.0,14.4,3.6,23.2,-27.6,25.0
1698420260422.0,16,1.8,2.2,2.0,2.4000000000000004,11.700000000000001,2.2,40.4,-41.4,37.800000000000004
1698420260439.0,16,5.300000000000001,0.0,0.1,6.1000000000000005,9.5,0.2,43.1,11.3,21.5
1698420260456.0,16,4.7,-0.5,0.5,5.5,9.0,0.5,32.5,28.700000000000003,8.4
1698420260472.0,16,1.9000000000000001,1.0,3.7,2.7,10.5,3.7,11.4,80.4,-2.0
1698420260489.0,16,-4.5,3.7,4.4,-3.7,13.200000000000001,4.6000000000000005,-6.000000000000001,50.5,-8.600000000000001
1698420260506.0,16,-5.6000000000000005,3.3000000000000003,3.1,-4.9,12.9,3.2,0.9,37.1,-16.3
1698420260523.0,16,-1.3,0.1,2.1,-0.7000000000000001,9.700000000000001,2.2,2.8,49.6,-21.6
1698420260539.0,16,0.9,0.2,2.4000000000000004,1.5,9.700000000000001,2.5,-0.5,46.900000000000006,-23.700000000000003
1698420260556.0,16,2.1,1.0,1.5,2.6,10.5,1.7000000000000002,-2.3000000000000003,20.6,-20.3
1698420260573.0,16,0.4,0.7000000000000001,1.3,0.9,10.3,1.5,5.7,-5.300000000000001,-12.4
1698420260589.0,16,-0.6000000000000001,-1.1,1.1,-0.1,8.5,1.2000000000000002,6.7,-3.2,-17.400000000000002
1698420260607.0,16,-0.7000000000000001,-1.8,1.1,-0.30000000000000004,7.800000000000001,1.3,5.500000000000001,3.4,-21.700000000000003
1698420260623.0,16,-0.9,-3.1,1.1,-0.6000000000000001,6.5,1.3,3.5,14.900000000000002,-32.300000000000004
1698420260639.0,16,-0.9,-3.6,0.8,-0.6000000000000001,5.9,0.9,2.1999999999999997,18.400000000000002,-35.7
1698420260657.0,16,-0.9,-3.8000000000000003,0.30000000000000004,-0.8,5.7,0.5,-3.0000000000000004,20.7,-39.50000000000001
1698420260673.0,16,-1.1,-3.3000000000000003,0.2,-1.2000000000000002,6.2,0.4,-8.3,17.400000000000002,-34.50000000000001
1698420260689.0,16,-1.5,-2.9000000000000004,0.1,-1.7000000000000002,6.6000000000000005,0.30000000000000004,-8.0,4.3999999999999995,-27.2
1698420260706.0,16,-1.7000000000000002,-2.7,0.0,-1.9000000000000001,6.800000000000001,0.2,-6.4,-3.3000000000000003,-22.7
1698420260723.0,16,-1.2000000000000002,-2.9000000000000004,-0.2,-1.5,6.5,0.1,-3.4,-17.3,-13.5
1698420260740.0,16,-0.4,-2.8000000000000003,-0.4,-1.0,6.5,-0.1,-1.8,-23.2,-11.5
1698420260756.0,16,0.0,-2.6,-0.5,-0.30000000000000004,6.800000000000001,-0.2,-1.0,-28.700000000000003,-10.5
1698420260773.0,16,0.2,-2.1,-0.6000000000000001,-0.2,7.2,-0.4,1.8,-25.2,-7.6
1698420260789.0,16,-0.5,-2.2,-0.6000000000000001,-0.8,7.1000000000000005,-0.30000000000000004,8.799999999999999,-19.9,-1.6
1698420260806.0,16,-1.0,-2.4000000000000004,-0.6000000000000001,-1.4000000000000001,7.0,-0.4,14.700000000000001,-20.2,2.1999999999999997
1698420260824.0,16,-1.7000000000000002,-2.3000000000000003,-0.8,-2.1,7.0,-0.7000000000000001,24.200000000000003,-24.000000000000004,7.1000000000000005
1698420260840.0,16,-1.7000000000000002,-1.2000000000000002,-1.8,-2.1,8.1,-1.8,24.6,-24.9,4.6000000000000005
1698420260856.0,16,-1.3,0.1,-1.9000000000000001,-1.7000000000000002,9.4,-1.9000000000000001,22.1,-25.900000000000002,1.4
1698420260872.0,16,-0.2,3.0,0.6000000000000001,-0.6000000000000001,12.3,0.5,7.300000000000001,-11.6,-16.400000000000002
1698420260889.0,16,2.2,3.0,-1.4000000000000001,1.8,12.4,-1.5,7.1000000000000005,27.1,-17.0
1698420260906.0,16,3.4000000000000004,2.3000000000000003,-3.0,3.0,11.600000000000001,-3.1,15.399999999999999,24.6,-3.8
1698420260924.0,16,0.4,4.800000000000001,-3.6,0.0,14.200000000000001,-3.8000000000000003,20.7,-3.1,-3.9
1698420260939.0,16,-1.4000000000000001,6.5,-0.1,-1.9000000000000001,15.9,-0.4,17.8,-22.4,-28.8
1698420260957.0,16,-1.7000000000000002,4.7,1.2000000000000002,-2.2,14.200000000000001,0.9,22.6,-10.9,-38.0
1698420260973.0,16,-3.2,0.30000000000000004,2.4000000000000004,-4.0,9.8,2.0,30.599999999999998,-19.0,-48.00000000000001
1698420260989.0,16,-3.4000000000000004,-1.5,1.7000000000000002,-4.3,7.9,1.3,21.400000000000002,-34.1,-33.6
1698420261006.0,16,-2.7,-1.7000000000000002,2.3000000000000003,-3.7,7.800000000000001,1.9000000000000001,13.700000000000001,-58.400000000000006,-18.8
1698420261023.0,16,0.9,2.5,2.6,-0.1,11.9,2.2,-16.700000000000003,-92.8,-6.1000000000000005
1698420261040.0,16,3.8000000000000003,5.9,3.9000000000000004,2.9000000000000004,15.4,3.7,-15.9,-82.10000000000001,7.400000000000001
1698420261056.0,16,4.1000000000000005,5.6000000000000005,3.7,3.2,15.100000000000001,3.5,-0.6000000000000001,-71.0,9.0
1698420261072.0,16,0.0,1.8,2.8000000000000003,-1.0,11.3,2.6,8.799999999999999,-35.9,-4.1000000000000005
1698420261089.0,16,-1.1,1.5,2.0,-2.0,11.100000000000001,1.9000000000000001,1.4,-7.8,12.5
1698420261106.0,16,-0.5,1.8,1.7000000000000002,-1.4000000000000001,11.4,1.6,-2.0,0.7,25.400000000000002
1698420261123.0,16,0.0,0.9,1.4000000000000001,-0.7000000000000001,10.4,1.2000000000000002,-4.0,5.4,44.3
1698420261140.0,16,0.5,-0.30000000000000004,0.8,0.0,9.3,0.7000000000000001,-5.8,3.0000000000000004,51.900000000000006
1698420261156.0,16,0.8,-1.5,0.4,0.4,8.1,0.30000000000000004,-12.3,-6.4,51.900000000000006
1698420261173.0,16,0.7000000000000001,-1.9000000000000001,0.5,0.4,7.7,0.5,-15.7,-11.000000000000002,51.0
1698420261189.0,16,1.1,-2.2,0.7000000000000001,1.0,7.4,0.7000000000000001,-19.200000000000003,-14.500000000000002,46.2
1698420261205.0,16,1.1,-2.8000000000000003,0.9,1.1,6.7,1.0,-17.8,-11.5,37.5
1698420261223.0,16,1.0,-3.1,0.8,1.0,6.4,0.9,-16.1,-3.7000000000000006,33.2
1698420261239.0,16,0.8,-3.3000000000000003,0.1,1.0,6.2,0.30000000000000004,-12.5,10.9,22.900000000000002
1698420261256.0,16,0.6000000000000001,-3.4000000000000004,-0.2,0.7000000000000001,6.2,-0.2,-10.8,16.400000000000002,18.3
1698420261273.0,16,0.30000000000000004,-3.0,-0.6000000000000001,0.5,6.4,-0.4,-10.3,21.900000000000002,13.100000000000001
1698420261289.0,16,0.0,-2.8000000000000003,-0.9,0.2,6.6000000000000005,-0.7000000000000001,-9.0,23.5,9.600000000000001
1698420261306.0,16,-0.2,-2.6,-1.1,0.1,6.800000000000001,-0.9,-7.400000000000001,23.900000000000002,5.500000000000001
1698420261323.0,16,-0.2,-2.3000000000000003,-1.0,0.1,7.1000000000000005,-0.8,-6.3,23.3,5.6
1698420261339.0,16,0.2,-2.5,-0.6000000000000001,0.5,6.9,-0.30000000000000004,3.0000000000000004,25.5,5.1
1698420261356.0,16,0.9,-2.6,-0.5,1.2000000000000002,6.800000000000001,-0.30000000000000004,10.5,31.3,4.0
1698420261373.0,16,1.3,-2.6,-0.6000000000000001,1.6,6.800000000000001,-0.4,21.900000000000002,44.00000000000001,2.9
1698420261389.0,16,1.7000000000000002,-2.1,-1.4000000000000001,2.1,7.2,-1.4000000000000001,26.8,50.9,9.200000000000001
1698420261407.0,16,1.5,-1.4000000000000001,-1.9000000000000001,1.6,8.700000000000001,-2.1,15.100000000000001,33.800000000000004,24.8
1698420261423.0,16,0.4,0.9,-2.2,1.0,10.200000000000001,-2.2,2.4000000000000004,10.2,34.400000000000006
1698420261439.0,16,-4.1000000000000005,5.7,-1.7000000000000002,-3.5,15.0,-1.7000000000000002,-7.2,-31.8,20.5
1698420261456.0,16,-1.9000000000000001,6.4,-2.8000000000000003,-1.3,15.8,-2.9000000000000004,6.9,-5.2,4.2
1698420261473.0,16,0.30000000000000004,7.0,-1.2000000000000002,0.9,16.5,-1.3,5.9,6.000000000000001,15.299999999999999
1698420261489.0,16,1.8,2.8000000000000003,-0.2,2.5,12.200000000000001,-0.4,29.700000000000003,-5.300000000000001,31.099999999999998
1698420261506.0,16,2.9000000000000004,1.1,2.5,3.7,10.5,2.3000000000000003,21.200000000000003,0.8,29.200000000000003
1698420261523.0,16,3.5,-0.30000000000000004,1.9000000000000001,4.4,9.200000000000001,1.7000000000000002,27.3,21.0,18.6
1698420261539.0,16,3.1,-0.1,3.2,4.0,9.4,2.9000000000000004,20.2,63.50000000000001,-2.3000000000000003
1698420261556.0,16,-0.30000000000000004,3.7,3.7,0.5,13.200000000000001,3.5,-4.800000000000001,77.7,-14.600000000000001
1698420261573.0,16,-3.1,4.6000000000000005,3.5,-2.3000000000000003,14.100000000000001,3.3000000000000003,-6.000000000000001,62.0,-31.2
1698420261589.0,16,-2.7,2.9000000000000004,1.7000000000000002,-2.0,12.4,1.5,1.6,47.400000000000006,-30.9
1698420261606.0,16,1.1,2.0,2.2,1.7000000000000002,11.600000000000001,2.0,-0.7,37.2,-18.2
1698420261623.0,16,2.0,2.2,1.6,2.6,11.8,1.5,-1.4,26.6,-14.500000000000002
1698420261639.0,16,1.1,2.2,1.3,1.7000000000000002,11.8,1.2000000000000002,0.8,0.30000000000000004,-13.5
1698420261656.0,16,-0.30000000000000004,0.4,0.9,0.2,10.0,0.8,3.7000000000000006,-6.3,-25.0
1698420261672.0,16,-0.6000000000000001,-0.30000000000000004,0.8,-0.1,9.3,0.7000000000000001,2.7,-5.2,-31.900000000000002
1698420261689.0,16,-0.8,-1.6,1.0,-0.5,8.0,0.9,-0.30000000000000004,4.7,-47.400000000000006
1698420261706.0,16,-1.1,-2.3000000000000003,0.7000000000000001,-1.0,7.2,0.6000000000000001,-3.2,14.800000000000002,-58.60000000000001
1698420261723.0,16,-1.3,-2.7,0.6000000000000001,-1.4000000000000001,6.9,0.6000000000000001,-4.800000000000001,17.5,-60.7
1698420261739.0,16,-1.7000000000000002,-3.3000000000000003,0.4,-2.0,6.2,0.4,-7.2,18.8,-59.300000000000004
1698420261756.0,16,-1.5,-3.5,0.0,-2.0,6.0,-0.1,-9.600000000000001,16.8,-47.5
1698420261773.0,16,-1.6,-3.8000000000000003,-0.2,-2.0,5.300000000000001,-0.5,-11.700000000000001,7.699999999999999,-34.800000000000004
1698420261789.0,16,-1.3,-4.2,-0.6000000000000001,-1.9000000000000001,5.300000000000001,-0.6000000000000001,-12.5,0.6000000000000001,-26.200000000000003
1698420261806.0,16,-0.5,-3.5,-0.6000000000000001,-1.1,5.9,-0.6000000000000001,-12.700000000000001,-14.900000000000002,-15.6
1698420261823.0,16,-0.1,-3.0,-0.7000000000000001,-0.8,6.4,-0.6000000000000001,-14.0,-17.7,-12.6
1698420261839.0,16,0.4,-2.1,-0.6000000000000001,-0.30000000000000004,7.300000000000001,-0.5,-13.100000000000001,-20.2,-7.500000000000001
1698420261856.0,16,0.1,-2.2,-0.8,-0.7000000000000001,7.2,-0.6000000000000001,-8.200000000000001,-19.0,-2.7
1698420261873.0,16,-0.4,-2.3000000000000003,-0.9,-1.1,7.1000000000000005,-0.7000000000000001,-4.3999999999999995,-23.5,0.4
1698420261889.0,16,-1.3,-2.3000000000000003,-0.6000000000000001,-2.0,7.1000000000000005,-0.4,2.4000000000000004,-32.300000000000004,2.0
1698420261906.0,16,-1.9000000000000001,-2.1,-0.5,-2.7,7.2,-0.4,9.4,-34.2,-1.3
1698420261922.0,16,-1.5,-0.4,-1.3,-2.3000000000000003,8.9,-1.2000000000000002,17.1,-32.1,-6.7
1698420261939.0,16,-0.9,1.3,-1.2000000000000002,-1.7000000000000002,10.600000000000001,-1.2000000000000002,13.200000000000001,-28.700000000000003,-12.9
1698420261956.0,16,0.8,3.9000000000000004,-0.8,-0.1,13.3,-0.8,-0.5,6.6000000000000005,-23.900000000000002
1698420261972.0,16,3.5,4.5,-2.9000000000000004,2.6,13.8,-2.9000000000000004,11.2,25.700000000000003,-3.5
1698420261989.0,16,2.5,4.2,-3.7,1.6,13.600000000000001,-3.8000000000000003,22.1,19.0,-0.7
1698420262006.0,16,-2.0,4.9,-3.9000000000000004,-2.9000000000000004,14.4,-4.1000000000000005,23.700000000000003,-4.6000000000000005,-15.8
1698420262022.0,16,-1.6,3.4000000000000004,-1.6,-2.5,12.9,-1.8,12.000000000000002,-3.2,-22.6
1698420262039.0,16,-0.6000000000000001,1.8,0.9,-1.7000000000000002,11.3,0.7000000000000001,5.8,4.1000000000000005,-25.3
1698420262056.0,16,-0.7000000000000001,-0.30000000000000004,2.5,-1.8,9.1,2.2,22.000000000000004,-12.6,-32.300000000000004
1698420262072.0,16,-2.0,-1.6,2.1,-3.2,7.800000000000001,1.8,18.400000000000002,-32.4,-22.7
1698420262089.0,16,-2.3000000000000003,-0.6000000000000001,2.8000000000000003,-3.5,8.8,2.6,12.8,-64.10000000000001,-15.100000000000001
1698420262106.0,16,-0.8,2.9000000000000004,3.0,-2.1,12.3,2.8000000000000003,-12.9,-75.1,5.9
1698420262122.0,16,3.0,5.4,2.8000000000000003,1.8,14.9,2.6,2.5,-65.3,27.3
1698420262139.0,16,2.1,4.5,2.3000000000000003,1.0,14.0,2.2,7.1000000000000005,-55.800000000000004,13.4
1698420262156.0,16,-2.1,2.3000000000000003,2.8000000000000003,-3.3000000000000003,11.8,2.7,4.3999999999999995,-43.2,-5.7
1698420262172.0,16,-0.8,1.7000000000000002,1.8,-2.0,11.200000000000001,1.7000000000000002,3.6,-24.1,19.400000000000002
1698420262190.0,16,-0.30000000000000004,1.1,1.3,-1.5,10.600000000000001,1.2000000000000002,1.6,-21.200000000000003,30.200000000000003
1698420262206.0,16,-0.4,0.0,1.1,-1.4000000000000001,9.600000000000001,1.1,-0.2,-20.5,44.4
1698420262222.0,16,0.30000000000000004,-1.3,0.2,-0.5,8.3,0.2,-1.9,-22.2,53.6
1698420262239.0,16,0.5,-1.7000000000000002,0.4,-0.2,7.9,0.4,-4.7,-25.3,55.5
1698420262256.0,16,0.8,-2.3000000000000003,0.7000000000000001,0.30000000000000004,7.2,0.7000000000000001,-7.0,-25.0,55.5
1698420262272.0,16,1.1,-3.2,0.8,0.8,6.4,0.8,-10.0,-27.7,49.8
1698420262289.0,16,1.2000000000000002,-3.4000000000000004,0.8,1.0,6.2,0.9,-9.5,-23.5,46.300000000000004
1698420262306.0,16,1.5,-3.6,0.5,1.4000000000000001,5.9,0.6000000000000001,-7.0,-9.4,39.9
1698420262322.0,16,1.7000000000000002,-3.4000000000000004,0.2,1.7000000000000002,6.1000000000000005,0.30000000000000004,-6.7,1.9,30.000000000000004
1698420262339.0,16,1.6,-3.1,0.1,1.6,6.300000000000001,0.2,-6.1000000000000005,7.0,23.6
1698420262356.0,16,0.4,-2.7,-0.6000000000000001,0.5,6.800000000000001,-0.4,-6.000000000000001,15.9,15.299999999999999
1698420262372.0,16,-0.1,-2.4000000000000004,-0.4,0.1,7.1000000000000005,-0.2,-5.6,20.7,12.200000000000001
1698420262390.0,16,-0.5,-1.9000000000000001,-0.30000000000000004,-0.30000000000000004,7.5,-0.1,-6.000000000000001,22.5,12.200000000000001
1698420262406.0,16,0.30000000000000004,-1.7000000000000002,-0.4,0.5,7.7,-0.2,1.7,35.9,11.700000000000001
1698420262422.0,16,1.0,-1.5,-0.7000000000000001,1.3,7.9,-0.6000000000000001,17.5,40.6,4.5
1698420262440.0,16,1.3,-1.6,-1.2000000000000002,1.7000000000000002,8.0,-1.8,33.7,49.4,2.0
1698420262456.0,16,1.6,-1.2000000000000002,-2.1,1.8,8.1,-2.2,38.6,48.300000000000004,4.2
1698420262473.0,16,0.6000000000000001,-0.1,-2.8000000000000003,0.9,9.3,-3.0,32.1,38.400000000000006,11.8
1698420262489.0,16,0.0,0.9,-2.8000000000000003,-0.2,11.9,-2.6,19.200000000000003,24.7,19.3
1698420262506.0,16,-2.1,4.5,-2.0,-1.6,13.9,-2.2,-4.800000000000001,-20.7,26.9
1698420262523.0,16,-2.6,4.1000000000000005,-2.8000000000000003,-2.2,13.600000000000001,-3.1,8.799999999999999,-19.8,7.699999999999999
1698420262539.0,16,0.0,4.2,-3.3000000000000003,0.4,13.600000000000001,-3.7,16.3,-8.4,10.9
1698420262556.0,16,2.2,4.800000000000001,-1.4000000000000001,2.7,14.3,-1.8,12.100000000000001,12.8,32.7
1698420262573.0,16,-0.1,1.9000000000000001,-0.4,0.5,11.4,-0.8,19.400000000000002,-9.0,39.2
1698420262589.0,16,0.5,1.3,1.5,2.5,9.600000000000001,1.3,22.000000000000004,9.700000000000001,34.6
1698420262606.0,16,3.0,-1.3,0.2,3.8000000000000003,8.200000000000001,-0.4,25.1,15.299999999999999,21.3
1698420262625.0,16,2.9000000000000004,-1.3,2.9000000000000004,3.9000000000000004,8.200000000000001,2.3000000000000003,14.900000000000002,54.6,4.2
1698420262640.0,16,1.7000000000000002,0.0,3.4000000000000004,2.6,9.5,2.9000000000000004,6.9,72.2,-2.7
1698420262656.0,16,-2.5,3.7,3.7,-1.6,13.200000000000001,3.2,-13.700000000000001,58.7,-14.3
1698420262672.0,16,-2.5,2.6,2.1,-1.7000000000000002,12.200000000000001,1.6,-0.7,36.6,-25.0
1698420262689.0,16,-0.5,1.9000000000000001,1.9000000000000001,0.30000000000000004,11.4,1.5,-0.30000000000000004,34.1,-22.3
1698420262706.0,16,1.8,2.1,1.6,2.5,11.600000000000001,1.2000000000000002,-3.0000000000000004,31.0,-21.5
1698420262722.0,16,0.7000000000000001,2.3000000000000003,1.2000000000000002,1.4000000000000001,11.9,0.9,0.7,4.800000000000001,-13.4
1698420262739.0,16,-0.5,0.8,0.7000000000000001,0.2,10.4,0.4,4.1000000000000005,-6.7,-14.700000000000001
1698420262757.0,16,-0.7000000000000001,-0.1,0.7000000000000001,-0.2,9.5,0.4,3.0000000000000004,-4.800000000000001,-19.3
1698420262772.0,16,-0.7000000000000001,-1.5,0.9,-0.2,8.1,0.5,-0.2,3.3000000000000003,-33.1
1698420262789.0,16,-0.6000000000000001,-1.9000000000000001,0.6000000000000001,-0.2,7.7,0.30000000000000004,-2.4000000000000004,7.8,-40.5
1698420262806.0,16,-0.6000000000000001,-2.4000000000000004,0.4,-0.4,7.1000000000000005,0.1,-9.200000000000001,13.0,-51.0
1698420262822.0,16,-0.9,-3.0,0.2,-0.9,6.5,0.0,-15.000000000000002,12.3,-54.1
1698420262839.0,16,-1.0,-3.2,-0.1,-1.1,6.300000000000001,-0.30000000000000004,-19.500000000000004,8.3,-47.900000000000006
1698420262856.0,16,-1.1,-3.3000000000000003,-0.2,-1.3,6.2,-0.4,-21.700000000000003,5.9,-41.7
1698420262874.0,16,-1.2000000000000002,-3.2,-0.2,-1.5,6.300000000000001,-0.30000000000000004,-22.4,-4.1000000000000005,-33.0
1698420262896.0,16,-0.9,-3.2,-0.30000000000000004,-1.4000000000000001,6.300000000000001,-0.4,-20.1,-12.5,-24.8
1698420262906.0,16,-0.8,-2.8000000000000003,-0.4,-1.3,6.6000000000000005,-0.4,-19.1,-15.299999999999999,-21.700000000000003
1698420262922.0,16,-0.30000000000000004,-1.8,-0.6000000000000001,-0.8,7.6000000000000005,-0.5,-14.100000000000001,-15.5,-14.900000000000002
1698420262939.0,16,0.1,-2.0,-0.7000000000000001,-0.5,7.4,-0.7000000000000001,-3.6,-11.6,-5.9
1698420262956.0,16,0.1,-2.3000000000000003,-0.9,-0.5,7.1000000000000005,-0.8,2.8,-9.700000000000001,-1.4
1698420262972.0,16,-0.5,-2.2,-1.4000000000000001,-1.0,7.2,-1.4000000000000001,13.0,-13.5,4.5
1698420262989.0,16,-1.4000000000000001,-1.0,-1.7000000000000002,-1.9000000000000001,8.4,-1.7000000000000002,13.200000000000001,-18.3,4.800000000000001
1698420263006.0,16,-1.8,-0.5,-1.9000000000000001,-2.3000000000000003,8.8,-2.0,12.3,-19.9,2.4000000000000004
1698420263022.0,16,-1.5,1.4000000000000001,-1.6,-2.0,10.8,-1.7000000000000002,10.5,-26.3,-7.9
1698420263039.0,16,0.30000000000000004,2.6,-0.6000000000000001,-0.30000000000000004,11.9,-0.8,-1.9,-3.3000000000000003,-26.400000000000002
1698420263056.0,16,1.5,3.5,-1.5,0.8,12.9,-1.6,-5.8,18.3,-29.200000000000003
1698420263072.0,16,3.2,5.6000000000000005,-2.9000000000000004,2.5,15.100000000000001,-3.1,2.6,22.5,-15.8
1698420263089.0,16,0.5,4.6000000000000005,-1.8,-0.30000000000000004,14.0,-2.0,21.3,0.8,-22.2
1698420263106.0,16,-1.2000000000000002,3.2,-1.5,-2.1,12.700000000000001,-1.8,26.700000000000003,7.9,-32.0
1698420263122.0,16,-3.9000000000000004,1.6,0.1,-4.9,11.0,-0.2,24.200000000000003,-3.9,-43.0
1698420263139.0,16,-4.2,-0.2,0.2,-4.1000000000000005,8.1,-0.30000000000000004,24.400000000000002,-14.4,-41.1
1698420263156.0,16,-1.8,-1.7000000000000002,1.0,-3.0,7.800000000000001,0.5,13.100000000000001,-34.0,-24.5
1698420263172.0,16,0.8,0.30000000000000004,2.8000000000000003,-0.4,9.700000000000001,2.4000000000000004,-7.0,-72.4,-7.699999999999999
1698420263189.0,16,2.9000000000000004,3.5,2.9000000000000004,1.6,13.0,2.6,-15.6,-61.300000000000004,11.2
1698420263206.0,16,3.3000000000000003,4.4,2.8000000000000003,2.2,13.9,2.6,-9.0,-58.800000000000004,18.6
1698420263222.0,16,0.9,3.6,2.6,-0.30000000000000004,13.200000000000001,2.4000000000000004,2.1999999999999997,-30.299999999999997,10.4
1698420263239.0,16,-1.2000000000000002,2.1,2.5,-2.3000000000000003,11.600000000000001,2.3000000000000003,3.3000000000000003,-1.6,7.8
1698420263256.0,16,-1.3,1.7000000000000002,1.9000000000000001,-2.4000000000000004,11.3,1.7000000000000002,1.6,7.300000000000001,13.5
1698420263272.0,16,-0.9,0.5,1.3,-1.9000000000000001,10.100000000000001,1.1,-5.8,13.5,30.4
1698420263289.0,16,-0.5,0.30000000000000004,1.3,-1.4000000000000001,9.8,1.2000000000000002,-8.4,13.6,39.00000000000001
1698420263305.0,16,0.8,-1.0,1.0,0.1,8.6,0.9,-10.3,6.8,49.9
1698420263322.0,16,0.7000000000000001,-1.6,0.7000000000000001,0.1,8.0,0.7000000000000001,-12.100000000000001,2.3000000000000003,48.300000000000004
1698420263339.0,16,0.6000000000000001,-2.4000000000000004,0.8,0.2,7.2,0.8,-17.0,-6.7,44.3
1698420263355.0,16,0.6000000000000001,-2.9000000000000004,0.9,0.30000000000000004,6.6000000000000005,0.9,-17.9,-6.4,41.6
1698420263372.0,16,0.7000000000000001,-3.2,0.7000000000000001,0.4,6.300000000000001,0.8,-17.400000000000002,-4.2,38.900000000000006
1698420263389.0,16,0.8,-3.2,0.2,0.7000000000000001,6.300000000000001,0.4,-15.399999999999999,2.6,32.800000000000004
1698420263406.0,16,0.6000000000000001,-2.7,-0.2,0.6000000000000001,6.800000000000001,0.0,-15.8,10.9,23.1
1698420263422.0,16,0.4,-2.4000000000000004,-0.30000000000000004,0.4,7.1000000000000005,-0.1,-15.7,15.299999999999999,17.400000000000002
1698420263439.0,16,0.1,-2.2,-0.6000000000000001,0.2,7.2,-0.30000000000000004,-13.9,19.9,7.8
1698420263455.0,16,-0.1,-2.3000000000000003,-0.5,0.0,7.1000000000000005,-0.2,-10.3,18.400000000000002,4.0
1698420263472.0,16,-0.1,-2.4000000000000004,-0.2,0.0,7.0,0.1,-8.1,16.6,2.4000000000000004
1698420263489.0,16,0.30000000000000004,-2.6,-0.1,0.4,6.9,0.2,4.9,15.7,-1.4
1698420263505.0,16,0.8,-2.6,-1.0,0.9,6.800000000000001,-0.8,22.3,22.2,-3.7000000000000006
1698420263522.0,16,1.1,-2.1,-1.7000000000000002,1.2000000000000002,7.300000000000001,-1.5,26.6,25.8,-3.3000000000000003
1698420263539.0,16,1.5,-0.7000000000000001,-2.4000000000000004,1.6,8.700000000000001,-2.4000000000000004,27.5,31.3,0.5
1698420263556.0,16,1.0,0.6000000000000001,-2.5,1.1,10.0,-2.5,16.700000000000003,30.100000000000005,9.4
1698420263572.0,16,0.7000000000000001,1.7000000000000002,-2.4000000000000004,0.8,11.100000000000001,-2.4000000000000004,6.1000000000000005,17.3,19.9
1698420263589.0,16,-1.8,4.9,-2.1,-1.5,14.3,-2.2,-6.3,-25.8,27.6
1698420263606.0,16,-2.6,5.0,-3.6,-2.3000000000000003,14.5,-3.7,12.100000000000001,-12.4,6.8
1698420263622.0,16,-0.5,5.4,-3.4000000000000004,-0.30000000000000004,14.9,-3.5,12.4,7.0,14.100000000000001
1698420263639.0,16,0.30000000000000004,3.0,-0.2,0.6000000000000001,12.5,-0.30000000000000004,18.6,12.9,32.6
1698420263656.0,16,-0.30000000000000004,1.6,-0.8,0.1,11.100000000000001,-1.0,26.200000000000003,-8.5,38.2
1698420263672.0,16,1.5,0.9,2.1,2.1,10.4,1.8,20.5,-8.9,44.7
1698420263689.0,16,3.4000000000000004,-1.8,1.6,4.0,7.7,1.2000000000000002,24.200000000000003,16.5,19.200000000000003
1698420263706.0,16,3.0,-0.5,2.1,3.7,9.0,1.7000000000000002,14.3,65.5,1.4
1698420263722.0,16,1.8,1.6,3.3000000000000003,2.5,11.100000000000001,2.9000000000000004,-4.5,70.7,-4.0
1698420263739.0,16,-3.9000000000000004,4.5,3.9000000000000004,-3.2,14.0,3.7,-16.1,49.2,-26.200000000000003
1698420263756.0,16,-2.1,2.6,2.0,-1.5,12.200000000000001,1.8,-0.8,31.0,-19.6
1698420263773.0,16,0.5,2.0,2.0,1.1,11.600000000000001,1.8,-2.7,32.1,-15.100000000000001
1698420263789.0,16,2.2,1.9000000000000001,1.4000000000000001,2.7,11.5,1.3,-3.1,19.500000000000004,-11.700000000000001
1698420263806.0,16,0.4,1.7000000000000002,1.4000000000000001,0.9,11.4,1.2000000000000002,1.9,-10.9,-8.4
1698420263822.0,16,-0.5,0.9,1.0,0.0,10.5,0.8,4.7,-16.400000000000002,-11.6
1698420263839.0,16,-0.9,-0.7000000000000001,0.7000000000000001,-0.5,9.0,0.6000000000000001,3.3000000000000003,-13.6,-21.700000000000003
1698420263856.0,16,-0.8,-1.5,0.6000000000000001,-0.6000000000000001,8.1,0.4,-0.9,-4.3999999999999995,-38.300000000000004
1698420263880.0,16,-0.7000000000000001,-2.6,0.30000000000000004,-0.6000000000000001,7.0,0.1,-6.1000000000000005,1.7,-48.00000000000001
1698420263889.0,16,-0.9,-2.9000000000000004,0.1,-0.9,6.7,-0.1,-10.0,3.4,-50.6
1698420263905.0,16,-1.2000000000000002,-2.8000000000000003,0.2,-1.4000000000000001,6.7,0.1,-15.2,0.2,-51.400000000000006
1698420263922.0,16,-1.4000000000000001,-3.2,0.0,-1.8,6.300000000000001,0.0,-17.200000000000003,-6.5,-44.3
1698420263939.0,16,-1.4000000000000001,-3.5,-0.2,-1.8,6.1000000000000005,-0.2,-18.6,-9.600000000000001,-39.2
1698420263955.0,16,-0.9,-3.5,-0.2,-1.4000000000000001,6.0,-0.1,-17.5,-20.2,-28.0
1698420263972.0,16,-0.2,-3.1,-0.6000000000000001,-0.8,6.300000000000001,-0.4,-15.5,-26.6,-20.7
1698420263989.0,16,-0.1,-2.8000000000000003,-0.7000000000000001,-0.8,6.6000000000000005,-0.6000000000000001,-14.900000000000002,-27.8,-18.3
1698420264006.0,16,0.4,-2.0,-0.8,-0.2,7.5,-0.6000000000000001,-12.5,-21.400000000000002,-11.2
1698420264022.0,16,0.6000000000000001,-1.6,-0.9,-0.1,7.800000000000001,-0.7000000000000001,-10.8,-16.8,-8.3
1698420264039.0,16,0.6000000000000001,-1.6,-0.9,-0.1,7.800000000000001,-0.7000000000000001,-10.8,-16.8,-8.3
1698420264055.0,16,-1.0,-1.9000000000000001,-1.0,-1.7000000000000002,7.4,-0.8,-1.8,-18.400000000000002,0.9
1698420264072.0,16,-2.1,-2.0,-0.6000000000000001,-2.7,7.4,-0.4,8.200000000000001,-27.6,2.1999999999999997
1698420264089.0,16,-2.2,-1.9000000000000001,-0.8,-2.9000000000000004,7.5,-0.6000000000000001,14.0,-29.000000000000004,1.4
1698420264105.0,16,-1.3,-0.30000000000000004,-2.2,-2.0,9.0,-2.1,22.6,-25.400000000000002,-3.2
1698420264122.0,16,-0.4,1.3,-2.1,-0.4,12.200000000000001,-1.5,8.600000000000001,-13.4,-15.399999999999999
1698420264142.0,16,1.2000000000000002,3.8000000000000003,-1.1,0.4,13.200000000000001,-1.0,-1.7,6.2,-22.5
1698420264155.0,16,3.4000000000000004,5.0,-3.1,2.6,14.4,-3.0,7.400000000000001,36.3,-10.2
1698420264172.0,16,1.6,5.800000000000001,-3.0,0.8,15.3,-3.1,10.9,9.700000000000001,-9.200000000000001
1698420264189.0,16,0.2,4.3,-1.8,-0.6000000000000001,13.8,-1.9000000000000001,15.5,-0.5,-17.8
1698420264205.0,16,-2.3000000000000003,2.1,-0.7000000000000001,-3.2,11.600000000000001,-0.8,15.399999999999999,10.8,-32.6
1698420264222.0,16,-3.8000000000000003,0.9,0.0,-4.9,10.3,-0.2,17.400000000000002,-20.900000000000002,-34.1
1698420264239.0,16,-2.5,0.2,-0.1,-3.7,9.600000000000001,-0.30000000000000004,14.900000000000002,-18.6,-26.400000000000002
1698420264256.0,16,-1.8,-0.7000000000000001,2.4000000000000004,-3.0,8.700000000000001,2.2,14.4,-55.5,-9.600000000000001
1698420264272.0,16,0.30000000000000004,2.2,3.2,-0.9,11.700000000000001,3.0,-11.1,-66.1,-4.0
1698420264289.0,16,1.9000000000000001,3.1,3.3000000000000003,0.7000000000000001,12.600000000000001,3.1,-16.8,-59.5,5.2
1698420264306.0,16,3.2,4.1000000000000005,2.7,2.1,13.600000000000001,2.6,-6.1000000000000005,-45.7,14.3
1698420264322.0,16,-1.0,2.5,2.2,-2.2,12.0,2.2,-1.7,-30.9,-4.5
1698420264339.0,16,-2.2,1.6,2.1,-3.3000000000000003,11.200000000000001,2.1,-2.9,-19.0,-4.800000000000001
1698420264356.0,16,-1.0,0.7000000000000001,1.2000000000000002,-2.1,10.3,1.2000000000000002,-6.6000000000000005,0.8,11.1
1698420264372.0,16,-0.2,-0.5,1.2000000000000002,-1.2000000000000002,9.1,1.3,-8.3,4.800000000000001,29.900000000000006
1698420264389.0,16,0.0,-0.8,0.8,-1.0,8.700000000000001,0.9,-7.699999999999999,5.500000000000001,37.4
1698420264406.0,16,0.30000000000000004,-1.8,0.2,-0.6000000000000001,7.800000000000001,0.30000000000000004,-9.9,-1.0999999999999999,47.900000000000006
1698420264423.0,16,0.4,-2.2,0.30000000000000004,-0.2,7.0,0.6000000000000001,-15.000000000000002,-10.700000000000001,52.1
1698420264439.0,16,0.6000000000000001,-2.8000000000000003,0.4,0.0,6.7,0.6000000000000001,-17.400000000000002,-15.399999999999999,51.900000000000006
1698420264456.0,16,0.9,-2.8000000000000003,0.5,0.5,6.7,0.8,-20.2,-16.2,49.3
1698420264473.0,16,1.1,-2.7,0.5,1.1,6.7,0.7000000000000001,-18.0,-8.600000000000001,47.7
1698420264489.0,16,1.4000000000000001,-3.1,0.4,1.2000000000000002,6.4,0.8,-16.6,-3.9,37.5
1698420264506.0,16,1.1,-2.9000000000000004,-0.2,1.0,6.6000000000000005,0.2,-12.8,8.1,28.0
1698420264522.0,16,0.8,-2.2,-0.5,0.8,7.300000000000001,0.0,-12.000000000000002,18.1,18.1
1698420264539.0,16,0.6000000000000001,-1.7000000000000002,-0.8,0.6000000000000001,7.800000000000001,-0.30000000000000004,-10.2,22.4,14.700000000000001
1698420264556.0,16,-0.1,-1.3,-1.2000000000000002,0.0,8.1,-0.7000000000000001,-8.3,21.1,8.3
1698420264572.0,16,-0.2,-1.1,-1.2000000000000002,-0.1,8.4,-0.7000000000000001,-9.4,15.6,3.8
1698420264589.0,16,-0.1,-1.1,-0.9,0.0,8.4,-0.4,-8.3,13.9,2.1
1698420264606.0,16,0.5,-1.2000000000000002,-0.9,0.6000000000000001,8.200000000000001,-0.4,4.6000000000000005,18.3,-0.1
1698420264622.0,16,1.0,-1.6,-1.5,1.1,7.800000000000001,-1.1,21.200000000000003,25.700000000000003,-3.2
1698420264639.0,16,1.0,-1.2000000000000002,-2.2,1.1,8.200000000000001,-1.8,29.300000000000004,34.0,-2.9
1698420264656.0,16,0.9,0.1,-2.8000000000000003,1.0,9.5,-2.5,28.900000000000002,34.800000000000004,-0.4
1698420264672.0,16,0.8,0.6000000000000001,-2.2,0.9,10.0,-2.1,17.599999999999998,15.2,9.5
1698420264689.0,16,0.4,1.5,-1.9000000000000001,-0.30000000000000004,12.4,-1.5,-4.3999999999999995,-19.1,25.0
1698420264706.0,16,-2.1,4.4,-2.1,-1.9000000000000001,13.9,-1.9000000000000001,-3.5,-27.0,18.900000000000002
1698420264722.0,16,-1.8,5.9,-2.0,-1.6,15.4,-1.9000000000000001,0.0,6.6000000000000005,8.1
1698420264739.0,16,-0.6000000000000001,5.9,0.4,0.0,13.3,1.4000000000000001,17.9,26.8,27.2
1698420264756.0,16,0.4,1.8,0.1,0.7000000000000001,11.3,0.2,31.0,-1.3,33.800000000000004
1698420264772.0,16,2.6,1.1,1.3,3.0,10.700000000000001,1.3,29.500000000000004,10.0,30.299999999999997
1698420264789.0,16,3.2,0.0,-0.5,3.4000000000000004,8.5,1.4000000000000001,28.200000000000003,20.7,8.5
1698420264806.0,16,2.8000000000000003,-1.5,1.3,3.3000000000000003,8.0,1.1,29.200000000000003,37.5,-4.300000000000001
1698420264822.0,16,1.2000000000000002,0.2,2.7,1.7000000000000002,9.700000000000001,2.5,6.8,52.50000000000001,-13.4
1698420264839.0,16,-1.2000000000000002,2.3000000000000003,3.0,-3.0,13.3,3.1,-13.4,40.8,-17.3
1698420264856.0,16,-4.1000000000000005,3.7,2.7,-3.7,13.3,2.7,-6.5,31.8,-20.6
1698420264872.0,16,-0.2,1.7000000000000002,1.8,0.1,11.3,1.7000000000000002,1.0,28.500000000000004,-14.600000000000001
1698420264889.0,16,2.0,1.2000000000000002,1.4000000000000001,2.3000000000000003,10.8,1.3,0.2,16.0,-9.9
1698420264906.0,16,1.7000000000000002,1.4000000000000001,1.2000000000000002,2.0,11.0,1.2000000000000002,2.0,4.2,-7.300000000000001
1698420264922.0,16,-0.1,0.8,0.8,0.2,10.4,0.7000000000000001,6.3,-12.3,-9.200000000000001
1698420264939.0,16,-1.0,-0.5,0.6000000000000001,-0.7000000000000001,9.1,0.5,6.1000000000000005,-11.3,-18.2
1698420264956.0,16,-1.1,-1.1,0.4,-0.9,8.5,0.30000000000000004,5.1,-6.9,-24.7
1698420264972.0,16,-0.8,-2.2,0.30000000000000004,-0.8,7.4,0.30000000000000004,1.0999999999999999,1.5000000000000002,-35.7
1698420264989.0,16,-0.8,-2.8000000000000003,0.0,-0.9,6.7,0.0,-4.2,6.4,-43.300000000000004
1698420265006.0,16,-0.7000000000000001,-3.1,0.0,-0.9,6.4,-0.1,-7.300000000000001,6.4,-43.800000000000004
1698420265022.0,16,-0.8,-3.3000000000000003,0.0,-1.1,6.2,-0.1,-12.5,3.6,-37.7
1698420265039.0,16,-0.9,-3.5,-0.1,-1.3,6.0,0.0,-14.500000000000002,-3.0000000000000004,-31.2
1698420265056.0,16,-0.9,-3.7,-0.2,-1.3,5.800000000000001,-0.1,-15.000000000000002,-6.1000000000000005,-26.200000000000003
1698420265072.0,16,-0.5,-3.4000000000000004,-0.4,-1.1,6.1000000000000005,-0.30000000000000004,-14.500000000000002,-14.0,-18.7
1698420265089.0,16,-0.2,-2.3000000000000003,-0.6000000000000001,-0.7000000000000001,7.1000000000000005,-0.4,-12.000000000000002,-17.3,-13.4
1698420265106.0,16,0.1,-1.9000000000000001,-0.6000000000000001,-0.5,7.5,-0.4,-9.8,-16.6,-10.700000000000001
1698420265122.0,16,0.4,-1.6,-0.9,-0.2,7.800000000000001,-0.8,-2.8,-12.200000000000001,-2.7
1698420265139.0,16,-0.1,-2.1,-1.4000000000000001,-0.7000000000000001,7.300000000000001,-1.3,3.9,-9.3,5.7
1698420265156.0,16,-0.7000000000000001,-2.1,-1.3,-1.3,7.300000000000001,-1.2000000000000002,5.8,-12.4,9.200000000000001
1698420265173.0,16,-1.6,-1.6,-1.0,-2.2,7.7,-0.9,9.3,-19.400000000000002,11.5
1698420265189.0,16,-2.1,-0.30000000000000004,-1.7000000000000002,-2.7,9.1,-1.7000000000000002,13.9,-21.700000000000003,4.9
1698420265206.0,16,-1.8,1.1,-1.8,-2.4000000000000004,10.4,-1.8,13.8,-21.8,-1.3
1698420265222.0,16,-0.5,3.3000000000000003,-0.9,-1.2000000000000002,12.700000000000001,-0.9,1.4,-8.9,-20.4
1698420265241.0,16,2.2,3.8000000000000003,-2.1,1.5,13.200000000000001,-2.1,3.0000000000000004,19.400000000000002,-19.9
1698420265256.0,16,2.8000000000000003,3.6,-3.2,0.8,13.100000000000001,-4.1000000000000005,21.200000000000003,9.5,-6.000000000000001
1698420265272.0,16,-0.30000000000000004,4.6000000000000005,-4.1000000000000005,-1.0,14.100000000000001,-4.3,20.5,-1.9,-9.1
1698420265289.0,16,-1.1,4.3,-1.1,-1.9000000000000001,13.8,-1.3,13.8,-13.8,-20.0
1698420265306.0,16,-0.9,2.5,0.1,-1.8,12.0,-0.1,18.2,-2.8,-26.200000000000003
1698420265323.0,16,-2.8000000000000003,0.4,0.9,-3.8000000000000003,9.9,0.6000000000000001,23.5,-15.5,-38.1
1698420265340.0,16,-2.7,-1.1,-0.1,-3.8000000000000003,8.4,-0.5,20.1,-25.0,-25.900000000000002
1698420265363.0,16,-0.8,-0.9,1.7000000000000002,-2.0,8.6,1.3,3.1,-64.9,-8.4
1698420265373.0,16,0.7000000000000001,1.2000000000000002,2.6,-0.5,10.600000000000001,2.2,-13.4,-70.0,-7.8
1698420265389.0,16,3.8000000000000003,4.5,3.3000000000000003,2.6,14.0,3.1,-26.0,-57.9,7.1000000000000005
1698420265405.0,16,3.3000000000000003,3.1,3.6,2.2,12.600000000000001,3.5,-2.1999999999999997,-50.5,10.5
1698420265422.0,16,0.6000000000000001,1.7000000000000002,2.7,-0.4,11.200000000000001,2.6,3.6,-35.0,1.7
1698420265439.0,16,-1.9000000000000001,1.4000000000000001,1.6,-3.0,10.9,1.5,-1.4,-9.1,7.0
1698420265456.0,16,-1.3,1.2000000000000002,1.4000000000000001,-2.4000000000000004,10.700000000000001,1.4000000000000001,-5.8,-1.3,15.2
1698420265472.0,16,-0.2,0.5,1.3,-1.2000000000000002,10.100000000000001,1.2000000000000002,-10.2,7.6,29.500000000000004
1698420265489.0,16,0.2,0.0,0.9,-0.7000000000000001,9.600000000000001,0.9,-9.4,9.700000000000001,39.9
1698420265506.0,16,0.30000000000000004,-0.4,0.5,-0.30000000000000004,8.700000000000001,0.4,-9.700000000000001,7.300000000000001,45.7
1698420265523.0,16,0.4,-1.3,0.30000000000000004,-0.2,8.200000000000001,0.4,-11.5,3.5,46.1
1698420265539.0,16,0.5,-2.2,0.30000000000000004,0.0,7.4,0.5,-15.6,-3.1,45.4
1698420265556.0,16,0.7000000000000001,-2.2,0.30000000000000004,0.5,7.1000000000000005,0.30000000000000004,-18.1,1.4,41.6
1698420265572.0,16,0.8,-2.7,0.2,0.6000000000000001,6.800000000000001,0.4,-18.3,2.8,38.2
1698420265589.0,16,0.9,-3.0,0.0,0.8,6.6000000000000005,0.30000000000000004,-14.200000000000001,13.6,31.6
1698420265606.0,16,0.8,-2.9000000000000004,-0.5,0.7000000000000001,6.6000000000000005,-0.2,-10.9,23.3,23.6
1698420265622.0,16,0.5,-2.6,-0.7000000000000001,0.5,6.9,-0.4,-11.4,26.9,19.500000000000004
1698420265639.0,16,0.0,-2.0,-1.0,0.0,7.4,-0.7000000000000001,-13.0,30.5,11.4
1698420265656.0,16,-0.1,-2.1,-1.0,0.0,7.300000000000001,-0.5,-13.100000000000001,28.700000000000003,8.1
1698420265672.0,16,0.0,-2.1,-0.7000000000000001,0.0,7.300000000000001,-0.30000000000000004,-12.6,28.3,6.7
1698420265689.0,16,0.30000000000000004,-2.0,-0.7000000000000001,0.4,7.4,-0.2,-5.300000000000001,25.8,2.4000000000000004
1698420265706.0,16,0.5,-2.2,-1.4000000000000001,0.6000000000000001,7.2,-1.0,10.5,28.8,-5.1
1698420265723.0,16,0.6000000000000001,-2.1,-2.0,0.6000000000000001,7.300000000000001,-1.6,17.400000000000002,32.9,-7.0
1698420265739.0,16,1.0,-0.9,-2.6,1.0,8.5,-2.3000000000000003,22.3,40.6,-4.0
1698420265755.0,16,0.9,0.30000000000000004,-2.2,0.9,9.8,-2.0,17.7,33.300000000000004,2.5
1698420265773.0,16,0.5,0.7000000000000001,-2.0,0.6000000000000001,10.200000000000001,-1.8,10.8,20.4,9.700000000000001
1698420265789.0,16,-1.0,3.5,-1.8,-0.9,13.0,-1.7000000000000002,-2.1999999999999997,-17.400000000000002,23.900000000000002
1698420265806.0,16,-3.2,6.2,-2.3000000000000003,-3.0,15.700000000000001,-2.2,-3.3000000000000003,-12.8,3.1
1698420265823.0,16,-2.7,6.7,-0.6000000000000001,-2.6,16.2,-0.5,-4.3999999999999995,5.0,3.5
1698420265839.0,16,-1.2000000000000002,1.6,-0.4,-1.1,11.200000000000001,-0.30000000000000004,30.599999999999998,-11.5,19.200000000000003
1698420265866.0,16,2.5,1.7000000000000002,0.7000000000000001,2.8000000000000003,11.200000000000001,0.6000000000000001,23.5,-37.6,41.1
1698420265872.0,16,3.5,0.1,0.30000000000000004,3.9000000000000004,9.600000000000001,0.30000000000000004,27.3,-14.4,35.6
1698420265889.0,16,3.7,-1.4000000000000001,1.9000000000000001,4.2,8.1,1.7000000000000002,25.900000000000002,3.3000000000000003,15.8
1698420265906.0,16,3.8000000000000003,-1.2000000000000002,1.7000000000000002,3.2,9.600000000000001,2.8000000000000003,4.7,45.6,4.6000000000000005
1698420265922.0,16,0.2,2.0,3.5,0.7000000000000001,11.5,3.4000000000000004,-8.700000000000001,49.0,-1.8
1698420265940.0,16,-3.6,3.9000000000000004,3.0,-3.1,13.5,2.9000000000000004,-9.4,40.5,-19.0
1698420265955.0,16,-0.4,2.1,1.7000000000000002,0.0,11.700000000000001,1.7000000000000002,-1.0999999999999999,35.9,-15.5
1698420265972.0,16,0.7000000000000001,1.1,1.5,1.1,10.700000000000001,1.5,-1.8,34.6,-13.3
1698420265989.0,16,2.0,2.1,1.0,2.4000000000000004,11.700000000000001,1.0,1.6,17.1,-6.3
1698420266006.0,16,0.1,1.2000000000000002,0.9,0.5,10.8,0.9,7.1000000000000005,-6.1000000000000005,-11.5
1698420266023.0,16,-0.6000000000000001,0.4,0.6000000000000001,-0.30000000000000004,10.0,0.6000000000000001,8.600000000000001,-7.2,-16.6
1698420266039.0,16,-1.0,-0.8,0.4,-0.7000000000000001,8.8,0.4,6.000000000000001,2.8,-27.0
1698420266056.0,16,-0.9,-1.4000000000000001,0.4,-0.7000000000000001,7.800000000000001,0.30000000000000004,3.1,9.5,-34.400000000000006
1698420266072.0,16,-0.7000000000000001,-2.1,0.2,-0.7000000000000001,7.5,0.2,-2.7,18.6,-43.300000000000004
1698420266089.0,16,-0.9,-2.9000000000000004,0.30000000000000004,-1.0,6.7,0.2,-8.3,20.5,-46.900000000000006
1698420266106.0,16,-1.1,-3.2,-0.2,-1.4000000000000001,6.4,-0.2,-14.100000000000001,18.5,-42.7
1698420266123.0,16,-1.4000000000000001,-3.2,-0.2,-1.8,6.4,-0.2,-16.400000000000002,14.900000000000002,-39.50000000000001
1698420266139.0,16,-1.4000000000000001,-3.4000000000000004,-0.1,-1.9000000000000001,6.1000000000000005,0.0,-18.0,5.4,-30.200000000000003
1698420266156.0,16,-0.8,-3.1,-0.5,-1.4000000000000001,6.4,-0.4,-15.100000000000001,-6.8,-19.6
1698420266172.0,16,-0.6000000000000001,-2.8000000000000003,-0.5,-1.2000000000000002,6.6000000000000005,-0.30000000000000004,-14.900000000000002,-13.5,-17.1
1698420266189.0,16,-0.2,-2.2,-0.5,-0.8,7.300000000000001,-0.30000000000000004,-14.200000000000001,-21.3,-12.000000000000002
1698420266206.0,16,-0.1,-1.8,-0.5,-0.8,7.6000000000000005,-0.30000000000000004,-11.700000000000001,-20.6,-8.9
1698420266222.0,16,0.30000000000000004,-2.0,-0.9,-0.4,7.4,-0.6000000000000001,1.9,-19.6,0.30000000000000004
1698420266239.0,16,0.0,-1.9000000000000001,-1.0,-0.7000000000000001,7.5,-0.8,7.2,-21.3,1.5000000000000002
1698420266256.0,16,-1.2000000000000002,-1.5,-1.1,-1.9000000000000001,7.9,-0.9,16.5,-25.1,1.5000000000000002
1698420266272.0,16,-1.7000000000000002,-1.3,-1.1,-2.7,8.4,-1.3,24.000000000000004,-27.400000000000002,-1.3
1698420266289.0,16,-1.8,-0.4,-2.1,-2.5,9.0,-2.0,26.8,-29.200000000000003,-2.4000000000000004
1698420266306.0,16,-0.6000000000000001,1.8,-1.5,-1.3,11.200000000000001,-1.5,12.8,-28.1,-12.100000000000001
1698420266322.0,16,1.4000000000000001,3.0,-1.3,0.6000000000000001,12.4,-1.4000000000000001,-6.000000000000001,13.0,-22.2
1698420266339.0,16,3.2,4.0,-2.4000000000000004,2.4000000000000004,13.4,-2.5,-1.0,28.3,-12.000000000000002
1698420266356.0,16,2.9000000000000004,5.6000000000000005,-3.1,2.1,15.100000000000001,-3.1,9.600000000000001,18.3,0.1
1698420266372.0,16,0.1,4.0,-2.0,-0.7000000000000001,13.5,-2.1,19.0,1.5000000000000002,-19.700000000000003
1698420266389.0,16,-1.2000000000000002,2.7,-1.6,-2.1,12.200000000000001,-1.8,17.599999999999998,10.600000000000001,-30.299999999999997
1698420266406.0,16,-4.5,0.1,1.9000000000000001,-5.5,9.600000000000001,1.7000000000000002,17.599999999999998,-2.1,-38.400000000000006
1698420266423.0,16,-4.4,-0.30000000000000004,0.6000000000000001,-4.5,9.0,-0.30000000000000004,23.8,-10.1,-33.7
1698420266439.0,16,-2.4000000000000004,-0.5,1.2000000000000002,-3.5,9.0,0.9,8.200000000000001,-35.4,-18.7
1698420266456.0,16,0.7000000000000001,1.1,3.9000000000000004,-0.5,10.600000000000001,3.7,-15.6,-67.7,-7.500000000000001
1698420266472.0,16,3.7,3.6,2.4000000000000004,2.5,13.100000000000001,2.3000000000000003,-14.700000000000001,-56.300000000000004,15.7
1698420266489.0,16,3.7,3.9000000000000004,3.1,2.6,13.4,3.0,-10.600000000000001,-54.0,14.900000000000002
1698420266506.0,16,-0.1,2.6,2.4000000000000004,-1.2000000000000002,12.200000000000001,2.4000000000000004,-0.6000000000000001,-34.6,-0.2
1698420266523.0,16,-1.2000000000000002,1.2000000000000002,1.8,-2.3000000000000003,10.700000000000001,1.8,-1.8,-10.5,8.4
1698420266539.0,16,-0.8,0.9,1.4000000000000001,-1.9000000000000001,10.5,1.5,-3.6,-1.4,19.0
1698420266556.0,16,0.0,0.0,1.4000000000000001,-1.0,9.600000000000001,1.5,-5.500000000000001,6.1000000000000005,38.300000000000004
1698420266572.0,16,0.4,-0.4,0.5,-0.4,9.200000000000001,0.6000000000000001,-5.4,8.0,47.400000000000006
1698420266589.0,16,0.4,-0.8,0.30000000000000004,-0.30000000000000004,8.8,0.4,-7.400000000000001,3.9,50.2
1698420266606.0,16,0.8,-1.3,0.4,0.2,8.3,0.5,-13.0,-3.9,51.1
1698420266622.0,16,0.8,-1.4000000000000001,0.4,0.30000000000000004,8.0,0.5,-14.900000000000002,-6.2,46.1
1698420266639.0,16,0.6000000000000001,-1.9000000000000001,0.2,0.30000000000000004,7.7,0.5,-16.400000000000002,-7.300000000000001,41.800000000000004
1698420266656.0,16,0.6000000000000001,-2.4000000000000004,0.1,0.4,7.1000000000000005,0.30000000000000004,-16.2,-1.8,30.4
1698420266672.0,16,0.5,-2.8000000000000003,-0.30000000000000004,0.4,6.800000000000001,0.0,-14.4,6.2,21.700000000000003
1698420266689.0,16,0.5,-2.8000000000000003,-0.6000000000000001,0.4,6.800000000000001,-0.2,-13.9,10.700000000000001,18.0
1698420266706.0,16,0.2,-2.2,-0.8,0.2,7.300000000000001,-0.4,-13.8,20.3,10.700000000000001
1698420266723.0,16,-0.1,-2.1,-1.0,-0.1,7.4,-0.6000000000000001,-13.5,25.6,4.6000000000000005
1698420266739.0,16,-0.2,-2.3000000000000003,-1.1,-0.2,7.2,-0.6000000000000001,-13.6,23.6,3.4
1698420266756.0,16,-0.1,-2.4000000000000004,-0.8,-0.2,7.1000000000000005,-0.4,-13.9,15.5,3.6
1698420266772.0,16,0.4,-2.4000000000000004,-0.30000000000000004,0.4,7.0,0.2,-6.000000000000001,7.699999999999999,2.9
1698420266789.0,16,0.5,-2.5,-0.4,0.5,7.0,0.1,3.3000000000000003,7.699999999999999,0.7
1698420266806.0,16,1.0,-2.4000000000000004,-1.3,1.0,7.0,-0.9,19.8,18.0,-3.9
1698420266822.0,16,1.7000000000000002,-1.3,-2.0,1.7000000000000002,8.1,-1.7000000000000002,26.0,34.1,0.7
1698420266839.0,16,2.0,-0.30000000000000004,-2.2,1.8,9.8,-2.0,24.8,35.1,4.800000000000001
1698420266855.0,16,1.2000000000000002,1.4000000000000001,-2.0,1.3,10.8,-1.8,6.3,11.6,16.3
1698420266872.0,16,-2.0,4.7,-1.6,-1.8,14.100000000000001,-1.3,-7.6,-35.8,20.2
1698420266889.0,16,-3.0,4.9,-3.4000000000000004,-3.9000000000000004,14.9,-2.2,0.0,-34.2,5.7
1698420266906.0,16,-0.6000000000000001,5.6000000000000005,-3.0,-0.5,15.100000000000001,-2.8000000000000003,7.1000000000000005,1.9,5.300000000000001
1698420266922.0,16,1.4000000000000001,3.6,0.7000000000000001,1.6,13.200000000000001,0.8,15.5,6.9,30.799999999999997
1698420266939.0,16,1.0,1.4000000000000001,0.2,1.4000000000000001,11.0,0.2,24.200000000000003,-34.300000000000004,36.1
1698420266956.0,16,2.2,0.9,1.2000000000000002,2.6,10.5,1.2000000000000002,18.8,-6.9,32.5
1698420266972.0,16,3.3000000000000003,-0.2,0.7000000000000001,3.7,9.3,0.6000000000000001,20.5,16.5,22.6
1698420266989.0,16,2.1,-1.5,2.2,2.6,8.0,2.1,18.7,38.400000000000006,-7.8
1698420267005.0,16,0.5,0.1,2.9000000000000004,1.0,9.700000000000001,2.9000000000000004,3.1,68.0,-16.8
1698420267022.0,16,-3.1,3.6,2.9000000000000004,-2.7,13.200000000000001,3.0,-13.3,40.1,-23.2
1698420267039.0,16,-3.7,3.5,2.3000000000000003,-1.9000000000000001,12.200000000000001,1.5,-1.0,27.400000000000002,-24.400000000000002
1698420267056.0,16,-0.1,1.7000000000000002,1.7000000000000002,0.1,11.3,1.7000000000000002,-1.4,28.700000000000003,-19.200000000000003
1698420267072.0,16,1.8,1.5,1.2000000000000002,1.9000000000000001,11.100000000000001,1.3,2.0,11.700000000000001,-9.600000000000001
1698420267089.0,16,1.3,1.3,1.1,0.5,10.8,1.1,4.9,-11.000000000000002,-8.3
1698420267106.0,16,-0.30000000000000004,0.8,0.8,-0.1,10.4,0.8,5.0,-12.9,-11.000000000000002
1698420267122.0,16,-0.8,-0.2,0.7000000000000001,-0.8,9.4,0.7000000000000001,2.1,-9.600000000000001,-20.4
1698420267139.0,16,-0.8,-1.1,0.5,-0.8,8.5,0.5,-1.4,0.5,-32.0
1698420267156.0,16,-0.6000000000000001,-1.6,0.30000000000000004,-0.7000000000000001,8.0,0.4,-3.4,6.2,-36.2
1698420267172.0,16,-0.7000000000000001,-2.3000000000000003,-0.1,-0.9,7.300000000000001,0.0,-8.0,13.3,-40.5
1698420267190.0,16,-0.9,-2.6,-0.30000000000000004,-1.2000000000000002,7.0,-0.2,-12.9,11.6,-38.2
1698420267206.0,16,-0.8,-2.8000000000000003,-0.30000000000000004,-1.3,6.7,-0.1,-13.5,5.1,-35.3
1698420267222.0,16,-1.0,-3.0,-0.2,-1.6,6.6000000000000005,-0.1,-14.900000000000002,-7.6,-27.900000000000002
1698420267239.0,16,-0.9,-3.0,-0.30000000000000004,-1.4000000000000001,6.5,-0.1,-13.4,-18.0,-20.0
1698420267256.0,16,-0.6000000000000001,-2.9000000000000004,-0.30000000000000004,-1.2000000000000002,6.6000000000000005,-0.1,-12.3,-21.400000000000002,-17.5
1698420267272.0,16,0.0,-2.6,-0.5,-0.7000000000000001,6.9,-0.2,-9.0,-25.6,-12.8
1698420267289.0,16,0.30000000000000004,-2.1,-0.8,-0.4,7.300000000000001,-0.5,-2.9,-23.900000000000002,-8.5
1698420267306.0,16,0.30000000000000004,-2.0,-1.0,-0.4,7.4,-0.7000000000000001,1.0,-22.3,-6.000000000000001
1698420267322.0,16,0.0,-2.4000000000000004,-1.5,-0.7000000000000001,7.0,-1.2000000000000002,9.3,-20.5,0.30000000000000004
1698420267339.0,16,-0.6000000000000001,-2.3000000000000003,-1.7000000000000002,-1.4000000000000001,7.1000000000000005,-1.5,14.0,-24.6,7.8
1698420267356.0,16,-1.0,-1.8,-1.6,-1.7000000000000002,7.6000000000000005,-1.4000000000000001,14.200000000000001,-26.0,9.700000000000001
1698420267372.0,16,-1.6,-0.5,-1.6,-2.3000000000000003,8.9,-1.4000000000000001,14.100000000000001,-26.9,8.1
1698420267389.0,16,-1.3,1.5,-1.2000000000000002,-2.0,10.8,-1.1,12.4,-26.700000000000003,1.9
1698420267406.0,16,-0.6000000000000001,2.5,-0.4,-1.3,11.9,-0.30000000000000004,8.799999999999999,-22.3,-4.6000000000000005
1698420267422.0,16,0.6000000000000001,2.0,-0.5,-0.2,11.4,-0.4,2.1999999999999997,12.9,-17.1
1698420267439.0,16,2.4000000000000004,2.3000000000000003,-3.2,1.6,11.700000000000001,-3.2,12.4,19.6,-2.0
1698420267455.0,16,1.2000000000000002,3.2,-4.2,0.5,12.600000000000001,-4.2,17.3,7.8,3.2
1698420267472.0,16,-1.4000000000000001,4.1000000000000005,-2.4000000000000004,-2.2,13.600000000000001,-2.5,17.9,-16.3,-6.4
1698420267490.0,16,-1.5,2.5,-0.30000000000000004,-2.4000000000000004,12.0,-0.5,22.4,-6.2,-21.400000000000002
1698420267506.0,16,-1.5,1.3,-0.30000000000000004,-2.4000000000000004,10.8,-0.5,23.700000000000003,-12.4,-25.8
1698420267522.0,16,-0.4,-1.2000000000000002,0.30000000000000004,-1.4000000000000001,8.3,0.0,12.5,-12.700000000000001,-22.2
1698420267539.0,16,0.2,-1.9000000000000001,2.0,-0.8,7.6000000000000005,1.7000000000000002,6.000000000000001,-35.7,-8.5
1698420267556.0,16,0.30000000000000004,-0.30000000000000004,2.1,-0.5,11.600000000000001,2.2,-3.4,-46.2,-4.9
1698420267572.0,16,1.1,3.7,3.3000000000000003,0.1,13.200000000000001,3.1,-23.3,-34.300000000000004,3.0000000000000004
1698420267589.0,16,2.4000000000000004,4.4,2.5,1.4000000000000001,13.9,2.4000000000000004,-0.9,-28.400000000000002,17.8
1698420267606.0,16,0.6000000000000001,2.9000000000000004,2.1,-0.30000000000000004,12.5,2.0,3.0000000000000004,-24.000000000000004,7.699999999999999
1698420267622.0,16,-2.7,2.0,1.7000000000000002,-3.6,11.600000000000001,1.6,-1.3,-10.9,2.1999999999999997
1698420267639.0,16,-0.8,1.7000000000000002,1.5,-1.7000000000000002,11.3,1.5,-6.8,6.2,16.900000000000002
1698420267657.0,16,0.2,1.0,1.3,-0.7000000000000001,10.600000000000001,1.3,-6.8,12.000000000000002,23.0
1698420267673.0,16,0.5,0.30000000000000004,1.0,-0.30000000000000004,9.9,1.0,-7.2,19.1,30.5
1698420267689.0,16,0.2,-0.30000000000000004,0.6000000000000001,-0.4,9.3,0.6000000000000001,-7.8,15.2,37.4
1698420267705.0,16,0.4,-1.0,0.4,-0.1,8.6,0.5,-8.700000000000001,6.9,41.0
1698420267722.0,16,0.4,-1.4000000000000001,0.1,0.0,8.200000000000001,0.2,-9.1,4.1000000000000005,42.400000000000006
1698420267739.0,16,0.6000000000000001,-1.9000000000000001,0.0,0.30000000000000004,7.7,0.1,-13.4,1.8,43.0
1698420267756.0,16,0.7000000000000001,-2.1,0.0,0.7000000000000001,7.300000000000001,0.2,-15.5,4.1000000000000005,39.9
1698420267776.0,16,0.9,-2.5,-0.1,0.8,7.1000000000000005,0.1,-15.100000000000001,12.4,31.7
1698420267789.0,16,0.9,-2.6,-0.5,0.9,6.9,-0.30000000000000004,-13.6,19.700000000000003,26.1
1698420267805.0,16,0.30000000000000004,-2.3000000000000003,-0.8,0.4,7.2,-0.5,-12.9,28.0,19.3
1698420267825.0,16,0.0,-2.2,-0.9,0.1,7.300000000000001,-0.6000000000000001,-12.5,28.8,16.2
1698420267847.0,16,-0.5,-2.0,-1.2000000000000002,-0.30000000000000004,7.5,-0.8,-8.3,27.2,10.700000000000001
1698420267855.0,16,-0.5,-2.0,-1.2000000000000002,-0.30000000000000004,7.5,-0.8,-8.3,27.2,10.700000000000001
1698420267872.0,16,-0.5,-2.0,-1.1,-0.4,7.4,-0.7000000000000001,-4.6000000000000005,22.8,8.5
1698420267889.0,16,-0.2,-2.5,-1.1,0.0,7.0,-0.8,3.1,19.9,3.0000000000000004
1698420267906.0,16,0.2,-2.3000000000000003,-1.6,0.30000000000000004,7.2,-1.3,13.8,30.5,-2.4000000000000004
1698420267922.0,16,0.7000000000000001,-2.3000000000000003,-1.7000000000000002,0.8,7.1000000000000005,-1.5,18.6,34.800000000000004,-1.3
1698420267939.0,16,1.6,-2.0,-1.8,1.8,7.4,-1.7000000000000002,26.8,32.0,7.2
1698420267956.0,16,1.6,-1.3,-2.0,1.5,8.9,-2.1,23.900000000000002,21.3,18.900000000000002
1698420267973.0,16,0.9,0.5,-2.2,1.2000000000000002,9.9,-2.1,15.2,9.4,26.400000000000002
1698420267989.0,16,-1.1,3.0,-1.1,-0.7000000000000001,12.4,-1.1,-1.2000000000000002,-30.599999999999998,33.800000000000004
1698420268006.0,16,-3.2,4.9,-2.0,-2.8000000000000003,14.3,-2.1,4.800000000000001,-12.200000000000001,8.600000000000001
1698420268023.0,16,-1.4000000000000001,5.7,-1.2000000000000002,-0.9,15.200000000000001,-1.2000000000000002,0.0,4.800000000000001,13.8
1698420268039.0,16,0.6000000000000001,2.8000000000000003,0.6000000000000001,1.2000000000000002,12.3,0.6000000000000001,23.6,-3.2,28.8
1698420268056.0,16,2.8000000000000003,2.7,-0.5,3.5,12.200000000000001,-0.7000000000000001,19.6,-18.400000000000002,44.4
1698420268073.0,16,3.0,1.0,-0.7000000000000001,3.8000000000000003,10.5,-0.9,16.5,-6.000000000000001,32.800000000000004
1698420268089.0,16,1.8,-0.7000000000000001,2.0,2.6,8.8,1.8,14.600000000000001,14.200000000000001,6.8
1698420268106.0,16,0.30000000000000004,1.8,3.1,1.1,11.3,2.9000000000000004,-3.6,49.6,-1.2000000000000002
1698420268123.0,16,-0.6000000000000001,3.3000000000000003,3.4000000000000004,0.2,12.8,3.2,-7.1000000000000005,39.50000000000001,-6.7
1698420268139.0,16,-1.8,2.6,1.7000000000000002,-1.0,12.200000000000001,1.6,-1.5000000000000002,22.1,-25.0
1698420268155.0,16,0.8,1.4000000000000001,2.1,1.4000000000000001,11.0,2.0,-3.2,32.6,-20.6
1698420268172.0,16,1.5,1.5,1.7000000000000002,2.2,11.100000000000001,1.6,-3.9,32.2,-21.200000000000003
1698420268189.0,16,1.5,1.5,1.2000000000000002,2.1,11.200000000000001,1.2000000000000002,-3.6,13.5,-17.3
1698420268205.0,16,0.2,0.5,1.1,0.8,10.200000000000001,1.0,-1.0,-0.5,-19.0
1698420268222.0,16,-0.1,0.30000000000000004,0.9,0.4,9.9,0.8,-0.5,-2.5,-23.900000000000002
1698420268239.0,16,-0.5,-0.30000000000000004,0.7000000000000001,-0.1,9.3,0.7000000000000001,-1.2000000000000002,-1.5000000000000002,-37.0
1698420268256.0,16,-0.6000000000000001,-1.0,0.7000000000000001,-0.4,8.6,0.7000000000000001,-1.7,0.4,-42.800000000000004
1698420268272.0,16,-0.6000000000000001,-1.4000000000000001,0.6000000000000001,-0.6000000000000001,7.800000000000001,0.4,-1.9,6.2,-50.7
1698420268289.0,16,-0.7000000000000001,-2.1,0.30000000000000004,-0.7000000000000001,7.5,0.30000000000000004,-3.6,8.3,-55.7
1698420268306.0,16,-1.0,-2.4000000000000004,0.0,-1.2000000000000002,7.1000000000000005,0.1,-6.5,5.2,-55.5
1698420268322.0,16,-1.1,-2.5,0.0,-1.8,6.9,-0.1,-7.699999999999999,4.2,-53.2
1698420268339.0,16,-1.3,-2.9000000000000004,-0.1,-1.8,6.6000000000000005,0.0,-8.700000000000001,-4.6000000000000005,-43.800000000000004
1698420268355.0,16,-0.9,-2.9000000000000004,-0.5,-1.5,6.6000000000000005,-0.4,-8.4,-6.8,-29.500000000000004
1698420268372.0,16,-0.5,-2.7,-0.6000000000000001,-1.2000000000000002,6.800000000000001,-0.5,-8.799999999999999,-8.600000000000001,-23.8
1698420268389.0,16,-0.2,-2.2,-1.0,-0.9,7.2,-0.8,-8.200000000000001,-9.9,-16.8
1698420268406.0,16,-0.1,-1.8,-1.1,-0.9,7.6000000000000005,-1.0,-6.7,-8.5,-11.6
1698420268422.0,16,0.0,-1.9000000000000001,-1.2000000000000002,-0.7000000000000001,7.300000000000001,-1.2000000000000002,-4.800000000000001,-6.1000000000000005,-8.5
1698420268439.0,16,0.0,-2.3000000000000003,-1.6,-0.8,7.1000000000000005,-1.5,2.1999999999999997,-5.6,-1.6
1698420268456.0,16,-0.4,-2.1,-1.9000000000000001,-1.2000000000000002,7.300000000000001,-1.8,7.2,-16.0,2.7
1698420268472.0,16,-0.7000000000000001,-1.7000000000000002,-1.5,-1.5,7.6000000000000005,-1.4000000000000001,7.8,-20.4,3.4
1698420268489.0,16,-1.2000000000000002,-1.4000000000000001,-1.1,-2.0,7.9,-1.1,10.8,-19.9,2.9
1698420268506.0,16,-0.8,0.0,-1.2000000000000002,-1.6,9.4,-1.2000000000000002,10.4,-25.1,-2.4000000000000004
1698420268522.0,16,-0.4,0.9,-0.30000000000000004,-0.9,11.0,0.0,2.8,-9.1,-18.7
1698420268543.0,16,0.8,1.9000000000000001,-0.9,0.0,11.3,-0.9,0.1,11.4,-22.6
1698420268555.0,16,3.5,3.2,-3.5,2.6,12.600000000000001,-3.6,9.9,16.700000000000003,-8.200000000000001
1698420268572.0,16,0.30000000000000004,4.5,-4.3,-0.6000000000000001,13.9,-4.5,20.4,-1.7,-16.6
1698420268589.0,16,-1.5,4.7,-2.4000000000000004,-2.5,14.100000000000001,-2.6,18.400000000000002,-18.7,-26.6
1698420268606.0,16,-1.4000000000000001,2.9000000000000004,0.30000000000000004,-2.5,12.4,0.0,21.6,-9.0,-37.4
1698420268622.0,16,-1.5,1.0,0.6000000000000001,-3.1,9.0,0.5,24.000000000000004,-8.600000000000001,-40.0
1698420268639.0,16,-1.9000000000000001,-1.2000000000000002,0.2,-3.3000000000000003,8.200000000000001,-0.2,21.8,-13.5,-33.7
1698420268656.0,16,-2.4000000000000004,-1.4000000000000001,1.1,-3.8000000000000003,8.0,0.7000000000000001,12.4,-41.1,-21.200000000000003
1698420268672.0,16,-1.2000000000000002,1.7000000000000002,3.2,-2.7,11.100000000000001,2.9000000000000004,-6.7,-81.6,-11.000000000000002
1698420268689.0,16,0.4,2.9000000000000004,3.0,-1.1,12.3,2.7,-12.700000000000001,-73.30000000000001,-4.800000000000001
1698420268706.0,16,3.2,5.0,2.3000000000000003,1.8,14.4,2.1,-1.0999999999999999,-74.4,9.0
1698420268722.0,16,0.30000000000000004,2.9000000000000004,2.3000000000000003,-1.2000000000000002,12.4,2.1,5.8,-59.400000000000006,-2.9
1698420268739.0,16,-1.0,2.2,2.1,-2.5,11.700000000000001,2.0,4.9,-44.9,-0.8
1698420268756.0,16,-0.4,1.3,1.8,-1.8,10.8,1.7000000000000002,-1.0999999999999999,-20.8,16.400000000000002
1698420268772.0,16,0.2,1.2000000000000002,1.6,-1.1,10.700000000000001,1.5,-4.800000000000001,-6.6000000000000005,30.599999999999998
1698420268791.0,16,0.1,0.8,1.1,-1.1,9.9,0.4,-4.3999999999999995,-4.1000000000000005,42.0
1698420268807.0,16,0.1,-0.1,0.1,-1.0,9.5,0.0,-5.9,-7.1000000000000005,46.800000000000004
1698420268822.0,16,0.2,-1.0,-0.1,-0.7000000000000001,8.6,-0.2,-11.8,-17.5,55.300000000000004
1698420268839.0,16,0.5,-1.3,0.1,-0.4,8.3,0.1,-14.900000000000002,-20.900000000000002,57.9
1698420268855.0,16,0.8,-1.9000000000000001,0.2,0.2,7.6000000000000005,0.30000000000000004,-19.3,-23.3,55.2
1698420268872.0,16,1.1,-2.6,0.30000000000000004,0.6000000000000001,7.0,0.4,-21.200000000000003,-20.2,46.6
1698420268889.0,16,1.2000000000000002,-2.6,0.30000000000000004,0.8,6.9,0.5,-20.2,-15.100000000000001,41.4
1698420268906.0,16,1.3,-2.9000000000000004,-0.1,1.1,6.6000000000000005,0.1,-16.5,-3.7000000000000006,31.6
1698420268922.0,16,1.0,-2.4000000000000004,-0.5,0.8,7.1000000000000005,-0.2,-15.5,6.000000000000001,21.700000000000003
1698420268939.0,16,0.8,-2.0,-0.8,0.6000000000000001,7.6000000000000005,-0.5,-14.800000000000002,10.0,16.900000000000002
1698420268956.0,16,0.2,-2.0,-1.1,0.1,7.5,-0.7000000000000001,-13.8,11.6,9.0
1698420268972.0,16,-0.1,-2.1,-1.1,-0.2,7.4,-0.7000000000000001,-13.5,15.2,7.500000000000001
1698420268989.0,16,-0.1,-2.1,-1.0,-0.2,7.4,-0.6000000000000001,-13.3,15.8,6.8
1698420269006.0,16,0.30000000000000004,-2.2,-0.7000000000000001,0.30000000000000004,7.2,-0.2,-8.0,17.0,4.6000000000000005
1698420269022.0,16,1.0,-2.6,-1.1,1.0,6.800000000000001,-0.7000000000000001,5.500000000000001,22.900000000000002,-0.4
1698420269039.0,16,1.2000000000000002,-2.7,-1.7000000000000002,1.2000000000000002,7.1000000000000005,-2.0,14.4,36.7,-5.0
1698420269056.0,16,1.4000000000000001,-1.9000000000000001,-2.7,1.4000000000000001,7.6000000000000005,-2.4000000000000004,13.200000000000001,42.1,-3.5
1698420269072.0,16,1.2000000000000002,0.0,-2.1,1.1,9.4,-1.8,7.0,31.900000000000002,6.000000000000001
1698420269089.0,16,0.6000000000000001,0.7000000000000001,-1.7000000000000002,-0.2,11.0,-1.0,2.1999999999999997,13.6,11.8
1698420269106.0,16,-1.2000000000000002,3.3000000000000003,-1.3,-1.1,12.8,-1.1,-10.1,-29.600000000000005,21.0
1698420269122.0,16,-2.8000000000000003,6.0,-2.7,-2.8000000000000003,15.4,-2.4000000000000004,-4.5,-23.3,6.8
1698420269139.0,16,-1.8,6.300000000000001,-2.3000000000000003,-1.8,15.8,-2.0,-6.7,-6.3,8.5
1698420269156.0,16,0.5,2.4000000000000004,-0.30000000000000004,0.6000000000000001,11.9,-0.1,17.7,-5.300000000000001,28.500000000000004
1698420269173.0,16,3.0,2.3000000000000003,0.4,3.3000000000000003,11.9,0.6000000000000001,20.2,-8.799999999999999,45.2
1698420269189.0,16,3.1,1.8,0.4,3.4000000000000004,11.4,0.6000000000000001,21.6,11.8,43.2
1698420269206.0,16,2.5,0.0,1.2000000000000002,3.0,9.5,1.3,19.6,10.8,24.5
1698420269222.0,16,0.5,1.4000000000000001,2.4000000000000004,1.1,11.0,2.5,5.0,53.1,12.3
1698420269239.0,16,-1.8,2.2,2.9000000000000004,-1.3,11.700000000000001,3.0,0.0,36.5,-7.500000000000001
1698420269256.0,16,-1.6,1.3,1.7000000000000002,-1.1,10.9,1.8,0.2,36.3,-16.700000000000003
1698420269272.0,16,0.2,1.0,1.8,0.6000000000000001,10.600000000000001,1.9000000000000001,-6.2,45.1,-21.900000000000002
1698420269289.0,16,0.7000000000000001,1.5,1.7000000000000002,1.1,11.100000000000001,1.8,-8.0,43.1,-24.1
1698420269306.0,16,0.7000000000000001,1.8,1.2000000000000002,1.0,11.4,1.4000000000000001,-5.2,24.400000000000002,-21.400000000000002
1698420269322.0,16,0.1,1.0,0.8,0.4,10.600000000000001,1.0,0.8,7.300000000000001,-14.4
1698420269339.0,16,-0.5,-0.2,0.4,-0.30000000000000004,9.5,0.6000000000000001,2.7,0.30000000000000004,-20.2
1698420269356.0,16,-0.6000000000000001,-0.6000000000000001,0.4,-0.4,9.1,0.6000000000000001,1.4,-0.1,-24.3
1698420269372.0,16,-0.7000000000000001,-1.1,0.4,-0.7000000000000001,8.6,0.6000000000000001,-1.5000000000000002,6.3,-33.400000000000006
1698420269389.0,16,-0.7000000000000001,-1.9000000000000001,0.2,-0.8,7.7,0.5,-2.8,15.100000000000001,-40.3
1698420269406.0,16,-0.6000000000000001,-2.4000000000000004,0.1,-0.7000000000000001,7.2,0.30000000000000004,-3.5,18.1,-41.9
1698420269422.0,16,-0.6000000000000001,-3.0,-0.2,-0.9,6.6000000000000005,0.0,-6.7,17.7,-38.800000000000004
1698420269442.0,16,-0.9,-3.0,-0.30000000000000004,-1.4000000000000001,6.5,-0.1,-8.700000000000001,11.6,-32.1
1698420269455.0,16,-1.0,-3.0,-0.30000000000000004,-1.5,6.5,0.0,-8.600000000000001,7.8,-26.500000000000004
1698420269472.0,16,-1.0,-3.2,-0.6000000000000001,-1.6,6.300000000000001,-0.30000000000000004,-9.200000000000001,1.7,-15.2
1698420269489.0,16,-0.6000000000000001,-2.7,-0.7000000000000001,-1.2000000000000002,6.800000000000001,-0.4,-9.5,-1.2000000000000002,-9.5
1698420269506.0,16,-0.5,-2.4000000000000004,-0.9,-1.1,7.0,-0.5,-9.4,-1.7,-7.9
1698420269522.0,16,-0.4,-2.1,-1.2000000000000002,-1.0,7.4,-0.8,-7.699999999999999,-0.9,-5.4
1698420269539.0,16,-0.30000000000000004,-2.0,-1.5,-0.9,7.4,-1.1,-5.4,1.0,-0.8
1698420269556.0,16,-0.4,-2.1,-1.6,-1.0,7.300000000000001,-1.2000000000000002,-3.3000000000000003,1.0999999999999999,2.1
1698420269572.0,16,-1.1,-2.2,-1.4000000000000001,-1.7000000000000002,7.2,-1.1,3.3000000000000003,-3.3000000000000003,7.400000000000001
1698420269589.0,16,-1.8,-1.6,-1.2000000000000002,-2.4000000000000004,7.800000000000001,-0.9,10.700000000000001,-8.200000000000001,10.0
1698420269606.0,16,-1.9000000000000001,-1.3,-1.3,-2.5,8.1,-1.0,13.3,-10.600000000000001,9.3
1698420269622.0,16,-1.2000000000000002,0.5,-2.2,-1.7000000000000002,9.9,-1.9000000000000001,15.399999999999999,-17.8,4.5
1698420269639.0,16,-0.2,2.8000000000000003,-0.1,-0.8,12.200000000000001,0.1,6.000000000000001,-13.6,-13.4
1698420269656.0,16,0.2,2.6,-0.7000000000000001,-0.4,12.0,-0.5,3.2,5.0,-21.400000000000002
1698420269673.0,16,3.1,3.0,-3.3000000000000003,2.5,12.4,-3.2,11.2,20.3,-9.0
1698420269689.0,16,0.6000000000000001,5.5,-3.4000000000000004,0.0,14.9,-3.4000000000000004,16.3,-1.6,-6.8
1698420269707.0,16,-0.8,5.2,-0.1,-1.6,14.700000000000001,-0.1,27.5,-11.5,-23.900000000000002
1698420269722.0,16,-1.2000000000000002,3.1,0.1,-2.0,12.600000000000001,0.0,35.4,3.1,-31.7
1698420269739.0,16,-2.8000000000000003,-0.1,-0.7000000000000001,-3.8000000000000003,9.5,-0.9,37.900000000000006,-8.0,-33.1
1698420269756.0,16,-3.2,-1.3,-0.9,-4.2,8.200000000000001,-1.1,30.200000000000003,-8.0,-30.299999999999997
1698420269772.0,16,-1.7000000000000002,-1.4000000000000001,1.5,-2.8000000000000003,8.1,1.1,16.0,-36.0,-8.600000000000001
1698420269790.0,16,0.0,1.2000000000000002,2.6,-1.1,10.700000000000001,2.3000000000000003,-6.5,-62.50000000000001,-3.7000000000000006
1698420269805.0,16,0.9,2.7,2.9000000000000004,-0.2,12.200000000000001,2.6,-16.400000000000002,-58.3,0.6000000000000001
1698420269822.0,16,3.2,4.800000000000001,2.7,2.2,14.3,2.5,-2.9,-54.9,18.8
1698420269839.0,16,-0.1,2.5,2.4000000000000004,-1.0,12.100000000000001,2.2,5.6,-44.2,4.300000000000001
1698420269855.0,16,-1.3,2.0,2.0,-2.4000000000000004,11.3,1.9000000000000001,3.6,-34.6,3.9
1698420269872.0,16,-0.8,1.5,1.8,-1.7000000000000002,11.100000000000001,1.7000000000000002,-1.3,-14.200000000000001,18.3
1698420269889.0,16,0.7000000000000001,0.7000000000000001,1.2000000000000002,-0.2,10.3,1.1,-4.0,2.1999999999999997,32.0
1698420269905.0,16,0.8,-0.1,0.8,0.1,9.600000000000001,0.8,-4.5,6.7,37.5
1698420269922.0,16,0.9,-0.5,0.4,0.2,9.200000000000001,0.4,-5.6,5.6,39.6
1698420269939.0,16,0.8,-1.2000000000000002,0.4,0.30000000000000004,8.4,0.4,-10.0,-3.0000000000000004,40.2
1698420269955.0,16,0.7000000000000001,-1.7000000000000002,0.2,0.30000000000000004,7.9,0.2,-14.600000000000001,-12.200000000000001,38.2
1698420269972.0,16,0.7000000000000001,-1.9000000000000001,0.30000000000000004,0.4,7.7,0.30000000000000004,-16.8,-12.5,36.2
1698420269989.0,16,0.8,-2.4000000000000004,0.2,0.6000000000000001,7.1000000000000005,0.30000000000000004,-19.1,-10.700000000000001,30.5
1698420270005.0,16,0.8,-2.7,-0.2,0.7000000000000001,6.9,0.0,-16.700000000000003,-0.5,25.0
1698420270022.0,16,0.8,-2.9000000000000004,-0.30000000000000004,0.8,6.7,-0.1,-16.6,1.2000000000000002,21.1
1698420270038.0,16,0.7000000000000001,-2.9000000000000004,-0.7000000000000001,0.7000000000000001,6.6000000000000005,-0.4,-13.8,11.1,14.700000000000001
1698420270055.0,16,0.4,-2.6,-0.8,0.4,6.9,-0.5,-9.8,19.200000000000003,9.700000000000001
1698420270072.0,16,0.2,-2.6,-0.8,0.2,6.9,-0.6000000000000001,-7.300000000000001,21.8,7.6
1698420270089.0,16,0.0,-2.5,-1.2000000000000002,0.1,7.0,-0.9,-2.1,25.400000000000002,5.4
1698420270105.0,16,0.1,-2.4000000000000004,-1.0,0.2,7.0,-0.7000000000000001,3.6,26.3,5.0
1698420270122.0,16,0.30000000000000004,-2.5,-1.0,0.4,6.9,-0.7000000000000001,8.600000000000001,28.500000000000004,4.9
1698420270139.0,16,1.1,-2.6,-1.4000000000000001,1.2000000000000002,6.9,-1.2000000000000002,18.400000000000002,38.800000000000004,5.2
1698420270156.0,16,1.7000000000000002,-1.8,-2.0,1.9000000000000001,7.6000000000000005,-1.9000000000000001,21.5,44.9,10.9
1698420270173.0,16,1.7000000000000002,-1.2000000000000002,-2.1,1.9000000000000001,8.200000000000001,-2.0,20.8,42.300000000000004,16.0
1698420270189.0,16,0.7000000000000001,0.4,-2.2,1.0,9.8,-2.2,10.2,27.2,28.0
1698420270205.0,16,-1.5,3.3000000000000003,-1.7000000000000002,-1.1,12.700000000000001,-1.7000000000000002,-7.0,-12.6,34.400000000000006
1698420270223.0,16,-3.1,4.4,-1.9000000000000001,-2.7,13.8,-1.9000000000000001,-4.800000000000001,-23.0,24.5
1698420270239.0,16,-0.6000000000000001,4.6000000000000005,-3.4000000000000004,-0.2,14.100000000000001,-3.5,12.700000000000001,-6.9,12.3
1698420270255.0,16,2.3000000000000003,4.7,-1.2000000000000002,2.8000000000000003,14.200000000000001,-1.3,8.3,8.4,22.5
1698420270272.0,16,0.7000000000000001,2.6,-0.2,1.3,12.100000000000001,-0.30000000000000004,18.1,-1.0999999999999999,21.900000000000002
1698420270289.0,16,0.2,1.6,0.5,0.9,11.100000000000001,0.30000000000000004,18.2,-20.5,37.0
1698420270305.0,16,2.2,-0.8,0.2,3.0,8.700000000000001,0.0,19.1,-1.6,22.6
1698420270322.0,16,2.1,-1.5,2.2,2.9000000000000004,8.0,1.9000000000000001,11.3,8.4,9.8
1698420270339.0,16,0.4,1.7000000000000002,2.7,1.2000000000000002,11.200000000000001,2.4000000000000004,-5.9,54.7,-3.8
1698420270355.0,16,-2.0,3.4000000000000004,3.5,-1.3,12.9,3.3000000000000003,-10.8,30.4,-26.0
1698420270372.0,16,-2.1,2.6,2.2,-1.4000000000000001,12.100000000000001,2.1,-5.300000000000001,21.400000000000002,-31.5
1698420270389.0,16,0.4,2.1,2.2,1.0,11.700000000000001,2.1,-7.6,25.3,-25.6
1698420270406.0,16,1.8,2.3000000000000003,1.3,2.3000000000000003,11.9,1.2000000000000002,-8.4,24.400000000000002,-25.3
1698420270422.0,16,1.5,2.1,1.2000000000000002,1.3,11.3,0.9,-7.500000000000001,13.9,-22.5
1698420270439.0,16,0.2,1.1,0.7000000000000001,0.7000000000000001,10.700000000000001,0.7000000000000001,-4.2,-4.6000000000000005,-20.7
1698420270455.0,16,-0.4,0.0,0.4,-0.1,9.600000000000001,0.4,-3.8,-7.699999999999999,-27.900000000000002
1698420270472.0,16,-0.5,-0.5,0.30000000000000004,-0.30000000000000004,9.200000000000001,0.4,-4.7,-5.8,-33.6
1698420270489.0,16,-0.5,-1.6,0.30000000000000004,-0.4,8.0,0.4,-7.1000000000000005,0.30000000000000004,-45.800000000000004
1698420270505.0,16,-0.5,-2.3000000000000003,0.0,-0.5,7.4,0.1,-9.9,4.1000000000000005,-55.2
1698420270522.0,16,-0.6000000000000001,-2.5,0.0,-0.7000000000000001,7.1000000000000005,0.1,-11.5,3.0000000000000004,-58.3
1698420270539.0,16,-1.0,-3.1,0.1,-1.3,6.4,0.30000000000000004,-13.700000000000001,1.5000000000000002,-56.5
1698420270555.0,16,-1.0,-3.4000000000000004,-0.30000000000000004,-1.6,6.1000000000000005,-0.1,-15.000000000000002,-3.4,-46.5
1698420270572.0,16,-1.0,-3.4000000000000004,-0.5,-1.7000000000000002,6.2,-0.2,-15.8,-9.4,-34.2
1698420270589.0,16,-0.8,-3.2,-0.6000000000000001,-1.5,6.300000000000001,-0.30000000000000004,-14.500000000000002,-12.6,-27.5
1698420270606.0,16,-0.30000000000000004,-2.4000000000000004,-0.8,-1.1,7.1000000000000005,-0.5,-11.4,-16.5,-16.700000000000003
1698420270622.0,16,0.0,-2.2,-0.9,-0.8,7.2,-0.6000000000000001,-10.600000000000001,-17.0,-12.100000000000001
1698420270639.0,16,0.30000000000000004,-1.9000000000000001,-1.0,-0.5,7.5,-0.7000000000000001,-8.799999999999999,-14.100000000000001,-5.4
1698420270655.0,16,0.0,-2.1,-1.2000000000000002,-0.8,7.300000000000001,-0.8,-3.5,-14.4,-1.0
1698420270672.0,16,-0.4,-2.0,-1.4000000000000001,-1.3,7.4,-1.0,0.0,-16.6,0.7
1698420270689.0,16,-1.4000000000000001,-1.7000000000000002,-1.6,-2.2,7.7,-1.3,8.5,-24.400000000000002,2.1
1698420270706.0,16,-1.5,-1.5,-1.6,-2.3000000000000003,7.9,-1.3,15.2,-22.5,1.0
1698420270722.0,16,-1.1,-1.2000000000000002,-1.9000000000000001,-2.0,8.1,-1.7000000000000002,18.2,-17.7,-0.30000000000000004
1698420270739.0,16,0.0,1.2000000000000002,-1.7000000000000002,-0.9,10.600000000000001,-1.5,13.0,-13.5,-8.700000000000001
1698420270756.0,16,0.4,1.9000000000000001,-0.6000000000000001,-0.5,11.3,-0.4,0.6000000000000001,13.3,-24.5
1698420270772.0,16,1.6,3.0,-3.3000000000000003,0.7000000000000001,12.4,-3.2,9.4,22.8,-13.4
1698420270789.0,16,0.7000000000000001,3.7,-4.1000000000000005,-0.2,13.100000000000001,-4.1000000000000005,16.0,12.700000000000001,-9.0
1698420270805.0,16,-1.9000000000000001,5.1000000000000005,-2.8000000000000003,-2.9000000000000004,14.5,-2.9000000000000004,20.7,-20.1,-18.0
1698420270822.0,16,-1.7000000000000002,4.4,-0.8,-2.8000000000000003,13.8,-0.8,18.0,-19.3,-24.200000000000003
1698420270840.0,16,0.4,0.5,2.2,-0.7000000000000001,10.0,2.1,23.700000000000003,6.2,-31.6
1698420270856.0,16,0.5,-1.5,-1.2000000000000002,-0.8,7.9,-1.4000000000000001,22.7,-0.6000000000000001,-32.5
1698420270872.0,16,-0.4,-1.2000000000000002,2.4000000000000004,-1.7000000000000002,8.200000000000001,2.2,4.3999999999999995,-33.900000000000006,-20.900000000000002
1698420270889.0,16,-0.4,1.4000000000000001,1.9000000000000001,-1.8,10.8,1.7000000000000002,-7.6,-46.800000000000004,-13.100000000000001
1698420270906.0,16,0.6000000000000001,6.7,3.4000000000000004,-0.8,16.2,3.4000000000000004,-19.0,-42.800000000000004,10.0
1698420270922.0,16,1.0,4.5,2.8000000000000003,-0.30000000000000004,14.0,2.8000000000000003,-4.2,-40.5,6.3
1698420270939.0,16,-0.7000000000000001,2.6,2.9000000000000004,-2.0,12.200000000000001,2.9000000000000004,-5.0,-38.800000000000004,-6.3
1698420270956.0,16,-2.1,1.7000000000000002,2.9000000000000004,-3.5,11.200000000000001,3.0,-10.600000000000001,-25.1,0.6000000000000001
1698420270972.0,16,-0.4,1.0,1.8,-1.8,10.5,1.9000000000000001,-12.3,-7.699999999999999,24.8
1698420270989.0,16,0.0,0.8,1.9000000000000001,-1.2000000000000002,10.4,2.1,-13.6,-3.3000000000000003,32.5
1698420271005.0,16,0.1,0.4,1.0,-1.0,10.0,1.2000000000000002,-12.700000000000001,3.2,39.00000000000001
1698420271022.0,16,0.4,-0.4,0.6000000000000001,-0.6000000000000001,9.200000000000001,0.9,-14.4,-4.6000000000000005,43.7
1698420271039.0,16,0.4,-0.7000000000000001,0.6000000000000001,-0.5,8.9,0.9,-15.000000000000002,-8.200000000000001,45.4
1698420271055.0,16,0.5,-1.2000000000000002,0.2,-0.2,8.4,0.6000000000000001,-17.5,-8.9,46.7
1698420271072.0,16,0.6000000000000001,-1.8,0.1,0.0,7.800000000000001,0.6000000000000001,-19.200000000000003,-4.1000000000000005,41.2
1698420271089.0,16,0.8,-2.1,-0.2,0.2,7.5,0.30000000000000004,-19.6,-2.5,37.1
1698420271106.0,16,1.0,-2.2,-0.5,0.6000000000000001,7.300000000000001,0.1,-20.8,3.4,30.4
1698420271122.0,16,0.9,-2.0,-0.7000000000000001,0.6000000000000001,7.6000000000000005,-0.1,-18.6,2.8,19.500000000000004
1698420271139.0,16,0.7000000000000001,-2.0,-0.7000000000000001,0.4,7.5,0.0,-16.2,3.6,15.6
1698420271155.0,16,0.1,-2.7,-1.0,-0.2,6.800000000000001,-0.30000000000000004,-10.8,3.1,8.9
1698420271172.0,16,-0.1,-3.3000000000000003,-0.5,-0.4,6.2,0.1,-3.7000000000000006,8.200000000000001,6.000000000000001
1698420271189.0,16,-0.1,-3.4000000000000004,-0.6000000000000001,-0.4,6.1000000000000005,0.30000000000000004,1.5000000000000002,11.1,4.6000000000000005
1698420271206.0,16,0.1,-3.3000000000000003,-1.2000000000000002,-0.2,6.1000000000000005,-0.6000000000000001,11.2,18.5,0.30000000000000004
1698420271222.0,16,0.4,-3.5,-1.6,0.2,5.9,-1.0,13.0,28.1,-0.9
1698420271239.0,16,1.8,-3.3000000000000003,-1.7000000000000002,1.5,6.1000000000000005,-1.2000000000000002,16.8,47.900000000000006,2.0
1698420271255.0,16,2.9000000000000004,-2.1,-2.0,2.7,7.300000000000001,-1.5,18.400000000000002,66.2,9.700000000000001
1698420271272.0,16,1.7000000000000002,-0.5,-2.4000000000000004,1.6,8.9,-2.0,22.8,64.8,18.3
1698420271289.0,16,0.2,0.2,-3.0,0.1,9.600000000000001,-2.6,24.8,61.900000000000006,21.5
1698420271305.0,16,-2.3000000000000003,2.8000000000000003,-3.2,-2.4000000000000004,12.200000000000001,-3.0,24.6,48.00000000000001,28.900000000000002
1698420271322.0,16,-3.1,3.8000000000000003,-3.0,-3.1,13.3,-2.9000000000000004,26.700000000000003,15.299999999999999,16.3
1698420271339.0,16,-2.2,3.0,-3.0,-0.8,13.5,-2.4000000000000004,32.800000000000004,10.3,8.1
1698420271356.0,16,-0.9,6.5,1.4000000000000001,-0.9,16.0,1.3,6.1000000000000005,29.400000000000002,17.0
1698420271372.0,16,-6.300000000000001,0.7000000000000001,0.8,-6.2,10.3,0.7000000000000001,28.400000000000002,-29.900000000000006,10.0
1698420271389.0,16,-1.3,-1.5,1.2000000000000002,3.0,9.3,-0.4,37.0,-54.9,23.1
1698420271405.0,16,5.800000000000001,-0.2,0.30000000000000004,6.0,9.3,0.1,22.1,-23.5,38.5
1698420271422.0,16,4.7,0.9,2.7,5.0,10.4,2.5,6.6000000000000005,10.600000000000001,19.8
1698420271439.0,16,0.0,3.7,4.9,0.4,13.3,4.7,-20.0,22.1,17.599999999999998
1698420271456.0,16,-1.3,3.8000000000000003,4.2,-0.9,13.4,4.1000000000000005,-16.400000000000002,23.1,13.9
1698420271472.0,16,0.2,3.0,3.0,0.7000000000000001,12.600000000000001,3.0,-13.700000000000001,36.3,7.8
1698420271489.0,16,0.6000000000000001,2.7,3.0,1.1,12.3,3.0,-12.200000000000001,37.0,1.8
1698420271505.0,16,-0.1,2.3000000000000003,1.5,0.30000000000000004,11.9,1.5,-7.500000000000001,18.900000000000002,-4.9
1698420271522.0,16,-0.30000000000000004,2.2,1.0,0.1,11.8,1.1,-5.300000000000001,1.9,-8.700000000000001
1698420271539.0,16,-0.4,1.9000000000000001,0.7000000000000001,0.0,11.600000000000001,0.8,-3.1,-5.300000000000001,-15.7
1698420271556.0,16,-0.8,0.6000000000000001,0.30000000000000004,-0.5,10.3,0.4,-3.1,-7.500000000000001,-34.0
1698420271572.0,16,-1.0,-0.4,0.0,-0.8,9.3,0.1,-6.000000000000001,2.6,-50.7
1698420271589.0,16,-1.0,-0.9,0.0,-1.0,8.700000000000001,0.1,-8.5,8.4,-56.0
1698420271606.0,16,-1.0,-1.8,-0.30000000000000004,-1.1,7.800000000000001,-0.1,-9.8,13.5,-56.2
1698420271622.0,16,-0.8,-2.6,-0.4,-1.1,7.0,-0.2,-9.5,5.6,-48.300000000000004
1698420271639.0,16,-0.6000000000000001,-2.8000000000000003,-0.5,-1.1,6.800000000000001,-0.30000000000000004,-9.200000000000001,2.8,-43.50000000000001
1698420271656.0,16,-0.4,-3.1,-0.30000000000000004,-1.0,6.5,-0.1,-8.5,-6.3,-32.2
1698420271672.0,16,-0.2,-3.3000000000000003,-0.30000000000000004,-0.9,6.2,0.0,-7.500000000000001,-8.5,-23.900000000000002
1698420271689.0,16,-0.1,-3.3000000000000003,-0.30000000000000004,-0.8,6.2,0.0,-7.400000000000001,-8.700000000000001,-20.6
1698420271706.0,16,-0.1,-2.5,-0.5,-0.8,7.0,-0.2,-5.9,-6.1000000000000005,-16.5
1698420271722.0,16,-0.2,-2.1,-1.0,-0.9,7.4,-0.7000000000000001,-2.3000000000000003,-1.4,-13.700000000000001
1698420271739.0,16,-0.2,-2.1,-1.1,-1.0,7.1000000000000005,-0.9,-1.0999999999999999,-0.5,-9.600000000000001
1698420271756.0,16,-0.2,-2.4000000000000004,-1.3,-1.0,7.0,-1.0,-2.1999999999999997,1.0,1.0999999999999999
1698420271772.0,16,-0.5,-2.2,-1.0,-1.2000000000000002,7.2,-0.8,-3.6,0.4,11.6
1698420271789.0,16,-1.1,-2.1,-0.5,-1.8,7.300000000000001,-0.2,4.300000000000001,-3.6,20.8
1698420271815.0,16,-1.7000000000000002,-1.9000000000000001,-0.8,-2.4000000000000004,7.4,-0.6000000000000001,20.1,-5.1,22.4
1698420271822.0,16,-1.7000000000000002,-1.6,-1.9000000000000001,-2.3000000000000003,7.800000000000001,-1.7000000000000002,25.2,-4.0,18.7
1698420271839.0,16,-0.5,0.1,-3.3000000000000003,-1.1,9.5,-3.2,22.6,-13.0,8.799999999999999
1698420271855.0,16,0.1,1.6,-2.0,-0.5,11.0,-2.0,13.5,-12.8,2.7
1698420271872.0,16,0.8,2.7,-1.3,0.2,12.100000000000001,-1.3,2.5,11.4,-11.000000000000002
1698420271889.0,16,1.7000000000000002,2.4000000000000004,-3.0,1.1,11.8,-3.0,9.0,26.500000000000004,-0.2
1698420271906.0,16,0.5,2.1,-3.1,-0.1,11.600000000000001,-3.1,14.4,18.8,5.9
1698420271922.0,16,-0.9,4.3,-1.8,-1.5,13.8,-2.0,17.400000000000002,-11.3,4.800000000000001
1698420271939.0,16,-0.2,2.8000000000000003,1.1,-0.8,12.3,0.9,25.400000000000002,-14.4,-11.5
1698420271955.0,16,-0.6000000000000001,0.8,1.3,-1.7000000000000002,10.200000000000001,1.1,32.800000000000004,-1.0999999999999999,-19.8
1698420271972.0,16,-0.9,0.9,2.1,-1.7000000000000002,10.4,1.8,19.500000000000004,-25.6,-35.199999999999996
1698420271989.0,16,0.4,1.5,4.4,-0.4,11.0,4.1000000000000005,-11.4,-46.900000000000006,-30.799999999999997
1698420272005.0,16,0.8,2.3000000000000003,4.0,-0.1,11.8,3.8000000000000003,-16.0,-50.9,-18.900000000000002
1698420272022.0,16,0.4,3.2,2.4000000000000004,-0.5,12.8,2.3000000000000003,1.8,-47.1,1.2000000000000002
1698420272039.0,16,-2.1,3.4000000000000004,1.6,-3.0,13.0,1.5,2.1999999999999997,-40.0,-3.8
1698420272056.0,16,-2.4000000000000004,3.5,2.0,-3.4000000000000004,13.100000000000001,1.8,-0.4,-37.300000000000004,-5.7
1698420272072.0,16,0.30000000000000004,2.2,1.7000000000000002,-0.6000000000000001,11.8,1.6,-1.9,-21.200000000000003,3.3000000000000003
1698420272089.0,16,1.5,1.0,1.7000000000000002,0.9,9.8,1.4000000000000001,-0.6000000000000001,-9.4,21.3
1698420272106.0,16,1.1,-0.1,1.2000000000000002,0.7000000000000001,9.5,1.1,-2.5,-3.2,27.1
1698420272122.0,16,0.9,-0.30000000000000004,1.2000000000000002,0.1,9.3,1.2000000000000002,-5.300000000000001,1.9,36.2
1698420272139.0,16,0.5,-1.1,0.4,-0.1,8.5,0.4,-6.8,-2.3000000000000003,41.1
1698420272155.0,16,0.5,-1.5,0.1,0.0,8.1,0.1,-10.600000000000001,-4.6000000000000005,41.0
1698420272172.0,16,0.4,-2.4000000000000004,0.2,0.1,7.2,0.30000000000000004,-18.8,-8.4,40.6
1698420272189.0,16,0.7000000000000001,-2.3000000000000003,0.30000000000000004,0.5,7.300000000000001,0.4,-23.900000000000002,-3.1,39.6
1698420272206.0,16,1.1,-2.3000000000000003,0.2,0.9,7.2,0.4,-24.6,1.9,36.800000000000004
1698420272223.0,16,1.3,-2.5,0.2,1.2000000000000002,7.1000000000000005,0.5,-21.900000000000002,13.3,30.7
1698420272239.0,16,0.9,-2.5,-0.2,0.9,7.0,0.1,-15.6,24.8,21.6
1698420272256.0,16,-0.2,-2.3000000000000003,-0.7000000000000001,-0.1,7.300000000000001,-0.4,-10.600000000000001,32.5,11.5
1698420272272.0,16,-0.6000000000000001,-2.1,-1.0,-0.5,7.4,-0.6000000000000001,-8.4,33.0,8.4
1698420272289.0,16,-0.8,-2.1,-1.2000000000000002,-0.7000000000000001,7.300000000000001,-0.8,-5.6,24.400000000000002,1.5000000000000002
1698420272305.0,16,-0.6000000000000001,-2.2,-1.3,-0.6000000000000001,7.2,-1.0,-1.7,16.700000000000003,-5.8
1698420272322.0,16,-0.5,-2.4000000000000004,-1.2000000000000002,-0.5,7.1000000000000005,-0.8,1.9,14.500000000000002,-9.0
1698420272339.0,16,0.0,-2.8000000000000003,-1.2000000000000002,0.0,6.7,-0.8,12.8,15.6,-12.700000000000001
1698420272355.0,16,1.2000000000000002,-2.5,-2.0,1.2000000000000002,7.0,-1.7000000000000002,18.900000000000002,26.8,-10.0
1698420272372.0,16,1.7000000000000002,-1.9000000000000001,-2.1,1.7000000000000002,7.5,-1.9000000000000001,17.8,32.1,-6.2
1698420272389.0,16,2.1,-0.2,-1.8,2.1,9.200000000000001,-1.7000000000000002,15.9,37.300000000000004,2.9
1698420272405.0,16,1.2000000000000002,1.3,-1.5,1.2000000000000002,10.700000000000001,-1.4000000000000001,11.700000000000001,21.400000000000002,15.9
1698420272422.0,16,0.4,2.2,-1.2000000000000002,0.5,11.700000000000001,-1.1,4.7,2.1,22.3
1698420272439.0,16,-2.9000000000000004,3.9000000000000004,-1.9000000000000001,-2.8000000000000003,13.3,-1.8,6.6000000000000005,-14.900000000000002,7.8
1698420272457.0,16,-1.2000000000000002,4.1000000000000005,-3.1,-1.1,13.600000000000001,-3.2,14.900000000000002,11.000000000000002,-3.7000000000000006
1698420272472.0,16,0.4,4.5,-1.7000000000000002,0.5,14.0,-1.8,9.700000000000001,20.0,4.0
1698420272489.0,16,-0.2,1.3,0.30000000000000004,-0.1,10.9,0.2,33.1,6.2,12.200000000000001
1698420272505.0,16,0.7000000000000001,1.0,-0.1,0.9,10.5,-0.4,29.900000000000006,-13.6,31.3
1698420272522.0,16,2.2,0.6000000000000001,1.3,2.4000000000000004,10.100000000000001,1.0,26.3,0.6000000000000001,33.6
1698420272539.0,16,1.8,0.9,2.0,2.2,10.4,1.6,12.4,16.900000000000002,19.200000000000003
1698420272555.0,16,-0.2,1.7000000000000002,4.3,0.2,11.200000000000001,4.0,1.5000000000000002,37.300000000000004,4.7
1698420272572.0,16,0.1,1.2000000000000002,3.7,0.5,10.700000000000001,3.4000000000000004,3.9,34.900000000000006,-2.9
1698420272589.0,16,1.4000000000000001,1.2000000000000002,2.1,1.7000000000000002,10.700000000000001,1.9000000000000001,-0.30000000000000004,42.7,-13.200000000000001
1698420272605.0,16,1.7000000000000002,2.8000000000000003,1.9000000000000001,2.1,12.4,1.7000000000000002,-4.800000000000001,54.5,-15.399999999999999
1698420272622.0,16,1.3,3.0,1.5,1.6,12.600000000000001,1.3,-1.5000000000000002,51.7,-14.900000000000002
1698420272639.0,16,-0.5,1.7000000000000002,1.2000000000000002,-0.2,11.3,1.0,3.8,37.1,-10.700000000000001
1698420272655.0,16,-1.4000000000000001,0.7000000000000001,0.6000000000000001,-1.2000000000000002,10.3,0.4,5.0,20.5,-14.3
1698420272672.0,16,-1.4000000000000001,0.30000000000000004,0.6000000000000001,-1.2000000000000002,10.0,0.30000000000000004,4.1000000000000005,13.3,-18.5
1698420272689.0,16,-0.8,-0.2,0.4,-0.7000000000000001,9.4,0.2,1.6,5.6,-29.200000000000003
1698420272706.0,16,-0.6000000000000001,-0.8,0.4,-0.6000000000000001,8.8,0.2,-1.9,5.300000000000001,-40.5
1698420272722.0,16,-0.6000000000000001,-1.2000000000000002,0.30000000000000004,-0.7000000000000001,8.4,0.1,-3.7000000000000006,7.500000000000001,-45.6
1698420272739.0,16,-0.6000000000000001,-1.9000000000000001,-0.1,-0.9,7.7,-0.30000000000000004,-7.699999999999999,10.5,-50.5
1698420272755.0,16,-0.7000000000000001,-2.5,-0.1,-1.1,7.1000000000000005,-0.30000000000000004,-12.6,10.600000000000001,-47.5
1698420272772.0,16,-0.8,-2.7,-0.1,-1.3,6.9,-0.30000000000000004,-15.299999999999999,9.700000000000001,-44.6
1698420272789.0,16,-0.9,-2.8000000000000003,-0.2,-1.5,6.7,-0.2,-18.3,6.2,-35.5
1698420272805.0,16,-0.5,-2.9000000000000004,-0.2,-1.2000000000000002,6.6000000000000005,-0.30000000000000004,-18.6,2.1999999999999997,-25.900000000000002
1698420272822.0,16,-0.4,-2.8000000000000003,-0.4,-1.2000000000000002,6.7,-0.4,-17.5,0.9,-22.900000000000002
1698420272839.0,16,-0.1,-2.1,-0.5,-0.9,7.4,-0.5,-14.600000000000001,-1.9,-17.9
1698420272856.0,16,0.1,-1.6,-0.9,-0.8,7.800000000000001,-0.8,-13.6,-2.7,-12.5
1698420272872.0,16,0.0,-1.3,-0.9,-1.0,8.200000000000001,-0.8,-11.9,-4.3999999999999995,-7.2
1698420272889.0,16,-0.2,-1.3,-1.0,-1.2000000000000002,8.200000000000001,-0.8,-9.600000000000001,-3.7000000000000006,-4.300000000000001
1698420272906.0,16,-0.5,-1.8,-0.9,-1.4000000000000001,7.6000000000000005,-0.8,-0.8,-7.9,3.7000000000000006
1698420272922.0,16,-0.8,-1.9000000000000001,-0.9,-1.7000000000000002,7.5,-0.8,5.8,-13.100000000000001,6.7
1698420272940.0,16,-1.3,-1.3,-1.4000000000000001,-2.2,8.1,-1.4000000000000001,14.800000000000002,-17.3,9.1
1698420272956.0,16,-0.9,-0.5,-2.5,-1.8,8.9,-2.5,19.700000000000003,-17.3,9.0
1698420272972.0,16,-0.5,0.2,-2.6,-1.0,10.700000000000001,-2.2,19.200000000000003,-20.3,8.700000000000001
1698420272989.0,16,0.0,2.1,-1.2000000000000002,-0.9,11.5,-1.2000000000000002,4.9,-14.3,-1.6
1698420273005.0,16,0.8,2.9000000000000004,-1.2000000000000002,-0.1,12.4,-1.3,1.2000000000000002,20.4,-7.8
1698420273022.0,16,1.8,3.7,-2.0,1.0,13.100000000000001,-2.1,8.700000000000001,20.5,-1.2000000000000002
1698420273039.0,16,1.0,4.3,-2.5,0.1,13.8,-2.7,21.0,-1.8,-2.8
1698420273055.0,16,-0.4,2.3000000000000003,-1.9000000000000001,-1.3,11.8,-2.2,32.7,-15.6,-15.6
1698420273072.0,16,-1.3,1.0,-1.7000000000000002,-3.7,10.3,-0.30000000000000004,23.700000000000003,-14.4,-31.4
1698420273089.0,16,-3.5,0.5,1.2000000000000002,-4.6000000000000005,10.0,0.8,21.200000000000003,-30.299999999999997,-32.7
1698420273105.0,16,-1.4000000000000001,0.4,1.4000000000000001,-2.6,9.9,0.9,12.700000000000001,-39.400000000000006,-21.3
1698420273122.0,16,-0.30000000000000004,1.2000000000000002,2.9000000000000004,-1.6,10.700000000000001,2.4000000000000004,2.5,-53.7,-17.1
1698420273139.0,16,2.0,1.4000000000000001,4.6000000000000005,0.7000000000000001,10.9,4.3,-8.9,-63.0,-6.000000000000001
1698420273156.0,16,1.1,-0.4,2.0,-0.1,9.1,1.7000000000000002,11.000000000000002,-68.5,5.9
1698420273172.0,16,-0.2,0.4,0.9,-2.4000000000000004,11.200000000000001,1.3,-4.9,-60.1,2.7
1698420273189.0,16,-1.5,3.0,2.2,-2.7,12.5,2.0,-8.1,-59.400000000000006,4.7
1698420273206.0,16,0.1,2.6,2.8000000000000003,-1.1,12.200000000000001,2.7,-5.8,-40.7,8.200000000000001
1698420273222.0,16,1.7000000000000002,0.6000000000000001,2.4000000000000004,0.5,10.200000000000001,2.3000000000000003,-3.3000000000000003,-27.400000000000002,18.7
1698420273239.0,16,1.6,0.0,2.1,0.5,9.600000000000001,2.0,-3.9,-21.3,24.1
1698420273255.0,16,0.6000000000000001,0.2,1.5,-0.4,9.8,1.4000000000000001,-7.300000000000001,-12.6,33.5
1698420273273.0,16,0.4,0.8,1.1,-0.5,10.4,1.0,-10.600000000000001,-12.6,40.0
1698420273289.0,16,0.4,0.4,0.9,-0.4,10.0,0.9,-11.9,-15.6,39.699999999999996
1698420273305.0,16,0.5,-0.6000000000000001,0.7000000000000001,-0.2,9.0,0.7000000000000001,-13.6,-18.8,36.3
1698420273322.0,16,0.6000000000000001,-1.1,0.6000000000000001,0.1,8.5,0.8,-15.5,-14.4,33.1
1698420273340.0,16,0.8,-1.2000000000000002,0.6000000000000001,0.5,8.4,0.8,-15.8,-6.4,28.0
1698420273355.0,16,1.0,-1.3,0.4,0.6000000000000001,8.3,0.6000000000000001,-14.3,-1.6,24.3
1698420273372.0,16,0.8,-1.4000000000000001,0.1,0.4,8.1,0.30000000000000004,-10.9,5.300000000000001,18.7
1698420273389.0,16,0.5,-1.5,0.0,0.2,8.0,0.2,-9.8,5.300000000000001,17.0
1698420273406.0,16,0.0,-1.7000000000000002,-0.2,-0.30000000000000004,7.9,0.1,-8.200000000000001,4.1000000000000005,14.700000000000001
1698420273422.0,16,-0.2,-2.1,-0.2,-0.4,7.5,0.1,-5.300000000000001,-1.9,11.1
