ts,interval,accx,accy,accz,accGx,accGy,accGz,alpha,beta,gamma
1698420258056.0,0.01666666753590107,0.220790576608479,0.32044454453736543,-0.2958703675121069,0.7909843369415029,-4.453664000701904,-8.842983831787109,-1.7936851560037457,-8.51044473413986,1.4755991909314323
1698420258170.0,0.01666666753590107,-0.2482120328236371,0.16195055736601352,-0.499403812110424,0.26126725616455077,-4.707599306543171,-8.996362375640869,-9.032160196154821,-45.15254328206756,-7.494985996082078
1698420258187.0,0.01666666753590107,0.09570983341298997,-0.6210626910984516,0.06963584628403187,0.5231330627441406,-5.473444270324706,-8.441655778503417,1.3382516639635862,-25.807697316616636,-20.53250487154213
1698420258203.0,0.01666666753590107,0.07461049289144575,-0.3821376151233911,-0.05033551800847053,0.48542438659667964,-5.2447980117797846,-8.556577458190917,9.068188590252992,-16.302256237398705,-24.446432077296635
1698420258220.0,0.01666666753590107,-0.27323450160566715,-0.10794336510747671,0.15402794767320155,0.1388636962890625,-4.989366622161865,-8.341397999462485,8.53036583462785,-10.685428829097564,-24.01858732013974
1698420258237.0,0.01666666753590107,-0.5168839392215013,0.3252896464809775,0.6661632310628891,-0.09157817696835845,-4.557213222503662,-7.827991965484618,-6.5470261756101245,-14.427570800810722,-33.67796549532412
1698420258254.0,0.01666666753590107,-0.5402028189560398,0.07783551935255527,0.6922907750099897,-0.10474635916445403,-4.775384556524456,-7.818115883636474,-14.775358910705894,-19.683216952027944,-41.22164988641475
1698420258270.0,0.01666666753590107,-0.3929247839344665,-0.009890110373497008,0.5803764604449272,0.047884033203124995,-4.824615620422363,-7.951592626190185,-14.24383615081644,-24.246365591223203,-44.30575691933689
1698420258287.0,0.01666666753590107,-0.10618833813369273,0.10260609573274851,0.13885317489504814,0.34012627334594725,-4.672583815002441,-8.41502028503418,-7.1649230808567355,-15.204486035879455,-36.84654147771182
1698420258304.0,0.01666666753590107,-0.25672044304776936,0.4254334437534213,0.2675438522160053,0.21532851181030271,-4.339490509033203,-8.290672020831703,1.316052481943987,1.5638556937351635,-29.03603233160006
1698420258320.0,0.01666666753590107,-0.35418227122724055,0.4125602259159088,0.3605138123363256,0.16220712594296782,-4.356549195861816,-8.192808443450927,3.96169199928087,7.980635497958434,-21.528553065752384
1698420258337.0,0.01666666753590107,-0.4549200158048421,0.17197919942736625,0.10416472335159778,0.11133034066464752,-4.5982139259338375,-8.445396718597411,-2.629931896514852,6.910859253639302,-9.802883010967292
1698420258354.0,0.01666666753590107,-0.5386085355019197,-0.011653028392791748,0.2857517090797424,0.04578903368525207,-4.761767826843261,-8.27376180256307,-14.820299847897285,4.444840371260532,3.7539099607662663
1698420258371.0,0.01666666753590107,-0.4606863607792184,0.022866788585484025,0.27588673314750195,0.11701660614013672,-4.684105910491943,-8.307879760742187,-23.56714596694775,-1.139027852479008,10.6956817968154
1698420258387.0,0.01666666753590107,-0.22581812244690955,-0.2568286891952157,0.2730599852889776,0.3280055909087881,-4.898087976129353,-8.347982638549805,-19.389935459256765,-0.954696628149408,13.267864443897794
1698420258404.0,0.01666666753590107,-0.047335094083473084,-0.2621066295981407,0.04619944111704826,0.49096094140317287,-4.873397479248046,-8.591891932678221,-8.14642980232403,1.406314178877646,12.533615693026839
1698420258420.0,0.01666666753590107,-0.0009037804393097758,-0.23423867172449825,-0.07617547718584537,0.5318120072295889,-4.843320320892333,-8.715791868591308,4.25071017334949,7.701724723200963,11.876206570318526
1698420258437.0,0.01666666753590107,-0.3784595476651564,-0.04936082775741815,-0.03572480885386467,0.17552490921020505,-4.689642501831054,-8.65728298099935,13.828197795480008,15.594879158269874,7.377201091392501
1698420258454.0,0.01666666753590107,-0.4862382237302139,0.1445318050533533,0.5602063635975122,0.09561842880249023,-4.5265372214719655,-8.042870979961753,11.284588391016715,13.769272899736661,3.9125556183917984
1698420258471.0,0.01666666753590107,-0.40948918444011356,0.034795126788318156,0.7023124028086661,0.18944120635986328,-4.650437449645996,-7.8918872222900385,0.09572699552800633,1.9415465852600626,-1.3954763762121283
1698420258487.0,0.01666666753590107,-0.23312059094738213,-0.28351678963452576,0.6819681184381247,0.35149873123168945,-4.943278532464802,-7.927052059173583,-15.047267034016809,-15.234209311600058,-5.856125220306654
1698420258504.0,0.01666666753590107,-0.14998733051288873,-0.1274181731671095,0.7725263412415981,0.39758711318969725,-4.748001167297363,-7.860014412689209,-18.312512391274982,-22.424713158445783,-4.020328319531783
1698420258521.0,0.01666666753590107,-0.21107991445511579,-0.013684534220397471,0.778589586803317,0.28535887383725494,-4.592677334594726,-7.879167441448569,-17.892665785636176,-24.31721002084187,-0.7464585677859997
1698420258537.0,0.01666666753590107,-0.42767117621023204,-0.020067513255774973,0.4196212503433227,0.006284779357910156,-4.5492824295043945,-8.26762724533081,-15.277553692072958,-14.105334428600568,1.4085876713759082
1698420258553.0,0.01666666753590107,-0.6080040702240541,0.20418957041949032,0.39594109954833984,-0.1984194991180673,-4.291905458776653,-8.309674827465415,-14.357692842959613,-6.13095453014822,3.7722195634969546
1698420258583.0,0.01666666753590107,-0.5612761117208749,-0.2970484713807702,0.42645548027753827,-0.15532383270263672,-4.731241755676269,-8.311022150421142,-12.678081877935425,7.266460673058146,2.000872754617147
1698420258587.0,0.01666666753590107,-0.5663530496589839,-0.30637656395733354,0.4309463619560003,-0.15532383270263672,-4.731241463415325,-8.311022150421142,-12.121716012487342,7.872692895862845,1.4113800448076799
1698420258604.0,0.01666666753590107,-0.478418562955223,-0.36993747424185275,0.2904576948136091,-0.05027830792851746,-4.769399052374065,-8.463502284130454,-10.846372845378806,7.226335873005259,-0.09073295330596341
1698420258621.0,0.01666666753590107,-0.5221055463273078,-0.25749358284473417,0.6397293976455927,-0.07601593924257904,-4.6122801529482,-8.135646878814697,-20.802258070169906,3.0019377227727735,-0.12353896553934289
1698420258637.0,0.01666666753590107,-0.6232610779255628,-0.28866029000282284,0.6429945369213819,-0.17791918393559752,-4.5790603126525875,-8.164078023529052,-35.328043576150826,-2.195052898286494,1.8429679590731496
1698420258654.0,0.01666666753590107,-0.7885838882036507,-0.16860504681915045,0.5182318466991186,-0.35254626752324403,-4.364928609411418,-8.334515254211425,-45.46641438009174,-0.5735862664495655,7.234910321734564
1698420258671.0,0.01666666753590107,-0.5483993136867881,-0.41899610418230293,0.114912327337265,-0.11956044540405272,-4.477007174627483,-8.802432041168212,-40.521087628530296,1.735758641817985,2.6146792303245676
1698420258687.0,0.01666666753590107,-0.4844851329851895,-0.4861205521672964,-0.33778175604641436,-0.04070146475527435,-4.470124137115478,-9.287706790161133,-22.513121419515137,13.680391648067285,-0.534928569686057
1698420258704.0,0.01666666753590107,-0.4816460005691275,-0.744722973036766,0.059414311999082564,0.010175320523045957,-4.693533079528808,-8.903587061309814,-9.279538548835282,25.145763193583193,3.4879978897729758
1698420258720.0,0.01666666753590107,-0.3749529643163085,-0.7046969598576426,0.2685913154423237,0.15996256188657135,-4.637718253326415,-8.698882819366455,-6.6790759303812735,17.186099791471282,14.796870591496848
1698420258737.0,0.01666666753590107,-0.39191038272753353,-0.31809242845326663,0.442235817733407,0.13512268312983214,-4.225316725103557,-8.536974347576498,-13.039228130299849,-3.0694825306920874,25.238564973836155
1698420258754.0,0.01666666753590107,-0.43601314382627604,-0.3749640702322125,0.4360819712787866,0.04908113403320312,-4.251054977472126,-8.558971659851073,-15.497313321070827,-9.356011908103683,23.9223875207747
1698420258770.0,0.01666666753590107,-0.35719486051406707,-0.7435258722066879,0.3799421509057283,0.07062894897460938,-4.576815456335246,-8.636334300994873,-13.344799694708819,-9.436877079008404,15.510135293690233
1698420258787.0,0.01666666753590107,-0.37521987162418663,-0.7785097995653748,0.3916378493964672,0.017657237243652344,-4.584746541595459,-8.63768103942871,-10.670134327998614,-9.616734742875057,10.90203888711441
1698420258804.0,0.01666666753590107,-0.7401694013856351,-0.49148120241761206,0.13788579116761684,-0.374842233950831,-4.27724126586914,-8.901192859649658,-7.108319168770724,-5.677254091888245,6.755277362743343
1698420258821.0,0.01666666753590107,-0.821955704190582,-0.5524795687377453,0.30530513533353804,-0.4719570387909189,-4.3290161690309645,-8.738237509155272,0.5391096059534568,1.8593885876115066,8.471624500218446
1698420258837.0,0.01666666753590107,-0.788445356515795,-0.5154039297968149,0.34637013617157936,-0.4396353163788095,-4.298340167999267,-8.69454332885742,3.826936208937927,3.878000410720235,10.643844929883235
1698420258855.0,0.01666666753590107,-0.6765415633447468,-0.4492778451994061,0.5007645790696144,-0.3362358052460477,-4.246265989629924,-8.534580145916342,3.766678999419605,-1.1094835490590007,8.740698095023806
1698420258871.0,0.01666666753590107,-0.7078344541657715,-0.5306336476325988,0.6392033279448748,-0.379929912478663,-4.33470210571289,-8.393621523174643,1.5966352656659357,-3.5877092601450533,4.670797116269717
1698420258888.0,0.01666666753590107,-0.6565348403654993,-0.5004068516731262,0.6344114174932242,-0.3425205115387216,-4.306719873809814,-8.397961598205566,0.6610426766250533,-5.455991394386151,2.7824570643138187
1698420258904.0,0.01666666753590107,0.09687566232196985,0.25394962662756443,0.44687399892807006,-0.3113958899566904,-4.120421057128906,-8.320598957061767,4.0532698950119315,-9.491741427290178,3.2411424734508443
1698420258921.0,0.01666666753590107,0.26760668831914664,0.31046207970529793,0.5980401274293661,-0.18824414206240325,-4.045303272302449,-8.176348307037353,7.528672489068581,-11.655568408238665,7.787487993514228
1698420258938.0,0.01666666753590107,0.29758634111713617,0.2551034728378057,0.557899840220809,-0.17522567053530363,-4.119074318695068,-8.206425465393066,7.216829957227894,-11.763322326358432,14.238155140974282
1698420258954.0,0.01666666753590107,0.3179655872032046,0.2903258851274848,0.6393401060670614,-0.1949778342315927,-4.12131917501241,-8.103923706817627,4.261033577393142,-12.497170657389297,19.997625927449263
1698420258971.0,0.01666666753590107,0.46033002162221814,-0.07304770055413246,0.6277583893448114,-0.08185180578920989,-4.492869052886963,-8.109609935760497,1.480668471956051,-14.047692754647537,18.74022566729035
1698420258987.0,0.01666666753590107,0.5630014742087572,-0.1333840958341956,0.6473527321308851,-0.019752200228907165,-4.545092576599121,-8.091503785705566,-3.5944045530789586,-13.730924802641624,15.752046933713745
1698420259004.0,0.01666666753590107,0.6149828597281127,-0.25139935762286186,0.852486597663164,0.000748188018798828,-4.64490056604594,-7.893383598327636,-6.970747632942444,-9.97159722120307,14.931770242699185
1698420259021.0,0.01666666753590107,0.9862726984269916,-0.08640519477725028,1.0916384681314228,0.32965156801752743,-4.452466899871826,-7.664886977386474,-7.921018191787978,-1.937139405698112,15.270861814233639
1698420259038.0,0.01666666753590107,1.0551734353695064,-0.02925415153503418,1.2267653159797192,0.38920733431391413,-4.378246648406982,-7.537545376586913,-4.1389119294674295,9.925009354648058,16.562957727828923
1698420259054.0,0.01666666753590107,1.229970395631343,-0.4041439874872565,1.596640830901265,0.5882254203796387,-4.739920444433391,-7.17602034138143,-4.930081769333979,19.539632715295934,16.326443644797013
1698420259070.0,0.01666666753590107,1.5359798798419535,-0.6489508149772882,1.4779443088501691,0.9132382226806134,-4.958092362976074,-7.3091983932495115,-17.561732875065303,9.909155631810812,13.318021084294136
1698420259091.0,0.01666666753590107,1.525987039746344,-0.8440940323710441,1.2209984230160713,0.8982744623046368,-5.090970555114746,-7.596053679656982,-34.96946205981974,-3.447236814910221,6.552336220802986
1698420259105.0,0.01666666753590107,1.3716320520758627,-0.9516998360872269,0.35501053874492644,0.727537883349508,-5.063736511230468,-8.524555010986328,-51.04716387542323,-4.822728697941127,-10.515246128190235
1698420259121.0,0.01666666753590107,1.3394476923078298,-0.7613003060892224,-0.294407893744111,0.7148188331604004,-4.750993919372558,-9.23099413833618,-55.514418366218806,9.887163276457018,-17.453778320138667
1698420259138.0,0.01666666753590107,1.297089144527912,-0.8323474804759025,-0.32543256208300586,0.7354687494140117,-4.693234096582233,-9.322572351837158,-56.446407923750805,28.519975681312456,-16.489558807460675
1698420259154.0,0.01666666753590107,1.4732147961102424,-1.1502037620857357,-0.21592823126912117,1.0401309106688945,-4.837484454345703,-9.292644831085205,-54.97786944087387,38.119695569191364,-8.71627589987278
1698420259170.0,0.01666666753590107,1.3152493628576396,-1.6575459659799932,-0.02963350624144077,0.971447214010544,-5.217563967895508,-9.160814102172852,-52.142756954144545,29.09854905307319,-2.8081795567280867
1698420259190.0,0.01666666753590107,1.1098668563265353,-1.9728049245730042,0.1104249527901411,0.8192658257857895,-5.4147863296508785,-9.067739512634278,-46.17240322327177,13.9404673224148,0.6971938006848729
1698420259204.0,0.01666666753590107,0.8188011856824159,-2.210315749835968,0.2376724455654621,0.5594950004577637,-5.527164170074463,-8.987383534893393,-31.010991775393002,9.428829408618835,2.163052608251338
1698420259222.0,0.01666666753590107,0.5699809578325599,-1.8873726664811372,0.8406395080029964,0.34596210335995997,-5.143941974584758,-8.406790216827392,-19.632198854022533,20.115685747252932,1.2810267382716327
1698420259238.0,0.01666666753590107,0.37717582799755034,-1.6739271919384597,1.2592086189448832,0.21772265867153182,-4.89359826349467,-8.002469411468505,-11.519646789981765,31.532623567590633,-0.9274106627454418
1698420259254.0,0.01666666753590107,0.38454065767712886,-1.660211385796964,1.8570359804064034,0.33833062210083004,-4.85229857711792,-7.415441091918945,-6.798612351706136,33.67918126899639,-0.42912688504972313
1698420259271.0,0.01666666753590107,0.6831587895274162,-1.5921131243437527,2.2732173194289205,0.7158663078031618,-4.770746083068848,-7.00393768157959,-5.256910163100497,29.94511001956125,1.3669545734552129
1698420259288.0,0.01666666753590107,0.7866331925272941,-1.5848513166472316,2.3451509212613106,0.8852560273101553,-4.751741815130412,-6.935552712139486,-4.89624842728032,25.386518824089677,6.853213737704864
1698420259304.0,0.01666666753590107,0.48828061627801506,-1.8691025580361484,2.213475090649724,0.6313210502624511,-5.0285716743469235,-7.069179676818847,-0.6930668189614514,8.59390879202377,17.971264187510098
1698420259321.0,0.01666666753590107,1.6216998688340185,-1.5348095208883286,1.687914508497715,1.7559973166534677,-4.702660973358154,-7.592013464355468,6.811989277195606,-6.603176307003153,10.77155666075778
1698420259338.0,0.01666666753590107,1.6796008536607026,-1.562251946826279,1.6272995885372161,1.778592521755956,-4.758475507299602,-7.643339162445068,15.368919425052926,-16.044974964195372,8.708439111573837
1698420259354.0,0.01666666753590107,1.3749427840590476,-1.1552607532143593,1.0954290925860404,1.4112321565766701,-4.407126705932617,-8.156296868133545,15.803044541151644,-15.077968734336016,9.53107648672028
1698420259371.0,0.01666666753590107,0.9655184450160711,-0.7574903924122453,0.6416781936258077,0.9687538124913931,-4.039766388702392,-8.59937381286621,7.462194257876847,-7.774594303908536,7.354837344502586
1698420259387.0,0.01666666753590107,0.8738602250814438,-0.7006225500255823,0.42975510634481906,0.8650549947558931,-3.990984237615764,-8.808416960796713,-0.571888164028024,1.0365989205909119,4.459540219014868
1698420259404.0,0.01666666753590107,0.9610870384398847,-0.5580380796477198,0.4215519261449575,0.9739911617306701,-3.8428433021545407,-8.818592902374267,-2.2885406856642203,13.901575371507102,5.0072078385549394
1698420259421.0,0.01666666753590107,0.895980944539979,-0.4054083083346486,0.6626420711994171,0.9476549400440184,-3.6897640335083004,-8.577526722717284,0.9026775872654736,21.27890623649383,8.856521881647943
1698420259437.0,0.01666666753590107,0.8702475875422357,-0.4076028957694769,0.7035498356491326,0.972943699645996,-3.698592359869182,-8.533831957897544,3.3247913733291674,27.105368372121944,12.499775520784011
1698420259454.0,0.01666666753590107,0.9896893750026822,-0.7115913955464959,0.7435989374428987,1.1680710984161122,-4.009988505554199,-8.489988724517822,-2.027318179866379,28.30395728843246,19.816251961586868
1698420259472.0,0.01666666753590107,0.9495454345323144,-1.2368398430094123,0.2896352725148201,1.1724106254577635,-4.522347953088581,-8.947580516815185,-11.051655888430831,22.603122822208395,26.169828823768835
1698420259487.0,0.01666666753590107,0.8383681290049105,-1.5968243707746266,-0.2268979535728693,1.0848726272583007,-4.848856912231445,-9.475352345275878,-18.795294067473577,15.323066657607338,25.722736593530847
1698420259504.0,0.01666666753590107,0.6786974262043833,-2.004088828369975,-1.6257728173613548,0.944811775340233,-5.1740191329404706,-10.902146312603353,-35.42272024333096,6.866637620744878,8.55305828437157
1698420259521.0,0.01666666753590107,0.10681143846809864,-1.759535975641012,-3.2742525565713643,0.38516721034394574,-4.833294601440429,-12.582577187347411,-44.64110896230076,5.302023562568431,0.2917173260903917
1698420259538.0,0.01666666753590107,-0.37014066866375506,-1.6666566164135932,-3.5649060662180183,-0.06928221054077148,-4.629787168066203,-12.90833825073242,-45.928869413320385,12.51378338499806,0.5675642807574357
1698420259555.0,0.01666666753590107,-0.48035639915000644,-0.6542950986146926,-3.567134848183393,-0.12389993591308593,-3.47937356262207,-12.951284243011473,-39.005024689408415,16.534390461625346,5.060531125405229
1698420259571.0,0.01666666753590107,0.0799332588167861,-0.75691259252429,-3.259928263142705,0.46103349371645597,-3.4958334067746994,-12.668618809509276,-37.31074845446256,3.521070092621001,8.059295371534885
1698420259588.0,0.01666666753590107,0.47339474344383925,-0.9455737544223666,-3.604355448552966,0.850989016049169,-3.5820246665403244,-13.04241295917928,-49.24213270799104,-4.568355804663749,-1.0850868603956556
1698420259604.0,0.01666666753590107,1.0100966416068375,-0.9101710171297192,-4.2871085798889395,1.392377902984619,-3.3753751357480883,-13.77114867401123,-53.29628711250049,-2.0897029933111595,-10.110904905741004
1698420259621.0,0.01666666753590107,0.7598752417221665,0.13789528964832423,-3.9478228490203615,1.1743558777740224,-2.246808474322408,-13.45107383956909,-32.44875001077527,-8.629107318137784,-0.5390783364936628
1698420259638.0,0.01666666753590107,0.6656477558214217,0.5645566677615046,-3.4606431431889533,1.0365396812438965,-1.78607429234609,-12.974178796386719,0.8949522164273661,-29.058886144562923,15.668896210758009
1698420259654.0,0.01666666753590107,0.4239083530779928,0.8592771345861255,-2.4308722254276276,0.6397007926056161,-1.5577273090086876,-11.93255143661499,29.087928108913818,-56.415139317730485,23.91283037857856
1698420259671.0,0.01666666753590107,-0.09021966589833609,0.7574614585787057,-1.9260674310564994,-0.036062662506103516,-1.7363947540283202,-11.410166561889648,27.901054674577164,-64.3680374174695,16.94882584989421
1698420259687.0,0.01666666753590107,-0.43848625594154,0.8466358258083462,-1.676110673457384,-0.5422866851585452,-1.7055691153928636,-11.144260540008544,17.84259879147269,-57.063720420936555,5.332067003406379
1698420259704.0,0.01666666753590107,-1.002414416541159,1.1868176287338137,-0.9747264914095402,-1.2539631377731448,-1.405695649719238,-10.429142431640624,6.928643785577546,-35.145404317744685,-10.400241110492852
1698420259720.0,0.01666666753590107,-1.065364209190011,1.316951782861352,0.024672084441781043,-1.3687352163895032,-1.2940657050535083,-9.42312882156372,7.026241639288328,-17.73648326498008,-18.165084465587547
1698420259737.0,0.01666666753590107,-1.0609424472250044,1.3999375245839356,0.676161477985978,-1.3757681289672852,-1.2357070395871996,-8.764423505291342,10.787025331680566,-4.835140432323509,-21.161823133741475
1698420259756.0,0.01666666753590107,-1.1258907202146946,1.5631091481775043,1.9295944361388682,-1.4242507308517582,-1.1140516677305101,-7.499836700439452,11.646238369832428,-0.7699374497796244,-19.7377321068884
1698420259771.0,0.01666666753590107,-0.8634865689747035,1.330058809454739,3.0109669463217257,-1.1483189895187504,-1.3807061698913574,-6.4092778442382805,13.818067771167232,-1.7030276282633434,-16.750671816788383
1698420259788.0,0.01666666753590107,-0.7399759246401488,1.1671323927938937,3.582922199901938,-1.0160393660614266,-1.5861585998535155,-5.825242276763916,19.055266435209894,-2.2456569160734725,-12.694464940433345
1698420259804.0,0.01666666753590107,-0.5844043277215212,1.0471645356327295,4.392091633886099,-0.8369231543609872,-1.7841291496276854,-4.993556475067138,19.769545420495028,2.3315333113948657,-6.758193853518939
1698420259821.0,0.01666666753590107,-0.6347469330579042,0.831046627010405,4.548688555264473,-0.8653543173416517,-2.0465935066223144,-4.823418519592285,15.561722004944047,6.175546700805117,-7.99809943789251
1698420259838.0,0.01666666753590107,-0.4115017298389226,0.867425515858829,4.6307449071824545,-0.6141127258300781,-2.0479396605342624,-4.730343345531821,14.505781589449246,9.707158763523209,-12.135283329499925
1698420259854.0,0.01666666753590107,-0.13769184863124972,0.7103092467814683,4.610550260415673,-0.2871545798812993,-2.2492025298520923,-4.737676172637939,10.912423335973768,12.709016658460058,-14.931833421949008
1698420259871.0,0.01666666753590107,-0.22208229691945014,0.9790572140902281,4.502200944855809,-0.32815528331147503,-2.0025997588559985,-4.839579380798339,6.475945250691447,12.257692272257602,-11.427287264477561
1698420259889.0,0.01666666753590107,-0.003082736480166204,0.8893219981074333,4.30213897576034,-0.07212534327851608,-2.117671368408203,-5.031863701629638,9.968928324784887,3.5460250425272886,-9.92521852919139
1698420259904.0,0.01666666753590107,0.12959865901134907,0.5773869232401252,4.089774574452639,0.07018001789702102,-2.458545537512004,-5.23492192993164,13.176925597740953,-2.66653616093742,-10.5176230340214
1698420259921.0,0.01666666753590107,0.2974334155777469,0.36904023314118384,3.703637076038122,0.23328501512832006,-2.699911576898396,-5.610213040161132,12.191173059930849,-8.96692505939203,-10.908501099842889
1698420259938.0,0.01666666753590107,0.21362824723105878,0.37925270733684296,3.200463682261109,0.11237782215727493,-2.7084406280517577,-6.106860247039794,-3.7837941728191877,-21.62492361984668,-11.035458094814146
1698420259954.0,0.01666666753590107,0.1670682657059282,0.20347791501879692,2.682320098367333,0.019602498693065715,-2.8517931601926683,-6.635080403789877,-23.434329523442265,-23.622730046413313,-15.190354374486699
1698420259971.0,0.01666666753590107,-0.00827536865323782,-0.09850392111092805,1.0088958875149487,-0.1927332336425781,-3.0801404357910154,-8.3316715552181,-36.279454776587755,-18.471012053607005,-24.10382125079233
1698420259988.0,0.01666666753590107,-0.15759522996703162,-0.18048486970514058,-0.0720826549142599,-0.35404257049560545,-3.0439275511592623,-9.449315402221679,-34.77094944178249,-7.572613657320212,-29.164081303064876
1698420260004.0,0.01666666753590107,-0.2062059152105823,-0.2036284294053912,-0.35783377947211265,-0.39818568187104536,-2.9951462768554684,-9.756820677947998,-24.635232166334127,-5.281734058752085,-21.733294816312686
1698420260021.0,0.01666666753590107,0.13441491845296696,-0.41901919279694555,-0.7289309451431035,-0.060603247789014124,-3.1619919127866623,-10.142137507629394,-16.72999512662346,-7.037014982043553,-10.156621923176838
1698420260038.0,0.01666666753590107,0.5986153335014358,-1.188560965269804,-1.227414719799161,0.3821744217361323,-3.8813001663208007,-10.654646300506592,-16.35645549601005,-8.75754987925352,1.2478425843542431
1698420260054.0,0.01666666753590107,0.7609170058600604,-1.5589458910182117,-1.7175456766515969,0.5177460724761709,-4.197185147857666,-11.15952357559204,-29.95940902058867,-11.025164999734937,5.575968362912479
1698420260071.0,0.01666666753590107,0.8928312483374029,-2.1098224084734913,-3.3612837742924686,0.6184521798064931,-4.646397234344482,-12.830227421569823,-52.77293069753743,-10.792163341483707,8.77895569211234
1698420260088.0,0.01666666753590107,0.5056009862501174,-2.399445698289573,-5.299879847532511,0.18180965203549712,-4.718821834564209,-14.822801753234863,-75.15250996594777,-16.659652715908795,2.6076688949151956
1698420260104.0,0.01666666753590107,0.3951258376426995,-2.4912685342013834,-5.972216798794269,0.028580745785497127,-4.6211081870481365,-15.537770223999022,-75.62849218882762,-18.300918145158885,-8.65481188130548
1698420260121.0,0.01666666753590107,0.37772334234509614,-2.1397679032735524,-6.879879340234399,-0.01765727377627045,-4.094832880755514,-16.481534590911863,-64.43905772445929,-9.91712817011951,-18.454612769409806
1698420260138.0,0.01666666753590107,0.7274573654592037,-1.037780621215701,-6.750936149457097,0.3444656542571261,-2.822464482116699,-16.386215437316892,-39.278976746828455,9.267519977216999,-15.459112073042945
1698420260154.0,0.01666666753590107,0.8724886444672941,-0.5814487658515572,-6.3403141981273885,0.538096786587499,-2.2909515674315393,-15.991022525787352,-22.3196614339164,25.406573967040128,1.362837036602753
1698420260171.0,0.01666666753590107,1.3426331904761493,-0.3146408266946673,-4.79914624812305,1.1358990684066899,-2.0008042537413537,-14.457536362457274,2.1641755340395705,43.61237319027012,26.96570295642623
1698420260188.0,0.01666666753590107,1.8663659726791082,-0.7000254609152674,-2.739781522732973,1.761234623651905,-2.4155995452329515,-12.394631772503256,18.65467071774677,42.672187405734114,39.527851764710796
1698420260204.0,0.01666666753590107,1.9384074188001452,-0.802253809376806,-1.8979998589575289,1.9053355972566524,-2.5790038085386158,-11.542295981487632,28.60871862165114,26.581759240159595,43.69495700752475
1698420260220.0,0.01666666753590107,2.2496070189997552,-0.8191236956350505,-0.946893312588334,2.233041917524498,-2.6738741954527794,-10.576535471343993,31.38570619854366,0.11369775684283878,42.83955094606152
1698420260237.0,0.01666666753590107,2.4312125632978976,-0.6052396835446358,-1.2641706252664326,2.3406313249450177,-2.568230047198385,-10.87192010116577,34.221324119271564,-24.054468011397113,44.1941482132043
1698420260254.0,0.01666666753590107,2.3890591827012595,-0.24181845932900906,-1.5998597929477691,2.2144869163070804,-2.298134172412008,-11.186907257080078,41.64398097336415,-22.505398183111144,48.652779590172734
1698420260271.0,0.01666666753590107,1.9479642055660484,0.3801404499568045,-2.2475293359428643,1.679233244191017,-1.8329108623228967,-11.797428680419921,54.81522556126294,-11.567585326445146,58.86119056895755
1698420260287.0,0.01666666753590107,1.2936708605170248,0.6208055014669894,-2.0970488516181707,0.9665093192169443,-1.7389384471617637,-11.609932762908935,65.93854379446555,-7.712162106026389,64.35099609549032
1698420260305.0,0.01666666753590107,1.0613350998044013,0.7350871296852827,-1.752387272930145,0.6772597946166992,-1.7934063887998462,-11.219677892303466,74.18301925477782,-6.157370286763244,61.14041786480163
1698420260321.0,0.01666666753590107,0.6383554789438843,0.7700412464275955,-0.7865408380687237,0.19692308654785154,-2.00469497756958,-10.182090747833252,79.27269180916373,2.6822332163105784,46.917020201302805
1698420260337.0,0.01666666753590107,0.23593363907411694,1.0749500759199262,0.5213210448861122,-0.21487959899902342,-1.8915686568662524,-8.815001599884033,80.53621533391356,13.77127756025806,35.971546433708994
1698420260354.0,0.01666666753590107,0.09102942051179706,1.3760507453009485,1.0900497376352547,-0.33848025970458984,-1.7832313240051267,-8.183830187225341,80.74476833003072,23.842943882990987,28.763985896958452
1698420260371.0,0.01666666753590107,-0.010597418392635881,1.7706453986763953,2.0942197656720873,-0.37529107369687403,-1.6481082755491137,-7.089979303741455,82.59938325574264,32.897995458149104,22.706453339066933
1698420260388.0,0.01666666753590107,0.03828543485580012,2.138947380670905,2.9741362220525738,-0.26186580657958985,-1.4749778602600097,-6.1373863182067865,81.08203624105678,34.44627298449135,18.659135953916667
1698420260404.0,0.01666666753590107,0.059190074789151545,2.3605673938408493,3.25081673592627,-0.1803132942642085,-1.43981273111552,-5.786335915264487,76.61804999577906,28.542337720655077,15.825809561655298
1698420260421.0,0.01666666753590107,0.10374171216655521,2.6557503636106845,3.5653719301640985,-0.08933364944458007,-1.3778630554199218,-5.371241786956787,73.21850092132364,11.117961657346022,15.756969792558031
1698420260438.0,0.01666666753590107,0.020696294412296264,2.9501518276140093,3.701417646422982,-0.16445170826567335,-1.2600979690000413,-5.153519073486327,74.92913545933168,-3.060255585453635,17.202569085107474
1698420260454.0,0.01666666753590107,0.007490100027061998,3.1913638454824684,3.6830069604635236,-0.20979190220488234,-1.1938088027954101,-5.0858834611088035,75.67769687160839,-11.772853001571539,17.907133833845556
1698420260471.0,0.01666666753590107,-0.08514649995304643,3.4080808890417216,3.608983108353615,-0.36062662506103516,-1.1971011223390697,-5.044732535552979,67.70961184624986,-9.950345087600574,15.183906675910206
1698420260487.0,0.01666666753590107,-0.3696365915991366,3.4839942081600426,3.470080249097943,-0.6762123313903808,-1.260247898864746,-5.107131416320801,56.17517086652584,-4.727947870376152,11.39956096531554
1698420260504.0,0.01666666753590107,-0.5514262968251481,3.6191102423533796,3.4538030680358407,-0.8744821563720703,-1.2361562446594239,-5.060444483947753,43.900255418502404,-1.3326149436293275,6.053049819361877
1698420260521.0,0.01666666753590107,-0.6514442392282187,3.6243355757862328,3.4916841781407593,-0.9853635476928204,-1.3385083656311034,-4.959888014221191,29.453531059711676,-5.6115203513160425,-1.2734097966865991
1698420260538.0,0.01666666753590107,-0.48071624543834474,3.446243446436524,3.4699545768916606,-0.8313865264892578,-1.5701473762512206,-4.949263744354248,18.562037984675765,-15.834521467941649,-6.316965767570231
1698420260554.0,0.01666666753590107,-0.3273944732731208,3.337213747397065,3.2997721977531906,-0.7175123100280761,-1.7088614349365234,-5.099949395862222,7.815336382307662,-30.01073447710673,-9.081298284591186
1698420260571.0,0.01666666753590107,-0.21045710638165474,3.146103146520257,2.8094512712866067,-0.6952163070678711,-1.906383071899414,-5.581482620239258,-4.816848331952569,-45.93647824405578,-10.73556412515275
1698420260588.0,0.01666666753590107,-0.26391170625872906,3.184333216193318,2.1636767482578754,-0.8378209434509277,-1.8439841911315917,-6.236147136688232,-20.193391101892875,-48.27176090241816,-12.780516786239044
1698420260605.0,0.01666666753590107,-0.34287966370731593,3.16377733489871,1.8645242903351782,-0.9956886884827166,-1.794603781890869,-6.571036093902587,-46.99784182975157,-39.325114674671894,-15.375828161398394
1698420260622.0,0.01666666753590107,-0.5473830493163317,2.7400635545447467,1.1996715573489665,-1.2671313017029315,-2.0190601875305174,-7.344512867736816,-90.2898074309618,-29.35595839232346,-21.773792715448984
1698420260637.0,0.01666666753590107,-0.8433813540570437,2.287983803667128,-0.16698036822676657,-1.60246909866333,-2.242020217132568,-8.831461736297607,-117.01381731341797,-37.6463361389528,-32.57660090675416
1698420260654.0,0.01666666753590107,-0.9177915751360356,1.9745941460773349,-0.9792740717113018,-1.7438765611510723,-2.2703014319822192,-9.780912332153319,-139.97192726490672,-61.44346652808593,-44.80709621951041
1698420260670.0,0.01666666753590107,-1.048852488719672,1.7930217733964322,-3.4179970106393096,-2.026991053595021,-1.9999065742492674,-12.408399016571044,-158.80137910841955,-77.84733378221962,-60.5909769573983
1698420260688.0,0.01666666753590107,-0.9428199987348168,1.9527944022014736,-5.737167687469721,-2.0253450399536637,-1.4841054618284106,-14.857816952514648,-154.11677092276125,-58.28587007478903,-68.65083240444513
1698420260704.0,0.01666666753590107,-0.7636521299123764,1.8292364115938544,-6.607968524980545,-1.876455624212697,-1.2862845496580004,-15.839738908386229,-127.79070835191753,-13.702744295899798,-66.2575682702185
1698420260721.0,0.01666666753590107,-0.7822820115804672,1.7355609335526823,-6.879937207901477,-1.7920600156921893,-1.0712553130552172,-16.22191334838867,-75.07935863993693,32.666943818905914,-39.80796806785678
1698420260738.0,0.01666666753590107,-0.5478678371585906,1.5736618141129612,-5.811590183508396,-1.4694412689208984,-1.09819037399292,-15.202133078765868,-42.209749447978396,16.311538464480755,-16.78731407413821
1698420260754.0,0.01666666753590107,-0.3326262729793787,1.0663859534531832,-5.231998151439428,-1.2609961599487811,-1.534084713745117,-14.641889890289306,-19.072709030802816,-29.780594668117736,-6.599409457675891
1698420260771.0,0.01666666753590107,-0.5396163608375937,0.41373248456567524,-4.696774253407121,-1.6398785726685077,-2.1547814941406247,-14.09690973739624,-5.988770482196064,-73.37294515883596,-19.61148801291176
1698420260788.0,0.01666666753590107,-1.3776761545456946,0.2959349571809172,-4.359721396157145,-2.6396073303222654,-2.2575825279235837,-13.743615354919433,-14.001481402270525,-70.38468275544203,-35.98442817048364
1698420260804.0,0.01666666753590107,-1.5541468201734125,0.5581657976806164,-4.142451102629304,-2.929305877331644,-1.9547157256528733,-13.52140351333618,-31.349530101604685,-43.455794518642165,-52.38454906585758
1698420260821.0,0.01666666753590107,-1.4459244919940828,0.5557732034556567,-3.0729648450732228,-2.8275523067750035,-1.8487724483214318,-12.479327240753173,-47.64484174416478,7.333528008065793,-66.41621990425956
1698420260838.0,0.01666666753590107,-0.8158528572708368,0.406747594114393,-1.239966158336401,-2.0952257278442383,-1.8989010455809532,-10.685471646881103,-44.62270843267675,36.93303216317169,-69.82903320608315
1698420260855.0,0.01666666753590107,-0.4841717561870813,0.28254283003583547,-0.07657645920217036,-1.612045905303955,-1.9443907309934496,-9.560196282085776,-31.685148521946186,48.550842431904876,-67.85167295079695
1698420260871.0,0.01666666753590107,0.22287081694863736,0.08893924329951405,2.199706677538156,-0.7061399252075702,-2.081010009356588,-7.3186255622863765,-11.570708430443135,37.08930689138158,-58.45587348323065
1698420260888.0,0.01666666753590107,0.8636223241835832,-0.19132336684465406,3.8266608136385676,0.03531440142206847,-2.354996461840719,-5.702389804077148,-1.072082286937657,17.360991907811336,-51.21084252869342
1698420260905.0,0.01666666753590107,1.1346233311161398,-0.36720249632000923,4.357630561357737,0.3504512680053711,-2.5430909297667443,-5.172372827038169,2.6279265956632187,-3.8995210561344753,-46.24253902076405
1698420260921.0,0.01666666753590107,1.6086472027763723,-0.7239699617348611,4.784139817649126,0.8078933496337384,-2.911947769165039,-4.741716387939453,-3.445796712212406,-24.780457356014228,-43.08877430359153
1698420260938.0,0.01666666753590107,1.8844798676490782,-0.940039501170814,4.565358535036444,1.0401308376036584,-3.1162029521666463,-4.959439101409912,-13.02735896906966,-28.272620380520443,-43.068239339851885
1698420260954.0,0.01666666753590107,1.9362728909894822,-0.9386879404313861,4.255862962275743,1.052550758715719,-3.080140289660543,-5.27322915649414,-21.66831581164377,-21.88615444993757,-41.78642115341018
1698420260971.0,0.01666666753590107,1.9159600246705113,-0.8006704857081174,3.608412030467391,1.0097544771056621,-2.872144020434469,-5.934028814697265,-26.307846456327283,-9.44210302749711,-35.4717268506258
1698420260988.0,0.01666666753590107,1.7763053241342306,-0.6678966307267546,3.0859225263237953,0.8704419410705566,-2.681954626055807,-6.468833610534667,-24.9537512080885,-4.992303512012326,-28.049804241868994
1698420261005.0,0.01666666753590107,1.7039444368004797,-0.6540954843893647,2.8249586370199915,0.7969698776245117,-2.6158148051939905,-6.740575498962402,-21.069342372379502,-6.827357629714958,-20.182556714321944
1698420261021.0,0.01666666753590107,1.6055770015507935,-0.763692900314182,2.1237918971151113,0.6754640703063458,-2.674323108264059,-7.449857740783691,-11.184794204600951,-13.194026683875371,-11.199329700928384
1698420261038.0,0.01666666753590107,1.4064339008659124,-0.8026261498205364,1.6267057142972945,0.4444236831665039,-2.699611863299459,-7.946504947662353,-0.9090360664959324,-14.725973227912116,-2.8422049978521513
1698420261055.0,0.01666666753590107,1.2984504960089922,-0.762123605170846,1.4501602298676968,0.30226781346425413,-2.6669908656798302,-8.117989057049154,7.227729231595942,-11.122392742570069,6.91492876572416
1698420261071.0,0.01666666753590107,1.0659057687208056,-0.933520182404667,1.3336983350008724,0.0438436717711389,-2.866757066699117,-8.226027991485596,11.452286610613454,0.8081235433252847,16.980202031393954
1698420261088.0,0.01666666753590107,0.8933809911746531,-1.2873854966372251,1.5002584319889545,-0.12749138453379272,-3.24324542388916,-8.054992210388184,10.721557968485993,7.156679896302177,22.5533990450507
1698420261105.0,0.01666666753590107,0.8242652232419699,-1.4511483641222118,1.5521996316283941,-0.19168591654673217,-3.4247558372497555,-7.99992557220459,8.575854894500134,4.956817691066347,26.672701501411023
1698420261121.0,0.01666666753590107,0.5819232514955103,-1.607286728078127,1.0034335304558277,-0.4768951162476092,-3.582473725482076,-8.543708624267577,-3.967999678979377,-22.849002802139683,28.995918630604574
1698420261138.0,0.01666666753590107,0.262626927145198,-1.8046761169634757,-1.2861632613658904,-0.8999206951417028,-3.7398924846373496,-10.829423021697997,-21.41111308561589,-47.74818592140166,26.93408430321095
1698420261154.0,0.01666666753590107,0.2424211013972759,-2.142386122947931,-2.6529677471548316,-1.068412636975199,-4.000561190386861,-12.192322316741942,-32.28927533893923,-59.56376431755257,21.403389849211898
1698420261171.0,0.01666666753590107,0.3137029613226652,-2.426103841982037,-5.036459797248244,-1.209071838378906,-4.170998567199707,-14.565724349975586,-27.643686316461913,-59.365046793840214,13.185436013446788
1698420261188.0,0.01666666753590107,-0.20792349625080822,-1.4893417550466954,-6.965790614014864,-1.8755577255249023,-3.177105456896871,-16.481085093578695,-13.052134626510234,-52.250817377003315,14.102473433111978
1698420261205.0,0.01666666753590107,-1.2141349669873713,-0.5147298299275338,-8.411164194127917,-3.034650604248047,-2.184409593554586,-17.901594866070152,8.065048098363329,-31.601669949910292,16.641923252370734
1698420261221.0,0.01666666753590107,-1.4842834487438201,-0.3390719419874251,-8.592779821428657,-3.356670727539062,-2.0409071315489706,-18.06739391555786,24.62877422247388,-3.5408236400309123,15.904515539008646
1698420261238.0,0.01666666753590107,-1.1681048910878598,-0.23442206546738742,-7.411041980177163,-3.018190613964945,-2.0103810603819787,-16.876428227233887,41.891752915695534,24.942484811052562,17.010171193924677
1698420261254.0,0.01666666753590107,-0.6477329636201262,-0.1909118634343147,-6.231369839283824,-2.420837153625488,-2.078914936773479,-15.689801444897055,55.348769203373074,40.75629885297803,20.523912493566254
1698420261271.0,0.01666666753590107,0.5913124266095459,-0.10605053709819913,-3.871463247439265,-1.058536408996582,-2.1655551093503833,-13.316399996185302,55.555013595550776,33.22405161365259,25.750233227582026
1698420261288.0,0.01666666753590107,1.3842235303625463,0.029716069958359,-2.8654163196146487,-0.2201169151306152,-2.1440075866699217,-12.292579511260985,47.06630423089719,13.625190912968888,29.067249711201605
1698420261304.0,0.01666666753590107,1.8666842448480425,0.34424510684162374,-2.729779768678546,0.2388214694701135,-1.9569604358397423,-12.122590608868002,45.73811589018027,-12.241845379609526,36.08553204567275
1698420261321.0,0.01666666753590107,1.9576218223579227,0.6889876418113708,-2.8767911155879498,0.262763486071676,-1.7194857048034666,-12.230779180908202,57.591595006035575,-21.778573847867992,45.54513572537073
1698420261338.0,0.01666666753590107,1.6195185792721807,1.322179162120819,-3.1496430110841986,-0.16953940505981444,-1.2214917594909667,-12.45014790802002,73.0797729490915,-28.394882474210963,59.10034281255637
1698420261354.0,0.01666666753590107,1.1744428619377314,1.6921157595798373,-3.180098355102539,-0.7639001133240759,-1.074547340337932,-12.386551926422118,91.32981984531214,-23.410903682136414,68.62822447829238
1698420261371.0,0.01666666753590107,1.0446256648048757,1.9114006078004835,-2.8694951133608817,-0.9825206524170934,-1.0506056159973145,-11.99569792087972,99.62912806428128,-9.241832489522228,64.37326251218455
1698420261388.0,0.01666666753590107,0.8912110267244279,2.1512778699338435,-2.1128490628182885,-1.1884218490600584,-1.0136451278686522,-11.158774803051353,97.67111773491372,4.853534985532,55.547561859166294
1698420261404.0,0.01666666753590107,0.66955579611063,2.4972587145268914,-1.0572446156203745,-1.4244003501892089,-0.9311948081970214,-10.003273811340332,96.40188417201776,20.706994006721153,47.652464235278515
1698420261421.0,0.01666666753590107,0.5375374356716871,2.9069825479730964,-0.4573188205748796,-1.5463551433838902,-0.7266404961183667,-9.324368003082276,102.85011550326506,23.98702501598511,45.946436659865654
1698420261438.0,0.01666666753590107,0.4852458151593804,3.288550254254043,0.9003636166036129,-1.5834652691163122,-0.568772824151814,-7.875277448272705,112.93871471872409,26.6867375401554,43.36791047459161
1698420261453.0,0.01666666753590107,0.5676188318111002,3.52271644526422,1.542001478219032,-1.477072932843119,-0.5792471641540528,-7.127687979888916,120.82275426634561,31.231039979883302,37.621836250399966
1698420261471.0,0.01666666753590107,0.7629344831623136,3.9223192821905015,2.6759640073388815,-1.2274774097718297,-0.5174468338012695,-5.838560023498535,118.55477629206455,37.30673571832518,31.09903974398364
1698420261488.0,0.01666666753590107,0.6785035110674799,4.194992313988506,3.3831460620105265,-1.2639888389587401,-0.47928924484252927,-5.016151753234863,108.29206872447271,36.618932253810314,30.436275752966036
1698420261504.0,0.01666666753590107,0.49229997145459053,4.33412518260777,3.8727567943811416,-1.401356159210205,-0.608426496887207,-4.3828854141235345,93.19213922440781,29.371838582143738,30.69848330010824
1698420261521.0,0.01666666753590107,0.36492344547212124,4.370913821300864,4.049539010176062,-1.500566036633402,-0.7420528770446777,-4.108150773620605,85.03139505313074,24.426247160751952,27.022861394495482
1698420261537.0,0.01666666753590107,0.28459026408493515,4.275940704664587,4.340557846003771,-1.5545852115906773,-1.0480617767333984,-3.687070556640625,76.16879430312147,21.187151182731174,17.453271178592793
1698420261554.0,0.01666666753590107,0.22414719356000423,4.129007099166512,4.307620622041822,-1.588702585247904,-1.3365630767822265,-3.6303579048156736,66.13925573341554,21.447393342939705,9.804074025203812
1698420261571.0,0.01666666753590107,0.16813538348078727,4.0796600076735015,4.196722206521034,-1.6072575019836426,-1.5055039314270018,-3.6661212921142576,52.788223491089084,24.305234991679544,4.28651573252599
1698420261588.0,0.01666666753590107,0.033570261168479915,3.9663942784994837,3.971143518853187,-1.6756418869018554,-1.7329530891418456,-3.82413801716268,32.04863752919592,24.52436624327377,-1.464557443086166
1698420261604.0,0.01666666753590107,0.00287891643717885,3.655125850847363,3.7254093473851677,-1.6560392146788536,-2.0962731910705563,-4.0424592810481785,18.2673409351991,18.177243909857463,-6.182086606935404
1698420261621.0,0.01666666753590107,-0.009461071306467056,3.5167975766092536,3.5279783113151786,-1.6274585784912108,-2.261623327746987,-4.228459407043457,4.728873787895512,9.016509671445384,-10.246837623055304
1698420261637.0,0.01666666753590107,-0.06491334780678153,3.2967548957586286,2.756184376001358,-1.6511014660157262,-2.4751561883121727,-5.01166204060018,-14.993460511282741,-3.501752610100912,-16.017787396204138
1698420261654.0,0.01666666753590107,-0.20024229409843683,3.107382078459859,1.8390964190900325,-1.7672202465333045,-2.6253917579650876,-5.961562133789062,-31.267202416443936,-5.230350545626079,-22.6329365979355
1698420261671.0,0.01666666753590107,-0.32572438463643194,3.045730216667056,1.4169243152201174,-1.8634372257508336,-2.616114226531982,-6.441150653839111,-48.339680303524766,-3.463021595525532,-28.892168057112084
1698420261688.0,0.01666666753590107,-0.5224116166017949,2.760037544298172,0.805921245843172,-1.9994576614379882,-2.75198458622396,-7.169436286816,-72.50419290773453,4.010509495713067,-31.857276119219677
1698420261704.0,0.01666666753590107,-0.6316005978561937,2.335983279943466,0.4095663047969341,-2.0507833595275877,-3.01340206451416,-7.686135517120361,-94.26174684843181,7.601330333911885,-30.835715460912137
1698420261721.0,0.01666666753590107,-0.6807274707272648,2.115831878021359,0.2931488335937261,-2.044049667358398,-3.0181904678344726,-7.950245887756347,-117.67033509643959,3.6151077102269134,-31.123071764578327
1698420261738.0,0.01666666753590107,-0.847343097294867,1.808960516284406,-0.36694881381988526,-2.168847428894043,-2.957886513519287,-8.834604125976561,-144.25467444055818,-18.970392797036023,-41.439563656789424
1698420261754.0,0.01666666753590107,-1.310807142626494,2.026217365808785,-2.0697961030334233,-2.6378118252076206,-2.417694763946533,-10.710461126708983,-158.33262322568157,-35.31900382078432,-53.120017005495384
1698420261771.0,0.01666666753590107,-1.6688678627222775,2.0076707785099743,-3.115546680215001,-3.0177414088927206,-2.0880431228637693,-11.923273905181883,-162.8993286858871,-37.22645367482085,-60.13808077391309
1698420261788.0,0.01666666753590107,-2.0487834178820252,1.9481755102291702,-4.817102176052332,-3.3970730266846716,-1.6967410812929271,-13.820828358459472,-141.14809950036127,-11.830553585906161,-59.9141803427309
1698420261804.0,0.01666666753590107,-1.7312882246695458,1.6394868699371814,-5.638627233740687,-3.028665100097656,-1.724423453466594,-14.758457583618164,-111.8087009016805,9.357892771446377,-52.86297308136571
1698420261821.0,0.01666666753590107,-1.6096207239836453,1.334788176064193,-5.759496423655748,-2.835632737378031,-1.8115128311157225,-14.966453852844237,-83.65575397315514,13.209124817035685,-40.80199281852541
1698420261838.0,0.01666666753590107,-1.6659174884840846,0.868193869882822,-5.410841391417383,-2.851194902038574,-2.0639511763975023,-14.693514863586424,-59.14155617400823,-12.553920137881994,-25.122395408885286
1698420261854.0,0.01666666753590107,-2.137626653461158,0.309760653437674,-4.4875621786504984,-3.361010291113332,-2.50268892288208,-13.802273295593261,-45.04257382133577,-31.851436307479318,-22.869623143243953
1698420261871.0,0.01666666753590107,-2.2791963938385247,0.031411037307977674,-3.781189686796069,-3.5737950367249547,-2.6888381019592282,-13.11364104309082,-39.06866497700001,-41.166701014542,-30.819712327686794
1698420261888.0,0.01666666753590107,-2.2697082883946598,-0.23385113371163604,-2.5406390065699815,-3.6662710758484898,-2.8329391143798826,-11.892897471618651,-48.37018392835804,-41.43900358127748,-49.17563057113721
1698420261904.0,0.01666666753590107,-1.9895897628962993,-0.2399173018828034,-1.7248679823637008,-3.43627807886973,-2.727444311468303,-11.099818171691894,-58.47293529577734,-29.000617800753545,-64.51410101287021
1698420261921.0,0.01666666753590107,-1.6636875374749303,-0.3468754553452134,-1.371174371436238,-3.1109659282959994,-2.7138275817871094,-10.777199497985839,-59.56329986468901,-7.240058576821461,-77.03626247865894
1698420261938.0,0.01666666753590107,-0.9794527892790734,-0.3674380586415529,-0.2506441553413868,-2.3370402416504916,-2.5948656867980957,-9.7039986038208,-46.930007806009584,21.025789671136916,-82.11443299448256
1698420261954.0,0.01666666753590107,-0.07754764232188463,-0.34780133801847696,1.4617080443203447,-1.325041127423197,-2.5007434879027306,-8.024017226409912,-34.237183818524336,29.163145567148582,-77.95624114853547
1698420261971.0,0.01666666753590107,0.4043594568688422,-0.42525355714187024,2.367768411260843,-0.7320272306580096,-2.5288755035400388,-7.142951015472412,-24.4124792069325,25.8272026293389,-70.49117223479169
1698420261988.0,0.01666666753590107,1.240851708999276,-0.6253747090786695,3.7870857590973377,0.2087443841796368,-2.681954772186279,-5.74578470916748,-19.436805924888684,6.4239628153525965,-59.71913746079202
1698420262005.0,0.01666666753590107,1.9815096245542168,-0.7538005979835987,4.361333507528901,0.9689034112792462,-2.773532839556783,-5.181501305389404,-21.698143247749215,-14.133257095701225,-52.07355006237939
1698420262021.0,0.01666666753590107,2.2542715036794543,-0.8164762498661875,4.3631192219018935,1.2113162563048303,-2.790591672515869,-5.185990433502197,-24.04819960528633,-29.47586236320303,-45.719855379434236
1698420262038.0,0.01666666753590107,2.4411560112938284,-0.6516843315944075,4.02058004219532,1.3087303363524376,-2.5670329463683066,-5.530306559753417,-20.088808952868934,-39.86867820429443,-33.38268275712613
1698420262054.0,0.01666666753590107,2.262916728558391,-0.5656256121672689,2.878087585139274,1.0450688785277307,-2.4416366344176232,-6.670096187591552,-17.838398225133133,-37.46191761626787,-25.73583518881164
1698420262071.0,0.01666666753590107,2.2898953363768757,-0.3970394161790609,2.52879893117249,1.0060133178159594,-2.237231667681783,-7.017704341125488,-17.52537407056603,-24.15629247154366,-21.4753424770234
1698420262088.0,0.01666666753590107,2.3373668432563544,-0.4621738593906164,1.7818588666081427,1.0182837474547326,-2.2460602863036097,-7.7705311256408685,-21.36756892210977,-4.146211267256057,-13.920973962523583
1698420262104.0,0.01666666753590107,2.2237843032181264,-0.4747812658987939,1.2257412336289881,0.913088365881145,-2.205059729003906,-8.337657643890381,-23.783157529638572,5.661421286505332,-7.912886851581077
1698420262121.0,0.01666666753590107,2.072668735860288,-0.6305113413147628,1.0204290889203549,0.7818564796447753,-2.303670763751119,-8.555829270172119,-22.030227045195236,7.714602191107375,-0.7127440069908764
1698420262138.0,0.01666666753590107,1.9172893735781311,-0.880285728084296,0.6595423516184091,0.6488286499023437,-2.491166535131633,-8.930372192382812,-13.818532224030793,6.210882684476178,6.704342934555266
1698420262154.0,0.01666666753590107,1.8001092474393545,-1.0782463409863412,0.07944295454919338,0.539892328234762,-2.65576819152832,-9.517101236724853,-10.60989888970827,3.045523080857329,11.217831829616303
1698420262171.0,0.01666666753590107,1.7257080864496528,-1.3201824353456497,-0.3792477389007807,0.46372693405151366,-2.868103805132955,-9.980379257965087,-9.04698853684292,0.03438010403280297,16.11963405446549
1698420262187.0,0.01666666753590107,1.3888796856053174,-1.7804267879784106,-1.310824824413657,0.11103124812021851,-3.296965031377971,-10.914865508922935,-4.694414202872328,-3.9607485794017623,20.42535286384297
1698420262204.0,0.01666666753590107,0.9610574470192194,-2.076656636452675,-2.5786843673259017,-0.34296953394785523,-3.5734954692564904,-12.182296597290039,-6.625078162350445,-11.408564008415263,20.073654470647966
1698420262221.0,0.01666666753590107,0.7931000504538417,-2.1304712287485597,-3.586080371671915,-0.5574000740051269,-3.5926490825377404,-13.188609482574462,-16.29909385981299,-19.147043687087358,16.295391897282844
1698420262238.0,0.01666666753590107,0.20899843200594184,-2.1487316925823685,-5.738333808639645,-1.2065281452454626,-3.5357867931090294,-15.342642788696288,-20.93789196670802,-12.905883200907336,8.84221178156312
1698420262254.0,0.01666666753590107,-0.2786724183432758,-1.915359282298386,-6.822218593904376,-1.7102083195008337,-3.26090251500234,-16.430059255218506,-8.260830348279868,2.421871100904747,3.1073251937885433
1698420262271.0,0.01666666753590107,-0.44224297812655566,-1.6093806316174566,-6.939888110995292,-1.8460791175842284,-2.955641803332418,-16.551714627075196,9.22979428111008,19.772156260305263,-0.058153324490972824
1698420262287.0,0.01666666753590107,-0.5177561920113861,-0.9041643240608275,-6.61931701746881,-1.8163013805665074,-2.312649019976705,-16.237026746368407,27.690814621735,43.751234351191066,3.3791605328961154
1698420262305.0,0.01666666753590107,-0.20157573465928433,-0.3842335644893348,-5.190992187312245,-1.368286321844533,-1.874809391375631,-14.813224362072347,41.30194217520283,63.28597152839939,11.251550766001364
1698420262321.0,0.01666666753590107,-0.034323052297160025,-0.20627105286866426,-3.9604321552246806,-1.026663672460988,-1.8185457984924316,-13.582605293273925,60.48705562917655,78.9773066181282,22.42656413971086
1698420262338.0,0.01666666753590107,0.4611416667986661,-0.015667524731159208,-1.0893979957282542,-0.27742819043584166,-1.854758098602295,-10.69370171508789,79.13556210119738,78.15196704939136,37.668773310376295
1698420262354.0,0.01666666753590107,1.0865919983968138,-0.14828823497742413,0.46364510098695755,0.5008369136534631,-2.1715409057617188,-9.114127169799804,74.49766557927279,56.433024168072166,46.15269812751629
1698420262371.0,0.01666666753590107,1.290748543329537,-0.1544847515299916,0.5896130753457546,0.7743744533263146,-2.3316529956541956,-8.958354424285888,54.30413275095464,18.048243834550725,50.885319127945195
1698420262388.0,0.01666666753590107,1.5960121776089071,-0.007605944959074258,-0.25032792899906636,1.0116998024871573,-2.3033716346740722,-9.766547122192382,27.43112741439653,-31.304597702149756,55.13087250847133
1698420262404.0,0.01666666753590107,1.1376020546659826,0.7459117444299161,-2.055692174357176,0.4168902910094708,-1.5936404800415038,-11.551873372650146,20.29823962829445,-49.74476632901228,58.48171208886081
1698420262421.0,0.01666666753590107,1.0078557308122515,1.1128703489914535,-2.9375480743676423,0.12554587648920715,-1.2675801414489745,-12.409895392608641,26.892449177577845,-49.78199427508343,61.51549087288371
1698420262438.0,0.01666666753590107,0.5167605320375412,1.5879685718849301,-3.9912931574344634,-0.5428853725709021,-0.888697728729248,-13.420697406005859,53.72186253930564,-27.704983849168194,62.43703365608017
1698420262454.0,0.01666666753590107,0.1255441229235381,1.946687902019918,-3.6319103949546814,-1.0149920124329626,-0.6730696494504809,-13.013084573364257,79.07357813447952,-5.6470198326403604,63.44015621872327
1698420262471.0,0.01666666753590107,0.1692022089947015,2.2211913641154766,-1.946715666809678,-1.0133458526611328,-0.6622960342407226,-11.244966647338867,96.30629567458342,14.772643910510814,64.66292400469563
1698420262487.0,0.01666666753590107,0.2374346912868321,2.3418276220574974,-0.9807739548802376,-0.9479542928833514,-0.7555202613830566,-10.209624066925048,96.24000868868846,23.867370347010244,64.46843436807951
1698420262504.0,0.01666666753590107,0.2614688431512564,2.3906407528042792,0.8612859901905059,-0.9126398183960467,-0.9115922821044922,-8.297704988208412,91.92421022764333,28.205076639818188,62.39562904933155
1698420262521.0,0.01666666753590107,0.2373226822797209,2.495484690591693,1.627139429539442,-0.922665537847951,-1.0015244819641114,-7.461080561065673,87.82154098945928,27.950074942250346,59.019384580324214
1698420262538.0,0.01666666753590107,0.1997089178740978,2.6388909987464544,2.844866868060827,-0.9482534950256347,-1.103427397863567,-6.146663265118002,83.43008452297792,23.300579051567784,53.019186337873066
1698420262554.0,0.01666666753590107,0.1541227863498032,2.7897920465707777,3.5965976740330454,-0.9898528219360858,-1.1188403633117676,-5.32440521697998,78.59870240224521,18.31678125950624,47.386233706715174
1698420262571.0,0.01666666753590107,0.21589783613085745,2.9428035106778143,3.842646902799606,-0.941070890045166,-1.1757026527404784,-4.981735104370117,70.76149746176246,12.203479353267918,40.46998415316026
1698420262588.0,0.01666666753590107,0.2808398985754698,3.0217148425683376,3.8831963553309436,-0.8927379440307617,-1.2412439231872558,-4.870104867443442,65.58788188247709,9.07791734095203,35.14341331760163
1698420262604.0,0.01666666753590107,0.2492825846645981,2.9671745663464066,3.8153181663691997,-0.9440637151855975,-1.4282912201479077,-4.8695069015502925,60.287559463898816,5.663214211162461,30.323987443011024
1698420262621.0,0.01666666753590107,0.2330621752910316,3.0400539245963096,3.703407943457365,-0.9829695652283728,-1.4770727867126463,-4.9155952835083,55.457205286636196,3.3513117172158577,26.09515778066767
1698420262638.0,0.01666666753590107,0.23092677069753406,3.042824266092479,3.577891219997406,-1.0143934620179236,-1.617732134246826,-4.960186704906821,47.43258337042288,1.6604219754378617,20.50910635099296
1698420262655.0,0.01666666753590107,0.20198022380694747,2.9710429322123524,3.4084599514871834,-1.0649706798277794,-1.7820342231750488,-5.0752580221980805,41.60604951780848,-0.8636869721407798,17.039009960147766
1698420262671.0,0.01666666753590107,-0.0260496564052999,3.0597204558357594,3.1591864999771118,-1.3266871410645544,-1.7938555938720702,-5.262305611419677,30.80873962878517,-4.235013544863155,13.597599510042976
1698420262688.0,0.01666666753590107,-0.1372834413602948,3.0431068824261427,2.972192686769366,-1.4630068519592285,-1.8623896163940428,-5.415235242462158,20.233371614199545,-3.8052712757774696,11.917123672315133
1698420262704.0,0.01666666753590107,-0.39541955989226696,2.9448937609553334,2.437560909411311,-1.7440262718200683,-1.9882348411560058,-5.9299885993957515,9.194247415348395,-4.681842812818097,10.06374586461665
1698420262721.0,0.01666666753590107,-0.7661226116791368,3.085954090505838,1.8533622603297233,-2.1526867138184604,-1.8501193328857422,-6.506243011474609,-3.668276890934054,-10.55307086204012,9.059521933969894
1698420262738.0,0.01666666753590107,-1.0015974010698496,3.2011534180909393,1.567750251981616,-2.4259249782837924,-1.713649838256836,-6.798036338806152,-13.267363278767444,-13.263669000200114,7.331659097554148
1698420262754.0,0.01666666753590107,-1.6656433477178214,3.353646703542769,1.035031614768505,-3.1242835289001465,-1.5149308082029223,-7.351845110321045,-28.028345495044107,-10.426528801060938,3.2230100287517534
1698420262771.0,0.01666666753590107,-2.2258301298320293,3.6097348035037515,0.4927729957938194,-3.692906569317728,-1.1335048484802246,-7.964162184906005,-59.60392582987224,5.817890675106569,-1.9897352774017951
1698420262789.0,0.01666666753590107,-2.404684475725889,3.5465763365402814,0.1460696821451187,-3.8455367790222166,-1.029207438659668,-8.407089492034912,-93.0276272880589,12.116108427178762,-6.160984310607827
1698420262804.0,0.01666666753590107,-2.5413237739637493,3.0814860051810737,-0.8679910407871008,-3.943699047088623,-1.2499229042053221,-9.553762449645996,-125.64320125421713,11.286045782630866,-12.948810939840866
1698420262821.0,0.01666666753590107,-2.0841410008586942,2.2821917762622235,-1.949617233470082,-3.4434605377197265,-1.6373346603393553,-10.835558163452149,-143.02347820115,-3.3134133453889842,-24.474558796298744
1698420262837.0,0.01666666753590107,-1.763612285169214,2.0416209789067508,-2.5665087763637304,-3.1227871528625486,-1.5641615798398851,-11.584344148144126,-131.2051882198986,-19.18640606727414,-29.629295732718198
1698420262854.0,0.01666666753590107,-1.3197560266271233,2.0287708496838808,-3.5751281850248575,-2.7274446037292477,-1.2273276260375976,-12.71769994354248,-96.29893956084733,-30.31553849900772,-23.393893096008497
1698420262871.0,0.01666666753590107,-1.104105735516548,1.8795014947146176,-3.6235640068918467,-2.573766930798441,-1.184979891912639,-12.822446266174316,-69.9524957055203,-33.91282838012418,-11.002621106605664
1698420262888.0,0.01666666753590107,-0.9481555876091122,1.6170280776306987,-3.3330595503270626,-2.5058314586915076,-1.3027446860715746,-12.56447103729248,-53.411239196231804,-43.44679232931609,-0.7708423431229453
1698420262905.0,0.01666666753590107,-1.0736004148766398,1.1361734831675887,-2.687600669118762,-2.7961282638549805,-1.6208742316648364,-11.93973404159546,-52.16562784258033,-59.199612781953334,-1.8105512409420343
1698420262921.0,0.01666666753590107,-1.5812065304040908,0.9026774465039372,-2.981325841295719,-3.450493505096435,-1.7139488212034106,-12.245742356762289,-67.91444238926937,-65.38184239597449,-16.446644728905483
1698420262938.0,0.01666666753590107,-1.5368267059296368,0.6280630713798105,-3.3046985482394695,-3.5387798374451696,-1.8174983352661132,-12.588113778686523,-83.32690768537572,-56.42704092235923,-39.8394176738901
1698420262954.0,0.01666666753590107,-1.1448606474921106,0.26672332961335776,-3.769794432556629,-3.2297781856812535,-1.9390039233885705,-13.09493634262085,-85.85040986669613,-20.16380955259755,-71.60725246592845
1698420262971.0,0.01666666753590107,-0.648388943310827,0.32215719367414714,-3.4772435648560522,-2.70036019744873,-1.7275658431455492,-12.84519059742391,-75.12150090711592,10.70060380188604,-84.20104895573228
1698420262988.0,0.01666666753590107,-0.362558031515032,0.3311101693280041,-2.8658026885837313,-2.3168391651429237,-1.5942388843260704,-12.280907778167723,-63.211768353256375,30.128517674249014,-87.04549489596243
1698420263004.0,0.01666666753590107,0.7251571256928145,0.022939415430277586,-1.3163275134831667,-1.0600327850341795,-1.770811256762594,-10.790816519927978,-49.54492523918146,37.70522261488207,-81.50380042230508
1698420263021.0,0.01666666753590107,1.5880923443950712,-0.5906213756054639,0.6630097354680299,-0.06763619689941405,-2.3093569926939903,-8.84881969833374,-38.3477521704835,37.6535556489055,-73.37668127231197
1698420263037.0,0.01666666753590107,1.7352186959862708,-0.774303872308135,1.553275736427307,0.20066388051137327,-2.4383447532653806,-7.988553114318847,-28.917033360785513,35.13055207139449,-65.38568096228803
1698420263054.0,0.01666666753590107,1.8523260491497813,-1.0474008286066352,2.949792638912797,0.4566938205443322,-2.6578629718504843,-6.622511429595947,-22.745923294733142,26.26876411389647,-58.44799827511763
1698420263071.0,0.01666666753590107,2.079069835074246,-1.3264647304855286,3.604157295632362,0.7594109852112829,-2.900874294225871,-5.984905015453696,-21.97380285246176,15.19305742185073,-56.38310914561771
1698420263087.0,0.01666666753590107,2.21460146433115,-1.4670052739456294,3.6914614850759504,0.9403228481568395,-3.0050222125731407,-5.909637300762534,-21.507244583089236,3.618693986427993,-52.310765947348514
1698420263104.0,0.01666666753590107,2.3564332166455686,-1.438887725225091,3.3996155507743357,1.1010334884643553,-2.9322983371458946,-6.2110080192565915,-16.537078141063745,-6.0219169633513125,-42.30469249253616
1698420263121.0,0.01666666753590107,2.3960050563164055,-1.2351200334794818,2.7140701583713294,1.1381436141967773,-2.7054477298460897,-6.899789909362792,-11.4157416834593,-6.770467276570629,-32.886800778099456
1698420263137.0,0.01666666753590107,2.3778775712125,-1.1864330133304,2.315477083009481,1.116894928332418,-2.6420015319824217,-7.300220137023925,-7.70807338403449,-3.7841536115242596,-23.503596179362656
1698420263154.0,0.01666666753590107,2.145549555414915,-1.1263915093436836,1.6009885047167538,0.8934859859190881,-2.570624248858541,-8.01758280944824,-3.628315161647602,3.9215172534696783,-12.817589345506581
1698420263171.0,0.01666666753590107,1.7520748459801077,-1.1103126273326576,1.024859764844179,0.518494004766643,-2.5526677364073693,-8.596381060791016,0.396105828579194,7.56507483602381,-5.7717945821717995
1698420263188.0,0.01666666753590107,1.5708745214819908,-1.1878043016836046,0.8106897754192351,0.3553892358642071,-2.6397568217955527,-8.811410297393799,6.9865206741701185,5.079046914471488,1.6873292922297154
1698420263204.0,0.01666666753590107,1.0428716607443989,-1.1685748466871677,0.42795945509970185,-0.17268194086924193,-2.653523335210979,-9.189095024761556,13.595907330676106,-3.225891087921029,8.74852805313358
1698420263221.0,0.01666666753590107,0.46343715732470153,-1.225829204173386,-0.18922376421689985,-0.7686883705139159,-2.74375495640859,-9.799018482208252,15.208473158807449,-6.220809937547968,10.477897800034958
1698420263241.0,0.01666666753590107,0.23580256004035471,-1.2005030397370458,-0.5427238983988761,-1.0142438244141638,-2.754828285217285,-10.14438207168579,16.89062410042924,-4.106851448390213,10.81990073970313
1698420263254.0,0.01666666753590107,-0.06615881782323121,-1.0532815572082996,-1.050089483168721,-1.3274351829528808,-2.6636989845275876,-10.641029278564453,20.002285824010503,1.0366225060878895,15.41738132476146
1698420263271.0,0.01666666753590107,-0.4427563344761729,-0.8702911344230174,-1.4017057033002376,-1.7096097690857945,-2.5245358669005333,-10.984447579193114,19.6185401832298,-0.4128311209071305,21.66740910403145
1698420263288.0,0.01666666753590107,-0.6054904434353113,-0.8088574454255402,-1.6209551879465578,-1.895459526824951,-2.4979003734312952,-11.194538774871825,13.994985038596194,-10.947444277169362,26.22797763926774
1698420263305.0,0.01666666753590107,-1.0300926970615982,-0.8134856897480786,-2.5173949091047048,-2.407519699151814,-2.515407973071188,-12.076502811431885,1.6809210806843624,-31.514404037979624,25.868858245539517
1698420263321.0,0.01666666753590107,-1.5085440297752617,-0.9986704077072441,-3.7323978910982607,-2.9842227317810055,-2.689286868640035,-13.2788409576416,-2.6611505567768647,-37.14604185772229,19.641472543368117
1698420263338.0,0.01666666753590107,-1.5268901260659098,-1.0162126402691005,-4.270926091372966,-3.09166267741099,-2.6949730975829063,-13.805266047668455,-1.0502571644968217,-26.84774388191282,9.954204144481631
1698420263354.0,0.01666666753590107,-1.5292621158942579,-0.9520917580142617,-4.775472527068853,-3.1322144680298862,-2.6379611705504358,-14.302212529754637,7.903339100895046,7.907593454974317,-0.507046670277007
1698420263371.0,0.01666666753590107,-1.2516489973455667,-0.5169723481573164,-3.986493648198247,-2.799569928741455,-2.23319145238027,-13.516914385223387,16.698378180955473,34.66915913258179,-0.026778023445299445
1698420263388.0,0.01666666753590107,-0.9798004336729645,-0.28977994168251753,-3.096350396835804,-2.4257751945495603,-2.0554221252441405,-12.633753247833251,24.166238934522493,45.710439963663376,6.250729581207209
1698420263404.0,0.01666666753590107,0.0686687548175454,-0.2482160514116287,-1.0817132864445447,-1.237652766827494,-2.1046528968811034,-10.622025302886962,33.48943861385344,39.49277191313361,16.119552092195452
1698420263421.0,0.01666666753590107,0.9969969215370714,-0.6405711091667413,0.23394962565004823,-0.2415150924682617,-2.5746646102905273,-9.299977073669433,33.02050514619704,20.571264487534663,21.437774729041035
1698420263438.0,0.01666666753590107,1.4250921318456529,-0.7153440260782837,0.28421207842230795,0.1927332336425781,-2.714276348467916,-9.23712928009033,24.801866583967634,-6.2397594436265225,25.59402338616925
1698420263454.0,0.01666666753590107,1.9352135911948978,-0.8003935684628785,-0.46131110508143897,0.605882657623291,-2.846406352587789,-9.95957904652059,11.827781382876783,-38.83384990352414,28.036693693757154
1698420263471.0,0.01666666753590107,1.791191781490296,-0.27947160589694975,-2.4010914196699855,0.33623569564819333,-2.337937628881633,-11.878232401928305,8.324806168914437,-47.51727430103645,29.05498952164143
1698420263488.0,0.01666666753590107,1.7267286616690456,0.02975406388118863,-3.2789439292579887,0.14499869191274045,-2.04285256652832,-12.732663703918456,14.921483977809146,-40.04737302845489,30.676189562657317
1698420263504.0,0.01666666753590107,1.5281598537407814,0.4069835948273539,-4.036330569034814,-0.17492650492563844,-1.7322047549925743,-13.454066591644287,39.49141953567795,-18.46774722318374,36.675069578598645
1698420263521.0,0.01666666753590107,1.1967246902421116,1.1190957993775605,-3.60815250274837,-0.5574000740051269,-1.1189897086545824,-12.993481462749838,55.29633725620947,-5.943363811480642,44.87892590391685
1698420263538.0,0.01666666753590107,1.116514989104122,1.4164201650902628,-3.3077836547732353,-0.6759132023133337,-0.9401732105530798,-12.656797438812255,59.497982765656175,-1.9203966910517067,52.76372018744167
1698420263554.0,0.01666666753590107,0.857871213310957,1.6265514005184172,-2.638427765148878,-0.9784804371155797,-0.8846575134277344,-11.93853694076538,59.10141515225607,3.226763644587498,55.11596220551319
1698420263571.0,0.01666666753590107,0.48903585509210823,1.8204934254288672,-2.0807360147207974,-1.3643959633424878,-0.8081924056455493,-11.34492456665039,65.36476692304946,11.199999913240692,50.19347560653626
1698420263587.0,0.01666666753590107,0.32816710161343216,1.9839792295381427,-1.6047399662047623,-1.5161282012939452,-0.7902358931943774,-10.828225920867919,80.31564120485717,21.742976609461177,43.71803621673022
1698420263604.0,0.01666666753590107,0.26919994885995985,2.3329092793256043,-0.18063655313551424,-1.5294460941590369,-0.6950669617250561,-9.333046984100342,102.26632557452572,28.742955744503984,41.04530123223419
1698420263621.0,0.01666666753590107,0.39443785537853837,2.738798649175465,1.4650631999671457,-1.3673885692872105,-0.5196911055967212,-7.615057655334472,114.56608242056049,27.5452479225964,43.30419847001373
1698420263637.0,0.01666666753590107,0.45916137970164417,3.015580869857967,2.1433120056211945,-1.2814962924681603,-0.49948973682820796,-6.844722686657309,121.09458213493379,23.08493631909214,45.955336396354184
1698420263655.0,0.01666666753590107,0.5202816188357771,3.181473150587082,3.360153308957815,-1.222240093640238,-0.6807014595031737,-5.483918902587891,119.58777410213727,12.553528255778364,45.28938612208877
1698420263671.0,0.01666666753590107,0.43585254643708465,3.2286364683002233,4.086286147814989,-1.3335704708375036,-0.8788216468811034,-4.641159918212891,111.22664584099036,2.9559566758368363,40.15517048903062
1698420263688.0,0.01666666753590107,0.3716897247366607,3.348493558563292,4.19533104442358,-1.4395137481689453,-0.9805749251767992,-4.415655464825034,99.37877431044363,-4.233446870222283,31.408734181330356
1698420263704.0,0.01666666753590107,0.1988129919476807,3.478426052638888,4.236331163331866,-1.666514139202982,-1.1113584831237793,-4.226813393402099,88.90043084056532,-6.421643966129377,15.835759439728713
1698420263721.0,0.01666666753590107,0.0475701449483633,3.66092284668833,4.225108927571774,-1.8426375988282262,-1.1176432624816894,-4.127304386901855,87.74266596492397,-5.671277676364483,3.7978101478828767
1698420263738.0,0.01666666753590107,0.27223171777129174,4.019571741935611,4.236712271603942,-1.6247652477540075,-1.0007762939453124,-3.97108272857666,75.52025418105042,-1.701123286145379,-7.043066102761362
1698420263755.0,0.01666666753590107,0.42358635458201166,4.1007606633692975,4.102259962016344,-1.4639048237122594,-1.0612298858642577,-4.019415674591064,52.266728302674856,0.8210795584071526,-9.702778050944293
1698420263770.0,0.01666666753590107,0.6614343028448522,3.839696236300468,3.7689486293822525,-1.2042835811890662,-1.4086884017944334,-4.302230745697021,24.79217625308268,5.984255727154686,-11.74316985321231
1698420263787.0,0.01666666753590107,0.65874345632568,3.5632653132736682,3.483728250700235,-1.1780967082701623,-1.7184382415771484,-4.572326035961509,2.604798507916498,2.1784544713863054,-13.051549791562552
1698420263804.0,0.01666666753590107,0.3659882982246577,3.3782378317028283,2.667978853803873,-1.473780905560404,-1.8945617012023925,-5.393238514709473,-13.823962224420953,-18.014693945347624,-12.50441748809868
1698420263821.0,0.01666666753590107,-0.04802300328239798,3.2740947356611487,1.7310118919461965,-1.9093759701050816,-1.9595050057560204,-6.350769541168212,-30.655852674403604,-22.28837575242316,-17.67261416605129
1698420263838.0,0.01666666753590107,-0.22923896374106406,3.0810242328882214,1.185107025423646,-2.111236805316061,-2.0772692153930663,-6.940192062377929,-50.902650732964105,-22.450459556522148,-26.20702261889414
1698420263854.0,0.01666666753590107,-0.5580208362519741,2.5861680010795594,0.48844870285391806,-2.4144027366638183,-2.403179916381836,-7.747486934661865,-83.87711357396608,3.8155882765187736,-38.04889382825501
1698420263871.0,0.01666666753590107,-0.5510007283568382,2.2651968023195863,0.16464461875557898,-2.3243210453309118,-2.5281273155212403,-8.204929089355469,-114.65650046479313,25.40146669308825,-38.61739437853727
1698420263887.0,0.01666666753590107,-0.5458407152451574,2.007792943584919,-0.08647358383834361,-2.199672921399027,-2.5098718201234935,-8.631994810485839,-149.5050545159253,41.889823387255,-33.156808401273814
1698420263904.0,0.01666666753590107,-1.005390071351081,1.680306663842499,-0.9025520665585994,-2.466775897979736,-2.3268647384643555,-9.733028883472084,-198.50017343258284,53.17093948085241,-23.140641634415474
1698420263921.0,0.01666666753590107,-1.6104605358086526,1.3504066009566187,-2.841618095397949,-2.9385834087647495,-2.162413011932373,-11.900678627014159,-228.6326867674963,41.197580299779624,-19.618439437939543
1698420263938.0,0.01666666753590107,-1.945316613666713,0.8485837450057268,-5.924647238367796,-3.165583580603078,-1.935711749975383,-15.248221460723876,-219.16310759651552,10.544671436908295,-21.01644255725775
1698420263954.0,0.01666666753590107,-1.8049965810894966,0.676492755766958,-7.06813104454875,-3.0151977888245134,-1.6428712516784667,-16.519392904663086,-159.79532189681814,-9.467078467970907,-16.86806740069527
1698420263971.0,0.01666666753590107,-1.5339802304573356,0.7400581960961222,-7.368459560513496,-2.7611130645751953,-1.2856861453734338,-16.88480793304443,-78.51130330162573,-5.461199413628286,1.3967736852676076
1698420263987.0,0.01666666753590107,-1.8932405356012283,1.0937580906338988,-5.988360708865523,-3.1383494636535643,-0.8111854499816894,-15.52729559173584,0.6948211637219398,-2.8292699002246167,38.252621295723564
1698420264004.0,0.01666666753590107,-2.014942376948148,0.9555262625075877,-5.613288209822773,-3.3105824917115267,-0.9594763153076171,-15.14347513809204,16.289540132711434,-18.590673552771044,56.30968119694549
1698420264021.0,0.01666666753590107,-2.5899630094483492,0.08692161986678838,-4.541634545099735,-3.9730281635560094,-1.8489220859251916,-14.055310483551025,16.0468361907442,-27.268393034779102,54.81450156121092
1698420264038.0,0.01666666753590107,-3.235399678824842,-0.6797125945962965,-3.4797739601165056,-4.740070228167623,-2.638410083361715,-12.970287634167075,10.374383721842475,-26.972220664441714,26.72641752413859
1698420264054.0,0.01666666753590107,-3.252991741877794,-0.8275896184243261,-2.9668875660985705,-4.82311953664571,-2.7989712321959432,-12.444162403869628,4.039817837441592,-20.091020226612724,-1.445987439393371
1698420264071.0,0.01666666753590107,-2.5612434031814337,-0.9119586311988532,-1.4148077614575623,-4.1648634254455565,-2.89069908330068,-10.884938572692871,-1.0228763234964158,-11.947939778302938,-21.425873124412288
1698420264088.0,0.01666666753590107,-1.4825345592498778,-0.6242825299277901,0.31451953840255736,-3.0904655765809115,-2.61611408040151,-9.152135121154785,2.5171215039751598,-3.044751056037706,-31.82373647530033
1698420264105.0,0.01666666753590107,-0.9633385436937212,-0.4620531556203961,1.263660922178626,-2.5617959224976596,-2.4854804523192344,-8.19789612197876,13.730168359191046,-3.814112955658051,-28.599658375717116
1698420264121.0,0.01666666753590107,-0.10013400653079152,-0.27436536879912016,3.0378122831493615,-1.7166425903320313,-2.387467821856588,-6.401047776031493,33.45169157340536,-20.29436008084588,-18.047098070317457
1698420264138.0,0.01666666753590107,0.6211511000342667,-0.2899178888484835,4.375557847714424,-1.0645219131469725,-2.505980950164795,-5.027524211120605,45.124481449862564,-42.93705872665262,-10.569649438703031
1698420264154.0,0.01666666753590107,1.0322719407968222,-0.4146430235393345,4.67661467795372,-0.7809586540222168,-2.7545290100097652,-4.672583815002441,52.16480821987993,-64.76347121946739,-8.283617566898322
1698420264171.0,0.01666666753590107,1.558027899390459,-0.682353318363428,5.059722014892101,-0.48542438659667964,-3.1959596488401294,-4.196436375316977,47.284580001297876,-80.27196214511494,-16.170780218517837
1698420264187.0,0.01666666753590107,1.716889989221841,-0.7648433855235576,4.9084775604575865,-0.5048774212159216,-3.388094624328613,-4.275894527435303,34.30691663485558,-76.69220535959789,-23.589328713824656
1698420264204.0,0.01666666753590107,1.7347548778668045,-0.6882634191900492,4.807695465281605,-0.6382045261658728,-3.390189258520305,-4.31584776763916,17.16511574279371,-65.3110269946598,-31.925940010945816
1698420264221.0,0.01666666753590107,1.8872560543641448,-0.573903465038538,4.150988044828177,-0.6239890999391675,-3.3206080650329586,-4.92202970046997,-8.931513943640098,-43.45998483969797,-43.3517639073937
1698420264237.0,0.01666666753590107,1.8142808345243333,-0.3717208505272865,3.476960656261444,-0.7453451965883374,-3.1090204933166503,-5.585373197937011,-24.057259851220355,-25.873089547730338,-49.97455096816443
1698420264254.0,0.01666666753590107,1.7720695862606166,-0.20215134259015322,3.1398493468225,-0.796072344262898,-2.9049148017883297,-5.930437512207031,-33.87003382987947,-13.682070167055816,-54.616197263943356
1698420264271.0,0.01666666753590107,1.582968279379606,0.005107552272081375,2.4831822583794594,-0.9665092826843261,-2.6255413955688476,-6.613533173370361,-42.17007629418438,-9.214698709270705,-55.20655100447507
1698420264287.0,0.01666666753590107,1.2415157258659602,0.149698394036293,1.6173983722478151,-1.2975076622009276,-2.4118583128780124,-7.5019310423702,-45.95608771716288,-13.608379256100548,-53.22467940924207
1698420264304.0,0.01666666753590107,1.103041028894484,0.19518442618697882,1.1297136395037173,-1.4426561378479004,-2.2860133803769944,-8.009950707134603,-50.640631016024074,-21.11160587541625,-50.74098357040449
1698420264321.0,0.01666666753590107,0.8026926391854882,0.3364490461379289,0.006018237376213074,-1.7836802368164062,-2.018012724304199,-9.15572700816691,-54.46222772457834,-28.109074915939072,-44.38205354746052
1698420264337.0,0.01666666753590107,0.5580106071189046,0.42067587396278977,-1.016482397121191,-2.0672437882021066,-1.833359775134176,-10.192415742492676,-52.124230066020885,-23.72610837459604,-38.149342005283806
1698420264354.0,0.01666666753590107,0.48796881038248535,0.4051397205263376,-1.395923612767458,-2.1603180854797364,-1.7533038032531738,-10.588207204437255,-46.96028944969484,-10.614107140010645,-30.306795856870103
1698420264370.0,0.01666666753590107,0.38397915133684873,0.1370525552138686,-1.8944716848313807,-2.254889343316853,-1.9333176944456993,-11.109694253540038,-40.8370043682109,6.331515351162827,-19.2347484386722
1698420264388.0,0.01666666753590107,0.3223930482566357,-0.230858820027858,-2.096660144561529,-2.2707509293153882,-2.185008143969625,-11.350161882781983,-38.68495177961786,13.701757333564732,-2.2888027941736198
1698420264404.0,0.01666666753590107,0.2877040121912956,-0.6337025385715067,-2.1742326290637255,-2.283470125634968,-2.4883237129211424,-11.454309654998779,-41.774581020483964,4.675265340647374,9.565743965626327
1698420264421.0,0.01666666753590107,-0.02152238823920488,-1.3292229431524871,-2.8029578176140784,-2.620902629852295,-3.0291140129089356,-12.10478431854248,-45.312318482227084,-17.209090208217546,17.59151420739385
1698420264438.0,0.01666666753590107,-0.5502469873800874,-1.6689095099069178,-4.286783585718274,-3.2137668159484862,-3.245489841815084,-13.59218209991455,-45.94042950849063,-27.691238093463543,15.993844168068659
1698420264454.0,0.01666666753590107,-0.743589000570774,-1.7761426809184253,-4.933732997745275,-3.4765307404115795,-3.2342670215331015,-14.238317272949217,-42.414446802309094,-22.474112501617903,11.74770253750026
1698420264471.0,0.01666666753590107,-0.9158066849291324,-1.6544351404830813,-5.616379161575436,-3.6833299088075755,-2.9885622222900388,-14.929343727111815,-26.572787786684785,7.593060682374292,8.646483319386297
1698420264488.0,0.01666666753590107,-0.6301867855355143,-1.2802085907451808,-5.158819517982006,-3.3469445755556224,-2.563142368670553,-14.493898300170898,-8.627522714250341,36.97353860004445,11.900792690009633
1698420264504.0,0.01666666753590107,-0.3197173993065953,-1.2033555065587163,-4.42368095037043,-2.9228713142395017,-2.480991178075969,-13.791798078808188,13.686879474005151,58.795292903845265,19.67153562099993
1698420264521.0,0.01666666753590107,0.6355806074030697,-1.2549071223586796,-2.1896371189445256,-1.777246112115681,-2.5980079303465784,-11.59945813064575,37.40553440466942,58.402188196354345,34.47688589235135
1698420264537.0,0.01666666753590107,1.2902658743791282,-1.4681648192442953,-0.964120341721177,-1.0206782413758337,-2.8836661159239707,-10.388889916229248,40.120821467694626,33.965222761247354,45.06022644524567
1698420264554.0,0.01666666753590107,1.4705799175620078,-1.6699623799607157,-0.8698457287430763,-0.8161236370362341,-3.1492728625975546,-10.290727648162841,34.323134919039774,-0.24252182137631706,49.25856614313409
1698420264571.0,0.01666666753590107,1.6016327939696609,-1.7596772838078438,-1.67419753331244,-0.774674020794779,-3.301304814147949,-11.062857683563232,31.020844323270747,-33.44818085617197,49.12223215220605
1698420264588.0,0.01666666753590107,0.8135191536262631,-0.8011287508696318,-3.063238985350728,-1.6730983398988841,-2.3967453532896936,-12.414234883117675,40.668763148575145,-37.7262391069582,49.44495517539457
1698420264604.0,0.01666666753590107,0.6237555834442376,-0.35038390185758467,-3.5114041931331155,-1.9663880432680247,-2.0326770633421836,-12.81900460128784,58.271758903963786,-28.132630530839155,50.56764361455332
1698420264621.0,0.01666666753590107,0.4132973080188036,0.22062398786991833,-3.562504850295186,-2.2626704987123607,-1.633443936511129,-12.81301909713745,75.00502569119968,-4.908938064984558,52.10882457434792
1698420264638.0,0.01666666753590107,0.42911300904899835,0.586238630476594,-2.9283325022548437,-2.264765132904053,-1.413476805114746,-12.14324118270874,75.67691823004301,11.20655604107026,50.60624442864764
1698420264654.0,0.01666666753590107,0.47987756612449883,0.7284627431094646,-2.3774662139326335,-2.1977274864196774,-1.4157213691711426,-11.564592568969726,73.17817548446388,23.18813706235645,46.366957746685
1698420264671.0,0.01666666753590107,0.3830129366531968,1.1040199569292366,-1.3559703725636005,-2.2391773949220775,-1.2310685661315917,-10.512490576934814,72.89931252103061,30.924347410676805,37.753655486286625
1698420264688.0,0.01666666753590107,0.3301356252074241,1.3568079924315213,-0.30496202098429204,-2.2375310890197753,-1.1351505698606372,-9.435548742675781,79.92522076171007,31.8264992868196,31.323254363867647
1698420264704.0,0.01666666753590107,0.36127807470709083,1.6212378042802214,0.20482640701830385,-2.1537343231752515,-1.0529995253965259,-8.888772938537597,90.35909286990241,28.608090244247496,27.458675274866486
1698420264721.0,0.01666666753590107,0.49121816756725306,2.004786455245316,1.2678677262187004,-1.9681834022521971,-0.9519947273805737,-7.753173163604736,103.28916006311347,22.686638960284725,25.61903724645713
1698420264738.0,0.01666666753590107,0.6688051238738,2.2352853559195993,2.2168477819532155,-1.7613840877257287,-0.9539397239685058,-6.732644121441244,108.46225654802193,19.026895536944956,24.16157903796125
1698420264756.0,0.01666666753590107,0.7018254960745572,2.473093410563469,2.500235684511065,-1.7072155674256384,-0.9540893615722655,-6.366631127166747,108.71179750934834,16.50253104424182,22.673443034808262
1698420264771.0,0.01666666753590107,0.6650820116974413,2.770859967085719,2.947785390743613,-1.724723167065531,-0.9615715340211987,-5.800252796936035,100.79879112945679,13.18486825397203,19.107776929548955
1698420264787.0,0.01666666753590107,0.5304714428082108,2.923553451284766,3.0594015991449353,-1.8489223781861364,-1.0160393295288086,-5.600187320709228,91.17773885325263,11.124744888965491,15.350291791639009
1698420264804.0,0.01666666753590107,0.44358679395094514,3.033704847830534,3.0257547656089065,-1.9271828449524937,-1.0919055946350098,-5.549160897827148,81.66673458495573,8.707336889796526,11.152987721183495
1698420264820.0,0.01666666753590107,0.34836803199052807,3.2074151088342067,2.937927429074049,-2.0151697559632358,-1.1351511543825268,-5.531204385375976,70.19989198744733,4.721051513748555,6.336104811398253
1698420264838.0,0.01666666753590107,0.2606637373134494,3.3384757301568984,2.8395453807771203,-2.098966814068705,-1.1489178139284253,-5.554847711291909,64.70298989436692,4.08305122734048,3.9063559410595428
1698420264854.0,0.01666666753590107,0.24306232191026209,3.463237251335382,2.8163655807197094,-2.1125835437498988,-1.1577461402893066,-5.506363958629965,59.172688176245146,2.4485820497579627,1.6119645580409714
1698420264871.0,0.01666666753590107,0.1972076025776565,3.508538866829872,2.819174792921543,-2.1565772915162147,-1.2692261550903319,-5.415085604858398,48.89837611725346,-1.8288544403703761,-1.9745848506056491
1698420264888.0,0.01666666753590107,0.1615000371195376,3.4452287164360285,2.7242414237737655,-2.196380894116312,-1.4270938270568847,-5.453243193817138,36.93591108790685,-6.363373060999059,-5.3453081788860946
1698420264904.0,0.01666666753590107,0.09983122419193387,3.421049383947253,2.558124394378066,-2.2658127422608434,-1.5182231277465819,-5.576843854522704,21.313513097470995,-9.551814648587731,-9.113865480327453
1698420264921.0,0.01666666753590107,-0.09475406705811619,3.3520559272199866,2.346106614550948,-2.4741082866944373,-1.6193781478881835,-5.76523759765625,-6.626871513894397,-14.224818342846186,-13.61587965758287
1698420264938.0,0.01666666753590107,-0.2731792277544737,3.3809266323953864,1.9583073204040526,-2.665494635772705,-1.5581763679504395,-6.168959852600097,-33.01326856077141,-15.752559197901496,-16.340382353345717
1698420264955.0,0.01666666753590107,-0.28598157231286164,3.250161194626987,1.7058289353728293,-2.6849475242614744,-1.6012722900941967,-6.472125637817382,-59.25802455973528,-10.54266165374502,-18.98908190215247
1698420264971.0,0.01666666753590107,-0.37201676473394035,2.878763584704697,1.2549427781939506,-2.7477954639710482,-1.772906329345703,-7.0449383850097655,-91.84903716563817,3.8042663841958313,-21.244570875536176
1698420264988.0,0.01666666753590107,-0.5104933614015579,2.740260830682516,0.7677209867864847,-2.8416182415284217,-1.693149486541748,-7.663240963745117,-121.07029398224522,12.8691521510983,-21.80797268960302
1698420265006.0,0.01666666753590107,-0.6150502989411354,2.4882082698479295,0.42216625865101814,-2.8895022747315466,-1.6521487831115722,-8.1717095413208,-153.79239157869898,14.787883770096405,-23.17451595760415
1698420265021.0,0.01666666753590107,-0.9894466522879898,2.068577082632482,-0.7199959435373544,-3.1815947311401365,-1.5714938224241137,-9.558250993236898,-187.25622039825947,16.29771416160065,-31.77897141548007
1698420265038.0,0.01666666753590107,-1.3465898191474377,2.1534028992637992,-2.626586520707607,-3.4578258938111364,-1.054047280883789,-11.650185278320311,-198.54048520906426,26.71508794785283,-42.44263499301374
1698420265054.0,0.01666666753590107,-1.4381212708972393,1.8571651597440242,-3.4935616624504324,-3.4271501850403845,-0.9132380034849047,-12.688071697998046,-185.0238823510675,45.1733753590361,-50.82861489745575
1698420265071.0,0.01666666753590107,-1.1850021037444471,1.5299835620366036,-4.091162229418754,-2.96237564163208,-0.7641990962706506,-13.458555135235189,-123.25878221496569,54.29254191993313,-38.2883056190423
1698420265088.0,0.01666666753590107,-1.0769751520067452,1.8427505576834082,-3.149819536694884,-2.731784094238281,-0.2240073466978967,-12.592303631591797,-72.76313220935889,28.950733514150357,-10.652805284300644
1698420265104.0,0.01666666753590107,-1.0294402245022356,1.7095524859406053,-2.6979274173438546,-2.68135622177124,-0.22161314503774046,-12.169577400970459,-38.73798136833384,-28.025393145775368,15.328228573072575
1698420265121.0,0.01666666753590107,-1.293600864020735,1.2725835026942194,-2.603673847153783,-3.1715691578187046,-0.5548560886107384,-12.0537578956604,-21.256983036805384,-92.4842584188277,21.61970877041537
1698420265138.0,0.01666666753590107,-2.2360678845994175,0.6775077780283987,-3.219270089539885,-4.364479988861084,-1.0833761050902306,-12.628815206909179,-27.66764149742844,-99.42024721908395,7.576129497195476
1698420265155.0,0.01666666753590107,-2.800736634433269,0.5987275251716375,-3.478616606774926,-5.192873763275146,-1.0541969184875488,-12.844293356323242,-42.08027638207164,-58.29639539630002,-24.68416534909539
1698420265171.0,0.01666666753590107,-2.7530218203172088,0.5564395584098994,-3.2427181851446627,-5.217863535363972,-1.0036192622862756,-12.605471740722656,-51.89125231343175,-13.308020833575592,-43.64989483447559
1698420265188.0,0.01666666753590107,-1.9393224878184496,0.32184535124599933,-2.1319974154025316,-4.371213973291218,-1.1318586887083948,-11.520449475860595,-59.1040720958432,22.652942222014467,-51.413193713044215
1698420265204.0,0.01666666753590107,-0.5996212591409683,-0.10969079329669475,-0.23120821798741817,-2.8871080730713903,-1.4133270213805138,-9.677812023162842,-55.57472210640085,45.96419515170769,-49.5609283724068
1698420265221.0,0.01666666753590107,-0.20776231433972714,-0.37330220143459736,0.7880605949819087,-2.3662192821227013,-1.578526862866059,-8.70187498691976,-44.92860186975035,44.28352123849392,-42.88274847746727
1698420265238.0,0.01666666753590107,0.37099253625273704,-0.6769472946014254,2.5925468884617087,-1.6807295654296874,-1.8077716718260197,-6.930165758404136,-32.49232320258537,30.50169188974183,-36.832836703142185
1698420265254.0,0.01666666753590107,0.7241859425731003,-0.9498796349227427,3.7264696700930595,-1.258452247619629,-2.0129248996458946,-5.818658222198486,-24.541742244522283,2.9454845017353257,-32.20763067269548
1698420265270.0,0.01666666753590107,0.9025015054151415,-1.1695979791898279,4.0421740343660115,-1.0877158878602087,-2.1854569837156683,-5.506514180755615,-27.383973495914056,-14.700283178896406,-31.272468492294017
1698420265288.0,0.01666666753590107,1.3610695953987537,-1.5706709617339074,3.9909471204757687,-0.6857894302919506,-2.504933267742768,-5.5540989387512205,-34.53216602839885,-22.81142822396815,-33.341909942875745
1698420265304.0,0.01666666753590107,1.4175329486377537,-1.4513121763817964,3.580688741761446,-0.6759132023133337,-2.3142951066832986,-5.960963583374023,-36.984695714053665,-20.274096617125746,-33.489281519502526
1698420265321.0,0.01666666753590107,1.4990455490678547,-1.4048872559458017,3.1827807260543106,-0.6331168476380408,-2.191442487866059,-6.356904682922363,-38.24697614437455,-16.26306119684659,-30.516018211525935
1698420265337.0,0.01666666753590107,1.7185796958744526,-1.512057298593223,2.496071550568938,-0.445620783996582,-2.220173053918406,-7.042544183349609,-37.11900113879821,-14.25608780264015,-27.698040961876877
1698420265354.0,0.01666666753590107,1.7825734446182846,-1.5442802368059754,1.7835580717414616,-0.4192845657348633,-2.1573250411435962,-7.753022941479086,-31.6380885185648,-11.955035491076936,-24.904804364948895
1698420265371.0,0.01666666753590107,1.8076152391552924,-1.5670166770100593,1.439982534724474,-0.41973362467661496,-2.120065350872651,-8.094346900177001,-27.361268239565643,-11.051919704487524,-20.846801148842147
1698420265388.0,0.01666666753590107,1.7184971321575342,-1.4615928935080766,0.8220131334662437,-0.5406408085145056,-1.942295877606049,-8.708758316692709,-24.954777444011295,-10.20426420018497,-14.11699100019284
1698420265404.0,0.01666666753590107,1.4901856585249305,-1.4546929048612713,0.028058219748735427,-0.7915829238891601,-1.8813933363432063,-9.49989232777059,-24.297813991146324,-8.844545144938326,-11.285465216551415
1698420265421.0,0.01666666753590107,1.3653596938081085,-1.5217850580118595,-0.4039151471674442,-0.9335891559876501,-1.895758655901998,-9.929951385498047,-23.126368246597437,-5.769027501784298,-10.66221301610869
1698420265438.0,0.01666666753590107,1.146584256414324,-1.585162720683962,-1.2675520843982695,-1.1614872265137732,-1.89575861936938,-10.793659634399413,-19.268171969375654,-0.6900911510000002,-9.014821760946745
1698420265454.0,0.01666666753590107,0.9703031220093369,-1.5648299806207417,-2.1967536729514596,-1.3353661220826207,-1.8391955503492614,-11.724555167388916,-12.591399093405146,2.016161919630809,-5.306280477968642
1698420265471.0,0.01666666753590107,0.8569321788951754,-1.5290812063694,-2.5935318078458307,-1.4425067925050854,-1.785475741931051,-12.1233387968868,-3.0290943414693325,2.459716965652376,0.31018356960474097
1698420265488.0,0.01666666753590107,0.48024449974074956,-1.3669015164226292,-3.342698900809884,-1.8186955822266637,-1.6252138135054148,-12.872574863433837,5.061986382585265,-3.2320666461477785,8.580898135428543
1698420265505.0,0.01666666753590107,-0.029110359150171277,-1.3079217964485288,-4.302980687281489,-2.349160887555033,-1.5726910876509732,-13.82756205062866,4.547427251273184,-13.92770767527157,11.535135097698415
1698420265520.0,0.01666666753590107,-0.33430297401994463,-1.2111834967706352,-4.983792036899924,-2.70215599482432,-1.4763244160307571,-14.496591777038573,1.3646221705753592,-22.350182134222603,8.587540494396379
1698420265537.0,0.01666666753590107,-0.8185711763188243,-1.0280178635489194,-6.139823774486779,-3.2375594872072337,-1.2958614841627887,-15.639673432159423,5.114484924093276,-16.01136189574245,1.235672361192044
1698420265554.0,0.01666666753590107,-0.8404926468782127,-0.7751724718362093,-6.362194606024026,-3.2653919353760776,-1.0916061732970177,-15.859042159271239,25.22392275580294,15.428096184021918,-6.268607174472894
1698420265571.0,0.01666666753590107,-0.7893580874465406,-0.520076086326316,-5.910676580682397,-3.141940912274271,-0.9271544467650353,-15.422249993896484,45.262560554123546,40.96742000022312,-2.529775069742843
1698420265588.0,0.01666666753590107,-0.1945551883727312,-0.06981200656853616,-4.080307657927275,-2.3870192013062534,-0.6605002733977511,-13.620463607025146,67.25097830386184,51.786193758713196,11.765863156729678
1698420265604.0,0.01666666753590107,0.6237668354906142,-0.21464009115472435,-1.787953091830015,-1.4519338154114783,-0.9802757230345159,-11.341782176971435,80.66916496610786,42.316238927328065,23.95861142903786
1698420265621.0,0.01666666753590107,0.8710819925397634,-0.1829530133843422,-1.0129542229950428,-1.1308115177430211,-1.1411362201415,-10.565163013458251,84.42287300940679,20.781839219646155,32.2189687867177
1698420265638.0,0.01666666753590107,1.1957909165233374,-0.15754866914525628,-0.37203649234771724,-0.8034044407166541,-1.3561654567442833,-9.897629663085937,71.8564450876072,-9.860194274519223,34.92351879236765
1698420265654.0,0.01666666753590107,1.1472855365514754,-0.10496639512330293,-0.9371849885225295,-0.9029134472168981,-1.441907803698629,-10.433481922149658,54.351568414740385,-19.258266487531845,33.18447408250695
1698420265671.0,0.01666666753590107,0.9047421239487826,0.10724281562268734,-1.567770710247755,-1.2002433658875524,-1.3298292384825645,-11.037419290924072,42.464406220993155,-13.846248277909059,32.77669812867885
1698420265687.0,0.01666666753590107,0.3734669635422528,0.675665511162579,-2.7522031974107026,-1.771559590911865,-0.8734345470152794,-12.195165431213379,44.201541892980835,0.6038208458625675,34.50778566815649
1698420265704.0,0.01666666753590107,0.2229232047230005,0.8873506980344653,-3.1491134342521425,-1.9222449501588939,-0.7634509082518518,-12.574796031951903,56.170632205822365,10.550444654304249,36.24106228326311
1698420265721.0,0.01666666753590107,0.23704569196924566,1.0311163410209119,-2.9911534078270194,-1.891868370465189,-0.7565674323484302,-12.395529598125815,72.8931380300209,15.676023513156917,39.47099043987044
1698420265738.0,0.01666666753590107,0.44923765931949017,1.271892743951082,-1.9862059656769036,-1.6518495079040527,-0.7550710563108325,-11.348216009411216,91.3240210147068,18.04507462677584,43.59853181191709
1698420265754.0,0.01666666753590107,0.44204657877162096,1.5175520966172218,-0.6811153010010719,-1.6382327782228587,-0.7151179622374475,-10.000879609680176,96.82825873095581,19.511261817030995,44.67430709676161
1698420265771.0,0.01666666753590107,0.40848289347440003,1.6868978788010776,-0.13037468488514423,-1.6473603797912597,-0.7568667075559496,-9.402478247722982,96.9811866664724,22.755804870914858,42.88876245903146
1698420265788.0,0.01666666753590107,0.3866999546028673,1.7985685938686131,0.9966869788050651,-1.6247652477540075,-0.9267056800842285,-8.206425465393066,96.6974059668367,27.370910759126406,38.472321160566196
1698420265804.0,0.01666666753590107,0.47280017508417366,2.0019240515515206,1.956473090714216,-1.497274009350687,-0.9352350234985352,-7.190236498260497,96.95122262658354,29.69581152995037,35.28217202568502
1698420265821.0,0.01666666753590107,0.4982654557302594,2.2105659252047536,2.3283155217945573,-1.4266450603760779,-0.9392755310609936,-6.757035635375976,96.78538563353564,30.772693305440427,33.29139386377433
1698420265838.0,0.01666666753590107,0.5535236709631979,2.4551170243680476,2.9295091448187827,-1.314716132763773,-0.9762354346677661,-6.065260993194579,96.06760105365899,28.055015676205716,31.92061587848779
1698420265854.0,0.01666666753590107,0.5524349989436567,2.5589155447557568,3.3398166233718394,-1.2858360752381384,-1.07888712310791,-5.57968638447225,93.36333791595419,21.744484373720457,30.525351665026758
1698420265871.0,0.01666666753590107,0.5287568939752877,2.714890827104449,3.408341293543577,-1.2985552715577184,-1.119288983862102,-5.430798137775064,87.98478251062258,12.185725984067762,28.2782108903561
1698420265887.0,0.01666666753590107,0.4881910748310387,2.8328935216724873,3.3601445411294697,-1.3575123413085937,-1.2391487044736742,-5.368098812755942,79.04557435888246,0.22858239245609951,24.272002706272847
1698420265904.0,0.01666666753590107,0.4918798463463783,2.9024928353384136,3.0984757184267044,-1.3833997928895057,-1.331774673461914,-5.545868286022544,74.36020119203712,-4.434558802125546,21.007501839634205
1698420265921.0,0.01666666753590107,0.44107218078151345,3.02383724154979,2.848264693805575,-1.4671968509949742,-1.3637971206665038,-5.711966610717773,70.40784392691754,-4.6558791293487625,17.73992738786906
1698420265938.0,0.01666666753590107,0.2965447596423328,3.116109867055714,2.4621879856675863,-1.6445172653198241,-1.455823954717815,-5.993583996471762,59.68285549592091,-1.6581191344705095,12.476597273835573
1698420265954.0,0.01666666753590107,0.1177314764112234,3.122751204766333,2.1369804645121095,-1.8393455715455114,-1.5620669456481933,-6.253056185913086,47.58214402267865,-1.9943159864573465,8.038791997420153
1698420265971.0,0.01666666753590107,0.017079437355697155,3.199188547758758,1.9481044908195733,-1.9536687008179723,-1.5713444770812988,-6.390273868560791,33.98191232848428,-4.341068453426882,3.7711156341723515
1698420265988.0,0.01666666753590107,-0.12622487172931432,3.157434687873721,1.500372998279333,-2.118569340161234,-1.6880621002748608,-6.789507579913735,18.92515645416303,-9.755459300012602,-3.5575008275499678
1698420266004.0,0.01666666753590107,-0.2963188419319689,3.1311259421408173,0.9201566968321799,-2.3044190979003907,-1.7485151076719163,-7.345859606170654,9.82819996089959,-11.91732260157471,-8.607803104342869
1698420266021.0,0.01666666753590107,-0.3639318040862679,3.2404367962092158,0.6183510940521955,-2.3850739124573765,-1.6545429847717283,-7.6354083694458,-0.1872566530480547,-10.695623740207454,-9.168036564408471
1698420266037.0,0.01666666753590107,-0.45753976984918115,3.3869206121131774,0.39049861623346804,-2.4910171897888183,-1.4884449523374437,-7.87183578338623,-18.053760919852802,-6.672793010118507,-5.158096962604276
1698420266053.0,0.01666666753590107,-0.43428909651264547,3.1777178897067904,0.4887164138793945,-2.4754548789978026,-1.6398784996032714,-7.805546324920654,-37.97360465303396,-4.70904788316908,-2.3429418617429025
1698420266070.0,0.01666666753590107,-0.4697235441178083,2.9157261186599728,0.5741384428381919,-2.5158570320129394,-1.792807838384807,-7.781304448589682,-63.616409250255444,-1.9540402819124854,-1.5194977772224563
1698420266087.0,0.01666666753590107,-0.5922630053326488,2.48258370796442,0.32951720104813575,-2.6354176235474647,-1.98239868234843,-8.15928962020874,-105.81422635775382,-0.8211808373059393,-8.650749626296616
1698420266104.0,0.01666666753590107,-0.7369726511709391,2.145514191840589,-0.7424059282660483,-2.7656023388184607,-2.055122850036621,-9.368511096191405,-135.4418452790308,0.17809803638172872,-19.21592785241423
1698420266121.0,0.01666666753590107,-0.9416755779400467,1.9443290639340876,-1.5297124900102614,-2.9397805095948275,-1.9418471839904785,-10.308983435821533,-149.4478858325723,4.558296216676791,-29.744596156097185
1698420266138.0,0.01666666753590107,-1.134129556249827,2.17127787091136,-2.8339374777674675,-3.061435735321045,-1.28957686920166,-11.80491056060791,-132.7167773851141,15.035445684110808,-30.389263560908837
1698420266154.0,0.01666666753590107,-1.2102039111487566,2.2555358245268464,-3.2049767757713794,-3.0747536281861363,-0.9482537872865796,-12.28405016784668,-92.69910884935962,19.216445239243857,-16.471096806134128
1698420266171.0,0.01666666753590107,-1.1866719366528093,2.229050845444202,-2.758389192569256,-3.010858225250244,-0.8114847251892089,-11.901576452636718,-48.71798740617884,7.4462611340905,4.895455698449776
1698420266188.0,0.01666666753590107,-1.0272387689352034,1.9681115060597656,-1.9433675254255531,-2.9100026264466345,-0.9581295768737792,-11.111938817596435,-21.383087111904036,-32.79635541311015,32.91300479885021
1698420266204.0,0.01666666753590107,-1.6693074231833218,1.3208151802912353,-2.1991753471404314,-3.6872201942443845,-1.5339347838804125,-11.361533756145834,-24.211584560422207,-53.294371244438295,39.84007678714501
1698420266220.0,0.01666666753590107,-2.109546952532977,0.9275397928208112,-2.4750690945506095,-4.282329090527445,-1.8369509314939378,-11.629684926605224,-34.88678261991674,-50.866600994524774,30.222449850809618
1698420266237.0,0.01666666753590107,-2.8488834102258083,0.4446364491343498,-2.62866975672245,-5.155614146069437,-2.1755808288022873,-11.792939552307129,-48.64149611766387,-20.769164096093903,-2.7316210335384716
1698420266254.0,0.01666666753590107,-2.664581028059125,0.22679361641556023,-2.071244548276067,-4.975450325012207,-2.2698525191709398,-11.26890866394043,-62.65641933222098,7.742296046870838,-28.36992667053103
1698420266271.0,0.01666666753590107,-2.3538034526638687,0.05037731132358312,-1.657693557757139,-4.595370811462402,-2.299630694580078,-10.91097551574707,-76.55346372698743,28.450253110264963,-45.24686136431627
1698420266287.0,0.01666666753590107,-1.3348285080745816,-0.12030322659537196,-0.4752233105778694,-3.430741487530619,-2.249053038378805,-9.815777893829345,-79.28655709317886,34.03967182320049,-48.90068813628751
1698420266304.0,0.01666666753590107,-0.3337928325407207,-0.10855448274314403,0.8281804239243269,-2.3325512596681715,-2.07966327092275,-8.568099553680419,-67.36995336901428,24.837071086497172,-40.00028228922224
1698420266321.0,0.01666666753590107,0.04688303946703672,-0.26403102178946136,1.481118847233057,-1.890671269635111,-2.1065981857299803,-7.953986827850342,-51.200207924155706,10.72252187893261,-28.478642791550122
1698420266337.0,0.01666666753590107,0.6707382838934659,-0.6370102018147706,2.4448393759816884,-1.2460323265075683,-2.353200956726074,-7.018302891540527,-36.58417342112412,-5.032636205948074,-17.918162881807834
1698420266354.0,0.01666666753590107,0.840294201696664,-0.9292999343611299,2.877215478479862,-1.0883142921447753,-2.5664342498227954,-6.597521949768066,-34.49637583714798,-9.061460853920531,-14.568231716577964
1698420266371.0,0.01666666753590107,0.8347501577034592,-1.0996294668853281,2.9000013107836247,-1.1094133404053748,-2.656366595812887,-6.585102028656006,-36.71041580755346,-7.923354970257768,-14.372876353484552
1698420266387.0,0.01666666753590107,0.8925636103771627,-1.4688088162362574,2.6453420745819805,-1.0654195926390588,-2.9088050872251388,-6.855346956524253,-38.84036931908692,-5.414318275825788,-16.083087419764045
1698420266404.0,0.01666666753590107,1.0075076480269431,-1.6800684711724518,2.376882861086726,-0.9570821136474609,-3.036595746966451,-7.134720947265625,-34.08149307148848,-5.09358369145939,-16.012756961880424
1698420266421.0,0.01666666753590107,1.080547895926982,-1.711932951336354,2.2332395293056964,-0.8943841038025915,-3.000233809252828,-7.285705289459228,-26.749752865437937,-7.128101531041197,-13.28017159100851
1698420266438.0,0.01666666753590107,1.1914854744143784,-1.8570877105936408,1.8400275624603033,-0.8014590057373047,-3.082684201989695,-7.683442040252685,-15.423837561074414,-6.333914455108794,-9.72794729803579
1698420266454.0,0.01666666753590107,1.2199557820953428,-1.984157508714497,1.576966993138194,-0.7857472034730016,-3.1851859605651347,-7.9469538604736325,-8.01148319357115,-6.430014362957228,-7.760204802874612
1698420266471.0,0.01666666753590107,1.0982856510609387,-1.9686710396386682,1.369850429356098,-0.9304466201782225,-3.1595977841917424,-8.150460417065023,-1.0905302009990383,-9.133744745906775,-5.134260883061401
1698420266488.0,0.01666666753590107,1.03800624666512,-1.9399413503691554,1.1984709493875503,-1.0143934620179236,-3.1349076526366173,-8.316259466552735,2.0894583871615087,-10.907935047915423,-5.57279317872207
1698420266504.0,0.01666666753590107,0.7879457364305853,-1.9482985520869491,0.7316320207953453,-1.2907741161622106,-3.1534627155028283,-8.776095822906493,2.9065908432803345,-11.80204352253688,-8.249454668217211
1698420266521.0,0.01666666753590107,0.4993542738802731,-1.8593030485555528,-0.06602934622466564,-1.6089036617554724,-3.075202321801707,-9.565883095550536,-2.004103434094563,-7.845028922177001,-12.715215908905492
1698420266537.0,0.01666666753590107,0.36889439492970705,-1.8759730283275247,-0.6442740553379058,-1.7461213444031773,-3.088669706140086,-10.143034748730063,-6.476409703555008,-0.8356491523195833,-15.68429316469451
1698420266554.0,0.01666666753590107,0.07957242614775896,-1.9892504479393363,-1.7804986841708421,-2.0219031558714806,-3.194014359991252,-11.283273289379476,-5.954055618852651,7.372709388239572,-17.24035539914328
1698420266570.0,0.01666666753590107,-0.19235680154561996,-1.887089173364639,-2.667329449984431,-2.2581812244690953,-3.0939070222716776,-12.177657831573486,-1.054961990896197,6.411390571524718,-17.33373774547569
1698420266587.0,0.01666666753590107,-0.3836982885688543,-1.7605214795470236,-3.3326217434316874,-2.441636926678568,-2.973748026452586,-12.843844443511962,-1.3946100094045946,-4.739653107066261,-16.554450727217674
1698420266605.0,0.01666666753590107,-0.8938559882752597,-1.7572125011295079,-4.83954080235362,-2.9688102047242224,-2.9759925174437463,-14.346355622863769,-0.8620107476689235,-12.006896263671196,-18.00134092552025
1698420266621.0,0.01666666753590107,-1.036674705800414,-1.684139666134119,-5.828850530388951,-3.133710844067484,-2.9225718929015096,-15.328277578735351,3.9281322916808357,-3.4280975576387873,-24.54431722583938
1698420266637.0,0.01666666753590107,-1.0288963268838822,-1.4619352772049605,-6.052044368746876,-3.1022869472779333,-2.7301379344664514,-15.552733984375,8.847260145133406,17.45369294277404,-26.748419271002494
1698420266654.0,0.01666666753590107,-0.968069517738372,-0.7805304917380214,-5.666991742959619,-2.954295357159525,-2.0929810176573693,-15.180285988616943,16.86767637236529,46.54792702383907,-22.511176523148976
1698420266671.0,0.01666666753590107,-0.36396439118161794,-0.23360928777977824,-3.7330829507529733,-2.1335331005372105,-1.6388308902464805,-13.275847621044516,33.728481574425544,75.84131405317605,-8.32266917347787
1698420266687.0,0.01666666753590107,0.12231748902723193,-0.09764935010820627,-2.344169509008527,-1.4487914257325232,-1.605012937927246,-11.90606558074951,47.42555510576694,80.712318101284,5.373789640838225
1698420266704.0,0.01666666753590107,1.0040626221396027,-0.1914715431436896,0.07023088956773281,-0.3290530906677246,-1.8691230163022874,-9.499443999481201,57.52368243511814,63.21603722148763,26.21268484571608
1698420266721.0,0.01666666753590107,1.6691458028808235,-0.3130328069761395,1.2376485290437935,0.443076944732666,-2.1205143367491663,-8.322693883514404,54.46681078151142,32.812317565200466,41.73206650799522
1698420266738.0,0.01666666753590107,1.9111159456402063,-0.3797672327302396,1.203853811469674,0.6968623937744647,-2.296188883563131,-8.336759233745932,44.90268130185016,-4.539368908713039,54.063921828034466
1698420266755.0,0.01666666753590107,1.966747816491127,-0.35411958125457166,0.1453600725710392,0.625036270904541,-2.377142973327637,-9.356091175079346,37.051491549041806,-45.2053543047301,66.26779306340602
1698420266771.0,0.01666666753590107,1.3617948409333824,0.28794615038409827,-2.0623393572866915,-0.15547332417592405,-1.7963991408750415,-11.52404019382894,34.91045264048542,-63.99081289979886,72.9194684092713
1698420266787.0,0.01666666753590107,1.09121951206699,0.502094950890541,-3.1330367441982028,-0.6271313434876501,-1.643619293566793,-12.546514524841308,42.41584699108895,-62.191515676174895,73.73977412858984
1698420266804.0,0.01666666753590107,0.605022825923562,0.76427932190001,-4.280827307662368,-1.3215994625367224,-1.5152302295409141,-13.622259258270264,69.58937552848575,-28.412951739660233,66.35720023964149
1698420266821.0,0.01666666753590107,0.38834304563477634,1.158800910039246,-3.655363751256466,-1.6068087353028355,-1.2840402778625488,-12.94095924835205,90.44844540462452,3.4219999062572586,61.63299061717544
1698420266837.0,0.01666666753590107,0.33861440747827287,1.5134107590287922,-2.7766461492717265,-1.6638206623353062,-1.1252744880124925,-12.006921325683592,96.21494872462368,21.50580853581624,60.45201675873439
1698420266854.0,0.01666666753590107,0.35242724425345656,1.5752055364236235,-0.8751467577606439,-1.6271593032836913,-1.3208508361265063,-10.032902056884765,89.01387345249006,25.74446513282795,56.34116495392466
1698420266871.0,0.01666666753590107,0.37841406455561516,1.3947303113296627,0.7166489711970091,-1.5831658477783201,-1.6772879005432129,-8.387486965942383,81.57011472895672,23.220005017476435,46.9525542604598
1698420266888.0,0.01666666753590107,0.37909737064465876,1.377149938714504,1.3981506411671638,-1.562964771270752,-1.8592472267150877,-7.653065606689452,75.45363251588613,22.299281856980375,35.29435366806974
1698420266904.0,0.01666666753590107,0.41095995111241934,1.2021353171139955,2.516114806166291,-1.488894157409668,-2.2399252906799316,-6.46793520039022,67.71816324309071,25.162758411785475,20.198218338088783
1698420266921.0,0.01666666753590107,0.4308567839764058,1.0442419261842966,2.861376104313135,-1.4229041202820836,-2.5424922332212327,-6.075585987854003,62.69384876887265,24.839610209321126,8.785054197267515
1698420266938.0,0.01666666753590107,0.4278782065570354,1.1550289902850985,2.6600088978379963,-1.3730746520996093,-2.571073307800293,-6.230610545349121,58.988054502601365,24.03779551963311,-0.5943879277319567
1698420266954.0,0.01666666753590107,0.40635114214271306,1.5337807623624802,2.1903408832997084,-1.3114241054810583,-2.3726538452148436,-6.639121203613281,57.11919863246998,25.80026265570508,-6.777656477558891
1698420266971.0,0.01666666753590107,0.39755964066088195,1.6945970550015568,2.1053858873307703,-1.2565071049012242,-2.347514727783203,-6.675034228515624,59.032252656720516,22.728134067039846,-7.07956663368591
1698420266988.0,0.01666666753590107,0.27529256664663554,1.8192884335532784,2.1606571081757546,-1.3262380821228026,-2.366369358117878,-6.562057837677002,64.22920016221065,15.873892385864893,-7.577865219018306
1698420267004.0,0.01666666753590107,0.02025967482700944,2.2305331929564476,2.3623984086602925,-1.5397709426879882,-2.161066273498535,-6.2660746574401855,67.12809637050414,2.3343755238632373,-10.503791047178476
1698420267021.0,0.01666666753590107,-0.17439049835279583,2.725838629837334,2.141892201951146,-1.725920267895609,-1.815104133605957,-6.410474945068359,60.614479638332305,-6.4209669236278994,-14.165111390442872
1698420267037.0,0.01666666753590107,-0.25480390536934133,2.910189235059917,1.8015736209034918,-1.8034324005126952,-1.7604867004945872,-6.681169370269775,50.23115776018722,-8.373248431829106,-19.4885753437028
1698420267054.0,0.01666666753590107,-0.3591793488621712,3.1981863849788903,1.2251333308637142,-1.892317137145996,-1.6174328590393066,-7.179013677978515,41.35038870698573,-6.533875927023734,-25.763867992712665
1698420267071.0,0.01666666753590107,-0.4314925976619124,3.6482431055963036,0.6340992828041315,-1.942146459197998,-1.263539926147461,-7.718307601928711,37.12167515785827,-3.8367170398293853,-26.66544954805976
1698420267088.0,0.01666666753590107,-0.46228214207068086,3.875975171905756,0.4516816914707422,-1.9473837753295897,-1.1200374641418456,-7.855226009368896,30.966458942004518,-3.087701846859685,-23.73883130947248
1698420267104.0,0.01666666753590107,-0.5450137629017233,4.079947007921338,0.4732663312911987,-2.0030489639282227,-0.9962877503544092,-7.789684738922118,16.003677932926184,-4.615841841094617,-19.68730823534078
1698420267121.0,0.01666666753590107,-0.5069266088306904,4.03477223367691,0.8209978189438581,-1.9487306598939,-1.0667664772033691,-7.429207751464843,0.3308179979741726,-4.499849861062168,-20.368122708787435
1698420267137.0,0.01666666753590107,-0.48311815548092124,3.9414334402441975,0.9876058467268943,-1.904437783050537,-1.1514613609313964,-7.2714897171020505,-15.38685550181338,-2.176053019562811,-21.26753909416764
1698420267154.0,0.01666666753590107,-0.36259777900353074,3.689637776780128,1.4830781646072864,-1.7555485134400426,-1.3406038766056299,-6.819135240936279,-35.194247000499445,-4.222737987377349,-17.92308744819941
1698420267171.0,0.01666666753590107,-0.41093963897675273,3.644268356746435,1.5514783316165208,-1.8028338500976562,-1.2942156349182128,-6.805817494201659,-55.24751506402222,-14.885610116740947,-13.266730632495571
1698420267187.0,0.01666666753590107,-0.5238710216298699,3.487599831436574,1.2594547026604412,-1.9487305137634277,-1.3061866432189941,-7.17617056350708,-80.77833870980135,-28.251494605417594,-11.673027225530864
1698420267204.0,0.01666666753590107,-0.5884736960522831,2.9539877525150775,0.09685819973051547,-2.0843021827697754,-1.5662567985534668,-8.476371702575683,-105.90548451525437,-32.56565552860921,-18.365652970564973
1698420267221.0,0.01666666753590107,-0.7488708864964544,2.776003467454016,-1.3124731761425732,-2.2851159931458533,-1.5077487877443432,-9.999233596038819,-108.65498399583217,-23.862442365524082,-23.78239254845153
1698420267237.0,0.01666666753590107,-0.763166830613464,2.6103005718171595,-1.6979209387272596,-2.311900978088379,-1.4496891052246093,-10.48929674835205,-93.55424170325604,-10.216092380280138,-23.545950182405907
1698420267254.0,0.01666666753590107,-0.6948408978842199,2.4369652816057203,-1.566519248881936,-2.236783047131449,-1.3959692054748534,-10.460416690826415,-61.05231525469764,-5.529049659069546,-11.757176863652713
1698420267271.0,0.01666666753590107,-0.4720949494242668,2.5204823537260292,-0.7136644024282693,-2.0320788051880894,-1.1866261978149413,-9.657610946655273,-51.74737437856543,-17.90426344684686,-1.856695358644406
1698420267287.0,0.01666666753590107,-0.38618426016569135,2.248756831911206,-0.49103521221578117,-2.0165163482666015,-1.3296794547483324,-9.47475379486084,-59.64067224760691,-41.13571244627765,6.033082188210168
1698420267304.0,0.01666666753590107,-0.47228374999463557,1.7237693734720347,-0.6358142700284719,-2.2861634563721713,-1.6234183631896972,-9.673322895050049,-86.72866974112222,-68.50167473335038,4.002101959731604
1698420267321.0,0.01666666753590107,-1.3041088140316306,1.7011647429540753,-2.074416748571396,-3.2920272827148436,-1.4143746307373046,-11.158027199554443,-108.18550411304217,-75.66764283315013,-3.393943837024373
1698420267338.0,0.01666666753590107,-1.6785288405150174,1.700087176850438,-3.032600101459026,-3.8322190322875973,-1.1463730978816746,-12.166584064373373,-119.77157449270231,-67.20341286648187,-15.880292273117195
1698420267354.0,0.01666666753590107,-1.94410533818081,1.4461486561387777,-4.093622482052445,-4.251204468945414,-1.0474629340574144,-13.293056529998779,-107.24087529045107,-41.305801232083894,-26.896257008040127
1698420267371.0,0.01666666753590107,-1.3517980553150175,1.0102017094165086,-3.3879315427213905,-3.721038438824564,-1.271769994354248,-12.626421005249023,-81.02043476493245,-25.1773528184945,-25.704209705407187
1698420267387.0,0.01666666753590107,-0.7829569882325828,0.7925422704406082,-2.4479998858392236,-3.186233496856689,-1.334917063140869,-11.714528863415122,-60.81651663398129,-14.493258437606027,-18.69624607922464
1698420267404.0,0.01666666753590107,0.11923632801622151,0.10268997462391853,-0.6523159074962138,-2.3057661285951734,-1.8490718696594237,-9.951798475646973,-58.268739960350636,-4.2163748123918365,-7.674200768393104
1698420267421.0,0.01666666753590107,0.4124029895275831,-0.5943642153955996,0.8260755605995654,-2.0096330184936524,-2.3986907882690427,-8.50390502166748,-66.8647584270543,3.856598012956,-6.593319917144001
1698420267438.0,0.01666666753590107,0.4544394657462835,-0.9969047132089733,1.3788766163766384,-1.9500772521972656,-2.6328734920226036,-7.98660724094808,-74.69266748007666,6.095657393178063,-9.80936827558422
1698420267454.0,0.01666666753590107,0.6521963727697729,-1.598146997680515,1.9735820464253424,-1.7426796795167028,-2.996343377685547,-7.432799053955078,-74.42829134787297,-6.632018915207647,-14.239298343886613
1698420267472.0,0.01666666753590107,0.836627788143605,-1.907274467781186,2.1197288854599,-1.590348452758789,-3.1410426482602953,-7.301416653332113,-65.84290065551787,-24.145507602844212,-15.470376762531588
1698420267487.0,0.01666666753590107,1.0029656206831334,-2.0274507069960235,2.024274122786522,-1.4978727058961987,-3.124283382769674,-7.394491827392578,-53.24461673142934,-38.699455686320384,-14.522256005727316
1698420267504.0,0.01666666753590107,1.2350868618622421,-2.094905117587745,1.7917285187155008,-1.4053966667726636,-3.050512117181346,-7.604283747863769,-41.63927497302601,-47.0040982830313,-11.181071751503294
1698420267520.0,0.01666666753590107,1.4262360411837696,-2.080664703050256,1.3621464308500288,-1.3210010582521556,-2.943670795031637,-8.012195855712891,-40.28722195134906,-40.47319092697558,-8.689447770586616
1698420267537.0,0.01666666753590107,1.60042707144171,-2.234372040466964,1.1001461842358111,-1.2294225524902342,-3.0020294604979454,-8.257900216564536,-42.53222316926221,-27.697926556208277,-7.446906586967066
1698420267554.0,0.01666666753590107,1.735050645942986,-2.3006813726767894,0.6160141755372286,-1.152808391626179,-2.9342436990600076,-8.73434693145752,-43.097933587268514,-9.548837539883252,-6.950774452262033
1698420267570.0,0.01666666753590107,1.7068278832823036,-2.3409885408848523,0.133429980802536,-1.1915645309999585,-2.879625864089839,-9.21962168045044,-37.44816844546864,-0.8937625895730202,-5.671112044277111
1698420267588.0,0.01666666753590107,1.698531764101982,-2.429447014930099,-0.01282324121594429,-1.197699672754109,-2.8921954228056594,-9.370605438122153,-26.28958423803396,1.3728917153912463,-2.3640447984007147
1698420267604.0,0.01666666753590107,1.68310243204087,-2.506965285027027,-0.12419102781414985,-1.2119152451112867,-2.9107504856718704,-9.485078789520264,-9.635105390421453,-0.602072904404426,3.63368881297711
1698420267621.0,0.01666666753590107,1.5483064235821364,-2.5790584613353014,-0.3169049722343683,-1.3477856048032641,-2.967463247094676,-9.67811071384847,0.3670646379606667,0.8734075586293244,7.605141579468752
1698420267637.0,0.01666666753590107,1.4143246541157364,-2.620859082971513,-0.3747276311278343,-1.4752774277284741,-3.0122048175536094,-9.737816702270507,6.913038083984536,5.610494542280071,9.82696540420711
1698420267654.0,0.01666666753590107,1.3248577336803078,-2.8259087773516773,-0.4508715441316366,-1.5393223221376537,-3.2383073098998514,-9.820865572357176,12.295657878759117,10.356964178138005,12.83247659657627
1698420267671.0,0.01666666753590107,1.2124617730781435,-2.9377079411044713,-0.5455126523345708,-1.6285060417175292,-3.3722328556669874,-9.921571095165609,14.430118461371137,9.129669684293216,15.66241606878296
