timestamp,interval,accx,accy,accz,accGx,accGy,accGz,alpha,beta,gamma
1698745693.007,16,0.0,0.1,0.0,-0.7000000000000001,8.8,4.0,1.7,3.1,1.0
1698745693.024,16,0.0,0.1,0.0,-0.7000000000000001,8.8,3.9000000000000004,1.3,3.4,0.9
1698745693.04,16,0.0,0.1,0.0,-0.7000000000000001,8.8,3.9000000000000004,1.0,3.7000000000000006,0.9
1698745693.057,16,0.0,0.0,-0.1,-0.7000000000000001,8.8,3.9000000000000004,0.30000000000000004,4.1000000000000005,1.2000000000000002
1698745693.074,16,0.0,0.0,-0.1,-0.7000000000000001,8.700000000000001,3.9000000000000004,0.8,4.6000000000000005,1.3
1698745693.09,16,0.0,0.0,-0.1,-0.7000000000000001,8.8,3.8000000000000003,1.3,5.2,1.5000000000000002
1698745693.107,16,0.1,0.1,-0.1,-0.6000000000000001,8.8,3.8000000000000003,2.3000000000000003,6.1000000000000005,2.3000000000000003
1698745693.124,16,0.1,0.0,-0.1,-0.7000000000000001,8.8,3.8000000000000003,3.5,7.0,3.3000000000000003
1698745693.14,16,0.0,-0.1,-0.1,-0.7000000000000001,8.700000000000001,3.8000000000000003,4.1000000000000005,7.2,3.6
1698745693.157,16,-0.1,-0.1,0.0,-0.8,8.6,3.9000000000000004,4.800000000000001,6.8,3.9
1698745693.173,16,-0.2,-0.1,0.0,-0.9,8.700000000000001,3.9000000000000004,5.300000000000001,6.000000000000001,4.7
1698745693.19,16,-0.2,-0.1,0.0,-0.9,8.700000000000001,3.9000000000000004,4.7,5.6,4.7
1698745693.207,16,-0.1,-0.1,0.0,-0.8,8.6,3.8000000000000003,3.2,4.7,3.7000000000000006
1698745693.224,16,-0.1,-0.2,0.0,-0.8,8.5,3.8000000000000003,2.7,3.9,3.3000000000000003
1698745693.24,16,-0.1,-0.2,0.0,-0.8,8.6,3.8000000000000003,3.3000000000000003,3.4,3.2
1698745693.257,16,-0.2,-0.2,0.0,-0.9,8.6,3.9000000000000004,4.7,2.5,2.9
1698745693.274,16,-0.2,-0.2,0.1,-0.9,8.6,3.9000000000000004,5.8,1.6,2.4000000000000004
1698745693.29,16,-0.1,-0.1,0.1,-0.9,8.700000000000001,3.9000000000000004,5.9,1.3,2.1999999999999997
1698745693.307,16,-0.1,0.0,0.1,-0.9,8.700000000000001,3.9000000000000004,5.500000000000001,0.5,1.8
1698745693.324,16,-0.1,0.0,0.1,-0.9,8.8,3.8000000000000003,4.800000000000001,-0.7,1.7
1698745693.34,16,-0.2,0.1,0.1,-0.9,8.8,3.8000000000000003,4.300000000000001,-1.4,1.5000000000000002
1698745693.357,16,-0.2,0.1,0.1,-0.9,8.9,3.8000000000000003,3.2,-2.8,0.9
1698745693.373,16,-0.1,0.1,0.1,-0.9,8.9,3.8000000000000003,1.9,-4.300000000000001,0.2
1698745693.39,16,-0.1,0.1,0.0,-0.8,8.9,3.8000000000000003,0.5,-5.9,-0.2
1698745693.407,16,0.0,0.1,0.0,-0.8,8.9,3.8000000000000003,0.0,-6.6000000000000005,-0.2
1698745693.424,16,0.1,0.1,0.0,-0.7000000000000001,8.9,3.8000000000000003,-0.5,-7.699999999999999,-0.5
1698745693.44,16,0.1,0.0,-0.1,-0.6000000000000001,8.8,3.7,-0.7,-7.8,-0.8
1698745693.458,16,0.2,0.0,-0.1,-0.5,8.8,3.7,-0.4,-7.1000000000000005,-1.0999999999999999
1698745693.474,16,0.2,0.1,-0.1,-0.5,8.9,3.7,0.5,-5.8,-1.0
1698745693.49,16,0.1,0.1,-0.1,-0.6000000000000001,8.9,3.6,1.0,-5.0,-0.7
1698745693.507,16,0.1,0.1,-0.1,-0.6000000000000001,8.9,3.6,1.2000000000000002,-4.9,-0.4
1698745693.524,16,0.1,0.1,-0.1,-0.6000000000000001,8.9,3.6,1.8,-4.6000000000000005,-0.1
1698745693.54,16,0.1,0.0,-0.1,-0.6000000000000001,8.9,3.7,2.3000000000000003,-4.300000000000001,0.0
1698745693.557,16,0.1,0.0,0.0,-0.5,8.8,3.7,3.0000000000000004,-3.9,0.0
1698745693.573,16,0.1,0.0,0.0,-0.6000000000000001,8.8,3.7,3.4,-3.8,0.30000000000000004
1698745693.59,16,0.0,0.0,0.0,-0.6000000000000001,8.8,3.7,3.3000000000000003,-3.7000000000000006,0.5
1698745693.607,16,0.0,0.0,0.0,-0.6000000000000001,8.8,3.7,3.2,-4.0,0.6000000000000001
1698745693.624,16,0.0,0.0,0.1,-0.6000000000000001,8.8,3.8000000000000003,2.9,-4.5,0.4
1698745693.64,16,0.0,0.0,0.0,-0.6000000000000001,8.9,3.7,2.9,-4.5,0.30000000000000004
1698745693.657,16,0.0,0.0,0.1,-0.6000000000000001,8.8,3.8000000000000003,2.4000000000000004,-4.6000000000000005,0.0
1698745693.674,16,0.1,0.0,0.1,-0.5,8.8,3.8000000000000003,1.5000000000000002,-4.2,-0.2
1698745693.691,16,0.1,0.0,0.1,-0.5,8.8,3.8000000000000003,0.8,-3.5,0.1
1698745693.707,16,0.0,0.0,0.1,-0.6000000000000001,8.9,3.8000000000000003,0.5,-3.0000000000000004,0.4
1698745693.723,16,0.0,0.1,0.1,-0.5,8.9,3.8000000000000003,0.30000000000000004,-2.3000000000000003,0.4
1698745693.74,16,0.0,0.1,0.1,-0.5,8.9,3.8000000000000003,0.1,-1.4,0.1
1698745693.757,16,0.0,0.1,0.1,-0.6000000000000001,8.9,3.9000000000000004,-0.5,-1.0,0.1
1698745693.774,16,0.0,0.0,0.1,-0.6000000000000001,8.9,3.8000000000000003,-2.0,0.30000000000000004,-0.30000000000000004
1698745693.791,16,0.0,0.0,0.1,-0.6000000000000001,8.9,3.8000000000000003,-3.2,1.5000000000000002,-0.30000000000000004
1698745693.808,16,0.0,0.0,0.1,-0.6000000000000001,8.9,3.8000000000000003,-3.7000000000000006,3.0000000000000004,-0.2
1698745693.824,16,0.0,0.0,0.1,-0.6000000000000001,8.8,3.8000000000000003,-3.7000000000000006,3.8,-0.1
1698745693.84,16,0.0,0.0,0.0,-0.6000000000000001,8.8,3.8000000000000003,-3.8,5.1,0.0
1698745693.857,16,0.0,0.0,0.0,-0.6000000000000001,8.8,3.8000000000000003,-4.1000000000000005,5.500000000000001,0.30000000000000004
1698745693.874,16,0.0,0.0,0.0,-0.6000000000000001,8.8,3.8000000000000003,-4.9,5.9,0.6000000000000001
1698745693.89,16,0.0,0.0,0.0,-0.6000000000000001,8.8,3.8000000000000003,-5.300000000000001,6.4,0.8
1698745693.907,16,0.0,0.0,0.0,-0.6000000000000001,8.8,3.8000000000000003,-5.300000000000001,6.9,0.9
1698745693.924,16,0.0,0.0,-0.1,-0.7000000000000001,8.8,3.8000000000000003,-5.500000000000001,7.2,1.0999999999999999
1698745693.94,16,-0.1,0.0,-0.1,-0.7000000000000001,8.8,3.8000000000000003,-5.7,6.4,1.0
1698745693.957,16,-0.1,0.0,-0.1,-0.8,8.700000000000001,3.8000000000000003,-5.8,5.8,0.8
1698745693.973,16,-0.1,0.0,-0.1,-0.7000000000000001,8.8,3.8000000000000003,-5.8,4.800000000000001,0.30000000000000004
1698745693.99,16,0.0,0.0,-0.1,-0.7000000000000001,8.8,3.8000000000000003,-5.6,4.2,-0.2
1698745694.007,16,0.0,0.1,-0.1,-0.7000000000000001,8.9,3.7,-5.9,3.9,-0.30000000000000004
1698745694.024,16,0.0,0.1,-0.2,-0.7000000000000001,8.9,3.7,-6.2,3.4,-0.9
1698745694.04,16,0.1,0.1,-0.1,-0.6000000000000001,8.9,3.7,-6.5,2.8,-1.3
1698745694.056,16,0.1,0.1,-0.1,-0.5,8.8,3.8000000000000003,-6.5,2.3000000000000003,-1.4
1698745694.074,16,0.2,0.1,-0.1,-0.5,8.8,3.8000000000000003,-6.1000000000000005,1.2000000000000002,-1.7
1698745694.09,16,0.0,0.0,-0.1,-0.7000000000000001,8.8,3.8000000000000003,-5.2,-0.6000000000000001,-1.6
1698745694.107,16,-0.1,0.0,-0.2,-0.8,8.700000000000001,3.7,-5.0,-1.0999999999999999,-1.0
1698745694.124,16,-0.1,0.0,-0.1,-0.8,8.8,3.9000000000000004,-5.4,-2.5,0.0
1698745694.14,16,0.0,0.1,0.0,-0.6000000000000001,8.8,3.9000000000000004,-4.2,-2.8,0.0
1698745694.157,16,0.1,0.1,0.0,-0.5,8.8,4.0,-3.3000000000000003,-2.3000000000000003,0.0
1698745694.174,16,0.1,0.0,0.0,-0.6000000000000001,8.700000000000001,4.0,-2.3000000000000003,-0.9,-0.2
1698745694.19,16,-0.1,-0.1,0.0,-0.8,8.6,4.0,-2.9,-0.6000000000000001,-0.1
1698745694.207,16,-0.2,-0.1,0.0,-0.9,8.700000000000001,4.0,-3.7000000000000006,-0.6000000000000001,-0.1
1698745694.224,16,-0.2,-0.1,0.0,-0.9,8.6,4.0,-4.9,-0.6000000000000001,-0.4
1698745694.24,16,-0.1,0.0,0.0,-0.8,8.700000000000001,4.0,-5.0,-1.0999999999999999,-0.9
1698745694.256,16,-0.1,0.0,0.0,-0.8,8.700000000000001,4.0,-4.7,-0.9,-1.0999999999999999
1698745694.274,16,0.0,0.0,0.0,-0.7000000000000001,8.700000000000001,4.0,-4.1000000000000005,-0.6000000000000001,-1.0999999999999999
1698745694.29,16,0.0,0.0,0.0,-0.7000000000000001,8.700000000000001,4.0,-3.9,0.30000000000000004,-0.6000000000000001
1698745694.307,16,0.0,0.0,0.0,-0.7000000000000001,8.700000000000001,4.0,-3.9,0.5,-0.2
1698745694.324,16,0.0,-0.1,0.0,-0.7000000000000001,8.6,4.0,-3.7000000000000006,0.9,0.4
1698745694.34,16,0.0,0.0,-0.1,-0.7000000000000001,8.6,4.0,-3.3000000000000003,1.0,0.7
1698745694.356,16,0.2,0.0,0.0,-0.5,8.700000000000001,4.1000000000000005,-2.5,0.7,0.6000000000000001
1698745694.373,16,0.2,0.1,0.0,-0.4,8.700000000000001,4.0,-1.7,0.2,0.4
1698745694.39,16,0.0,0.1,-0.1,-0.7000000000000001,8.8,4.0,-1.0999999999999999,0.0,0.6000000000000001
1698745694.407,16,-0.2,0.0,-0.1,-0.9,8.6,4.0,-2.3000000000000003,0.8,0.4
1698745694.424,16,-0.1,0.0,-0.1,-0.8,8.6,4.0,-2.9,0.2,0.0
1698745694.44,16,0.0,0.0,-0.1,-0.7000000000000001,8.6,4.0,-2.6,-0.30000000000000004,-0.1
1698745694.457,16,0.0,0.0,-0.1,-0.7000000000000001,8.700000000000001,4.0,-1.8,-0.2,0.0
1698745694.473,16,0.0,0.0,0.0,-0.7000000000000001,8.700000000000001,4.0,-0.6000000000000001,0.1,-0.2
1698745694.49,16,0.0,0.0,0.0,-0.7000000000000001,8.700000000000001,4.0,-1.0999999999999999,0.30000000000000004,-0.2
1698745694.507,16,-0.1,0.0,0.0,-0.8,8.700000000000001,4.1000000000000005,-1.8,0.5,-0.1
1698745694.524,16,-0.1,0.0,-0.1,-0.8,8.700000000000001,4.0,-3.1,0.9,0.1
1698745694.54,16,-0.1,0.1,-0.1,-0.8,8.700000000000001,4.0,-2.3000000000000003,0.6000000000000001,0.0
1698745694.557,16,-0.1,0.1,0.0,-0.8,8.8,4.0,-1.2000000000000002,0.1,-0.2
1698745694.573,16,-0.1,0.1,0.0,-0.8,8.8,4.1000000000000005,0.7,-0.6000000000000001,-0.5
1698745694.59,16,-0.2,0.2,0.0,-0.9,8.8,4.1000000000000005,1.0999999999999999,-1.0,-0.5
1698745694.607,16,-0.2,0.2,0.0,-1.0,9.0,4.1000000000000005,-0.30000000000000004,-1.8,-1.0
1698745694.624,16,-0.30000000000000004,0.4,0.0,-1.0,9.1,4.0,-1.2000000000000002,-2.8,-1.5000000000000002
1698745694.64,16,-0.4,0.7000000000000001,-0.1,-1.2000000000000002,9.4,4.0,-2.1999999999999997,-5.0,-3.1
1698745694.657,16,-0.5,0.8,-0.1,-1.3,9.5,4.0,-2.3000000000000003,-7.8,-6.000000000000001
1698745694.673,16,-0.5,0.9,-0.1,-1.3,9.600000000000001,4.0,-2.3000000000000003,-9.200000000000001,-7.9
1698745694.69,16,-0.30000000000000004,0.7000000000000001,0.1,-1.1,9.4,4.2,-2.6,-11.6,-11.2
1698745694.707,16,0.0,0.30000000000000004,0.2,-0.8,9.0,4.4,-4.5,-13.8,-11.3
1698745694.724,16,0.1,0.0,0.30000000000000004,-0.7000000000000001,8.700000000000001,4.5,-6.4,-14.4,-10.3
1698745694.74,16,0.30000000000000004,-0.5,0.4,-0.5,8.200000000000001,4.6000000000000005,-10.8,-14.4,-6.7
1698745694.757,16,0.6000000000000001,-0.9,0.4,-0.2,7.7,4.6000000000000005,-16.0,-12.3,-3.0000000000000004
1698745694.773,16,0.8,-1.1,0.30000000000000004,0.0,7.5,4.6000000000000005,-18.3,-11.3,-1.4
1698745694.79,16,0.8,-1.1,0.1,0.0,7.5,4.4,-20.6,-8.9,1.7
1698745694.807,16,0.5,-0.6000000000000001,-0.1,-0.30000000000000004,7.9,4.2,-18.7,-7.0,3.0000000000000004
1698745694.823,16,0.30000000000000004,-0.30000000000000004,-0.2,-0.4,8.200000000000001,4.2,-16.900000000000002,-6.3,3.1
1698745694.84,16,0.1,0.0,-0.30000000000000004,-0.6000000000000001,8.6,4.2,-12.200000000000001,-5.500000000000001,2.0
1698745694.856,16,0.1,-0.1,-0.2,-0.6000000000000001,8.5,4.3,-7.2,-4.6000000000000005,0.4
1698745694.873,16,0.2,-0.2,-0.2,-0.5,8.3,4.3,-2.6,-2.8,-0.5
1698745694.89,16,0.2,-0.30000000000000004,-0.2,-0.5,8.200000000000001,4.3,-0.8,-1.9,-0.2
1698745694.907,16,0.2,-0.30000000000000004,-0.2,-0.5,8.200000000000001,4.3,1.0999999999999999,-0.30000000000000004,0.7
1698745694.924,16,0.1,-0.1,-0.2,-0.6000000000000001,8.4,4.3,1.7,0.1,1.4
1698745694.94,16,0.0,-0.1,-0.1,-0.6000000000000001,8.4,4.3,1.9,0.0,1.4
1698745694.957,16,0.1,-0.1,-0.1,-0.6000000000000001,8.4,4.3,2.4000000000000004,-0.8,1.0999999999999999
1698745694.973,16,0.1,-0.2,-0.1,-0.6000000000000001,8.3,4.4,2.8,-1.4,0.4
1698745694.99,16,0.1,-0.1,0.0,-0.6000000000000001,8.4,4.4,3.0000000000000004,-1.5000000000000002,0.1
1698745695.007,16,0.1,0.0,0.0,-0.5,8.5,4.4,3.4,-2.0,-0.4
1698745695.023,16,0.1,0.1,0.0,-0.6000000000000001,8.6,4.5,3.5,-1.8,-0.7
1698745695.041,16,0.1,0.1,0.1,-0.5,8.6,4.5,3.5,-1.8,-0.6000000000000001
1698745695.057,16,0.1,0.1,0.1,-0.5,8.6,4.5,3.6,-1.0,-0.1
1698745695.073,16,0.1,0.1,0.1,-0.5,8.6,4.5,3.0000000000000004,-0.7,0.5
1698745695.09,16,0.1,0.0,0.1,-0.5,8.6,4.5,2.6,-0.6000000000000001,0.7
1698745695.106,16,0.1,0.0,0.1,-0.5,8.5,4.5,2.4000000000000004,-0.2,1.4
1698745695.123,16,0.1,0.0,0.1,-0.5,8.5,4.5,2.1,0.5,1.7
1698745695.14,16,0.1,-0.1,0.1,-0.5,8.5,4.5,1.8,1.0,1.8
1698745695.157,16,0.0,-0.1,0.1,-0.6000000000000001,8.4,4.5,0.1,1.4,1.6
1698745695.173,16,0.1,-0.1,0.1,-0.5,8.4,4.5,-1.6,1.4,1.5000000000000002
1698745695.19,16,0.1,-0.1,0.1,-0.5,8.4,4.5,-2.0,1.6,1.4
1698745695.206,16,0.0,0.0,0.1,-0.6000000000000001,8.5,4.5,-2.1,1.9,1.2000000000000002
1698745695.224,16,0.0,0.0,0.1,-0.6000000000000001,8.5,4.5,-1.4,1.8,1.5000000000000002
1698745695.24,16,0.0,-0.1,0.1,-0.6000000000000001,8.5,4.5,-1.2000000000000002,1.7,1.7
1698745695.256,16,0.0,0.0,0.0,-0.5,8.5,4.5,-0.9,1.5000000000000002,1.8
1698745695.274,16,0.0,-0.1,0.0,-0.6000000000000001,8.4,4.5,-1.0999999999999999,1.3,1.8
1698745695.29,16,0.0,-0.1,0.0,-0.6000000000000001,8.4,4.4,-1.0999999999999999,1.2000000000000002,2.1
1698745695.306,16,0.1,-0.1,0.1,-0.5,8.4,4.6000000000000005,-0.9,1.7,2.0
1698745695.324,16,0.0,0.0,0.0,-0.5,8.5,4.5,-0.4,2.6,1.7
1698745695.34,16,0.0,0.0,0.0,-0.5,8.5,4.5,-0.30000000000000004,2.5,1.4
1698745695.357,16,0.0,0.0,0.1,-0.6000000000000001,8.4,4.5,-0.2,2.8,1.4
1698745695.373,16,0.0,0.0,0.0,-0.6000000000000001,8.4,4.5,-0.2,2.8,1.4
1698745695.39,16,0.0,-0.1,0.1,-0.6000000000000001,8.4,4.5,-0.30000000000000004,2.7,1.4
1698745695.407,16,0.1,0.0,0.1,-0.5,8.5,4.5,0.2,3.0000000000000004,1.0999999999999999
1698745695.424,16,0.1,-0.1,0.1,-0.4,8.4,4.6000000000000005,1.3,4.1000000000000005,1.2000000000000002
1698745695.44,16,0.1,-0.1,0.2,-0.5,8.4,4.6000000000000005,1.6,4.800000000000001,1.4
1698745695.457,16,0.0,-0.1,0.2,-0.5,8.4,4.7,2.1999999999999997,6.2,1.9
1698745695.474,16,0.0,-0.1,0.2,-0.6000000000000001,8.4,4.7,2.1999999999999997,7.300000000000001,2.3000000000000003
1698745695.49,16,0.0,-0.1,0.2,-0.6000000000000001,8.4,4.7,2.1,7.6,2.5
1698745695.507,16,-0.1,-0.1,0.2,-0.6000000000000001,8.3,4.7,2.0,7.400000000000001,2.1999999999999997
1698745695.524,16,-0.1,-0.1,0.2,-0.7000000000000001,8.3,4.7,2.5,7.2,1.8
1698745695.54,16,-0.1,-0.1,0.2,-0.7000000000000001,8.4,4.7,2.7,7.0,1.8
1698745695.556,16,-0.1,0.0,0.2,-0.7000000000000001,8.4,4.7,3.3000000000000003,7.0,1.6
1698745695.573,16,-0.1,0.0,0.2,-0.7000000000000001,8.5,4.7,2.9,7.2,1.4
1698745695.59,16,0.0,-0.1,0.1,-0.7000000000000001,8.4,4.6000000000000005,1.9,7.400000000000001,1.2000000000000002
1698745695.606,16,-0.1,-0.1,0.1,-0.7000000000000001,8.4,4.6000000000000005,1.6,7.400000000000001,1.3
1698745695.624,16,-0.1,-0.1,0.0,-0.8,8.3,4.5,1.6,7.0,1.0
1698745695.64,16,-0.1,-0.1,0.0,-0.7000000000000001,8.4,4.5,2.7,6.3,0.1
1698745695.657,16,-0.1,0.0,0.0,-0.7000000000000001,8.4,4.4,3.3000000000000003,5.9,-0.2
1698745695.673,16,-0.1,0.0,-0.1,-0.7000000000000001,8.5,4.4,3.8,5.0,-0.8
1698745695.69,16,-0.1,0.0,-0.1,-0.7000000000000001,8.5,4.3,4.1000000000000005,4.5,-1.0999999999999999
1698745695.707,16,0.0,0.0,-0.2,-0.7000000000000001,8.4,4.3,4.6000000000000005,3.7000000000000006,-1.0999999999999999
1698745695.723,16,0.0,0.0,-0.2,-0.7000000000000001,8.5,4.2,5.4,3.0000000000000004,-1.3
1698745695.74,16,0.0,0.1,-0.30000000000000004,-0.7000000000000001,8.6,4.1000000000000005,6.000000000000001,2.6,-1.2000000000000002
1698745695.757,16,0.0,0.1,-0.30000000000000004,-0.7000000000000001,8.6,4.1000000000000005,6.3,2.5,-1.3
1698745695.773,16,0.0,0.2,-0.30000000000000004,-0.7000000000000001,8.700000000000001,4.0,6.7,1.7,-1.2000000000000002
1698745695.79,16,0.0,0.30000000000000004,-0.30000000000000004,-0.8,8.8,4.0,6.4,1.6,-1.0
1698745695.807,16,-0.1,0.2,-0.30000000000000004,-0.8,8.8,4.0,5.4,0.8,-0.7
1698745695.824,16,0.0,0.30000000000000004,-0.30000000000000004,-0.8,8.8,4.0,5.1,0.2,-0.30000000000000004
1698745695.84,16,0.0,0.30000000000000004,-0.30000000000000004,-0.8,8.9,4.0,4.3999999999999995,0.30000000000000004,-0.30000000000000004
1698745695.857,16,0.0,0.30000000000000004,-0.30000000000000004,-0.8,8.9,4.0,3.9,0.0,-0.4
1698745695.873,16,-0.1,0.30000000000000004,-0.30000000000000004,-0.8,8.9,4.0,2.4000000000000004,-0.9,-0.8
1698745695.891,16,-0.2,0.2,-0.2,-0.9,8.9,4.0,0.6000000000000001,-1.8,-1.0999999999999999
1698745695.907,16,-0.2,0.2,-0.2,-0.9,8.8,4.0,-0.1,-2.4000000000000004,-1.2000000000000002
1698745695.923,16,-0.2,0.2,-0.2,-0.9,8.8,4.0,-1.2000000000000002,-3.3000000000000003,-1.7
1698745695.94,16,-0.1,0.1,-0.1,-0.9,8.700000000000001,4.1000000000000005,-1.7,-4.1000000000000005,-2.7
1698745695.957,16,-0.1,0.0,-0.1,-0.9,8.700000000000001,4.1000000000000005,-1.8,-4.3999999999999995,-3.0000000000000004
1698745695.974,16,-0.1,0.0,-0.1,-0.8,8.6,4.1000000000000005,-1.7,-4.6000000000000005,-3.1
1698745695.99,16,0.0,0.0,-0.1,-0.8,8.6,4.1000000000000005,-1.6,-4.6000000000000005,-3.2
1698745696.007,16,0.0,-0.1,0.0,-0.8,8.6,4.2,-1.2000000000000002,-5.0,-3.5
1698745696.024,16,0.0,-0.1,-0.1,-0.8,8.5,4.1000000000000005,-0.30000000000000004,-4.800000000000001,-2.9
1698745696.04,16,0.1,0.0,0.0,-0.7000000000000001,8.6,4.2,0.0,-4.2,-2.3000000000000003
1698745696.057,16,0.1,0.0,0.0,-0.7000000000000001,8.6,4.2,0.0,-3.8,-2.0
1698745696.073,16,0.1,0.0,0.0,-0.6000000000000001,8.700000000000001,4.2,-0.30000000000000004,-2.5,-1.8
1698745696.09,16,0.1,0.0,-0.1,-0.7000000000000001,8.6,4.1000000000000005,-0.6000000000000001,-1.3,-1.2000000000000002
1698745696.107,16,0.1,0.0,0.0,-0.7000000000000001,8.6,4.2,-0.6000000000000001,-0.8,-0.8
1698745696.124,16,0.1,0.0,0.0,-0.7000000000000001,8.6,4.2,-0.8,-0.1,0.0
1698745696.14,16,0.1,0.0,0.0,-0.7000000000000001,8.6,4.2,-0.8,0.6000000000000001,0.5
1698745696.157,16,0.1,0.0,0.0,-0.7000000000000001,8.6,4.2,-0.8,1.0999999999999999,0.7
1698745696.173,16,0.0,0.0,0.0,-0.7000000000000001,8.6,4.2,-0.9,1.7,1.0999999999999999
1698745696.19,16,0.0,0.0,0.0,-0.8,8.700000000000001,4.2,-1.3,2.0,1.2000000000000002
1698745696.207,16,0.0,0.0,0.0,-0.8,8.6,4.2,-1.3,2.3000000000000003,1.0999999999999999
1698745696.223,16,0.0,0.0,0.0,-0.8,8.6,4.2,-1.3,2.6,0.6000000000000001
1698745696.24,16,0.0,0.0,0.0,-0.8,8.6,4.2,-1.0999999999999999,2.3000000000000003,0.6000000000000001
1698745696.256,16,0.0,0.0,0.0,-0.8,8.6,4.2,-0.8,2.3000000000000003,0.7
1698745696.273,16,0.0,0.0,0.0,-0.8,8.6,4.2,-0.5,1.9,0.9
1698745696.29,16,-0.1,0.0,0.0,-0.8,8.6,4.2,-0.6000000000000001,1.6,0.9
1698745696.307,16,-0.1,0.0,0.0,-0.8,8.6,4.2,-0.7,1.4,0.8
1698745696.324,16,0.0,0.0,0.0,-0.8,8.6,4.2,-1.0,1.0,0.5
1698745696.34,16,-0.1,0.0,0.0,-0.8,8.6,4.2,-1.0999999999999999,0.5,0.1
1698745696.357,16,0.0,0.1,0.0,-0.8,8.700000000000001,4.2,-0.8,0.2,0.0
1698745696.373,16,0.0,0.0,0.0,-0.8,8.6,4.2,-0.7,-0.1,0.0
1698745696.39,16,0.0,0.1,0.0,-0.8,8.700000000000001,4.2,-1.0999999999999999,-0.30000000000000004,-0.4
1698745696.407,16,0.1,0.0,0.0,-0.7000000000000001,8.6,4.2,-1.0999999999999999,-0.4,-0.6000000000000001
1698745696.423,16,0.0,0.0,0.0,-0.8,8.6,4.2,-1.0999999999999999,-0.30000000000000004,-0.5
1698745696.44,16,0.0,0.0,0.0,-0.8,8.6,4.2,-0.9,-0.4,-0.4
1698745696.456,16,0.0,0.0,-0.1,-0.8,8.6,4.1000000000000005,-0.6000000000000001,-1.0,-0.4
1698745696.473,16,0.0,0.0,-0.1,-0.7000000000000001,8.6,4.2,-0.5,-1.3,-0.4
1698745696.49,16,0.1,0.0,-0.1,-0.7000000000000001,8.6,4.2,-0.30000000000000004,-1.3,-0.30000000000000004
1698745696.507,16,0.1,0.0,0.0,-0.7000000000000001,8.6,4.2,-0.30000000000000004,-1.3,-0.5
1698745696.524,16,0.0,0.0,0.0,-0.7000000000000001,8.6,4.2,-0.30000000000000004,-1.6,-0.7
1698745696.54,16,0.0,0.0,0.0,-0.8,8.6,4.2,0.30000000000000004,-2.1,-0.8
1698745696.556,16,0.0,0.0,0.0,-0.7000000000000001,8.6,4.2,0.6000000000000001,-1.9,-0.7
1698745696.573,16,0.0,0.0,0.0,-0.7000000000000001,8.6,4.2,0.7,-1.7,-0.5
1698745696.59,16,0.1,0.0,0.0,-0.7000000000000001,8.6,4.2,0.5,-1.4,-0.5
1698745696.606,16,0.1,0.0,0.0,-0.7000000000000001,8.6,4.2,1.0,-0.7,-0.4
1698745696.623,16,0.1,0.0,0.0,-0.7000000000000001,8.6,4.2,1.2000000000000002,-0.5,-0.1
1698745696.64,16,0.0,0.0,0.0,-0.7000000000000001,8.6,4.2,1.4,0.30000000000000004,0.2
1698745696.656,16,0.0,0.0,0.0,-0.7000000000000001,8.6,4.2,1.0,0.30000000000000004,0.4
1698745696.674,16,0.0,0.0,0.0,-0.8,8.6,4.2,0.9,0.5,0.4
1698745696.69,16,0.0,0.0,0.0,-0.8,8.6,4.2,0.7,0.6000000000000001,0.6000000000000001
1698745696.707,16,0.0,0.0,0.0,-0.8,8.6,4.2,0.7,0.9,0.5
1698745696.724,16,0.0,0.1,0.0,-0.7000000000000001,8.700000000000001,4.2,0.4,1.0999999999999999,0.5
1698745696.74,16,0.0,0.1,0.0,-0.7000000000000001,8.700000000000001,4.2,-0.1,1.2000000000000002,0.4
1698745696.756,16,0.0,0.1,0.0,-0.7000000000000001,8.700000000000001,4.2,-0.8,1.4,0.6000000000000001
1698745696.773,16,0.0,0.1,0.0,-0.8,8.700000000000001,4.2,-0.8,1.4,0.7
1698745696.79,16,0.0,0.1,0.0,-0.8,8.700000000000001,4.2,-0.9,1.4,0.9
1698745696.807,16,0.0,0.1,0.0,-0.8,8.700000000000001,4.2,-0.8,1.3,0.9
1698745696.824,16,0.0,0.0,0.0,-0.8,8.700000000000001,4.2,-1.2000000000000002,1.2000000000000002,0.9
1698745696.84,16,0.0,0.0,-0.1,-0.8,8.6,4.1000000000000005,-1.7,0.7,0.7
1698745696.857,16,0.0,-0.1,0.0,-0.8,8.6,4.2,-1.8,0.1,0.6000000000000001
1698745696.873,16,0.0,-0.1,-0.1,-0.8,8.6,4.1000000000000005,-1.5000000000000002,-0.2,0.6000000000000001
1698745696.89,16,0.0,0.0,0.0,-0.8,8.6,4.2,-0.9,-0.8,0.30000000000000004
1698745696.906,16,0.0,0.0,0.0,-0.8,8.6,4.2,-0.4,-1.3,0.0
1698745696.923,16,0.0,0.0,0.0,-0.7000000000000001,8.6,4.2,-0.6000000000000001,-1.4,-0.4
1698745696.94,16,0.0,-0.1,0.0,-0.7000000000000001,8.6,4.2,-0.9,-1.3,-0.5
1698745696.957,16,0.1,-0.1,0.0,-0.7000000000000001,8.5,4.2,-0.9,-1.0,-0.1
1698745696.973,16,0.0,0.0,0.0,-0.7000000000000001,8.6,4.2,-0.6000000000000001,-1.0999999999999999,0.0
1698745696.99,16,0.1,0.0,0.0,-0.7000000000000001,8.6,4.2,-0.30000000000000004,-0.6000000000000001,0.4
1698745697.006,16,0.0,0.0,0.0,-0.7000000000000001,8.6,4.2,0.0,-0.6000000000000001,0.5
1698745697.024,16,0.0,0.0,0.1,-0.7000000000000001,8.6,4.3,0.4,-0.30000000000000004,0.6000000000000001
1698745697.041,16,0.0,0.0,0.1,-0.7000000000000001,8.6,4.3,0.8,0.1,0.9
1698745697.057,16,0.0,0.0,0.1,-0.7000000000000001,8.6,4.3,0.5,0.1,0.9
1698745697.073,16,0.0,0.0,0.0,-0.8,8.6,4.3,0.2,0.5,1.0
1698745697.09,16,0.0,0.0,0.0,-0.8,8.6,4.3,0.0,0.4,1.0
1698745697.107,16,-0.1,0.0,0.1,-0.8,8.6,4.3,0.0,0.2,0.8
1698745697.124,16,-0.1,0.0,0.1,-0.8,8.6,4.3,-0.1,0.2,0.7
1698745697.14,16,0.0,0.0,0.1,-0.8,8.6,4.3,-0.30000000000000004,0.2,0.6000000000000001
1698745697.156,16,0.0,0.1,0.0,-0.7000000000000001,8.700000000000001,4.3,-1.0,0.30000000000000004,0.5
1698745697.173,16,0.0,0.0,0.0,-0.7000000000000001,8.6,4.3,-1.2000000000000002,0.30000000000000004,0.4
1698745697.19,16,0.0,0.0,0.0,-0.7000000000000001,8.6,4.3,-1.2000000000000002,0.30000000000000004,0.4
1698745697.206,16,0.0,0.0,0.0,-0.7000000000000001,8.6,4.3,-0.9,0.5,0.30000000000000004
1698745697.223,16,0.0,0.0,0.0,-0.7000000000000001,8.6,4.3,-0.8,0.7,0.1
1698745697.24,16,0.0,0.0,0.0,-0.8,8.6,4.3,-1.0999999999999999,0.5,0.1
1698745697.256,16,0.0,0.0,0.0,-0.7000000000000001,8.6,4.3,-1.3,0.30000000000000004,0.30000000000000004
1698745697.273,16,0.0,-0.1,0.0,-0.7000000000000001,8.5,4.2,-1.0999999999999999,0.30000000000000004,0.4
1698745697.29,16,0.0,-0.1,0.0,-0.7000000000000001,8.5,4.3,-0.8,0.30000000000000004,0.30000000000000004
1698745697.306,16,0.0,-0.1,0.0,-0.7000000000000001,8.5,4.3,-0.1,0.30000000000000004,0.30000000000000004
1698745697.323,16,0.0,0.0,0.0,-0.7000000000000001,8.6,4.3,0.2,0.5,0.30000000000000004
1698745697.34,16,0.0,0.0,0.0,-0.7000000000000001,8.6,4.3,-0.1,0.6000000000000001,0.30000000000000004
1698745697.356,16,0.0,0.0,0.0,-0.7000000000000001,8.6,4.2,-0.4,0.8,0.30000000000000004
1698745697.373,16,0.0,0.0,0.0,-0.7000000000000001,8.6,4.3,-0.30000000000000004,0.6000000000000001,0.1
1698745697.389,16,0.0,0.0,0.0,-0.7000000000000001,8.5,4.2,0.0,0.6000000000000001,0.1
1698745697.406,16,0.0,-0.1,0.0,-0.7000000000000001,8.5,4.2,0.7,0.7,-0.2
1698745697.423,16,0.0,0.0,0.0,-0.7000000000000001,8.6,4.3,1.3,1.0999999999999999,-0.1
1698745697.44,16,0.0,0.0,0.0,-0.7000000000000001,8.6,4.3,1.0999999999999999,1.3,-0.1
1698745697.456,16,0.1,0.0,0.1,-0.7000000000000001,8.6,4.3,0.5,1.6,0.1
1698745697.473,16,0.0,0.0,0.0,-0.7000000000000001,8.6,4.3,0.2,1.7,0.4
1698745697.49,16,0.0,-0.1,0.1,-0.7000000000000001,8.5,4.3,0.30000000000000004,1.8,0.4
1698745697.506,16,0.0,0.0,0.0,-0.7000000000000001,8.5,4.3,0.9,1.8,0.6000000000000001
1698745697.523,16,0.0,0.0,0.1,-0.7000000000000001,8.5,4.3,1.3,1.9,0.7
1698745697.541,16,0.0,0.0,0.0,-0.8,8.6,4.3,1.4,1.9,0.7
1698745697.556,16,0.0,0.0,0.0,-0.7000000000000001,8.6,4.3,1.0,2.0,0.8
1698745697.575,16,0.0,0.0,0.0,-0.7000000000000001,8.6,4.3,0.2,1.7,0.6000000000000001
1698745697.59,16,0.0,0.0,0.0,-0.8,8.6,4.3,0.0,1.7,0.6000000000000001
1698745697.606,16,0.0,0.0,0.0,-0.8,8.6,4.2,0.5,1.0,0.30000000000000004
1698745697.623,16,-0.1,0.0,0.0,-0.8,8.6,4.2,1.2000000000000002,0.2,0.1
1698745697.64,16,-0.1,0.0,0.0,-0.8,8.6,4.2,1.5000000000000002,-0.2,-0.1
1698745697.657,16,-0.1,0.1,-0.1,-0.9,8.700000000000001,4.2,1.0999999999999999,-1.0999999999999999,-0.4
1698745697.673,16,-0.1,0.1,-0.1,-0.8,8.700000000000001,4.2,0.5,-1.9,-0.8
1698745697.69,16,0.0,0.0,-0.1,-0.8,8.6,4.2,0.30000000000000004,-2.4000000000000004,-1.0
1698745697.706,16,0.0,0.0,-0.1,-0.7000000000000001,8.6,4.1000000000000005,0.6000000000000001,-2.4000000000000004,-0.9
1698745697.723,16,0.0,0.0,0.0,-0.8,8.6,4.2,0.8,-2.1999999999999997,-0.8
1698745697.74,16,0.0,0.0,0.0,-0.8,8.6,4.2,1.3,-1.8,-0.8
1698745697.757,16,0.0,0.0,0.0,-0.7000000000000001,8.6,4.2,1.4,-1.8,-0.7
1698745697.773,16,0.0,0.0,0.0,-0.7000000000000001,8.6,4.2,1.7,-1.3,-0.5
1698745697.79,16,0.0,0.0,0.0,-0.7000000000000001,8.6,4.2,1.8,-1.0,-0.4
1698745697.807,16,0.0,0.0,0.0,-0.8,8.6,4.2,1.7,-0.5,-0.2
1698745697.824,16,0.0,0.0,0.0,-0.7000000000000001,8.6,4.2,1.7,-0.1,-0.2
1698745697.84,16,0.0,0.0,0.0,-0.8,8.6,4.2,1.9,-0.2,0.0
1698745697.857,16,0.0,0.0,0.0,-0.8,8.6,4.2,2.1,-0.2,0.0
1698745697.874,16,0.0,0.0,0.0,-0.7000000000000001,8.6,4.2,2.0,0.1,-0.2
1698745697.89,16,0.0,0.0,0.0,-0.7000000000000001,8.6,4.2,1.8,0.1,-0.4
1698745697.907,16,0.0,0.0,0.0,-0.8,8.6,4.2,1.8,0.30000000000000004,-0.5
1698745697.923,16,0.0,0.0,0.0,-0.8,8.6,4.2,1.6,0.2,-0.6000000000000001
1698745697.94,16,0.0,0.0,0.0,-0.8,8.6,4.2,1.4,0.1,-0.7
1698745697.957,16,0.0,0.0,0.0,-0.8,8.6,4.2,1.4,0.30000000000000004,-0.5
1698745697.973,16,0.0,0.0,0.0,-0.8,8.6,4.2,1.9,0.1,-0.4
1698745697.99,16,0.0,0.0,0.0,-0.8,8.6,4.2,2.1999999999999997,0.30000000000000004,-0.2
1698745698.009,16,0.0,0.1,-0.1,-0.8,8.700000000000001,4.1000000000000005,1.9,0.1,-0.30000000000000004
1698745698.024,16,0.0,0.1,-0.1,-0.8,8.8,4.0,1.6,-0.2,-0.2
1698745698.04,16,0.0,0.2,-0.1,-0.8,8.700000000000001,4.0,1.0,-0.30000000000000004,-0.2
1698745698.058,16,0.0,0.0,0.0,-0.8,8.700000000000001,4.1000000000000005,0.0,-0.8,-0.1
1698745698.073,16,0.0,-0.1,0.1,-0.8,8.5,4.2,1.0999999999999999,-0.8,0.2
1698745698.09,16,0.0,0.1,0.0,-0.8,8.700000000000001,4.2,2.4000000000000004,-1.0,0.30000000000000004
1698745698.107,16,0.0,0.2,0.0,-0.7000000000000001,8.8,4.2,2.1,-1.0999999999999999,0.1
1698745698.124,16,0.0,0.1,0.0,-0.8,8.700000000000001,4.1000000000000005,0.2,-0.5,-0.2
1698745698.14,16,0.0,0.0,0.0,-0.8,8.6,4.1000000000000005,-0.6000000000000001,-0.7,-0.4
1698745698.157,16,0.0,-0.1,0.0,-0.8,8.5,4.2,-0.9,-0.7,-0.4
1698745698.173,16,0.1,-0.1,0.0,-0.7000000000000001,8.6,4.2,0.0,-0.7,-0.30000000000000004
1698745698.19,16,0.1,-0.1,0.0,-0.7000000000000001,8.6,4.1000000000000005,0.7,-0.30000000000000004,-0.1
1698745698.207,16,0.1,0.0,0.0,-0.7000000000000001,8.6,4.1000000000000005,0.8,0.0,0.0
1698745698.224,16,0.1,0.0,-0.1,-0.7000000000000001,8.700000000000001,4.1000000000000005,0.4,0.6000000000000001,0.2
1698745698.24,16,0.0,0.1,-0.1,-0.7000000000000001,8.700000000000001,4.0,0.0,1.0999999999999999,0.5
1698745698.257,16,0.0,0.1,-0.1,-0.8,8.700000000000001,4.0,-0.1,1.0999999999999999,0.6000000000000001
1698745698.274,16,-0.1,0.0,-0.1,-0.8,8.700000000000001,4.0,0.2,0.8,0.6000000000000001
1698745698.29,16,0.0,0.1,-0.1,-0.8,8.700000000000001,4.0,0.4,0.9,0.6000000000000001
1698745698.306,16,0.0,0.1,-0.1,-0.8,8.8,4.0,0.6000000000000001,0.5,0.4
1698745698.324,16,0.0,0.1,-0.1,-0.8,8.8,4.0,0.0,0.4,0.1
1698745698.34,16,0.0,0.0,0.0,-0.8,8.6,4.1000000000000005,-0.1,0.0,-0.4
1698745698.356,16,0.0,-0.1,0.0,-0.8,8.6,4.1000000000000005,0.0,-0.1,-0.4
1698745698.373,16,0.0,-0.1,0.0,-0.8,8.5,4.1000000000000005,0.9,-0.30000000000000004,-0.30000000000000004
1698745698.39,16,0.0,-0.1,0.0,-0.7000000000000001,8.6,4.1000000000000005,1.0999999999999999,-0.2,-0.2
1698745698.406,16,0.0,0.0,0.0,-0.7000000000000001,8.700000000000001,4.0,0.4,0.1,0.0
1698745698.423,16,0.0,0.0,0.0,-0.7000000000000001,8.700000000000001,4.1000000000000005,0.0,0.0,-0.1
1698745698.44,16,0.0,0.1,0.0,-0.8,8.700000000000001,4.0,-0.6000000000000001,-0.2,0.0
1698745698.456,16,0.0,0.0,0.0,-0.8,8.700000000000001,4.1000000000000005,-0.5,-0.2,-0.1
1698745698.474,16,0.0,0.0,-0.1,-0.7000000000000001,8.700000000000001,4.0,0.7,0.0,-0.1
1698745698.491,16,0.0,0.0,0.0,-0.8,8.700000000000001,4.1000000000000005,0.9,0.2,0.2
1698745698.506,16,0.0,0.0,0.0,-0.8,8.700000000000001,4.1000000000000005,0.7,0.1,0.30000000000000004
1698745698.524,16,0.0,0.0,0.0,-0.7000000000000001,8.700000000000001,4.1000000000000005,0.5,0.30000000000000004,0.30000000000000004
1698745698.54,16,0.0,0.0,0.0,-0.7000000000000001,8.6,4.1000000000000005,0.1,0.8,0.1
1698745698.557,16,0.0,-0.1,0.0,-0.8,8.6,4.1000000000000005,-0.1,0.8,0.0
1698745698.573,16,0.0,0.0,0.0,-0.8,8.6,4.1000000000000005,-0.30000000000000004,1.0999999999999999,-0.2
1698745698.59,16,0.0,0.0,0.0,-0.8,8.6,4.1000000000000005,-0.4,0.9,-0.30000000000000004
1698745698.606,16,0.0,0.0,0.0,-0.8,8.6,4.1000000000000005,-0.4,0.9,-0.4
1698745698.623,16,0.0,0.0,0.0,-0.8,8.700000000000001,4.1000000000000005,-0.7,0.9,-0.2
1698745698.64,16,0.0,0.0,0.0,-0.8,8.700000000000001,4.1000000000000005,-0.6000000000000001,0.6000000000000001,-0.2
1698745698.656,16,0.0,0.0,0.0,-0.8,8.700000000000001,4.1000000000000005,-0.6000000000000001,0.1,-0.30000000000000004
1698745698.673,16,0.0,0.0,0.0,-0.8,8.700000000000001,4.1000000000000005,-0.4,0.1,-0.30000000000000004
1698745698.69,16,0.0,0.0,0.0,-0.8,8.700000000000001,4.0,-0.4,-0.5,-0.7
1698745698.706,16,0.0,0.0,0.0,-0.8,8.700000000000001,4.1000000000000005,-0.5,-0.6000000000000001,-0.7
1698745698.723,16,0.0,0.0,0.0,-0.7000000000000001,8.700000000000001,4.1000000000000005,-0.5,-0.6000000000000001,-0.5
1698745698.74,16,0.0,0.0,0.0,-0.7000000000000001,8.700000000000001,4.1000000000000005,-0.4,-0.4,-0.30000000000000004
1698745698.757,16,0.0,0.0,0.0,-0.7000000000000001,8.700000000000001,4.1000000000000005,-0.8,-0.4,-0.30000000000000004
1698745698.773,16,0.0,0.0,0.0,-0.8,8.700000000000001,4.1000000000000005,-1.3,-0.2,-0.30000000000000004
1698745698.79,16,0.0,0.0,0.0,-0.8,8.700000000000001,4.1000000000000005,-2.0,0.1,-0.4
1698745698.806,16,0.0,0.0,0.0,-0.7000000000000001,8.700000000000001,4.1000000000000005,-2.0,0.1,-0.30000000000000004
1698745698.824,16,0.0,0.0,0.0,-0.8,8.6,4.1000000000000005,-2.1,0.0,0.0
1698745698.84,16,0.0,0.0,0.0,-0.8,8.700000000000001,4.1000000000000005,-1.5000000000000002,0.5,0.0
1698745698.856,16,0.0,0.0,0.0,-0.8,8.700000000000001,4.1000000000000005,-1.5000000000000002,0.8,0.1
1698745698.873,16,0.0,0.0,0.0,-0.8,8.700000000000001,4.1000000000000005,-1.7,0.9,0.1
1698745698.89,16,0.0,0.0,0.0,-0.8,8.6,4.1000000000000005,-1.9,0.9,0.2
1698745698.907,16,0.0,0.0,0.0,-0.8,8.700000000000001,4.1000000000000005,-2.0,0.8,0.2
1698745698.923,16,0.0,0.0,0.0,-0.8,8.700000000000001,4.1000000000000005,-1.7,0.8,0.30000000000000004
1698745698.94,16,0.0,0.0,0.0,-0.8,8.700000000000001,4.1000000000000005,-1.6,0.9,0.4
1698745698.956,16,0.0,0.0,0.0,-0.8,8.6,4.1000000000000005,-1.7,0.5,0.4
1698745698.974,16,0.0,0.0,0.0,-0.8,8.6,4.1000000000000005,-1.8,0.4,0.4
1698745698.99,16,0.0,0.0,0.0,-0.8,8.6,4.1000000000000005,-2.1,0.2,0.30000000000000004
1698745699.006,16,-0.1,0.0,0.0,-0.8,8.6,4.2,-2.1999999999999997,0.0,0.0
1698745699.024,16,-0.1,0.0,0.0,-0.8,8.6,4.1000000000000005,-2.1999999999999997,-0.1,-0.1
1698745699.04,16,0.0,0.0,0.0,-0.8,8.6,4.2,-2.3000000000000003,-0.2,-0.4
1698745699.056,16,0.0,0.0,0.0,-0.8,8.6,4.2,-2.4000000000000004,-0.1,-0.4
1698745699.074,16,0.0,0.0,0.0,-0.8,8.6,4.2,-2.5,0.0,-0.4
1698745699.09,16,0.0,0.0,0.0,-0.8,8.6,4.2,-2.4000000000000004,0.2,-0.4
1698745699.106,16,0.0,-0.1,0.0,-0.8,8.6,4.2,-2.0,0.5,-0.4
1698745699.124,16,0.0,0.0,0.0,-0.8,8.6,4.2,-1.8,0.5,-0.2
1698745699.14,16,0.0,0.0,0.0,-0.8,8.6,4.1000000000000005,-1.7,0.8,0.1
1698745699.156,16,0.0,0.0,0.0,-0.8,8.6,4.1000000000000005,-1.9,0.9,0.2
1698745699.173,16,0.0,0.0,0.0,-0.8,8.6,4.1000000000000005,-2.0,0.9,0.30000000000000004
1698745699.19,16,0.0,0.0,0.0,-0.8,8.6,4.2,-2.0,1.2000000000000002,0.2
1698745699.206,16,0.0,0.0,0.0,-0.8,8.6,4.2,-2.0,1.2000000000000002,0.1
1698745699.224,16,0.0,0.0,0.0,-0.8,8.6,4.2,-1.7,0.9,0.30000000000000004
1698745699.24,16,-0.1,0.0,0.0,-0.9,8.6,4.2,-1.7,1.0999999999999999,0.4
1698745699.257,16,-0.1,0.1,-0.1,-0.9,8.700000000000001,4.1000000000000005,-1.4,0.9,0.6000000000000001
1698745699.273,16,-0.1,0.1,-0.1,-0.9,8.6,4.2,-1.2000000000000002,0.8,0.5
1698745699.29,16,-0.1,0.0,0.0,-0.9,8.6,4.2,-0.7,0.6000000000000001,0.7
1698745699.306,16,0.0,0.0,-0.1,-0.9,8.700000000000001,4.1000000000000005,-0.4,0.4,0.8
1698745699.323,16,0.0,0.0,0.0,-0.9,8.6,4.2,-0.5,0.4,0.8
1698745699.34,16,-0.1,0.0,0.0,-0.9,8.6,4.2,-0.9,0.2,1.0
1698745699.357,16,-0.1,0.0,0.0,-0.9,8.6,4.2,-1.3,0.0,0.8
1698745699.373,16,-0.1,0.0,0.0,-0.9,8.6,4.2,-1.2000000000000002,-0.30000000000000004,0.9
1698745699.39,16,-0.1,0.0,0.0,-0.9,8.6,4.2,-0.9,-0.30000000000000004,0.9
1698745699.407,16,-0.1,0.0,0.0,-0.9,8.6,4.2,-0.7,-0.6000000000000001,0.7
1698745699.423,16,-0.1,0.1,0.0,-0.9,8.700000000000001,4.2,-0.7,-0.7,0.7
1698745699.44,16,-0.1,0.0,0.0,-0.9,8.6,4.2,-0.4,-0.7,0.9
1698745699.457,16,-0.1,0.0,0.0,-0.9,8.6,4.2,-0.5,-0.7,0.9
1698745699.473,16,-0.1,0.0,0.0,-0.9,8.6,4.2,-0.9,-0.6000000000000001,0.8
1698745699.49,16,-0.1,0.0,0.0,-0.9,8.6,4.2,-1.2000000000000002,-0.7,0.9
1698745699.506,16,-0.1,0.0,0.0,-0.9,8.6,4.2,-1.7,-0.6000000000000001,0.9
1698745699.523,16,-0.1,0.0,0.0,-0.9,8.6,4.2,-2.3000000000000003,-0.5,1.0999999999999999
1698745699.54,16,-0.1,0.0,0.0,-0.9,8.6,4.2,-2.5,-0.6000000000000001,1.0
1698745699.557,16,-0.1,-0.1,0.0,-0.9,8.5,4.2,-2.8,-0.1,1.3
1698745699.573,16,-0.1,0.0,0.0,-1.0,8.6,4.2,-2.9,-0.2,1.4
1698745699.59,16,-0.2,0.0,0.0,-1.0,8.6,4.3,-3.0000000000000004,-0.2,1.5000000000000002
1698745699.606,16,-0.2,0.0,0.0,-1.1,8.6,4.2,-3.6,-0.8,1.5000000000000002
1698745699.623,16,-0.2,0.1,0.0,-1.1,8.700000000000001,4.2,-4.3999999999999995,-0.8,1.4
1698745699.64,16,-0.2,0.1,0.0,-1.1,8.700000000000001,4.2,-4.3999999999999995,-1.0999999999999999,1.5000000000000002
1698745699.657,16,-0.30000000000000004,0.1,-0.1,-1.1,8.6,4.2,-4.800000000000001,-2.0,1.4
1698745699.673,16,-0.2,0.1,-0.1,-1.1,8.700000000000001,4.2,-5.1,-2.8,0.9
1698745699.69,16,-0.2,0.1,0.0,-1.1,8.700000000000001,4.3,-5.300000000000001,-3.0000000000000004,0.7
1698745699.706,16,-0.2,0.0,0.0,-1.1,8.6,4.3,-5.4,-2.6,0.30000000000000004
1698745699.724,16,-0.1,-0.1,0.0,-1.0,8.5,4.3,-5.500000000000001,-2.9,0.4
1698745699.74,16,-0.2,-0.1,0.0,-1.1,8.5,4.3,-5.7,-3.0000000000000004,0.6000000000000001
1698745699.757,16,-0.2,0.0,0.0,-1.0,8.5,4.4,-6.6000000000000005,-3.0000000000000004,0.7
1698745699.773,16,-0.2,0.0,0.0,-1.1,8.5,4.4,-7.400000000000001,-2.5,1.0999999999999999
1698745699.79,16,-0.2,0.0,0.0,-1.1,8.5,4.4,-7.500000000000001,-2.5,1.3
1698745699.806,16,-0.2,0.0,0.0,-1.1,8.5,4.4,-7.0,-3.5,1.5000000000000002
1698745699.824,16,-0.2,0.0,0.0,-1.1,8.5,4.4,-6.3,-4.3999999999999995,1.0999999999999999
1698745699.84,16,-0.2,0.0,0.0,-1.1,8.5,4.4,-6.3,-5.0,0.7
1698745699.856,16,-0.30000000000000004,0.0,0.0,-1.2000000000000002,8.4,4.4,-7.6,-6.8,-0.2
1698745699.873,16,-0.30000000000000004,-0.1,-0.1,-1.2000000000000002,8.3,4.4,-9.4,-9.600000000000001,-1.2000000000000002
1698745699.89,16,-0.2,-0.1,-0.1,-1.1,8.3,4.3,-10.2,-11.5,-2.0
1698745699.906,16,-0.2,-0.2,-0.2,-1.1,8.200000000000001,4.3,-11.000000000000002,-14.600000000000001,-3.6
1698745699.924,16,0.0,-0.1,-0.30000000000000004,-0.9,8.200000000000001,4.3,-10.600000000000001,-14.600000000000001,-6.3
1698745699.94,16,0.2,-0.1,-0.2,-0.7000000000000001,8.200000000000001,4.3,-9.4,-16.0,-7.9
1698745699.957,16,0.30000000000000004,0.1,-0.2,-0.6000000000000001,8.4,4.4,-6.7,-16.6,-8.200000000000001
1698745699.973,16,0.4,0.2,-0.1,-0.5,8.5,4.5,-5.9,-17.9,-8.1
1698745699.989,16,0.5,0.30000000000000004,0.1,-0.30000000000000004,8.6,4.7,-7.2,-19.0,-7.8
1698745700.006,16,0.5,0.30000000000000004,0.2,-0.4,8.6,4.800000000000001,-8.0,-19.6,-6.5
1698745700.023,16,0.30000000000000004,0.4,0.1,-0.5,8.8,4.800000000000001,-10.700000000000001,-22.6,-3.3000000000000003
1698745700.04,16,0.4,0.5,-0.1,-0.30000000000000004,8.8,4.5,-13.8,-23.8,-2.7
1698745700.056,16,0.7000000000000001,0.4,-0.4,-0.1,8.700000000000001,4.4,-20.5,-24.000000000000004,-4.1000000000000005
1698745700.074,16,1.1,0.4,-0.5,0.4,8.700000000000001,4.3,-23.1,-23.1,-5.2
1698745700.09,16,1.3,0.5,-0.7000000000000001,0.5,8.700000000000001,4.2,-19.9,-19.1,-4.300000000000001
1698745700.107,16,1.2000000000000002,0.5,-0.9,0.5,8.700000000000001,4.1000000000000005,-17.5,-16.0,-2.9
1698745700.124,16,1.0,0.6000000000000001,-0.8,0.4,8.8,4.2,-12.9,-10.8,0.7
1698745700.14,16,0.9,0.6000000000000001,-0.7000000000000001,0.2,8.8,4.2,-11.1,-8.700000000000001,3.3000000000000003
1698745700.157,16,0.6000000000000001,0.8,-0.7000000000000001,0.0,8.9,4.3,-9.200000000000001,-6.9,8.9
1698745700.173,16,0.7000000000000001,0.7000000000000001,-0.9,0.1,8.9,4.2,-11.1,-8.1,14.700000000000001
1698745700.19,16,0.7000000000000001,0.4,-1.0,0.2,8.5,4.0,-12.3,-5.7,15.299999999999999
1698745700.206,16,0.6000000000000001,0.30000000000000004,-1.1,0.1,8.4,4.0,-11.8,-7.1000000000000005,14.500000000000002
1698745700.224,16,0.4,0.2,-1.1,-0.1,8.3,3.9000000000000004,-9.4,-7.300000000000001,12.000000000000002
1698745700.24,16,0.30000000000000004,0.30000000000000004,-1.2000000000000002,0.0,8.4,3.9000000000000004,-6.4,-6.3,11.6
1698745700.257,16,0.30000000000000004,0.30000000000000004,-1.2000000000000002,0.0,8.5,3.9000000000000004,-5.300000000000001,-5.9,11.4
1698745700.274,16,0.4,0.0,-1.2000000000000002,0.1,8.1,3.9000000000000004,-4.3999999999999995,-7.8,9.700000000000001
1698745700.291,16,0.30000000000000004,0.4,-1.2000000000000002,0.0,8.5,3.9000000000000004,-5.2,-7.1000000000000005,9.700000000000001
1698745700.307,16,0.2,0.5,-1.2000000000000002,0.0,8.6,3.9000000000000004,-5.1,-5.6,9.4
1698745700.324,16,0.4,0.30000000000000004,-1.5,0.2,8.4,3.6,-4.800000000000001,-3.8,7.300000000000001
1698745700.34,16,0.4,0.30000000000000004,-1.4000000000000001,0.2,8.4,3.7,-3.4,-1.0999999999999999,6.2
1698745700.356,16,0.4,0.30000000000000004,-1.5,0.30000000000000004,8.4,3.6,-2.0,0.9,5.7
1698745700.373,16,0.4,0.2,-1.4000000000000001,0.2,8.3,3.7,0.1,3.8,6.1000000000000005
1698745700.39,16,0.30000000000000004,0.2,-1.4000000000000001,0.1,8.3,3.6,1.0999999999999999,6.1000000000000005,7.0
1698745700.407,16,0.2,0.2,-1.5,0.1,8.3,3.6,1.7,9.600000000000001,8.5
1698745700.424,16,0.30000000000000004,0.2,-1.5,0.1,8.3,3.5,1.0999999999999999,11.9,9.3
1698745700.44,16,0.4,0.30000000000000004,-1.4000000000000001,0.30000000000000004,8.4,3.5,1.3,12.8,9.5
1698745700.457,16,0.5,0.4,-1.4000000000000001,0.4,8.5,3.5,2.6,15.8,9.1
1698745700.473,16,0.5,0.6000000000000001,-1.2000000000000002,0.4,8.700000000000001,3.6,3.5,17.8,8.3
1698745700.49,16,0.4,0.7000000000000001,-1.2000000000000002,0.30000000000000004,8.9,3.6,4.1000000000000005,21.5,9.0
1698745700.506,16,0.30000000000000004,0.8,-1.2000000000000002,0.1,9.1,3.7,3.6,22.6,9.3
1698745700.523,16,0.2,1.1,-0.9,0.1,9.3,3.9000000000000004,2.3000000000000003,23.400000000000002,8.9
1698745700.54,16,0.30000000000000004,1.4000000000000001,-0.9,0.1,9.600000000000001,3.9000000000000004,0.7,27.5,5.7
1698745700.556,16,0.4,1.6,-1.1,0.30000000000000004,9.9,3.7,-1.0999999999999999,29.600000000000005,4.300000000000001
1698745700.573,16,0.2,1.9000000000000001,-1.5,0.1,10.100000000000001,3.3000000000000003,-5.0,26.8,6.9
1698745700.59,16,-0.4,2.3000000000000003,-0.7000000000000001,-0.6000000000000001,10.5,4.1000000000000005,-3.9,21.900000000000002,10.700000000000001
1698745700.607,16,-0.8,2.9000000000000004,-0.30000000000000004,-1.0,11.100000000000001,4.5,4.2,14.200000000000001,12.700000000000001
1698745700.623,16,-1.1,2.3000000000000003,-1.1,-1.3,10.600000000000001,3.6,10.2,-9.0,14.200000000000001
1698745700.64,16,0.2,1.4000000000000001,-0.7000000000000001,0.1,9.700000000000001,4.0,-2.1,-14.4,4.0
1698745700.656,16,-0.1,1.7000000000000002,-0.6000000000000001,-0.2,10.0,4.2,-3.7000000000000006,-16.1,-2.1
1698745700.673,16,0.0,1.6,-0.8,-0.1,9.9,4.0,-2.7,-19.9,-2.5
1698745700.69,16,0.0,1.0,-0.1,-0.1,9.3,4.7,2.7,-21.3,-2.6
1698745700.707,16,0.30000000000000004,0.9,0.30000000000000004,0.30000000000000004,9.200000000000001,5.0,8.200000000000001,-17.599999999999998,-0.5
1698745700.723,16,1.2000000000000002,0.5,1.2000000000000002,1.2000000000000002,8.9,5.9,17.9,-10.700000000000001,2.9
1698745700.74,16,2.1,-0.5,1.8,2.1,7.9,6.5,21.3,-4.1000000000000005,8.0
1698745700.756,16,1.5,-1.0,2.0,2.1,7.4,6.6000000000000005,19.0,0.8,11.9
1698745700.773,16,0.6000000000000001,-0.6000000000000001,1.7000000000000002,0.7000000000000001,7.800000000000001,6.300000000000001,9.700000000000001,11.000000000000002,19.500000000000004
1698745700.79,16,-0.5,0.0,1.2000000000000002,-0.4,8.4,5.9,-3.8,16.3,17.200000000000003
1698745700.806,16,-0.5,0.1,1.1,-0.30000000000000004,8.3,5.9,-8.700000000000001,15.2,13.6
1698745700.823,16,-0.4,-0.2,1.0,-0.2,8.1,5.7,-12.6,13.5,9.0
1698745700.84,16,-0.1,-0.6000000000000001,0.6000000000000001,0.1,7.800000000000001,5.300000000000001,-13.8,13.4,5.9
1698745700.856,16,0.2,-0.6000000000000001,0.5,0.30000000000000004,7.800000000000001,5.300000000000001,-10.5,13.700000000000001,2.8
1698745700.873,16,0.4,-0.5,0.4,0.5,7.9,5.1000000000000005,-9.1,13.700000000000001,1.2000000000000002
1698745700.89,16,0.1,-0.7000000000000001,0.0,0.2,7.6000000000000005,4.800000000000001,-8.9,13.6,-0.30000000000000004
1698745700.906,16,-0.6000000000000001,-1.2000000000000002,-0.4,-0.6000000000000001,7.1000000000000005,4.4,-10.8,16.8,-2.4000000000000004
1698745700.923,16,-0.8,-1.3,-0.6000000000000001,-0.8,7.0,4.3,-11.1,16.900000000000002,-4.800000000000001
1698745700.94,16,-0.9,-1.3,-0.9,-0.9,6.9,3.9000000000000004,-9.9,17.8,-9.4
1698745700.957,16,-0.7000000000000001,-1.1,-1.0,-0.8,7.1000000000000005,3.9000000000000004,-4.7,18.6,-12.000000000000002
1698745700.974,16,-0.6000000000000001,-0.9,-1.0,-0.7000000000000001,7.300000000000001,3.9000000000000004,-0.9,18.2,-12.6
1698745700.99,16,-0.8,-0.7000000000000001,-1.0,-1.0,7.5,3.9000000000000004,4.0,14.200000000000001,-10.700000000000001
1698745701.006,16,-0.9,-0.7000000000000001,-0.9,-1.1,7.5,3.9000000000000004,3.0000000000000004,8.9,-7.699999999999999
1698745701.023,16,-1.0,-0.6000000000000001,-0.9,-1.3,7.6000000000000005,3.9000000000000004,0.4,5.6,-7.300000000000001
1698745701.04,16,-1.2000000000000002,-0.30000000000000004,-0.9,-1.5,7.9,4.0,-8.1,-2.0,-7.1000000000000005
1698745701.056,16,-1.3,-0.1,-1.2000000000000002,-1.7000000000000002,8.1,3.6,-15.000000000000002,-11.5,-9.600000000000001
1698745701.073,16,-1.5,-0.1,-1.4000000000000001,-1.8,8.1,3.5,-18.1,-16.5,-10.4
1698745701.09,16,-1.6,0.0,-1.5,-1.9000000000000001,8.1,3.4000000000000004,-20.7,-26.3,-12.6
1698745701.106,16,-1.3,0.0,-1.5,-1.6,8.1,3.5,-16.8,-29.900000000000006,-18.3
1698745701.123,16,-0.7000000000000001,0.1,-1.4000000000000001,-1.0,8.200000000000001,3.6,-13.6,-28.700000000000003,-21.0
1698745701.14,16,0.6000000000000001,0.4,-1.0,0.2,8.4,4.0,-1.9,-22.4,-21.6
1698745701.156,16,0.6000000000000001,0.7000000000000001,-0.6000000000000001,0.2,8.700000000000001,4.4,4.9,-17.9,-13.0
1698745701.173,16,0.6000000000000001,0.6000000000000001,-0.4,0.2,8.700000000000001,4.6000000000000005,7.2,-11.2,-9.600000000000001
1698745701.19,16,0.8,0.4,-0.5,0.4,8.5,4.4,10.1,7.6,-4.800000000000001
1698745701.206,16,1.6,1.8,-0.8,1.2000000000000002,9.9,4.1000000000000005,12.700000000000001,18.3,-4.6000000000000005
1698745701.224,16,1.7000000000000002,3.1,-1.2000000000000002,1.3,11.200000000000001,3.7,16.2,21.5,-10.3
1698745701.24,16,0.7000000000000001,3.9000000000000004,-0.30000000000000004,0.2,12.100000000000001,4.5,20.5,34.6,-15.9
1698745701.256,16,-0.6000000000000001,1.7000000000000002,0.6000000000000001,-1.3,10.0,5.300000000000001,31.0,49.6,-12.9
1698745701.273,16,-1.1,1.3,0.8,-1.8,9.600000000000001,5.5,33.1,45.2,-11.2
1698745701.29,16,-2.3000000000000003,0.8,2.0,-3.1,9.200000000000001,6.6000000000000005,32.800000000000004,33.5,-11.2
1698745701.306,16,0.5,0.2,3.2,-0.4,8.6,7.7,39.300000000000004,34.1,-21.1
1698745701.324,16,2.1,-0.30000000000000004,3.3000000000000003,1.2000000000000002,8.1,7.7,43.400000000000006,31.099999999999998,-30.4
1698745701.34,16,1.3,-1.4000000000000001,3.2,0.2,7.1000000000000005,7.5,36.6,30.5,-34.300000000000004
1698745701.359,16,-0.1,-0.30000000000000004,2.7,-1.2000000000000002,8.200000000000001,7.1000000000000005,6.5,24.3,-8.799999999999999
1698745701.373,16,-1.4000000000000001,1.6,3.1,-2.6,10.0,7.5,-32.1,11.6,-2.0
1698745701.39,16,-1.4000000000000001,1.6,3.1,-2.7,10.5,7.0,-32.1,11.6,-2.0
1698745701.406,16,-0.5,1.2000000000000002,1.6,-1.8,9.600000000000001,6.300000000000001,-41.800000000000004,7.1000000000000005,-2.4000000000000004
1698745701.423,16,0.2,-0.4,0.9,-1.1,7.9,5.7,-28.1,-4.3999999999999995,1.6
1698745701.439,16,0.1,-0.6000000000000001,0.5,-1.1,7.7,5.300000000000001,-20.3,-6.4,2.9
1698745701.456,16,-0.1,-1.1,-0.30000000000000004,-1.4000000000000001,7.2,4.5,-13.6,-10.600000000000001,3.8
1698745701.473,16,0.1,-1.4000000000000001,-0.7000000000000001,-0.9,6.300000000000001,3.9000000000000004,-13.9,-11.000000000000002,2.6
1698745701.49,16,0.4,-2.2,-1.1,-0.8,6.1000000000000005,3.8000000000000003,-14.3,-10.600000000000001,3.2
1698745701.507,16,1.1,-2.3000000000000003,-1.2000000000000002,-0.1,5.9,3.7,-8.5,-7.400000000000001,12.6
1698745701.523,16,1.4000000000000001,-2.3000000000000003,-1.2000000000000002,0.30000000000000004,5.9,3.7,-3.7000000000000006,-7.500000000000001,17.599999999999998
1698745701.54,16,1.9000000000000001,-2.3000000000000003,-1.2000000000000002,0.9,5.9,3.6,6.3,-8.5,24.1
1698745701.557,16,2.0,-1.9000000000000001,-1.3,1.1,6.300000000000001,3.5,11.5,-6.9,25.700000000000003
1698745701.573,16,1.5,-1.1,-1.4000000000000001,0.7000000000000001,7.1000000000000005,3.4000000000000004,8.5,-0.6000000000000001,24.6
1698745701.59,16,1.1,-0.8,-1.4000000000000001,0.30000000000000004,7.4,3.4000000000000004,4.9,4.5,23.5
1698745701.607,16,0.4,-0.5,-1.4000000000000001,-0.30000000000000004,7.7,3.4000000000000004,-2.5,11.6,18.2
1698745701.624,16,0.1,-0.6000000000000001,-1.5,-0.6000000000000001,7.6000000000000005,3.3000000000000003,-5.8,14.700000000000001,14.800000000000002
1698745701.64,16,0.30000000000000004,-1.2000000000000002,-1.8,-0.4,7.0,3.0,-9.700000000000001,21.5,8.4
1698745701.657,16,0.9,-1.0,-1.5,0.2,7.1000000000000005,3.3000000000000003,-6.1000000000000005,32.300000000000004,6.9
1698745701.673,16,1.2000000000000002,-0.6000000000000001,-1.3,0.5,7.5,3.4000000000000004,0.8,33.7,9.4
1698745701.69,16,1.0,0.8,-1.3,0.30000000000000004,8.9,3.4000000000000004,18.0,26.8,17.0
1698745701.707,16,0.2,1.3,-1.2000000000000002,-0.6000000000000001,9.600000000000001,3.5,26.200000000000003,18.1,19.9
1698745701.723,16,0.1,1.1,-0.9,-0.8,8.8,3.7,28.700000000000003,7.400000000000001,15.8
1698745701.74,16,-0.6000000000000001,0.4,-1.3,-1.2000000000000002,8.700000000000001,3.2,29.200000000000003,-14.3,7.0
1698745701.756,16,-1.6,2.1,-2.8000000000000003,-2.2,10.5,1.7000000000000002,8.600000000000001,-2.7,10.1
1698745701.773,16,-1.3,3.9000000000000004,-0.1,-1.9000000000000001,12.3,4.3,5.300000000000001,3.0000000000000004,10.600000000000001
1698745701.79,16,-1.5,4.1000000000000005,1.4000000000000001,-2.1,12.600000000000001,5.800000000000001,23.6,-5.8,17.5
1698745701.807,16,-1.5,3.5,4.0,-2.0,12.100000000000001,8.3,67.2,-35.3,37.4
1698745701.823,16,-1.0,1.5,6.1000000000000005,-1.3,10.200000000000001,10.100000000000001,75.5,-41.5,33.6
1698745701.84,16,-1.0,0.8,6.2,-1.3,9.600000000000001,10.200000000000001,62.7,-45.0,32.4
1698745701.857,16,0.1,-1.2000000000000002,3.5,0.0,7.6000000000000005,7.5,0.6000000000000001,-31.099999999999998,30.7
1698745701.873,16,1.7000000000000002,-0.6000000000000001,3.8000000000000003,1.7000000000000002,8.1,7.9,-43.0,-25.1,21.8
1698745701.89,16,1.9000000000000001,0.9,4.0,2.0,9.600000000000001,8.200000000000001,-35.7,-24.400000000000002,21.6
1698745701.907,16,1.5,1.5,3.0,1.8,10.200000000000001,7.2,-15.299999999999999,-18.8,25.5
1698745701.923,16,1.0,0.0,2.5,1.3,8.6,6.800000000000001,-5.2,-9.700000000000001,12.100000000000001
1698745701.94,16,0.7000000000000001,-0.6000000000000001,2.3000000000000003,1.1,8.0,6.6000000000000005,-7.500000000000001,-1.9,6.7
1698745701.956,16,0.1,-0.9,1.2000000000000002,0.4,7.7,5.6000000000000005,-18.7,11.700000000000001,1.5000000000000002
1698745701.973,16,-0.7000000000000001,-0.9,0.0,-0.5,7.6000000000000005,4.4,-29.000000000000004,18.1,3.5
1698745701.99,16,-1.0,-1.3,-0.4,-0.7000000000000001,7.300000000000001,4.1000000000000005,-30.200000000000003,15.299999999999999,5.0
1698745702.006,16,-1.4000000000000001,-2.0,-0.8,-1.2000000000000002,6.5,3.8000000000000003,-24.400000000000002,13.8,4.800000000000001
1698745702.023,16,-1.3,-2.0,-1.1,-1.1,6.4,3.5,-13.700000000000001,10.9,-6.000000000000001
1698745702.041,16,-1.1,-2.0,-1.0,-0.9,6.4,3.6,-3.3000000000000003,4.3999999999999995,-16.2
1698745702.056,16,-1.1,-1.8,-1.0,-1.0,6.6000000000000005,3.7,0.2,1.2000000000000002,-20.2
1698745702.073,16,-1.2000000000000002,-1.6,-1.0,-1.2000000000000002,6.800000000000001,3.6,0.7,-3.3000000000000003,-25.6
1698745702.089,16,-1.4000000000000001,-1.4000000000000001,-0.9,-1.5,7.1000000000000005,3.6,-2.6,-5.9,-27.3
1698745702.106,16,-1.4000000000000001,-1.3,-1.2000000000000002,-1.5,7.1000000000000005,3.4000000000000004,-12.3,-9.600000000000001,-28.1
1698745702.123,16,-1.3,-1.5,-1.5,-1.4000000000000001,6.800000000000001,3.2,-23.2,-18.3,-24.7
1698745702.14,16,-1.3,-1.6,-1.6,-1.5,6.7,3.1,-26.700000000000003,-24.3,-21.700000000000003
1698745702.157,16,-1.5,-1.3,-1.6,-1.6,6.9,3.2,-28.0,-35.9,-16.8
1698745702.173,16,-1.4000000000000001,-0.8,-1.7000000000000002,-1.6,7.4,3.1,-20.0,-45.6,-15.8
1698745702.19,16,-1.2000000000000002,-0.30000000000000004,-1.8,-1.4000000000000001,7.800000000000001,3.0,-14.500000000000002,-47.0,-16.6
1698745702.206,16,0.0,0.7000000000000001,-1.8,-0.1,8.9,3.0,-0.4,-42.5,-24.5
1698745702.223,16,1.5,0.6000000000000001,-1.1,1.3,8.8,3.7,18.5,-24.7,-30.200000000000003
1698745702.24,16,1.6,0.2,-0.9,1.4000000000000001,8.4,3.9000000000000004,28.8,-14.4,-27.8
1698745702.257,16,2.1,0.30000000000000004,-1.4000000000000001,1.9000000000000001,8.6,3.2,39.1,8.0,-7.699999999999999
1698745702.273,16,1.3,1.8,-3.0,1.1,10.100000000000001,1.6,27.3,4.2,-5.300000000000001
1698745702.289,16,0.4,3.0,-2.1,-0.4,12.9,4.5,17.3,-4.7,-8.1
1698745702.308,16,-0.8,5.300000000000001,1.2000000000000002,-1.0,13.8,5.6000000000000005,26.3,-6.6000000000000005,-20.900000000000002
1698745702.323,16,-2.2,2.4000000000000004,2.6,-2.6,10.9,7.0,50.0,1.9,-32.9
1698745702.339,16,0.1,1.3,4.1000000000000005,-0.4,9.9,8.3,56.2,-3.1,-39.8
1698745702.356,16,1.9000000000000001,0.30000000000000004,4.4,1.4000000000000001,9.0,8.6,54.4,-4.5,-47.1
1698745702.373,16,3.3000000000000003,-1.3,4.800000000000001,2.6,7.4,8.9,37.800000000000004,20.1,-56.0
1698745702.389,16,2.4000000000000004,-1.5,3.5,1.5,7.2,7.5,5.2,30.000000000000004,-45.1
1698745702.407,16,1.8,-0.6000000000000001,2.9000000000000004,0.9,8.1,7.0,-13.0,30.200000000000003,-27.5
1698745702.423,16,-0.4,1.3,2.3000000000000003,-1.4000000000000001,9.9,6.5,-40.6,20.8,-2.6
1698745702.439,16,-2.2,3.0,2.1,-3.2,11.600000000000001,6.4,-37.300000000000004,15.7,8.600000000000001
1698745702.456,16,-1.6,2.2,1.4000000000000001,-2.6,10.8,5.7,-27.0,11.2,10.3
1698745702.473,16,-0.8,1.0,1.0,-1.0,8.6,5.300000000000001,-16.700000000000003,5.8,10.0
1698745702.489,16,0.30000000000000004,-0.7000000000000001,0.30000000000000004,-0.6000000000000001,7.9,4.7,2.5,-1.0,4.0
1698745702.506,16,0.5,-1.0,0.0,-0.5,7.5,4.4,2.9,1.0999999999999999,4.7
1698745702.523,16,1.0,-2.0,-0.30000000000000004,0.0,6.6000000000000005,4.0,-0.30000000000000004,3.5,6.9
1698745702.54,16,1.2000000000000002,-2.7,-0.7000000000000001,0.30000000000000004,5.800000000000001,3.6,-3.3000000000000003,8.0,12.6
1698745702.556,16,1.4000000000000001,-2.9000000000000004,-0.9,0.5,5.6000000000000005,3.5,-3.6,9.700000000000001,15.9
1698745702.573,16,1.6,-3.0,-1.3,0.8,5.5,3.1,-0.6000000000000001,10.0,25.400000000000002
1698745702.589,16,1.3,-2.4000000000000004,-1.4000000000000001,0.6000000000000001,6.1000000000000005,3.0,3.6,7.0,36.7
1698745702.607,16,1.0,-2.0,-1.4000000000000001,0.30000000000000004,6.5,2.9000000000000004,5.4,6.4,41.9
1698745702.623,16,0.7000000000000001,-1.3,-1.7000000000000002,0.2,7.2,2.7,5.0,13.0,46.6
1698745702.64,16,0.30000000000000004,-1.0,-1.7000000000000002,-0.2,7.5,2.6,-2.8,18.6,37.800000000000004
1698745702.657,16,0.0,-1.1,-1.7000000000000002,-0.4,7.4,2.6,-8.0,22.4,32.4
1698745702.673,16,0.0,-1.2000000000000002,-2.2,-0.4,7.300000000000001,2.1,-17.9,26.3,24.3
1698745702.69,16,0.4,-1.4000000000000001,-2.2,0.1,7.0,2.1,-25.0,30.100000000000005,15.8
1698745702.707,16,0.6000000000000001,-1.3,-2.2,0.2,7.1000000000000005,2.2,-24.000000000000004,34.50000000000001,13.0
1698745702.723,16,0.6000000000000001,-0.2,-2.1,0.30000000000000004,8.1,2.3000000000000003,-12.100000000000001,39.300000000000004,14.4
1698745702.739,16,-0.1,0.8,-2.5,-0.5,9.200000000000001,1.9000000000000001,3.5,34.800000000000004,20.1
1698745702.756,16,-0.6000000000000001,1.0,-2.2,-1.0,9.4,2.2,9.4,29.900000000000006,21.3
1698745702.773,16,-1.2000000000000002,0.7000000000000001,-1.7000000000000002,-1.5,9.1,2.6,24.1,1.4,13.9
1698745702.79,16,-1.5,0.6000000000000001,-2.3000000000000003,-1.9000000000000001,9.1,1.9000000000000001,25.0,-20.4,-0.8
1698745702.807,16,-1.7000000000000002,1.3,-2.6,-2.0,9.700000000000001,1.5,15.9,-10.8,-3.6
1698745702.823,16,-0.5,3.5,-0.30000000000000004,-0.8,12.100000000000001,3.8000000000000003,6.5,8.200000000000001,-6.3
1698745702.84,16,-0.9,5.1000000000000005,4.5,-1.2000000000000002,13.700000000000001,8.6,41.9,-0.8,14.200000000000001
1698745702.857,16,-1.0,5.1000000000000005,6.0,-1.3,13.8,10.0,72.0,-19.6,29.700000000000003
1698745702.873,16,-1.1,1.3,7.1000000000000005,-1.3,10.100000000000001,10.9,76.80000000000001,-31.900000000000002,34.400000000000006
1698745702.89,16,0.1,-0.4,4.800000000000001,0.1,8.5,8.5,2.1,-26.3,29.400000000000002
1698745702.906,16,1.6,-0.4,3.5,1.6,8.4,7.300000000000001,-43.0,-15.399999999999999,23.0
1698745702.923,16,2.3000000000000003,1.5,4.7,2.4000000000000004,10.200000000000001,8.8,-63.6,-15.2,6.9
1698745702.94,16,2.1,3.6,3.6,2.3000000000000003,12.3,7.800000000000001,-37.0,0.5,11.2
1698745702.956,16,0.9,2.6,2.8000000000000003,1.1,11.3,7.2,-8.200000000000001,-0.30000000000000004,4.800000000000001
1698745702.973,16,0.5,1.0,2.8000000000000003,0.7000000000000001,9.700000000000001,7.1000000000000005,-7.500000000000001,5.4,-0.2
1698745702.989,16,-0.1,-0.5,1.9000000000000001,0.0,8.1,6.300000000000001,-21.400000000000002,16.700000000000003,-5.500000000000001
1698745703.006,16,-0.6000000000000001,-0.5,1.1,-0.4,8.1,5.5,-32.1,20.1,-3.8
1698745703.025,16,-1.0,-1.0,-0.1,-0.9,7.6000000000000005,4.5,-44.2,15.000000000000002,3.1
1698745703.04,16,-1.4000000000000001,-1.7000000000000002,-0.9,-1.3,6.800000000000001,3.8000000000000003,-39.6,6.1000000000000005,1.0999999999999999
1698745703.057,16,-1.5,-1.9000000000000001,-1.4000000000000001,-1.5,6.5,3.4000000000000004,-26.400000000000002,-2.1999999999999997,-11.2
1698745703.074,16,-1.5,-2.1,-1.5,-1.5,6.300000000000001,3.3000000000000003,-19.1,-7.500000000000001,-19.0
1698745703.09,16,-1.8,-2.4000000000000004,-1.5,-1.9000000000000001,6.0,3.3000000000000003,-8.0,-16.5,-31.6
1698745703.107,16,-1.9000000000000001,-2.6,-1.8,-2.1,5.7,3.0,-7.6,-21.8,-39.50000000000001
1698745703.124,16,-1.7000000000000002,-2.5,-1.8,-1.9000000000000001,5.800000000000001,3.0,-10.9,-23.5,-42.400000000000006
1698745703.152,16,-0.30000000000000004,-2.6,-2.2,-0.7000000000000001,5.6000000000000005,2.7,-21.6,-31.5,-46.2
1698745703.156,16,-0.1,-2.7,-2.4000000000000004,-0.5,5.5,2.5,-23.6,-35.5,-43.1
1698745703.173,16,0.0,-2.8000000000000003,-2.7,-0.4,5.4,2.3000000000000003,-24.9,-40.4,-37.1
1698745703.189,16,-0.2,-2.4000000000000004,-2.5,-0.6000000000000001,5.7,2.5,-23.900000000000002,-48.800000000000004,-24.6
1698745703.207,16,-0.8,-1.6,-2.1,-1.1,6.4,3.0,-17.5,-55.4,-17.9
1698745703.223,16,-0.9,-0.9,-2.0,-1.2000000000000002,7.1000000000000005,3.0,-13.6,-53.9,-16.8
1698745703.24,16,0.2,0.7000000000000001,-2.1,-0.1,8.700000000000001,3.0,-7.8,-40.9,-19.500000000000004
1698745703.256,16,1.5,1.1,-2.0,1.2000000000000002,9.1,3.1,-0.7,-25.5,-23.900000000000002
1698745703.274,16,1.9000000000000001,0.9,-1.9000000000000001,1.6,8.9,3.2,4.1000000000000005,-14.3,-22.6
1698745703.29,16,1.8,0.30000000000000004,-1.8,1.5,8.4,3.2,17.3,10.4,-11.2
1698745703.306,16,0.8,0.7000000000000001,-2.8000000000000003,0.4,8.8,2.2,29.200000000000003,18.8,1.0999999999999999
1698745703.323,16,-0.1,1.9000000000000001,-2.9000000000000004,-0.5,10.0,1.9000000000000001,30.200000000000003,11.6,1.3
1698745703.34,16,-0.9,5.1000000000000005,0.5,-1.3,13.3,5.2,44.00000000000001,-3.0000000000000004,-12.6
1698745703.356,16,-0.1,4.0,4.2,-0.6000000000000001,12.3,8.8,80.0,21.1,-39.1
1698745703.373,16,0.8,3.2,4.7,0.2,11.700000000000001,9.1,91.7,35.4,-46.1
1698745703.39,16,1.8,2.0,6.2,1.0,10.600000000000001,10.4,77.2,28.500000000000004,-46.7
1698745703.407,16,2.3000000000000003,-0.2,5.9,1.3,8.4,10.0,28.8,47.300000000000004,-46.2
1698745703.423,16,0.9,-0.7000000000000001,4.800000000000001,-0.1,7.9,8.9,0.6000000000000001,48.7,-44.2
1698745703.44,16,0.5,0.7000000000000001,3.1,-0.7000000000000001,9.3,7.4,-37.7,43.300000000000004,-17.400000000000002
1698745703.456,16,-0.7000000000000001,2.6,3.0,-2.0,11.100000000000001,7.4,-41.1,30.799999999999997,-4.3999999999999995
1698745703.473,16,-1.1,3.1,2.9000000000000004,-2.4000000000000004,11.600000000000001,7.4,-30.200000000000003,26.6,-1.3
1698745703.49,16,-0.6000000000000001,1.4000000000000001,1.8,-2.0,9.9,6.300000000000001,-8.799999999999999,15.6,-0.9
1698745703.506,16,-0.5,-0.1,1.4000000000000001,-1.8,8.4,5.9,-2.1,3.7000000000000006,-2.4000000000000004
1698745703.524,16,-0.4,0.0,0.8,-1.8,8.5,5.300000000000001,-3.5,1.7,1.2000000000000002
1698745703.54,16,0.2,-0.9,0.0,-1.1,7.6000000000000005,4.5,-11.9,-1.0,4.7
1698745703.556,16,0.6000000000000001,-2.0,-0.7000000000000001,-0.7000000000000001,6.5,3.9000000000000004,-14.200000000000001,1.2000000000000002,3.1
1698745703.573,16,1.1,-2.7,-1.0,0.0,5.300000000000001,3.5,-12.200000000000001,0.9,2.3000000000000003
1698745703.59,16,1.6,-3.4000000000000004,-1.3,0.30000000000000004,5.0,3.3000000000000003,-2.8,2.0,9.4
1698745703.607,16,1.8,-3.3000000000000003,-1.4000000000000001,0.6000000000000001,5.1000000000000005,3.1,7.2,-0.6000000000000001,26.500000000000004
1698745703.624,16,1.7000000000000002,-2.9000000000000004,-1.6,0.5,5.5,3.0,10.8,-1.6,36.0
1698745703.64,16,1.2000000000000002,-1.8,-1.7000000000000002,0.2,6.6000000000000005,2.8000000000000003,12.200000000000001,2.3000000000000003,46.900000000000006
1698745703.656,16,0.9,-1.6,-1.8,0.0,6.800000000000001,2.7,7.1000000000000005,3.7000000000000006,41.5
1698745703.673,16,0.7000000000000001,-1.6,-1.6,-0.1,6.800000000000001,2.9000000000000004,2.9,7.2,35.7
1698745703.69,16,0.5,-1.5,-1.6,-0.30000000000000004,6.9,2.8000000000000003,-4.5,13.4,24.9
1698745703.706,16,0.4,-1.3,-1.9000000000000001,-0.30000000000000004,7.1000000000000005,2.6,-12.200000000000001,18.0,19.9
1698745703.723,16,0.5,-1.4000000000000001,-2.0,-0.30000000000000004,7.0,2.4000000000000004,-15.7,20.7,18.0
1698745703.74,16,0.9,-1.2000000000000002,-2.2,0.2,7.1000000000000005,2.3000000000000003,-18.3,31.8,13.9
1698745703.756,16,1.2000000000000002,-0.2,-2.3000000000000003,0.5,8.1,2.2,-11.8,40.8,12.8
1698745703.773,16,0.8,0.9,-2.3000000000000003,0.0,9.200000000000001,2.2,-6.2,38.800000000000004,15.299999999999999
1698745703.79,16,0.2,1.0,-2.1,-0.5,9.3,2.4000000000000004,6.6000000000000005,23.0,24.3
1698745703.807,16,-0.8,0.2,-1.2000000000000002,-1.4000000000000001,8.6,3.2,23.2,-5.7,22.5
1698745703.823,16,-0.8,-0.2,-1.3,-1.4000000000000001,8.200000000000001,3.0,30.7,-23.5,15.6
1698745703.84,16,-2.4000000000000004,1.1,-2.8000000000000003,-2.9000000000000004,9.600000000000001,1.5,24.3,-21.700000000000003,10.9
1698745703.856,16,-0.5,2.6,-2.6,-1.0,11.100000000000001,1.6,2.0,-1.0,2.0
1698745703.873,16,0.2,4.6000000000000005,2.6,-0.4,13.200000000000001,6.800000000000001,33.1,-4.0,3.7000000000000006
1698745703.89,16,-0.5,5.1000000000000005,4.3,-1.0,13.700000000000001,8.4,69.4,-23.700000000000003,26.3
1698745703.906,16,-1.3,1.4000000000000001,6.6000000000000005,-1.6,10.200000000000001,10.4,108.8,-46.5,42.1
1698745703.923,16,-0.8,0.2,6.300000000000001,-0.9,9.1,9.9,64.7,-32.6,24.1
1698745703.94,16,0.0,-0.1,5.1000000000000005,-0.1,8.8,8.700000000000001,12.9,-19.3,22.7
1698745703.956,16,1.5,1.3,4.9,1.5,10.200000000000001,8.700000000000001,-65.8,-10.3,17.5
1698745703.973,16,0.9,3.6,3.2,1.0,12.4,7.300000000000001,-61.50000000000001,-9.700000000000001,21.8
1698745703.99,16,0.8,3.7,3.2,0.9,12.4,7.4,-49.5,-7.1000000000000005,23.5
1698745704.006,16,0.5,1.7000000000000002,2.6,0.6000000000000001,10.4,6.9,-14.4,-2.4000000000000004,4.0
1698745704.023,16,0.30000000000000004,0.4,2.1,0.4,9.1,6.4,-3.4,7.0,-6.000000000000001
1698745704.04,16,0.0,-0.30000000000000004,1.5,0.1,8.4,5.800000000000001,-9.200000000000001,11.1,-7.400000000000001
1698745704.056,16,-1.2000000000000002,-1.1,0.5,-1.2000000000000002,7.6000000000000005,4.9,-31.2,15.9,-5.7
1698745704.073,16,-1.2000000000000002,-1.1,-0.8,-1.2000000000000002,7.5,3.7,-46.300000000000004,13.6,-2.0
1698745704.09,16,-1.4000000000000001,-1.7000000000000002,-1.0,-1.5,6.4,3.3000000000000003,-47.900000000000006,9.4,-1.3
1698745704.106,16,-1.3,-2.3000000000000003,-1.5,-1.4000000000000001,6.1000000000000005,3.2,-39.8,10.600000000000001,-9.3
1698745704.123,16,-1.2000000000000002,-2.6,-1.8,-1.3,5.800000000000001,2.9000000000000004,-21.6,5.8,-23.1
1698745704.139,16,-1.2000000000000002,-2.7,-2.0,-1.5,5.6000000000000005,2.8000000000000003,-12.8,2.1,-27.5
1698745704.156,16,-1.3,-2.7,-1.8,-1.6,5.6000000000000005,2.9000000000000004,-0.8,-7.400000000000001,-30.100000000000005
1698745704.173,16,-1.4000000000000001,-2.6,-1.8,-1.8,5.7,2.9000000000000004,2.4000000000000004,-15.6,-27.8
1698745704.189,16,-1.4000000000000001,-2.4000000000000004,-1.9000000000000001,-1.7000000000000002,5.9,2.8000000000000003,-0.2,-20.1,-26.400000000000002
1698745704.206,16,-0.9,-2.2,-2.1,-1.3,6.1000000000000005,2.7,-10.3,-30.4,-24.3
1698745704.223,16,-0.6000000000000001,-1.9000000000000001,-2.3000000000000003,-1.0,6.300000000000001,2.5,-20.2,-42.0,-19.3
1698745704.24,16,-0.5,-1.6,-2.2,-0.9,6.6000000000000005,2.6,-22.5,-46.7,-16.8
1698745704.256,16,-0.4,-0.8,-1.9000000000000001,-0.7000000000000001,7.300000000000001,3.0,-19.500000000000004,-50.7,-11.6
1698745704.273,16,-0.1,0.1,-2.0,-0.4,8.3,2.8000000000000003,-7.9,-48.7,-9.1
1698745704.29,16,0.2,1.1,-1.9000000000000001,0.0,9.3,3.0,2.7,-40.2,-12.6
1698745704.306,16,0.4,1.3,-1.8,0.2,9.5,3.1,8.5,-34.6,-15.5
1698745704.323,16,1.0,1.0,-1.8,0.8,9.200000000000001,3.0,18.3,-19.0,-17.200000000000003
1698745704.34,16,1.3,0.7000000000000001,-2.3000000000000003,1.0,9.0,2.4000000000000004,24.8,-8.600000000000001,-10.9
1698745704.356,16,0.9,1.2000000000000002,-2.8000000000000003,0.7000000000000001,9.5,1.9000000000000001,26.3,-5.8,-8.5
1698745704.373,16,-0.4,2.9000000000000004,-2.1,-0.7000000000000001,11.200000000000001,2.4000000000000004,25.3,-14.700000000000001,-11.3
1698745704.39,16,0.4,4.9,2.5,0.1,13.3,6.9,32.9,-8.600000000000001,-17.200000000000003
1698745704.406,16,0.7000000000000001,3.3000000000000003,3.1,0.30000000000000004,11.8,7.4,76.5,27.900000000000002,-42.400000000000006
1698745704.423,16,2.3000000000000003,1.8,4.1000000000000005,1.7000000000000002,10.5,8.3,88.10000000000001,39.50000000000001,-37.5
1698745704.44,16,3.0,1.0,4.800000000000001,2.4000000000000004,9.700000000000001,8.8,80.2,33.0,-33.2
1698745704.457,16,2.5,-1.5,4.6000000000000005,1.7000000000000002,7.300000000000001,8.5,37.900000000000006,39.8,-35.6
1698745704.473,16,0.6000000000000001,-0.1,4.6000000000000005,-0.4,8.6,8.5,-13.9,47.1,-28.1
1698745704.492,16,-0.6000000000000001,0.9,2.4000000000000004,-1.6,9.600000000000001,6.4,-41.0,49.9,-14.3
1698745704.507,16,-1.3,2.1,2.6,-2.4000000000000004,10.8,6.7,-48.2,38.5,-7.2
1698745704.523,16,-2.1,3.9000000000000004,2.2,-3.3000000000000003,12.5,6.4,-33.900000000000006,25.2,5.300000000000001
1698745704.539,16,-0.2,1.6,1.5,-1.4000000000000001,10.200000000000001,5.800000000000001,-22.4,19.400000000000002,7.0
1698745704.556,16,0.30000000000000004,0.6000000000000001,1.5,-0.9,9.200000000000001,5.800000000000001,-5.6,9.5,2.1
1698745704.573,16,0.5,0.30000000000000004,0.7000000000000001,-0.6000000000000001,8.9,5.0,-0.6000000000000001,3.9,7.500000000000001
1698745704.59,16,0.7000000000000001,-0.6000000000000001,-0.1,-0.4,8.6,4.5,-4.2,4.6000000000000005,12.3
1698745704.607,16,0.7000000000000001,-1.4000000000000001,-0.2,-0.4,7.2,4.1000000000000005,-13.100000000000001,6.2,18.3
1698745704.623,16,0.7000000000000001,-2.7,-0.5,-0.30000000000000004,5.800000000000001,3.8000000000000003,-13.4,6.8,26.0
1698745704.639,16,0.9,-3.1,-1.0,0.0,5.4,3.4000000000000004,-6.7,9.600000000000001,32.6
1698745704.656,16,0.9,-3.0,-1.2000000000000002,0.0,5.6000000000000005,3.2,-2.0,10.2,36.9
1698745704.673,16,1.0,-2.5,-1.6,0.30000000000000004,6.0,2.8000000000000003,6.5,8.3,48.2
1698745704.69,16,1.4000000000000001,-2.2,-1.9000000000000001,0.8,6.4,2.5,10.1,6.3,53.50000000000001
1698745704.707,16,1.5,-2.1,-1.9000000000000001,0.9,6.5,2.4000000000000004,9.0,5.0,50.7
1698745704.723,16,0.4,-1.8,-1.8,0.0,6.7,2.5,3.1,10.4,39.9
1698745704.74,16,-0.2,-1.5,-2.1,-0.5,7.0,2.1,-6.7,21.900000000000002,29.700000000000003
1698745704.757,16,-0.30000000000000004,-1.4000000000000001,-2.3000000000000003,-0.6000000000000001,7.1000000000000005,2.0,-12.000000000000002,24.000000000000004,22.1
1698745704.773,16,0.2,-1.6,-2.2,-0.2,6.9,2.1,-19.500000000000004,27.1,7.300000000000001
1698745704.79,16,0.7000000000000001,-1.5,-2.0,0.30000000000000004,7.0,2.3000000000000003,-16.400000000000002,34.2,-0.7
1698745704.806,16,0.7000000000000001,-1.3,-2.1,0.4,7.2,2.3000000000000003,-11.9,36.800000000000004,-0.6000000000000001
1698745704.823,16,0.5,-0.6000000000000001,-2.2,0.1,7.9,2.1,-3.0000000000000004,39.699999999999996,5.8
1698745704.84,16,0.4,0.2,-1.8,0.0,8.6,2.5,5.500000000000001,31.099999999999998,8.9
1698745704.856,16,0.2,0.30000000000000004,-1.4000000000000001,-0.30000000000000004,8.8,2.9000000000000004,12.5,16.900000000000002,7.6
1698745704.873,16,-0.6000000000000001,0.30000000000000004,-1.8,-1.0,8.700000000000001,2.4000000000000004,22.8,-9.9,5.6
1698745704.889,16,-2.0,1.7000000000000002,-3.5,-2.4000000000000004,10.200000000000001,0.7000000000000001,10.9,-11.700000000000001,10.3
1698745704.906,16,-1.8,2.1,-3.9000000000000004,-2.2,10.600000000000001,0.2,-3.7000000000000006,-2.0,8.799999999999999
1698745704.923,16,0.1,3.1,-0.30000000000000004,-0.4,11.700000000000001,3.8000000000000003,-10.0,-2.4000000000000004,-5.1
1698745704.939,16,-1.6,5.5,4.1000000000000005,-1.9000000000000001,14.100000000000001,8.1,54.4,-21.3,21.6
1698745704.956,16,-2.2,5.5,5.4,-2.4000000000000004,14.200000000000001,9.4,92.30000000000001,-46.5,41.1
1698745704.973,16,-2.3000000000000003,1.4000000000000001,7.4,-2.4000000000000004,10.3,11.100000000000001,106.10000000000001,-61.7,31.6
1698745704.989,16,-0.30000000000000004,-0.30000000000000004,5.300000000000001,-0.30000000000000004,8.6,8.9,9.3,-40.4,8.9
1698745705.006,16,1.3,0.2,4.5,1.3,9.1,8.200000000000001,-48.50000000000001,-28.400000000000002,5.1
1698745705.023,16,2.2,2.4000000000000004,5.1000000000000005,2.3000000000000003,11.200000000000001,9.1,-89.6,-27.2,-1.9
1698745705.039,16,1.8,3.9000000000000004,3.1,1.9000000000000001,12.600000000000001,7.4,-63.900000000000006,-14.700000000000001,8.4
1698745705.056,16,1.4000000000000001,3.7,3.4000000000000004,1.6,12.4,7.7,-42.0,-12.5,7.8
1698745705.074,16,0.2,0.9,2.7,0.30000000000000004,9.600000000000001,7.0,-4.800000000000001,-6.4,-6.6000000000000005
1698745705.09,16,0.0,0.0,1.8,0.1,8.700000000000001,6.2,-5.4,2.0,-13.0
1698745705.106,16,-0.6000000000000001,-0.30000000000000004,1.0,-0.5,8.3,5.4,-18.2,5.6,-10.8
1698745705.127,16,-1.3,-1.0,-1.0,-1.2000000000000002,7.6000000000000005,3.6,-47.300000000000004,5.300000000000001,-6.7
1698745705.139,16,-1.5,-1.9000000000000001,-1.2000000000000002,-1.5,6.6000000000000005,3.5,-55.800000000000004,-5.2,-3.0000000000000004
1698745705.156,16,-1.6,-2.7,-1.8,-1.6,5.7,3.1,-43.800000000000004,-9.5,-13.0
1698745705.173,16,-1.6,-2.8000000000000003,-1.9000000000000001,-1.6,5.6000000000000005,3.0,-33.2,-13.200000000000001,-19.9
1698745705.19,16,-1.7000000000000002,-2.7,-2.1,-1.7000000000000002,5.6000000000000005,2.8000000000000003,-11.4,-20.4,-29.800000000000004
1698745705.206,16,-1.5,-2.6,-2.1,-1.6,5.7,2.8000000000000003,1.6,-28.500000000000004,-33.6
1698745705.224,16,-1.3,-2.4000000000000004,-2.0,-1.5,5.800000000000001,2.9000000000000004,3.6,-32.4,-33.900000000000006
1698745705.239,16,-0.6000000000000001,-2.2,-2.1,-0.8,6.0,2.7,-0.5,-35.3,-33.7
1698745705.256,16,0.1,-2.1,-2.3000000000000003,-0.2,6.2,2.6,-6.4,-38.7,-33.1
1698745705.273,16,0.1,-2.1,-2.3000000000000003,-0.1,6.1000000000000005,2.6,-19.1,-45.9,-25.900000000000002
1698745705.289,16,-0.1,-1.8,-2.4000000000000004,-0.30000000000000004,6.300000000000001,2.5,-25.3,-48.2,-16.8
1698745705.306,16,-0.30000000000000004,-1.6,-2.3000000000000003,-0.7000000000000001,6.800000000000001,2.8000000000000003,-21.900000000000002,-50.5,-12.4
1698745705.323,16,-0.4,-0.8,-2.1,-0.6000000000000001,7.300000000000001,2.9000000000000004,-17.5,-48.1,-11.8
1698745705.34,16,0.4,0.2,-1.9000000000000001,0.30000000000000004,8.200000000000001,3.2,-5.300000000000001,-39.00000000000001,-16.6
1698745705.356,16,0.7000000000000001,1.0,-1.7000000000000002,0.6000000000000001,9.0,3.3000000000000003,9.3,-27.0,-18.400000000000002
1698745705.373,16,0.6000000000000001,1.5,-1.4000000000000001,0.5,9.600000000000001,3.6,14.700000000000001,-18.6,-16.1
1698745705.39,16,1.0,1.4000000000000001,-1.6,0.9,9.5,3.4000000000000004,21.0,3.1,-12.000000000000002
1698745705.406,16,1.4000000000000001,1.1,-1.9000000000000001,1.2000000000000002,9.200000000000001,2.9000000000000004,20.900000000000002,9.8,-11.2
1698745705.423,16,0.7000000000000001,2.1,-3.0,0.5,10.3,1.8,15.5,10.5,-10.2
1698745705.439,16,-1.1,4.2,-0.1,-1.4000000000000001,12.5,4.6000000000000005,18.7,-1.5000000000000002,-10.4
1698745705.456,16,-1.2000000000000002,3.5,2.4000000000000004,-1.5,11.9,7.0,55.800000000000004,18.5,-25.1
1698745705.473,16,-0.6000000000000001,2.3000000000000003,3.2,-1.0,10.700000000000001,7.800000000000001,71.9,24.7,-33.400000000000006
1698745705.489,16,2.1,2.2,4.7,1.6,10.700000000000001,9.0,79.7,21.8,-37.6
1698745705.506,16,3.2,-0.2,4.7,2.5,8.4,8.9,53.400000000000006,28.700000000000003,-41.300000000000004
1698745705.523,16,2.8000000000000003,-0.9,4.3,2.0,7.800000000000001,8.4,28.700000000000003,35.5,-45.3
1698745705.54,16,0.7000000000000001,-0.30000000000000004,3.6,-0.2,8.4,7.800000000000001,-18.6,39.00000000000001,-31.4
1698745705.556,16,-0.9,1.5,2.4000000000000004,-1.9000000000000001,10.100000000000001,6.7,-44.3,31.900000000000002,-15.399999999999999
1698745705.573,16,-1.9000000000000001,2.6,3.0,-2.9000000000000004,11.200000000000001,7.4,-45.9,24.3,-10.8
1698745705.589,16,-1.6,2.8000000000000003,2.1,-2.7,11.3,6.6000000000000005,-25.0,18.7,0.0
1698745705.606,16,-0.2,0.9,1.3,-1.4000000000000001,9.5,5.9,-12.200000000000001,8.700000000000001,-0.2
1698745705.623,16,0.0,0.7000000000000001,0.8,-1.1,9.200000000000001,5.4,-12.100000000000001,5.6,-0.7
1698745705.64,16,0.5,-0.4,-0.4,-0.6000000000000001,8.1,4.2,-21.400000000000002,-0.2,2.5
1698745705.656,16,0.6000000000000001,-1.6,-1.2000000000000002,-0.4,6.9,3.5,-27.900000000000002,-0.6000000000000001,6.1000000000000005
1698745705.673,16,0.8,-2.4000000000000004,-1.5,-0.30000000000000004,5.4,3.0,-27.5,-1.9,9.200000000000001
1698745705.69,16,0.6000000000000001,-3.1,-1.8,-0.4,5.2,2.9000000000000004,-20.3,-1.3,18.900000000000002
1698745705.706,16,0.6000000000000001,-3.0,-1.9000000000000001,-0.4,5.300000000000001,2.9000000000000004,-7.1000000000000005,-0.8,28.900000000000002
1698745705.723,16,0.6000000000000001,-2.7,-2.0,-0.30000000000000004,5.5,2.8000000000000003,-1.0,0.6000000000000001,31.900000000000002
1698745705.74,16,1.3,-2.3000000000000003,-2.1,0.5,6.0,2.7,5.6,2.7,32.1
1698745705.756,16,1.8,-1.9000000000000001,-1.9000000000000001,1.1,6.300000000000001,2.8000000000000003,2.6,7.6,28.200000000000003
1698745705.773,16,1.9000000000000001,-1.7000000000000002,-1.9000000000000001,1.3,6.5,2.8000000000000003,-1.0999999999999999,11.3,27.2
1698745705.79,16,1.4000000000000001,-1.4000000000000001,-2.2,0.8,6.9,2.5,-12.700000000000001,20.0,27.3
1698745705.806,16,0.6000000000000001,-1.5,-2.5,0.1,6.800000000000001,2.2,-23.5,30.000000000000004,23.900000000000002
1698745705.823,16,0.30000000000000004,-1.5,-2.5,-0.2,6.7,2.3000000000000003,-25.0,33.800000000000004,21.0
1698745705.84,16,0.2,-1.3,-2.5,-0.4,6.9,2.3000000000000003,-17.599999999999998,37.2,17.0
1698745705.856,16,0.0,-0.6000000000000001,-2.7,-0.6000000000000001,7.6000000000000005,2.1,-2.5,36.9,18.3
1698745705.873,16,-0.1,0.0,-2.6,-0.7000000000000001,8.700000000000001,2.6,6.3,34.1,19.1
1698745705.89,16,0.0,1.0,-1.3,-0.6000000000000001,9.200000000000001,3.4000000000000004,25.1,19.0,15.9
1698745705.906,16,-0.4,0.7000000000000001,-1.1,-1.0,9.0,3.5,39.699999999999996,-3.0000000000000004,7.6
1698745705.923,16,-1.6,2.2,-2.7,-2.1,10.5,1.8,20.7,-0.5,9.4
1698745705.94,16,-1.6,3.0,-2.4000000000000004,-2.2,11.3,2.1,2.4000000000000004,5.6,8.600000000000001
1698745705.956,16,-1.1,4.0,-0.30000000000000004,-1.7000000000000002,12.4,4.2,-7.300000000000001,9.1,7.300000000000001
1698745705.973,16,-2.1,4.9,4.2,-2.6,13.3,8.700000000000001,35.0,-13.200000000000001,27.7
1698745705.99,16,-2.5,4.6000000000000005,4.1000000000000005,-2.9000000000000004,13.100000000000001,8.5,61.900000000000006,-29.700000000000003,40.6
1698745706.006,16,-1.5,1.7000000000000002,5.9,-1.8,10.3,10.100000000000001,63.900000000000006,-41.1,34.900000000000006
1698745706.023,16,0.4,-0.9,3.6,0.30000000000000004,7.7,7.800000000000001,13.8,-32.1,27.2
1698745706.04,16,1.7000000000000002,-0.7000000000000001,3.8000000000000003,1.7000000000000002,8.0,8.0,-18.8,-25.5,21.700000000000003
1698745706.056,16,1.9000000000000001,1.6,3.8000000000000003,2.0,10.200000000000001,8.200000000000001,-34.900000000000006,-18.8,19.1
1698745706.073,16,1.8,3.7,3.5,2.0,12.3,8.0,-28.900000000000002,-6.6000000000000005,21.400000000000002
1698745706.091,16,1.4000000000000001,3.2,3.4000000000000004,1.6,11.8,7.9,-20.6,-5.4,16.8
1698745706.109,16,0.2,0.8,2.8000000000000003,0.5,9.4,7.4,-14.0,1.5000000000000002,5.4
1698745706.123,16,-0.8,-0.1,1.3,-0.6000000000000001,8.4,6.0,-24.5,17.599999999999998,1.8
1698745706.14,16,-1.0,-0.6000000000000001,0.5,-0.8,7.6000000000000005,4.5,-33.5,21.8,1.3
1698745706.156,16,-1.0,-1.5,-0.8,-0.9,6.9,4.1000000000000005,-41.4,16.400000000000002,3.6
1698745706.173,16,-1.1,-2.4000000000000004,-1.3,-1.0,5.9,3.6,-33.300000000000004,12.100000000000001,5.0
1698745706.19,16,-1.1,-2.6,-1.3,-1.0,5.7,3.6,-26.1,8.4,2.0
1698745706.206,16,-1.4000000000000001,-2.9000000000000004,-1.6,-1.4000000000000001,5.4,3.5,-11.5,6.000000000000001,-5.8
1698745706.223,16,-1.5,-2.6,-1.5,-1.5,5.6000000000000005,3.5,-4.2,2.8,-13.700000000000001
1698745706.24,16,-1.6,-2.4000000000000004,-1.6,-1.6,5.800000000000001,3.4000000000000004,-4.2,0.5,-17.7
1698745706.256,16,-1.7000000000000002,-2.1,-1.7000000000000002,-1.7000000000000002,6.1000000000000005,3.3000000000000003,-11.4,-4.800000000000001,-22.4
1698745706.273,16,-1.6,-1.8,-1.9000000000000001,-1.7000000000000002,6.4,3.1,-21.3,-10.1,-22.8
1698745706.29,16,-1.3,-1.6,-2.1,-1.5,6.5,2.9000000000000004,-25.700000000000003,-13.0,-21.900000000000002
1698745706.306,16,-1.1,-1.5,-2.1,-1.3,6.6000000000000005,3.0,-30.200000000000003,-22.7,-18.8
1698745706.323,16,-1.5,-1.2000000000000002,-2.3000000000000003,-1.7000000000000002,6.800000000000001,2.9000000000000004,-27.7,-34.2,-9.8
1698745706.34,16,-1.6,-0.8,-2.2,-1.7000000000000002,7.1000000000000005,3.0,-25.3,-40.1,-6.8
1698745706.356,16,-1.2000000000000002,-0.1,-2.2,-1.3,7.9,3.1,-17.1,-47.5,-7.1000000000000005
1698745706.373,16,0.30000000000000004,0.6000000000000001,-2.4000000000000004,0.30000000000000004,8.5,2.9000000000000004,-6.3,-40.0,-15.9
1698745706.389,16,0.8,0.6000000000000001,-2.3000000000000003,0.8,8.5,3.0,0.8,-34.50000000000001,-20.6
1698745706.407,16,1.2000000000000002,0.6000000000000001,-1.6,1.2000000000000002,8.5,3.6,21.700000000000003,-9.1,-19.9
1698745706.423,16,1.6,0.4,-2.0,1.4000000000000001,8.4,3.1,43.900000000000006,17.5,-5.9
1698745706.44,16,1.4000000000000001,1.1,-2.9000000000000004,1.2000000000000002,9.1,2.1,47.5,16.3,-1.7
1698745706.456,16,0.0,3.7,-2.1,-0.1,11.8,2.7,35.8,-2.0,-6.2
1698745706.473,16,-0.30000000000000004,4.800000000000001,1.7000000000000002,-0.5,13.100000000000001,6.5,48.00000000000001,6.2,-23.8
1698745706.49,16,-0.7000000000000001,2.9000000000000004,3.5,-1.1,11.3,8.1,68.0,27.900000000000002,-37.5
1698745706.507,16,-0.1,1.8,3.5,-0.6000000000000001,10.200000000000001,8.0,66.9,27.5,-39.50000000000001
1698745706.523,16,2.0,-0.1,5.2,1.4000000000000001,8.4,9.600000000000001,51.7,29.000000000000004,-50.7
1698745706.539,16,2.9000000000000004,-0.9,4.800000000000001,2.2,7.7,9.1,46.6,37.4,-56.300000000000004
1698745706.556,16,1.4000000000000001,-1.1,4.2,0.6000000000000001,7.5,8.5,21.3,44.4,-44.2
1698745706.573,16,0.8,0.8,3.0,-0.2,9.4,7.300000000000001,-12.3,44.9,-13.5
1698745706.589,16,-1.3,3.1,3.0,-2.4000000000000004,11.600000000000001,7.4,-35.8,33.2,3.5
1698745706.606,16,-1.7000000000000002,3.5,2.4000000000000004,-2.8000000000000003,12.0,6.9,-35.199999999999996,30.7,8.1
1698745706.622,16,-0.9,1.5,1.4000000000000001,-2.0,10.0,6.0,-24.7,16.1,6.9
1698745706.639,16,-0.30000000000000004,0.2,0.8,-1.4000000000000001,8.700000000000001,5.4,-13.4,7.500000000000001,2.8
1698745706.656,16,-0.1,0.1,0.4,-1.2000000000000002,8.5,5.0,-9.4,4.300000000000001,0.0
1698745706.673,16,0.6000000000000001,-0.9,-0.4,-0.5,7.6000000000000005,4.3,-6.8,7.0,-1.0999999999999999
1698745706.689,16,1.4000000000000001,-2.3000000000000003,-0.6000000000000001,0.30000000000000004,6.1000000000000005,4.0,-6.000000000000001,8.700000000000001,-1.0
1698745706.707,16,1.7000000000000002,-2.8000000000000003,-0.7000000000000001,0.5,5.6000000000000005,3.9000000000000004,-5.6,11.2,1.7
1698745706.723,16,1.8,-3.4000000000000004,-1.1,0.7000000000000001,5.0,3.6,-5.300000000000001,15.7,12.4
1698745706.74,16,1.7000000000000002,-3.0,-1.3,0.6000000000000001,5.300000000000001,3.4000000000000004,-7.500000000000001,15.5,27.1
1698745706.756,16,1.5,-2.5,-1.3,0.5,5.800000000000001,3.4000000000000004,-8.0,14.500000000000002,34.0
1698745706.773,16,1.0,-1.7000000000000002,-1.5,0.0,6.6000000000000005,3.2,-9.9,14.900000000000002,40.1
1698745706.79,16,0.7000000000000001,-1.4000000000000001,-1.6,-0.1,6.9,3.1,-12.200000000000001,22.1,36.0
1698745706.807,16,0.6000000000000001,-1.3,-1.7000000000000002,-0.2,7.0,3.0,-13.3,25.700000000000003,32.7
1698745706.823,16,0.30000000000000004,-1.0,-1.8,-0.5,7.300000000000001,3.0,-16.900000000000002,29.600000000000005,25.6
1698745706.84,16,0.1,-0.7000000000000001,-1.8,-0.7000000000000001,7.5,2.9000000000000004,-20.2,30.799999999999997,22.900000000000002
1698745706.856,16,0.2,-0.8,-2.1,-0.6000000000000001,7.4,2.7,-22.5,32.2,21.400000000000002
1698745706.873,16,0.4,-0.8,-2.0,-0.30000000000000004,7.300000000000001,2.8000000000000003,-25.0,32.300000000000004,14.100000000000001
1698745706.889,16,0.6000000000000001,-0.1,-2.1,-0.2,8.1,2.7,-18.7,36.5,7.0
1698745706.907,16,0.4,0.5,-2.4000000000000004,-0.5,9.200000000000001,2.4000000000000004,-8.3,28.700000000000003,6.3
1698745706.923,16,-0.2,1.1,-2.2,-1.0,9.3,2.6,-1.8,19.6,7.500000000000001
1698745706.939,16,-0.9,0.30000000000000004,-1.8,-1.7000000000000002,8.5,3.0,15.100000000000001,1.0999999999999999,8.600000000000001
1698745706.956,16,-1.0,0.1,-1.8,-1.8,8.3,3.0,24.200000000000003,-11.1,4.7
1698745706.973,16,-1.4000000000000001,2.1,-2.3000000000000003,-2.1,10.3,2.3000000000000003,30.200000000000003,-25.1,1.7
1698745706.989,16,-1.4000000000000001,3.6,-1.2000000000000002,-2.2,11.9,3.4000000000000004,19.9,-3.6,7.0
1698745707.006,16,-1.0,4.0,1.5,-1.7000000000000002,12.4,6.1000000000000005,24.8,-4.7,7.400000000000001
1698745707.024,16,-0.7000000000000001,4.7,3.7,-1.3,13.200000000000001,8.1,60.20000000000001,-20.5,28.400000000000002
1698745707.039,16,-0.5,0.8,7.1000000000000005,-1.0,9.3,11.4,65.4,-40.2,36.5
1698745707.056,16,-0.8,-0.1,5.7,-0.5,7.7,8.3,32.300000000000004,-47.5,45.5
1698745707.073,16,1.0,-0.4,4.2,0.8,8.3,8.5,-2.4000000000000004,-41.0,40.4
1698745707.089,16,1.2000000000000002,2.0,3.7,1.1,10.600000000000001,8.1,-34.2,-22.900000000000002,16.1
1698745707.106,16,1.0,3.5,3.5,0.9,12.100000000000001,7.9,-39.00000000000001,-16.6,12.8
1698745707.123,16,0.2,3.1,3.4000000000000004,0.2,11.700000000000001,7.9,-29.600000000000005,-16.1,9.3
1698745707.139,16,-0.2,0.5,2.1,-0.2,9.1,6.800000000000001,-18.900000000000002,-11.3,-3.2
1698745707.156,16,0.0,-0.1,1.6,0.1,8.5,6.300000000000001,-18.900000000000002,-8.799999999999999,-6.6000000000000005
1698745707.173,16,-0.2,-1.1,0.7000000000000001,-0.2,7.4,5.4,-22.900000000000002,-5.1,-6.7
1698745707.19,16,-0.6000000000000001,-1.0,-0.4,-0.6000000000000001,7.4,4.4,-24.7,-3.5,-3.5
1698745707.206,16,-0.9,-1.2000000000000002,-0.9,-0.9,7.2,4.0,-25.3,-9.3,-2.3000000000000003
1698745707.223,16,-1.2000000000000002,-2.1,-1.2000000000000002,-1.2000000000000002,6.300000000000001,3.8000000000000003,-23.8,-13.200000000000001,-5.300000000000001
1698745707.239,16,-1.5,-2.7,-1.4000000000000001,-1.5,5.6000000000000005,3.5,-18.5,-13.8,-19.0
1698745707.256,16,-1.4000000000000001,-2.8000000000000003,-1.6,-1.5,5.5,3.4000000000000004,-15.6,-12.5,-24.9
1698745707.273,16,-1.1,-2.6,-1.8,-1.2000000000000002,5.6000000000000005,3.2,-10.600000000000001,-14.200000000000001,-33.0
1698745707.29,16,-0.9,-2.5,-2.0,-1.1,5.7,3.0,-9.200000000000001,-16.700000000000003,-34.0
1698745707.306,16,-0.7000000000000001,-2.2,-2.1,-1.0,5.9,2.9000000000000004,-9.4,-19.6,-33.1
1698745707.323,16,-0.6000000000000001,-2.1,-2.2,-0.9,6.1000000000000005,2.8000000000000003,-12.8,-28.500000000000004,-29.000000000000004
1698745707.339,16,-0.8,-1.9000000000000001,-2.1,-1.1,6.2,3.0,-16.0,-38.5,-22.1
1698745707.356,16,-1.0,-1.7000000000000002,-1.9000000000000001,-1.3,6.4,3.2,-17.3,-44.2,-19.8
1698745707.373,16,-1.1,-1.0,-1.8,-1.3,7.1000000000000005,3.4000000000000004,-19.3,-52.400000000000006,-19.3
1698745707.39,16,-0.6000000000000001,0.1,-1.9000000000000001,-0.9,8.1,3.2,-19.500000000000004,-53.300000000000004,-17.0
1698745707.406,16,-0.2,0.5,-2.0,-0.4,8.5,3.1,-19.1,-49.2,-16.2
1698745707.423,16,0.8,1.3,-2.2,0.6000000000000001,9.200000000000001,3.0,-12.8,-34.0,-19.6
1698745707.44,16,1.9000000000000001,1.3,-1.9000000000000001,1.7000000000000002,9.3,3.3000000000000003,3.3000000000000003,-9.700000000000001,-23.2
1698745707.456,16,2.1,0.8,-2.3000000000000003,1.9000000000000001,8.8,2.9000000000000004,24.9,13.6,-9.9
1698745707.474,16,1.9000000000000001,1.4000000000000001,-3.0,1.7000000000000002,9.4,2.1,31.4,17.5,-1.6
1698745707.49,16,0.6000000000000001,3.7,-1.7000000000000002,0.30000000000000004,11.8,3.3000000000000003,32.800000000000004,8.700000000000001,-1.7
1698745707.506,16,-0.4,5.2,1.1,-0.7000000000000001,13.5,5.9,39.400000000000006,5.8,-7.500000000000001
1698745707.523,16,-1.0,3.9000000000000004,2.4000000000000004,-1.4000000000000001,12.200000000000001,7.1000000000000005,59.400000000000006,16.1,-24.6
1698745707.54,16,-1.0,1.5,3.6,-1.5,9.9,8.200000000000001,62.199999999999996,19.6,-30.9
1698745707.556,16,0.1,1.4000000000000001,4.5,-0.5,9.9,9.1,54.3,16.900000000000002,-34.800000000000004
1698745707.572,16,2.3000000000000003,-0.1,4.800000000000001,1.6,8.4,9.3,40.2,26.1,-47.1
1698745707.59,16,0.7000000000000001,-0.9,3.9000000000000004,-0.2,7.7,8.3,17.3,31.5,-48.7
1698745707.607,16,0.4,-0.4,2.9000000000000004,-0.6000000000000001,8.200000000000001,7.300000000000001,3.3000000000000003,27.900000000000002,-33.6
1698745707.623,16,-0.30000000000000004,1.1,2.5,-1.3,9.600000000000001,7.0,-27.5,13.0,-11.3
1698745707.64,16,-1.5,3.0,2.4000000000000004,-2.6,11.5,7.0,-28.200000000000003,6.6000000000000005,-1.6
1698745707.656,16,-0.5,1.5,1.5,-1.5,9.9,6.2,-19.3,-3.1,3.9
1698745707.674,16,-0.30000000000000004,0.7000000000000001,1.2000000000000002,-1.3,9.1,5.800000000000001,-14.500000000000002,-7.1000000000000005,3.7000000000000006
1698745707.69,16,0.30000000000000004,-0.4,0.4,-0.8,8.0,5.1000000000000005,-11.4,-15.399999999999999,5.6
1698745707.706,16,0.6000000000000001,-1.1,-0.4,-0.30000000000000004,7.300000000000001,4.4,-12.000000000000002,-13.700000000000001,7.500000000000001
1698745707.724,16,0.9,-1.9000000000000001,-0.6000000000000001,-0.1,6.5,4.2,-12.5,-14.600000000000001,6.9
1698745707.74,16,1.0,-2.7,-1.0,0.1,5.6000000000000005,3.8000000000000003,-9.9,-12.8,7.500000000000001
1698745707.756,16,1.1,-3.1,-1.2000000000000002,0.30000000000000004,5.2,3.6,-4.3999999999999995,-6.000000000000001,11.700000000000001
1698745707.773,16,1.3,-3.1,-1.2000000000000002,0.5,5.300000000000001,3.6,-1.0,-3.6,15.7
1698745707.79,16,1.6,-2.6,-1.3,0.8,5.7,3.5,4.300000000000001,-1.0,25.3
1698745707.806,16,1.6,-1.5,-1.6,1.0,6.800000000000001,3.2,3.9,2.9,30.799999999999997
1698745707.823,16,1.5,-1.1,-1.7000000000000002,0.9,7.2,3.1,0.5,5.2,30.9
1698745707.839,16,1.1,-0.9,-1.7000000000000002,0.6000000000000001,7.4,3.0,-8.3,11.9,30.7
1698745707.856,16,0.1,-0.9,-1.9000000000000001,-0.30000000000000004,7.4,2.9000000000000004,-18.5,18.7,26.9
1698745707.873,16,-0.2,-1.0,-2.1,-0.6000000000000001,7.2,2.7,-21.900000000000002,23.3,25.0
1698745707.89,16,0.1,-1.4000000000000001,-2.2,-0.4,6.800000000000001,2.6,-24.400000000000002,26.9,17.3
1698745707.906,16,0.30000000000000004,-1.1,-2.2,-0.1,7.1000000000000005,2.7,-14.700000000000001,30.200000000000003,11.6
1698745707.923,16,0.4,0.1,-2.3000000000000003,-0.1,8.200000000000001,2.5,-0.8,30.100000000000005,13.100000000000001
1698745707.94,16,0.30000000000000004,0.7000000000000001,-2.3000000000000003,-0.2,8.8,2.5,5.0,28.0,15.6
1698745707.956,16,-0.1,0.9,-2.0,-0.6000000000000001,9.1,2.8000000000000003,13.0,22.1,18.0
1698745707.973,16,-0.4,0.7000000000000001,-1.7000000000000002,-1.0,8.3,2.9000000000000004,17.400000000000002,11.700000000000001,16.1
1698745707.989,16,-0.9,-0.1,-2.3000000000000003,-1.3,8.1,2.4000000000000004,20.6,-3.9,7.300000000000001
1698745708.006,16,-1.1,1.2000000000000002,-3.2,-1.5,9.5,1.4000000000000001,6.8,6.1000000000000005,2.1
1698745708.023,16,-0.5,2.0,-2.5,-0.9,10.3,2.1,2.1,17.1,0.9
1698745708.04,16,-0.30000000000000004,3.5,0.7000000000000001,-0.7000000000000001,11.9,5.300000000000001,23.700000000000003,17.9,7.0
1698745708.056,16,-1.5,5.2,4.800000000000001,-1.9000000000000001,13.700000000000001,9.200000000000001,82.4,-13.8,39.00000000000001
1698745708.073,16,-2.1,1.2000000000000002,6.2,-2.3000000000000003,9.8,10.4,98.6,-22.000000000000004,44.8
1698745708.09,16,-1.5,-0.1,5.4,-1.7000000000000002,8.6,9.5,63.0,-21.900000000000002,37.300000000000004
1698745708.106,16,0.30000000000000004,-0.30000000000000004,4.2,0.30000000000000004,8.3,8.4,-24.3,-5.8,26.200000000000003
1698745708.123,16,1.8,2.0,3.7,1.9000000000000001,10.600000000000001,8.0,-50.800000000000004,-14.3,23.0
1698745708.139,16,1.6,2.5,3.2,1.7000000000000002,11.100000000000001,7.6000000000000005,-45.5,-8.9,22.900000000000002
1698745708.156,16,1.3,3.7,3.1,1.5,12.3,7.7,-19.500000000000004,-2.5,15.6
1698745708.173,16,-0.1,1.7000000000000002,2.5,0.8,11.700000000000001,7.4,-6.5,-4.7,7.699999999999999
1698745708.19,16,-0.4,0.6000000000000001,2.2,-0.2,9.200000000000001,6.800000000000001,-6.7,1.2000000000000002,-0.30000000000000004
1698745708.206,16,-0.8,-0.7000000000000001,1.1,-0.6000000000000001,7.800000000000001,5.800000000000001,-27.400000000000002,7.8,-1.3
1698745708.223,16,-1.0,-1.0,0.4,-0.9,7.5,5.2,-36.1,7.400000000000001,-2.1
1698745708.239,16,-1.5,-1.5,-0.6000000000000001,-1.4000000000000001,7.0,4.3,-39.6,-1.6,0.7
1698745708.256,16,-1.7000000000000002,-1.9000000000000001,-1.2000000000000002,-1.6,6.4,3.7,-30.200000000000003,-8.799999999999999,-3.7000000000000006
1698745708.273,16,-1.8,-2.1,-1.2000000000000002,-1.7000000000000002,6.2,3.7,-15.9,-17.200000000000003,-16.700000000000003
1698745708.289,16,-1.8,-2.2,-1.3,-1.7000000000000002,6.1000000000000005,3.7,-9.700000000000001,-19.3,-22.6
1698745708.306,16,-1.6,-1.9000000000000001,-1.5,-1.6,6.300000000000001,3.5,-4.6000000000000005,-22.900000000000002,-31.7
1698745708.323,16,-1.4000000000000001,-1.9000000000000001,-1.6,-1.4000000000000001,6.300000000000001,3.4000000000000004,-6.6000000000000005,-25.2,-35.4
1698745708.34,16,-0.9,-1.8,-1.7000000000000002,-1.0,6.4,3.3000000000000003,-14.600000000000001,-28.8,-39.699999999999996
1698745708.356,16,-0.4,-1.8,-2.4000000000000004,-0.6000000000000001,6.300000000000001,2.7,-22.7,-32.9,-39.300000000000004
1698745708.373,16,-0.1,-2.1,-2.4000000000000004,-0.30000000000000004,6.0,2.7,-25.700000000000003,-40.0,-34.800000000000004
1698745708.39,16,-0.2,-2.2,-2.5,-0.4,5.9,2.6,-24.400000000000002,-43.800000000000004,-31.2
1698745708.406,16,-0.5,-1.5,-2.2,-0.7000000000000001,6.5,3.0,-19.500000000000004,-48.9,-25.6
1698745708.423,16,-0.6000000000000001,-0.7000000000000001,-2.0,-0.8,7.300000000000001,3.2,-13.9,-51.5,-20.6
1698745708.439,16,-0.4,-0.30000000000000004,-2.1,-0.6000000000000001,7.7,3.1,-12.200000000000001,-50.0,-18.1
1698745708.456,16,0.2,0.30000000000000004,-2.1,0.1,8.200000000000001,3.1,-10.1,-40.7,-17.7
1698745708.473,16,0.7000000000000001,0.5,-2.1,1.0,8.700000000000001,3.2,-6.9,-32.7,-19.8
1698745708.489,16,1.4000000000000001,0.9,-1.9000000000000001,1.3,8.9,3.3000000000000003,5.6,-11.9,-22.4
1698745708.506,16,1.8,0.8,-2.5,1.7000000000000002,8.8,2.7,22.4,11.700000000000001,-12.200000000000001
1698745708.523,16,1.7000000000000002,2.8000000000000003,-2.0,1.5,10.9,3.0,34.0,13.9,-6.000000000000001
1698745708.539,16,1.3,4.5,-1.3,0.6000000000000001,13.600000000000001,4.7,41.1,14.100000000000001,-10.9
1698745708.556,16,0.2,4.6000000000000005,1.3,-0.1,12.8,6.1000000000000005,58.1,21.6,-21.5
1698745708.573,16,-0.5,2.2,2.4000000000000004,-0.9,10.600000000000001,7.0,66.80000000000001,26.8,-24.6
1698745708.59,16,-0.4,2.3000000000000003,3.5,-0.9,10.700000000000001,8.0,58.60000000000001,25.400000000000002,-27.8
1698745708.606,16,0.8,1.0,5.0,0.2,9.5,9.5,46.2,35.199999999999996,-33.900000000000006
1698745708.623,16,1.3,-0.8,4.0,0.5,7.800000000000001,8.4,28.1,47.900000000000006,-48.7
1698745708.64,16,0.4,-1.3,3.4000000000000004,-0.5,7.6000000000000005,6.800000000000001,15.299999999999999,45.3,-44.8
1698745708.657,16,0.4,0.2,2.5,-0.6000000000000001,8.8,6.9,-11.2,33.0,-17.0
1698745708.673,16,-0.7000000000000001,3.3000000000000003,2.9000000000000004,-1.8,11.8,7.300000000000001,-17.1,27.900000000000002,-5.300000000000001
1698745708.689,16,-0.2,2.6,1.8,-1.3,11.200000000000001,6.300000000000001,-15.6,22.7,5.8
1698745708.707,16,-0.1,1.3,1.5,-1.2000000000000002,9.8,6.0,-16.6,19.1,9.1
1698745708.723,16,0.1,-0.6000000000000001,0.30000000000000004,-1.0,7.9,4.9,-19.400000000000002,11.8,11.2
1698745708.739,16,0.0,-1.0,-0.7000000000000001,-1.1,7.5,4.0,-20.8,8.600000000000001,20.0
1698745708.758,16,0.2,-1.4000000000000001,-1.1,-0.8,7.0,3.6,-19.1,8.1,21.400000000000002
1698745708.773,16,0.5,-2.4000000000000004,-1.5,-0.5,6.0,3.2,-11.1,7.0,20.8
1698745708.789,16,0.5,-2.7,-1.4000000000000001,-0.4,5.5,3.2,-5.1,7.699999999999999,21.1
1698745708.806,16,0.6000000000000001,-2.9000000000000004,-1.5,-0.30000000000000004,5.5,3.2,7.9,8.0,24.200000000000003
1698745708.822,16,1.0,-2.3000000000000003,-1.4000000000000001,0.1,6.1000000000000005,3.2,15.7,6.3,29.700000000000003
1698745708.839,16,1.1,-1.9000000000000001,-1.4000000000000001,0.30000000000000004,6.5,3.2,16.2,5.6,31.3
1698745708.856,16,1.3,-1.3,-1.5,0.6000000000000001,7.1000000000000005,3.0,9.1,7.400000000000001,31.099999999999998
1698745708.873,16,0.8,-1.0,-1.6,0.2,7.4,2.9000000000000004,-3.2,11.700000000000001,28.8
1698745708.889,16,0.1,-0.9,-2.0,-0.4,7.5,2.5,-16.1,15.399999999999999,26.9
1698745708.906,16,0.0,-0.9,-2.2,-0.6000000000000001,7.5,2.3000000000000003,-21.3,17.200000000000003,25.400000000000002
1698745708.923,16,0.30000000000000004,-1.4000000000000001,-2.4000000000000004,-0.2,6.9,2.2,-26.6,19.3,17.7
1698745708.94,16,0.8,-1.4000000000000001,-2.1,0.30000000000000004,6.9,2.5,-18.6,23.3,8.9
1698745708.957,16,0.8,-1.0,-2.1,0.30000000000000004,7.2,2.5,-10.3,24.9,7.1000000000000005
1698745708.973,16,0.5,0.4,-2.4000000000000004,0.0,8.700000000000001,2.2,6.6000000000000005,23.700000000000003,11.1
1698745708.99,16,-0.2,0.9,-1.7000000000000002,-0.7000000000000001,9.3,2.8000000000000003,18.6,14.700000000000001,13.700000000000001
1698745709.007,16,-0.30000000000000004,0.6000000000000001,-1.2000000000000002,-0.8,9.0,3.3000000000000003,25.3,5.6,11.1
1698745709.023,16,-0.9,0.1,-1.9000000000000001,-1.4000000000000001,8.5,2.5,29.700000000000003,-13.3,5.8
1698745709.039,16,-1.9000000000000001,1.7000000000000002,-2.9000000000000004,-2.0,9.200000000000001,1.8,22.000000000000004,-13.200000000000001,6.7
1698745709.056,16,-1.6,2.7,-2.7,-2.0,11.200000000000001,1.7000000000000002,-0.5,4.9,7.9
1698745709.078,16,0.1,4.2,2.3000000000000003,-0.30000000000000004,12.700000000000001,6.6000000000000005,25.3,0.6000000000000001,11.5
1698745709.089,16,0.0,4.6000000000000005,3.5,-0.30000000000000004,13.200000000000001,7.7,58.2,-11.8,27.400000000000002
1698745709.107,16,-1.1,0.9,6.6000000000000005,-1.4000000000000001,9.600000000000001,10.600000000000001,94.3,-27.5,39.9
1698745709.123,16,-2.0,0.4,6.800000000000001,-2.1,9.200000000000001,10.700000000000001,96.3,-34.50000000000001,40.9
1698745709.139,16,-0.6000000000000001,-0.5,5.0,-0.6000000000000001,8.4,8.8,30.4,-23.700000000000003,40.7
1698745709.157,16,1.1,0.5,4.0,1.7000000000000002,10.100000000000001,7.7,-15.299999999999999,-17.3,33.6
1698745709.174,16,1.4000000000000001,2.6,2.9000000000000004,1.6,11.4,6.9,-61.1,0.2,21.700000000000003
1698745709.189,16,1.9000000000000001,4.4,3.2,2.2,13.200000000000001,7.4,-51.800000000000004,4.3999999999999995,15.9
1698745709.206,16,1.2000000000000002,2.9000000000000004,2.6,1.5,11.600000000000001,6.800000000000001,-31.7,-3.0000000000000004,10.9
1698745709.223,16,-0.2,0.5,2.0,0.1,9.200000000000001,6.300000000000001,-2.1999999999999997,5.2,3.7000000000000006
1698745709.239,16,-1.1,-0.5,1.1,-0.9,8.200000000000001,5.4,1.4,12.200000000000001,-4.9
1698745709.256,16,-1.4000000000000001,-0.8,0.7000000000000001,-1.2000000000000002,7.9,5.0,-7.0,14.600000000000001,-6.1000000000000005
1698745709.273,16,-1.3,-1.0,-0.30000000000000004,-1.2000000000000002,7.7,4.1000000000000005,-28.0,13.100000000000001,-3.6
1698745709.29,16,-1.7000000000000002,-1.7000000000000002,-0.8,-1.6,6.9,3.7,-40.4,4.7,-0.5
1698745709.307,16,-1.7000000000000002,-1.9000000000000001,-1.0,-1.5,6.6000000000000005,3.5,-40.4,4.1000000000000005,-2.6
1698745709.323,16,-1.6,-2.2,-1.2000000000000002,-1.5,6.300000000000001,3.4000000000000004,-30.7,-2.1999999999999997,-12.5
1698745709.339,16,-1.5,-2.1,-1.4000000000000001,-1.4000000000000001,6.4,3.2,-16.400000000000002,-6.9,-21.200000000000003
1698745709.356,16,-1.3,-1.9000000000000001,-1.5,-1.3,6.5,3.2,-10.5,-10.8,-24.3
1698745709.373,16,-1.2000000000000002,-1.9000000000000001,-1.5,-1.3,6.5,3.1,-6.2,-17.7,-27.900000000000002
1698745709.389,16,-0.9,-1.4000000000000001,-1.7000000000000002,-1.0,6.9,3.1,-11.8,-23.2,-28.700000000000003
1698745709.407,16,-0.9,-1.4000000000000001,-1.7000000000000002,-1.0,6.9,3.0,-17.1,-28.8,-28.700000000000003
1698745709.423,16,-0.9,-1.8,-2.1,-1.0,6.5,2.7,-30.000000000000004,-39.2,-25.5
1698745709.439,16,-1.2000000000000002,-1.6,-2.0,-1.3,6.6000000000000005,2.9000000000000004,-37.900000000000006,-49.4,-21.5
1698745709.456,16,-1.0,-0.8,-2.1,-1.2000000000000002,7.4,2.9000000000000004,-35.199999999999996,-52.6,-19.3
1698745709.473,16,-0.6000000000000001,-0.30000000000000004,-2.2,-0.7000000000000001,7.800000000000001,2.8000000000000003,-30.9,-47.300000000000004,-20.0
1698745709.489,16,1.0,0.5,-2.2,0.9,8.6,2.9000000000000004,-17.3,-33.1,-27.2
1698745709.507,16,1.6,0.6000000000000001,-1.9000000000000001,1.4000000000000001,8.6,3.2,-6.000000000000001,-22.1,-30.599999999999998
1698745709.523,16,2.2,0.1,-1.5,2.0,8.200000000000001,3.5,22.1,9.8,-22.6
1698745709.539,16,2.0,0.2,-3.0,1.7000000000000002,8.4,1.9000000000000001,37.0,23.2,-3.1
1698745709.556,16,1.3,1.2000000000000002,-3.7,0.30000000000000004,10.700000000000001,2.0,32.800000000000004,15.399999999999999,0.30000000000000004
1698745709.575,16,-0.1,3.4000000000000004,-1.3,-1.5,12.200000000000001,4.6000000000000005,24.1,-5.0,-3.8
1698745709.59,16,-2.2,4.0,1.5,-1.5,12.200000000000001,4.6000000000000005,30.299999999999997,-2.5,-7.1000000000000005
1698745709.606,16,-2.4000000000000004,3.7,2.8000000000000003,-1.7000000000000002,11.700000000000001,7.6000000000000005,54.5,9.200000000000001,-20.1
1698745709.623,16,0.1,2.2,3.6,-0.4,10.700000000000001,8.0,69.3,5.300000000000001,-41.7
1698745709.639,16,2.9000000000000004,0.2,5.800000000000001,2.3000000000000003,8.8,10.0,65.2,20.7,-54.4
1698745709.656,16,1.6,-2.3000000000000003,3.5,0.8,6.300000000000001,7.6000000000000005,43.7,34.0,-65.5
1698745709.674,16,0.4,-1.7000000000000002,3.5,-0.6000000000000001,6.9,7.5,19.9,28.0,-50.9
1698745709.689,16,-0.1,0.6000000000000001,2.4000000000000004,-1.1,9.3,6.6000000000000005,-28.1,19.1,-22.4
1698745709.706,16,-1.5,3.6,3.1,-2.7,12.200000000000001,7.4,-44.4,14.4,-15.2
1698745709.723,16,-1.5,3.9000000000000004,2.0,-2.7,12.5,6.4,-40.9,14.0,-8.600000000000001
1698745709.74,16,-0.2,1.5,1.1,-1.4000000000000001,10.0,5.5,-32.2,7.400000000000001,-2.1
1698745709.756,16,0.5,0.1,0.4,-0.7000000000000001,8.6,4.9,-20.0,0.30000000000000004,-0.4
1698745709.773,16,0.9,-0.1,0.1,-0.30000000000000004,8.4,4.7,-15.5,-1.0999999999999999,3.4
1698745709.789,16,1.4000000000000001,-0.8,-0.5,0.2,7.6000000000000005,4.1000000000000005,-11.6,1.3,9.3
1698745709.806,16,1.2000000000000002,-1.8,-0.8,0.1,6.7,3.8000000000000003,-10.9,3.8,14.900000000000002
1698745709.823,16,1.2000000000000002,-2.1,-0.9,0.1,6.4,3.7,-10.8,6.3,17.7
1698745709.839,16,1.1,-2.2,-1.0,0.0,6.1000000000000005,3.6,-10.0,10.2,23.5
1698745709.856,16,1.0,-2.1,-1.1,0.1,6.2,3.6,-8.4,15.2,32.6
1698745709.873,16,1.1,-2.0,-1.2000000000000002,0.2,6.300000000000001,3.4000000000000004,-8.600000000000001,16.3,37.1
1698745709.889,16,1.4000000000000001,-1.6,-1.5,0.7000000000000001,6.800000000000001,3.2,-12.700000000000001,17.9,40.0
1698745709.906,16,0.9,-1.3,-1.7000000000000002,0.2,7.0,3.0,-19.1,22.2,36.0
1698745709.923,16,0.5,-1.1,-2.0,-0.1,7.1000000000000005,2.8000000000000003,-24.9,25.8,32.0
1698745709.939,16,0.30000000000000004,-1.2000000000000002,-2.1,-0.4,7.1000000000000005,2.7,-27.2,26.400000000000002,29.1
1698745709.956,16,0.30000000000000004,-1.5,-2.5,-0.4,6.7,2.4000000000000004,-28.3,28.200000000000003,22.3
1698745709.973,16,0.4,-1.6,-2.5,-0.30000000000000004,6.5,2.4000000000000004,-26.1,29.600000000000005,17.7
1698745709.989,16,0.5,-1.3,-2.7,-0.1,6.9,2.2,-14.900000000000002,32.9,12.4
1698745710.006,16,-0.2,0.0,-2.5,-0.8,8.200000000000001,2.4000000000000004,1.3,27.7,14.4
1698745710.023,16,-0.4,0.6000000000000001,-2.3000000000000003,-1.1,8.9,3.2,9.3,24.8,16.400000000000002
1698745710.039,16,-0.4,0.7000000000000001,-1.1,-1.0,8.8,3.6,24.8,8.3,11.2
1698745710.056,16,-0.30000000000000004,0.4,-1.3,-0.9,8.700000000000001,3.3000000000000003,27.6,-5.7,3.7000000000000006
1698745710.073,16,-0.5,1.3,-1.6,-0.9,8.700000000000001,3.3000000000000003,27.6,-5.7,3.7000000000000006
1698745710.089,16,-0.7000000000000001,3.0,-2.1,-1.3,11.3,2.5,1.3,9.8,6.4
1698745710.109,16,-0.6000000000000001,3.5,0.9,-1.2000000000000002,11.8,5.5,4.800000000000001,15.2,6.7
1698745710.123,16,-1.4000000000000001,3.9000000000000004,2.4000000000000004,-1.7000000000000002,12.4,6.7,24.9,5.2,17.0
1698745710.14,16,-1.6,2.9000000000000004,4.1000000000000005,-2.1,11.3,8.5,55.300000000000004,-7.400000000000001,32.4
1698745710.156,16,-1.4000000000000001,1.8,5.800000000000001,-1.8,10.4,10.100000000000001,68.7,-32.800000000000004,42.300000000000004
1698745710.172,16,0.2,-0.9,3.5,0.0,7.7,7.7,11.5,-18.0,36.1
1698745710.19,16,1.5,-0.9,3.1,1.4000000000000001,7.7,7.4,-21.3,-7.699999999999999,27.5
1698745710.206,16,1.9000000000000001,1.0,2.9000000000000004,1.8,9.600000000000001,7.300000000000001,-37.1,4.5,23.400000000000002
1698745710.224,16,0.9,3.0,2.8000000000000003,0.9,11.5,7.300000000000001,-18.6,4.3999999999999995,26.0
1698745710.239,16,-0.2,2.3000000000000003,2.5,-0.1,10.9,7.0,-6.1000000000000005,2.1999999999999997,24.200000000000003
1698745710.256,16,-1.4000000000000001,0.5,1.6,-1.3,9.1,6.2,-3.0000000000000004,2.4000000000000004,10.700000000000001
1698745710.273,16,-1.3,0.1,1.3,-1.2000000000000002,8.6,5.9,-12.000000000000002,3.6,4.800000000000001
1698745710.289,16,-1.0,-0.7000000000000001,0.7000000000000001,-0.9,7.800000000000001,5.4,-30.299999999999997,4.2,-2.4000000000000004
1698745710.306,16,-1.0,-1.3,-0.30000000000000004,-1.0,7.1000000000000005,4.5,-36.3,4.0,-5.2
1698745710.323,16,-1.2000000000000002,-1.9000000000000001,-0.5,-1.2000000000000002,6.5,4.3,-33.800000000000004,-0.1,-4.9
1698745710.339,16,-1.7000000000000002,-2.2,-1.1,-1.7000000000000002,6.1000000000000005,3.8000000000000003,-23.8,-3.6,-6.4
1698745710.356,16,-1.6,-1.9000000000000001,-1.1,-1.6,6.4,3.9000000000000004,-15.8,-9.1,-13.9
1698745710.373,16,-1.5,-1.7000000000000002,-1.1,-1.5,6.5,3.8000000000000003,-14.0,-12.4,-18.1
1698745710.389,16,-1.1,-1.4000000000000001,-1.4000000000000001,-1.2000000000000002,6.9,3.6,-17.7,-17.7,-23.700000000000003
1698745710.406,16,-1.0,-1.4000000000000001,-1.6,-1.2000000000000002,6.800000000000001,3.4000000000000004,-28.3,-21.0,-25.3
1698745710.423,16,-0.9,-1.4000000000000001,-1.8,-1.1,6.7,3.3000000000000003,-32.7,-22.4,-25.5
1698745710.439,16,-0.8,-1.4000000000000001,-1.9000000000000001,-1.0,6.6000000000000005,3.2,-35.4,-26.8,-26.0
1698745710.456,16,-0.6000000000000001,-1.4000000000000001,-2.3000000000000003,-0.9,6.6000000000000005,3.0,-32.9,-35.6,-25.6
1698745710.473,16,-1.1,-1.4000000000000001,-2.3000000000000003,-1.4000000000000001,6.5,3.1,-28.6,-45.0,-21.700000000000003
1698745710.489,16,-1.3,-1.4000000000000001,-2.2,-1.5,6.5,3.2,-24.7,-48.2,-19.200000000000003
1698745710.506,16,-0.8,-0.8,-2.4000000000000004,-1.0,7.1000000000000005,3.0,-15.2,-45.800000000000004,-17.400000000000002
1698745710.523,16,0.9,0.1,-2.7,0.7000000000000001,7.9,2.7,-7.500000000000001,-34.400000000000006,-20.2
1698745710.539,16,1.3,0.6000000000000001,-2.4000000000000004,1.2000000000000002,8.4,3.0,-2.1,-26.8,-19.500000000000004
1698745710.556,16,1.9000000000000001,1.1,-1.6,1.7000000000000002,8.9,3.8000000000000003,16.1,0.8,-15.2
1698745710.573,16,1.9000000000000001,0.4,-2.2,1.7000000000000002,8.3,3.0,35.199999999999996,24.6,-0.7
1698745710.589,16,1.8,0.8,-2.4000000000000004,1.6,8.8,2.7,37.800000000000004,25.900000000000002,3.3000000000000003
1698745710.606,16,1.3,4.1000000000000005,-1.2000000000000002,1.0,12.200000000000001,3.8000000000000003,37.0,13.6,-5.8
1698745710.623,16,-1.3,3.7,1.3,-1.6,11.8,6.300000000000001,44.7,9.700000000000001,-9.700000000000001
1698745710.639,16,-2.1,2.6,2.0,-2.5,10.8,6.800000000000001,49.6,11.1,-10.700000000000001
1698745710.656,16,-2.2,1.8,4.0,-2.6,10.100000000000001,8.8,51.800000000000004,5.0,-25.700000000000003
1698745710.673,16,0.9,0.30000000000000004,5.4,0.30000000000000004,8.700000000000001,10.0,51.6,21.0,-42.7
1698745710.69,16,2.9000000000000004,-0.1,5.1000000000000005,2.3000000000000003,8.3,9.700000000000001,46.7,32.800000000000004,-51.6
1698745710.706,16,1.5,-1.6,2.6,0.7000000000000001,6.9,7.2,19.700000000000003,20.8,-57.2
1698745710.723,16,-0.6000000000000001,0.5,2.7,-1.6,8.9,7.300000000000001,-9.1,9.4,-28.900000000000002
1698745710.739,16,-1.3,1.7000000000000002,2.9000000000000004,-2.3000000000000003,10.100000000000001,7.5,-17.5,6.7,-25.3
1698745710.756,16,-1.4000000000000001,3.6,2.3000000000000003,-2.5,12.0,7.0,-19.0,6.4,-20.3
1698745710.773,16,-0.2,1.3,1.3,-1.4000000000000001,9.700000000000001,6.0,-19.9,4.1000000000000005,-9.1
1698745710.791,16,0.30000000000000004,0.30000000000000004,1.0,-0.30000000000000004,8.1,5.2,-19.700000000000003,1.7,-6.2
1698745710.806,16,1.2000000000000002,-0.6000000000000001,-0.1,0.0,7.7,4.7,-17.8,-3.3000000000000003,3.3000000000000003
1698745710.823,16,1.1,-0.8,-0.8,0.0,7.6000000000000005,4.1000000000000005,-13.6,-4.300000000000001,7.9
1698745710.84,16,1.2000000000000002,-1.3,-1.0,0.1,7.0,3.9000000000000004,-10.0,-3.7000000000000006,8.4
1698745710.856,16,1.1,-1.9000000000000001,-1.1,0.0,6.300000000000001,3.8000000000000003,-1.4,-1.7,10.9
1698745710.873,16,1.1,-2.0,-1.1,0.1,6.300000000000001,3.7,5.0,1.7,16.1
1698745710.889,16,1.0,-1.9000000000000001,-1.1,0.1,6.4,3.8000000000000003,6.1000000000000005,2.9,19.700000000000003
1698745710.906,16,0.9,-1.5,-1.3,0.0,6.7,3.6,1.9,8.200000000000001,26.0
1698745710.923,16,1.1,-1.0,-1.6,0.2,7.2,3.3000000000000003,-9.5,10.8,25.5
1698745710.939,16,1.1,-1.0,-1.6,0.30000000000000004,7.2,3.3000000000000003,-19.0,9.8,21.6
1698745710.956,16,0.9,-1.1,-1.7000000000000002,0.1,7.1000000000000005,3.2,-21.8,11.700000000000001,20.5
1698745710.973,16,0.4,-1.3,-1.9000000000000001,-0.30000000000000004,6.800000000000001,3.1,-23.0,15.5,18.8
1698745710.989,16,0.2,-1.8,-2.2,-0.5,6.4,2.8000000000000003,-20.5,20.2,14.100000000000001
1698745711.007,16,0.1,-1.9000000000000001,-2.4000000000000004,-0.6000000000000001,6.2,2.6,-17.200000000000003,22.900000000000002,10.4
1698745711.023,16,0.0,-1.3,-2.8000000000000003,-0.7000000000000001,6.7,2.2,-8.4,24.9,5.300000000000001
1698745711.039,16,-0.1,-0.30000000000000004,-2.4000000000000004,-0.9,7.800000000000001,2.6,5.0,18.3,3.4
1698745711.056,16,-0.1,0.0,-2.0,-0.9,8.1,2.9000000000000004,13.3,14.200000000000001,4.5
1698745711.073,16,0.1,0.30000000000000004,-1.0,-0.6000000000000001,8.4,3.8000000000000003,29.500000000000004,1.3,3.9
1698745711.089,16,0.1,0.2,-1.0,-0.7000000000000001,8.4,3.8000000000000003,32.9,-4.6000000000000005,2.0
1698745711.106,16,-0.2,1.5,-1.4000000000000001,-1.0,9.700000000000001,3.3000000000000003,19.9,4.800000000000001,3.0000000000000004
1698745711.124,16,-0.6000000000000001,3.3000000000000003,-1.8,-1.4000000000000001,11.600000000000001,2.9000000000000004,-5.1,19.3,7.8
1698745711.139,16,-0.6000000000000001,4.0,0.9,-1.4000000000000001,12.200000000000001,5.6000000000000005,-1.9,16.900000000000002,14.700000000000001
1698745711.157,16,-1.3,4.1000000000000005,2.1,-2.0,12.4,6.7,17.599999999999998,4.800000000000001,23.900000000000002
1698745711.172,16,-1.9000000000000001,2.9000000000000004,3.9000000000000004,-2.5,11.3,8.5,49.2,-12.3,34.300000000000004
1698745711.189,16,-2.5,2.9000000000000004,6.4,-3.0,11.5,10.8,64.30000000000001,-41.6,38.800000000000004
1698745711.206,16,-1.9000000000000001,1.3,5.5,-2.3000000000000003,9.8,9.9,47.300000000000004,-44.3,39.699999999999996
1698745711.225,16,1.6,-1.6,2.8000000000000003,1.3,7.0,7.300000000000001,-24.400000000000002,-22.5,23.6
1698745711.239,16,2.2,0.7000000000000001,3.1,2.0,9.200000000000001,7.7,-39.1,-5.6,21.400000000000002
1698745711.256,16,2.2,2.5,2.8000000000000003,2.1,11.0,7.4,-28.6,-2.4000000000000004,23.700000000000003
1698745711.273,16,1.2000000000000002,3.2,2.3000000000000003,1.2000000000000002,11.700000000000001,7.0,-6.1000000000000005,-2.7,29.300000000000004
1698745711.29,16,-0.1,0.0,1.9000000000000001,-0.1,8.5,6.7,-9.5,-0.1,18.8
1698745711.307,16,-0.4,-0.4,1.6,-0.30000000000000004,8.1,6.4,-20.8,5.500000000000001,13.4
1698745711.323,16,-0.5,-0.7000000000000001,0.6000000000000001,-0.4,7.7,5.5,-41.6,15.299999999999999,8.700000000000001
1698745711.339,16,-0.5,-1.9000000000000001,-0.4,-0.5,6.4,4.6000000000000005,-46.0,17.1,4.0
1698745711.356,16,-0.8,-2.7,-0.8,-0.8,5.6000000000000005,4.3,-42.1,18.5,4.800000000000001
1698745711.373,16,-1.1,-3.0,-1.6,-1.1,5.2,3.6,-30.100000000000005,18.8,2.8
1698745711.389,16,-1.1,-2.4000000000000004,-1.6,-1.2000000000000002,5.7,3.6,-16.2,13.9,-2.5
1698745711.406,16,-1.1,-2.1,-1.5,-1.2000000000000002,6.300000000000001,3.7,-5.1,10.5,-10.2
1698745711.423,16,-1.1,-1.4000000000000001,-1.6,-1.2000000000000002,6.7,3.6,-3.4,9.3,-12.700000000000001
1698745711.439,16,-1.1,-1.1,-1.6,-1.2000000000000002,7.0,3.6,-4.800000000000001,7.0,-14.0
1698745711.456,16,-1.4000000000000001,-0.8,-1.6,-1.6,7.2,3.7,-12.000000000000002,0.6000000000000001,-10.9
1698745711.473,16,-1.4000000000000001,-0.8,-1.8,-1.6,7.2,3.5,-20.8,-7.500000000000001,-6.9
1698745711.489,16,-0.9,-1.2000000000000002,-1.9000000000000001,-1.2000000000000002,6.800000000000001,3.4000000000000004,-25.2,-22.6,-8.5
1698745711.506,16,-0.9,-1.3,-2.0,-1.2000000000000002,6.6000000000000005,3.3000000000000003,-25.6,-31.2,-9.4
1698745711.523,16,-1.2000000000000002,-1.1,-2.3000000000000003,-1.4000000000000001,6.800000000000001,3.1,-23.3,-45.6,-9.4
1698745711.539,16,-1.3,-0.8,-2.4000000000000004,-1.4000000000000001,7.1000000000000005,3.1,-17.7,-50.6,-13.3
1698745711.556,16,0.2,0.0,-2.6,-0.8,7.5,3.0,-12.100000000000001,-47.7,-17.400000000000002
1698745711.573,16,0.7000000000000001,0.2,-2.5,0.6000000000000001,8.0,3.0,2.1999999999999997,-38.5,-21.400000000000002
1698745711.589,16,0.7000000000000001,0.2,-1.4000000000000001,0.7000000000000001,8.0,4.0,22.2,-20.7,-13.700000000000001
1698745711.606,16,0.8,-0.1,-1.1,0.7000000000000001,7.800000000000001,4.2,34.6,-7.400000000000001,-8.200000000000001
1698745711.623,16,1.2000000000000002,0.7000000000000001,-2.8000000000000003,1.2000000000000002,8.6,2.4000000000000004,44.00000000000001,-3.9,2.7
1698745711.639,16,1.2000000000000002,3.6,-0.8,1.1,11.600000000000001,4.3,31.7,-22.2,-2.6
1698745711.656,16,0.30000000000000004,4.3,1.6,0.30000000000000004,12.5,6.5,39.699999999999996,-5.500000000000001,-14.3
1698745711.673,16,-0.6000000000000001,3.5,2.3000000000000003,-0.6000000000000001,11.700000000000001,7.2,45.800000000000004,4.300000000000001,-17.0
1698745711.689,16,-0.9,2.5,4.1000000000000005,-1.0,10.8,9.0,51.6,-6.3,-26.6
1698745711.706,16,-0.4,1.5,5.1000000000000005,-0.6000000000000001,9.9,9.8,50.2,-1.6,-30.799999999999997
1698745711.723,16,2.2,0.6000000000000001,4.5,1.9000000000000001,9.1,9.200000000000001,36.800000000000004,25.2,-42.300000000000004
1698745711.739,16,0.7000000000000001,-1.2000000000000002,2.5,0.2,7.2,7.2,7.400000000000001,24.9,-48.6
1698745711.756,16,0.8,-0.8,2.6,0.2,7.6000000000000005,7.300000000000001,-5.0,14.600000000000001,-38.400000000000006
1698745711.773,16,-0.6000000000000001,1.5,3.1,-1.3,9.9,7.9,-17.9,8.4,-26.0
1698745711.791,16,-1.1,3.1,2.7,-1.8,11.5,7.5,-17.7,8.700000000000001,-19.500000000000004
1698745711.806,16,-0.5,1.2000000000000002,1.4000000000000001,-1.3,9.5,6.300000000000001,-25.3,7.2,-11.5
1698745711.823,16,-0.30000000000000004,0.4,1.0,-1.1,8.700000000000001,6.0,-30.799999999999997,4.300000000000001,-10.700000000000001
1698745711.839,16,0.2,-0.5,-0.4,-0.7000000000000001,7.800000000000001,4.7,-35.7,3.0000000000000004,-4.800000000000001
1698745711.856,16,0.9,-1.5,-1.3,0.1,6.7,3.8000000000000003,-31.099999999999998,1.6,-0.8
1698745711.873,16,1.1,-1.5,-1.6,0.30000000000000004,6.6000000000000005,3.5,-25.0,1.7,0.0
1698745711.889,16,1.2000000000000002,-1.6,-1.9000000000000001,0.4,6.5,3.3000000000000003,-9.1,0.4,5.500000000000001
1698745711.906,16,1.0,-1.8,-1.9000000000000001,0.2,6.300000000000001,3.2,-1.4,-0.1,10.2
1698745711.923,16,0.7000000000000001,-2.2,-1.7000000000000002,-0.1,5.9,3.5,9.200000000000001,-0.2,18.900000000000002
1698745711.939,16,0.6000000000000001,-2.2,-1.5,-0.1,6.0,3.6,13.0,0.8,22.2
1698745711.956,16,0.8,-1.6,-1.7000000000000002,0.2,6.6000000000000005,3.4000000000000004,9.600000000000001,1.8,22.7
1698745711.973,16,0.8,-1.2000000000000002,-1.7000000000000002,0.2,7.0,3.3000000000000003,6.000000000000001,5.0,23.1
1698745711.99,16,0.7000000000000001,-0.5,-2.0,0.2,7.6000000000000005,3.0,-2.0,11.4,23.1
1698745712.006,16,0.5,-0.5,-2.0,-0.2,7.6000000000000005,3.1,-8.1,18.3,21.3
1698745712.023,16,0.30000000000000004,-0.6000000000000001,-2.0,-0.2,7.5,3.0,-9.0,20.4,18.8
1698745712.039,16,0.1,-1.0,-2.3000000000000003,-0.30000000000000004,7.1000000000000005,2.7,-9.9,24.9,15.299999999999999
1698745712.056,16,0.6000000000000001,-1.2000000000000002,-2.5,0.1,6.9,2.5,-8.1,33.0,11.5
1698745712.072,16,0.8,-1.1,-2.4000000000000004,0.30000000000000004,6.9,2.6,-4.5,36.800000000000004,9.4
1698745712.09,16,1.0,-0.2,-2.0,0.5,7.9,2.9000000000000004,9.9,42.400000000000006,11.700000000000001
1698745712.106,16,0.7000000000000001,0.7000000000000001,-1.8,0.1,8.8,3.0,24.200000000000003,42.6,19.8
1698745712.123,16,0.4,1.0,-1.5,-0.1,9.1,3.3000000000000003,27.900000000000002,41.5,21.700000000000003
1698745712.139,16,0.4,1.0,-0.9,-0.2,9.200000000000001,3.8000000000000003,31.4,25.5,17.400000000000002
1698745712.156,16,-0.7000000000000001,1.3,-1.9000000000000001,-1.3,9.5,2.8000000000000003,20.2,21.3,16.2
1698745712.173,16,-1.1,2.3000000000000003,-2.8000000000000003,-1.6,10.600000000000001,1.8,5.9,28.200000000000003,19.200000000000003
1698745712.19,16,-1.1,4.4,0.5,-1.7000000000000002,12.700000000000001,5.1000000000000005,-9.8,27.2,19.1
1698745712.206,16,-2.8000000000000003,4.1000000000000005,1.4000000000000001,-3.3000000000000003,12.4,6.0,31.3,-10.700000000000001,42.2
1698745712.223,16,-2.2,2.3000000000000003,1.9000000000000001,-2.5,10.700000000000001,6.5,40.0,-24.000000000000004,45.2
1698745712.239,16,-1.9000000000000001,2.3000000000000003,4.5,-2.2,10.8,9.0,45.7,-13.5,20.3
1698745712.256,16,-0.8,0.7000000000000001,4.1000000000000005,-1.0,9.3,8.5,26.6,-11.5,21.1
1698745712.273,16,-0.1,-0.30000000000000004,3.8000000000000003,-0.30000000000000004,8.3,8.200000000000001,5.2,-8.3,19.200000000000003
1698745712.289,16,0.8,-1.7000000000000002,3.0,0.7000000000000001,6.9,7.4,-25.3,-4.300000000000001,23.900000000000002
1698745712.306,16,1.1,0.4,2.9000000000000004,1.1,8.9,7.5,-24.8,-6.5,32.6
1698745712.323,16,0.8,1.5,2.5,0.8,10.0,7.1000000000000005,-17.7,-9.600000000000001,32.7
1698745712.339,16,-0.30000000000000004,1.7000000000000002,2.4000000000000004,-0.1,10.200000000000001,7.1000000000000005,-10.9,-11.1,22.3
1698745712.356,16,-0.5,1.4000000000000001,1.6,-0.30000000000000004,9.9,6.300000000000001,-16.0,-5.6,2.3000000000000003
1698745712.373,16,-0.6000000000000001,0.2,0.4,-0.5,8.6,5.300000000000001,-32.0,4.2,-6.7
1698745712.389,16,-0.7000000000000001,-0.5,0.1,-0.6000000000000001,7.9,5.0,-35.8,6.6000000000000005,-6.8
1698745712.406,16,-1.0,-1.8,-0.6000000000000001,-0.8,6.5,4.4,-30.599999999999998,5.300000000000001,-3.8
1698745712.423,16,-1.0,-2.1,-1.2000000000000002,-0.9,6.2,3.9000000000000004,-19.200000000000003,4.7,-2.1999999999999997
1698745712.441,16,-1.1,-1.9000000000000001,-1.3,-1.0,6.4,3.7,-13.8,2.0,-4.1000000000000005
1698745712.456,16,-1.3,-1.6,-1.7000000000000002,-1.2000000000000002,6.7,3.4000000000000004,-7.0,-3.5,-9.700000000000001
1698745712.473,16,-1.4000000000000001,-1.6,-1.7000000000000002,-1.4000000000000001,6.6000000000000005,3.3000000000000003,-5.8,-6.7,-12.4
1698745712.49,16,-1.5,-1.8,-1.8,-1.5,6.4,3.3000000000000003,-5.9,-14.3,-18.0
1698745712.506,16,-1.1,-1.7000000000000002,-2.0,-1.2000000000000002,6.5,3.1,-7.500000000000001,-17.599999999999998,-22.1
1698745712.523,16,-0.9,-1.4000000000000001,-2.0,-1.0,6.800000000000001,3.1,-8.200000000000001,-17.9,-23.400000000000002
1698745712.541,16,-0.6000000000000001,-0.7000000000000001,-2.1,-0.7000000000000001,7.4,3.0,-7.699999999999999,-20.1,-21.400000000000002
1698745712.556,16,-0.7000000000000001,-0.6000000000000001,-1.9000000000000001,-0.8,7.5,3.2,-8.0,-23.400000000000002,-15.5
1698745712.572,16,-1.0,-0.7000000000000001,-2.1,-1.1,7.4,2.9000000000000004,-9.4,-24.5,-12.9
1698745712.589,16,-1.4000000000000001,-0.8,-2.4000000000000004,-1.5,7.2,2.7,-15.5,-33.0,-10.5
1698745712.606,16,-1.4000000000000001,-0.8,-2.8000000000000003,-1.5,7.2,2.4000000000000004,-16.6,-41.0,-8.3
1698745712.622,16,-1.1,-0.5,-2.6,-1.1,7.5,2.5,-12.700000000000001,-40.9,-9.0
1698745712.64,16,-0.6000000000000001,0.0,-2.5,-0.6000000000000001,8.0,2.6,3.8,-29.800000000000004,-15.399999999999999
1698745712.656,16,0.30000000000000004,0.7000000000000001,-1.3,0.2,8.700000000000001,3.8000000000000003,30.299999999999997,-8.799999999999999,-22.000000000000004
1698745712.672,16,0.8,0.8,-1.4000000000000001,0.9,9.200000000000001,2.7,56.2,7.300000000000001,-21.6
1698745712.689,16,1.2000000000000002,1.8,-2.8000000000000003,1.0,10.0,2.0,57.00000000000001,4.1000000000000005,-20.3
1698745712.706,16,1.2000000000000002,4.1000000000000005,-0.30000000000000004,1.0,12.5,4.3,48.400000000000006,-8.799999999999999,-27.5
1698745712.722,16,-0.2,3.5,2.6,-0.6000000000000001,11.9,7.1000000000000005,54.9,4.5,-36.5
1698745712.74,16,-1.1,2.4000000000000004,3.2,-1.5,10.9,7.6000000000000005,55.7,9.700000000000001,-36.5
1698745712.756,16,-1.2000000000000002,2.1,4.800000000000001,-1.7000000000000002,10.700000000000001,9.200000000000001,43.0,-4.2,-38.5
1698745712.773,16,1.2000000000000002,0.5,4.9,0.6000000000000001,9.1,9.1,30.7,2.5,-48.400000000000006
1698745712.79,16,2.1,0.4,4.5,1.4000000000000001,9.0,8.8,24.6,9.9,-57.800000000000004
1698745712.806,16,1.1,-0.2,3.0,0.2,8.4,7.300000000000001,10.5,-2.4000000000000004,-58.3
1698745712.823,16,0.6000000000000001,1.2000000000000002,2.9000000000000004,-0.4,9.9,7.2,-11.700000000000001,-12.200000000000001,-38.800000000000004
1698745712.839,16,0.1,1.9000000000000001,3.1,-1.0,10.5,7.5,-18.5,-13.200000000000001,-35.8
1698745712.856,16,0.1,2.2,2.5,-1.0,10.8,6.9,-21.0,-10.9,-27.5
1698745712.872,16,0.7000000000000001,1.3,1.1,-0.4,9.8,5.6000000000000005,-23.8,-8.600000000000001,-15.7
1698745712.889,16,1.2000000000000002,0.6000000000000001,0.4,0.0,9.1,4.9,-24.400000000000002,-9.9,-10.9
1698745712.907,16,1.7000000000000002,-0.30000000000000004,-0.5,0.5,8.200000000000001,4.1000000000000005,-23.5,-9.0,0.6000000000000001
1698745712.922,16,1.7000000000000002,-1.7000000000000002,-1.1,0.6000000000000001,6.7,3.6,-18.2,-0.8,3.0000000000000004
1698745712.939,16,1.8,-2.3000000000000003,-1.2000000000000002,0.7000000000000001,6.1000000000000005,3.5,-14.200000000000001,0.0,2.6
1698745712.956,16,1.8,-2.8000000000000003,-1.3,0.7000000000000001,5.6000000000000005,3.4000000000000004,-6.3,5.0,4.7
1698745712.973,16,1.6,-2.6,-1.3,0.6000000000000001,5.800000000000001,3.4000000000000004,0.4,8.0,13.6
1698745712.989,16,0.9,-2.1,-1.3,-0.1,6.2,3.4000000000000004,2.6,11.5,25.700000000000003
1698745713.006,16,0.7000000000000001,-1.9000000000000001,-1.4000000000000001,-0.2,6.4,3.3000000000000003,1.3,13.5,29.000000000000004
1698745713.022,16,0.6000000000000001,-1.2000000000000002,-1.6,-0.30000000000000004,7.1000000000000005,3.1,-7.0,14.800000000000002,27.7
1698745713.039,16,0.8,-1.1,-1.6,-0.1,7.300000000000001,3.0,-11.9,17.8,24.7
1698745713.056,16,0.8,-1.0,-1.7000000000000002,-0.1,7.300000000000001,2.9000000000000004,-18.6,20.900000000000002,18.900000000000002
1698745713.073,16,0.7000000000000001,-1.1,-1.7000000000000002,-0.1,7.2,3.0,-21.6,22.7,15.9
1698745713.09,16,0.4,-1.3,-2.1,-0.4,6.9,2.6,-20.3,24.200000000000003,12.6
1698745713.106,16,0.30000000000000004,-1.4000000000000001,-2.4000000000000004,-0.5,6.800000000000001,2.4000000000000004,-19.200000000000003,26.700000000000003,11.3
1698745713.123,16,0.2,-1.3,-2.6,-0.6000000000000001,6.9,2.2,-14.4,28.400000000000002,8.700000000000001
1698745713.14,16,0.0,-1.0,-2.6,-1.0,7.5,2.1,-4.2,27.5,8.0
1698745713.156,16,-0.1,-0.2,-2.6,-1.0,7.9,2.1,2.1999999999999997,25.8,8.0
1698745713.173,16,-0.2,0.6000000000000001,-1.5,-1.1,8.8,3.2,18.8,12.9,4.7
1698745713.189,16,-0.4,0.6000000000000001,-1.6,-1.3,8.9,3.0,31.3,-3.3000000000000003,-2.6
1698745713.206,16,-0.7000000000000001,1.2000000000000002,-1.9000000000000001,-1.6,9.5,2.6,27.0,-2.1999999999999997,-3.3000000000000003
1698745713.223,16,-0.5,2.7,-1.8,-1.4000000000000001,11.0,2.7,5.8,20.0,-3.5
1698745713.239,16,0.1,3.8000000000000003,1.0,-0.8,12.100000000000001,5.5,9.1,14.900000000000002,-0.4
1698745713.257,16,-0.2,4.7,3.0,-1.1,13.100000000000001,7.5,26.8,3.9,11.2
1698745713.273,16,-1.3,3.4000000000000004,4.3,-2.2,11.9,8.6,63.6,-19.500000000000004,32.1
1698745713.289,16,-1.0,1.5,4.4,-1.8,10.100000000000001,8.6,45.7,-23.8,23.5
1698745713.306,16,-0.2,0.2,4.9,-0.8,8.9,9.1,23.700000000000003,-29.000000000000004,18.0
1698745713.323,16,0.7000000000000001,-1.0,3.7,0.1,7.6000000000000005,7.9,-10.5,-37.1,25.2
1698745713.339,16,0.7000000000000001,-0.5,3.0,0.2,8.1,7.300000000000001,-22.5,-31.5,26.700000000000003
