msFromStart,interval,accx,accy,accz,accGx,accGy,accGz,rotRate_alpha,rotRate_beta,rotRate_gamma
1698920120009.0,16,0.1,-0.1,0.1,0.2,9.3,1.8,2.3000000000000003,-4.6000000000000005,0.0
1698920120025.0,16,0.1,-0.1,0.1,0.2,9.3,1.8,3.3000000000000003,-3.6,0.1
1698920120041.0,16,0.1,-0.2,0.1,0.1,9.200000000000001,1.8,3.9,-2.3000000000000003,0.30000000000000004
1698920120059.0,16,0.1,-0.1,0.1,0.1,9.3,1.6,4.2,-1.7,0.4
1698920120075.0,16,0.0,-0.1,-0.2,0.1,9.3,1.5,2.8,0.9,0.8
1698920120092.0,16,0.0,0.0,0.0,0.1,9.4,1.7000000000000002,0.4,2.1999999999999997,1.3
1698920120109.0,16,0.1,0.2,0.0,0.2,9.600000000000001,1.6,-0.2,3.0000000000000004,1.2000000000000002
1698920120125.0,16,0.2,0.5,-0.1,0.30000000000000004,9.8,1.5,-1.7,5.2,0.6000000000000001
1698920120141.0,16,0.1,0.30000000000000004,-0.2,0.2,9.600000000000001,1.5,-3.0000000000000004,3.5,0.1
1698920120159.0,16,0.0,0.2,-0.2,0.1,9.600000000000001,1.5,-4.2,2.4000000000000004,-0.8
1698920120175.0,16,-0.1,0.1,-0.2,0.0,9.4,1.5,-4.300000000000001,1.7,-1.5000000000000002
1698920120192.0,16,-0.1,-0.2,-0.2,-0.1,9.200000000000001,1.4000000000000001,-3.7000000000000006,0.1,-2.4000000000000004
1698920120208.0,16,-0.2,-0.30000000000000004,-0.30000000000000004,-0.1,9.1,1.4000000000000001,-3.4,-0.30000000000000004,-2.7
1698920120225.0,16,-0.1,-0.2,-0.1,-0.1,9.200000000000001,1.6,-3.1,-0.5,-2.4000000000000004
1698920120242.0,16,-0.1,0.0,0.0,0.0,9.4,1.7000000000000002,-2.5,-0.6000000000000001,-2.1999999999999997
1698920120258.0,16,0.0,0.0,0.0,0.0,9.3,1.7000000000000002,-2.8,-0.6000000000000001,-2.1999999999999997
1698920120275.0,16,0.0,0.0,0.1,0.0,9.4,1.8,-3.0000000000000004,-0.4,-2.1
1698920120292.0,16,0.0,0.0,0.1,0.0,9.4,1.8,-3.3000000000000003,-0.9,-1.9
1698920120309.0,16,0.0,0.0,0.1,0.0,9.4,1.8,-3.5,-0.8,-1.7
1698920120325.0,16,-0.1,0.0,0.1,0.0,9.3,1.9000000000000001,-3.5,-1.0999999999999999,-1.2000000000000002
1698920120342.0,16,-0.1,0.0,0.1,-0.1,9.3,1.8,-3.7000000000000006,-1.4,-0.9
1698920120359.0,16,-0.1,-0.1,0.1,-0.1,9.3,1.8,-3.6,-1.2000000000000002,-0.9
1698920120375.0,16,0.0,0.0,0.1,0.0,9.3,1.9000000000000001,-3.1,-1.0999999999999999,-0.8
1698920120391.0,16,0.1,0.0,-0.1,0.1,9.3,1.7000000000000002,-3.0000000000000004,-0.9,-0.7
1698920120409.0,16,0.1,0.0,0.0,0.1,9.3,1.8,-3.1,-0.6000000000000001,-0.5
1698920120425.0,16,0.1,0.0,0.0,0.1,9.3,1.9000000000000001,-3.1,-0.7,-0.5
1698920120442.0,16,0.0,0.0,0.0,0.0,9.3,1.8,-3.2,-0.4,-0.6000000000000001
1698920120459.0,16,0.0,0.0,0.0,0.0,9.3,1.8,-2.9,-0.9,-0.8
1698920120475.0,16,0.0,0.0,0.0,0.0,9.3,1.8,-2.7,-1.2000000000000002,-1.0
1698920120491.0,16,0.0,-0.1,0.0,0.0,9.3,1.8,-2.4000000000000004,-1.4,-1.0999999999999999
1698920120508.0,16,0.0,-0.1,0.0,0.0,9.3,1.9000000000000001,-2.1,-1.5000000000000002,-1.5000000000000002
1698920120525.0,16,0.0,0.0,0.0,0.0,9.3,1.9000000000000001,-1.8,-1.4,-1.7
1698920120542.0,16,0.0,0.0,0.0,0.0,9.3,1.9000000000000001,-1.4,-0.9,-1.5000000000000002
1698920120558.0,16,0.0,0.0,0.0,0.0,9.3,1.9000000000000001,-1.6,-0.30000000000000004,-1.6
1698920120575.0,16,-0.1,0.0,0.0,-0.1,9.3,1.9000000000000001,-1.5000000000000002,-0.1,-1.5000000000000002
1698920120592.0,16,0.0,0.0,0.1,-0.1,9.3,2.0,-0.4,0.30000000000000004,-1.2000000000000002
1698920120608.0,16,0.0,-0.1,0.1,-0.1,9.200000000000001,2.0,0.6000000000000001,0.8,-1.0999999999999999
1698920120626.0,16,0.0,-0.1,0.0,0.0,9.200000000000001,1.9000000000000001,0.9,1.0999999999999999,-1.0999999999999999
1698920120642.0,16,-0.1,-0.1,0.0,-0.1,9.200000000000001,1.9000000000000001,0.8,1.6,-0.9
1698920120658.0,16,-0.1,0.0,0.0,-0.1,9.3,1.9000000000000001,0.8,1.8,-0.8
1698920120675.0,16,-0.1,0.1,0.0,-0.1,9.4,1.9000000000000001,0.5,1.0,-0.5
1698920120692.0,16,-0.1,0.1,0.0,-0.1,9.4,1.9000000000000001,0.5,1.0,-0.2
1698920120709.0,16,-0.1,0.1,0.0,-0.1,9.4,1.9000000000000001,0.5,0.8,-0.1
1698920120725.0,16,-0.1,0.1,0.0,-0.1,9.4,1.9000000000000001,0.9,0.5,0.2
1698920120742.0,16,-0.1,0.0,0.0,-0.1,9.3,1.8,0.8,0.30000000000000004,0.4
1698920120758.0,16,-0.1,0.0,-0.1,-0.1,9.3,1.8,0.8,0.30000000000000004,0.6000000000000001
1698920120775.0,16,0.0,0.0,0.0,-0.1,9.3,1.8,1.0999999999999999,0.30000000000000004,0.7
1698920120792.0,16,0.0,0.0,0.0,0.0,9.3,1.8,1.2000000000000002,0.2,0.8
1698920120808.0,16,0.0,0.0,-0.1,0.0,9.3,1.8,1.3,0.4,0.9
1698920120825.0,16,0.0,0.0,-0.1,0.0,9.3,1.8,1.0,0.5,0.9
1698920120842.0,16,0.0,0.1,-0.1,0.0,9.4,1.8,0.7,-0.1,0.9
1698920120858.0,16,0.0,0.1,0.0,0.0,9.4,1.8,0.6000000000000001,-0.30000000000000004,1.0
1698920120875.0,16,0.0,0.1,0.0,0.0,9.4,1.8,0.6000000000000001,-0.4,0.9
1698920120891.0,16,0.1,0.1,0.0,0.1,9.5,1.8,1.0,-0.30000000000000004,1.0
1698920120909.0,16,0.0,0.0,0.0,0.0,9.4,1.8,1.0999999999999999,-0.30000000000000004,0.7
1698920120924.0,16,0.0,0.0,-0.1,0.0,9.4,1.8,1.2000000000000002,-0.2,0.4
1698920120941.0,16,0.0,0.0,0.0,0.0,9.3,1.8,1.4,0.0,0.30000000000000004
1698920120958.0,16,-0.1,-0.1,-0.1,-0.1,9.3,1.8,1.6,0.5,0.6000000000000001
1698920120975.0,16,-0.1,0.0,0.0,-0.1,9.3,1.8,1.7,0.7,1.0
1698920120991.0,16,0.0,0.0,0.0,0.0,9.3,1.8,1.4,0.5,1.2000000000000002
1698920121008.0,16,0.1,-0.1,0.0,0.0,9.3,1.8,1.3,0.30000000000000004,1.4
1698920121025.0,16,0.1,0.0,0.1,0.1,9.3,1.8,1.7,1.0,1.2000000000000002
1698920121042.0,16,0.1,0.1,0.1,0.1,9.4,1.9000000000000001,2.0,1.2000000000000002,1.2000000000000002
1698920121058.0,16,0.0,0.2,0.0,0.0,9.5,1.8,1.4,1.8,1.5000000000000002
1698920121075.0,16,0.0,0.0,0.0,0.0,9.4,1.8,-0.2,1.0,1.8
1698920121092.0,16,-0.1,0.0,0.0,0.0,9.3,1.8,-0.30000000000000004,0.30000000000000004,1.7
1698920121108.0,16,0.0,0.0,0.0,0.0,9.3,1.8,0.1,0.2,1.6
1698920121125.0,16,0.0,0.0,0.0,0.1,9.4,1.8,0.5,-0.6000000000000001,1.0999999999999999
1698920121143.0,16,0.1,0.1,0.0,0.1,9.4,1.8,0.30000000000000004,-1.3,0.9
1698920121158.0,16,0.1,0.1,0.0,0.1,9.4,1.8,0.30000000000000004,-2.0,0.4
1698920121175.0,16,0.1,0.0,-0.1,0.1,9.4,1.7000000000000002,0.6000000000000001,-1.0999999999999999,-0.1
1698920121191.0,16,0.1,0.0,-0.1,0.1,9.3,1.7000000000000002,0.5,-0.6000000000000001,-0.30000000000000004
1698920121208.0,16,0.1,0.0,0.0,0.1,9.3,1.7000000000000002,1.0999999999999999,0.0,-0.2
1698920121226.0,16,0.1,0.0,0.0,0.1,9.3,1.7000000000000002,1.3,0.30000000000000004,-0.2
1698920121242.0,16,0.0,0.0,0.0,0.1,9.4,1.8,1.9,1.0999999999999999,-0.30000000000000004
1698920121258.0,16,0.0,0.0,0.0,0.0,9.3,1.8,2.0,1.8,-0.4
1698920121275.0,16,0.0,0.0,0.0,0.0,9.3,1.7000000000000002,1.8,2.1,-0.5
1698920121293.0,16,-0.1,0.0,0.1,0.0,9.3,1.8,1.6,1.4,-0.7
1698920121308.0,16,0.0,0.0,0.0,0.0,9.3,1.8,2.1999999999999997,2.1,-0.7
1698920121325.0,16,0.0,-0.1,0.0,0.0,9.3,1.7000000000000002,2.3000000000000003,2.1,-0.7
1698920121342.0,16,0.0,0.0,0.0,0.0,9.4,1.7000000000000002,2.5,2.4000000000000004,-1.0
1698920121358.0,16,-0.1,0.0,0.0,-0.1,9.4,1.7000000000000002,2.1,2.4000000000000004,-0.8
1698920121375.0,16,0.0,0.0,0.0,0.0,9.4,1.7000000000000002,1.4,1.4,-0.6000000000000001
1698920121392.0,16,0.0,0.0,0.0,0.0,9.4,1.7000000000000002,1.0999999999999999,1.0999999999999999,-0.6000000000000001
1698920121409.0,16,0.1,0.0,0.1,0.1,9.4,1.8,1.5000000000000002,2.1,-0.1
1698920121425.0,16,0.0,0.0,0.0,0.0,9.3,1.7000000000000002,0.9,2.9,0.8
1698920121442.0,16,0.0,0.0,0.0,0.0,9.3,1.7000000000000002,0.5,3.0000000000000004,1.3
1698920121458.0,16,-0.1,0.1,0.0,-0.1,9.4,1.7000000000000002,0.6000000000000001,2.6,1.4
1698920121475.0,16,-0.1,0.1,0.0,-0.1,9.5,1.7000000000000002,1.0,2.0,0.7
1698920121492.0,16,-0.1,0.0,0.0,-0.1,9.4,1.7000000000000002,1.0999999999999999,1.4,0.6000000000000001
1698920121508.0,16,-0.1,-0.1,-0.1,-0.1,9.3,1.6,0.9,-0.6000000000000001,0.6000000000000001
1698920121525.0,16,0.0,-0.1,-0.1,0.0,9.3,1.6,1.2000000000000002,-2.3000000000000003,0.9
1698920121542.0,16,0.0,-0.1,-0.1,0.0,9.3,1.6,1.3,-2.9,0.9
1698920121559.0,16,0.0,0.0,-0.1,0.0,9.4,1.6,0.6000000000000001,-4.3999999999999995,0.7
1698920121575.0,16,0.1,0.1,-0.1,0.1,9.4,1.6,-0.2,-4.5,0.5
1698920121592.0,16,0.1,0.0,0.0,0.1,9.4,1.6,-0.30000000000000004,-4.2,0.4
1698920121608.0,16,0.1,0.0,0.0,0.2,9.4,1.6,-0.30000000000000004,-4.2,0.1
1698920121625.0,16,0.2,0.0,0.0,0.2,9.4,1.6,-1.0999999999999999,-4.300000000000001,0.0
1698920121642.0,16,0.2,0.0,0.0,0.2,9.4,1.7000000000000002,-1.3,-4.2,0.0
1698920121658.0,16,0.2,0.0,0.0,0.30000000000000004,9.4,1.7000000000000002,-1.4,-3.3000000000000003,0.0
1698920121675.0,16,0.2,0.0,0.1,0.2,9.4,1.8,-1.4,-2.0,-0.1
1698920121692.0,16,0.1,0.0,0.1,0.2,9.3,1.8,-1.2000000000000002,-1.5000000000000002,-0.2
1698920121709.0,16,0.1,-0.1,0.1,0.2,9.3,1.8,-0.8,-0.5,-0.5
1698920121725.0,16,0.0,-0.1,0.1,0.1,9.3,1.8,-0.2,0.2,-0.8
1698920121742.0,16,0.0,-0.1,0.1,0.1,9.3,1.8,0.1,0.7,-0.9
1698920121758.0,16,0.0,-0.1,0.1,0.0,9.3,1.8,0.8,1.4,-1.2000000000000002
1698920121775.0,16,0.0,0.0,0.1,0.0,9.3,1.8,1.5000000000000002,1.9,-1.3
1698920121791.0,16,0.0,0.0,0.0,0.0,9.3,1.7000000000000002,1.7,2.1,-1.3
1698920121808.0,16,-0.1,0.0,0.0,0.0,9.4,1.6,1.2000000000000002,1.9,-1.3
1698920121825.0,16,-0.1,0.0,0.0,0.0,9.4,1.7000000000000002,0.6000000000000001,1.0999999999999999,-1.4
1698920121842.0,16,0.0,0.0,0.0,0.0,9.4,1.7000000000000002,0.6000000000000001,1.0999999999999999,-1.4
1698920121858.0,16,-0.1,0.1,0.0,0.0,9.4,1.7000000000000002,0.7,0.9,-1.5000000000000002
1698920121875.0,16,0.0,0.0,0.0,0.0,9.4,1.7000000000000002,1.0999999999999999,0.5,-1.5000000000000002
1698920121892.0,16,-0.1,0.0,0.0,-0.1,9.3,1.7000000000000002,1.0999999999999999,0.5,-1.2000000000000002
1698920121908.0,16,-0.1,0.0,0.0,-0.1,9.3,1.6,1.0999999999999999,0.5,-1.0999999999999999
1698920121925.0,16,-0.1,0.0,0.0,-0.1,9.4,1.6,0.9,0.4,-1.0999999999999999
1698920121941.0,16,0.0,0.0,-0.1,0.0,9.4,1.6,0.9,0.2,-0.5
1698920121958.0,16,0.0,0.0,-0.1,0.0,9.4,1.6,0.9,0.0,-0.2
1698920121975.0,16,-0.1,0.0,-0.1,-0.1,9.4,1.6,0.6000000000000001,-0.4,0.1
1698920121992.0,16,0.0,0.0,-0.1,-0.1,9.4,1.6,0.30000000000000004,-0.8,0.1
1698920122009.0,16,0.0,0.0,0.0,0.0,9.4,1.7000000000000002,0.1,-1.7,-0.1
1698920122025.0,16,0.0,0.1,-0.1,0.0,9.4,1.6,0.1,-1.2000000000000002,-0.30000000000000004
1698920122041.0,16,0.0,0.1,0.0,0.0,9.4,1.6,0.0,-1.4,-0.1
1698920122058.0,16,0.0,0.1,-0.1,0.0,9.4,1.6,-0.2,-1.6,-0.30000000000000004
1698920122075.0,16,0.0,0.1,-0.1,0.0,9.5,1.5,-1.0999999999999999,-2.0,-0.4
1698920122091.0,16,0.0,0.1,-0.1,0.0,9.5,1.6,-1.4,-3.6,-0.4
1698920122109.0,16,0.0,0.1,0.0,0.0,9.5,1.6,-1.2000000000000002,-3.9,-0.30000000000000004
1698920122125.0,16,0.1,-0.1,0.0,0.1,9.3,1.7000000000000002,-0.4,-3.4,-0.8
1698920122141.0,16,0.1,-0.1,0.0,0.0,9.200000000000001,1.7000000000000002,-0.30000000000000004,-2.1999999999999997,-1.0999999999999999
1698920122158.0,16,0.0,-0.1,0.0,0.0,9.3,1.7000000000000002,-0.4,-1.9,-1.0999999999999999
1698920122175.0,16,0.0,0.1,0.0,0.0,9.4,1.6,-0.8,-1.0,-0.6000000000000001
1698920122192.0,16,0.0,0.1,0.1,0.0,9.5,1.7000000000000002,-1.0999999999999999,-0.6000000000000001,-0.2
1698920122208.0,16,0.0,0.1,0.1,0.0,9.5,1.8,-1.3,-0.30000000000000004,0.0
1698920122225.0,16,0.0,0.0,0.1,0.0,9.4,1.8,-1.6,0.4,-0.1
1698920122242.0,16,0.0,0.0,0.1,0.0,9.3,1.8,-1.7,0.9,-0.30000000000000004
1698920122258.0,16,0.0,-0.1,0.1,0.0,9.3,1.8,-1.6,1.0999999999999999,-0.30000000000000004
1698920122275.0,16,0.0,-0.1,0.1,0.0,9.3,1.8,-1.4,1.9,-0.4
1698920122291.0,16,0.0,-0.1,0.0,0.0,9.3,1.7000000000000002,-0.9,2.5,-0.30000000000000004
1698920122308.0,16,0.0,-0.1,0.0,-0.1,9.3,1.7000000000000002,-0.6000000000000001,2.7,-0.2
1698920122325.0,16,-0.1,-0.1,0.0,-0.2,9.3,1.7000000000000002,-0.2,2.8,0.0
1698920122341.0,16,-0.1,-0.1,0.0,-0.2,9.3,1.7000000000000002,0.6000000000000001,2.1999999999999997,0.0
1698920122358.0,16,-0.1,-0.1,0.1,-0.1,9.3,1.8,0.8,2.0,0.1
1698920122375.0,16,-0.1,-0.1,0.0,-0.1,9.3,1.7000000000000002,1.5000000000000002,1.4,0.1
1698920122392.0,16,0.0,-0.1,0.1,0.0,9.3,1.8,1.9,1.4,0.4
1698920122408.0,16,0.0,0.0,0.1,0.0,9.3,1.8,1.9,1.4,0.6000000000000001
1698920122425.0,16,0.1,0.0,0.1,0.1,9.4,1.8,1.9,1.7,0.5
1698920122442.0,16,0.1,0.0,0.0,0.1,9.3,1.7000000000000002,1.5000000000000002,2.1,0.7
1698920122459.0,16,0.1,-0.1,0.0,0.0,9.3,1.7000000000000002,1.0,1.9,0.9
1698920122475.0,16,0.1,0.0,0.0,0.0,9.3,1.7000000000000002,1.0999999999999999,2.8,0.8
1698920122492.0,16,0.0,0.1,0.0,0.0,9.4,1.7000000000000002,1.4,3.1,0.9
1698920122508.0,16,-0.1,0.1,0.0,-0.1,9.4,1.7000000000000002,1.6,2.1999999999999997,0.7
1698920122525.0,16,-0.1,0.0,-0.1,-0.1,9.4,1.6,2.0,0.9,0.30000000000000004
1698920122541.0,16,0.0,0.0,-0.1,-0.1,9.4,1.6,2.8,-0.4,0.0
1698920122558.0,16,0.0,0.0,-0.1,0.0,9.4,1.6,3.0000000000000004,-1.0999999999999999,0.1
1698920122575.0,16,0.0,0.0,-0.2,0.0,9.4,1.5,2.6,-1.5000000000000002,0.1
1698920122592.0,16,0.0,0.1,-0.1,0.0,9.4,1.5,2.0,-1.9,0.4
1698920122608.0,16,0.0,0.1,-0.2,0.0,9.5,1.5,1.7,-1.8,0.6000000000000001
1698920122626.0,16,0.1,0.1,-0.1,0.1,9.4,1.5,0.8,-1.6,0.7
1698920122641.0,16,0.2,0.1,-0.1,0.2,9.4,1.5,0.5,-1.6,0.5
1698920122658.0,16,0.2,0.0,0.0,0.2,9.4,1.6,0.4,-1.5000000000000002,0.4
1698920122675.0,16,0.2,0.0,0.0,0.2,9.4,1.6,0.1,-0.8,-0.30000000000000004
1698920122691.0,16,0.1,0.0,0.0,0.1,9.4,1.6,0.2,-0.30000000000000004,-0.5
1698920122708.0,16,0.0,0.0,0.0,0.1,9.4,1.6,0.6000000000000001,0.7,-0.8
1698920122725.0,16,0.0,0.0,0.0,0.0,9.4,1.6,0.8,1.0999999999999999,-1.0
1698920122741.0,16,0.1,0.1,0.0,0.1,9.5,1.5,0.2,1.0999999999999999,-1.3
1698920122758.0,16,0.0,0.0,0.1,0.0,9.4,1.7000000000000002,-0.1,1.0999999999999999,-1.3
1698920122775.0,16,0.0,0.0,0.1,0.0,9.4,1.7000000000000002,-0.1,0.9,-1.5000000000000002
1698920122792.0,16,0.0,0.1,0.0,0.0,9.5,1.6,-0.4,1.2000000000000002,-1.8
1698920122808.0,16,-0.1,-0.1,0.1,-0.1,9.3,1.7000000000000002,-0.2,1.2000000000000002,-1.9
1698920122825.0,16,-0.1,-0.1,0.1,-0.1,9.3,1.7000000000000002,0.1,0.8,-1.8
1698920122842.0,16,-0.1,-0.1,0.1,-0.1,9.3,1.7000000000000002,0.8,0.5,-1.4
1698920122858.0,16,-0.1,-0.1,0.1,-0.1,9.3,1.7000000000000002,1.2000000000000002,0.30000000000000004,-1.4
1698920122876.0,16,-0.1,-0.1,0.0,-0.1,9.3,1.6,1.8,0.30000000000000004,-1.6
1698920122892.0,16,0.0,0.0,0.0,-0.1,9.4,1.6,2.3000000000000003,0.5,-1.6
1698920122908.0,16,-0.1,0.0,0.0,-0.1,9.3,1.6,2.4000000000000004,0.7,-1.2000000000000002
1698920122925.0,16,0.0,0.0,0.0,-0.1,9.3,1.6,2.3000000000000003,0.6000000000000001,-1.0
1698920122942.0,16,-0.1,0.1,0.0,-0.1,9.4,1.6,1.7,0.4,-0.5
1698920122958.0,16,-0.1,0.0,0.0,-0.2,9.4,1.6,1.4,0.7,-0.5
1698920122975.0,16,-0.1,0.0,0.0,-0.2,9.4,1.6,1.5000000000000002,1.0,-0.30000000000000004
1698920122992.0,16,-0.1,0.1,-0.1,-0.2,9.5,1.5,0.8,0.6000000000000001,0.30000000000000004
1698920123008.0,16,-0.1,0.1,-0.1,-0.2,9.5,1.5,-0.6000000000000001,-1.0,0.6000000000000001
1698920123025.0,16,-0.1,0.1,0.0,-0.1,9.5,1.5,-0.6000000000000001,-1.4,0.6000000000000001
1698920123042.0,16,0.0,0.1,-0.1,-0.1,9.5,1.5,-0.30000000000000004,-1.3,0.6000000000000001
1698920123059.0,16,0.0,0.1,-0.1,-0.1,9.5,1.5,-0.5,-1.4,0.4
1698920123075.0,16,0.0,0.0,-0.1,0.0,9.4,1.5,-0.30000000000000004,-2.1999999999999997,0.1
1698920123092.0,16,0.1,0.0,-0.1,0.0,9.4,1.5,-0.30000000000000004,-1.9,0.1
1698920123108.0,16,0.1,0.0,0.0,0.0,9.4,1.5,-0.1,-1.2000000000000002,0.30000000000000004
1698920123125.0,16,0.1,0.0,0.0,0.0,9.4,1.6,0.1,-0.8,0.5
1698920123141.0,16,0.1,0.0,0.0,0.0,9.4,1.5,0.0,-0.4,0.6000000000000001
1698920123158.0,16,0.1,0.0,0.0,0.0,9.4,1.6,-0.5,0.0,0.5
1698920123175.0,16,0.1,0.0,0.1,0.1,9.4,1.6,-0.30000000000000004,0.1,0.4
1698920123191.0,16,0.1,0.0,0.0,0.1,9.4,1.6,-0.30000000000000004,0.5,0.0
1698920123208.0,16,0.1,0.0,0.0,0.1,9.4,1.6,-0.2,1.2000000000000002,-0.2
1698920123225.0,16,0.1,0.0,0.0,0.1,9.4,1.6,-0.30000000000000004,1.4,-0.5
1698920123242.0,16,0.1,0.0,0.1,0.0,9.4,1.6,-0.30000000000000004,1.5000000000000002,-0.9
1698920123259.0,16,0.0,0.0,0.0,0.0,9.4,1.6,-0.2,1.9,-1.0999999999999999
1698920123275.0,16,0.0,0.0,0.0,-0.1,9.3,1.6,0.0,2.1999999999999997,-1.2000000000000002
1698920123292.0,16,0.0,0.0,0.0,-0.1,9.4,1.6,0.30000000000000004,2.4000000000000004,-1.2000000000000002
1698920123308.0,16,0.0,0.0,0.0,-0.1,9.4,1.6,0.6000000000000001,2.1999999999999997,-1.3
1698920123325.0,16,0.0,0.0,0.0,-0.1,9.4,1.6,1.0999999999999999,2.5,-1.3
1698920123342.0,16,0.0,0.0,0.0,-0.1,9.3,1.6,1.2000000000000002,2.4000000000000004,-1.3
1698920123358.0,16,-0.1,0.0,0.0,-0.1,9.4,1.5,0.7,1.9,-1.0
1698920123375.0,16,-0.1,0.0,0.0,-0.2,9.4,1.6,0.6000000000000001,1.6,-0.8
1698920123391.0,16,-0.1,0.0,0.0,-0.2,9.4,1.5,0.6000000000000001,1.3,-0.7
1698920123408.0,16,-0.1,0.0,0.0,-0.2,9.4,1.5,0.5,0.7,-0.6000000000000001
1698920123425.0,16,-0.1,0.0,0.0,-0.2,9.4,1.6,0.6000000000000001,-0.30000000000000004,-0.1
1698920123442.0,16,-0.1,0.0,0.0,-0.2,9.4,1.6,0.8,-0.8,0.1
1698920123458.0,16,0.0,0.0,0.0,-0.1,9.4,1.6,1.0,-1.3,0.4
1698920123475.0,16,0.0,0.0,0.0,-0.1,9.4,1.6,1.2000000000000002,-0.8,0.5
1698920123492.0,16,0.0,0.0,0.0,-0.1,9.4,1.6,1.2000000000000002,-0.7,0.6000000000000001
1698920123508.0,16,0.0,0.0,0.0,-0.1,9.4,1.5,0.9,-0.6000000000000001,0.9
1698920123525.0,16,0.0,0.0,0.0,-0.1,9.4,1.5,0.2,-0.8,1.0999999999999999
1698920123541.0,16,0.0,0.0,0.0,-0.1,9.4,1.5,0.1,-1.0999999999999999,1.2000000000000002
1698920123558.0,16,0.1,0.0,0.0,0.0,9.4,1.6,0.1,-1.0999999999999999,1.0
1698920123577.0,16,0.1,0.0,0.0,0.0,9.4,1.6,0.1,-1.2000000000000002,0.9
1698920123591.0,16,0.0,0.0,0.0,0.0,9.4,1.5,0.2,-1.3,0.9
1698920123608.0,16,0.0,0.0,0.0,0.0,9.4,1.5,0.1,-1.0999999999999999,0.9
1698920123625.0,16,0.0,0.0,0.0,0.0,9.4,1.5,0.0,-0.9,1.0
1698920123642.0,16,0.1,0.0,0.0,0.0,9.4,1.6,0.4,-0.6000000000000001,1.0
1698920123658.0,16,0.1,-0.1,0.0,0.0,9.3,1.5,0.5,0.0,0.8
1698920123676.0,16,0.1,0.0,0.0,0.0,9.4,1.6,0.6000000000000001,0.7,0.9
1698920123691.0,16,0.1,0.0,0.0,0.0,9.4,1.6,0.7,0.9,0.7
1698920123708.0,16,0.1,0.0,0.0,0.1,9.4,1.6,0.7,1.5000000000000002,0.30000000000000004
1698920123726.0,16,0.1,0.1,0.0,0.1,9.5,1.6,0.9,2.7,0.1
1698920123741.0,16,0.1,0.1,0.0,0.0,9.5,1.6,0.7,3.2,0.0
1698920123758.0,16,0.0,0.0,0.0,0.0,9.4,1.5,0.0,2.7,-0.2
1698920123776.0,16,0.0,0.0,0.0,0.0,9.4,1.5,0.1,2.6,-0.5
1698920123791.0,16,0.0,0.0,0.0,-0.1,9.4,1.5,0.30000000000000004,2.9,-0.4
1698920123808.0,16,-0.1,-0.1,-0.1,-0.1,9.3,1.5,0.6000000000000001,2.6,-0.2
1698920123825.0,16,-0.1,-0.1,-0.1,-0.1,9.3,1.5,-0.2,2.0,-0.2
1698920123841.0,16,-0.1,-0.1,0.0,-0.1,9.3,1.5,-0.30000000000000004,1.6,-0.2
1698920123859.0,16,0.0,0.0,-0.1,-0.1,9.4,1.5,-0.30000000000000004,1.5000000000000002,0.0
1698920123875.0,16,0.0,0.1,0.0,-0.1,9.5,1.5,-0.6000000000000001,1.0999999999999999,0.1
1698920123892.0,16,0.0,0.1,0.0,-0.1,9.5,1.5,-0.5,0.8,0.0
1698920123908.0,16,0.0,0.1,0.0,-0.1,9.5,1.5,-0.8,0.6000000000000001,0.1
1698920123925.0,16,0.0,0.0,0.0,-0.1,9.4,1.5,-0.8,0.0,0.2
1698920123941.0,16,0.0,-0.1,0.0,-0.1,9.4,1.5,-0.30000000000000004,-0.1,0.30000000000000004
1698920123959.0,16,0.0,-0.1,0.0,-0.1,9.3,1.5,-0.30000000000000004,-0.1,0.4
1698920123975.0,16,0.0,0.0,0.0,0.0,9.4,1.5,0.0,-0.1,0.4
1698920123992.0,16,0.1,0.0,0.0,0.0,9.4,1.5,0.0,-0.1,0.4
1698920124008.0,16,0.0,-0.1,0.0,0.0,9.3,1.6,-0.30000000000000004,-0.7,0.4
1698920124025.0,16,0.0,0.0,0.0,0.0,9.4,1.6,-0.4,-0.9,0.5
1698920124041.0,16,0.0,0.0,0.0,0.0,9.4,1.6,-0.2,-0.8,0.5
1698920124059.0,16,0.0,0.0,0.0,0.0,9.4,1.6,-0.4,-0.6000000000000001,0.5
1698920124075.0,16,0.0,0.0,0.0,0.0,9.4,1.5,-0.6000000000000001,-0.5,0.30000000000000004
1698920124092.0,16,0.0,0.0,0.0,0.0,9.4,1.5,-0.6000000000000001,-0.4,0.1
1698920124108.0,16,0.0,0.0,0.0,0.0,9.4,1.5,-0.30000000000000004,-0.4,0.1
1698920124125.0,16,0.0,0.0,0.0,0.0,9.4,1.5,-0.2,-0.30000000000000004,0.1
1698920124141.0,16,0.0,0.0,0.0,0.0,9.4,1.5,0.0,0.0,0.2
1698920124158.0,16,0.0,0.0,0.0,0.0,9.4,1.6,-0.1,0.2,0.1
1698920124175.0,16,0.0,0.0,0.0,0.0,9.4,1.6,-0.30000000000000004,0.2,0.0
1698920124191.0,16,0.0,0.0,0.0,0.0,9.4,1.5,-0.2,0.4,-0.1
1698920124209.0,16,0.0,0.0,0.0,0.0,9.4,1.5,-0.1,0.30000000000000004,-0.1
1698920124225.0,16,0.0,0.0,0.0,0.0,9.4,1.6,0.0,0.5,-0.2
1698920124241.0,16,0.0,0.0,0.0,0.0,9.4,1.6,0.1,0.5,-0.2
1698920124258.0,16,0.0,0.0,0.0,0.0,9.4,1.6,0.2,0.5,-0.2
1698920124275.0,16,0.0,0.0,0.0,-0.1,9.4,1.6,0.30000000000000004,0.6000000000000001,-0.2
1698920124291.0,16,0.0,0.0,0.1,-0.1,9.4,1.6,0.30000000000000004,0.30000000000000004,-0.2
1698920124310.0,16,0.0,0.0,0.0,-0.1,9.4,1.6,0.5,0.2,-0.4
1698920124325.0,16,0.0,0.0,0.0,-0.1,9.4,1.6,0.6000000000000001,0.6000000000000001,-0.1
1698920124341.0,16,0.0,0.0,0.0,0.0,9.4,1.6,0.4,0.30000000000000004,0.1
1698920124358.0,16,0.0,0.0,0.0,-0.1,9.4,1.6,0.30000000000000004,0.30000000000000004,0.1
1698920124375.0,16,0.0,0.0,0.0,-0.1,9.4,1.5,0.1,0.1,0.1
1698920124391.0,16,0.0,0.0,-0.1,-0.1,9.4,1.5,0.1,0.0,0.30000000000000004
1698920124408.0,16,0.0,0.0,0.0,0.0,9.4,1.5,0.0,0.30000000000000004,0.4
1698920124425.0,16,0.0,0.0,0.0,-0.1,9.4,1.5,0.1,-0.1,0.2
1698920124441.0,16,0.0,0.0,0.0,0.0,9.4,1.6,0.1,0.0,0.4
1698920124458.0,16,0.0,0.0,0.0,0.0,9.4,1.5,0.1,-0.1,0.30000000000000004
1698920124475.0,16,0.0,0.0,0.0,0.0,9.4,1.5,0.0,-0.30000000000000004,0.2
1698920124493.0,16,0.0,0.0,0.0,0.0,9.4,1.5,0.0,-0.30000000000000004,0.30000000000000004
1698920124508.0,16,0.0,0.0,0.0,0.0,9.4,1.5,0.2,-0.30000000000000004,0.30000000000000004
1698920124525.0,16,0.0,0.0,0.0,0.0,9.4,1.5,-0.2,-0.4,0.1
1698920124541.0,16,0.0,0.0,0.0,0.0,9.4,1.5,0.1,-0.30000000000000004,0.2
1698920124558.0,16,0.0,0.0,0.0,0.0,9.4,1.5,0.0,-0.1,0.1
1698920124575.0,16,0.0,0.0,0.0,0.0,9.4,1.6,-0.5,0.0,0.1
1698920124591.0,16,0.0,0.0,0.0,0.0,9.4,1.6,-0.6000000000000001,-0.30000000000000004,0.0
1698920124608.0,16,0.0,0.0,0.0,0.0,9.4,1.6,-0.5,-0.30000000000000004,-0.2
1698920124625.0,16,0.0,0.0,0.0,0.0,9.4,1.6,-0.30000000000000004,-0.4,-0.2
1698920124642.0,16,0.0,0.0,0.0,0.0,9.4,1.6,0.1,-0.30000000000000004,-0.4
1698920124658.0,16,0.0,0.0,0.0,0.0,9.4,1.6,0.2,-0.2,-0.4
1698920124675.0,16,0.0,0.0,0.0,0.0,9.4,1.6,0.30000000000000004,0.1,-0.5
1698920124691.0,16,0.0,0.0,0.0,0.0,9.4,1.6,0.30000000000000004,0.0,-0.5
1698920124708.0,16,0.0,0.0,0.0,0.0,9.4,1.6,0.4,0.0,-0.5
1698920124725.0,16,0.0,0.0,0.1,0.0,9.4,1.6,0.7,0.0,-0.5
1698920124742.0,16,0.0,-0.1,0.0,0.0,9.3,1.6,1.0999999999999999,-0.4,-0.7
1698920124759.0,16,0.0,-0.1,0.0,0.0,9.3,1.6,1.2000000000000002,-0.9,-1.0
1698920124775.0,16,0.0,0.0,0.0,0.0,9.3,1.6,1.3,-0.8,-1.0
1698920124796.0,16,0.0,0.1,0.0,0.0,9.5,1.5,1.5000000000000002,-0.6000000000000001,-1.0999999999999999
1698920124808.0,16,0.0,0.1,0.0,0.0,9.4,1.5,1.5000000000000002,0.2,-1.3
1698920124825.0,16,0.0,0.0,0.0,-0.1,9.4,1.5,1.3,0.2,-1.2000000000000002
1698920124842.0,16,0.0,0.0,0.0,-0.1,9.4,1.5,0.9,0.30000000000000004,-1.0
1698920124858.0,16,0.0,0.0,0.0,-0.1,9.4,1.5,0.8,0.4,-1.0
1698920124875.0,16,0.0,0.0,0.0,0.0,9.4,1.5,0.7,1.0,-0.7
1698920124893.0,16,0.0,0.0,0.0,0.0,9.4,1.5,0.5,1.0,0.0
1698920124908.0,16,0.0,0.1,-0.1,-0.1,9.5,1.5,0.1,1.0999999999999999,0.2
1698920124925.0,16,0.0,0.0,-0.1,-0.1,9.4,1.5,0.0,1.0999999999999999,0.0
1698920124941.0,16,-0.1,0.0,0.0,-0.1,9.4,1.5,-0.2,0.7,0.1
1698920124958.0,16,0.0,0.0,0.0,-0.1,9.4,1.5,-0.2,0.7,0.0
1698920124975.0,16,0.0,0.0,-0.1,-0.1,9.5,1.4000000000000001,-0.5,0.8,0.1
1698920124992.0,16,0.0,0.1,0.0,-0.1,9.5,1.5,-0.8,0.5,0.0
1698920125009.0,16,0.0,0.1,0.0,-0.1,9.5,1.5,-0.8,0.2,0.0
1698920125025.0,16,-0.1,0.1,-0.1,-0.1,9.5,1.4000000000000001,-1.0,0.2,0.2
1698920125042.0,16,-0.1,0.0,0.0,-0.1,9.4,1.5,-1.0,0.0,0.30000000000000004
1698920125058.0,16,0.0,0.0,0.0,-0.1,9.4,1.5,-1.0,-0.30000000000000004,0.4
1698920125075.0,16,0.0,0.0,0.0,-0.1,9.4,1.5,-0.9,-0.30000000000000004,0.6000000000000001
1698920125092.0,16,0.0,0.0,0.0,0.0,9.4,1.5,-0.9,0.0,0.7
1698920125109.0,16,0.0,0.0,0.0,0.0,9.4,1.6,-1.0,0.1,0.7
1698920125125.0,16,0.0,0.0,0.0,0.0,9.4,1.6,-1.0,-0.1,0.7
1698920125142.0,16,0.0,-0.1,0.0,0.0,9.3,1.6,-1.3,-0.7,0.5
1698920125162.0,16,0.0,0.0,0.0,0.0,9.3,1.6,-0.9,-0.8,0.4
1698920125175.0,16,0.0,0.0,0.0,0.0,9.4,1.6,-1.0,-0.6000000000000001,0.5
1698920125191.0,16,0.0,0.0,0.0,0.0,9.4,1.6,-1.0,-0.4,0.4
1698920125208.0,16,0.0,0.0,0.0,0.0,9.4,1.6,-0.4,-0.1,0.4
1698920125225.0,16,0.0,0.0,0.0,0.0,9.4,1.6,-0.2,0.0,0.5
1698920125242.0,16,0.0,0.0,0.1,0.0,9.4,1.6,0.1,0.2,0.4
1698920125258.0,16,0.0,0.0,0.1,0.0,9.4,1.6,0.30000000000000004,0.6000000000000001,0.4
1698920125275.0,16,0.0,0.0,0.0,0.0,9.4,1.6,0.30000000000000004,0.5,0.4
1698920125291.0,16,0.0,0.0,0.0,0.0,9.4,1.6,0.30000000000000004,0.8,0.30000000000000004
1698920125308.0,16,0.0,-0.1,0.0,0.0,9.3,1.6,0.5,0.9,0.2
1698920125324.0,16,0.0,0.0,0.0,0.0,9.4,1.6,0.8,0.8,0.1
1698920125341.0,16,0.0,0.0,0.0,0.0,9.4,1.6,0.8,0.8,0.0
1698920125358.0,16,0.0,-0.1,0.0,0.0,9.3,1.6,1.0999999999999999,0.8,-0.1
1698920125374.0,16,0.0,-0.1,0.0,-0.1,9.3,1.6,1.2000000000000002,0.9,0.1
1698920125391.0,16,0.0,-0.1,0.0,-0.1,9.3,1.6,1.4,1.0,0.1
1698920125408.0,16,0.0,0.0,0.0,-0.1,9.4,1.5,1.2000000000000002,0.7,0.30000000000000004
1698920125425.0,16,0.0,0.1,0.0,-0.1,9.5,1.5,1.2000000000000002,0.4,0.4
1698920125442.0,16,0.0,0.0,0.0,-0.1,9.4,1.5,1.9,-0.1,0.6000000000000001
1698920125458.0,16,0.0,0.0,0.0,-0.1,9.4,1.6,2.0,-0.4,0.6000000000000001
1698920125475.0,16,0.0,0.0,0.0,-0.1,9.4,1.6,1.7,-0.30000000000000004,0.4
1698920125492.0,16,0.0,0.1,0.0,0.0,9.5,1.5,1.5000000000000002,-0.7,0.4
1698920125508.0,16,0.0,0.0,0.0,0.0,9.4,1.5,1.4,-0.8,0.6000000000000001
1698920125525.0,16,0.0,0.0,0.0,0.0,9.4,1.5,1.7,-1.0999999999999999,0.7
1698920125542.0,16,0.1,0.0,0.0,0.0,9.4,1.5,1.7,-0.9,0.9
1698920125558.0,16,0.0,0.0,0.0,0.0,9.4,1.5,1.4,-0.4,0.8
1698920125575.0,16,0.0,-0.1,-0.1,0.0,9.3,1.4000000000000001,1.0999999999999999,-0.6000000000000001,0.9
1698920125592.0,16,0.0,0.0,0.0,0.0,9.4,1.5,1.0,-0.6000000000000001,0.9
1698920125608.0,16,0.0,0.1,0.0,0.0,9.5,1.4000000000000001,1.0999999999999999,-0.9,0.9
1698920125625.0,16,0.0,0.1,-0.1,0.0,9.5,1.4000000000000001,0.6000000000000001,-0.6000000000000001,1.0
1698920125642.0,16,0.0,0.1,-0.1,0.0,9.5,1.4000000000000001,0.5,-0.6000000000000001,0.9
1698920125658.0,16,0.0,0.1,-0.1,0.0,9.5,1.4000000000000001,0.2,-0.6000000000000001,0.6000000000000001
1698920125675.0,16,0.0,0.0,-0.1,0.0,9.4,1.4000000000000001,0.1,-0.5,0.5
1698920125691.0,16,0.0,0.0,0.0,0.0,9.4,1.4000000000000001,0.1,-0.4,0.4
1698920125708.0,16,0.0,0.0,0.0,0.0,9.4,1.5,0.30000000000000004,-0.30000000000000004,0.30000000000000004
1698920125725.0,16,0.0,0.0,0.0,0.1,9.4,1.5,0.30000000000000004,-0.1,0.30000000000000004
1698920125741.0,16,0.0,-0.1,0.0,0.0,9.3,1.5,-0.1,0.5,0.1
1698920125758.0,16,0.1,0.1,0.0,0.1,9.5,1.5,-0.5,-0.30000000000000004,-0.2
1698920125775.0,16,0.0,0.0,0.1,0.0,9.4,1.5,0.6000000000000001,0.6000000000000001,0.2
1698920125791.0,16,0.0,0.0,0.1,0.0,9.4,1.5,0.7,0.5,0.1
1698920125808.0,16,0.0,0.0,0.0,0.0,9.4,1.5,0.30000000000000004,0.9,0.30000000000000004
1698920125825.0,16,0.0,0.0,0.0,0.0,9.4,1.5,0.0,0.7,0.1
1698920125841.0,16,0.0,0.0,0.0,0.0,9.4,1.5,0.1,0.7,0.30000000000000004
1698920125858.0,16,0.0,0.0,0.0,0.0,9.4,1.5,0.2,0.8,0.30000000000000004
1698920125875.0,16,0.0,0.0,0.0,0.0,9.4,1.5,0.1,0.6000000000000001,0.2
1698920125892.0,16,0.0,0.0,0.0,0.0,9.4,1.5,0.1,0.5,0.30000000000000004
1698920125909.0,16,0.0,0.0,0.0,0.0,9.4,1.5,0.30000000000000004,0.30000000000000004,0.30000000000000004
1698920125925.0,16,0.0,0.0,0.0,0.0,9.4,1.4000000000000001,0.4,-0.1,0.4
1698920125941.0,16,0.0,0.0,0.0,0.0,9.4,1.5,0.6000000000000001,-0.30000000000000004,0.4
1698920125959.0,16,0.0,0.0,0.0,0.0,9.4,1.4000000000000001,0.9,-0.1,0.30000000000000004
1698920125975.0,16,0.0,0.0,0.0,0.0,9.4,1.4000000000000001,0.8,0.0,0.30000000000000004
1698920125992.0,16,0.0,0.0,0.0,0.1,9.4,1.4000000000000001,0.5,0.2,0.30000000000000004
1698920126008.0,16,0.0,0.0,0.0,0.0,9.4,1.5,0.4,0.0,0.6000000000000001
1698920126025.0,16,0.0,0.0,0.0,0.0,9.4,1.4000000000000001,0.2,0.0,0.6000000000000001
1698920126042.0,16,0.0,0.0,0.0,0.0,9.4,1.4000000000000001,0.1,-0.1,0.6000000000000001
1698920126058.0,16,0.0,0.0,0.0,0.1,9.4,1.4000000000000001,0.0,-0.5,0.6000000000000001
1698920126075.0,16,0.0,0.0,0.0,0.0,9.4,1.4000000000000001,0.30000000000000004,-0.5,0.4
1698920126092.0,16,0.0,0.0,0.0,0.0,9.4,1.5,0.5,-0.30000000000000004,0.4
1698920126108.0,16,0.0,0.0,0.0,0.0,9.4,1.5,0.6000000000000001,-0.1,0.4
1698920126125.0,16,0.0,0.0,0.0,0.1,9.4,1.4000000000000001,0.6000000000000001,-0.4,0.4
1698920126142.0,16,0.0,0.0,0.0,0.1,9.4,1.5,0.7,-0.30000000000000004,0.30000000000000004
1698920126158.0,16,0.0,0.0,0.0,0.1,9.4,1.5,0.8,0.0,0.30000000000000004
1698920126179.0,16,0.0,0.0,0.0,0.1,9.4,1.5,0.7,0.0,0.30000000000000004
1698920126192.0,16,0.0,0.0,0.0,0.1,9.4,1.4000000000000001,0.7,0.30000000000000004,0.30000000000000004
1698920126208.0,16,0.0,0.0,0.0,0.0,9.4,1.4000000000000001,0.7,0.2,0.30000000000000004
1698920126225.0,16,0.0,0.0,0.0,0.0,9.4,1.4000000000000001,0.6000000000000001,0.5,0.30000000000000004
1698920126241.0,16,0.0,0.0,0.0,0.0,9.4,1.4000000000000001,0.7,0.0,0.2
1698920126258.0,16,0.0,0.0,0.0,0.0,9.4,1.4000000000000001,0.8,0.1,0.2
1698920126275.0,16,0.0,0.0,0.0,0.0,9.4,1.5,0.8,0.0,0.1
1698920126291.0,16,0.0,0.0,0.0,0.1,9.4,1.4000000000000001,1.0999999999999999,0.30000000000000004,0.0
1698920126308.0,16,0.0,0.0,0.0,0.1,9.4,1.4000000000000001,1.2000000000000002,0.5,0.1
1698920126325.0,16,0.0,0.0,-0.1,0.0,9.4,1.4000000000000001,1.0999999999999999,0.1,0.0
1698920126341.0,16,0.0,0.0,0.0,0.0,9.4,1.4000000000000001,1.0999999999999999,-0.2,0.0
1698920126358.0,16,0.0,0.0,0.0,0.0,9.4,1.4000000000000001,1.2000000000000002,-0.2,0.0
1698920126375.0,16,0.0,-0.1,0.0,0.0,9.4,1.4000000000000001,1.0999999999999999,-0.1,0.2
1698920126391.0,16,0.0,0.0,0.0,0.0,9.4,1.4000000000000001,1.2000000000000002,-0.4,0.30000000000000004
1698920126408.0,16,0.0,-0.1,0.0,0.0,9.4,1.5,1.2000000000000002,-0.4,0.2
1698920126425.0,16,0.0,0.0,0.0,0.0,9.4,1.4000000000000001,1.2000000000000002,-0.4,0.1
1698920126441.0,16,0.0,0.0,0.1,0.1,9.4,1.5,1.5000000000000002,-0.4,0.0
1698920126458.0,16,0.0,0.0,0.0,0.0,9.4,1.4000000000000001,1.5000000000000002,-0.4,0.1
1698920126475.0,16,0.0,0.0,0.0,0.1,9.4,1.4000000000000001,1.4,-0.6000000000000001,0.2
1698920126491.0,16,0.0,0.0,0.0,0.1,9.4,1.4000000000000001,1.3,-0.6000000000000001,0.2
1698920126508.0,16,0.0,0.0,0.0,0.1,9.4,1.4000000000000001,1.4,-0.7,0.1
1698920126525.0,16,0.0,0.0,0.0,0.0,9.4,1.4000000000000001,1.5000000000000002,-0.5,0.1
1698920126541.0,16,0.0,0.0,0.0,0.1,9.4,1.4000000000000001,1.5000000000000002,-0.4,0.0
1698920126558.0,16,0.0,0.0,0.0,0.1,9.4,1.4000000000000001,1.5000000000000002,-0.30000000000000004,-0.2
1698920126575.0,16,0.0,0.0,0.0,0.1,9.5,1.4000000000000001,1.2000000000000002,0.1,-0.2
1698920126592.0,16,0.0,0.0,0.0,0.1,9.5,1.4000000000000001,0.9,0.30000000000000004,-0.4
1698920126609.0,16,0.1,0.0,0.0,0.1,9.5,1.4000000000000001,-0.2,-0.2,-0.8
1698920126625.0,16,0.0,0.1,0.0,0.1,9.5,1.4000000000000001,-0.5,-0.30000000000000004,-1.0999999999999999
1698920126641.0,16,0.0,0.1,-0.1,0.0,9.5,1.3,-1.9,0.0,-0.8
1698920126658.0,16,0.0,0.1,-0.1,0.1,9.5,1.2000000000000002,-2.6,-0.1,-1.0999999999999999
1698920126675.0,16,0.1,0.1,-0.1,0.1,9.5,1.2000000000000002,-4.6000000000000005,-0.1,-1.5000000000000002
1698920126692.0,16,0.1,0.2,-0.2,0.2,9.600000000000001,1.2000000000000002,-7.400000000000001,-0.5,-1.6
1698920126709.0,16,0.1,0.2,-0.2,0.2,9.700000000000001,1.2000000000000002,-9.5,-0.30000000000000004,-1.5000000000000002
1698920126725.0,16,0.1,0.4,-0.1,0.1,9.9,1.3,-14.100000000000001,-0.2,-1.2000000000000002
1698920126741.0,16,0.1,0.6000000000000001,-0.1,0.2,10.0,1.4000000000000001,-18.400000000000002,-3.5,-1.4
1698920126758.0,16,0.2,0.6000000000000001,0.0,0.30000000000000004,10.0,1.5,-20.7,-5.2,-1.7
1698920126775.0,16,0.2,0.6000000000000001,0.1,0.2,10.100000000000001,1.7000000000000002,-24.000000000000004,-3.3000000000000003,-3.2
1698920126794.0,16,0.2,0.6000000000000001,-0.30000000000000004,0.30000000000000004,10.100000000000001,1.4000000000000001,-26.6,1.5000000000000002,-5.2
1698920126809.0,16,0.2,0.5,-0.6000000000000001,0.2,10.0,1.2000000000000002,-32.300000000000004,4.6000000000000005,-5.500000000000001
1698920126825.0,16,0.1,0.6000000000000001,-0.5,0.1,10.0,1.4000000000000001,-34.50000000000001,3.7000000000000006,-4.3999999999999995
1698920126842.0,16,0.0,0.7000000000000001,-0.6000000000000001,0.0,10.100000000000001,1.3,-36.7,2.6,-2.5
1698920126858.0,16,-0.1,0.6000000000000001,-0.6000000000000001,-0.1,10.0,1.4000000000000001,-38.400000000000006,3.6,-1.6
1698920126876.0,16,-0.1,0.5,-0.5,-0.2,9.9,1.6,-40.3,3.5,-2.7
1698920126892.0,16,-0.1,0.7000000000000001,-0.6000000000000001,-0.1,10.0,1.6,-41.4,3.5,-6.000000000000001
1698920126909.0,16,0.0,0.7000000000000001,-0.7000000000000001,-0.1,10.100000000000001,1.6,-42.300000000000004,4.1000000000000005,-7.1000000000000005
1698920126925.0,16,0.1,0.8,-0.5,0.0,10.0,2.0,-44.2,5.9,-8.3
1698920126941.0,16,0.30000000000000004,0.8,-1.2000000000000002,0.2,10.100000000000001,1.4000000000000001,-49.0,11.3,-6.5
1698920126959.0,16,0.5,1.0,-1.4000000000000001,0.30000000000000004,10.200000000000001,1.3,-54.5,15.399999999999999,-6.7
1698920126975.0,16,0.4,1.0,-1.4000000000000001,0.2,10.200000000000001,1.5,-64.9,14.100000000000001,-7.699999999999999
1698920126991.0,16,0.30000000000000004,1.1,-1.4000000000000001,0.1,10.200000000000001,1.6,-67.9,10.4,-9.600000000000001
1698920127008.0,16,0.2,0.9,-1.8,0.0,10.0,1.5,-69.2,8.600000000000001,-10.5
1698920127025.0,16,0.2,0.9,-2.1,0.0,9.9,1.2000000000000002,-71.10000000000001,6.5,-10.600000000000001
1698920127041.0,16,0.2,0.8,-2.7,-0.1,9.700000000000001,1.0,-84.4,10.700000000000001,-10.8
1698920127059.0,16,0.2,1.4000000000000001,-2.6,-0.2,10.200000000000001,1.3,-85.80000000000001,6.1000000000000005,-12.6
1698920127077.0,16,0.1,1.4000000000000001,-2.2,-0.30000000000000004,10.100000000000001,1.7000000000000002,-85.1,6.9,-11.9
1698920127094.0,16,0.0,1.4000000000000001,-2.2,-0.4,10.0,2.0,-77.9,4.1000000000000005,-8.9
1698920127108.0,16,0.2,1.9000000000000001,-1.5,-0.30000000000000004,10.5,2.9000000000000004,-73.4,-2.3000000000000003,-10.1
1698920127126.0,16,0.2,2.0,-1.3,-0.2,10.5,3.2,-72.5,-4.0,-10.8
1698920127141.0,16,0.1,1.9000000000000001,-0.4,-0.4,10.3,4.3,-81.6,-10.600000000000001,-9.9
1698920127159.0,16,-0.5,2.3000000000000003,0.5,-0.9,10.600000000000001,5.5,-91.7,-11.6,-9.1
1698920127175.0,16,-0.8,2.1,0.9,-1.2000000000000002,10.3,6.1000000000000005,-94.3,-8.9,-8.700000000000001
1698920127192.0,16,-1.2000000000000002,1.4000000000000001,1.7000000000000002,-1.7000000000000002,9.5,7.2,-94.5,-6.9,-7.300000000000001
1698920127208.0,16,-0.4,1.4000000000000001,1.9000000000000001,-0.9,9.200000000000001,7.6000000000000005,-92.10000000000001,-5.8,-11.2
1698920127225.0,16,0.1,1.2000000000000002,2.1,-0.4,8.9,7.9,-89.30000000000001,-5.1,-12.9
1698920127241.0,16,0.7000000000000001,0.6000000000000001,2.2,0.1,8.200000000000001,8.200000000000001,-80.7,-6.7,-10.8
1698920127258.0,16,0.8,-0.5,2.0,0.30000000000000004,7.0,8.3,-71.10000000000001,-5.7,-6.6000000000000005
1698920127275.0,16,0.30000000000000004,-0.5,2.0,-0.2,6.800000000000001,8.4,-66.80000000000001,-6.9,-5.0
1698920127291.0,16,-0.2,0.7000000000000001,2.2,-0.7000000000000001,7.9,8.700000000000001,-54.9,-4.3999999999999995,-3.7000000000000006
1698920127309.0,16,-0.30000000000000004,0.9,1.9000000000000001,-0.9,8.1,8.6,-50.0,-5.6,-9.8
1698920127325.0,16,-0.30000000000000004,0.7000000000000001,1.8,-0.9,7.800000000000001,8.5,-47.5,-6.2,-9.5
1698920127342.0,16,-0.2,0.0,1.9000000000000001,-0.8,7.0,8.700000000000001,-39.2,-5.6,-6.2
1698920127358.0,16,-0.5,-0.6000000000000001,1.8,-1.1,6.300000000000001,8.8,-30.000000000000004,-7.6,-3.0000000000000004
1698920127375.0,16,-0.5,-0.6000000000000001,1.8,-1.0,6.300000000000001,8.8,-25.400000000000002,-6.7,-2.9
1698920127392.0,16,0.0,-0.6000000000000001,1.5,-0.6000000000000001,6.2,8.6,-16.900000000000002,-4.5,-9.1
1698920127408.0,16,0.4,-0.30000000000000004,1.5,-0.2,6.4,8.6,-7.1000000000000005,-4.1000000000000005,-9.600000000000001
1698920127425.0,16,0.5,-0.2,1.4000000000000001,-0.1,6.6000000000000005,8.5,-1.2000000000000002,-4.9,-8.4
1698920127441.0,16,0.6000000000000001,-0.1,1.0,0.0,6.7,8.1,7.6,-5.0,-5.7
1698920127458.0,16,0.4,-0.1,1.1,-0.2,6.7,8.200000000000001,14.0,-7.0,-1.9
1698920127475.0,16,0.30000000000000004,-0.1,1.0,-0.2,6.7,8.1,17.400000000000002,-7.2,-1.0
1698920127492.0,16,0.4,-0.30000000000000004,0.7000000000000001,-0.2,6.6000000000000005,7.800000000000001,23.0,-4.6000000000000005,-1.5000000000000002
1698920127508.0,16,0.5,-0.4,0.30000000000000004,0.0,6.5,7.300000000000001,27.900000000000002,-5.0,-5.8
1698920127525.0,16,0.5,-0.7000000000000001,0.2,0.0,6.300000000000001,7.1000000000000005,31.3,-6.7,-7.300000000000001
1698920127541.0,16,0.5,-0.9,0.0,0.0,6.1000000000000005,6.9,38.0,-12.700000000000001,-9.0
1698920127559.0,16,0.6000000000000001,-0.9,-0.1,0.1,6.300000000000001,6.6000000000000005,47.2,-18.400000000000002,-10.9
1698920127576.0,16,0.5,-0.6000000000000001,-0.30000000000000004,0.0,6.6000000000000005,6.4,50.6,-19.8,-13.0
1698920127592.0,16,0.30000000000000004,-0.2,-0.9,-0.2,7.2,5.6000000000000005,56.5,-21.400000000000002,-17.400000000000002
1698920127608.0,16,0.1,-0.1,-1.3,-0.4,7.300000000000001,5.1000000000000005,61.50000000000001,-25.900000000000002,-22.1
1698920127625.0,16,0.1,-0.4,-1.5,-0.30000000000000004,6.800000000000001,4.4,66.60000000000001,-25.400000000000002,-25.5
1698920127641.0,16,0.1,-1.3,-1.9000000000000001,-0.4,6.4,4.2,68.5,-26.400000000000002,-26.9
1698920127658.0,16,0.30000000000000004,-1.9000000000000001,-2.2,-0.2,5.9,3.7,72.0,-26.1,-26.500000000000004
1698920127675.0,16,0.30000000000000004,-2.2,-2.1,-0.2,5.300000000000001,3.5,74.0,-25.0,-26.200000000000003
1698920127691.0,16,0.4,-2.9000000000000004,-2.3000000000000003,-0.2,5.1000000000000005,3.3000000000000003,79.6,-23.400000000000002,-24.6
1698920127708.0,16,0.30000000000000004,-3.3000000000000003,-1.7000000000000002,-0.2,4.800000000000001,3.6,83.10000000000001,-26.400000000000002,-22.6
1698920127725.0,16,0.30000000000000004,-3.2,-1.4000000000000001,-0.4,5.2,3.7,84.60000000000001,-23.900000000000002,-20.1
1698920127741.0,16,0.1,-2.9000000000000004,-1.2000000000000002,-0.5,5.4,3.7,82.30000000000001,-20.0,-19.1
1698920127759.0,16,0.1,-2.5,-1.2000000000000002,-0.5,5.9,3.5,74.10000000000001,-9.1,-17.200000000000003
1698920127775.0,16,0.2,-2.2,-1.1,-0.5,6.2,3.5,68.4,-3.7000000000000006,-17.3
1698920127791.0,16,0.30000000000000004,-2.3000000000000003,-1.2000000000000002,-0.4,6.300000000000001,3.2,60.1,7.9,-19.3
1698920127809.0,16,0.2,-2.8000000000000003,-1.9000000000000001,-0.6000000000000001,5.800000000000001,2.3000000000000003,56.400000000000006,8.4,-18.400000000000002
1698920127825.0,16,-0.2,-3.1,-2.0,-1.0,5.5,2.1,52.300000000000004,4.7,-16.6
1698920127842.0,16,-0.5,-3.1,-1.8,-1.3,5.5,2.2,49.4,4.2,-16.6
1698920127859.0,16,-1.0,-2.7,-1.3,-1.9000000000000001,6.0,2.5,41.4,4.3999999999999995,-15.9
1698920127875.0,16,-1.2000000000000002,-2.2,-1.0,-2.3000000000000003,7.0,3.1,29.900000000000006,3.1,-14.100000000000001
1698920127892.0,16,-1.3,-1.1,-0.30000000000000004,-2.3000000000000003,7.6000000000000005,3.3000000000000003,24.3,4.9,-13.4
1698920127908.0,16,-1.2000000000000002,-0.5,-0.1,-2.3000000000000003,8.200000000000001,3.5,16.6,6.9,-13.3
1698920127924.0,16,-1.0,-0.1,0.0,-2.1,8.6,3.6,15.9,4.3999999999999995,-11.8
1698920127941.0,16,-0.7000000000000001,0.0,-0.1,-1.9000000000000001,8.700000000000001,3.4000000000000004,17.5,4.0,-12.100000000000001
1698920127958.0,16,0.0,-0.2,-0.5,-1.2000000000000002,8.6,3.0,19.500000000000004,4.300000000000001,-9.1
1698920127974.0,16,0.6000000000000001,-0.30000000000000004,-0.5,-0.6000000000000001,8.5,2.9000000000000004,15.6,6.3,-3.3000000000000003
1698920127992.0,16,0.7000000000000001,-0.2,-0.7000000000000001,-0.5,8.6,2.7,12.4,9.4,-2.7
1698920128010.0,16,0.30000000000000004,0.2,-1.4000000000000001,-0.9,9.0,2.0,3.3000000000000003,13.0,-3.8
1698920128025.0,16,-0.6000000000000001,0.8,-1.4000000000000001,-1.9000000000000001,9.600000000000001,2.0,-5.0,18.1,-2.7
1698920128042.0,16,-1.1,1.0,-1.5,-2.4000000000000004,9.8,1.9000000000000001,-6.3,17.1,-1.0999999999999999
1698920128059.0,16,-1.7000000000000002,1.0,-2.0,-3.0,9.8,1.4000000000000001,-4.7,6.4,2.6
1698920128075.0,16,-1.7000000000000002,0.7000000000000001,-2.0,-2.9000000000000004,9.5,1.4000000000000001,-2.1,3.5,5.4
1698920128091.0,16,-1.6,-0.1,-2.0,-2.9000000000000004,8.700000000000001,1.4000000000000001,1.0999999999999999,5.7,4.7
1698920128108.0,16,-1.4000000000000001,-0.7000000000000001,-1.8,-2.7,8.1,1.5,5.0,2.3000000000000003,4.300000000000001
1698920128125.0,16,-1.5,-0.7000000000000001,-1.9000000000000001,-2.8000000000000003,8.1,1.4000000000000001,7.0,0.8,2.1
1698920128142.0,16,-1.9000000000000001,-0.6000000000000001,-1.6,-3.2,8.200000000000001,1.6,6.8,-7.8,0.9
1698920128159.0,16,-2.4000000000000004,0.0,-1.3,-3.7,8.8,1.9000000000000001,7.2,-21.700000000000003,1.6
1698920128175.0,16,-2.2,0.8,-1.7000000000000002,-3.5,9.600000000000001,1.5,5.300000000000001,-35.6,7.500000000000001
1698920128192.0,16,-2.2,0.9,-1.7000000000000002,-3.4000000000000004,9.700000000000001,1.5,3.6,-37.900000000000006,8.9
1698920128208.0,16,-1.9000000000000001,0.8,-1.8,-3.1,9.600000000000001,1.4000000000000001,6.4,-32.4,7.400000000000001
1698920128225.0,16,-1.6,0.7000000000000001,-1.8,-2.8000000000000003,9.600000000000001,1.4000000000000001,9.0,-31.0,9.200000000000001
1698920128241.0,16,-0.6000000000000001,0.5,-2.0,-1.7000000000000002,9.4,1.1,18.1,-32.5,13.100000000000001
1698920128258.0,16,-0.6000000000000001,0.6000000000000001,-0.7000000000000001,-1.6,9.5,2.3000000000000003,20.2,-36.1,15.000000000000002
1698920128275.0,16,0.2,3.1,2.9000000000000004,-0.8,12.0,5.9,35.199999999999996,-17.9,10.1
1698920128291.0,16,1.2000000000000002,4.9,1.1,0.30000000000000004,13.9,4.1000000000000005,34.900000000000006,13.5,5.1
1698920128308.0,16,1.7000000000000002,2.8000000000000003,0.30000000000000004,0.7000000000000001,11.8,3.2,22.7,31.900000000000002,-0.5
1698920128325.0,16,0.4,0.0,-2.3000000000000003,-0.6000000000000001,9.1,0.5,34.0,14.600000000000001,2.5
1698920128341.0,16,-0.30000000000000004,-0.8,-2.8000000000000003,-1.3,8.3,-0.1,32.800000000000004,10.600000000000001,8.3
1698920128359.0,16,-1.1,-1.1,-0.8,-2.0,8.0,1.7000000000000002,37.900000000000006,-12.4,17.5
1698920128376.0,16,-1.3,0.5,2.9000000000000004,-2.2,9.700000000000001,5.300000000000001,44.6,-10.1,13.100000000000001
1698920128391.0,16,-0.4,1.9000000000000001,3.1,-1.3,11.100000000000001,5.5,44.2,0.2,14.200000000000001
1698920128408.0,16,1.3,3.5,0.9,0.4,12.700000000000001,3.2,35.9,-3.0000000000000004,18.1
1698920128425.0,16,1.2000000000000002,1.7000000000000002,1.4000000000000001,0.4,11.0,3.6,35.3,-4.1000000000000005,3.3000000000000003
1698920128441.0,16,0.9,0.1,1.7000000000000002,0.1,9.5,3.8000000000000003,34.6,-4.5,-6.9
1698920128459.0,16,0.8,0.1,1.9000000000000001,0.0,9.5,3.9000000000000004,28.500000000000004,-3.0000000000000004,-4.6000000000000005
1698920128477.0,16,1.4000000000000001,0.5,2.0,0.6000000000000001,9.8,3.9000000000000004,15.000000000000002,11.8,-1.0
1698920128492.0,16,2.2,0.6000000000000001,1.5,1.4000000000000001,10.0,3.5,11.000000000000002,20.2,0.4
1698920128508.0,16,2.4000000000000004,0.6000000000000001,1.2000000000000002,1.7000000000000002,10.0,3.1,9.9,20.6,6.6000000000000005
1698920128525.0,16,1.9000000000000001,0.4,0.7000000000000001,1.3,9.8,2.6,4.800000000000001,15.5,28.500000000000004
1698920128542.0,16,1.4000000000000001,0.1,0.6000000000000001,0.8,9.5,2.6,3.0000000000000004,13.0,36.1
1698920128559.0,16,0.8,-0.5,0.7000000000000001,0.30000000000000004,8.9,2.6,0.8,7.1000000000000005,35.6
1698920128575.0,16,0.5,-1.0,0.4,0.1,8.4,2.4000000000000004,-3.0000000000000004,4.300000000000001,26.9
1698920128591.0,16,0.5,-1.7000000000000002,0.1,0.2,7.7,2.1,-9.3,6.1000000000000005,18.3
1698920128608.0,16,0.5,-2.0,0.0,0.2,7.4,2.0,-12.700000000000001,7.300000000000001,14.900000000000002
1698920128625.0,16,0.6000000000000001,-2.0,-0.1,0.30000000000000004,7.300000000000001,1.9000000000000001,-17.599999999999998,8.200000000000001,9.3
1698920128642.0,16,0.7000000000000001,-1.9000000000000001,-0.2,0.4,7.4,1.9000000000000001,-18.5,8.3,7.300000000000001
1698920128660.0,16,0.9,-1.7000000000000002,-0.2,0.7000000000000001,7.6000000000000005,1.9000000000000001,-18.0,12.6,6.1000000000000005
1698920128675.0,16,1.3,-1.6,-0.4,1.1,7.7,1.8,-14.3,20.3,7.6
1698920128691.0,16,1.5,-1.6,-0.7000000000000001,1.3,7.7,1.5,-10.700000000000001,27.1,7.9
1698920128708.0,16,1.5,-1.4000000000000001,-0.9,1.3,7.800000000000001,1.3,-9.200000000000001,29.200000000000003,8.5
1698920128725.0,16,1.3,-1.1,-1.4000000000000001,1.1,8.1,0.8,-6.2,32.6,9.5
1698920128741.0,16,0.7000000000000001,-1.0,-1.9000000000000001,0.5,8.200000000000001,0.4,-7.300000000000001,34.2,9.8
1698920128758.0,16,0.5,-1.0,-2.0,0.30000000000000004,8.3,0.2,-8.600000000000001,37.300000000000004,8.3
1698920128775.0,16,0.4,-0.9,-2.2,0.2,8.3,0.0,-10.0,42.2,1.9
1698920128792.0,16,0.5,-0.9,-2.3000000000000003,0.30000000000000004,8.3,0.0,-10.3,43.300000000000004,-2.1
1698920128809.0,16,0.7000000000000001,-0.8,-2.1,0.4,8.4,0.1,-11.6,53.300000000000004,-10.0
1698920128825.0,16,1.3,-0.4,-1.9000000000000001,1.0,8.700000000000001,0.30000000000000004,-16.8,60.20000000000001,-15.7
1698920128841.0,16,0.6000000000000001,0.8,-1.2000000000000002,0.2,9.9,1.1,-21.8,36.2,-11.4
1698920128858.0,16,0.0,1.4000000000000001,-0.8,-0.5,10.5,1.6,-21.200000000000003,25.900000000000002,-5.7
1698920128875.0,16,-1.2000000000000002,1.9000000000000001,-0.8,-1.6,11.100000000000001,1.5,-12.3,9.3,1.8
1698920128891.0,16,-2.4000000000000004,1.2000000000000002,-1.5,-2.8000000000000003,10.4,0.9,-0.5,-0.2,4.5
1698920128908.0,16,-1.6,0.6000000000000001,-1.1,-2.0,9.700000000000001,1.3,2.5,13.8,1.8
1698920128924.0,16,0.30000000000000004,2.6,-1.4000000000000001,-0.2,11.8,1.0,1.2000000000000002,23.0,-2.4000000000000004
1698920128941.0,16,-0.1,5.9,2.9000000000000004,-0.6000000000000001,15.100000000000001,5.300000000000001,13.6,-50.5,-9.4
1698920128958.0,16,0.0,5.7,3.0,-0.5,15.0,5.300000000000001,40.6,-55.900000000000006,-9.200000000000001
1698920128975.0,16,-0.4,2.3000000000000003,1.6,-0.8,11.700000000000001,3.7,59.7,-31.5,11.3
1698920128992.0,16,0.1,-1.0,2.4000000000000004,-0.30000000000000004,8.4,4.3,55.2,-12.5,5.9
1698920129008.0,16,0.30000000000000004,-1.3,2.8000000000000003,0.30000000000000004,9.1,4.9,47.1,-1.7,-5.2
1698920129025.0,16,0.6000000000000001,1.4000000000000001,3.8000000000000003,0.1,10.8,5.6000000000000005,36.9,-11.2,-8.600000000000001
1698920129041.0,16,-0.5,3.5,3.0,-0.9,13.0,4.7,27.0,-22.4,13.100000000000001
1698920129059.0,16,-0.4,3.3000000000000003,2.6,-0.8,12.8,4.3,15.299999999999999,-13.3,21.700000000000003
1698920129075.0,16,0.30000000000000004,0.7000000000000001,1.5,0.0,10.200000000000001,3.2,6.5,-1.3,13.3
1698920129092.0,16,0.7000000000000001,-0.5,1.1,0.4,9.0,2.8000000000000003,6.7,0.0,-9.0
1698920129109.0,16,0.2,0.0,1.9000000000000001,-0.1,9.5,3.6,4.1000000000000005,-4.2,-12.5
1698920129125.0,16,0.0,0.30000000000000004,2.0,-0.4,9.8,3.7,-0.6000000000000001,-3.5,-7.2
1698920129141.0,16,-0.5,0.0,1.3,-0.8,9.5,3.1,-13.0,1.0999999999999999,2.9
1698920129159.0,16,-0.7000000000000001,-0.4,0.9,-1.1,9.0,2.7,-17.200000000000003,3.9,5.7
1698920129176.0,16,-1.3,-1.5,0.1,-1.6,8.0,1.9000000000000001,-16.5,3.8,7.0
1698920129194.0,16,-1.5,-2.2,-0.30000000000000004,-1.8,7.300000000000001,1.5,-9.5,-0.6000000000000001,4.7
1698920129208.0,16,-1.6,-2.4000000000000004,-0.30000000000000004,-1.9000000000000001,6.7,1.7000000000000002,-3.9,-1.3,-4.6000000000000005
1698920129225.0,16,-1.5,-2.9000000000000004,-0.2,-1.9000000000000001,6.5,1.7000000000000002,-2.1999999999999997,-1.7,-10.600000000000001
1698920129241.0,16,-1.4000000000000001,-2.7,-0.1,-1.8,6.6000000000000005,1.8,-3.2,-7.500000000000001,-16.400000000000002
1698920129258.0,16,-1.3,-2.2,-0.1,-1.7000000000000002,7.2,1.8,-6.9,-13.5,-12.9
1698920129276.0,16,-1.2000000000000002,-2.0,-0.1,-1.7000000000000002,7.4,1.8,-7.6,-15.2,-10.4
1698920129291.0,16,-1.1,-1.8,-0.6000000000000001,-1.6,7.5,1.4000000000000001,-7.9,-16.700000000000003,-6.4
1698920129308.0,16,-1.2000000000000002,-1.9000000000000001,-0.7000000000000001,-1.7000000000000002,7.4,1.3,-8.3,-18.3,-4.300000000000001
1698920129325.0,16,-1.2000000000000002,-1.8,-0.7000000000000001,-1.8,7.5,1.3,-7.9,-19.6,-4.0
1698920129342.0,16,-1.2000000000000002,-1.6,-0.9,-1.7000000000000002,7.6000000000000005,1.1,-4.9,-26.8,-1.7
1698920129358.0,16,-1.2000000000000002,-1.5,-0.9,-1.8,7.7,1.1,0.7,-39.00000000000001,2.4000000000000004
1698920129375.0,16,-1.2000000000000002,-1.4000000000000001,-1.1,-1.7000000000000002,7.9,0.9,4.5,-41.300000000000004,4.800000000000001
1698920129392.0,16,-1.1,-0.8,-1.5,-1.6,8.5,0.4,8.1,-47.300000000000004,5.2
1698920129408.0,16,-1.1,-0.5,-1.5,-1.4000000000000001,9.1,0.7000000000000001,3.4,-52.1,3.0000000000000004
1698920129425.0,16,-1.0,0.30000000000000004,-0.6000000000000001,-1.4000000000000001,9.600000000000001,1.3,1.0,-53.400000000000006,1.7
1698920129441.0,16,-1.0,1.1,-0.1,-1.3,10.4,1.9000000000000001,-0.9,-48.50000000000001,-1.0
1698920129459.0,16,-1.1,1.3,-0.1,-1.4000000000000001,10.600000000000001,1.8,-3.5,-42.7,-2.9
1698920129475.0,16,-0.8,1.3,-0.4,-1.2000000000000002,10.600000000000001,1.6,-8.799999999999999,-28.3,-6.000000000000001
1698920129493.0,16,-0.4,0.8,-1.0,-0.8,10.0,1.0,-9.9,-20.7,-6.9
1698920129508.0,16,0.0,0.4,-0.8,-0.4,9.600000000000001,1.2000000000000002,-7.6,-22.3,-5.1
1698920129525.0,16,0.30000000000000004,0.9,0.0,-0.1,10.100000000000001,2.0,-3.8,-21.3,-6.3
1698920129541.0,16,1.3,2.6,1.7000000000000002,0.9,11.9,3.7,4.7,16.5,-12.700000000000001
1698920129558.0,16,1.7000000000000002,3.0,2.1,1.2000000000000002,12.3,4.1000000000000005,20.0,73.30000000000001,-14.200000000000001
1698920129574.0,16,1.5,2.4000000000000004,1.3,0.9,11.700000000000001,3.2,30.5,52.0,-9.0
1698920129591.0,16,0.8,0.4,0.0,0.30000000000000004,9.8,1.9000000000000001,27.900000000000002,11.000000000000002,5.300000000000001
1698920129611.0,16,-0.2,-0.9,2.0,-0.6000000000000001,8.5,3.8000000000000003,23.1,-10.2,15.5
1698920129624.0,16,-0.6000000000000001,0.6000000000000001,3.1,-1.0,10.0,4.9,30.100000000000005,-2.9,14.100000000000001
1698920129641.0,16,0.0,2.7,1.4000000000000001,-0.5,12.100000000000001,3.0,47.1,14.500000000000002,6.000000000000001
1698920129658.0,16,0.2,1.1,2.0,-0.2,10.600000000000001,3.6,39.8,1.5000000000000002,-7.699999999999999
1698920129675.0,16,0.6000000000000001,-1.2000000000000002,2.2,0.0,9.0,3.7,34.7,9.3,-7.699999999999999
1698920129691.0,16,0.5,-1.2000000000000002,2.2,0.0,8.3,3.6,16.0,13.700000000000001,0.4
1698920129708.0,16,0.6000000000000001,-0.30000000000000004,2.0,0.1,9.1,3.4000000000000004,6.5,16.0,-1.0999999999999999
1698920129724.0,16,0.7000000000000001,0.0,1.7000000000000002,0.4,9.600000000000001,3.0,7.0,21.0,-8.0
1698920129741.0,16,1.4000000000000001,0.1,1.4000000000000001,0.9,9.600000000000001,2.8000000000000003,8.1,23.5,-9.0
1698920129758.0,16,2.1,0.4,1.2000000000000002,1.6,9.9,2.5,9.9,22.1,-7.6
1698920129775.0,16,2.2,0.0,0.9,1.7000000000000002,9.5,2.3000000000000003,10.5,14.4,3.4
1698920129792.0,16,2.0,-0.30000000000000004,0.8,1.5,9.200000000000001,2.1,9.600000000000001,12.700000000000001,9.9
1698920129808.0,16,1.4000000000000001,-0.8,0.5,1.0,8.700000000000001,1.7000000000000002,6.1000000000000005,13.700000000000001,15.000000000000002
1698920129824.0,16,0.9,-0.9,0.2,0.5,8.6,1.5,2.6,17.7,12.8
1698920129841.0,16,0.8,-1.0,0.2,0.4,8.5,1.5,0.6000000000000001,19.3,11.4
1698920129858.0,16,0.6000000000000001,-0.9,0.1,0.2,8.6,1.4000000000000001,-4.5,18.900000000000002,8.3
1698920129876.0,16,0.5,-0.7000000000000001,-0.1,0.2,8.700000000000001,1.3,-7.300000000000001,18.3,5.8
1698920129891.0,16,0.5,-0.7000000000000001,-0.1,0.2,8.8,1.3,-11.5,15.100000000000001,1.3
1698920129909.0,16,0.5,-0.8,-0.1,0.2,8.700000000000001,1.2000000000000002,-13.0,13.100000000000001,-1.0999999999999999
1698920129925.0,16,0.6000000000000001,-1.0,-0.30000000000000004,0.2,8.5,1.1,-13.200000000000001,15.7,-1.4
1698920129941.0,16,0.7000000000000001,-1.0,-0.5,0.30000000000000004,8.5,0.9,-13.8,18.0,-1.4
1698920129958.0,16,0.7000000000000001,-1.1,-0.8,0.30000000000000004,8.4,0.7000000000000001,-16.2,18.3,-3.2
1698920129974.0,16,0.4,-1.2000000000000002,-1.1,0.0,8.200000000000001,0.4,-19.500000000000004,14.900000000000002,-5.0
1698920129991.0,16,0.4,-1.4000000000000001,-1.2000000000000002,0.0,7.9,0.30000000000000004,-22.000000000000004,13.700000000000001,-5.9
1698920130008.0,16,0.6000000000000001,-1.9000000000000001,-1.4000000000000001,0.2,7.5,0.2,-26.500000000000004,13.5,-9.3
1698920130024.0,16,1.1,-1.9000000000000001,-1.3,0.6000000000000001,7.5,0.4,-28.200000000000003,11.700000000000001,-12.100000000000001
1698920130041.0,16,1.5,-1.6,-1.3,1.0,7.7,0.5,-26.6,12.000000000000002,-14.200000000000001
1698920130058.0,16,1.5,-0.8,-0.9,1.0,8.5,0.9,-20.8,7.2,-17.400000000000002
1698920130074.0,16,0.4,0.0,-0.8,-0.2,9.200000000000001,1.0,-11.4,9.700000000000001,-15.7
1698920130091.0,16,-0.5,0.2,-1.0,-1.1,9.5,0.9,-7.2,13.4,-14.600000000000001
1698920130108.0,16,-1.7000000000000002,0.30000000000000004,-1.4000000000000001,-2.4000000000000004,9.600000000000001,0.5,-8.3,10.700000000000001,-17.1
1698920130124.0,16,-1.8,0.1,-1.4000000000000001,-2.6,9.3,0.5,-14.100000000000001,-3.2,-24.000000000000004
1698920130141.0,16,-1.3,-0.1,-2.1,-2.1,9.200000000000001,-0.2,-14.4,-4.1000000000000005,-30.4
1698920130157.0,16,0.5,-0.30000000000000004,-1.4000000000000001,-0.5,8.9,0.6000000000000001,-15.9,-4.9,-53.6
1698920130174.0,16,2.1,1.1,2.0,0.9,10.200000000000001,3.9000000000000004,13.0,-25.0,-68.7
1698920130191.0,16,1.8,1.9000000000000001,3.8000000000000003,0.5,11.100000000000001,5.7,52.6,-28.6,-46.4
1698920130208.0,16,1.4000000000000001,3.5,5.2,0.0,12.700000000000001,7.0,46.5,-24.6,-26.200000000000003
1698920130225.0,16,-3.8000000000000003,6.0,6.1000000000000005,-5.1000000000000005,15.3,7.9,27.7,-52.400000000000006,36.6
1698920130241.0,16,-5.300000000000001,5.300000000000001,3.3000000000000003,-6.4,14.600000000000001,5.0,22.5,-79.5,85.2
1698920130258.0,16,-2.8000000000000003,1.6,0.8,-3.6,11.0,2.6,8.3,-54.9,111.2
1698920130274.0,16,-0.1,-1.4000000000000001,1.4000000000000001,-0.6000000000000001,8.0,3.2,5.2,-70.8,15.7
1698920130291.0,16,0.0,-2.4000000000000004,1.6,-0.6000000000000001,7.0,3.4000000000000004,-1.2000000000000002,-76.60000000000001,-40.3
1698920130308.0,16,0.30000000000000004,0.7000000000000001,1.2000000000000002,-0.5,10.100000000000001,3.1,-5.2,-87.80000000000001,-67.2
1698920130324.0,16,-1.1,2.0,1.4000000000000001,-2.0,11.4,3.3000000000000003,-0.8,-88.3,-41.7
1698920130341.0,16,-2.3000000000000003,1.3,1.1,-3.3000000000000003,10.700000000000001,3.0,-3.3000000000000003,-94.0,-19.6
1698920130358.0,16,-2.4000000000000004,0.9,0.7000000000000001,-3.3000000000000003,10.3,2.6,-7.2,-101.30000000000001,-6.8
1698920130375.0,16,-2.5,0.2,0.4,-3.4000000000000004,9.600000000000001,2.4000000000000004,-11.5,-112.2,-1.9
1698920130391.0,16,-2.3000000000000003,-0.1,0.1,-3.2,9.3,2.2,-10.3,-118.60000000000001,-26.3
1698920130408.0,16,-2.0,-0.30000000000000004,-0.1,-2.9000000000000004,9.0,2.0,-11.700000000000001,-120.00000000000001,-39.699999999999996
1698920130425.0,16,-0.5,-0.7000000000000001,-0.6000000000000001,-1.4000000000000001,8.6,1.7000000000000002,-14.600000000000001,-128.4,-41.2
1698920130441.0,16,0.2,-0.8,-0.5,-0.7000000000000001,8.5,1.8,-13.6,-135.8,-37.0
1698920130458.0,16,0.4,-0.9,-0.30000000000000004,-0.6000000000000001,8.4,2.0,-13.3,-138.4,-37.6
1698920130474.0,16,0.2,-0.7000000000000001,-0.2,-0.7000000000000001,8.6,2.3000000000000003,-13.6,-138.6,-41.5
1698920130491.0,16,0.0,-0.5,-0.2,-1.0,8.8,2.3000000000000003,-15.8,-137.1,-43.6
1698920130508.0,16,-0.2,-0.4,-0.4,-1.2000000000000002,8.8,2.2,-16.400000000000002,-136.9,-41.6
1698920130524.0,16,-0.6000000000000001,-0.4,-0.6000000000000001,-1.6,8.8,2.0,-14.600000000000001,-135.70000000000002,-39.300000000000004
1698920130541.0,16,-0.6000000000000001,-0.5,-0.8,-1.6,8.6,1.9000000000000001,-10.700000000000001,-141.6,-41.9
1698920130559.0,16,-0.4,-0.7000000000000001,-0.8,-1.4000000000000001,8.5,2.0,-8.5,-144.4,-43.6
1698920130574.0,16,0.2,-0.8,-0.8,-0.8,8.3,2.0,-5.2,-145.5,-45.3
1698920130591.0,16,0.7000000000000001,-0.7000000000000001,-0.8,-0.30000000000000004,8.4,2.1,-2.7,-145.5,-40.1
1698920130607.0,16,0.7000000000000001,-0.6000000000000001,-0.8,-0.30000000000000004,8.5,2.1,-2.6,-143.0,-37.800000000000004
1698920130624.0,16,0.7000000000000001,-0.30000000000000004,-0.8,-0.30000000000000004,8.8,2.2,-5.9,-136.4,-32.9
1698920130641.0,16,0.6000000000000001,-0.2,-0.4,-0.2,8.9,2.6,-6.3,-132.6,-27.2
1698920130657.0,16,0.7000000000000001,-0.30000000000000004,-0.5,-0.2,8.700000000000001,2.6,-3.6,-132.2,-25.5
1698920130674.0,16,0.8,-0.8,-0.4,0.0,8.3,2.7,0.9,-134.2,-21.1
1698920130691.0,16,0.30000000000000004,-0.7000000000000001,-0.6000000000000001,-0.4,8.3,2.5,3.4,-133.0,-18.8
1698920130708.0,16,-0.30000000000000004,-0.5,-0.7000000000000001,-0.9,8.6,2.4000000000000004,3.1,-131.0,-18.5
1698920130724.0,16,-1.5,0.0,-0.6000000000000001,-2.1,9.0,2.5,5.0,-126.89999999999999,-17.8
1698920130741.0,16,-1.8,0.0,-0.9,-2.3000000000000003,9.0,2.3000000000000003,6.1000000000000005,-127.3,-17.5
1698920130758.0,16,-1.6,-0.7000000000000001,-1.3,-2.0,8.3,1.8,5.1,-129.5,-15.6
1698920130775.0,16,-1.2000000000000002,-1.4000000000000001,-1.6,-1.6,7.6000000000000005,1.5,4.800000000000001,-133.50000000000003,-12.700000000000001
1698920130791.0,16,-1.5,-1.2000000000000002,-1.7000000000000002,-1.7000000000000002,7.800000000000001,1.4000000000000001,2.9,-132.4,-7.500000000000001
1698920130808.0,16,-1.7000000000000002,-0.9,-1.8,-1.9000000000000001,8.1,1.3,1.5000000000000002,-132.3,-4.3999999999999995
1698920130825.0,16,-1.9000000000000001,-0.1,-1.2000000000000002,-2.0,8.9,1.9000000000000001,-0.9,-154.9,-1.0999999999999999
1698920130841.0,16,-0.9,2.2,0.2,-0.8,11.200000000000001,3.3000000000000003,-10.8,-157.1,-7.300000000000001
1698920130858.0,16,0.1,3.7,0.8,0.30000000000000004,12.700000000000001,4.0,-17.1,-152.1,-20.8
1698920130878.0,16,2.5,6.1000000000000005,0.9,2.6,15.100000000000001,4.1000000000000005,-34.50000000000001,-124.8,-63.800000000000004
1698920130891.0,16,3.9000000000000004,2.5,-1.1,3.9000000000000004,11.5,2.2,-34.900000000000006,-132.1,-100.30000000000001
1698920130907.0,16,3.6,0.4,-1.4000000000000001,3.6,9.4,2.0,-34.50000000000001,-142.4,-93.60000000000001
1698920130924.0,16,2.2,-1.7000000000000002,-1.2000000000000002,2.2,7.300000000000001,2.2,-23.8,-145.2,-41.800000000000004
1698920130941.0,16,0.0,-0.7000000000000001,-1.3,0.1,8.3,2.2,-11.2,-138.00000000000003,-4.1000000000000005
1698920130958.0,16,-0.5,-0.2,-1.7000000000000002,-0.30000000000000004,8.9,1.4000000000000001,-1.9,-141.1,-9.5
1698920130974.0,16,-0.5,0.4,-2.2,-0.2,9.3,1.2000000000000002,0.1,-143.9,-7.300000000000001
1698920130991.0,16,-0.2,1.3,-2.2,0.30000000000000004,10.200000000000001,1.2000000000000002,-0.30000000000000004,-149.7,-8.0
1698920131008.0,16,0.1,0.9,-2.6,0.7000000000000001,9.9,0.8,-7.1000000000000005,-158.9,-20.4
1698920131024.0,16,0.6000000000000001,0.4,-2.9000000000000004,1.2000000000000002,9.3,0.5,-11.8,-161.6,-23.900000000000002
1698920131041.0,16,1.0,-0.1,-3.0,1.8,8.8,0.4,-15.8,-162.20000000000002,-26.400000000000002
1698920131058.0,16,1.1,-0.4,-3.0,2.0,8.5,0.30000000000000004,-15.100000000000001,-160.60000000000002,-32.7
1698920131074.0,16,1.4000000000000001,-0.6000000000000001,-2.9000000000000004,2.3000000000000003,8.3,0.4,-12.4,-153.10000000000002,-41.800000000000004
1698920131091.0,16,1.6,-0.2,-2.4000000000000004,2.6,8.700000000000001,0.9,-6.8,-146.1,-40.2
1698920131107.0,16,1.3,0.4,-1.8,2.4000000000000004,9.4,1.4000000000000001,-3.0000000000000004,-140.5,-36.2
1698920131124.0,16,1.2000000000000002,0.4,-1.5,2.3000000000000003,9.4,1.7000000000000002,-2.8,-136.4,-37.800000000000004
1698920131141.0,16,1.3,0.4,-1.0,2.4000000000000004,9.3,2.1,-5.8,-128.4,-35.6
1698920131158.0,16,1.5,0.30000000000000004,-1.2000000000000002,2.6,9.200000000000001,1.9000000000000001,-7.300000000000001,-124.60000000000001,-32.2
1698920131174.0,16,1.4000000000000001,0.2,-1.3,2.6,9.200000000000001,1.8,-7.500000000000001,-123.30000000000001,-31.4
1698920131191.0,16,0.9,0.30000000000000004,-1.1,2.1,9.200000000000001,2.0,-6.7,-120.3,-30.200000000000003
1698920131208.0,16,0.6000000000000001,0.30000000000000004,-1.1,1.6,9.4,2.0,-7.1000000000000005,-113.2,-28.400000000000002
1698920131224.0,16,0.2,0.5,-1.0,1.4000000000000001,9.5,2.0,-8.9,-109.0,-28.400000000000002
1698920131241.0,16,0.4,0.4,-1.1,1.7000000000000002,9.4,1.9000000000000001,-10.8,-102.10000000000001,-29.700000000000003
1698920131258.0,16,0.7000000000000001,0.2,-1.2000000000000002,2.1,9.0,1.7000000000000002,-9.8,-100.50000000000001,-27.3
1698920131274.0,16,0.8,0.0,-1.2000000000000002,2.1,8.9,1.7000000000000002,-8.600000000000001,-94.0,-21.8
1698920131291.0,16,0.8,-0.1,-1.0,2.2,8.9,2.0,-9.9,-86.0,-23.8
1698920131308.0,16,1.0,0.30000000000000004,-0.9,2.4000000000000004,9.200000000000001,2.0,-13.200000000000001,-76.0,-26.8
1698920131325.0,16,1.2000000000000002,0.4,-0.8,2.5,9.3,2.1,-14.600000000000001,-72.4,-27.3
1698920131341.0,16,1.2000000000000002,0.4,-0.9,2.6,9.3,2.1,-15.100000000000001,-67.2,-25.3
1698920131358.0,16,0.7000000000000001,0.4,-0.9,2.1,9.4,2.0,-14.900000000000002,-61.4,-20.0
1698920131375.0,16,0.30000000000000004,0.30000000000000004,-0.9,1.7000000000000002,9.3,2.0,-15.100000000000001,-58.3,-21.3
1698920131393.0,16,0.0,0.30000000000000004,-0.9,1.3,9.200000000000001,2.0,-16.3,-57.2,-21.5
1698920131408.0,16,-0.2,0.0,-1.1,1.1,9.0,1.9000000000000001,-15.100000000000001,-57.6,-19.9
1698920131424.0,16,-0.2,0.0,-1.2000000000000002,1.1,8.9,1.8,-15.100000000000001,-58.400000000000006,-19.3
1698920131441.0,16,-0.1,-0.30000000000000004,-1.4000000000000001,1.2000000000000002,8.6,1.6,-16.3,-58.9,-20.1
1698920131457.0,16,-0.1,-0.4,-1.4000000000000001,1.2000000000000002,8.5,1.6,-16.2,-56.5,-22.6
1698920131475.0,16,-0.1,-0.30000000000000004,-1.4000000000000001,1.2000000000000002,8.6,1.6,-15.2,-54.5,-23.5
1698920131491.0,16,0.1,0.1,-1.6,1.4000000000000001,9.0,1.4000000000000001,-14.3,-49.6,-25.0
1698920131508.0,16,0.1,0.2,-1.7000000000000002,1.4000000000000001,9.1,1.4000000000000001,-13.8,-46.6,-26.500000000000004
1698920131524.0,16,0.1,0.1,-1.7000000000000002,1.4000000000000001,9.0,1.3,-13.700000000000001,-45.7,-27.3
1698920131541.0,16,0.0,-0.2,-1.6,1.2000000000000002,8.700000000000001,1.4000000000000001,-13.100000000000001,-44.6,-28.400000000000002
1698920131558.0,16,0.0,-0.30000000000000004,-1.5,1.2000000000000002,8.6,1.5,-11.6,-41.5,-29.900000000000006
1698920131574.0,16,0.1,-0.30000000000000004,-1.4000000000000001,1.2000000000000002,8.6,1.6,-10.4,-38.7,-31.4
1698920131591.0,16,0.2,0.1,-1.0,1.3,9.0,2.1,-6.2,-36.5,-33.7
1698920131608.0,16,0.0,0.7000000000000001,-0.8,1.0,9.700000000000001,2.2,0.6000000000000001,-39.00000000000001,-30.299999999999997
1698920131624.0,16,-0.2,0.9,-1.1,0.8,9.9,1.9000000000000001,3.5,-42.1,-27.900000000000002
1698920131641.0,16,-0.2,0.6000000000000001,-0.9,0.8,9.600000000000001,2.1,4.2,-44.5,-25.8
1698920131658.0,16,0.5,0.5,-0.2,1.4000000000000001,9.5,2.7,9.4,-35.1,-26.200000000000003
1698920131674.0,16,0.7000000000000001,0.6000000000000001,-0.8,1.6,9.600000000000001,2.1,11.4,-30.799999999999997,-27.5
1698920131691.0,16,1.0,0.2,-0.4,1.8,9.200000000000001,2.5,11.2,-27.2,-28.6
1698920131708.0,16,0.6000000000000001,0.5,0.1,1.4000000000000001,9.600000000000001,2.9000000000000004,20.0,-30.200000000000003,-23.700000000000003
1698920131725.0,16,0.0,0.5,-0.1,0.4,9.3,2.4000000000000004,23.6,-38.0,-20.3
1698920131741.0,16,-0.5,-0.1,-0.4,0.30000000000000004,9.0,2.2,24.400000000000002,-47.2,-17.1
1698920131758.0,16,-0.8,0.9,0.7000000000000001,0.0,10.0,3.3000000000000003,23.900000000000002,-47.1,-12.8
1698920131774.0,16,-1.0,1.4000000000000001,1.0,-0.30000000000000004,10.600000000000001,3.5,24.1,-43.400000000000006,-15.6
1698920131791.0,16,-1.4000000000000001,1.2000000000000002,0.8,-0.7000000000000001,10.3,3.3000000000000003,17.1,-39.2,-25.2
1698920131808.0,16,-1.7000000000000002,-0.2,0.6000000000000001,-1.0,9.0,3.0,11.6,-39.300000000000004,-24.7
1698920131824.0,16,-1.9000000000000001,-0.5,0.30000000000000004,-1.3,8.700000000000001,2.7,10.8,-42.900000000000006,-20.8
1698920131841.0,16,-2.0,-0.2,0.0,-1.4000000000000001,9.0,2.4000000000000004,6.2,-48.50000000000001,-16.0
1698920131859.0,16,-1.5,1.1,0.5,-1.0,10.3,2.9000000000000004,-0.5,-44.6,-21.400000000000002
1698920131881.0,16,-0.6000000000000001,2.5,0.9,-0.2,11.700000000000001,3.3000000000000003,-1.8,-36.2,-33.6
1698920131891.0,16,-0.2,2.4000000000000004,1.0,0.2,11.600000000000001,3.4000000000000004,-1.5000000000000002,-29.000000000000004,-41.1
1698920131908.0,16,0.0,0.5,0.4,0.30000000000000004,9.8,2.8000000000000003,-1.0999999999999999,-16.1,-46.900000000000006
1698920131924.0,16,0.0,-0.30000000000000004,0.1,0.2,8.4,2.3000000000000003,-5.9,-8.799999999999999,-38.1
1698920131941.0,16,-0.2,-1.1,-0.4,-0.1,8.1,2.1,-8.200000000000001,-6.4,-33.7
1698920131958.0,16,-0.6000000000000001,-1.4000000000000001,-0.6000000000000001,-0.6000000000000001,7.9,1.8,-10.0,-6.000000000000001,-28.6
1698920131975.0,16,-0.8,-1.1,-0.9,-0.9,8.1,1.5,-8.3,-7.400000000000001,-24.5
1698920131991.0,16,-0.9,-0.9,-1.2000000000000002,-1.0,8.3,1.3,-8.0,-9.200000000000001,-22.2
1698920132008.0,16,-1.2000000000000002,-0.8,-1.3,-1.3,8.4,1.2000000000000002,-7.8,-12.6,-16.700000000000003
1698920132024.0,16,-1.5,-0.9,-1.5,-1.7000000000000002,8.3,1.0,-6.4,-17.200000000000003,-11.5
1698920132041.0,16,-1.7000000000000002,-0.9,-1.6,-1.9000000000000001,8.3,1.0,-6.000000000000001,-18.900000000000002,-10.700000000000001
1698920132058.0,16,-2.1,-0.7000000000000001,-1.7000000000000002,-2.3000000000000003,8.4,0.9,-7.1000000000000005,-20.7,-9.9
1698920132074.0,16,-2.1,-0.8,-1.5,-2.4000000000000004,8.4,1.0,-7.0,-24.9,-9.1
1698920132091.0,16,-2.0,-0.8,-1.7000000000000002,-2.2,8.4,0.9,-6.1000000000000005,-27.5,-9.5
1698920132108.0,16,-1.3,-0.7000000000000001,-2.0,-1.6,8.5,0.6000000000000001,-6.3,-34.6,-11.2
1698920132124.0,16,-1.0,-0.7000000000000001,-2.0,-1.3,8.5,0.5,-4.2,-43.0,-9.8
1698920132141.0,16,-0.9,-0.8,-2.1,-1.3,8.4,0.5,-3.0000000000000004,-47.7,-7.8
1698920132158.0,16,-1.2000000000000002,-0.9,-1.9000000000000001,-1.5,8.3,0.6000000000000001,-3.3000000000000003,-56.2,-3.2
1698920132174.0,16,-1.4000000000000001,-0.2,-0.9,-1.7000000000000002,8.9,1.6,-3.4,-56.6,0.9
1698920132191.0,16,-1.5,0.2,-0.6000000000000001,-1.7000000000000002,9.3,1.9000000000000001,-3.7000000000000006,-50.1,0.0
1698920132208.0,16,-1.3,0.8,-0.6000000000000001,-1.5,9.9,1.9000000000000001,-7.400000000000001,-39.300000000000004,-3.1
1698920132224.0,16,-1.3,1.3,-0.7000000000000001,-1.5,10.100000000000001,1.9000000000000001,-11.000000000000002,-39.9,-2.1999999999999997
1698920132242.0,16,-1.4000000000000001,1.5,-0.6000000000000001,-1.5,10.600000000000001,2.0,-15.7,-41.0,-2.6
1698920132258.0,16,-1.4000000000000001,1.2000000000000002,-1.1,-1.6,10.3,1.6,-12.700000000000001,-34.6,-6.6000000000000005
1698920132274.0,16,-1.4000000000000001,1.1,-0.9,-1.4000000000000001,10.8,3.3000000000000003,-8.799999999999999,-37.1,-8.0
1698920132292.0,16,-0.2,3.1,2.4000000000000004,-0.4,12.200000000000001,5.1000000000000005,9.5,-30.9,-13.100000000000001
1698920132308.0,16,1.8,5.300000000000001,2.2,1.5,14.5,4.9,19.1,25.400000000000002,-21.5
1698920132324.0,16,1.1,3.8000000000000003,2.2,0.7000000000000001,13.0,4.9,3.8,20.0,-19.700000000000003
1698920132342.0,16,0.8,2.4000000000000004,0.8,0.5,11.600000000000001,3.4000000000000004,3.6,14.200000000000001,-12.000000000000002
1698920132358.0,16,0.2,-1.0,0.4,-0.1,8.3,3.0,4.3999999999999995,-8.1,15.9
1698920132376.0,16,-1.2000000000000002,0.2,1.7000000000000002,-0.8,8.4,3.2,8.5,-17.5,27.900000000000002
1698920132391.0,16,-1.3,1.7000000000000002,3.1,-1.5,11.0,5.7,20.900000000000002,-22.3,27.8
1698920132408.0,16,-1.0,2.5,1.7000000000000002,-1.1,11.8,4.2,41.300000000000004,-15.9,20.2
1698920132424.0,16,-0.6000000000000001,-1.0,1.4000000000000001,-0.7000000000000001,8.3,3.8000000000000003,46.800000000000004,-2.1999999999999997,6.7
1698920132441.0,16,-0.2,-1.9000000000000001,2.0,-0.2,7.4,4.2,32.4,-8.4,6.6000000000000005
1698920132457.0,16,-0.30000000000000004,-1.8,2.2,-0.30000000000000004,7.6000000000000005,4.4,20.2,-9.4,6.8
1698920132474.0,16,-0.1,-1.3,1.8,-0.1,8.0,4.0,7.2,-3.2,2.5
1698920132491.0,16,0.1,-1.3,1.3,0.4,8.1,3.2,7.2,-0.2,-2.1
1698920132508.0,16,0.7000000000000001,-1.3,1.0,0.7000000000000001,8.1,3.2,8.5,1.6,-7.400000000000001
1698920132524.0,16,1.1,-1.1,1.0,1.1,8.3,3.1,7.300000000000001,1.0,-4.7
1698920132542.0,16,1.0,-0.8,1.0,1.0,8.6,3.1,5.6,0.0,-1.0
1698920132558.0,16,0.30000000000000004,-0.6000000000000001,0.9,0.30000000000000004,8.8,3.0,4.1000000000000005,-1.7,8.9
1698920132574.0,16,0.1,-0.9,0.6000000000000001,0.1,8.4,2.8000000000000003,5.0,-3.4,12.5
1698920132591.0,16,0.1,-1.1,0.6000000000000001,0.2,8.3,2.7,4.3999999999999995,-3.1,12.9
1698920132609.0,16,0.6000000000000001,-1.4000000000000001,0.5,0.7000000000000001,8.0,2.6,2.4000000000000004,0.1,8.4
1698920132624.0,16,1.0,-1.4000000000000001,0.30000000000000004,1.1,7.9,2.4000000000000004,-0.5,6.3,0.7
1698920132655.0,16,1.2000000000000002,-1.0,0.0,1.3,8.3,2.1,-4.1000000000000005,13.3,2.8
1698920132657.0,16,1.2000000000000002,-1.0,0.0,1.3,8.3,2.1,-4.1000000000000005,13.3,2.8
1698920132674.0,16,0.7000000000000001,-0.9,-0.2,0.9,8.4,1.9000000000000001,-2.1999999999999997,14.100000000000001,12.6
1698920132691.0,16,0.5,-0.9,-0.4,0.6000000000000001,8.3,1.6,-0.30000000000000004,16.5,16.700000000000003
1698920132708.0,16,0.2,-1.0,-0.7000000000000001,0.4,8.200000000000001,1.4000000000000001,3.8,20.7,18.1
1698920132725.0,16,0.1,-1.0,-1.0,0.30000000000000004,8.200000000000001,1.1,5.0,24.000000000000004,14.500000000000002
1698920132741.0,16,-0.1,-0.9,-1.1,0.2,8.4,1.0,1.9,28.0,9.3
1698920132758.0,16,0.0,-0.9,-1.4000000000000001,0.30000000000000004,8.4,0.7000000000000001,0.30000000000000004,30.799999999999997,6.5
1698920132775.0,16,-0.1,-1.0,-1.5,0.2,8.200000000000001,0.5,-2.7,25.6,1.3
1698920132791.0,16,0.0,-1.2000000000000002,-1.6,0.2,8.1,0.5,-3.7000000000000006,26.6,-0.7
1698920132809.0,16,-0.1,-1.6,-1.6,0.1,7.6000000000000005,0.5,-2.8,25.2,-5.2
1698920132824.0,16,0.0,-1.8,-1.3,0.2,7.4,0.8,-1.6,34.6,-9.4
1698920132842.0,16,0.30000000000000004,-1.7000000000000002,-1.3,0.5,7.5,0.8,-1.0999999999999999,44.6,-11.6
1698920132858.0,16,0.9,-0.6000000000000001,-1.5,0.9,8.6,0.6000000000000001,-3.5,53.2,-16.8
1698920132881.0,16,0.2,1.7000000000000002,-1.0,0.6000000000000001,10.4,0.9,-10.0,32.9,-15.100000000000001
1698920132891.0,16,-0.30000000000000004,1.9000000000000001,-0.9,-0.4,11.100000000000001,1.3,-11.6,21.400000000000002,-2.7
1698920132907.0,16,-1.3,2.0,-0.9,-1.3,11.3,1.3,-9.600000000000001,15.2,3.8
1698920132924.0,16,-2.8000000000000003,1.4000000000000001,-1.1,-2.9000000000000004,10.700000000000001,1.1,-9.8,4.5,12.3
1698920132941.0,16,-1.5,1.4000000000000001,-0.8,-1.6,10.600000000000001,1.4000000000000001,-13.0,16.700000000000003,2.5
1698920132957.0,16,0.0,1.9000000000000001,-0.9,-0.1,11.100000000000001,1.4000000000000001,-11.2,25.700000000000003,-9.8
1698920132974.0,16,0.6000000000000001,4.5,0.30000000000000004,0.5,13.700000000000001,2.5,-4.800000000000001,-21.1,-19.400000000000002
1698920132991.0,16,-0.30000000000000004,5.1000000000000005,2.2,-0.6000000000000001,14.0,5.5,17.5,-37.300000000000004,-14.0
1698920133008.0,16,-0.5,3.7,2.7,-0.7000000000000001,13.0,4.9,27.7,-23.3,-11.2
1698920133025.0,16,-0.4,0.9,3.2,-0.6000000000000001,10.200000000000001,5.4,23.700000000000003,-16.3,-2.1999999999999997
1698920133041.0,16,0.1,0.30000000000000004,3.7,-0.1,9.600000000000001,5.800000000000001,24.5,-10.9,1.6
1698920133058.0,16,0.0,1.0,3.5,-0.2,10.3,5.6000000000000005,25.8,-18.6,6.7
1698920133075.0,16,-0.9,1.4000000000000001,1.7000000000000002,-0.9,10.8,3.7,36.9,-23.0,32.7
1698920133091.0,16,-0.6000000000000001,0.4,0.8,-0.6000000000000001,9.8,2.7,43.1,-6.8,38.2
1698920133108.0,16,-0.30000000000000004,-2.0,1.4000000000000001,-0.30000000000000004,7.5,3.1,47.7,12.200000000000001,14.800000000000002
1698920133125.0,16,0.4,-1.7000000000000002,1.8,0.4,7.7,3.5,14.100000000000001,12.9,-17.0
1698920133141.0,16,0.8,-0.30000000000000004,1.3,0.7000000000000001,9.200000000000001,3.1,-14.100000000000001,4.9,-10.2
1698920133158.0,16,0.6000000000000001,0.2,1.1,0.6000000000000001,9.700000000000001,2.8000000000000003,-15.100000000000001,2.8,-0.7
1698920133175.0,16,-0.5,0.30000000000000004,1.1,-0.5,9.8,2.9000000000000004,-9.3,1.2000000000000002,9.8
1698920133192.0,16,-1.7000000000000002,-0.30000000000000004,1.1,-1.6,9.1,2.9000000000000004,-7.400000000000001,8.600000000000001,15.7
1698920133208.0,16,-2.1,-0.7000000000000001,1.0,-2.0,8.700000000000001,2.8000000000000003,-6.8,10.1,16.700000000000003
1698920133224.0,16,-2.3000000000000003,-1.0,0.8,-2.4000000000000004,8.200000000000001,2.7,-5.300000000000001,7.400000000000001,11.4
1698920133241.0,16,-2.3000000000000003,-1.3,0.6000000000000001,-2.2,8.1,2.5,-4.9,3.2,-2.7
1698920133258.0,16,-1.9000000000000001,-1.5,0.7000000000000001,-1.9000000000000001,7.9,2.6,-5.300000000000001,1.6,-11.000000000000002
1698920133275.0,16,-1.3,-1.5,0.5,-1.4000000000000001,7.9,2.4000000000000004,-4.5,0.8,-18.2
1698920133291.0,16,-1.1,-1.1,0.4,-1.2000000000000002,8.3,2.3000000000000003,-3.0000000000000004,1.9,-14.3
1698920133308.0,16,-1.1,-0.9,0.30000000000000004,-1.2000000000000002,8.4,2.2,-3.9,2.0,-12.200000000000001
1698920133324.0,16,-1.2000000000000002,-1.0,0.2,-1.4000000000000001,8.4,2.1,-7.2,1.4,-9.5
1698920133341.0,16,-1.3,-1.2000000000000002,-0.1,-1.5,8.1,1.9000000000000001,-9.3,-1.3,-6.8
1698920133357.0,16,-1.3,-1.5,-0.30000000000000004,-1.5,7.7,1.6,-9.4,-10.2,-4.5
1698920133374.0,16,-1.4000000000000001,-1.6,-0.6000000000000001,-1.6,7.7,1.4000000000000001,-8.9,-15.299999999999999,-3.2
1698920133395.0,16,-1.5,-1.4000000000000001,-0.8,-1.7000000000000002,7.9,1.3,-4.5,-29.700000000000003,0.2
1698920133408.0,16,-1.6,-1.3,-0.8,-1.9000000000000001,7.9,1.3,-1.2000000000000002,-34.6,2.4000000000000004
1698920133424.0,16,-1.8,-1.3,-1.1,-2.0,8.0,0.9,2.1999999999999997,-40.1,5.9
1698920133441.0,16,-2.1,-1.0,-1.2000000000000002,-2.3000000000000003,8.3,0.9,1.0999999999999999,-49.5,7.8
1698920133458.0,16,-2.2,-0.8,-1.2000000000000002,-2.4000000000000004,8.5,0.8,-1.7,-52.800000000000004,7.0
1698920133475.0,16,-2.2,-0.30000000000000004,-1.1,-2.3000000000000003,9.0,1.0,-9.600000000000001,-54.3,3.1
1698920133496.0,16,-1.6,0.30000000000000004,-0.8,-1.7000000000000002,9.600000000000001,1.3,-11.6,-50.4,-1.9
1698920133508.0,16,-1.3,0.6000000000000001,-0.9,-1.4000000000000001,9.9,1.2000000000000002,-10.3,-46.7,-5.7
1698920133524.0,16,-0.5,1.1,-0.6000000000000001,-0.6000000000000001,10.3,1.5,-3.3000000000000003,-40.7,-12.3
1698920133541.0,16,0.1,0.8,-0.8,-0.1,10.0,1.3,5.0,-31.099999999999998,-14.200000000000001
1698920133559.0,16,0.2,0.4,-0.6000000000000001,0.0,9.600000000000001,1.5,4.7,-27.7,-12.6
1698920133575.0,16,0.30000000000000004,0.8,1.2000000000000002,0.2,10.100000000000001,3.3000000000000003,4.3999999999999995,-28.200000000000003,-8.0
1698920133591.0,16,1.7000000000000002,3.5,3.2,1.6,12.8,5.300000000000001,9.9,7.1000000000000005,-9.1
1698920133608.0,16,1.9000000000000001,3.5,2.2,1.7000000000000002,12.9,4.3,14.0,18.5,-26.1
1698920133625.0,16,1.7000000000000002,1.7000000000000002,1.4000000000000001,1.5,11.100000000000001,3.4000000000000004,14.800000000000002,6.000000000000001,-27.3
1698920133641.0,16,0.0,-1.5,0.6000000000000001,-0.30000000000000004,7.9,2.6,10.3,-13.6,6.5
1698920133658.0,16,-0.8,-1.6,0.6000000000000001,-1.0,7.7,2.6,14.3,-27.900000000000002,23.2
1698920133675.0,16,-1.6,0.4,2.7,-1.7000000000000002,9.700000000000001,4.6000000000000005,31.900000000000002,-36.9,27.2
1698920133691.0,16,0.0,3.7,3.3000000000000003,-0.1,13.100000000000001,5.0,52.300000000000004,-12.000000000000002,-1.4
1698920133708.0,16,0.9,2.8000000000000003,2.5,0.8,12.3,4.3,46.900000000000006,-6.1000000000000005,-25.3
1698920133726.0,16,0.9,-0.8,2.2,0.7000000000000001,8.700000000000001,3.8000000000000003,4.9,-5.9,-33.1
1698920133741.0,16,0.30000000000000004,-1.1,1.4000000000000001,0.0,8.3,3.2,-12.8,-11.4,-11.8
1698920133758.0,16,0.0,-0.1,1.3,-0.30000000000000004,9.3,3.1,-4.3999999999999995,-14.3,-3.0000000000000004
1698920133775.0,16,0.0,0.30000000000000004,1.4000000000000001,-0.30000000000000004,9.700000000000001,3.2,0.7,-10.1,-4.1000000000000005
1698920133791.0,16,0.4,0.9,1.4000000000000001,0.1,10.4,3.1,-1.0999999999999999,-8.9,-5.6
1698920133807.0,16,1.1,0.5,0.8,0.8,10.0,2.7,-11.4,-19.8,-6.2
1698920133825.0,16,1.3,-0.1,0.6000000000000001,1.0,9.3,2.5,-14.3,-24.7,-6.2
1698920133841.0,16,1.4000000000000001,-1.2000000000000002,0.30000000000000004,1.1,8.200000000000001,2.2,-14.4,-31.0,-3.8
1698920133858.0,16,1.3,-1.4000000000000001,0.30000000000000004,0.9,7.9,2.3000000000000003,-13.6,-33.2,-1.5000000000000002
1698920133875.0,16,1.0,-1.3,0.4,0.8,8.0,2.4000000000000004,-12.8,-31.8,2.6
1698920133891.0,16,0.6000000000000001,-0.9,0.1,0.5,8.5,2.2,-11.8,-29.900000000000006,3.2
1698920133908.0,16,0.1,-0.5,-0.2,0.0,8.8,1.9000000000000001,-15.000000000000002,-29.900000000000006,3.5
1698920133925.0,16,0.0,-0.5,-0.30000000000000004,-0.2,8.8,1.8,-16.5,-30.9,2.8
1698920133941.0,16,-0.2,-0.8,-0.5,-0.30000000000000004,8.5,1.7000000000000002,-17.1,-33.300000000000004,-1.6
1698920133957.0,16,0.0,-1.1,-0.4,-0.1,8.200000000000001,1.8,-15.5,-34.800000000000004,-8.799999999999999
1698920133974.0,16,0.1,-1.1,-0.4,0.0,8.200000000000001,1.8,-14.700000000000001,-35.0,-12.6
1698920133991.0,16,0.8,-1.3,-0.7000000000000001,0.6000000000000001,8.0,1.6,-13.0,-30.599999999999998,-18.900000000000002
1698920134009.0,16,1.2000000000000002,-1.5,-1.0,1.0,7.7,1.3,-9.4,-29.500000000000004,-24.000000000000004
1698920134025.0,16,1.5,-1.4000000000000001,-1.2000000000000002,1.3,7.800000000000001,1.1,-3.6,-29.900000000000006,-23.6
1698920134041.0,16,1.4000000000000001,-1.2000000000000002,-1.3,1.1,8.0,1.0,-1.3,-31.900000000000002,-22.000000000000004
1698920134058.0,16,0.4,-0.6000000000000001,-1.1,0.2,8.6,1.1,-0.6000000000000001,-33.900000000000006,-19.6
1698920134074.0,16,-0.1,-0.5,-0.9,-0.4,8.700000000000001,1.4000000000000001,-1.5000000000000002,-34.2,-21.200000000000003
1698920134097.0,16,-0.8,-0.30000000000000004,-0.6000000000000001,-1.1,8.9,1.7000000000000002,-2.8,-35.5,-27.0
1698920134109.0,16,-1.1,0.0,-0.7000000000000001,-1.5,9.200000000000001,1.6,-4.1000000000000005,-42.5,-34.7
1698920134124.0,16,-1.1,0.0,-0.7000000000000001,-1.7000000000000002,9.1,1.6,-5.7,-47.5,-44.9
1698920134141.0,16,-0.9,-0.2,-1.4000000000000001,-1.5,9.0,1.0,-5.2,-47.2,-50.4
1698920134158.0,16,0.30000000000000004,-0.30000000000000004,-0.30000000000000004,-0.5,8.8,2.1,-2.1,-49.2,-67.0
1698920134176.0,16,1.5,0.4,0.9,0.2,9.1,3.3000000000000003,11.6,-49.0,-77.9
1698920134191.0,16,1.8,0.7000000000000001,1.0,0.7000000000000001,9.9,3.2,35.1,-52.0,-86.60000000000001
1698920134208.0,16,2.6,1.5,3.6,1.4000000000000001,10.700000000000001,5.800000000000001,28.8,-61.1,-54.3
1698920134225.0,16,1.5,1.9000000000000001,4.6000000000000005,0.30000000000000004,11.100000000000001,6.800000000000001,30.5,-71.7,-29.300000000000004
1698920134241.0,16,-2.5,1.6,2.0,-3.6,10.8,4.2,29.500000000000004,-93.7,45.1
1698920134258.0,16,-4.0,1.1,1.9000000000000001,-4.800000000000001,10.3,4.1000000000000005,14.800000000000002,-88.2,82.9
1698920134274.0,16,-2.3000000000000003,1.6,1.1,-2.9000000000000004,10.9,3.3000000000000003,-2.8,-89.7,26.1
1698920134291.0,16,-1.5,1.1,0.8,-2.1,10.3,3.0,-9.1,-91.7,-22.8
1698920134308.0,16,0.0,1.5,0.6000000000000001,-0.7000000000000001,10.700000000000001,2.9000000000000004,0.1,-95.3,-65.0
1698920134324.0,16,0.4,1.8,0.6000000000000001,-0.4,11.100000000000001,2.9000000000000004,9.5,-97.00000000000001,-64.9
1698920134341.0,16,0.4,2.4000000000000004,1.4000000000000001,-0.5,11.700000000000001,3.6,8.200000000000001,-100.10000000000001,-43.1
1698920134358.0,16,-1.1,1.0,1.1,-2.0,10.3,3.4000000000000004,-9.200000000000001,-100.4,-35.4
1698920134375.0,16,-1.1,0.30000000000000004,0.30000000000000004,-2.0,9.600000000000001,2.7,-13.100000000000001,-104.3,-26.8
1698920134391.0,16,-1.2000000000000002,0.2,0.0,-2.2,9.5,2.4000000000000004,-11.5,-106.3,-22.900000000000002
1698920134408.0,16,-1.4000000000000001,-0.1,-0.2,-2.3000000000000003,9.200000000000001,2.3000000000000003,-7.699999999999999,-117.5,-26.8
1698920134424.0,16,-1.2000000000000002,-0.6000000000000001,-0.30000000000000004,-2.1,8.700000000000001,2.3000000000000003,-9.700000000000001,-123.30000000000001,-38.0
1698920134441.0,16,-0.9,-0.7000000000000001,-0.30000000000000004,-1.9000000000000001,8.5,2.3000000000000003,-10.9,-126.1,-42.300000000000004
1698920134458.0,16,-0.4,-0.8,-0.5,-1.4000000000000001,8.4,2.2,-10.8,-131.7,-44.4
1698920134474.0,16,-0.2,-0.7000000000000001,-0.5,-1.3,8.5,2.2,-8.1,-135.0,-43.400000000000006
1698920134491.0,16,-0.30000000000000004,-0.6000000000000001,-0.5,-1.4000000000000001,8.6,2.2,-7.699999999999999,-135.9,-43.1
1698920134508.0,16,-0.6000000000000001,-0.4,-0.6000000000000001,-1.6,8.700000000000001,2.3000000000000003,-9.4,-137.0,-43.300000000000004
1698920134524.0,16,-0.7000000000000001,-0.4,-0.7000000000000001,-1.7000000000000002,8.700000000000001,2.2,-10.5,-139.1,-43.900000000000006
1698920134541.0,16,-0.6000000000000001,-0.5,-1.0,-1.6,8.6,2.0,-10.700000000000001,-142.8,-44.4
1698920134558.0,16,-0.4,-0.6000000000000001,-1.0,-1.4000000000000001,8.5,2.0,-6.1000000000000005,-145.2,-46.300000000000004
1698920134575.0,16,-0.2,-0.6000000000000001,-1.2000000000000002,-1.2000000000000002,8.4,1.9000000000000001,-0.6000000000000001,-145.1,-46.1
1698920134591.0,16,-0.1,-0.7000000000000001,-1.2000000000000002,-1.1,8.3,1.9000000000000001,0.30000000000000004,-144.10000000000002,-44.6
1698920134609.0,16,0.1,-0.7000000000000001,-0.9,-0.9,8.200000000000001,2.2,-0.2,-140.10000000000002,-39.1
1698920134624.0,16,0.2,-0.5,-0.7000000000000001,-0.7000000000000001,8.5,2.4000000000000004,1.0999999999999999,-136.29999999999998,-32.7
1698920134641.0,16,0.30000000000000004,-0.4,-0.7000000000000001,-0.6000000000000001,8.6,2.5,2.0,-133.9,-31.2
1698920134658.0,16,0.4,-0.30000000000000004,-0.4,-0.4,8.6,2.8000000000000003,1.7,-131.9,-26.0
1698920134674.0,16,0.30000000000000004,-0.6000000000000001,-0.30000000000000004,-0.5,8.4,2.9000000000000004,1.9,-126.89999999999999,-21.3
1698920134691.0,16,0.0,-0.7000000000000001,-0.30000000000000004,-1.1,8.200000000000001,3.1,2.3000000000000003,-124.7,-20.2
1698920134708.0,16,-0.7000000000000001,-0.6000000000000001,-0.2,-1.4000000000000001,8.4,3.1,2.4000000000000004,-120.40000000000002,-19.0
1698920134724.0,16,-1.3,-0.5,-0.30000000000000004,-1.9000000000000001,8.5,3.0,3.1,-114.5,-17.599999999999998
1698920134743.0,16,-1.3,-0.5,-0.5,-1.9000000000000001,8.4,2.8000000000000003,4.2,-111.9,-15.9
1698920134758.0,16,-1.5,-0.6000000000000001,-0.6000000000000001,-2.0,8.3,2.7,5.8,-111.70000000000002,-11.9
1698920134774.0,16,-1.5,-0.6000000000000001,-0.7000000000000001,-1.9000000000000001,8.3,2.6,7.500000000000001,-114.10000000000001,-7.1000000000000005
1698920134791.0,16,-1.6,-0.6000000000000001,-0.5,-1.9000000000000001,8.4,2.8000000000000003,7.8,-117.8,-5.4
1698920134808.0,16,-1.8,0.1,-0.4,-2.0,9.0,2.9000000000000004,5.500000000000001,-123.6,-3.0000000000000004
1698920134824.0,16,-1.8,0.9,-0.5,-1.9000000000000001,9.8,2.7,-2.6,-130.5,-3.6
1698920134846.0,16,-1.6,1.0,-0.4,-1.6,9.9,2.9000000000000004,-13.9,-141.70000000000002,-9.200000000000001
1698920134858.0,16,-1.3,1.2000000000000002,-0.1,-1.2000000000000002,10.200000000000001,3.2,-20.1,-152.9,-12.5
1698920134875.0,16,-0.1,3.1,0.9,0.1,12.0,4.4,-41.300000000000004,-158.10000000000002,-25.8
1698920134891.0,16,0.6000000000000001,4.0,1.0,1.6,12.9,3.7,-59.9,-148.70000000000002,-63.4
1698920134908.0,16,1.9000000000000001,2.7,-1.0,2.1,11.5,2.7,-61.0,-148.0,-86.60000000000001
1698920134924.0,16,2.0,-0.8,-1.6,2.1,8.0,2.2,-48.00000000000001,-148.60000000000002,-98.5
1698920134941.0,16,2.1,-1.8,-1.7000000000000002,2.2,6.9,2.2,-36.5,-139.1,-83.50000000000001
1698920134958.0,16,1.4000000000000001,-1.9000000000000001,-2.3000000000000003,1.5,6.800000000000001,1.6,-11.5,-128.60000000000002,-33.400000000000006
1698920134974.0,16,-0.1,0.7000000000000001,-2.4000000000000004,0.2,9.4,1.5,0.6000000000000001,-134.5,-5.300000000000001
1698920134991.0,16,-0.5,1.5,-2.5,-0.2,10.3,1.3,2.5,-143.0,-1.3
1698920135008.0,16,-0.8,2.3000000000000003,-2.8000000000000003,-0.2,11.0,1.0,-1.3,-156.8,-7.2
1698920135025.0,16,0.1,1.1,-2.7,0.8,9.8,1.1,-8.5,-160.20000000000002,-30.100000000000005
1698920135041.0,16,0.6000000000000001,0.30000000000000004,-2.5,1.4000000000000001,9.0,1.3,-11.2,-158.5,-42.300000000000004
1698920135059.0,16,1.4000000000000001,-0.30000000000000004,-2.2,2.2,8.5,1.6,-12.9,-151.60000000000002,-51.5
1698920135074.0,16,1.5,-0.1,-1.8,2.3000000000000003,8.6,2.0,-11.1,-138.7,-51.6
1698920135091.0,16,1.3,0.0,-1.6,2.0,8.6,2.1,-7.400000000000001,-126.20000000000002,-51.900000000000006
1698920135109.0,16,1.0,-0.2,-1.5,1.8,8.5,2.2,-6.3,-120.60000000000001,-51.5
1698920135124.0,16,1.1,-0.2,-1.0,1.9000000000000001,8.6,2.6,-6.6000000000000005,-112.9,-48.50000000000001
1698920135142.0,16,1.2000000000000002,0.2,-0.6000000000000001,2.0,9.0,3.0,-6.8,-111.30000000000001,-45.2
1698920135158.0,16,1.1,0.30000000000000004,-0.4,2.0,9.1,3.2,-7.0,-111.10000000000001,-44.5
1698920135174.0,16,0.9,0.4,-0.1,1.8,9.200000000000001,3.5,-6.5,-110.0,-42.1
1698920135191.0,16,0.8,0.4,-0.1,1.7000000000000002,9.200000000000001,3.5,-6.8,-108.2,-39.400000000000006
1698920135208.0,16,0.7000000000000001,0.6000000000000001,0.1,1.7000000000000002,9.4,3.7,-9.600000000000001,-102.30000000000001,-32.0
1698920135224.0,16,0.6000000000000001,0.5,0.2,1.6,9.3,3.8000000000000003,-13.200000000000001,-99.10000000000001,-30.100000000000005
1698920135242.0,16,0.6000000000000001,-0.1,0.2,1.6,8.6,3.8000000000000003,-20.5,-95.2,-34.50000000000001
1698920135258.0,16,0.6000000000000001,-0.4,0.2,1.6,8.3,3.9000000000000004,-25.400000000000002,-92.30000000000001,-37.0
1698920135274.0,16,0.7000000000000001,-0.8,0.2,1.7000000000000002,8.0,3.9000000000000004,-31.7,-88.2,-38.1
1698920135292.0,16,0.7000000000000001,-0.6000000000000001,0.0,1.7000000000000002,8.1,3.8000000000000003,-31.8,-86.60000000000001,-36.5
1698920135309.0,16,0.6000000000000001,-0.6000000000000001,0.0,1.6,8.1,3.8000000000000003,-31.4,-86.4,-35.3
1698920135324.0,16,0.4,-0.8,0.4,1.4000000000000001,7.9,4.3,-35.7,-78.10000000000001,-33.6
1698920135341.0,16,0.6000000000000001,-1.2000000000000002,0.5,1.6,7.4,4.5,-46.1,-64.2,-33.800000000000004
1698920135358.0,16,0.8,-1.3,0.2,1.8,7.300000000000001,4.3,-53.7,-58.1,-33.400000000000006
1698920135374.0,16,0.8,-1.9000000000000001,0.2,1.8,6.5,4.4,-63.0,-47.1,-31.4
1698920135391.0,16,0.5,-2.5,-0.6000000000000001,1.5,5.9,3.8000000000000003,-63.800000000000004,-43.1,-26.9
1698920135408.0,16,0.2,-2.6,-0.6000000000000001,0.7000000000000001,5.7,4.0,-65.2,-43.800000000000004,-23.400000000000002
1698920135424.0,16,-0.6000000000000001,-2.3000000000000003,-0.7000000000000001,0.4,5.9,4.0,-67.5,-46.1,-15.399999999999999
1698920135441.0,16,-1.5,-1.5,-0.7000000000000001,-0.4,6.6000000000000005,4.2,-70.5,-59.00000000000001,-6.3
1698920135458.0,16,-2.1,-1.0,-0.2,-1.0,6.9,4.7,-73.60000000000001,-57.2,-1.5000000000000002
1698920135475.0,16,-2.5,-0.5,-0.2,-1.3,7.4,4.9,-80.0,-57.699999999999996,-3.7000000000000006
1698920135491.0,16,-2.2,-1.2000000000000002,-1.8,-1.0,6.5,3.5,-85.4,-39.9,-19.500000000000004
1698920135508.0,16,-1.7000000000000002,-2.2,-1.9000000000000001,-0.5,5.4,3.5,-80.6,-32.800000000000004,-29.500000000000004
1698920135524.0,16,-0.4,-2.2,-1.3,0.7000000000000001,5.2,4.2,-64.4,-24.400000000000002,-33.1
1698920135541.0,16,0.7000000000000001,-1.4000000000000001,-0.9,1.8,6.0,4.800000000000001,-57.800000000000004,-21.900000000000002,-28.3
1698920135558.0,16,1.0,-0.8,-1.0,2.1,6.300000000000001,4.800000000000001,-58.60000000000001,-25.400000000000002,-26.3
1698920135574.0,16,0.9,-0.9,-0.8,2.0,6.2,5.1000000000000005,-59.300000000000004,-26.1,-18.3
1698920135591.0,16,0.6000000000000001,-1.5,-0.5,1.7000000000000002,5.6000000000000005,5.6000000000000005,-53.00000000000001,-21.0,-10.3
1698920135608.0,16,0.4,-1.4000000000000001,-0.30000000000000004,1.5,5.6000000000000005,5.800000000000001,-48.1,-19.700000000000003,-9.0
1698920135624.0,16,-0.2,-0.8,0.4,0.9,6.1000000000000005,6.6000000000000005,-40.4,-15.7,-10.1
1698920135641.0,16,-0.5,0.0,0.0,0.7000000000000001,6.800000000000001,6.2,-35.1,-8.9,-11.6
1698920135658.0,16,-0.5,0.1,0.2,0.6000000000000001,6.9,6.4,-33.2,-6.2,-10.5
1698920135674.0,16,-0.4,-0.1,0.1,0.7000000000000001,6.6000000000000005,6.5,-24.5,-2.3000000000000003,-6.9
1698920135692.0,16,-0.6000000000000001,-0.5,0.6000000000000001,0.5,6.2,7.0,-16.3,2.3000000000000003,-7.1000000000000005
1698920135708.0,16,-0.7000000000000001,-0.5,0.7000000000000001,0.4,6.2,7.1000000000000005,-12.8,4.5,-7.9
1698920135724.0,16,-0.9,-0.2,0.7000000000000001,0.1,6.4,7.1000000000000005,-4.9,4.300000000000001,-9.700000000000001
1698920135741.0,16,-1.1,-0.30000000000000004,0.9,-0.1,6.4,7.4,4.1000000000000005,4.300000000000001,-9.8
1698920135758.0,16,-1.0,-0.1,0.9,0.1,6.9,7.5,12.8,1.3,-9.1
1698920135774.0,16,-0.7000000000000001,0.4,1.3,0.2,7.1000000000000005,7.7,16.400000000000002,0.6000000000000001,-10.700000000000001
1698920135793.0,16,-0.8,0.4,0.8,0.1,7.1000000000000005,7.2,25.3,2.5,-12.3
1698920135808.0,16,-0.8,0.4,0.5,0.1,7.300000000000001,6.9,27.8,3.0000000000000004,-12.9
1698920135824.0,16,-1.1,-0.1,0.6000000000000001,-0.2,6.800000000000001,6.800000000000001,32.1,4.0,-18.3
1698920135844.0,16,-1.8,0.1,0.7000000000000001,-1.0,7.1000000000000005,6.9,37.0,-1.5000000000000002,-23.900000000000002
1698920135857.0,16,-2.0,-0.1,0.7000000000000001,-1.3,7.0,6.800000000000001,46.300000000000004,-1.4,-27.2
1698920135874.0,16,-1.9000000000000001,0.0,0.6000000000000001,-1.2000000000000002,7.1000000000000005,6.6000000000000005,50.4,-4.300000000000001,-28.0
1698920135891.0,16,-1.6,-0.6000000000000001,0.8,-1.0,6.6000000000000005,6.7,60.00000000000001,-6.5,-28.3
1698920135907.0,16,-1.1,-0.7000000000000001,0.9,-0.6000000000000001,6.7,6.7,67.0,-9.4,-28.400000000000002
1698920135924.0,16,-1.0,-0.7000000000000001,0.6000000000000001,-0.5,6.7,6.300000000000001,70.3,-8.4,-26.400000000000002
1698920135941.0,16,-1.2000000000000002,-0.6000000000000001,0.0,-0.8,7.0,5.5,73.50000000000001,-4.800000000000001,-22.3
1698920135958.0,16,-1.5,-1.3,0.1,-1.1,6.4,5.4,75.2,-3.5,-15.6
1698920135974.0,16,-1.4000000000000001,-1.5,0.0,-1.0,6.300000000000001,5.2,76.7,-3.3000000000000003,-12.5
1698920135991.0,16,-0.6000000000000001,-1.5,0.30000000000000004,-0.2,6.4,5.300000000000001,74.2,0.0,-8.3
1698920136008.0,16,0.0,-0.9,0.6000000000000001,0.30000000000000004,7.1000000000000005,5.300000000000001,73.9,0.9,-4.300000000000001
1698920136025.0,16,0.30000000000000004,-0.5,0.5,0.6000000000000001,7.6000000000000005,5.2,74.0,2.5,-0.8
1698920136041.0,16,0.8,0.6000000000000001,0.5,1.1,8.8,4.9,74.10000000000001,8.1,4.300000000000001
1698920136058.0,16,0.9,0.6000000000000001,0.9,1.2000000000000002,8.9,5.2,72.9,5.6,6.5
1698920136075.0,16,0.6000000000000001,1.2000000000000002,1.0,0.9,9.600000000000001,5.1000000000000005,74.10000000000001,8.600000000000001,6.3
1698920136091.0,16,-0.30000000000000004,2.3000000000000003,1.6,0.0,10.8,5.5,76.1,8.5,3.4
1698920136109.0,16,-0.7000000000000001,4.2,1.9000000000000001,-0.4,12.9,5.6000000000000005,84.3,9.9,0.1
1698920136125.0,16,-0.6000000000000001,5.5,2.0,-0.6000000000000001,15.3,5.2,89.0,7.699999999999999,-7.400000000000001
1698920136141.0,16,-0.9,6.7,1.4000000000000001,-0.6000000000000001,15.600000000000001,4.7,87.7,3.9,-10.2
1698920136158.0,16,-0.9,5.1000000000000005,0.0,-0.7000000000000001,14.100000000000001,3.1,74.7,-0.9,-8.4
1698920136175.0,16,-0.8,3.8000000000000003,-0.5,-0.6000000000000001,12.9,2.5,65.8,-2.6,-7.500000000000001
1698920136191.0,16,-0.8,1.5,-1.0,-0.6000000000000001,10.600000000000001,1.8,52.2,-2.1,-7.300000000000001
1698920136207.0,16,-0.9,0.2,-1.4000000000000001,-0.8,9.4,1.2000000000000002,53.6,-5.1,-5.2
1698920136225.0,16,-1.0,0.0,-1.6,-0.8,9.3,1.0,55.900000000000006,-4.7,-3.7000000000000006
1698920136241.0,16,-0.9,-0.4,-2.2,-0.7000000000000001,8.8,0.2,55.900000000000006,0.8,-3.9
1698920136257.0,16,-0.5,-0.7000000000000001,-2.1,-0.4,8.6,0.0,52.0,2.6,-6.3
1698920136274.0,16,-0.4,-0.5,-2.1,-0.30000000000000004,8.8,-0.1,50.800000000000004,3.8,-7.6
1698920136291.0,16,0.0,0.1,-2.1,0.1,9.4,-0.2,49.5,5.0,-8.200000000000001
1698920136307.0,16,0.2,0.4,-1.8,0.2,9.8,-0.1,50.9,7.1000000000000005,-6.4
1698920136324.0,16,0.2,0.7000000000000001,-1.7000000000000002,0.2,10.100000000000001,-0.2,52.1,8.4,-4.3999999999999995
1698920136341.0,16,0.2,0.8,-1.6,0.30000000000000004,10.200000000000001,-0.2,51.7,9.0,-3.2
1698920136357.0,16,-0.1,0.9,-1.4000000000000001,-0.1,10.4,-0.2,48.1,8.700000000000001,1.5000000000000002
1698920136374.0,16,-0.5,1.1,-1.3,-0.5,10.600000000000001,-0.2,43.400000000000006,8.9,3.1
1698920136392.0,16,-0.6000000000000001,0.9,-1.3,-0.6000000000000001,10.4,-0.30000000000000004,40.6,8.600000000000001,1.9
1698920136408.0,16,-0.6000000000000001,1.0,-1.3,-0.6000000000000001,10.5,-0.4,33.900000000000006,7.0,0.2
1698920136424.0,16,-0.6000000000000001,1.0,-1.2000000000000002,-0.6000000000000001,10.600000000000001,-0.4,31.2,6.8,-0.6000000000000001
1698920136441.0,16,-0.5,0.8,-1.1,-0.5,10.4,-0.4,29.300000000000004,4.5,-2.7
1698920136457.0,16,-0.2,0.6000000000000001,-1.1,-0.30000000000000004,10.100000000000001,-0.5,27.7,6.000000000000001,-2.6
1698920136474.0,16,-0.1,0.6000000000000001,-0.7000000000000001,-0.2,10.100000000000001,-0.1,27.6,5.8,-3.0000000000000004
1698920136492.0,16,-0.1,0.5,-0.7000000000000001,-0.1,10.0,-0.2,27.3,5.8,-2.7
1698920136508.0,16,-0.2,0.4,-0.4,-0.2,10.0,0.0,23.900000000000002,6.6000000000000005,-2.0
1698920136525.0,16,-0.2,0.30000000000000004,-0.5,-0.30000000000000004,9.9,-0.1,20.8,8.600000000000001,-1.5000000000000002
1698920136541.0,16,-0.4,0.1,-0.1,-0.5,9.700000000000001,0.2,15.000000000000002,8.799999999999999,-1.0
1698920136558.0,16,-0.5,0.2,-0.2,-0.6000000000000001,9.8,0.0,14.200000000000001,4.9,-2.6
1698920136574.0,16,-0.4,0.1,-0.2,-0.5,9.700000000000001,0.0,9.200000000000001,4.300000000000001,-2.1999999999999997
1698920136591.0,16,-0.4,0.30000000000000004,-0.1,-0.5,9.9,0.1,8.3,1.6,-1.9
1698920136608.0,16,-0.5,0.5,-0.1,-0.6000000000000001,10.100000000000001,0.1,8.1,-0.6000000000000001,-1.5000000000000002
1698920136624.0,16,-0.5,0.4,0.0,-0.6000000000000001,10.0,0.1,6.8,-0.9,-2.0
1698920136642.0,16,-0.5,0.5,-0.1,-0.6000000000000001,10.100000000000001,0.0,5.4,-1.6,-2.5
1698920136658.0,16,-0.30000000000000004,0.5,0.1,-0.4,10.100000000000001,0.2,1.2000000000000002,-3.1,-3.3000000000000003
1698920136674.0,16,-0.2,0.30000000000000004,0.2,-0.4,9.9,0.30000000000000004,-0.30000000000000004,-3.4,-1.8
1698920136691.0,16,-0.30000000000000004,0.2,0.1,-0.4,9.8,0.2,-0.6000000000000001,-3.7000000000000006,-0.30000000000000004
1698920136709.0,16,-0.6000000000000001,-0.1,-0.2,-0.7000000000000001,9.5,-0.1,-3.0000000000000004,-4.0,1.9
1698920136724.0,16,-0.7000000000000001,0.0,0.0,-0.8,9.600000000000001,0.1,-4.6000000000000005,-8.5,2.1
1698920136741.0,16,-0.7000000000000001,0.1,0.0,-0.8,9.8,0.1,-4.2,-7.500000000000001,1.0999999999999999
1698920136758.0,16,-0.5,0.2,-0.1,-0.6000000000000001,9.8,0.0,-4.6000000000000005,-6.2,-0.6000000000000001
1698920136774.0,16,-0.30000000000000004,0.1,0.1,-0.4,9.700000000000001,0.30000000000000004,-4.7,-8.4,-1.8
1698920136792.0,16,-0.2,0.1,0.1,-0.30000000000000004,9.700000000000001,0.30000000000000004,-4.3999999999999995,-8.0,-2.1999999999999997
1698920136809.0,16,-0.2,0.1,0.1,-0.30000000000000004,9.700000000000001,0.30000000000000004,-4.3999999999999995,-7.2,-0.9
1698920136824.0,16,-0.30000000000000004,-0.1,0.0,-0.4,9.5,0.2,-5.500000000000001,-7.6,1.0
1698920136841.0,16,-0.30000000000000004,-0.2,0.0,-0.4,9.4,0.2,-6.4,-8.700000000000001,1.0999999999999999
1698920136858.0,16,-0.30000000000000004,-0.1,0.1,-0.4,9.5,0.30000000000000004,-7.500000000000001,-8.4,0.5
1698920136874.0,16,-0.30000000000000004,-0.1,0.0,-0.5,9.5,0.30000000000000004,-7.8,-5.6,0.1
1698920136891.0,16,-0.4,-0.1,0.0,-0.5,9.5,0.30000000000000004,-7.699999999999999,-5.300000000000001,0.2
1698920136908.0,16,-0.4,-0.1,0.0,-0.5,9.5,0.4,-6.3,-5.9,0.1
1698920136924.0,16,-0.30000000000000004,-0.1,-0.2,-0.5,9.5,0.2,-5.2,-4.2,-0.30000000000000004
1698920136941.0,16,-0.30000000000000004,-0.1,-0.1,-0.5,9.4,0.2,-5.9,-2.6,-0.2
1698920136958.0,16,-0.30000000000000004,-0.1,0.0,-0.5,9.5,0.4,-5.2,-2.5,0.6000000000000001
1698920136974.0,16,-0.30000000000000004,0.0,-0.2,-0.5,9.600000000000001,0.2,-6.1000000000000005,-1.2000000000000002,0.7
1698920136992.0,16,-0.30000000000000004,0.0,0.0,-0.5,9.600000000000001,0.30000000000000004,-6.8,-3.1,1.0
1698920137008.0,16,-0.2,0.0,0.0,-0.5,9.600000000000001,0.4,-6.6000000000000005,-5.0,0.6000000000000001
1698920137024.0,16,-0.2,0.1,0.1,-0.5,9.700000000000001,0.5,-5.300000000000001,-5.0,-0.8
1698920137041.0,16,-0.2,0.1,0.1,-0.5,9.700000000000001,0.5,-4.7,-4.5,-0.8
1698920137058.0,16,-0.2,0.0,0.1,-0.5,9.5,0.6000000000000001,-4.3999999999999995,-4.0,-0.8
1698920137074.0,16,-0.2,-0.1,0.1,-0.5,9.5,0.6000000000000001,-5.7,-3.0000000000000004,-1.7
1698920137092.0,16,-0.1,-0.1,0.1,-0.5,9.5,0.6000000000000001,-6.1000000000000005,-2.5,-1.9
1698920137108.0,16,-0.1,-0.1,0.0,-0.4,9.4,0.5,-7.500000000000001,-1.2000000000000002,-1.5000000000000002
1698920137124.0,16,0.0,-0.1,0.0,-0.30000000000000004,9.4,0.6000000000000001,-8.1,-1.9,-1.0999999999999999
1698920137141.0,16,0.0,-0.1,0.0,-0.4,9.5,0.6000000000000001,-7.9,-1.0999999999999999,-0.9
1698920137158.0,16,-0.1,-0.1,0.1,-0.4,9.4,0.7000000000000001,-6.3,-0.1,0.0
1698920137174.0,16,-0.1,0.0,0.1,-0.5,9.5,0.7000000000000001,-4.3999999999999995,0.5,-0.2
1698920137191.0,16,-0.2,-0.1,0.1,-0.5,9.4,0.7000000000000001,-4.0,1.0999999999999999,-0.5
1698920137208.0,16,-0.2,-0.1,0.1,-0.6000000000000001,9.4,0.8,-4.300000000000001,1.3,-0.8
1698920137224.0,16,-0.1,-0.1,0.1,-0.5,9.5,0.8,-4.9,0.8,-1.3
1698920137241.0,16,-0.1,-0.1,0.1,-0.5,9.4,0.8,-5.0,0.7,-1.3
1698920137258.0,16,-0.1,-0.1,0.1,-0.5,9.5,0.8,-5.1,0.5,-1.0
1698920137274.0,16,-0.1,0.0,0.1,-0.5,9.5,0.8,-4.3999999999999995,0.4,-0.4
1698920137291.0,16,-0.2,0.0,0.0,-0.6000000000000001,9.5,0.8,-3.3000000000000003,0.1,-0.30000000000000004
1698920137308.0,16,-0.2,0.1,0.0,-0.6000000000000001,9.600000000000001,0.7000000000000001,-3.3000000000000003,-0.6000000000000001,-0.4
1698920137324.0,16,-0.1,0.0,0.1,-0.5,9.5,0.8,-4.3999999999999995,-1.9,-1.0999999999999999
1698920137341.0,16,-0.1,0.0,0.1,-0.6000000000000001,9.5,0.9,-4.3999999999999995,-1.8,-1.5000000000000002
1698920137358.0,16,-0.1,0.0,0.0,-0.6000000000000001,9.5,0.8,-4.300000000000001,-1.6,-1.0999999999999999
1698920137374.0,16,-0.1,0.0,0.0,-0.6000000000000001,9.5,0.8,-4.2,-2.5,0.0
1698920137391.0,16,-0.2,0.0,0.0,-0.6000000000000001,9.5,0.8,-4.5,-2.9,0.30000000000000004
1698920137408.0,16,-0.2,0.0,0.0,-0.6000000000000001,9.5,0.8,-4.1000000000000005,-3.1,0.2
1698920137424.0,16,-0.1,0.0,0.0,-0.6000000000000001,9.5,0.8,-3.8,-3.1,0.30000000000000004
1698920137444.0,16,-0.1,0.0,0.0,-0.6000000000000001,9.5,0.8,-3.6,-3.3000000000000003,0.6000000000000001
1698920137458.0,16,-0.1,0.0,0.0,-0.6000000000000001,9.5,0.9,-3.5,-2.8,0.0
1698920137474.0,16,0.0,-0.1,0.0,-0.5,9.4,0.9,-3.8,-2.1999999999999997,-0.4
1698920137491.0,16,0.0,0.0,0.0,-0.5,9.5,0.9,-3.6,-2.3000000000000003,-0.2
1698920137508.0,16,0.0,0.0,0.0,-0.5,9.5,0.9,-3.5,-2.3000000000000003,0.30000000000000004
1698920137524.0,16,0.0,-0.1,0.0,-0.5,9.4,0.9,-3.0000000000000004,-1.6,0.7
1698920137541.0,16,-0.1,-0.1,0.1,-0.5,9.4,1.0,-2.6,-1.0999999999999999,0.7
1698920137558.0,16,0.0,0.0,0.0,-0.5,9.5,0.9,-2.5,-0.8,0.7
1698920137574.0,16,-0.1,0.0,0.0,-0.5,9.5,0.9,-3.1,-0.4,1.0
1698920137591.0,16,0.0,0.0,0.0,-0.5,9.5,1.0,-3.3000000000000003,-0.6000000000000001,0.7
1698920137608.0,16,0.0,0.0,0.1,-0.5,9.5,1.0,-3.1,-0.6000000000000001,0.5
1698920137624.0,16,-0.1,0.0,0.0,-0.5,9.5,1.0,-2.8,-0.7,0.9
1698920137641.0,16,-0.1,0.0,0.0,-0.6000000000000001,9.5,1.0,-2.5,-1.0999999999999999,0.9
1698920137658.0,16,-0.1,0.0,0.1,-0.6000000000000001,9.5,1.0,-2.3000000000000003,-1.4,1.0
1698920137674.0,16,0.0,-0.1,0.1,-0.5,9.4,1.0,-1.5000000000000002,-1.5000000000000002,0.9
1698920137691.0,16,0.0,-0.1,0.1,-0.5,9.3,1.1,-0.30000000000000004,-1.7,0.9
1698920137708.0,16,0.0,-0.2,0.1,-0.5,9.3,1.1,0.5,-2.0,1.0
1698920137724.0,16,0.0,-0.1,0.2,-0.5,9.4,1.2000000000000002,2.3000000000000003,-2.5,1.2000000000000002
1698920137741.0,16,-0.1,0.1,-0.1,-0.5,9.5,0.9,3.4,-1.9,1.4
1698920137759.0,16,0.0,0.0,0.1,-0.5,9.4,1.1,-1.0999999999999999,-0.8,1.0
1698920137774.0,16,0.0,0.0,0.1,-0.4,9.5,1.1,-1.6,-1.0999999999999999,0.1
1698920137792.0,16,0.1,0.1,0.1,-0.4,9.600000000000001,1.1,-1.9,-1.2000000000000002,-0.8
1698920137808.0,16,0.1,0.1,0.0,-0.4,9.5,1.0,-1.9,-1.3,-0.6000000000000001
1698920137824.0,16,0.0,0.0,0.0,-0.4,9.5,1.1,-1.6,-2.1999999999999997,-0.30000000000000004
1698920137840.0,16,0.0,0.1,0.0,-0.4,9.5,1.0,-0.4,-2.5,0.0
1698920137857.0,16,0.1,0.0,0.0,-0.4,9.5,1.0,1.2000000000000002,-2.7,0.1
1698920137874.0,16,0.1,0.0,-0.1,-0.4,9.5,0.9,1.6,-2.3000000000000003,0.30000000000000004
1698920137891.0,16,0.0,-0.2,0.0,-0.4,9.3,1.0,1.9,-2.1999999999999997,0.7
1698920137907.0,16,0.0,-0.1,0.0,-0.4,9.4,1.0,2.4000000000000004,-2.0,0.6000000000000001
1698920137924.0,16,0.0,-0.1,0.0,-0.4,9.4,1.0,2.6,-2.0,0.7
1698920137941.0,16,0.0,0.0,-0.1,-0.4,9.5,0.9,2.1999999999999997,-0.4,1.0999999999999999
1698920137957.0,16,-0.1,0.0,-0.1,-0.5,9.5,0.8,0.9,1.0999999999999999,1.4
1698920137974.0,16,-0.2,0.1,-0.1,-0.6000000000000001,9.600000000000001,0.9,-1.4,1.2000000000000002,2.0
1698920137991.0,16,-0.1,0.2,-0.1,-0.5,9.700000000000001,0.9,-2.1999999999999997,1.3,1.4
1698920138008.0,16,-0.1,0.2,-0.1,-0.5,9.700000000000001,0.9,-2.4000000000000004,1.4,1.0
1698920138024.0,16,-0.1,0.1,-0.1,-0.5,9.600000000000001,0.9,-2.5,1.8,0.4
1698920138041.0,16,-0.1,0.0,-0.1,-0.5,9.5,0.9,-2.3000000000000003,2.1999999999999997,-0.6000000000000001
1698920138058.0,16,0.0,0.0,-0.1,-0.5,9.5,0.8,-1.4,2.4000000000000004,-1.0999999999999999
1698920138074.0,16,0.0,0.0,-0.1,-0.4,9.5,0.8,-1.0999999999999999,2.4000000000000004,-1.2000000000000002
1698920138092.0,16,0.0,-0.1,-0.1,-0.4,9.4,0.9,-0.8,2.1,-1.3
1698920138108.0,16,0.0,-0.1,0.0,-0.4,9.4,1.0,-0.30000000000000004,2.1,-1.5000000000000002
1698920138124.0,16,0.1,-0.1,0.1,-0.4,9.4,1.0,0.30000000000000004,2.4000000000000004,-1.8
1698920138141.0,16,0.1,-0.1,0.0,-0.30000000000000004,9.4,1.0,0.9,3.1,-2.0
1698920138157.0,16,0.2,0.0,0.1,-0.30000000000000004,9.4,1.0,0.5,3.2,-1.6
1698920138175.0,16,0.1,0.0,0.1,-0.30000000000000004,9.4,1.1,0.0,3.3000000000000003,-1.3
1698920138192.0,16,0.1,0.0,0.1,-0.4,9.5,1.1,-1.0999999999999999,3.6,-0.8
1698920138208.0,16,0.0,0.1,0.0,-0.4,9.600000000000001,1.0,-2.5,3.6,-0.9
1698920138224.0,16,0.0,0.1,0.0,-0.5,9.600000000000001,1.0,-3.2,3.5,-1.0
1698920138241.0,16,0.0,0.1,0.0,-0.5,9.600000000000001,1.0,-4.7,2.7,-1.0999999999999999
1698920138258.0,16,0.0,0.1,-0.1,-0.5,9.600000000000001,1.0,-5.300000000000001,2.7,-0.8
1698920138274.0,16,0.0,0.1,-0.1,-0.5,9.600000000000001,0.9,-5.6,2.5,-0.8
1698920138291.0,16,0.0,0.0,-0.1,-0.5,9.5,0.9,-5.4,2.4000000000000004,-1.3
1698920138308.0,16,0.0,0.0,-0.1,-0.5,9.5,1.0,-4.7,2.0,-2.1
1698920138324.0,16,0.0,-0.1,-0.1,-0.5,9.4,0.9,-4.300000000000001,1.4,-2.3000000000000003
1698920138341.0,16,0.0,-0.1,-0.1,-0.5,9.4,1.0,-3.9,-0.30000000000000004,-1.5000000000000002
1698920138357.0,16,-0.1,-0.1,-0.1,-0.6000000000000001,9.4,1.0,-3.0000000000000004,0.0,-0.5
1698920138374.0,16,-0.1,-0.1,0.0,-0.6000000000000001,9.3,1.1,-1.9,0.0,-0.7
1698920138391.0,16,-0.1,-0.1,0.0,-0.6000000000000001,9.3,1.1,-1.5000000000000002,-0.2,-0.9
1698920138408.0,16,-0.1,-0.1,0.1,-0.6000000000000001,9.4,1.1,-1.2000000000000002,-0.9,-0.5
1698920138424.0,16,-0.1,-0.1,0.1,-0.6000000000000001,9.4,1.2000000000000002,-1.0999999999999999,-0.9,-0.30000000000000004
1698920138441.0,16,0.0,-0.1,0.1,-0.5,9.4,1.2000000000000002,-1.0,-1.0,-0.1
1698920138457.0,16,0.0,0.0,0.1,-0.6000000000000001,9.4,1.2000000000000002,-0.8,-0.8,0.30000000000000004
1698920138474.0,16,0.0,0.0,0.1,-0.6000000000000001,9.4,1.2000000000000002,-0.4,-0.7,0.6000000000000001
1698920138491.0,16,-0.1,0.0,0.1,-0.6000000000000001,9.4,1.2000000000000002,-0.2,-0.6000000000000001,0.4
1698920138508.0,16,0.0,0.0,0.1,-0.5,9.4,1.3,0.2,-0.7,0.5
1698920138524.0,16,0.0,0.0,0.1,-0.5,9.4,1.3,0.0,-0.8,0.5
1698920138541.0,16,0.0,0.0,0.1,-0.5,9.4,1.3,-0.1,-0.8,0.4
1698920138558.0,16,0.0,0.0,0.1,-0.6000000000000001,9.4,1.3,-0.2,-0.7,0.30000000000000004
1698920138574.0,16,0.0,-0.1,0.1,-0.5,9.4,1.2000000000000002,0.0,-0.6000000000000001,0.30000000000000004
1698920138591.0,16,0.0,0.0,0.1,-0.5,9.4,1.2000000000000002,0.4,-0.5,0.1
1698920138608.0,16,0.0,0.0,0.0,-0.5,9.4,1.2000000000000002,0.6000000000000001,-0.5,0.1
1698920138624.0,16,0.0,0.0,0.0,-0.5,9.5,1.2000000000000002,0.8,-0.30000000000000004,0.30000000000000004
1698920138642.0,16,0.0,0.0,0.1,-0.5,9.5,1.2000000000000002,0.9,-0.4,0.2
1698920138658.0,16,0.0,0.0,0.0,-0.5,9.5,1.2000000000000002,0.9,0.2,0.1
1698920138674.0,16,0.0,0.0,0.0,-0.5,9.5,1.1,0.8,0.30000000000000004,0.0
1698920138691.0,16,0.0,0.0,0.0,-0.5,9.5,1.1,1.2000000000000002,0.8,-0.1
1698920138707.0,16,0.1,0.0,-0.1,-0.5,9.5,1.1,1.6,1.0999999999999999,-0.4
1698920138724.0,16,0.0,0.0,0.0,-0.5,9.5,1.1,2.1,1.2000000000000002,-0.30000000000000004
1698920138741.0,16,0.0,0.0,0.0,-0.5,9.5,1.1,2.3000000000000003,1.0,-0.1
1698920138757.0,16,0.0,0.0,0.0,-0.5,9.5,1.1,2.3000000000000003,1.0999999999999999,-0.30000000000000004
1698920138774.0,16,0.0,0.0,0.0,-0.5,9.5,1.1,2.0,1.2000000000000002,-0.4
1698920138791.0,16,0.1,0.0,0.0,-0.5,9.5,1.1,1.9,1.3,-0.4
1698920138807.0,16,0.0,0.0,-0.1,-0.5,9.5,1.0,1.5000000000000002,1.0,-0.4
1698920138824.0,16,0.0,0.0,0.0,-0.5,9.5,1.1,1.4,1.0999999999999999,-0.4
1698920138841.0,16,0.0,0.0,-0.1,-0.5,9.5,1.0,1.5000000000000002,1.0999999999999999,-0.4
1698920138858.0,16,0.0,0.1,0.0,-0.5,9.5,1.0,1.5000000000000002,1.0999999999999999,-0.4
1698920138874.0,16,0.0,0.1,-0.1,-0.5,9.5,1.0,1.5000000000000002,0.9,-0.4
1698920138892.0,16,0.0,0.1,-0.1,-0.5,9.600000000000001,1.0,1.4,0.9,-0.5
1698920138908.0,16,0.0,0.1,0.0,-0.5,9.5,1.0,0.8,0.1,-0.1
1698920138924.0,16,0.0,0.1,0.0,-0.6000000000000001,9.5,1.0,0.5,0.30000000000000004,-0.1
1698920138941.0,16,0.0,0.0,-0.1,-0.5,9.5,1.0,-0.1,0.0,-0.2
1698920138957.0,16,0.0,0.0,-0.1,-0.5,9.4,1.0,-0.5,-0.7,-0.2
1698920138974.0,16,0.0,0.0,0.0,-0.5,9.5,1.0,-0.5,-1.0,0.1
1698920138991.0,16,0.0,0.0,0.0,-0.5,9.4,1.0,-0.2,-1.0,0.1
1698920139008.0,16,0.0,0.0,0.0,-0.5,9.5,1.0,0.6000000000000001,-0.8,0.1
1698920139024.0,16,0.0,0.0,0.0,-0.6000000000000001,9.5,1.0,0.8,-0.9,0.30000000000000004
1698920139040.0,16,0.0,0.0,0.0,-0.6000000000000001,9.5,1.0,0.7,-0.9,0.30000000000000004
1698920139057.0,16,0.0,0.1,0.0,-0.6000000000000001,9.5,1.0,0.4,-1.2000000000000002,0.4
1698920139074.0,16,0.0,0.0,0.0,-0.5,9.5,1.0,0.2,-1.4,0.4
1698920139090.0,16,0.0,0.0,0.0,-0.5,9.5,1.0,0.0,-1.4,0.1
1698920139107.0,16,0.0,0.0,0.0,-0.5,9.5,1.0,0.0,-1.2000000000000002,0.1
1698920139124.0,16,0.0,0.0,0.0,-0.5,9.5,1.0,-0.5,-0.9,0.30000000000000004
1698920139141.0,16,0.0,0.0,0.0,-0.5,9.5,1.0,-1.0999999999999999,-0.8,0.30000000000000004
1698920139158.0,16,0.0,0.1,0.0,-0.5,9.600000000000001,1.0,-1.6,-0.5,0.2
1698920139174.0,16,0.0,0.0,0.0,-0.5,9.5,1.0,-2.3000000000000003,0.2,0.2
1698920139191.0,16,0.0,0.0,0.0,-0.5,9.5,1.0,-2.6,0.5,0.0
1698920139209.0,16,0.0,0.0,-0.1,-0.5,9.5,1.0,-2.1999999999999997,0.6000000000000001,0.4
1698920139224.0,16,0.0,0.0,-0.1,-0.5,9.5,1.0,-1.3,0.7,0.30000000000000004
1698920139241.0,16,0.0,0.0,0.0,-0.5,9.5,1.0,-0.7,1.0,0.1
1698920139258.0,16,0.1,0.0,0.0,-0.4,9.5,1.0,0.4,1.9,0.6000000000000001
1698920139274.0,16,0.0,0.0,0.0,-0.5,9.5,1.1,0.8,1.9,0.30000000000000004
1698920139291.0,16,0.0,0.0,0.0,-0.5,9.4,1.1,0.5,1.7,0.30000000000000004
1698920139308.0,16,0.0,0.0,0.1,-0.5,9.4,1.1,-0.2,1.4,0.5
1698920139324.0,16,0.0,0.0,0.1,-0.5,9.5,1.2000000000000002,-0.6000000000000001,1.0999999999999999,0.30000000000000004
1698920139341.0,16,0.0,0.0,0.1,-0.5,9.5,1.2000000000000002,-0.5,1.0,0.4
1698920139359.0,16,0.0,0.0,0.1,-0.5,9.5,1.2000000000000002,-0.4,1.2000000000000002,0.30000000000000004
1698920139374.0,16,0.0,-0.1,0.1,-0.5,9.4,1.2000000000000002,-0.8,1.0999999999999999,0.2
1698920139393.0,16,0.0,-0.1,0.1,-0.4,9.4,1.1,-1.7,1.3,0.0
1698920139409.0,16,0.1,-0.1,0.0,-0.5,9.4,1.1,-1.9,1.0999999999999999,0.4
1698920139424.0,16,0.0,-0.1,0.0,-0.5,9.4,1.1,-1.4,1.3,0.7
1698920139441.0,16,0.0,0.0,0.0,-0.5,9.4,1.1,-0.9,1.3,0.6000000000000001
1698920139458.0,16,0.0,0.0,-0.1,-0.5,9.5,1.0,-0.4,3.2,0.7
1698920139474.0,16,-0.1,0.1,0.0,-0.6000000000000001,9.600000000000001,1.1,-0.6000000000000001,4.300000000000001,1.5000000000000002
1698920139491.0,16,-0.1,0.1,-0.1,-0.6000000000000001,9.600000000000001,1.0,-1.0,4.6000000000000005,1.8
1698920139509.0,16,-0.1,0.1,0.0,-0.6000000000000001,9.600000000000001,1.0,-2.5,3.5,2.1999999999999997
1698920139524.0,16,-0.1,0.1,-0.1,-0.6000000000000001,9.600000000000001,1.0,-4.2,3.3000000000000003,2.1
1698920139540.0,16,0.0,0.1,-0.1,-0.5,9.600000000000001,1.0,-4.6000000000000005,2.4000000000000004,2.0
1698920139557.0,16,0.0,0.0,-0.1,-0.5,9.5,1.0,-4.1000000000000005,2.0,1.7
1698920139574.0,16,0.1,-0.1,-0.2,-0.4,9.4,1.0,-3.0000000000000004,2.4000000000000004,1.0999999999999999
1698920139591.0,16,0.1,0.0,-0.1,-0.4,9.5,1.0,-1.9,1.0999999999999999,0.5
1698920139608.0,16,0.1,0.0,-0.1,-0.4,9.5,1.0,-1.3,1.3,0.30000000000000004
1698920139624.0,16,0.1,-0.2,-0.4,-0.4,9.3,0.7000000000000001,-3.5,4.3999999999999995,0.7
1698920139641.0,16,0.0,0.1,0.0,-0.5,9.600000000000001,1.1,-6.7,3.5,1.0999999999999999
1698920139658.0,16,0.0,0.2,0.0,-0.5,9.600000000000001,1.1,-5.1,1.4,1.0
1698920139674.0,16,-0.1,0.1,0.1,-0.6000000000000001,9.600000000000001,1.2000000000000002,-3.8,1.4,2.1
1698920139691.0,16,0.0,0.1,0.1,-0.5,9.5,1.2000000000000002,-3.1,0.30000000000000004,2.1999999999999997
1698920139708.0,16,0.0,0.0,0.0,-0.4,9.5,1.2000000000000002,-3.6,-0.30000000000000004,1.0
1698920139725.0,16,0.0,-0.1,0.1,-0.4,9.4,1.3,-4.3999999999999995,-0.4,1.2000000000000002
1698920139742.0,16,0.0,0.0,0.1,-0.4,9.5,1.3,-4.300000000000001,-0.6000000000000001,1.5000000000000002
1698920139758.0,16,0.0,-0.1,-0.2,-0.5,9.4,1.0,-5.300000000000001,-0.6000000000000001,2.1
1698920139774.0,16,0.0,0.0,0.0,-0.5,9.5,1.3,-5.6,-2.9,1.5000000000000002
1698920139791.0,16,0.0,0.1,0.0,-0.4,9.600000000000001,1.2000000000000002,-2.5,-1.2000000000000002,1.7
1698920139808.0,16,0.0,0.1,0.1,-0.4,9.600000000000001,1.3,-1.6,-0.9,2.3000000000000003
1698920139825.0,16,-0.1,0.0,0.1,-0.5,9.5,1.3,-0.6000000000000001,-1.4,2.7
1698920139841.0,16,-0.1,0.0,0.0,-0.5,9.5,1.3,-1.4,-1.2000000000000002,2.6
1698920139858.0,16,-0.1,0.0,0.1,-0.5,9.5,1.3,-4.2,-1.5000000000000002,2.4000000000000004
1698920139874.0,16,0.0,0.0,0.0,-0.5,9.4,1.3,-6.3,-2.1999999999999997,2.1
1698920139891.0,16,0.0,0.0,0.1,-0.4,9.4,1.4000000000000001,-6.4,-2.4000000000000004,2.6
1698920139908.0,16,0.0,0.0,-0.1,-0.4,9.4,1.3,-6.000000000000001,-2.4000000000000004,2.7
1698920139924.0,16,0.0,0.0,0.0,-0.30000000000000004,9.5,1.3,-5.0,-2.9,2.9
1698920139941.0,16,0.0,0.0,0.0,-0.4,9.4,1.4000000000000001,-4.300000000000001,-3.6,3.0000000000000004
1698920139957.0,16,0.0,-0.1,0.0,-0.4,9.4,1.4000000000000001,-3.7000000000000006,-4.5,2.3000000000000003
1698920139976.0,16,0.1,-0.1,0.1,-0.30000000000000004,9.3,1.5,-3.1,-5.500000000000001,1.8
1698920139993.0,16,0.1,-0.2,0.1,-0.30000000000000004,9.3,1.5,-3.6,-4.5,1.4
1698920140007.0,16,0.1,-0.2,0.1,-0.2,9.200000000000001,1.5,-3.8,-4.5,1.0999999999999999
1698920140024.0,16,0.30000000000000004,-0.1,0.2,-0.1,9.4,1.6,-3.4,-4.5,0.4
1698920140041.0,16,0.30000000000000004,0.0,0.2,-0.1,9.5,1.7000000000000002,-2.7,-3.4,0.4
1698920140058.0,16,0.2,0.0,0.30000000000000004,-0.1,9.4,1.7000000000000002,-2.4000000000000004,-2.6,0.30000000000000004
1698920140074.0,16,0.2,0.0,0.2,-0.1,9.4,1.7000000000000002,-2.7,-1.2000000000000002,-0.6000000000000001
1698920140091.0,16,0.2,-0.1,0.2,-0.1,9.4,1.7000000000000002,-3.3000000000000003,0.0,-1.3
1698920140108.0,16,0.1,-0.1,0.2,-0.2,9.4,1.7000000000000002,-3.2,0.0,-1.3
1698920140124.0,16,0.0,-0.1,0.2,-0.30000000000000004,9.3,1.7000000000000002,-2.6,0.7,-1.0999999999999999
1698920140141.0,16,-0.1,-0.1,0.1,-0.4,9.3,1.6,-2.0,1.0999999999999999,-0.6000000000000001
1698920140159.0,16,-0.1,-0.1,0.1,-0.4,9.3,1.7000000000000002,-1.6,1.0999999999999999,-0.4
1698920140176.0,16,-0.1,0.0,0.1,-0.4,9.4,1.7000000000000002,-0.7,1.2000000000000002,-0.7
1698920140191.0,16,-0.1,0.0,0.1,-0.4,9.4,1.6,-0.6000000000000001,1.2000000000000002,-1.0999999999999999
1698920140207.0,16,0.0,0.0,0.0,-0.4,9.4,1.6,-1.0999999999999999,1.0,-1.0999999999999999
1698920140224.0,16,0.0,0.0,0.0,-0.4,9.4,1.6,-1.3,1.0999999999999999,-1.3
1698920140241.0,16,0.0,0.0,0.0,-0.30000000000000004,9.4,1.6,-1.0999999999999999,1.0999999999999999,-1.3
1698920140258.0,16,0.0,0.0,0.0,-0.30000000000000004,9.4,1.6,-1.0,0.7,-1.3
1698920140275.0,16,0.0,0.0,0.0,-0.4,9.4,1.6,-1.0,0.7,-1.3
1698920140291.0,16,0.0,0.0,0.0,-0.4,9.4,1.6,-0.9,0.30000000000000004,-1.0999999999999999
1698920140308.0,16,0.0,0.0,0.0,-0.4,9.4,1.6,-0.5,0.0,-1.0999999999999999
1698920140325.0,16,0.0,0.0,0.0,-0.4,9.4,1.6,-0.1,-0.2,-1.3
1698920140341.0,16,0.1,-0.1,-0.2,-0.30000000000000004,9.3,1.4000000000000001,-0.2,-1.2000000000000002,-1.2000000000000002
1698920140358.0,16,0.1,0.0,0.0,-0.30000000000000004,9.4,1.6,0.30000000000000004,-1.6,-1.0
1698920140375.0,16,0.0,0.0,0.0,-0.30000000000000004,9.4,1.6,1.5000000000000002,-1.7,-0.9
1698920140393.0,16,0.0,0.0,0.0,-0.4,9.4,1.5,2.1999999999999997,-1.7,-0.7
1698920140408.0,16,0.0,0.0,0.0,-0.4,9.4,1.6,1.9,-1.4,-1.0999999999999999
1698920140424.0,16,0.0,0.0,0.0,-0.4,9.4,1.6,1.5000000000000002,-1.0,-1.0999999999999999
1698920140441.0,16,-0.1,0.0,0.0,-0.4,9.4,1.5,1.7,-1.2000000000000002,-0.7
1698920140457.0,16,0.0,0.0,0.1,-0.4,9.4,1.6,1.9,-1.4,-0.4
1698920140475.0,16,0.0,0.0,0.0,-0.4,9.4,1.6,2.0,-1.4,-0.4
1698920140491.0,16,0.0,0.0,0.0,-0.4,9.4,1.5,2.3000000000000003,-1.4,-0.5
1698920140508.0,16,0.0,0.0,0.0,-0.4,9.4,1.5,2.1999999999999997,-1.5000000000000002,-0.5
1698920140524.0,16,0.0,0.0,0.0,-0.4,9.4,1.5,2.1999999999999997,-1.4,-0.5
1698920140541.0,16,0.0,-0.1,0.0,-0.4,9.3,1.5,2.3000000000000003,-1.4,-0.5
1698920140557.0,16,0.0,-0.1,0.0,-0.4,9.3,1.5,2.1999999999999997,-0.7,-0.4
1698920140574.0,16,-0.1,0.0,-0.1,-0.5,9.4,1.4000000000000001,1.7,-0.6000000000000001,-0.2
1698920140591.0,16,-0.1,0.1,-0.1,-0.5,9.5,1.4000000000000001,0.5,-0.6000000000000001,0.0
1698920140608.0,16,0.0,0.2,0.0,-0.4,9.600000000000001,1.4000000000000001,0.7,-0.5,-0.2
1698920140624.0,16,0.0,0.2,0.0,-0.4,9.600000000000001,1.4000000000000001,1.9,-0.9,-0.30000000000000004
1698920140641.0,16,0.0,0.1,0.0,-0.4,9.600000000000001,1.4000000000000001,3.3000000000000003,-0.5,-0.2
1698920140660.0,16,0.0,0.0,0.0,-0.4,9.4,1.4000000000000001,2.9,0.1,-0.30000000000000004
1698920140674.0,16,0.0,0.0,0.0,-0.4,9.4,1.4000000000000001,2.3000000000000003,0.5,-0.4
1698920140692.0,16,0.0,0.0,-0.1,-0.4,9.4,1.4000000000000001,1.5000000000000002,0.8,-0.6000000000000001
1698920140708.0,16,0.1,0.0,0.0,-0.30000000000000004,9.4,1.4000000000000001,2.4000000000000004,0.4,-0.30000000000000004
1698920140725.0,16,0.1,0.0,0.0,-0.30000000000000004,9.4,1.4000000000000001,3.1,0.30000000000000004,-0.1
1698920140741.0,16,0.0,-0.1,0.0,-0.4,9.4,1.4000000000000001,3.8,0.30000000000000004,0.0
1698920140758.0,16,0.0,0.0,0.0,-0.4,9.4,1.4000000000000001,3.9,0.30000000000000004,0.1
1698920140774.0,16,0.0,0.0,0.0,-0.4,9.4,1.4000000000000001,3.9,0.30000000000000004,-0.2
1698920140791.0,16,0.0,0.0,0.0,-0.30000000000000004,9.4,1.4000000000000001,3.5,1.0,-0.4
1698920140808.0,16,0.0,0.0,0.0,-0.4,9.4,1.4000000000000001,3.2,1.7,-0.2
1698920140825.0,16,0.0,0.0,0.0,-0.4,9.4,1.4000000000000001,2.5,2.1999999999999997,-0.1
1698920140841.0,16,0.0,0.0,0.0,-0.4,9.4,1.4000000000000001,2.6,1.3,0.0
1698920140859.0,16,0.0,0.1,0.0,-0.4,9.5,1.4000000000000001,2.8,1.3,0.1
1698920140876.0,16,0.0,0.1,0.0,-0.4,9.5,1.4000000000000001,2.8,1.2000000000000002,0.1
1698920140891.0,16,0.0,0.0,0.0,-0.4,9.5,1.4000000000000001,2.8,0.9,0.0
1698920140907.0,16,0.0,0.0,0.0,-0.4,9.4,1.3,2.6,1.0,0.2
1698920140924.0,16,0.0,0.0,0.0,-0.4,9.4,1.3,2.4000000000000004,0.8,0.2
1698920140947.0,16,-0.1,0.0,0.0,-0.5,9.5,1.3,3.1,0.2,0.1
1698920140957.0,16,0.1,0.0,0.0,-0.30000000000000004,9.4,1.3,3.3000000000000003,0.8,0.6000000000000001
1698920140974.0,16,0.1,-0.1,0.0,-0.30000000000000004,9.3,1.3,4.2,-0.8,0.0
1698920140992.0,16,0.0,0.0,0.0,-0.30000000000000004,9.4,1.3,4.2,0.2,0.2
