msFromStart,interval,accx,accy,accz,accGx,accGy,accGz,rotRate_alpha,rotRate_beta,rotRate_gamma
6,0.01666666753590107,0.24325484880767761,-0.05401829817444086,-0.5413467648267746,0.9730931180540472,-4.126705836486816,-9.432406352996825,-3.7600571310192774,24.70071489745433,-12.594590499294835
170,0.01666666753590107,0.6956178005408495,0.34944267548471686,0.20861293981969356,0.8547300109420902,-2.7090394707277414,-9.107542530712484,-12.833290242861148,-9.01032664269923,-3.2617444584217186
186,0.01666666753590107,0.5356334286812693,0.1748284513786435,-0.18748013541996478,0.6736684921264648,-2.8502973686769604,-9.514856088146567,-7.507739666809784,-4.920240320513637,-0.15863960116872933
203,0.01666666753590107,0.23558871636027467,0.15261369696110486,-0.21659107909202574,0.3645172301582526,-2.8588270043522117,-9.548524548992514,-3.8383712262689977,-2.3126254267815662,1.0303765115353245
220,0.01666666753590107,0.13658451757701112,0.20419892276972532,-0.11552023010253906,0.2636614852241706,-2.800617976489663,-9.449614092907309,-2.118669612137772,1.078469047420148,-0.11869817568680215
236,0.01666666753590107,0.13989709445741028,0.2098924582362175,0.2131903307378292,0.27293901665727605,-2.7859531990602613,-9.12370397644043,-4.091873270427198,0.9459607094792559,-1.6071008230216877
253,0.01666666753590107,-0.45668381060697133,-0.08100333573371171,0.25217443364858627,0.31169512863159177,-2.89518864980489,-9.11053586730957,-7.141647503712625,-1.8577196735764963,-1.9140619040399314
270,0.01666666753590107,-0.4650885047283023,-0.22797990359067916,0.19512801982462405,0.24435820693969726,-3.0172929344728585,-9.179667855724691,-9.957843781535603,-3.8175182318461256,-3.6247954797909303
287,0.01666666753590107,-0.3720550509177148,-0.3370239234164357,0.03714461252391338,0.1906383437225595,-3.1016888352543113,-9.354894074249268,-14.047679094269197,-3.175958349663416,-10.933287002567218
304,0.01666666753590107,-0.2539758935799822,-0.2128413711696863,-0.2896691747844219,0.1988683388641104,-2.950254995727539,-9.695618313488364,-18.563265711179074,0.42784753192124153,-17.278095609402182
320,0.01666666753590107,-0.25076884116698056,-0.11288754351139067,-0.43938101282417774,0.18809450445864348,-2.825457818713784,-9.853187294769286,-20.253879257182508,1.4323139342835343,-19.6171963435106
336,0.01666666753590107,-0.13633512765951453,0.22342589354813097,-0.41846214343607424,0.30092122116088865,-2.474407415771484,-9.836576936230063,-18.79399291643669,3.435009282192017,-20.08996666993325
355,0.01666666753590107,0.21677125796452162,0.25971155115514993,0.04361176271140575,0.6405986182281747,-2.4600427903324364,-9.368810371398926,-18.342821355716914,-0.9032020177276836,-18.26472668029428
370,0.01666666753590107,0.3803464208576828,0.17159458402395247,0.17875439265072346,0.7906851347992196,-2.5020909569889307,-9.247454274749755,-17.42382794062816,-20.602767027534053,-14.503532749665018
387,0.01666666753590107,0.5433509807886555,0.012557283756136893,0.8045172242641448,0.8515876395294443,-2.6062387292057276,-8.640973066711425,-15.578604525025025,-45.32815427581776,-5.3905931868569255
404,0.01666666753590107,0.28717065423326565,-0.3420496426239609,1.2452853075325487,0.4692635619232431,-2.9185321159914133,-8.215103861889242,-20.00676984320062,-57.90945151944046,1.1289153305259811
420,0.01666666753590107,0.06423632989462931,-0.48419835193306204,1.120124557903409,0.07900870844243908,-2.9893107025697825,-8.361150747680664,-39.926239623524715,-73.98732750486778,2.1830170377518736
437,0.01666666753590107,0.6732144647486508,-0.8209529568888246,-0.09171557614505291,0.45579623238379136,-3.1684270604006946,-9.610774376678465,-49.05647450597175,-61.78720262825599,-6.53341104727335
454,0.01666666753590107,0.5963907527871429,-1.3842505644999443,-0.4133680351674556,0.25917240277715026,-3.61793842209503,-9.956287019237875,-41.177520034187296,-39.40781119004782,-15.315988874079913
470,0.01666666753590107,0.7503628786198795,-1.090558271679282,-0.8816811279654503,0.3604770970551297,-3.2429464409425854,-10.441262493023276,-25.26786648537551,-9.70712461257736,-14.900834608400904
487,0.01666666753590107,0.5242128938701004,-0.5845910094000398,-0.9990788423776626,0.16938984052129089,-2.6767178944461048,-10.573393081665039,-14.319001528858784,25.7473696707725,-1.281353733578147
504,0.01666666753590107,0.4381704679906368,-0.6964499405160546,-0.9219336433768271,0.16205757967075332,-2.7510877835147083,-10.506953985595702,-16.107005034690136,37.235626618876175,14.013420572939706
521,0.01666666753590107,0.16490505979005246,-0.7810156449064612,-0.4897615390181541,-0.024839787425193934,-2.788946097265929,-10.086771009716392,-20.54976817466934,39.1040624323736,24.366167109265227
537,0.01666666753590107,0.557519645264186,-0.6279533273950219,0.7032412080913781,0.45878895705952305,-2.5715226590029894,-8.908375464630126,-13.884728709919264,24.28405799015792,30.089151878967648
554,0.01666666753590107,0.9952163947958499,-0.9060955843843519,1.3926210640907286,0.9295488584877457,-2.829497887884825,-8.223333930096029,-1.748757559025577,15.177568260360434,25.49959431334653
570,0.01666666753590107,1.0559716000098736,-0.8870824024870991,1.436524503225088,1.019331409327162,-2.8176765171878038,-8.17814395828247,6.496424292257261,17.60010146272785,17.780327956809682
587,0.01666666753590107,0.7534277460832148,-0.5661189486421644,1.3428928643256426,0.7692869620281504,-2.5197480481021106,-8.267178332519531,5.858864979937476,17.37971857896822,12.150200462647234
603,0.01666666753590107,0.2270245208282955,0.00020735914036631582,1.305090080153942,0.2738368514129892,-1.9687823910586535,-8.301744618988037,7.349663476206302,12.283358415611218,9.109687965876343
620,0.01666666753590107,0.1342684683201369,0.18815832694247364,1.3759317950963974,0.2103905028522713,-1.810765081488341,-8.224531615447997,17.60626058581191,16.284067443638964,5.228885043162289
637,0.01666666753590107,0.21983491985145956,0.3332052419111132,2.0947394056320188,0.37259766076128,-1.7461217827945947,-7.487715470013022,27.623748994274646,30.004481438921584,6.548879291309313
653,0.01666666753590107,-0.01062426986694336,0.5742489174753427,2.300952883094549,0.21757309413300827,-1.5674543377749621,-7.266252400970458,19.873215739264772,32.94962485808523,7.658742342754072
670,0.01666666753590107,-0.37846648886259643,0.669475716611743,2.0943770020604133,-0.07257420129086822,-1.5034094433657823,-7.4636238158077,4.571878047841361,31.984228845322704,5.166045595250878
687,0.01666666753590107,-0.7912061995312571,0.6021193595670163,1.5125462511539458,-0.37663784866333005,-1.5647607147768139,-8.042721926879882,-4.996545059486904,37.16679197242079,6.659797294562089
703,0.01666666753590107,-0.8616005360323935,0.825593330040574,1.6588935811966656,-0.35927988662719723,-1.3365635151736437,-7.893233960723877,1.3581113994707503,35.261561929864506,14.722103925747303
720,0.01666666753590107,-0.8825029657423495,1.1354857931643725,1.6859534375578165,-0.329502040011622,-1.0434235955387354,-7.859565499877929,8.999727042881016,11.324233370280409,28.146661446941653
736,0.01666666753590107,-0.5325469704406336,0.6392930520549416,0.9507108250498771,-0.06419453201293945,-1.579724621283263,-8.590095696911215,8.32937898056376,-45.61860807027255,52.713409014015355
753,0.01666666753590107,-0.7075801871437579,-0.7022386069200932,-0.32132571128606796,-0.43619359669340774,-2.938434063421935,-9.865756853485108,0.15062235980552274,-79.12602715711604,72.84715036633922
770,0.01666666753590107,-1.3482178587406872,-0.9906203722424805,-1.1744430080682038,-1.3202525825389892,-3.2196029747560617,-10.724376839336752,-6.843863208731117,-75.06604660124458,71.15842024499942
787,0.01666666753590107,-2.5304455293357373,-0.8091723565936088,-1.3611568352907895,-2.7044005040817893,-3.0126543148867784,-10.915464059337973,-8.920289381512829,-14.320665533695328,45.90524378898131
803,0.01666666753590107,-2.813283104534447,-0.7256196286380291,-0.38181028286516666,-2.99694203769844,-2.889801988330483,-9.944914561352133,-23.002835737721295,17.656370268657707,18.587880005400507
820,0.01666666753590107,-2.3530216546364127,-0.7953693105600774,-0.18949030619859694,-2.4654291869453617,-2.880075251825154,-9.771334940990805,-39.37825013132001,43.30824194200238,-1.7688041642395644
837,0.01666666753590107,-1.6119713787630199,-0.45107773422822356,0.48593175159692764,-1.5405190987407462,-2.372953412683308,-9.130287446483969,-60.39021037693494,51.56286023323212,-19.327372634006743
853,0.01666666753590107,0.20973476519016548,-0.9046655515812337,-0.6001853227645159,0.3806780274322256,-2.6421514618471265,-10.250175273022055,-85.3541966234947,13.945156247280014,-29.988444154750393
870,0.01666666753590107,0.9020116760715842,-1.5539751168683171,-1.7218956885546446,1.0525508683135731,-3.060837623297423,-11.410914749908446,-90.27911135472156,-40.53963159212688,-34.98671170256861
886,0.01666666753590107,1.43036656511724,-1.6398521961182355,-3.6457571339994668,1.3795090233955065,-2.9134444374635815,-13.369221485790609,-38.79580916494176,-82.5774583485069,-27.492503494278267
903,0.01666666753590107,0.706530458895117,-0.47557431597262617,-4.736484332504868,0.43364981222841886,-1.7242745465151965,-14.459481066784262,18.11486379216774,-94.88394976106329,-10.890693089129373
920,0.01666666753590107,0.17906561402436344,-0.013116963465511798,-4.9256777015835045,-0.334440007870458,-1.357363142096251,-14.62617735737264,50.9905928336226,-94.98735882509729,7.43897929866162
937,0.01666666753590107,-1.0028168598622083,-0.16576164008677005,-5.950798747712374,-1.835903614398092,-1.6659157349184155,-15.606154024395346,34.73986525086976,-86.54027263324576,17.274794920485775
953,0.01666666753590107,-1.5499845859274268,-0.8269692945688962,-6.718486416751146,-2.580500549902394,-2.36681841705963,-16.348506176647543,-0.7448313819379501,-63.44113976596375,15.763702651532371
970,0.01666666753590107,-1.7698282370746135,-1.0447817321494222,-6.931756826987862,-2.9267617458067834,-2.5421936886660754,-16.55410824421346,-26.960829616453427,-33.07222333859237,7.9451321746527075
986,0.01666666753590107,-1.857293316168338,-0.9215651023253798,-6.167713067409395,-3.0723592073302712,-2.317587645422667,-15.798139654541014,-30.218826435454925,-6.890670495113214,-12.827519586786133
1003,0.01666666753590107,-1.7520079182237385,-0.7026872274704277,-5.1926609973073,-2.966116435595602,-2.0284877949588,-14.833126747894287,-32.68601370706859,1.234365660626456,-31.63868274502259
1020,0.01666666753590107,-1.8685098528400061,-0.6963863737605511,-4.968419111201166,-3.0548516076903787,-1.9442419701725244,-14.622735692486167,-37.79580116856019,12.164977576916556,-39.145900756134516
1036,0.01666666753590107,-2.3043393106624483,-0.6492446833573281,-3.6075808403402565,-3.4050035274229944,-1.7784432860109953,-13.28662152851522,-40.55893712181592,28.912484454798285,-30.589992575331756
1053,0.01666666753590107,-2.7859897316783666,-0.1685380459975451,-1.9319272630006075,-3.8054339012145992,-1.2015904696475714,-11.630582752227783,-41.402322050339926,25.762517322804296,-20.75905883121687
1070,0.01666666753590107,-2.938835191568732,-0.5364767476376145,-1.790900251197815,-3.916913696819916,-1.4308352786075322,-11.507580057415366,-43.361274945812944,-5.517923707798419,-17.823989941078988
1086,0.01666666753590107,-2.9743495725423097,-1.0745639261465518,-2.186754841506481,-3.9799111280027772,-1.8739122964054344,-11.908908695220946,-33.83890865783172,-17.482010907072915,-25.29294864755509
1103,0.01666666753590107,-2.9007588511526583,-1.2797349818840622,-2.7321353918939826,-3.943549409484863,-2.025345551410317,-12.454637036132812,-14.03149752235179,-14.689088498846754,-33.63407469971762
1120,0.01666666753590107,-2.773420465223491,-0.6823558756466954,-2.0897849980950354,-3.8411972885131833,-1.4321820170413702,-11.809250051116942,6.101886952587938,-6.672344352067403,-33.7601975578365
1136,0.01666666753590107,-2.515639005348086,-0.39621582483649254,-1.4978192221432924,-3.5926488633420317,-1.1749549031130968,-11.213991078838704,8.497542506797705,-5.955294871300185,-31.06803068515178
1153,0.01666666753590107,-1.8539140489935875,-0.0970048416595906,0.008024316501617432,-2.938433478900045,-0.901716711713001,-9.705195704650878,3.966719872283646,-5.9266849164142945,-31.46098854357554
1170,0.01666666753590107,-1.090234884943813,0.1357751556891948,0.9665636432200669,-2.200271179553121,-0.6634936465274542,-8.744223013305664,-17.521465494813494,-15.62264729234056,-36.396565200096795
1186,0.01666666753590107,-0.8719831060979515,0.07987732737846671,0.9015648090869188,-2.0189104037962853,-0.6603513299137354,-8.809614646148681,-36.605080630173525,-17.493214124859026,-38.64613581456468
1203,0.01666666753590107,-0.8198404656022786,0.0267294553630054,0.9689420627892017,-1.9945195474486797,-0.6203980166446417,-8.7455697517395,-44.212418969234086,-9.048845494523517,-36.932188634809194
1220,0.01666666753590107,-0.3338786111280322,0.0998327950945124,1.5325439140439032,-1.5153799402099102,-0.41748946247901764,-8.188917865753174,-38.84026345115478,0.4546686709356767,-35.04043797057993
1236,0.01666666753590107,-0.12456745991110801,0.026332126608490942,1.8630436963886021,-1.2942154887877404,-0.4180880128940567,-7.863456077575683,-25.77437623875073,5.385525186492776,-31.84753626946324
1253,0.01666666753590107,-0.10548808090984821,0.12274448226764798,2.732929172620177,-1.254860798998922,-0.2871550730716437,-6.99750268009603,-8.910346333628583,7.310436846029273,-27.37031824021591
1270,0.01666666753590107,0.1547222135476768,0.11402845717482268,3.7249849844932554,-0.9926957172118127,-0.30226850758399815,-6.0054059516906735,4.936221255624174,-11.444995383674465,-21.243811016991014
1286,0.01666666753590107,0.37103411037214096,0.03461301168706268,3.7968566270053383,-0.8259994266234337,-0.4046205920230597,-5.926546349987388,6.99091846222196,-29.028604500877673,-19.515855119247828
1303,0.01666666753590107,0.9444454810447991,-0.2654145485697314,3.5773318325489756,-0.34356779210194943,-0.7218523119937628,-6.133644793590903,0.3807752555436888,-42.803214339677055,-20.47298660311464
1320,0.01666666753590107,1.2764663354769348,-0.6324553880546242,2.468621233585477,-0.14933818242177366,-1.0841249872287735,-7.223306408691406,-6.363719266212614,-34.6254493369883,-17.59234407537801
1336,0.01666666753590107,1.2552372310958801,-0.6966258816048503,2.2271388743430376,-0.22834683720692991,-1.144428905011341,-7.456292157745361,-0.4397029260513854,-11.505834439932707,-13.197167717119932
1353,0.01666666753590107,1.4412858724080024,-0.5138980187458917,2.4307062212109565,-0.045489685412496324,-0.9754880868991836,-7.251587915802001,7.495157604584975,6.593012131744527,-8.137536896024674
1370,0.01666666753590107,1.4938871433913707,-0.5121168709501623,3.055899728503823,0.04294613840952515,-1.0136456393253057,-6.629843672180176,14.119854557002368,10.987136213983598,1.7660744364490866
1386,0.01666666753590107,1.4997883302591741,-0.449948072611168,3.4156828884780404,0.06703764648437499,-0.9897036227237432,-6.270713423156738,17.583039650181156,3.6388293841011907,8.12111114484444
1403,0.01666666753590107,1.6097535565830767,-0.4490914192492142,3.899285320344567,0.16355404703989623,-1.0541974664768203,-5.7812488212585444,24.54579766934198,-10.390831671137514,13.23411221034053
1420,0.01666666753590107,1.8256578224547206,-0.5457790481857955,3.8898774405300616,0.337732071685791,-1.2158060420047492,-5.7800517204284665,30.897374993644426,-19.39559256343683,15.944805117375259
1436,0.01666666753590107,1.881537092195451,-0.4859445380132645,3.7717835605472323,0.3357869289673865,-1.2364559582583605,-5.883151444897055,38.712422800459656,-22.56988712170711,19.890094844251166
1453,0.01666666753590107,1.946257840039581,-0.4198465104665607,3.6011768185168505,0.3242648334778845,-1.3100777323734014,-6.029347968292236,51.48889269961547,-16.988510956519274,26.177108097876776
1470,0.01666666753590107,2.002097508422285,-0.32802776620797813,3.8101404714703557,0.33623598790913817,-1.3456914090029894,-5.800252212414145,56.77810581550872,-11.953780443816946,28.88592526421069
1486,0.01666666753590107,2.0037202873185276,-0.27615963180474934,3.909567060384154,0.3003226707458496,-1.4220066599857062,-5.679794525909424,53.09896977756799,-11.264184908418596,28.098221745347924
1503,0.01666666753590107,1.9973700415089726,-0.36575288203358647,4.03911873844862,0.23627792246714233,-1.6623245785586536,-5.520580115509033,39.535047369001404,-12.424231067242731,23.810520975000937
1520,0.01666666753590107,1.9430355169922113,-0.46061303981468077,3.9885418128997085,0.13991130564585327,-1.8348567356936631,-5.552452925109863,27.808778818890293,-13.658339528558253,18.69416799416966
1536,0.01666666753590107,1.9968125537566839,-0.5549835143826901,3.8384301618874073,0.15173253021240232,-1.9797059361331164,-5.687126183971762,18.566539079338803,-15.100967688818741,12.146110033108043
1553,0.01666666753590107,2.249532784719765,-0.8186423418588936,3.4518285530924797,0.34506446040049193,-2.2890070092350245,-6.055085051617026,11.697582609370706,-18.511347735750515,3.645963943576092
1570,0.01666666753590107,2.554343706795573,-0.8109159853905439,2.91851078094244,0.597951718493551,-2.30292316025421,-6.574477758789062,5.399930055452333,-22.823389592752136,0.5816176617790013
1587,0.01666666753590107,2.5579011070162054,-0.7427560568779706,2.407483751055598,0.5379473316468298,-2.237681311145425,-7.071723516082764,-3.1870514306491633,-27.824578753987826,1.584301224685362
1603,0.01666666753590107,2.3855862458936867,-0.8249972638435661,1.2378349915266036,0.26096812708750367,-2.287809762274474,-8.22348415222168,-16.07785207976523,-35.14773682734624,0.5683035420133837
1620,0.01666666753590107,2.2108583322800697,-0.9910391821764409,-0.21396014606654642,-0.00538680760487914,-2.406173252978921,-9.661501524353026,-23.309932995636117,-39.35385611069931,-3.4707247682488367
1637,0.01666666753590107,2.022582516437769,-1.1004789233215153,-1.0538578957915306,-0.29089520944803954,-2.4585462681643664,-10.486453633880615,-25.180875488558932,-40.585072840674975,-8.341208868206223
1653,0.01666666753590107,1.7441649496383964,-1.349964410147071,-2.4383453377872706,-0.6875846431456506,-2.645593126733601,-11.84995089481771,-18.107850895437426,-33.64675494591175,-16.074532607828605
1670,0.01666666753590107,1.5322802946716547,-1.4828148374959826,-3.2278689910590646,-0.962768342590332,-2.758120750891417,-12.625672817230225,-8.81010562359583,-21.836727786008773,-20.90628868141837
1687,0.01666666753590107,1.4521084413260221,-1.429518569985777,-3.3575995328217743,-1.0666165473386644,-2.7078425160281356,-12.748674927520751,-2.2899163284517434,-3.3193746064305243,-24.692955802557197
1704,0.01666666753590107,1.373660927554965,-1.1967800736911594,-3.111377870097756,-1.1043252234861254,-2.496853640857339,-12.510302224731445,0.5573911942363777,19.914881600749144,-26.36170079038554
1720,0.01666666753590107,1.390450295922905,-0.9447850882627069,-2.3488550364762544,-1.0115500552855432,-2.267309410559386,-11.764358769989013,2.916919369965863,34.10190509182306,-24.786667705517065
1737,0.01666666753590107,1.4180653019487857,-0.7310073130257427,-1.712705835404992,-0.8765769366942345,-2.077269507654011,-11.151592198070883,3.63333919266897,44.90101132059809,-20.11017207704544
1754,0.01666666753590107,1.3358717335171997,-0.3823845756217837,-0.6581272241234779,-0.799663208361715,-1.7531546040408312,-10.130765049743651,2.0066054177649035,44.97107881619866,-11.42721896258586
1770,0.01666666753590107,1.0225162704579531,-0.2716448577940464,0.038625790992379186,-1.0016739734373987,-1.6546930607669055,-9.456647644805908,2.2772811188174544,40.37267444805509,-6.090716605087205
1787,0.01666666753590107,0.8882746810115874,-0.25832696492895485,0.25788345894515513,-1.045816920416057,-1.6537952351443468,-9.254337020000815,5.30694940962048,29.89880816717773,-1.9630627483626606
1803,0.01666666753590107,0.6030532794162631,-0.19071955573260782,0.4154395807445049,-1.2541124648496509,-1.612944169317931,-9.108141665649413,8.800338453082711,15.613245536948037,2.6403494291030025
1820,0.01666666753590107,0.19601371661797165,-0.10323621032983064,0.2365519171029329,-1.6368854552671313,-1.549198696246743,-9.288155702972412,10.049888264564341,4.55762429681719,6.744822050671346
1837,0.01666666753590107,0.04847980713918805,-0.0947305400520563,0.13417816882133482,-1.7866726966306565,-1.5653594113223255,-9.386317971038817,12.31956439462781,-3.7357228745538147,10.263197633664777
1854,0.01666666753590107,-0.2510214642211795,-0.2028013309314847,-0.035328503012657164,-2.1125835437498988,-1.715894986835122,-9.54403600540161,16.00276098003011,-8.24126185630778,10.537108709949798
1870,0.01666666753590107,-0.6555126577109098,-0.23961788054481148,-0.08432488137185573,-2.5384521640501916,-1.7901150921694933,-9.58279214477539,15.00396534222622,-6.2307939665672345,8.629073167191935
1887,0.01666666753590107,-0.9382960185043513,-0.0837542418770492,-0.03547404896318912,-2.836230995532125,-1.6602296521060167,-9.526678043365479,6.327468037192772,-4.782765687994205,4.257399489867872
1904,0.01666666753590107,-1.1758318320780992,0.05259527963399887,0.14476561380922792,-3.0891185458861288,-1.51927117549479,-9.344120166778564,-10.914064288921864,-5.081926266093471,-7.127329292778162
1920,0.01666666753590107,-1.0407400555431843,-0.06328603886589408,0.18155659058988094,-2.9562403537474573,-1.6042653344303368,-9.311948081970215,-21.21531376022643,-1.601138814928207,-22.095663672538542
1937,0.01666666753590107,-0.935088016243279,-0.062437166951596734,0.11578677208423614,-2.833687156268209,-1.5577280396610498,-9.388412897491454,-27.020101998070796,6.014630005280555,-32.14647315886719
1954,0.01666666753590107,-0.9295639921247959,-0.17525076844394205,-0.06634323447942733,-2.7772737796507774,-1.598429467883706,-9.591620763397216,-30.102597106348817,12.783550244004177,-31.643071141564324
1970,0.01666666753590107,-1.0833854574404655,-0.3393618648447096,-0.1703039596915245,-2.889950895281881,-1.7078145562320948,-9.711479899486898,-25.465054046713778,10.04114903752131,-25.63156722848952
1987,0.01666666753590107,-1.2076162327431141,-0.49086818508580327,-0.022436288213729855,-2.987663958276063,-1.823484277807921,-9.573663666424155,-12.075177664803814,3.5312598810890137,-21.817376152542835
2004,0.01666666753590107,-1.5403766534961758,-0.5054971605494618,0.4486041837215423,-3.3197099471494553,-1.8466781063906847,-9.101557611083983,4.554728723495928,-11.634421288794659,-28.776881294111437
2020,0.01666666753590107,-1.7975674540020525,-0.20391484513133762,0.4578343688815832,-3.6088097976133224,-1.5779291161686182,-9.081655809783935,5.543977037500609,-23.056229034010578,-39.54937710588009
2037,0.01666666753590107,-1.8065449795752764,-0.09183744895905256,0.30574352675080296,-3.6635771605893965,-1.4941320580631494,-9.220818781280517,-1.807512660535025,-26.175675465698365,-50.05681718162265
2054,0.01666666753590107,-1.6134060877412557,0.08304901621714234,-0.5010778828024864,-3.518129263604432,-1.3332714878909289,-10.016142060741782,-12.116550681927519,-16.696692831777774,-60.23026783714075
2070,0.01666666753590107,-1.3775140958517789,0.38560207636356353,-0.9700696055144071,-3.2855925734922287,-1.0304049778811633,-10.484508345031738,-14.141589926488642,-4.968833274476869,-60.49428879950759
2088,0.01666666753590107,-1.3626862368151544,0.5945312425255775,-0.9904168124943971,-3.249829186193645,-0.8173211762577295,-10.509647462463379,-13.231672125259543,3.646896691284622,-55.174971624847515
2104,0.01666666753590107,-1.45895187748,0.7552316537000239,-0.4121948997348547,-3.304895970507711,-0.651372927557677,-9.94027638015747,-11.456443634497052,3.2260755030286195,-42.680404123305635
2121,0.01666666753590107,-1.5624125442154704,0.7793724077440798,0.033281507354974746,-3.3958754874631762,-0.6232410580508411,-9.497797985839844,-9.581073471444775,-4.880289690284585,-35.15754839408897
2137,0.01666666753590107,-1.48600866510123,0.6881579129889607,0.25537644456028935,-3.3253961760923265,-0.7125747074954212,-9.274837956237793,-5.896476697262621,-9.042397795947025,-30.363257615644013
2154,0.01666666753590107,-1.2210622820325194,0.5025640297070145,0.7121265253365039,-3.0814868819639085,-0.9056073624759912,-8.812906673431396,-3.46082120739573,-11.532489253168682,-26.395100415426903
2170,0.01666666753590107,-0.9230329829208552,0.2294344863131642,0.9680202717691659,-2.8019638381406664,-1.1854295353762805,-8.552387605285643,-3.3153590955287915,-10.25371050090763,-22.29999219665406
2188,0.01666666753590107,-0.7447920927502214,0.16682780801355837,1.1846861696630715,-2.6403552260801195,-1.2500729802004993,-8.332121052551269,-3.924136631016378,-9.011563760712649,-16.80119643362626
2204,0.01666666753590107,-0.41540012551695105,-0.043684097295254465,1.5703811850070952,-2.334196688787639,-1.457919757953286,-7.94216545715332,-3.620155646910376,-9.011315312581589,-8.859701334706585
2220,0.01666666753590107,-0.16355886934548616,-0.28623467029109595,1.9861042588680982,-2.102856953375041,-1.7004823136478662,-7.522282341003417,0.41998507705205773,-9.379003178623593,-3.4791346521078266
2237,0.01666666753590107,-0.04253010495454073,-0.3524694759599864,2.2133277911335227,-2.005442873327434,-1.7748520565859973,-7.288997316741943,4.763055042710017,-10.296978041752368,-0.19373695510566297
2254,0.01666666753590107,0.10331614369824528,-0.5437140784800052,2.5866069770187137,-1.8980030738279223,-1.9877863667361437,-6.9044286750793455,7.56349193968366,-12.808237962759188,1.8975125691244021
2270,0.01666666753590107,0.24128464471325275,-0.7084922604873776,2.8506454514622686,-1.7963991408750415,-2.171840765491128,-6.629694034576415,8.054183828714777,-15.94951965544986,1.8598844166565671
2287,0.01666666753590107,0.4593918274566531,-0.7622722198612988,2.915463083809614,-1.6406263953611253,-2.2523456501834094,-6.547094077301025,7.916217422575104,-20.529643022279895,0.4380954303580523
2304,0.01666666753590107,0.5892061019800603,-0.8117438145168125,2.748559872472286,-1.5571286124631762,-2.3205803974978623,-6.7006222587585444,6.123937364549677,-16.1929510125637,-3.3719318448767144
2320,0.01666666753590107,0.7488213482663035,-0.8842150303572416,2.2412556625008584,-1.4264949843809007,-2.4060234692446887,-7.199214754486084,1.0209843610963223,-9.075708628529176,-6.659331561038059
2338,0.01666666753590107,0.8080373612143099,-0.9616086511611938,1.6039970388829707,-1.38220225366801,-2.479345895086974,-7.8336776099056005,-6.003516433727298,-2.448179708927167,-5.601606331735769
2354,0.01666666753590107,0.8510819915622472,-1.0218122138418257,1.459315011703968,-1.3401542331419884,-2.5267810154788193,-7.980173408508301,-6.369034007160531,-0.2775986847457407,-4.228509924112833
2370,0.01666666753590107,0.9830777017779647,-1.1565341341510413,1.151555468955636,-1.208922054644674,-2.650680951391905,-8.289474335479737,-4.8275145261151895,-1.7715256744586971,-4.663446552062314
2387,0.01666666753590107,0.9568502045877277,-1.4213897701963782,0.6461544622570276,-1.236754502813518,-2.907010312762856,-8.795847986602782,-3.6697808132119265,0.5872553959694651,-6.663863391552362
2404,0.01666666753590107,0.9138780549541116,-1.527998525699228,0.398303737026453,-1.264736734716594,-3.0093622876040635,-9.047837126812338,-3.6218132484445733,9.858168269656668,-8.621057940200924
2420,0.01666666753590107,0.9190260853670537,-1.6249562402814626,0.21227555398046968,-1.218199439947307,-3.1037836155764755,-9.24371333465576,-2.8048946626241333,20.820250495991015,-7.921673036174653
2437,0.01666666753590107,1.0029312800221144,-1.6185868513800203,0.37465631945729255,-1.0495577143795787,-3.091812461145222,-9.100958476147055,-3.9856565717575063,26.016392039159083,-2.440728826316329
2454,0.01666666753590107,1.0803741467952728,-1.6697350009456275,0.3609814298480749,-0.9106941642209887,-3.1361051918581127,-9.12879165496826,-5.32207315599018,20.948285807077486,3.377314887716331
2471,0.01666666753590107,0.9849845583125948,-1.804782207686454,0.03696165717244148,-0.9501984916135668,-3.2775128735415637,-9.463381336975097,-2.1669673738628132,17.191526376766856,8.46561734884342
2487,0.01666666753590107,0.6055480188414454,-1.6215730275839566,-0.5890040035367011,-1.2686271662838757,-3.10767419327423,-10.09949079055786,5.191845354180132,19.018282668401568,13.154200704598674
2504,0.01666666753590107,0.38126565459445116,-1.5691675714336335,-0.8632482301741838,-1.4460973643429575,-3.067272040259093,-10.38095853870809,10.41797313535185,23.13842865312439,17.945181402617113
2520,0.01666666753590107,0.07725771946460008,-1.291922117153555,-0.990577556014061,-1.7031749137327075,-2.8139354309633373,-10.513387818035483,16.297215557791237,20.447675629597864,25.37629573844946
2537,0.01666666753590107,-0.0772011669717729,-0.5738318611070513,-0.9440887765616178,-1.8222864463254809,-2.1356284653812647,-10.467000745391845,16.00178597052609,9.351669615338848,32.337004700859275
2554,0.01666666753590107,-0.13312208389714358,-0.4551894073307514,-1.1558102037906646,-1.8818422126218675,-2.035520762335509,-10.674997014617919,10.681428899564876,-1.203765345927741,36.198377016045114
2570,0.01666666753590107,-0.3238523071542382,-0.1077664011053741,-1.8566484423935412,-2.124105493108928,-1.6802810910098254,-11.367519260296225,-3.612314162856378,-17.963320677505372,33.4376077233368
2587,0.01666666753590107,-0.6878172828577458,-0.10795111002251505,-3.635629123216867,-2.547131145068258,-1.6472111805789171,-13.140575811767578,-10.577432439262262,-15.908557303450001,27.05223291547383
2604,0.01666666753590107,-0.8721800169095396,-0.14337635140791535,-4.238842269369959,-2.7588683543883263,-1.6500542950503527,-13.743615354919433,-5.096399436944728,1.8560748786469925,20.3656928689902
2621,0.01666666753590107,-0.8963019201226532,0.4797491174392402,-4.169512128034234,-2.762459510748088,-1.022923097693175,-13.678971325573324,9.302873036360985,12.84144634250379,21.136413122481734
2637,0.01666666753590107,-0.6777176213867961,1.2385481082320213,-3.317444048044085,-2.5257329677306113,-0.28431203166544433,-12.827234669494628,14.341898030503959,8.670749273960059,27.992068652814876
2654,0.01666666753590107,-0.6094041097477078,1.4968047844037413,-2.93962254255414,-2.455702423040569,-0.049530631366372105,-12.445958055114746,15.581679817698824,2.712696713782482,33.87231852815684
2670,0.01666666753590107,-0.6405261009812354,1.8522882013574242,-2.314011686632037,-2.510320002282411,0.2727890593931079,-11.810296929821371,17.172637488617188,-3.41144875809347,38.99574587742095
2687,0.01666666753590107,-0.8426496787816286,1.8177597626812756,-1.895783936473727,-2.7370212642394005,0.20754691802337766,-11.382034692382812,19.93273742278685,-2.085749807885603,38.969073988712054
2704,0.01666666753590107,-0.809835058286041,1.7392106882318854,-1.6741157002478837,-2.7205609816953538,0.09008139907196164,-11.150395681762694,23.347741507786722,2.518861281222809,35.968995358053995
2720,0.01666666753590107,-0.7605660004653036,1.6659237720943987,-1.0438076264202594,-2.677914410754293,-0.05207447063028812,-10.506505072784423,23.201809393527522,5.996706735124795,30.74186183152699
2737,0.01666666753590107,-0.5699744550265371,1.6346948133550583,-0.22257249158918857,-2.4889219710752366,-0.1325793553225696,-9.675866149792075,19.478920871310983,5.193508932129854,26.78582138689748
2753,0.01666666753590107,-0.39727132523879405,1.6255558136098085,0.17381693624854086,-2.319980970299989,-0.17492679718658327,-9.272443170055746,13.802897067246988,2.4602586850309227,22.762377220443703
2771,0.01666666753590107,-0.015459434938430786,1.5108015994437038,0.7724275570422411,-1.947383483068645,-0.32082346085235475,-8.665962546539307,9.516609292284548,2.606934863022831,17.84980976368893
2787,0.01666666753590107,0.3788530404947698,1.4162892321869731,1.185280628424883,-1.5520410800658166,-0.4370918789736926,-8.2490721824646,10.997032304317301,7.216294641151694,15.440141222623234
2804,0.01666666753590107,0.47367958826720713,1.450505243913084,1.4210399338454007,-1.4395134559080003,-0.4267667381837964,-8.012195271191,13.614651931079559,13.535429420670228,15.112674633056143
2820,0.01666666753590107,0.5756133376963436,1.4375944705441592,1.8832915346473453,-1.2994528049193321,-0.4783918576113879,-7.549815660095215,15.068727488388989,14.676823186644704,16.846343984040043
2837,0.01666666753590107,0.7027804587118327,1.3653145394921302,2.3217507564514874,-1.1496654174253345,-0.5804447033755481,-7.109730882915854,15.755403971690805,10.900827382310379,19.51679085516412
2854,0.01666666753590107,0.7030426167793572,1.361916713747382,2.460664721623063,-1.1400887569151819,-0.6139635266177356,-6.966378643035888,16.666146518262185,5.50666926359353,21.786058027651034
2870,0.01666666753590107,0.594758767671138,1.3078260809890925,2.4809587371110915,-1.257254854528606,-0.708833767401427,-6.935702934265136,15.949354023362488,-0.9756532493485939,20.25896945566146
2887,0.01666666753590107,0.5228671052843332,1.0613796695984898,2.2427117065280675,-1.3443439399167894,-0.9844662335269152,-7.164648468017577,14.632001777763788,-3.1048037867677505,16.125408979408736
2903,0.01666666753590107,0.557617077756673,1.0166853723473845,2.0800889489889145,-1.32638757359609,-1.0553944577090442,-7.318176649475097,11.848172912643856,-4.427054131774995,11.870647650107783
2920,0.01666666753590107,0.6621415743313729,1.0375845141217113,1.5851403627216816,-1.2412437770567835,-1.0591355439335106,-7.803750673675537,7.775250855842504,-1.7493761180322862,9.772939461645956
2937,0.01666666753590107,0.6708204092189669,1.02150110206604,1.2576514526307583,-1.2389992130003868,-1.0871176297061145,-8.12726717300415,5.870221876979914,0.3201582337943248,9.26190726926654
2954,0.01666666753590107,0.7180832417838275,1.0353225605390965,1.1145149013280868,-1.1972503215514123,-1.0826285015933215,-8.267178332519531,5.6796783821567765,-0.9342051001440178,9.970218376764374
2970,0.01666666753590107,0.7030715506128966,1.0141599455229937,0.9593640871047973,-1.2315173328123985,-1.117942976080626,-8.415169922637938,7.64451420493929,-6.313299663533226,12.284023505281647
2987,0.01666666753590107,0.5426962797395884,0.8328603984341025,0.6552759263455867,-1.4178161494933068,-1.3144172959476708,-8.710404914855957,9.695036031520083,-8.84186344191545,11.972912657455797
3003,0.01666666753590107,0.4763469077803194,0.7393123461648822,0.4965682964235544,-1.5125367526732385,-1.4278424534671008,-8.858546142578124,10.87999530534184,-9.007557854764435,10.073212506806287
3020,0.01666666753590107,0.2567439335212111,0.6011173429176211,0.2636515209525823,-1.7685666927061974,-1.5937905560366807,-9.077166681671143,9.276973812801943,-9.849713349237838,7.354548769010154
3037,0.01666666753590107,0.14120514484867452,0.5616301127903163,0.10729133093953132,-1.914313718768209,-1.6490068318240343,-9.223212982940673,6.2924517917522325,-11.978414374832242,6.056189145059144
3054,0.01666666753590107,-0.011367927841097115,0.5709815862424671,0.00523497804403305,-2.101659998675436,-1.6487075566165148,-9.315389746856688,3.2649478171424544,-14.161746668502996,3.62072297949831
3070,0.01666666753590107,-0.3493270862810314,0.5433941988758743,-0.22301380561590192,-2.487126465960592,-1.6745948620669542,-9.533262097930908,-1.3731986470170738,-17.429840214645065,-1.8241755473455057
3087,0.01666666753590107,-0.6096577922478318,0.4865728259794414,-0.44018122329115866,-2.788795729009807,-1.7233767208926378,-9.74275415867269,-4.851500869819805,-20.69485505301875,-6.266512440831816
3103,0.01666666753590107,-0.7210093583635986,0.5058594179905951,-0.5741933878958225,-2.9477110103331503,-1.694796084704995,-9.867701557812094,-6.611811800548165,-22.053024509097444,-11.044807770014248
3120,0.01666666753590107,-0.9505980123251676,0.5318552983820438,-0.7500409531891346,-3.2356137599669395,-1.6570872624270616,-10.032153868865967,-7.717004710147928,-20.0636482435139,-16.813046811836234
3137,0.01666666753590107,-1.3350246151685714,0.8765211148537695,-0.7145721649229526,-3.6563947017394005,-1.3013986782900988,-9.990254755291343,-11.465873564419901,-19.046187406255658,-20.36048655729536
3154,0.01666666753590107,-1.4093139863468707,1.0162947655946015,-0.6952747592568397,-3.76518123967275,-1.1397902123600243,-9.967360201916097,-17.813367289372326,-19.521549789468327,-24.846795568327977
3170,0.01666666753590107,-1.31603685997352,1.1133334364585579,-0.5892483336865901,-3.712957715960592,-0.999280356299132,-9.860818812561035,-23.021803173046422,-19.575443397114313,-32.60675960703435
3187,0.01666666753590107,-1.0832479486659168,1.1098464711256324,-0.6428156732231378,-3.508253620147705,-0.9684550099246203,-9.91483798751831,-22.75587317280656,-18.490071696485927,-36.086665857074976
3204,0.01666666753590107,-1.070204050436616,1.0901673726655543,-0.6670669019043445,-3.5169323089048263,-0.9591774784915149,-9.939827467346191,-19.8256059056552,-15.45074509130968,-35.08502203038719
3220,0.01666666753590107,-1.2379533572092651,1.1414315498262644,-0.4791659107238054,-3.709216629736125,-0.8777746220462024,-9.752032274627686,-17.42575746906869,-15.3267652050429,-33.28758261821746
3237,0.01666666753590107,-1.281710373610258,1.1913561489462852,-0.07576280473172664,-3.774159057506919,-0.8072953106753528,-9.347411609539389,-17.901350371165847,-16.5334666785401,-35.03377853613917
3254,0.01666666753590107,-1.2723738054662943,1.1433293462716043,0.15092179835140704,-3.7880759391784666,-0.8337813126713037,-9.119065210723877,-20.487738104174575,-18.884890781458513,-39.497044196459456
3270,0.01666666753590107,-1.180457446052134,1.2092802204325794,0.08112462402582168,-3.734804659979045,-0.7251442662112414,-9.187299958038329,-29.54382957563383,-21.723817928839292,-45.58731555859014
3287,0.01666666753590107,-1.1902157467395067,1.1856069377698004,-0.6351046604543924,-3.765180801281333,-0.7047935520999133,-9.906907194519043,-30.697670507597007,-12.430254440317036,-45.08939135300162
3304,0.01666666753590107,-1.1995976153299213,1.1709019744604825,-0.7726894228488207,-3.768922033636272,-0.6808515354983509,-10.053851321411132,-25.208346509400727,-1.1824926150360304,-43.10998887115359
3320,0.01666666753590107,-0.9815329565539955,1.1988216625213621,-0.6768757637351751,-3.51768078918457,-0.6208468563906848,-9.973495928192138,-16.544301066111032,4.705788175387692,-34.973720682767244
3337,0.01666666753590107,-1.0858674835145472,1.1720774479806422,-0.11237082616090774,-3.5986341482967137,-0.6337156903140246,-9.418041143035888,-12.072869060864349,1.7594210851455536,-28.026863343994215
3354,0.01666666753590107,-1.1032663620829581,1.1444399378620087,0.2131985140442848,-3.60716407623291,-0.6522707531802356,-9.09661957015991,-9.949755130011015,-4.761400002496758,-25.905147040599793
3370,0.01666666753590107,-0.9916980844765901,0.9561822421982884,0.6421890657573938,-3.5040634749814865,-0.834230225482583,-8.666561096954345,-8.146463099496234,-8.68295738332781,-25.963162667409883
3387,0.01666666753590107,-0.9940592606499791,0.9650383333489299,0.8616530699372291,-3.515435932867229,-0.8207626950137317,-8.445546356201172,-10.394128944959338,-8.10585506355957,-26.0792980814149
3404,0.01666666753590107,-0.9777417475774883,0.9330812064655125,0.8708487683057784,-3.5061581091731786,-0.8376715981081128,-8.437315703472494,-16.492185015196544,-7.600305805536382,-27.231231683052354
3420,0.01666666753590107,-0.6490268028229474,0.6737006408303976,0.8751432506293058,-3.1827915397092696,-1.0585368473879992,-8.438812664031982,-21.234006280437463,-5.957997918664217,-28.059960733164804
3437,0.01666666753590107,-0.48983869590759277,0.5975231178179383,0.8872709107965231,-3.02612067631185,-1.1008841431215406,-8.432228609466552,-21.2938558130397,-6.30017716259034,-26.4064214539762
3454,0.01666666753590107,-0.4129460103631019,0.5030798702746629,0.8013105371773243,-2.956838465771079,-1.1601406342104077,-8.5224595000118,-21.299929558759132,-8.9692208567268,-24.03189423619022
3471,0.01666666753590107,-0.22735651099532841,0.18900237655118107,0.5540303053110838,-2.789992829839885,-1.4293388295046985,-8.772504520416259,-17.872856529495845,-8.923623367601442,-21.273657236116676
3487,0.01666666753590107,-0.04824702129662037,0.07047638876140118,0.549732900378108,-2.620453132519126,-1.5245083454959094,-8.77819074935913,-11.91799196011337,-5.160469599567209,-18.55598985216572
3504,0.01666666753590107,0.0298719911724329,0.03366100819185376,0.6718260791301727,-2.5427915084287522,-1.5509942013613878,-8.65773189381063,-6.071443091909898,-0.8754946083075864,-15.187472034656953
3520,0.01666666753590107,0.10782967559993266,-0.005335808070003986,1.1598930891901253,-2.4558520606443284,-1.5881041809633374,-8.17245714481771,-3.7399306979693656,1.0628141471207728,-11.646090666991627
3537,0.01666666753590107,0.0933580826550722,-0.06351765566468238,1.5743337220251559,-2.465728142492473,-1.6425724148623644,-7.7599068557739255,-5.5679761878099185,-0.7152745920783661,-10.785441581566769
3553,0.01666666753590107,0.013194997137784957,-0.17344401128292083,1.789665156444907,-2.5438389716550707,-1.7389390316836535,-7.547421458435058,-8.952082204551946,-1.788867311317948,-12.06172219213889
3570,0.01666666753590107,-0.011492284873127936,-0.2802341147020459,1.728741024404764,-2.569127726690471,-1.8296194195620714,-7.6108678024291985,-11.0237613958605,-2.7546208417948432,-13.903583447123085
3587,0.01666666753590107,-0.059417234608530996,-0.5186116397969425,1.427732709482312,-2.6162635718747973,-2.050783797919005,-7.914931413269042,-10.8377872975921,-0.5623601568575619,-16.102206826798202
3604,0.01666666753590107,-0.11066080737262964,-0.7555825129643082,1.1465712508022785,-2.6473881934568286,-2.27269651042521,-8.20403126373291,-8.072142103590034,7.934402801240264,-19.650727449693484
3621,0.01666666753590107,-0.14466039986908436,-0.8325644842274487,1.119921144285798,-2.646789643041789,-2.3463180653445423,-8.240542839050292,-5.653565715186171,13.495126181925274,-20.90399544540454
3638,0.01666666753590107,-0.08056962049156427,-0.8639173616074025,1.3383534673303366,-2.53800310510844,-2.379836742456257,-8.033593448528647,-3.6114480094922556,16.357707128175456,-20.515724804298703
3654,0.01666666753590107,0.0377995693013072,-0.7852240563817322,1.8222049055218696,-2.357091242162883,-2.3072626507632434,-7.56492905807495,-3.6316790298138337,14.413772111140004,-18.26255126504363
3671,0.01666666753590107,0.008830664448440075,-0.7581864118523896,1.9036176988393068,-2.3491604491636155,-2.278681868445128,-7.493103008270263,-6.541388708223925,10.213563502739941,-16.16091742535634
3687,0.01666666753590107,-0.14653554609119893,-0.7871902418881654,1.6674322769612073,-2.476801032909751,-2.297087147577107,-7.73790954349935,-9.938743157521662,8.056306309999359,-15.36405803791117
3704,0.01666666753590107,-0.3868652281671762,-0.842481044216454,0.967678910985589,-2.6828521594174206,-2.325668222156167,-8.450334759521484,-13.29414530427671,8.84781765932441,-15.394305530650572
3721,0.01666666753590107,-0.521957296963036,-0.874865018209815,0.540206362619996,-2.785054788915813,-2.3349456074588,-8.889371488952635,-12.36287206283392,13.702391687383896,-14.956922414317757
3737,0.01666666753590107,-0.769092129009217,-0.8226319960169494,-0.024741642546653748,-2.9698572295591235,-2.2572836911074816,-9.472958143615722,-10.372288561314575,19.195882954747532,-15.3424131684314
3754,0.01666666753590107,-0.9824968331500887,-0.6457967348605393,-0.2862444610327482,-3.127126351110637,-2.066346108710021,-9.74948843536377,-8.230710921587404,21.614512704004287,-15.955193835102849
3771,0.01666666753590107,-1.1650085325077175,-0.37336101894974705,-0.21378186689019202,-3.2507270118162035,-1.784578500830382,-9.69157868270874,-6.985484619850392,20.784743757590704,-16.260506706097004
3788,0.01666666753590107,-1.190365968865156,0.34199221334829927,-0.379912924811244,-3.2225952884398397,-1.0579382969729603,-9.870994169616699,-9.661799477245154,17.08395431243374,-16.15244286814365
3804,0.01666666753590107,-1.0884878951460122,0.8608519826874137,-0.9905500834852456,-3.067271163476258,-0.5084691620975732,-10.497377178955077,-15.615468763522877,10.937366333049008,-16.2460898843064
3821,0.01666666753590107,-1.208137480138242,1.2341311685726046,-1.3899006992161274,-3.1591486521847543,-0.0995094448916614,-10.907533850860595,-19.877358248996387,6.614600652163645,-16.724370465841957
3837,0.01666666753590107,-1.473466578914225,1.7881578206218778,-2.314535418245196,-3.407397582952678,0.5119098040707409,-11.843517062377929,-20.40305229620288,-1.2068467217387688,-17.431347978904345
3854,0.01666666753590107,-2.080387931935489,2.377916441918164,-2.99197349203825,-4.0216599463865155,1.1376942629940807,-12.524218521881103,-15.586408016151765,-9.377919739866499,-18.898064508820173
3871,0.01666666753590107,-2.403705109299719,2.680959331408143,-3.344782136824727,-4.370914113561809,1.4613605460569261,-12.874370514678954,-9.533503765196574,-15.998077177806774,-24.603080758363582
3887,0.01666666753590107,-2.7256509983107446,2.9011224237680433,-3.8125112922549245,-4.728547840417177,1.6756413023799657,-13.333907595825195,0.819226282625405,-10.453690755842787,-36.0009264924238
3904,0.01666666753590107,-2.6461732647091147,3.047861967998743,-3.563167113596201,-4.648940781347453,1.7904136367246508,-13.080421495056152,7.327282653843462,1.0754231032154395,-44.107889754176206
3921,0.01666666753590107,-2.4702158093005417,3.1743437370985745,-3.1663112372905013,-4.4407947283871465,1.8715170718319714,-12.684181120300293,8.55745863374435,11.99214988525314,-50.35634829748439
3937,0.01666666753590107,-2.255861257088929,3.46796018820405,-2.117059958511591,-4.147953937829286,2.107944778033346,-11.642852451214194,4.306077821195729,20.131159540817595,-52.074960496443
3954,0.01666666753590107,-2.266095066333562,3.612893559795618,-1.1185405035823583,-4.087949258721619,2.2212201518185437,-10.653448615154623,1.6237697929693982,21.98897953279753,-52.25003190524876
3971,0.01666666753590107,-2.2955206289127466,3.5339135465830562,-0.5860580132126808,-4.046200513403117,2.114229265130311,-10.130165914806723,1.2633100813382658,19.295012905266514,-54.71593168620388
3987,0.01666666753590107,-2.310961213020235,3.3206185864269733,0.2421943069040775,-3.9857469214841723,1.865232584735006,-9.310152430725097,-0.9842870353463131,9.13177765142581,-62.536440229260535
4004,0.01666666753590107,-2.27830002952069,3.051858636419475,0.5792085857093334,-3.9157165229246016,1.574935341180116,-8.97631093673706,-4.078296561904505,2.084932959949552,-68.79675939606244
4021,0.01666666753590107,-2.2871493986696003,2.963338933706283,0.676676441770792,-3.8994060241147874,1.4707878612242637,-8.88069250793457,-7.456900007496441,-3.3645343231187677,-74.60973532317436
4037,0.01666666753590107,-2.1756674841724335,2.9149060344487427,0.6988742450535297,-3.761290369714051,1.4076406463071702,-8.86064106903076,-8.74907446826718,-2.691459307775385,-80.1257414553633
4054,0.01666666753590107,-2.0741994525589047,2.884737106156349,0.9142828363627195,-3.633200580895692,1.365442695916444,-8.647706758880615,-7.753789547696678,-1.1091228296934592,-81.04009887955291
4071,0.01666666753590107,-2.014993668743968,2.8673616084635256,1.121196571049094,-3.5462609869807955,1.334767279406637,-8.443151570019126,-7.76684716184245,-2.7161623944560285,-81.50717453575506
4088,0.01666666753590107,-1.8493736290849745,2.668285727795958,1.6177619448632001,-3.3601118079036474,1.12048608469218,-7.947402773284912,-9.630436956123749,-12.138465343879506,-84.34473564530184
4103,0.01666666753590107,-1.7353306319281459,2.5888179310664534,1.909458241561055,-3.255215993798524,1.0345941001340746,-7.653215244293213,-12.132374522687147,-22.066184576080765,-87.76038347563099
4121,0.01666666753590107,-1.682116051352024,2.5601094307154417,1.9680150599479673,-3.2320221652157604,1.0036191161558032,-7.589469625091552,-14.574563301938566,-30.171786922641047,-91.44352200442535
4137,0.01666666753590107,-1.5439187100172043,2.5336639068603515,1.8663503367185592,-3.15555734969452,0.980724562780559,-7.681496751403808,-18.565393315105535,-35.898760522818755,-96.92104685083042
4154,0.01666666753590107,-1.4518218794696032,2.570597214721143,1.4846037667393683,-3.1150055590756236,1.0259149729855357,-8.055740398406982,-21.711035229807614,-36.2067405826838,-100.37063389114537
4171,0.01666666753590107,-1.3767498334810138,2.553810622832179,1.327216571766138,-3.0894175288327035,1.021875049944967,-8.206425465393066,-24.61644914611659,-36.35151668742597,-103.26946179754717
4187,0.01666666753590107,-1.0841228318043052,2.486308281445503,1.107082705500722,-2.8694501051753756,0.9787791278012097,-8.417115211486816,-28.48991601877523,-40.84178208553532,-107.29701261523941
4204,0.01666666753590107,-0.9202638104684651,2.510765846353769,0.9091612555652856,-2.7702403738826513,1.0259151191160083,-8.60625714263916,-31.389285217668743,-44.670516341772256,-110.63028153398903
4221,0.01666666753590107,-0.8709329394578933,2.5222648532286285,0.7426093418836593,-2.792985435784608,1.064970533697307,-8.762778076171875,-35.569586385959155,-47.74960660074902,-114.3383570834431
4237,0.01666666753590107,-0.8090491686053574,2.4884166519016024,0.32775311398506163,-2.8408693228572606,1.0779891513548792,-9.16186156539917,-41.09978906633797,-53.161595782067835,-120.97626959813083
4254,0.01666666753590107,-0.7413565653435885,2.509023678861558,-0.08515256436765194,-2.862566921532899,1.1357491202756762,-9.560645779418945,-42.46262695671437,-54.467480140050085,-126.64990283598532
4271,0.01666666753590107,-0.6572723608598112,2.5325015850827097,-0.24772096137106417,-2.866607136834413,1.1897682952329516,-9.707440268707275,-41.13300427627174,-53.12665936446322,-131.6757609329558
4288,0.01666666753590107,-0.48339638790041206,2.6774568762451407,-0.4252665627539158,-2.7985217348627742,1.3631984241209922,-9.86366192703247,-41.041076760232535,-48.83152905584655,-136.69129178390122
4304,0.01666666753590107,-0.28721885902285577,2.827419474175572,-0.4661275654524564,-2.67387361093089,1.5327378291808067,-9.88939959487915,-44.26663359577106,-46.96853690311763,-140.71499720509075
4321,0.01666666753590107,-0.12317016033381223,2.858822912698984,-0.4745990411996841,-2.5784049658626316,1.5885526553831995,-9.883563728332518,-48.722864161246235,-47.82322920981259,-144.22340583453786
4337,0.01666666753590107,0.006036649815738201,2.9023963892266154,-0.6974193700700998,-2.5453350554317233,1.670404424639791,-10.085873768615722,-52.01408643546526,-48.63924557033235,-149.1433550182381
4354,0.01666666753590107,0.16679449026584625,2.9829125259652733,-0.8855237748682498,-2.4560011137261983,1.7757494438171386,-10.257507515606283,-51.201655924259754,-48.335090416402515,-152.01734835681773
4371,0.01666666753590107,0.351443493913114,2.9917960896447298,-0.9712614456474781,-2.3430244306266306,1.8010381257873027,-10.324994659423828,-48.86583026585836,-49.17797674111711,-153.564481826474
4387,0.01666666753590107,0.64496583699435,2.959719281904399,-1.0910884330332278,-2.144007002148032,1.7732056045532225,-10.417620336151122,-44.820367277067746,-46.4524409792423,-155.68924439423824
4404,0.01666666753590107,0.8116986602008343,2.9044962841153144,-1.1032283681601285,-2.034173000988364,1.7096097690857945,-10.411485194396972,-42.90717323393923,-39.44609440034574,-156.55080445614365
4421,0.01666666753590107,0.8878317595496773,2.885087819290161,-0.9891647666066884,-1.998109753960371,1.6748936258178204,-10.283096130371094,-40.59321784126022,-33.71196959210704,-154.94352434065627
4437,0.01666666753590107,0.8108817908599972,3.0598323917776344,-0.2837491370856762,-2.1194664351314305,1.823633623150736,-9.560346504211426,-39.88734511129608,-36.52260951104021,-150.91238767364976
4454,0.01666666753590107,0.7493807357147335,2.930229860308766,0.1661257972240448,-2.234088547350466,1.6769890637271105,-9.09123261642456,-41.30996081728843,-46.793270833920516,-148.02506180581025
4470,0.01666666753590107,0.7631409655198454,2.8091379675537347,0.2773088749051094,-2.2925965581595897,1.542464419555664,-8.954613484191894,-44.804886653313915,-51.917278749264085,-148.20327510163423
4487,0.01666666753590107,0.7016434175059199,2.464379942753911,0.00029401451051235195,-2.452410103496909,1.1978493103578687,-9.198522778320312,-57.788140529591864,-49.485881668901285,-152.29431252766176
4504,0.01666666753590107,0.6649269672662019,1.9776376054264604,-0.4746200839877128,-2.5549115698114035,0.7371149822510779,-9.654169281768798,-70.86812354489552,-46.70023682723577,-156.4536518453894
4521,0.01666666753590107,0.7159595276281238,1.6592606609433889,-0.7011293305039406,-2.561645261980593,0.46612142797261474,-9.866505041503906,-80.42475347684812,-43.08617541661234,-161.1623159573045
4537,0.01666666753590107,0.7643418657422065,1.072163952332735,-1.2027671852767468,-2.570474172863364,-0.04668678624257445,-10.356868053546547,-82.42053475232585,-31.760253282059647,-165.14383813018003
4554,0.01666666753590107,0.8333177868127822,0.633387262077257,-1.3788649259388446,-2.5149589141294357,-0.43664238164052366,-10.53388875427246,-79.2767284509632,-18.333561326749667,-165.3468996542045
4571,0.01666666753590107,0.9314145884275435,0.46719008011743424,-1.2595049715429543,-2.404077157482505,-0.5590458684507758,-10.424204390716552,-77.37502620111324,-9.002684514791632,-161.3674401984583
4587,0.01666666753590107,1.1379098054409027,0.17228658487610518,-0.8070920431882143,-2.165853800036013,-0.7866446637693792,-9.990554615020752,-79.33484653061085,-5.976068891660779,-153.11200911471732
4604,0.01666666753590107,1.333781337109208,-0.19694062220454214,-0.5985147592037916,-1.9443907309934496,-1.0941498664304614,-9.797372468566895,-79.35058328645856,-1.7820835460899502,-148.1634004572597
4621,0.01666666753590107,1.2914710123851894,-0.4157487197589129,-0.5758826561570167,-1.9488795668452976,-1.2496232636716216,-9.79408044128418,-76.00624946125352,6.0174811823722125,-142.6348540977546
4637,0.01666666753590107,1.187415886887908,-0.622909049617499,-0.6807172415941953,-1.9820988226190208,-1.3765160247251391,-9.930400298309326,-69.46120019852128,14.295264913945697,-132.10779771871577
4654,0.01666666753590107,1.0510770329013466,-0.8451026248916983,-0.7013514488220215,-2.0584142927974463,-1.5430626777097582,-9.975741076770424,-62.69681307097244,15.005927314065307,-122.3559678104734
4671,0.01666666753590107,0.9572396422967314,-0.968661419216916,-0.6435188530564308,-2.101360285076499,-1.620275608184561,-9.938181453704834,-53.08588655021283,9.418716459778986,-112.41651260573076
4687,0.01666666753590107,0.8028782248854637,-1.1880978778026998,-0.6382967344939708,-2.219873559515178,-1.8077715256955473,-9.9468604347229,-35.559494781460465,-0.8655101524014972,-99.73748901546352
4704,0.01666666753590107,0.5129612128198147,-1.3212237610921262,-0.6083721363514661,-2.5050825400203465,-1.9458871800962834,-9.918130014801024,-23.265765577368228,-7.650346332716834,-91.49253544190935
4721,0.01666666753590107,0.33607582891136406,-1.355680449706316,-0.5983791501253843,-2.6951225890561936,-2.0036471490170804,-9.902269013324378,-15.393050483390581,-14.492691531904915,-83.81583311673273
4737,0.01666666753590107,-0.2096738470494747,-1.4731810399711132,-0.5139513929009437,-3.276015474590659,-2.1663031512387096,-9.803058697509766,-11.86941394718895,-17.657990731038293,-81.07226907054367
4754,0.01666666753590107,-0.6716527683898806,-1.534690862944722,-0.4253092328518629,-3.767575002941489,-2.264914332116395,-9.701754039764404,-12.976164139919474,-18.757268696816826,-84.92703659280211
4771,0.01666666753590107,-0.8961880844846367,-1.5770244224138557,-0.2996644990980625,-4.024053563524783,-2.3615802241452037,-9.560945054626464,-13.395611179491835,-13.864877618870269,-93.94110361784557
4787,0.01666666753590107,-0.9019716363221406,-1.4718299176231027,-0.1168558626204729,-4.034828055517376,-2.302772791998088,-9.37240167388916,-14.889487956642222,-6.5131364844958135,-100.72518901096073
4804,0.01666666753590107,-0.8848597580015659,-1.1905394988011568,0.27930618620216846,-4.000860027202964,-2.0661955943234265,-8.977807312774658,-18.630346706565064,1.5833296302759277,-105.39451806344572
4821,0.01666666753590107,-0.7775324789658188,-0.775911965091899,0.819683229213953,-3.8477804662957786,-1.699134479235485,-8.448090195465088,-23.25064353854582,4.562899337290556,-107.60762229793491
4837,0.01666666753590107,-0.6273652983739971,-0.7072785007834435,1.0875070674151182,-3.664624623815715,-1.659779862511903,-8.188169677734374,-23.227159640632024,0.782717374046953,-107.77994114050516
4854,0.01666666753590107,-0.253096224668622,-0.5419613165285438,1.482121886795759,-3.2659897551387544,-1.5273505831845104,-7.7980650292545555,-19.784184223433655,-2.5869367094632683,-106.03053161857896
4871,0.01666666753590107,-0.1329708388581872,-0.3261934634529054,1.5747674372673033,-3.1281738143369555,-1.3625996545102446,-7.705588405609131,-16.73568808929667,-9.16010586100844,-101.38734170004761
4887,0.01666666753590107,-0.013234160104393959,-0.29695706677027045,1.5243547623693943,-3.007116992895305,-1.3724755902279167,-7.7519760627746574,-15.690051014164831,-11.524384379944816,-97.9857640594087
4904,0.01666666753590107,0.2063145997494459,-0.36023492232970894,1.448956699296832,-2.7859523222774265,-1.4742292338497935,-7.823353784289956,-15.978732374530004,-9.05415425905591,-96.38302601971935
4921,0.01666666753590107,0.4076496575206518,-0.42820707318522033,1.484160699146986,-2.5682296088069676,-1.586158088396862,-7.788038725280761,-18.950096889917333,-4.398110778280243,-94.10478910130492
4937,0.01666666753590107,0.5173410353392363,-0.5007102915991097,1.533871947777271,-2.4401398199886084,-1.6825247052181511,-7.741202155303955,-21.1335512732195,-4.223115782215816,-92.04371121736187
4954,0.01666666753590107,0.7267734748482704,-0.5423770577225834,1.7914228137671946,-2.216431602367759,-1.7407336600154637,-7.486070040893554,-23.62021141415687,-7.602124343402898,-90.01401122246587
4970,0.01666666753590107,0.9059785338759422,-0.577422213749215,1.7651508929133415,-2.0344725684568283,-1.7854752304743975,-7.511957346343993,-26.61889156358237,-12.918227914058487,-85.79320703239728
4987,0.01666666753590107,0.9437991459652781,-0.6643355772443116,1.6838351302295922,-2.004993960516155,-1.870918448351696,-7.5908163635253905,-28.294586268891205,-15.720332657850083,-82.78933081656069
5004,0.01666666753590107,1.0906678695335983,-0.7906839292228222,1.43590549454391,-1.8763056212827562,-1.9858400549739599,-7.8344263824462885,-30.817492516206542,-15.198041752397547,-78.84049109886367
5021,0.01666666753590107,1.166415768957138,-0.9993343515086919,1.1010562848180532,-1.808669424383342,-2.17737618778646,-8.168866426849364,-33.649019153621616,-11.025342584653357,-76.02409674555476
5037,0.01666666753590107,1.2140376440927385,-1.0926839585963637,0.9531301611512899,-1.7601865485042332,-2.2438152107905593,-8.320448734936118,-36.96739484488602,-7.0722728454259824,-73.69453095552768
5053,0.01666666753590107,1.3331392398133872,-1.3454858034282922,0.6348381184726953,-1.6335934279844164,-2.4612387221187353,-8.645462194824217,-38.70988538518299,-4.655839428874212,-71.20981741850376
5071,0.01666666753590107,1.376172910375893,-1.5365246542431412,0.34603871226012706,-1.5777780172601341,-2.6015986483149227,-8.94428848953247,-36.157078277228635,-3.6876195597767074,-66.83798408550784
5087,0.01666666753590107,1.3794529549598693,-1.630859180714935,0.20833470740020274,-1.5638620123714209,-2.6638479645442215,-9.088988052368164,-31.619705064413708,-1.809784338764289,-62.67262737112142
5105,0.01666666753590107,1.4142057039111853,-1.785355476552248,-0.019422493350505828,-1.5089450117915868,-2.786251597484946,-9.326612567138671,-26.361711035669295,1.3565961646920655,-55.935984471981165
5121,0.01666666753590107,1.3660864006474613,-1.9279951842486858,-0.15892098041176794,-1.5372268111631273,-2.908804794964194,-9.47445451965332,-23.68496843767776,3.5275098937912652,-49.70206740141594
5137,0.01666666753590107,1.2446671756342054,-2.031269388501346,-0.19958909088671206,-1.6376333510249852,-2.9939485184382644,-9.523535653686523,-20.16483237342576,3.8103956252022715,-43.410920175795184
5154,0.01666666753590107,1.0347443222597241,-2.1950328405082224,-0.21792028186917303,-1.8204905028194187,-3.143286920055747,-9.551666938671469,-14.209869620073967,5.017567101091733,-38.33118554665164
5171,0.01666666753590107,0.6795715786904096,-2.4289352660156784,-0.333964828106761,-2.152087725012004,-3.3764222336482255,-9.674968908691406,-9.900602527422665,6.543697312163389,-37.58648319125598
5187,0.01666666753590107,0.4793582184255123,-2.5285651224166155,-0.39086277337074277,-2.3243206069394944,-3.484311092089489,-9.739462715911865,-6.022994852579705,8.783848668879008,-36.609643196539096
5204,0.01666666753590107,0.22719605973660945,-2.542827456524968,-0.317366160005331,-2.5381527427121995,-3.524713025908917,-9.674669633483886,0.5260686937546397,6.184820817037525,-35.952305790817064
5221,0.01666666753590107,0.21359365084171295,-2.4454836652345953,-0.1530412747234106,-2.5254332541316744,-3.457675452489778,-9.514856672668456,2.163260288690789,7.456686564084878,-34.561696351275394
5237,0.01666666753590107,0.006440262180566788,-2.4431648668982087,-0.339257673817873,-2.7042507751464844,-3.4820664549678564,-9.706392805480956,-1.4231667101593004,8.207470349162788,-34.82006874719864
5254,0.01666666753590107,-0.053670799911022186,-2.4131395848602053,-0.6955033073157072,-2.7186159851074216,-3.471292474431917,-10.073603485107421,-7.1609935876498625,11.876474655243449,-37.57254960534915
5270,0.01666666753590107,0.053607087025046345,-2.3264926902815697,-0.9487965158611535,-2.566583887426555,-3.395126934118196,-10.338311821636557,-6.3863784187841315,15.589935808858076,-40.5165762885835
5288,0.01666666753590107,0.09017156157344579,-2.321643204423785,-1.0184919833779333,-2.4785969764158127,-3.406798740276694,-10.420313813018797,-2.6045453640303844,16.13093630999457,-40.55877661237043
5304,0.01666666753590107,0.13918430654555558,-2.130471521009505,-1.2340367682874203,-2.3639745719358323,-3.2571611365169284,-10.6486607963562,6.562520886629121,14.833371122421397,-38.04988079059008
5320,0.01666666753590107,0.1514189342185855,-1.8048621410548686,-1.2890332638442517,-2.303670617620647,-2.9806309178341177,-10.710311489105225,13.00577300997148,15.731153385042676,-35.66395569462664
5337,0.01666666753590107,0.13055223340913652,-1.6560143724985419,-1.2368489030987024,-2.270750490923971,-2.8912971953243014,-10.664372744750976,17.205953443841217,19.208640040569826,-31.805684285323988
5354,0.01666666753590107,0.16726503038704393,-1.305781861810386,-0.8749024276107549,-2.155679173632711,-2.625391173443198,-10.31062944946289,17.807110836092594,19.23553391042675,-27.311276377483026
5370,0.01666666753590107,0.3231535112351179,-0.8505017074562609,-0.5627361743360757,-1.9464858035765586,-2.22825297306478,-10.003124173736571,16.058189672692055,16.906143997770798,-23.70426713717763
5386,0.01666666753590107,0.39024157273247834,-0.7307878250561655,-0.4263280545055866,-1.8303668769285082,-2.1582224283747373,-9.870994169616699,13.734070958528061,16.620177637600705,-18.89331411225243
5404,0.01666666753590107,0.4144486700110137,-0.5644326029904186,-0.2552951960176229,-1.7455225017271936,-2.044348211913556,-9.705943892669676,10.192887666348666,15.406172984333468,-13.659869490932335
5421,0.01666666753590107,0.3875673850871622,-0.6578431464850902,-0.07199731471836567,-1.7284639610290526,-2.170343220409751,-9.527426231384277,10.46466174719712,16.3127576532476,-10.694612872210293
5437,0.01666666753590107,0.3493012211874127,-0.6630090048156678,0.13592062857449053,-1.7212809176571666,-2.211343777709454,-9.323769452667236,14.5543066684076,17.374968182400472,-7.683230278475861
5454,0.01666666753590107,0.4481934109635651,-0.5359197713419794,0.7939999219030142,-1.5662567985534668,-2.1462515662044286,-8.667458922576904,19.0849436071536,13.079690170943005,-4.175311288214896
5471,0.01666666753590107,0.6129226392626762,-0.5336114943996072,1.2597113077700137,-1.376516316986084,-2.1933874113887546,-8.198494672393798,17.97219309323722,5.914757271689337,-2.3563819664821954
5487,0.01666666753590107,0.7077130928084254,-0.4929933605462312,1.387808695372939,-1.2749122379027307,-2.1927888609737156,-8.064718654632568,13.012238637794542,-0.7863773415858748,-0.5979639586492814
5504,0.01666666753590107,0.7908981564953923,-0.43731940411925313,1.335616735842824,-1.2020387248717248,-2.1654051794856786,-8.109609935760497,3.4753359997122417,-4.603549208135886,-0.6771133113293
5521,0.01666666753590107,0.8259012269459665,-0.5217739032201468,1.0956821905642746,-1.1768997535705565,-2.251895714458823,-8.347084812927246,-2.9956723048697564,-3.5381500478576755,-2.423100108068526
5538,0.01666666753590107,0.7796411416828631,-0.5750158101946116,0.9827093068569898,-1.226429800415039,-2.293943881115317,-8.461407942199706,-7.325537540510524,-0.40413082060628297,-4.054801138046484
5553,0.01666666753590107,0.6955415934994816,-0.635507249905914,0.8443155661672354,-1.3043908458434044,-2.3325502367548645,-8.605060041809082,-8.030822020432394,1.9335016896348456,-6.703218941549975
5570,0.01666666753590107,0.6817033300220966,-0.7828500207267701,0.8921522530972957,-1.3057375842772423,-2.468121905761212,-8.561964411926269,-6.796178243040672,4.315254607232465,-9.063611509735438
5587,0.01666666753590107,0.7027754902757704,-0.8351306814536452,1.012494788789749,-1.266382894488424,-2.512264998870343,-8.446893094635008,-5.77107357032754,5.344216629279362,-11.219638414651772
5603,0.01666666753590107,0.8028432997025549,-0.8142407458990811,1.229874387910962,-1.1429318713866174,-2.484282913097739,-8.23560538264811,-5.650683802243249,3.2917046563291565,-11.949680622767646
5620,0.01666666753590107,0.8106053120061755,-0.8872649194471538,1.301354400756955,-1.1194387675963342,-2.5520686014704403,-8.168267876434326,-5.710284886714427,4.077288255228281,-11.162373254876739
5636,0.01666666753590107,0.7479882584430277,-0.9839686592683196,1.2923024947732686,-1.162534543609619,-2.6427489893488585,-8.182333811187744,-5.001816257978861,7.104634281713503,-11.924251828487689
5652,0.01666666753590107,0.7531950333058833,-1.1341728108696638,1.4304028054744005,-1.121683477783203,-2.7892443495601413,-8.051999458312988,-5.321629620580953,7.790413022026286,-14.94141959244912
5670,0.01666666753590107,0.845356891913712,-1.2486907320618628,1.547287309667468,-1.005265275927633,-2.899227842193097,-7.940668496593832,-8.16946632284719,4.69102344083624,-16.523434838196643
5686,0.01666666753590107,0.8625716460868715,-1.270553896562755,1.464538883832097,-0.9733924663268029,-2.906410593304038,-8.028805629730224,-12.079751330226784,0.7458791222844594,-18.153025766607893
5703,0.01666666753590107,0.8334472584113478,-1.3332701727166771,1.1663918035596608,-0.9913489787779748,-2.9391812285274264,-8.334215979003906,-14.71597553851451,-1.014283305190305,-20.5225806066781
5720,0.01666666753590107,0.8828316131748258,-1.386611594542861,0.7523831324011087,-0.9368808910094201,-2.9659663596004244,-8.753650182342529,-15.217683668903211,-1.6947946889925392,-22.072232708590814
5736,0.01666666753590107,0.8755116455502807,-1.4077975904345512,0.5501508335292339,-0.9383772670470177,-2.9607288973383605,-8.961347176361084,-14.77338498603576,-0.8588802798732362,-21.54493015183478
5753,0.01666666753590107,0.7769565787740051,-1.319823100513965,0.1846118865072727,-1.0293569301329553,-2.8398215673699974,-9.33364553451538,-12.61596557630239,-1.8896945638456761,-18.217410544819018
5770,0.01666666753590107,0.6246515093706548,-1.4201432772666216,-0.10084113188683987,-1.1822867073059082,-2.9230202211908995,-9.62169792175293,-7.654823521717778,-4.201216061302639,-15.904141586151589
5786,0.01666666753590107,0.5120918826393783,-1.4417949909739196,-0.12702069828212262,-1.304989542388916,-2.941874705395102,-9.64638812637329,-0.698376490628343,-9.375085211360945,-15.48404226351349
5803,0.01666666753590107,0.2562779234446585,-1.4555191265523433,-0.17337445317804812,-1.5912462783813475,-2.9806308447688816,-9.682899701690673,8.667076339733885,-13.08759953000188,-16.89156837408199
5820,0.01666666753590107,0.14883154807388782,-1.408871211015433,0.027234043884277342,-1.7257704841613768,-2.9689591116756198,-9.471312129974365,10.953850140837188,-15.230481735860524,-18.927335284508263
5836,0.01666666753590107,0.11399053631722926,-1.2864191358231007,0.11064005684554576,-1.797147621154785,-2.878877274212241,-9.375244788360595,6.375250759965712,-21.307365927217983,-19.462333756911608
5853,0.01666666753590107,-0.0844097831763327,-1.0466470876298843,0.04697627070844173,-2.0724808120727536,-2.657413620647788,-9.419987016406655,-3.7802386324693726,-31.75588879118001,-21.295600926372636
5870,0.01666666753590107,-0.36357100794985886,-0.9259070770524441,-0.3016910364896059,-2.425026860400289,-2.5350097685113546,-9.753229375457764,-7.286970023588402,-35.02614579974168,-23.706811382643462
5886,0.01666666753590107,-0.46567105385661123,-0.7946494718529283,-0.4097013293534517,-2.605340319061279,-2.3971938277095557,-9.8449572265625,-10.164419437888053,-37.41942359434664,-27.272542374699885
5903,0.01666666753590107,-0.6626314036749303,-0.2919360968030989,-0.7409405318886041,-2.914192187090963,-1.8673270727962255,-10.154707066345214,-23.40851823856879,-40.86836176669043,-35.948798488678264
5920,0.01666666753590107,-0.7071652496673166,-0.05397475129365921,-1.4871996284514666,-3.0404863246642053,-1.5803220026545226,-10.889128425598145,-36.5965224031435,-38.71514804593849,-45.6562253371264
5937,0.01666666753590107,-0.587196223462373,0.05599062116071581,-1.9359575414299963,-2.9885622222900388,-1.4019541251033543,-11.331606819915772,-43.32685420749066,-31.773281867901446,-53.37888117503886
5953,0.01666666753590107,-0.29574381852298975,0.36069413733929395,-2.513353524759412,-2.7497408989503977,-1.0043670119136572,-11.909357608032225,-40.34673680468197,-17.273766977015686,-52.55737334242641
5970,0.01666666753590107,-0.13306640818715096,0.7176473345845937,-2.6125533191800114,-2.6026468421936033,-0.5880751982539892,-12.012906829833984,-33.92935402282103,-10.631855386568922,-44.458104288774024
5987,0.01666666753590107,-0.1114119180008769,0.7474979907080531,-2.3343659078747034,-2.5948656867980957,-0.5093658186763524,-11.737723276519775,-27.059520727318233,-13.047739399779331,-35.05186487706136
6003,0.01666666753590107,-0.15467121401280165,0.6504798511754721,-1.4260177222579717,-2.6870424507141113,-0.5624871680110692,-10.822090779113768,-17.447310130994666,-26.178578296095623,-31.175882787240866
6020,0.01666666753590107,-0.24949820017665622,0.4667801110770553,-0.912849588689208,-2.8440120047971607,-0.7312783119868487,-10.293869453319907,-15.000729540106926,-31.806097511768773,-36.8183703624801
6037,0.01666666753590107,-0.3000304098010063,0.3866645179633051,-1.0954735162496567,-2.953247747802734,-0.7968196554988622,-10.461913066864014,-20.76751119031476,-25.296882836517014,-44.00925157727747
6053,0.01666666753590107,-0.5056807004228234,0.31979528684839603,-1.8815695331603288,-3.1901234900325535,-0.8298894928645342,-11.243320049175619,-23.81192970151725,-3.1609586139158337,-44.81940422039477
6070,0.01666666753590107,-0.4549143897816538,0.27297661785446103,-1.6405279034227132,-3.111713970184326,-0.8568244076717645,-11.01257944869995,-17.117143909158123,13.015329298393974,-41.49190339639923
6087,0.01666666753590107,-0.33698797532021996,0.264240572886914,-1.226312311515212,-2.944717819866538,-0.8629594032954424,-10.612448496246337,-6.588677096055685,16.300651142943753,-34.68053139754986
6103,0.01666666753590107,-0.3677110303640365,0.1350095781441778,-0.23640754019618032,-2.920177837371826,-1.0230716393183916,-9.63396820526123,8.698157115552029,8.202917174307329,-24.353614929118038
6120,0.01666666753590107,-0.5219622653990984,0.08705321035720408,0.7873509854078292,-3.0563480567932126,-1.1210843428462742,-8.608800981903075,19.156790367032965,0.9073244637786094,-19.328972605819818
6137,0.01666666753590107,-0.6076181031137704,0.022158201924711466,1.5537357551544904,-3.1471780822753903,-1.2779045515865086,-7.828740153503418,24.519429724051143,-8.831959667618932,-17.27253583541779
6154,0.01666666753590107,-0.6391387382760644,0.09052066727206111,1.785042172819376,-3.2044892845153807,-1.27715636356771,-7.580790644073486,19.473306455813233,-17.291144685811492,-19.921170497427433
6170,0.01666666753590107,-0.5552253603145479,-0.004435059837996959,1.8636346480190753,-3.1591490905761717,-1.425896141704917,-7.483526201629639,11.3820773885876,-20.36317423673376,-24.309018916479733
6187,0.01666666753590107,-0.2883200982630253,0.012794307382404804,1.71101247549057,-2.939930001068115,-1.4534294607967138,-7.615805843353271,0.22810942853650257,-16.613253533329605,-29.980606512677806
6203,0.01666666753590107,-0.1549637672185898,0.013477321210503577,1.537602366477251,-2.827552452905476,-1.4658493819087743,-7.781155395507812,-7.272761522567482,-10.50764412764401,-31.15694267267242
6220,0.01666666753590107,0.07987170135527849,-0.11063099675625562,1.2944272318422794,-2.601000828552246,-1.5882529417842626,-8.022221575164794,-11.460963512180308,-7.027877042707723,-29.487630779142965
6237,0.01666666753590107,0.3993719507798552,-0.22962241010069845,1.3289385732531547,-2.293345915222168,-1.6973387549251318,-7.9858596374511714,-9.648049452672273,-10.369714433771126,-25.44423733767087
6254,0.01666666753590107,0.6290788242936134,-0.3246044406957924,1.3133119650542735,-2.0834040648862717,-1.7914608076900242,-7.9958853569030754,-5.005584814853416,-13.12049372104466,-22.168022696605657
6271,0.01666666753590107,0.9761968562230467,-0.41221565026193857,1.2575409779936075,-1.7661726371765136,-1.8896230757564305,-8.041225550842285,-0.9621582896525297,-11.020412041846255,-15.565591307108859
6287,0.01666666753590107,1.1237971089363097,-0.4672920791871845,1.1830185287117958,-1.6368854552671313,-1.9520218103937803,-8.10916043842733,-1.407822156580338,-8.574885007637992,-9.992916802923618
6304,0.01666666753590107,1.2120038001775741,-0.5540922646313905,1.1934481527894734,-1.5625161507204175,-2.0404577803462742,-8.094346900177001,-1.866969457259986,-5.378203650589345,-5.20423190223995
6321,0.01666666753590107,1.2359221436426042,-0.7592188236400484,1.3669780887901781,-1.5496470245361327,-2.2448627470821143,-7.917624890136718,-0.41365562612557155,-2.9885326227529774,-1.01626352644108
6337,0.01666666753590107,1.170604745079577,-0.9597641923382878,1.4390063831686972,-1.6198270606994627,-2.4471729334957897,-7.8438535514831536,1.4247079850341962,-1.320838523561462,1.4400200952146012
6354,0.01666666753590107,1.1116337929338216,-1.0841679861202835,1.475661750870943,-1.6822262337282299,-2.5745143881648778,-7.805695962524414,1.6115757708668097,-1.546060703069753,1.678207681314869
6371,0.01666666753590107,0.9825009248033165,-1.3673062978312371,1.3283809393703936,-1.8139070327758788,-2.862417137798667,-7.951442988586425,2.183492162786013,1.2610746884889676,0.32592651531138567
6387,0.01666666753590107,0.901875774732232,-1.565123264478892,1.339033266288042,-1.885284169769287,-3.068019205364585,-7.942315094757079,3.54743462281725,5.687752092642555,-1.4099402622749824
6404,0.01666666753590107,0.9042205842927098,-1.638558210784942,1.3314555245101451,-1.8638859924316404,-3.152265176281333,-7.953837190246581,3.71820045112497,8.834828347070337,-2.7792910581901062
6421,0.01666666753590107,0.9035399085521697,-1.7895659338541328,1.2878063523977994,-1.8276736923217773,-3.31851240792796,-8.00591107635498,3.5960608739526863,12.94518154807065,-4.080711460662927
6437,0.01666666753590107,0.8336211536735296,-1.9489121539406478,1.200550678271055,-1.8582000557497143,-3.4922418120235204,-8.10227769317627,5.5959692912363925,17.82219701642186,-4.517966937835627
6454,0.01666666753590107,0.7756213846474885,-1.9790249681316314,1.238677287569642,-1.8668790367677808,-3.5417718588680027,-8.075043649291992,7.3355019327359265,20.583533214831295,-3.7339248272548087
6471,0.01666666753590107,0.7483627908438444,-2.0056388342909512,1.1845423772782087,-1.8323124580383299,-3.591900309997052,-8.142529624065757,4.4908310231499895,15.516521520564195,-0.6346697154140474
6486,0.01666666753590107,0.7313631407260894,-2.153464566323161,0.7046008060067892,-1.8160016669675707,-3.7524616049617525,-8.629450971221923,0.6454045849943388,10.464467940579421,1.881637928832823
6504,0.01666666753590107,0.7089210072934627,-2.1498926991857585,0.361259077745676,-1.8171990600585937,-3.7515639254696667,-8.978106587982177,-0.36576764907030473,7.819610373180798,3.8082402736323093
6520,0.01666666753590107,0.6105749070927501,-2.101764481963217,-0.35246845304667945,-1.8887258346557616,-3.716398942455649,-9.696815998840332,1.2024463723659882,8.095216190153629,6.5611894266277915
6537,0.01666666753590107,0.5198918888658285,-2.037981161099672,-1.3065882097572088,-1.9571102195739745,-3.667168170818686,-10.65434702529907,1.834908122409123,11.888535915544045,8.526552027750043
6553,0.01666666753590107,0.39943361783921716,-2.013085789296031,-1.6285118869364261,-2.0412065528869627,-3.642477966198325,-10.985794902148843,3.5099727427670224,21.30207594570581,12.104591874464473
6571,0.01666666753590107,0.11784443526640534,-1.620323027522862,-1.8051432960838079,-2.250848689623922,-3.2469857794612644,-11.181371250262856,-0.23407976092303417,25.393384871752833,15.753675933830792
6587,0.01666666753590107,0.32862945842817426,-1.4438026775345205,-1.834397447618842,-1.9903299137391148,-3.0500625467829403,-11.226561222076416,-9.188345278131857,19.744948201746517,14.896645994892395
6604,0.01666666753590107,0.43601387447863815,-1.537884544419497,-1.9271207395017147,-1.8486231029786169,-3.104979693493247,-11.334300296783447,-15.363176943508238,13.096642700462976,12.963177388986342
6620,0.01666666753590107,0.5584317551404238,-1.0720208906002342,-2.5522692386090755,-1.6968905727662145,-2.5776566317133605,-11.97654489212036,-15.040858609028044,11.627883943985312,13.41835741697527
6637,0.01666666753590107,0.6272456175170839,-0.5346966592878103,-3.392492567026615,-1.5930417834959922,-2.0000554812006652,-12.831423937878013,-10.396998478184388,22.42410356406236,19.653007025328975
6654,0.01666666753590107,0.5454416329249739,-0.26488077048659325,-3.5760517296105623,-1.6153380787171423,-1.6979373053401707,-13.033734562683104,-4.835765821519388,32.4641179364078,29.715653229489256
6670,0.01666666753590107,0.3845696645759046,0.06391629959344863,-3.2685394396215677,-1.6832734046936033,-1.3417998083919287,-12.751069129180907,5.4002233266998205,31.7888034727903,45.839766180502984
6687,0.01666666753590107,0.0765193221874535,0.37560090683102604,-2.33399824360609,-1.9442413856506346,-1.030553592571616,-11.826608013153075,16.145348009143294,20.176240496886972,53.16529774459798
6704,0.01666666753590107,-0.17972630642279983,0.48774128523692484,-1.9741724135339258,-2.1842601020812986,-0.9467565344661474,-11.46598197261393,29.951301586043865,10.095750423520037,55.39806950880222
6721,0.01666666753590107,-0.5304897091172636,0.546811313842982,-1.1769266415774822,-2.5378537597656248,-0.9789286192744969,-10.653898112487793,46.38548121971407,6.20828123617605,52.128970217304875
6737,0.01666666753590107,-0.5967552021853625,0.6308173385240137,-0.28306524647474285,-2.6096798095703124,-0.9908996275752783,-9.74290438079834,50.415432848899584,5.631727892862348,47.419100577001274
6754,0.01666666753590107,-0.6362091145649552,0.764695209224522,0.11092530352771282,-2.6545712368287147,-0.9554356616146862,-9.330353507232665,47.17590827650839,5.398356977509114,42.717679880700985
6770,0.01666666753590107,-0.5987092588625847,0.8822343779340386,0.833409556749463,-2.6301803074158725,-0.9506471121639013,-8.583811502075195,37.33043305965054,0.12668944365486418,34.508178404033764
6787,0.01666666753590107,-0.4443542711921036,0.8477668756648897,1.1318728633642197,-2.4946084922790526,-1.0516524947017432,-8.268076742663979,29.63023829882366,-3.1734367291992123,26.25409628265387
6804,0.01666666753590107,-0.4010067123748362,0.8414407413832843,1.1259820517599581,-2.4688706783019003,-1.111657173809409,-8.259098486438393,23.576428194029795,-1.6743292010833597,17.868939416006842
6821,0.01666666753590107,-0.3086263887107372,0.8622682792261243,1.0102087236791848,-2.3814824638366696,-1.1477198363155126,-8.361749298095702,16.8363326342641,4.6977473351872945,9.152676322738758
6837,0.01666666753590107,-0.17091858445852995,0.9711658763185143,1.0406430249094962,-2.2306476131163535,-1.072003208813071,-8.327033374023436,13.236753786002032,8.273446561450527,5.6626097394209145
6854,0.01666666753590107,-0.07048617950305343,1.0574760862886905,1.1638099703729152,-2.1121347770690915,-1.0145422228388488,-8.201487424468993,12.426313421165938,7.831292557982459,3.6923644068157504
6870,0.01666666753590107,0.22145985417217015,1.1785109881594777,1.4204998356193304,-1.797147621154785,-0.9343366133540868,-7.940669081115722,13.1636468562208,7.746675905676109,1.6693228858651519
6887,0.01666666753590107,0.3565981001973152,1.1976954349704085,1.6806395490586756,-1.6439187149047851,-0.9470558096736669,-7.677157260894775,12.99554394791574,7.781911144056913,2.975162527452677
6904,0.01666666753590107,0.4253614014305174,1.2739330176070331,1.8203946412295102,-1.5611691200256346,-0.8993214140743017,-7.533804436492919,11.623557019146109,5.224554276341677,5.205787904710244
6920,0.01666666753590107,0.5949193650603294,1.2731969584174454,2.0507477036923167,-1.3848960227966307,-0.9295480639033019,-7.297975572967529,8.397947249641518,1.7397550495343828,7.171261496406507
6937,0.01666666753590107,0.7141461945958435,1.1527218823865055,1.9971651665866375,-1.2671312286376952,-1.0633242277950048,-7.34810417022705,4.943418994348898,0.8360226782898184,6.875958267641006
6954,0.01666666753590107,0.6986959658771753,1.1135972019612788,1.9485621714591979,-1.2831424522399901,-1.1068687704890965,-7.395539290618896,0.9257703501275809,1.609970569690151,6.3562385015241585
6970,0.01666666753590107,0.7959944567210971,0.9660425419554114,1.7040046425551174,-1.186177285003662,-1.244235944610089,-7.642441336822509,-4.543506722689597,1.0368524913638486,6.046825382593879
6987,0.01666666753590107,0.7379016025841235,0.8655665901191532,1.438714122223854,-1.2452841384887694,-1.328481915526837,-7.911340110778808,-5.977504938933774,0.533513866754218,6.778397126197014
7004,0.01666666753590107,0.7133066750317811,0.8482102355182171,1.2516045736819505,-1.276259122467041,-1.328781336864829,-8.101080592346191,-4.834428385102536,-2.7953402951923434,7.79504047518897
7020,0.01666666753590107,0.5860132972881198,0.685057608886063,0.8238894487321377,-1.4299370876587927,-1.4781196654170752,-8.526350662231446,0.557971173346447,-9.30866418300351,9.76983428689454
7037,0.01666666753590107,0.3994701504573226,0.5405773878894746,0.48295361256897446,-1.647809292602539,-1.6264103846125304,-8.859594190326332,6.275683677339851,-11.549356405324028,9.853071240988546
7054,0.01666666753590107,0.34105274054110046,0.4731529340445995,0.3890191913306713,-1.7405844608031211,-1.7079628786616026,-8.942642475891112,8.326290027511623,-12.682309765031663,8.140864905697763
7070,0.01666666753590107,0.17728797335997223,0.33798823840394615,0.15215923119187355,-1.950376527404785,-1.8574508448176086,-9.165752143096924,1.759921396502257,-13.333642580699602,3.899396832068946
7087,0.01666666753590107,-0.11022329273819922,0.21001900722533462,-0.0768891784131527,-2.2731448387145994,-1.980602738842368,-9.387814347076416,-5.240469470881453,-15.512817850486755,-2.24362856333339
7104,0.01666666753590107,-0.19219211250320076,0.19263547235652803,-0.26023382146358487,-2.391208761950582,-1.9831464319758116,-9.566182370758057,-8.286373548228422,-17.26278061773572,-9.347090827274
7121,0.01666666753590107,-0.39512452246844765,0.2686127966217697,-0.674820584771037,-2.6381108081541953,-1.8894732920221984,-9.974393753814697,-6.582951689983922,-17.579810678251032,-15.512037501374081
7137,0.01666666753590107,-0.6519821454972028,0.4034282404333353,-1.1315770952880382,-2.9275100799560545,-1.749861407714337,-10.424354028320312,-4.807195140221225,-18.188896212581508,-18.780286434319766
7154,0.01666666753590107,-0.7567658775299787,0.3961250778131187,-1.2594132016062736,-3.0632312404356896,-1.7612338656000792,-10.543615198516845,-1.7631065058113045,-16.419021736354658,-21.495394204879265
7170,0.01666666753590107,-1.12532563367784,0.406307449131459,-1.1728075158208608,-3.464260164642334,-1.7702121218256652,-10.44440546722412,0.12460542220500369,-15.609073998912452,-26.837350041543353
7187,0.01666666753590107,-1.4445232468940317,0.7586015685245394,-0.8134586556106805,-3.8064813644409177,-1.431582370647788,-10.075997686767577,-5.207370801050395,-17.65853373107731,-32.526569771083814
7204,0.01666666753590107,-1.5332843571476638,0.8842745054595171,-0.6500789422243833,-3.921103768920898,-1.304540045055747,-9.906308644104003,-15.176793033889638,-20.98738864007581,-39.854184542875664
7220,0.01666666753590107,-1.6044200866006313,0.9357233915373683,-0.5516466250449419,-4.0282444393433625,-1.2216408125728369,-9.805901811981201,-28.568389769696797,-22.14032969461584,-54.794519842794045
7237,0.01666666753590107,-1.4218025887809693,0.9679171036556362,-0.735918319812417,-3.861548148754984,-1.1522089644283056,-9.994594830322265,-33.21902459442346,-18.46505271355617,-64.21840846332202
7254,0.01666666753590107,-1.3693623535782098,1.0284778092108666,-0.8516583301454782,-3.810372088269144,-1.055543072399497,-10.118195491027832,-30.392893806452697,-12.424066288929003,-66.4805329654844
7271,0.01666666753590107,-1.2188747088603675,1.2117074475795029,-0.5915595332384109,-3.642328913116455,-0.8432071665339171,-9.869197933849692,-22.34410668095588,-7.116640046727093,-62.39908512505158
7287,0.01666666753590107,-1.200133037380874,1.3117197274267673,-0.03473521329462528,-3.611054800061136,-0.7300812842220068,-9.318532136535644,-21.87988604382679,-10.410462488585775,-62.14095861593846
7304,0.01666666753590107,-1.109988363814354,1.19840635971874,0.28257424808740617,-3.5161844131469726,-0.8185169619135558,-9.007884471130371,-28.438983298134445,-15.165145853807473,-67.04559451551955
7320,0.01666666753590107,-1.0526926514044403,1.226193069049716,0.12858254077136516,-3.4630629176817833,-0.7565669939570129,-9.16814576023519,-34.81271604855712,-17.001568570665047,-69.7302618404956
7337,0.01666666753590107,-1.0499399916954337,1.30339672023952,-0.4684253210008144,-3.457376980999857,-0.6380543040402233,-9.77462755279541,-34.54136629321086,-9.22758215359264,-69.14473704370708
7354,0.01666666753590107,-0.7986625068865716,1.3535213719762862,-0.6278858151167631,-3.1729156039915978,-0.5418370325617492,-9.952097166332601,-28.345315791404182,0.6572375142054158,-63.200942503421906
7371,0.01666666753590107,-0.6987513493262231,1.301682609798014,-0.5347434210389852,-3.0400377041138706,-0.5648812235407531,-9.873089096069336,-26.169779304897354,1.4269413501710846,-56.65352316504769
7387,0.01666666753590107,-0.6246840964660048,1.115052807597071,-0.07249123571515083,-2.940229422406107,-0.7218510698847472,-9.42312882156372,-25.24165904953017,-2.3432690704928287,-50.73197455088924
7404,0.01666666753590107,-0.6123965695619583,0.9874648308210074,0.20954934388697147,-2.917185231427103,-0.8194149336665868,-9.149591866412758,-23.444397222278866,-7.830943364561142,-46.91547657855038
7421,0.01666666753590107,-0.5633329711854458,0.7054661906644701,0.592909778803587,-2.872593371637165,-1.0643716910213232,-8.77220524520874,-22.734942058095054,-11.92796403630159,-44.97974632625541
7437,0.01666666753590107,-0.5998068448409438,0.42502632425725456,0.6429430989950895,-2.9191303741455075,-1.3136679388850927,-8.725518312835693,-26.041627880594987,-13.256577556294348,-46.236186944835936
7454,0.01666666753590107,-0.6499519548438489,0.16774799159839748,0.4935884038299322,-2.982277589062601,-1.5173247176021336,-8.88144069595337,-30.234781757356075,-12.009455877062658,-49.80737184294461
7470,0.01666666753590107,-0.620869798874855,0.015005699821561575,0.4137865528404712,-2.956240938269347,-1.628954370006919,-8.967781593322753,-27.99483317188144,-8.191047159303492,-52.258388641698275
7487,0.01666666753590107,-0.49661520430520173,-0.12983721700757742,0.46800037358701224,-2.8233626000002023,-1.7453724257320165,-8.920645748138428,-21.48313401531909,-3.7564892109515924,-53.2237846544608
7504,0.01666666753590107,-0.34446664063781496,-0.1595180695220828,0.8416355333030223,-2.649932471112162,-1.7594385066159068,-8.55493144454956,-15.19593634658589,-2.4248236636168965,-52.3370314398018
7520,0.01666666753590107,-0.2303026474498212,-0.19045973575264213,1.1192559583753348,-2.522889853259176,-1.7857745787471533,-8.28124368275106,-14.39237825111223,-5.137405758287369,-51.21368388738814
7537,0.01666666753590107,-0.21585326633676885,-0.22066110500991343,1.5057196200042962,-2.5044847202576697,-1.8113626089900732,-7.896525988006592,-13.933058274712629,-8.813415704022347,-49.89453188694315
7554,0.01666666753590107,-0.24549714784175156,-0.33969767267033457,1.750434969818592,-2.5378539058960974,-1.92822957752645,-7.651269955444335,-12.215167514485103,-9.818891266834509,-51.837252837853626
7570,0.01666666753590107,-0.23574966080933807,-0.4134278025306761,1.8260685952126978,-2.529324708612263,-2.0033476546138522,-7.575104415130615,-13.530867708078306,-9.388153070790471,-55.96670666286788
7587,0.01666666753590107,-0.2750361076675355,-0.5342547607392072,1.7776275126487016,-2.560748313140869,-2.1193167975276705,-7.626280475616455,-19.133487469132174,-5.091794181896847,-62.487201395533916
7604,0.01666666753590107,-0.18205957167595624,-0.5845210129037499,1.6264479401439427,-2.4482209812439977,-2.156127648052573,-7.784447422790527,-23.328261808273844,-1.0429331739941583,-66.83132465106708
7621,0.01666666753590107,-0.11782967608869076,-0.6174696350425481,1.5026123016387223,-2.353949290875345,-2.169744669994712,-7.918671768841147,-24.664740291095875,2.551832311893753,-68.79259298066873
7637,0.01666666753590107,0.06369432740584015,-0.6148370945818722,1.2836772897690534,-2.1230586144044996,-2.1428100474484264,-8.153154478454589,-21.241656092307874,4.92180998336227,-66.24667411849234
7654,0.01666666753590107,0.2581492702744901,-0.620297259683907,1.115051492422819,-1.8890254021242259,-2.1386200484126805,-8.332420327758788,-16.09506415647366,6.658031263774817,-61.464879171133916
7670,0.01666666753590107,0.2766150474220514,-0.6551099221289157,1.0778653788447379,-1.8284221726015208,-2.1704928580135108,-8.379555588421224,-13.662746708120205,8.04312745999582,-57.35766785715181
7687,0.01666666753590107,0.23314649257361889,-0.8531656659685075,0.8134510568261146,-1.8300680401124059,-2.364423192486167,-8.653841316112876,-14.7687524102312,7.881748872928635,-54.00498412568643
7704,0.01666666753590107,0.06635258682966232,-1.0376588945321739,0.43055239420235153,-1.9428949394777415,-2.5332145556576546,-9.050830463409424,-16.5970147585779,7.961745756035117,-50.754486854393605
7721,0.01666666753590107,-0.014181816218048333,-1.1134320745274424,0.18338380601704118,-1.9826985420778394,-2.597408941540122,-9.308356779479979,-13.266245689064501,9.898544079161551,-49.923850473955426
7738,0.01666666753590107,-0.1530076647147536,-1.2202027425937354,-0.21659107909202574,-2.070236540277302,-2.704250336755067,-9.718812726593017,-7.23267684987597,16.03530853897251,-50.20418534315484
7754,0.01666666753590107,-0.3172599231518805,-1.0115765049010514,-0.3778209209680557,-2.138620925195515,-2.5160060850948094,-9.89568437423706,-1.3438676802869234,26.2274619599854,-49.88335428236642
7770,0.01666666753590107,-0.4977262342870235,-0.7650923918485641,-0.24520517915785311,-2.2279547207705677,-2.290502362359315,-9.776722479248047,-0.9078898753758395,29.765230157579794,-48.4855799743854
7787,0.01666666753590107,-0.5516409259565175,-0.25771219403147694,-0.00041793315112590785,-2.166304028021544,-1.8031326869137585,-9.548974046325682,-3.9410259812865274,22.860451906735918,-49.131900284976204
7804,0.01666666753590107,-0.38282954291030763,-0.1125352229423821,-0.10799626433849334,-1.9291281338013708,-1.6704041323788463,-9.66584043034017,-2.140838058306106,15.66691887099329,-50.661565545830165
7820,0.01666666753590107,-0.39312662664949893,0.12120996617674827,-0.3525374266296625,-1.8867809841983019,-1.4568712718136607,-9.91543653793335,1.9087896383309162,9.74619158708254,-51.58963457477857
7837,0.01666666753590107,-0.43183717331588267,0.6525479626864195,-1.134007537305355,-1.8781018570497632,-0.9659102938778698,-10.697442655181884,6.5490321167919925,1.503903067965142,-47.02569534118688
7854,0.01666666753590107,-0.7696177603185176,1.2631900897964834,-1.9552900184094906,-2.204012704169005,-0.3923495047971606,-11.514164696502684,9.64658096200072,-7.64717456362101,-40.26344264775366
7871,0.01666666753590107,-1.0824614744633436,1.547113706666231,-2.336476031896472,-2.534412387140095,-0.1499365867063403,-11.885415591430663,11.730303484363299,-20.100106085756135,-37.54683052802947
7887,0.01666666753590107,-1.661115933421254,1.6247142482191324,-3.399322120785713,-3.1687261894777414,-0.14245441425740718,-12.926893313598631,18.616071611199736,-24.746352513941062,-44.58077448626746
7904,0.01666666753590107,-1.9371129950754344,1.5157627289824187,-3.7494162459164855,-3.4771292908266185,-0.32710736342743035,-13.257442780303954,26.476678487326243,-19.608035352286322,-53.45123678401139
7920,0.01666666753590107,-1.8881990343026815,1.6913238785497844,-3.6497926731258628,-3.438522789056599,-0.24630291126668452,-13.137283784484863,30.032956497571366,-11.122651435984883,-59.75804904849358
7937,0.01666666753590107,-1.4968540303729474,2.037225082035363,-2.8573265366613865,-3.0220813377931712,-0.01990121677815914,-12.323703548321127,19.344564220147664,-0.47738598683684486,-66.70421483061315
7954,0.01666666753590107,-1.1530953918740152,2.0489843472816047,-1.9805080462962388,-2.630779003961384,-0.06838394652679562,-11.44114154586792,7.620121891865882,7.857971276880528,-71.93766286702783
7970,0.01666666753590107,-1.1011264274448156,2.093090761642158,-1.498537599545717,-2.512266167914122,-0.059405690301209686,-10.96140338821411,-1.1704587822138202,11.08492915497255,-75.48809765043801
7987,0.01666666753590107,-1.288965459305048,2.26505037958622,-0.6976432419538497,-2.6167132153384385,0.08873553742095827,-10.167126987457275,-5.126214920219126,3.091992059432099,-76.35876918469621
8004,0.01666666753590107,-1.479447406889498,2.22554897480309,-0.21046587421000001,-2.7615624157778917,0.03217252319976687,-9.682301151275635,-1.8374472452330752,-1.3889620832912286,-79.08173338034851
8020,0.01666666753590107,-1.4837810521796344,2.1161128869198262,0.0983557448118925,-2.723105551611632,-0.10504530557841062,-9.372700949096679,2.088322227881759,-2.2555231243295557,-85.1787222335279
8037,0.01666666753590107,-1.3895985013991594,2.108562909931689,0.5930144082218408,-2.566135778332874,-0.15607158233001828,-8.875753882488608,-0.21846784279066264,-1.2861591985460743,-91.55678020124249
8054,0.01666666753590107,-1.1567878897164017,2.11951348914355,1.1922416996091603,-2.282123533331603,-0.1638528838559985,-8.278251515197754,-7.663338206291845,-2.664561809380463,-93.87120346187966
8070,0.01666666753590107,-0.9662838033653796,2.099270473190397,1.4565753576070068,-2.0473421330325303,-0.18345511768758296,-8.019228823089598,-14.689356583771678,-7.60629673521213,-95.91707734473026
8088,0.01666666753590107,-0.5955291675217449,2.07577473905161,1.8056003922015427,-1.6376344470035284,-0.18614874068573117,-7.679551462554931,-18.710024278327847,-16.143613141094114,-96.98527794978523
8103,0.01666666753590107,-0.3991065047767013,2.0962410423666236,1.7416045976310968,-1.4350252045780418,-0.14499869191274045,-7.749132948303222,-19.01265459252548,-24.789268300043545,-95.30720292355065
8121,0.01666666753590107,-0.4012031847950071,2.1343422249630093,1.516113588246703,-1.4513354841921478,-0.08619096750468015,-7.977928844451903,-18.133409463311615,-30.698367186892348,-93.8158447786567
8137,0.01666666753590107,-0.43361587342619895,2.124046894789487,1.0088801054239271,-1.5147818281862884,-0.07751184035614132,-8.486097562298179,-14.511858750263263,-30.91850418384186,-93.83924500675316
8154,0.01666666753590107,-0.41337431877776976,2.0664967692270872,0.7350204941898584,-1.516577625561878,-0.12614420770853757,-8.75948604888916,-15.129427379542891,-31.480973677086997,-95.70504778232555
8170,0.01666666753590107,-0.4178776946116239,2.0792714951261875,0.5961392622441053,-1.5487496373049914,-0.09995762705057859,-8.898199523052572,-18.747171969676252,-35.642047862863826,-97.35692220290396
8187,0.01666666753590107,-0.5223526529561728,2.2067754468806084,0.3251011381715536,-1.7061683964602647,0.058957508142292496,-9.169941996002196,-23.77405459502224,-41.05387653473714,-99.98693435414157
8204,0.01666666753590107,-0.6343729851789772,2.266833171349764,0.03813362356126308,-1.8665799076907335,0.1472436943605542,-9.457096557617186,-24.39257432814379,-43.86400760457715,-103.52072396654442
8221,0.01666666753590107,-0.5704321356661617,2.2681496607758103,-0.06814706903100014,-1.856703825842589,0.173280491284281,-9.561692658123373,-23.59200444043201,-46.55934368503675,-107.66895056649246
8237,0.01666666753590107,-0.4510559607878327,2.3187372538492084,-0.23737375487983225,-1.8137579796940086,0.25004458201304075,-9.725995331573486,-23.64057391561997,-47.694142049593935,-112.40470320865582
8254,0.01666666753590107,-0.34764936232715843,2.4195778012141584,-0.2535761171400547,-1.7672206849247216,0.3705029991701245,-9.738115977478026,-25.779626946675176,-47.96461754072644,-114.7749905865145
8271,0.01666666753590107,-0.1951771196633577,2.4435307776011523,-0.17864450253546238,-1.675043921008706,0.4183868862427771,-9.65910732269287,-29.024697632672424,-50.947340660703496,-118.03438417920127
8287,0.01666666753590107,0.033128216489404436,2.3988563540942964,-0.11530220343768596,-1.5373771794192492,0.41030645563974977,-9.588926702007651,-31.57388474036668,-55.15120939672504,-123.99637434343536
8304,0.01666666753590107,0.14238193354308604,2.452747957149148,-0.16207213791906833,-1.5037088647037744,0.4894648941591382,-9.62813175419271,-31.695820692524332,-59.05190311096264,-129.48441768116226
8321,0.01666666753590107,0.22072657146155833,2.5276842479288577,-0.27934301108121873,-1.5059532826296984,0.5841853512085974,-9.735122640880942,-31.316888627561195,-60.55491355858063,-134.2601679111052
8337,0.01666666753590107,0.3490620056040585,2.592595696039498,-0.5313198763310909,-1.4881465539127587,0.6669349460877477,-9.969904625701904,-30.985515169788854,-62.38859395448644,-139.3620596739163
8354,0.01666666753590107,0.5244837467007338,2.7226298969238996,-0.5749678793996572,-1.3968674694888292,0.8031048732481897,-9.99803591068685,-30.329386707549922,-63.95254334987928,-143.30318810804036
8370,0.01666666753590107,0.7247444532386959,2.7741034790515897,-0.5544780490785837,-1.283142744500935,0.8550295601442456,-9.95957904652059,-30.45778743375699,-65.07825414774577,-145.0577544227899
8387,0.01666666753590107,0.8690333894468844,2.831924092118442,-0.55340311332345,-1.2602483372561633,0.9112930068969726,-9.931447761535644,-33.185092214626835,-69.13077613704358,-147.8062088844247
8404,0.01666666753590107,0.9328329307928681,2.755753875629604,-0.6177332544147968,-1.2931684639528394,0.8339305118836462,-9.973047015380859,-35.23602726765242,-71.63816590211194,-151.64309497143606
8421,0.01666666753590107,0.9903351255603134,2.7490730826914307,-0.6480003823846578,-1.335815327154845,0.8234558796204626,-9.978134693908691,-36.171435334864,-73.43430074815019,-155.41468444998208
8437,0.01666666753590107,0.9643655486539006,2.7845722660958767,-0.8127157282888889,-1.4903908257082104,0.8451533321656286,-10.106972670745849,-36.26093471865327,-70.65199586898882,-160.29814676313615
8454,0.01666666753590107,1.1090513752251863,2.592727797986567,-0.8207394602686167,-1.428590787616372,0.6371567706786095,-10.089315433502197,-37.14913251832172,-65.70834592886861,-161.73349735683598
8471,0.01666666753590107,1.2481158547833562,2.470788933013379,-0.7310884154379368,-1.3624509667545557,0.49874198720082635,-9.975890129852294,-39.44119373961626,-63.97384670990055,-162.34037332496996
8487,0.01666666753590107,1.5993278780281543,2.1493182602986693,-0.2845680522531271,-1.1047744285583496,0.16190774113759399,-9.499144139751792,-45.25206938355841,-63.4727635418209,-162.1391969331564
8504,0.01666666753590107,1.9286445880681276,1.7983228024139999,-0.050748190462589264,-0.8417118134096264,-0.18614932520762084,-9.246256589397788,-54.19273578068632,-61.016135742664076,-162.67540776413742
8520,0.01666666753590107,2.0772487571269274,1.5123586196273564,-0.07386193954646587,-0.7459437470033764,-0.44771600271016354,-9.258527457427977,-65.43430507898935,-52.5018917157984,-163.1226348906115
8537,0.01666666753590107,2.344202242234349,0.9079945498734712,-0.10159633416831493,-0.5172974884584546,-0.9814731891907751,-9.28920316619873,-78.86188325134414,-40.004786798979865,-162.96085502993057
8553,0.01666666753590107,2.6568700152903792,0.42287469918131826,-0.13877777157127857,-0.20874474950581787,-1.390732035473734,-9.34037922668457,-84.48711093855076,-28.730036441688906,-160.0554155004122
8571,0.01666666753590107,2.8751223055928943,0.04704802077040076,-0.17149229269325733,0.03441635660380125,-1.6389809662416577,-9.405022671508789,-93.97875845073985,-15.212376611918112,-154.5395459720067
8586,0.01666666753590107,2.8342154179260133,-0.2940640487425029,-0.34349896464943885,0.032172084808349606,-1.8496705662049353,-9.611671617779136,-107.13817656609076,-6.326501138538392,-150.75082637902227
8605,0.01666666753590107,2.898388614889979,-0.7755956656843424,-0.9674147070914506,0.14903846882283686,-2.167800404059142,-10.277260263824463,-114.97749203502704,3.016054229683309,-147.8729944741291
8621,0.01666666753590107,2.879142062628269,-1.0956980457205325,-1.2161918995171785,0.2012622847959399,-2.3127992421023547,-10.571297570690511,-110.67536078251112,15.598599903820238,-139.92452575206684
8638,0.01666666753590107,2.919125990231335,-1.1305275862351059,-1.6420488293796778,0.3648167702272534,-2.1410151999209073,-11.056123406872153,-87.05300810404944,27.831538716752068,-121.25343867464994
8654,0.01666666753590107,2.4268112595990297,-1.0976560479205102,-1.8247212722569703,-0.027383681488037107,-1.9931732474062591,-11.276988510021567,-65.14734834138962,30.349607482587743,-99.98409982563601
8670,0.01666666753590107,2.081778363380581,-1.2167314132213591,-1.4529355397999286,-0.24794965556040405,-2.0088851227357982,-10.945840492901205,-42.646089252915495,28.250980633682552,-73.52395381119578
8687,0.01666666753590107,1.796588233706355,-1.3254388945691287,-1.110411557662487,-0.45863954778462646,-2.065747704425454,-10.625466967773438,-30.972787112270538,20.44196900654632,-57.97580680722713
8704,0.01666666753590107,1.2880457141116262,-1.4982256109870968,-0.5064525615781545,-0.920271409253031,-2.2037134289614855,-10.03514662094116,-21.65584047112474,8.968584795360343,-48.121862155798475
8720,0.01666666753590107,0.5920531619742513,-1.8931980116337537,-0.0875894361257553,-1.6011225063599646,-2.5764606268618255,-9.62139864654541,-11.959855897083672,-6.315787133051581,-38.93966660924057
8737,0.01666666753590107,0.22363164525330065,-1.8656750678054987,-0.0059784898877143855,-1.9867386112488805,-2.5490770915042607,-9.535805937194823,-6.0810399345805894,-12.091105665948284,-40.20937828537843
8753,0.01666666753590107,-0.48556554863303897,-1.6702391510754824,0.07007365317940711,-2.7154738876894116,-2.3687637789737432,-9.454103805541992,-1.4776464334134378,-8.166071718829695,-45.481225645306914
8771,0.01666666753590107,-0.8524326755188405,-1.3434288708984852,0.3342483212232589,-3.077297613580525,-2.0825070429813115,-9.188048146057127,1.4439035913662823,3.7734763183042372,-54.52396580448609
8787,0.01666666753590107,-0.8908134057089686,-1.0657880606252699,0.4321937316685915,-3.0838816681459544,-1.838298473645374,-9.094823918914795,-1.4376598379695387,11.934480036769783,-60.33732422219153
8804,0.01666666753590107,-0.8173778748810291,-0.8625206465519965,0.7201958500236273,-2.962974484308064,-1.6614267529360949,-8.815450512695312,-5.947694151414431,15.407692701423796,-65.02844157812886
8820,0.01666666753590107,-0.678825874889642,-0.7040344773609191,0.9168103090137243,-2.7670985687255856,-1.5189716810915619,-8.630198574718833,-10.795256563404077,19.798797413162898,-68.65054553649998
8836,0.01666666753590107,-0.4129970098979771,-0.13104695812352002,1.4927145924806593,-2.4057240479066966,-0.9506482081424444,-8.074295461273193,-15.033733014176429,25.18283063020885,-68.27179788664444
8854,0.01666666753590107,-0.21334113738536833,0.2468427172318101,1.8206401404231785,-2.0926820347107946,-0.565181667792052,-7.76993199070394,-16.050039549464937,31.386618028797855,-64.7306453303163
8870,0.01666666753590107,-0.010699527060240506,0.3536801669239998,2.1444611756563186,-1.799392331341654,-0.4489133227359503,-7.464222950744628,-15.04512576971201,29.77655802631826,-60.84014225832036
8887,0.01666666753590107,-0.029565263310819864,0.3219114752847701,2.365598081484437,-1.7345992489136755,-0.4730049769412726,-7.25892015838623,-11.969078360010482,26.962009531632546,-56.71093773521081
8904,0.01666666753590107,-0.10833251055553555,0.23796485264077782,2.90968917658329,-1.7386394642151892,-0.5576997876040637,-6.7277066650390625,-6.117286040958555,22.97403112244406,-53.261596581705994
8920,0.01666666753590107,-0.21228899798393247,0.44281091420762236,3.3738352128297087,-1.7571945270814,-0.36751039322540163,-6.276399652099609,-3.0004054125211637,19.782599619546215,-46.604071178816575
8937,0.01666666753590107,-0.16625965273678303,0.3905504194859415,3.5044010363727804,-1.659181750488281,-0.42706623258702453,-6.153397541809082,-5.430911366640688,13.520632669607041,-43.11592430554233
8954,0.01666666753590107,0.01408916949853301,0.27028131435588,3.536355094516277,-1.4269443355835973,-0.5475245036136359,-6.12930588760376,-5.8543502248960975,12.436843865318805,-41.13095863461532
8970,0.01666666753590107,0.03457943821102381,0.4631636010803282,3.5951550740092992,-1.357512487439066,-0.3598789484988898,-6.077231416973471,-1.6883653465494417,20.574554931167313,-40.69690694305018
8987,0.01666666753590107,-0.05741743909344077,0.6560994446229189,3.611511165526509,-1.373523711041361,-0.1804634615909308,-6.070348671722412,0.4960617517400696,32.2289681836626,-41.189927072814626
9004,0.01666666753590107,-0.33864867507405577,0.7254439067449421,3.5415719523817297,-1.5203182003296911,-0.1268931994449347,-6.156240071758628,-2.687217119970572,38.06453154635975,-41.731431300402406
9020,0.01666666753590107,-0.2877444172669202,0.7383062378622591,3.4213749626398084,-1.366939510345459,-0.11237820574976504,-6.28851971348226,-8.761182686118321,34.250878347810215,-47.49590605421807
9037,0.01666666753590107,-0.25922471748627723,0.8219184409201145,3.3680899471759793,-1.2452842115540057,-0.015413184643909334,-6.352863883098959,-11.413155603084805,31.430823013106178,-48.98442625551187
9054,0.01666666753590107,-0.36332770071327686,1.0812045332048088,3.5402912649214264,-1.2366053036011755,0.2663544963009655,-6.193350782012939,-10.171529664814036,25.771222398901475,-44.93430166261273
9071,0.01666666753590107,-0.25814569007791577,1.5433599070906638,3.5607413477540013,-1.063175247778371,0.7399575122006237,-6.179733760070801,-5.570699725741461,21.09267942122614,-40.24918121276667
9087,0.01666666753590107,-0.22020276678316295,1.594338837569207,3.5957097852826116,-0.9701005851745604,0.7896371966488659,-6.149057466778158,-0.021251079725650084,15.656692370258488,-36.48637877258788
9104,0.01666666753590107,-0.10437661253660917,1.5267529095523058,3.242739227932691,-0.8111855961121618,0.7088328175533563,-6.504148085021972,1.018221122690229,2.2061408566303635,-37.189922408045035
9120,0.01666666753590107,0.027386969423666595,1.5797786895580588,2.626482475811243,-0.6796540693420916,0.7579140246517956,-7.120056462097168,-4.160097895612339,-7.269532550637359,-39.40714524660375
9137,0.01666666753590107,-0.016504267816245553,1.5618220309764146,2.2751889117628337,-0.7357681707520037,0.7567169238217174,-7.471854468536376,-15.933306493907542,-8.954081742431468,-41.42378933490128
9154,0.01666666753590107,-0.058030675620958205,1.4358955576717853,1.3747773643642662,-0.8014590788025409,0.7085333962153643,-8.37656342086792,-36.295922362676656,-10.766414382086406,-48.58074841518578
9170,0.01666666753590107,0.16754129004515705,1.2113464322473853,0.1719505578547716,-0.5930138967651873,0.5796955655086785,-9.584737433624268,-45.05475887881508,-10.140453157864124,-52.89335717788851
9187,0.01666666753590107,0.27979828056804834,1.131299739651382,-0.39671909818351264,-0.5015851747374981,0.6019915319362655,-10.15784887150228,-41.73645831963154,-12.148484377618269,-51.157765128653246
9203,0.01666666753590107,0.5325186576616019,1.0889008598610759,-1.185196457272768,-0.2750339887756854,0.6602005963314325,-10.94913310470581,-23.020343220111332,-7.423859821160151,-44.379253169900814
9220,0.01666666753590107,0.7182122749909758,1.1251005927503108,-1.5763058988809584,-0.10369878634028136,0.729333132735826,-11.340434854015708,-11.552809919723115,-8.061645810383016,-38.64782970147885
9236,0.01666666753590107,0.6951021791689097,1.1765730058342219,-1.9571984823793172,-0.1479916631836444,0.7983161411343142,-11.720215092357993,-8.632253474024221,-11.779316068073664,-31.045258834458956
9253,0.01666666753590107,0.5815889780398458,1.0080497190143913,-2.345720245581865,-0.30406368390507993,0.6486784277766943,-12.105682144165039,-7.235314156669241,-14.481209983910125,-24.134270234112247
9270,0.01666666753590107,0.6670287618510424,0.7972448951736092,-2.3724492625534532,-0.2510918260436505,0.44786487312894313,-12.129773213848472,-4.59415513670618,-11.795556550372662,-24.455651125128856
9287,0.01666666753590107,0.9335421750407665,0.6462934323363005,-2.4095681561142204,-0.004489055047556758,0.2994243336666375,-12.165087688335776,-2.4601622086088963,-5.376603251889446,-27.482693635082835
9303,0.01666666753590107,1.5019640668630598,0.5401551438894122,-2.7963971439242363,0.5635351426940411,0.19392978648338466,-12.55190147857666,-3.9467616326420454,4.091677756262206,-27.271534921797308
9320,0.01666666753590107,1.514266352944821,0.4971936252476647,-3.0662013422876595,0.5984007043700665,0.15786712397728114,-12.824092279815673,-6.0106334908424515,11.278316569811352,-23.280832974677278
9336,0.01666666753590107,1.4021230519294738,0.40583522850982845,-3.0569600512117145,0.5208884986877441,0.07721249208338558,-12.818405466350912,-5.585651009834619,12.713930979567882,-16.578463964792146
9353,0.01666666753590107,1.3058692478328942,0.23680790115799755,-2.9579303526610135,0.44846389846801754,-0.08454579411353916,-12.721739574322104,1.199107797244027,-0.7489273076449892,-2.95299365439752
9370,0.01666666753590107,1.4295039569385348,0.15487718491367994,-2.668666836068034,0.5562029731750487,-0.18195987416114656,-12.43054538192749,10.96540425959191,-10.55675831041828,4.100259035180681
9386,0.01666666753590107,1.4192944053523242,0.1217515987727791,-2.5606279016315936,0.5141548065185546,-0.2466032824527472,-12.318466816711425,13.375531277105644,-13.418183247151434,3.3483457075687797
9404,0.01666666753590107,1.0852611151192337,-0.15327274539172647,-2.8034552457422017,0.14320318679809568,-0.5499187052737922,-12.556689881896972,2.109771156309715,-6.072870601446431,-5.391094351987275
9421,0.01666666753590107,0.9064340956237167,0.014041457899287343,-3.2763048129260537,-0.03486556167602539,-0.38426991444434966,-13.02954470977783,-0.603147645342498,6.308605189139312,-7.54958652830716
9437,0.01666666753590107,0.8459750238120556,0.30544684535916894,-3.1837931179672476,-0.0661398208618164,-0.09756426564063876,-12.939612509918213,4.031908051495894,14.83237732989716,-5.439156685629362
9454,0.01666666753590107,0.8577295398179441,0.6059090341735631,-2.9969068567872044,0.00014963760375976562,0.16774327889066187,-12.75615622318685,16.737699580007238,13.988042151304878,-3.519449203353592
9470,0.01666666753590107,1.2068412297826259,0.584123866812326,-2.9303707300841806,0.37289690856933594,0.08948273905906826,-12.688969523620605,27.54205139406483,4.455891190450789,3.6668148035648485
9487,0.01666666753590107,1.1738924615133552,0.7710285038992762,-2.930107110711932,0.34267011260986324,0.197670799642615,-12.68463003311157,34.95281688881242,-0.6128099084188331,14.397451374118258
9504,0.01666666753590107,1.0038732370473444,0.8142241600904613,-2.972641015058756,0.16041151123046873,0.12270232362635433,-12.718448131561278,36.83475940139355,-2.746257061712751,19.18634971821349
9520,0.01666666753590107,0.6175378779731691,0.41900041503123936,-2.7894454250901934,-0.23493111096806824,-0.3625724253665656,-12.527660186767577,37.53815960287814,-2.137619331659738,14.8739134177873
9537,0.01666666753590107,0.4172542289510369,0.4038276150144636,-2.5032301901519296,-0.4459199861388653,-0.4709100504886359,-12.23257483215332,37.804591622021995,-4.702159210504299,7.444985596263
9554,0.01666666753590107,0.08358772620372473,0.36663346426039933,-2.206740229436755,-0.8008605283875018,-0.6379056162845343,-11.921627891540526,40.42310856488646,-6.49949403540236,0.17596049399641886
9570,0.01666666753590107,-0.2529427146073431,0.4767185906369239,-2.0977058542221783,-1.1517606361389159,-0.6382048914920538,-11.79922433166504,47.52644041490261,-4.4369480876745815,-2.563694002604538
9587,0.01666666753590107,-0.355748936022073,0.6669258859984576,-1.9353566529273987,-1.2580033348083495,-0.5828389050357043,-11.620108119964598,58.76623727911603,0.7789515919367487,-3.849672201137607
9604,0.01666666753590107,-0.5703225378118455,0.9004794980682432,-1.4690209976822137,-1.456721999536082,-0.5689226078860461,-11.124358154186606,69.02238786510465,8.480157114039084,-9.12813118418267
9621,0.01666666753590107,-0.8089564488206058,0.8624540110565722,-1.0253758976727723,-1.6611271124023943,-0.7854483666568994,-10.65494557571411,70.52548710518184,14.094427470269704,-15.12143776576127
9637,0.01666666753590107,-0.8225382533188909,1.0584883320711553,-0.7857032182008028,-1.6246154640197752,-0.7683895336978137,-10.387243318066,68.1882373523385,18.953556380731943,-21.458183334281035
9654,0.01666666753590107,-0.747253295231983,1.2928550140894948,-0.10133914453685283,-1.4649520677428691,-0.7547723656252026,-9.664942604717611,58.999105748678446,21.21563477911742,-30.1180435791568
9671,0.01666666753590107,-0.33854755278714,1.3529337813466786,0.3855710967034101,-0.9813233323913066,-0.8342299332216382,-9.152433811840414,48.44359138646275,23.89913584929268,-34.594542730993986
9687,0.01666666753590107,-0.04956329152695834,1.417935391958803,0.5095429288089275,-0.615459464263916,-0.8830119381777942,-9.006537732696533,39.06939239214662,21.09652652527615,-33.65673385228914
9704,0.01666666753590107,0.5193593528917059,1.2442618097037077,0.13829320292472838,0.03456628646850586,-1.1800427277714014,-9.351602046966553,34.221542685325005,12.483722868687188,-24.149711584278354
9720,0.01666666753590107,0.5725051790805533,1.076734913510084,-0.35542028858959673,0.1240495735168457,-1.4368202713012694,-9.823857739910483,36.576550930010384,6.7864827895138395,-15.369687821334553
9737,0.01666666753590107,0.5202271121695637,1.1186506859585643,-0.44926060180366034,0.09157821350097656,-1.4884455368593335,-9.893290172576904,37.14076895168304,2.813014690330221,-8.793287990311965
9754,0.01666666753590107,0.4173549128465354,0.7995569715082645,-0.7025520567834377,0.00239420166015625,-1.9161098084047437,-10.116549477386474,27.64646620345411,2.0686175590130955,-7.774975086954765
9770,0.01666666753590107,0.4381956389645114,0.2676125335380435,-0.5567062465220689,0.033818098449707026,-2.5041855911806223,-9.954791227722167,16.981228267316748,-1.456025149430645,-15.951611400883177
9788,0.01666666753590107,0.5541998166590929,-0.033786826528608795,-0.6350730962723493,0.14903901681210846,-2.83458571254313,-10.024522351074218,5.3309511212507275,-10.922860718799194,-23.74292259278532
9804,0.01666666753590107,0.6641802405521273,-0.6985515889704227,-1.3796926089346409,0.24510650455635039,-3.5098999260500072,-10.765377542766927,3.1520473514830827,-8.742646406484553,-22.5353144116758
9820,0.01666666753590107,0.6779135823503136,-0.8658642578914761,-1.6466630451768636,0.2593219673156738,-3.7036806229189034,-11.024400819396972,19.090880749089635,-3.1897990876862123,-15.142969937119735
9837,0.01666666753590107,0.780899471180886,-0.9231301596850157,-1.2895219241440294,0.36361934060361234,-3.8397012047365306,-10.64312420501709,45.119003638148214,-1.4094538247400306,-0.5371554247988927
9854,0.01666666753590107,0.440988849879615,-1.0508926162451504,-0.024034955582022666,0.007481880187988281,-4.162769083514809,-9.313743148693442,73.98160380634332,-1.3474063586072247,15.848829006705532
9870,0.01666666753590107,-0.2300136013753712,-1.2808847364410758,1.7037287482231855,-0.6718728408813476,-4.57696597072184,-7.521833428192139,76.6722270562756,5.730886444798477,13.409788090887844
9887,0.01666666753590107,-0.6085173900410532,-1.3378425951987505,2.465722589534521,-1.0256161727020516,-4.840776773889362,-6.68446139755249,49.93007960647848,13.684471832322721,-3.1326728795721066
9904,0.01666666753590107,-0.7591713312365114,-1.2026762921229004,2.6371289575099945,-1.1318588348388672,-4.795885785022378,-6.479906208691,25.700803148558645,15.048129345399524,-13.463871236283296
9920,0.01666666753590107,-0.34882973121814426,-0.9015963732689618,2.3624054229229685,-0.680551821899414,-4.5376109886720775,-6.739228760528564,11.633190147196766,5.594887560026592,-18.580196042584245
9938,0.01666666753590107,0.1952470430944115,-0.7295458621710539,1.6649603338897228,-0.09846154327392577,-4.40488272639811,-7.4221741995662445,15.046618166045658,8.47193356627839,-12.46927701859261
9954,0.01666666753590107,0.1931131728708744,-0.5180851317048073,1.279791388246417,-0.06733692169189452,-4.2374379555299875,-7.790432926940918,21.145965142035998,12.82510853000912,-0.5342675888012995
9970,0.01666666753590107,-0.19878524542422965,-0.4578302772283554,0.49489597929716106,-0.43888709182739255,-4.230404988153278,-8.553883981323242,24.508071119461412,8.074803316045399,10.945056272280796
9987,0.01666666753590107,-0.5347315844707191,-0.8116896001115441,0.6314636736035346,-0.778863709303271,-4.668094686889648,-8.381800152477622,29.43491196403422,0.795838861133635,14.091798701212895
10006,0.01666666753590107,-0.6988111166894435,-0.9197548380330205,0.8395470365911721,-0.9629179436614737,-4.844218731036782,-8.143727309417724,28.267002549928108,-9.909819867707597,6.2230143811025895
10020,0.01666666753590107,-0.9187737911064178,-1.1807736723944544,1.034336033719778,-1.2240355987548828,-5.165490666308998,-7.9210665550231925,23.239312254712768,-23.853086713908453,-3.250837713534266
10037,0.01666666753590107,-0.41575321327093984,-1.1178823319345712,0.9704910457968712,-0.7882908600738272,-5.166088632202148,-7.953836605724692,16.555953368835073,-21.053935173159246,-12.645486507668831
10054,0.01666666753590107,-0.23322522036563603,-0.9413178505435585,0.6792950998365879,-0.6183025787353515,-5.018246971948445,-8.231414945220946,6.15149589719021,-1.512795760821087,-13.404593732024049
10071,0.01666666753590107,-0.22502810458038,-0.6724839585170149,0.07183306406736374,-0.5846341178894042,-4.751592762048542,-8.838943616485595,-4.067711476238277,11.740881739840356,-7.5776440916439265
10088,0.01666666753590107,-0.0037116409342736003,-0.8954866582170128,0.3205208246439695,-0.31229367904663086,-4.960786424365639,-8.598475402721762,-1.4461028055573206,15.567525958191265,0.10111809585640913
10104,0.01666666753590107,0.13314875270836055,-0.9127385295301675,0.6049211191147565,-0.14260463638305662,-4.98577590419352,-8.311620116314291,8.408972882509213,15.474295583567883,5.64759058032288
10120,0.01666666753590107,-0.06735657624043524,-0.7746142534315585,0.927553236824274,-0.31558572459565476,-4.885219434466958,-7.972541890716553,15.173157665703899,7.2688034279434595,8.384982696823188
10137,0.01666666753590107,-0.0380682667074725,-0.9142635471403598,1.2112398300677538,-0.2844611030136235,-5.062090789850056,-7.671620085033774,17.067242547082014,1.897475003083967,5.842807205198776
10155,0.01666666753590107,0.019155586042627692,-0.9317974502652883,1.2859955035835504,-0.22909517135620117,-5.118204891259968,-7.57869571762085,16.166145935165986,1.1305250140142826,3.0399184837565105
