ts,interval,accx,accy,accz,accGx,accGy,accGz,alpha,beta,gamma
1698415496003.0,16,0.0,0.0,0.0,-0.4,9.600000000000001,0.6000000000000001,-0.1,0.1,-0.2
1698415496019.0,16,0.0,0.0,-0.1,-0.4,9.5,0.6000000000000001,-0.1,0.2,-0.2
1698415496039.0,16,0.0,0.0,0.0,-0.4,9.5,0.7000000000000001,-0.30000000000000004,-0.1,-0.2
1698415496053.0,16,0.0,0.0,0.0,-0.4,9.5,0.7000000000000001,-0.2,-0.2,-0.1
1698415496069.0,16,0.0,0.0,0.0,-0.4,9.5,0.6000000000000001,-0.1,0.0,0.0
1698415496086.0,16,0.0,0.0,0.0,-0.4,9.5,0.7000000000000001,-0.1,-0.1,0.0
1698415496103.0,16,0.0,0.0,0.0,-0.4,9.5,0.7000000000000001,-0.1,-0.1,0.2
1698415496119.0,16,0.0,0.0,0.0,-0.4,9.5,0.7000000000000001,-0.1,-0.2,0.0
1698415496136.0,16,0.0,0.0,0.0,-0.4,9.5,0.7000000000000001,0.0,0.0,0.0
1698415496153.0,16,0.0,0.0,0.0,-0.4,9.5,0.7000000000000001,0.0,-0.1,-0.1
1698415496169.0,16,0.0,0.0,0.0,-0.4,9.5,0.7000000000000001,0.0,0.0,0.0
1698415496186.0,16,0.0,0.0,0.0,-0.4,9.5,0.7000000000000001,0.1,0.0,-0.1
1698415496202.0,16,0.0,0.0,0.0,-0.4,9.5,0.7000000000000001,0.0,0.1,0.0
1698415496220.0,16,0.0,0.0,0.0,-0.4,9.5,0.7000000000000001,0.0,0.1,-0.1
1698415496237.0,16,0.0,0.0,0.0,-0.4,9.5,0.7000000000000001,0.1,0.1,0.1
1698415496252.0,16,0.0,0.0,0.0,-0.4,9.5,0.7000000000000001,0.1,0.2,0.0
1698415496269.0,16,0.0,0.0,0.0,-0.4,9.5,0.7000000000000001,0.1,0.4,-0.1
1698415496286.0,16,0.0,0.0,0.0,-0.4,9.5,0.6000000000000001,0.2,0.2,0.0
1698415496303.0,16,0.0,0.0,0.0,-0.4,9.5,0.7000000000000001,0.1,-0.30000000000000004,0.1
1698415496320.0,16,0.0,0.0,0.0,-0.4,9.5,0.7000000000000001,0.0,-0.30000000000000004,0.2
1698415496336.0,16,0.0,0.0,0.0,-0.4,9.5,0.7000000000000001,0.0,-0.1,0.2
1698415496353.0,16,0.0,0.0,0.0,-0.4,9.5,0.7000000000000001,0.0,0.0,0.0
1698415496369.0,16,0.0,0.0,0.0,-0.4,9.5,0.7000000000000001,0.0,0.1,0.1
1698415496386.0,16,0.0,0.0,0.0,-0.4,9.5,0.7000000000000001,0.0,0.0,0.1
1698415496403.0,16,0.0,0.0,0.0,-0.4,9.5,0.7000000000000001,-0.1,0.0,0.2
1698415496419.0,16,0.0,0.0,0.0,-0.4,9.5,0.6000000000000001,0.0,0.0,0.2
1698415496436.0,16,0.0,0.0,0.0,-0.4,9.5,0.7000000000000001,0.1,0.0,0.2
1698415496452.0,16,0.0,0.0,0.0,-0.4,9.5,0.7000000000000001,0.0,0.0,0.1
1698415496469.0,16,0.0,0.0,0.0,-0.4,9.5,0.7000000000000001,-0.1,0.0,0.1
1698415496486.0,16,0.0,0.0,0.0,-0.4,9.5,0.7000000000000001,0.0,-0.1,0.0
1698415496502.0,16,0.0,0.0,0.0,-0.4,9.5,0.7000000000000001,0.0,0.0,0.1
1698415496519.0,16,0.0,0.0,0.0,-0.4,9.5,0.7000000000000001,0.1,0.0,0.1
1698415496536.0,16,0.0,0.0,0.0,-0.4,9.5,0.7000000000000001,0.1,0.0,0.2
1698415496552.0,16,0.0,0.0,0.0,-0.4,9.5,0.7000000000000001,0.1,0.30000000000000004,-0.1
1698415496569.0,16,0.0,0.0,0.0,-0.4,9.5,0.7000000000000001,0.0,0.2,0.0
1698415496586.0,16,0.0,0.0,0.0,-0.4,9.5,0.7000000000000001,0.0,0.0,-0.1
1698415496602.0,16,0.0,0.0,0.0,-0.4,9.5,0.6000000000000001,-0.1,0.0,-0.1
1698415496620.0,16,0.0,0.0,0.0,-0.4,9.5,0.7000000000000001,0.0,0.1,-0.1
1698415496636.0,16,0.0,0.0,0.0,-0.4,9.5,0.7000000000000001,0.0,0.2,0.0
1698415496652.0,16,0.0,0.0,0.0,-0.4,9.5,0.7000000000000001,-0.2,0.2,0.0
1698415496669.0,16,0.0,0.0,0.0,-0.4,9.5,0.7000000000000001,-0.1,0.1,-0.1
1698415496686.0,16,0.0,0.0,0.0,-0.4,9.5,0.7000000000000001,0.0,0.1,-0.2
1698415496703.0,16,0.0,0.0,0.0,-0.4,9.5,0.7000000000000001,-0.2,0.0,-0.1
1698415496719.0,16,0.0,0.0,0.0,-0.4,9.5,0.7000000000000001,-0.2,0.0,-0.1
1698415496736.0,16,0.0,0.0,0.0,-0.4,9.5,0.7000000000000001,-0.1,0.0,0.0
1698415496753.0,16,0.0,0.0,0.0,-0.4,9.5,0.7000000000000001,-0.2,-0.1,0.1
1698415496769.0,16,0.0,0.0,0.0,-0.4,9.5,0.7000000000000001,-0.2,0.0,-0.1
1698415496786.0,16,0.0,0.0,0.0,-0.4,9.5,0.7000000000000001,-0.2,-0.1,0.0
1698415496803.0,16,0.0,0.0,0.0,-0.4,9.5,0.7000000000000001,-0.2,-0.1,0.1
1698415496819.0,16,0.0,0.0,0.0,-0.4,9.5,0.7000000000000001,-0.2,-0.1,0.2
1698415496836.0,16,0.0,0.0,0.0,-0.4,9.5,0.7000000000000001,-0.1,0.2,0.0
1698415496852.0,16,0.0,0.0,0.0,-0.4,9.5,0.7000000000000001,-0.2,0.5,-0.1
1698415496869.0,16,0.0,0.0,0.0,-0.4,9.5,0.7000000000000001,-0.2,-0.2,0.1
1698415496886.0,16,0.0,0.0,0.0,-0.4,9.5,0.6000000000000001,-0.2,-0.1,0.1
1698415496902.0,16,0.0,0.0,0.0,-0.30000000000000004,9.5,0.7000000000000001,-0.2,0.0,-0.1
1698415496919.0,16,0.0,0.0,0.0,-0.4,9.5,0.7000000000000001,-0.2,0.0,-0.2
1698415496936.0,16,0.0,0.0,0.0,-0.4,9.5,0.7000000000000001,-0.2,-0.30000000000000004,-0.1
1698415496952.0,16,0.0,0.0,0.0,-0.4,9.5,0.7000000000000001,-0.2,-0.4,-0.1
1698415496970.0,16,0.0,0.0,0.0,-0.4,9.5,0.6000000000000001,-0.1,-0.1,-0.1
1698415496986.0,16,0.0,0.0,0.0,-0.4,9.5,0.7000000000000001,-0.1,-0.1,0.0
1698415497002.0,16,0.0,0.0,0.0,-0.4,9.5,0.7000000000000001,-0.2,-0.1,0.1
1698415497019.0,16,0.0,0.0,0.0,-0.4,9.5,0.7000000000000001,0.0,0.0,-0.1
1698415497036.0,16,0.0,0.0,0.0,-0.4,9.5,0.7000000000000001,0.1,0.1,-0.1
1698415497053.0,16,0.0,0.0,0.0,-0.4,9.5,0.7000000000000001,-0.1,0.1,-0.1
1698415497069.0,16,0.0,0.0,0.0,-0.4,9.5,0.7000000000000001,-0.2,0.1,-0.1
1698415497086.0,16,0.0,0.0,0.0,-0.4,9.5,0.7000000000000001,-0.1,0.0,-0.2
1698415497103.0,16,0.0,0.0,0.0,-0.4,9.5,0.7000000000000001,0.0,0.2,-0.1
1698415497119.0,16,0.0,0.0,0.0,-0.4,9.5,0.7000000000000001,0.0,0.1,-0.1
1698415497136.0,16,0.0,0.0,0.0,-0.4,9.5,0.7000000000000001,0.2,0.2,-0.1
1698415497152.0,16,0.0,0.0,0.0,-0.4,9.5,0.7000000000000001,0.2,0.30000000000000004,-0.1
1698415497169.0,16,0.0,0.0,0.0,-0.4,9.5,0.7000000000000001,0.30000000000000004,0.5,-0.1
1698415497186.0,16,0.0,0.0,0.0,-0.4,9.5,0.7000000000000001,0.1,0.1,-0.1
1698415497202.0,16,0.0,0.0,0.0,-0.4,9.5,0.7000000000000001,0.1,0.0,-0.1
1698415497219.0,16,0.0,0.0,0.0,-0.4,9.5,0.7000000000000001,0.2,0.0,-0.1
1698415497236.0,16,0.0,0.0,0.0,-0.4,9.5,0.7000000000000001,0.0,0.0,0.1
1698415497252.0,16,0.0,0.0,0.0,-0.4,9.5,0.7000000000000001,0.0,-0.1,0.0
1698415497269.0,16,0.0,0.0,0.0,-0.4,9.5,0.7000000000000001,0.0,0.0,0.1
1698415497286.0,16,0.0,0.0,0.0,-0.4,9.5,0.6000000000000001,0.1,0.0,0.1
1698415497303.0,16,0.0,0.0,0.0,-0.4,9.5,0.7000000000000001,0.0,-0.2,0.2
1698415497320.0,16,0.0,0.0,0.0,-0.4,9.5,0.7000000000000001,0.1,-0.1,0.2
1698415497336.0,16,0.0,0.0,0.0,-0.4,9.5,0.7000000000000001,0.0,-0.1,0.2
1698415497353.0,16,0.0,0.0,0.0,-0.4,9.5,0.7000000000000001,0.0,0.0,0.1
1698415497369.0,16,0.0,0.0,0.0,-0.4,9.5,0.7000000000000001,0.0,0.2,0.1
1698415497386.0,16,0.0,0.0,0.0,-0.4,9.5,0.7000000000000001,0.0,0.1,0.1
1698415497403.0,16,0.0,0.0,0.0,-0.4,9.5,0.7000000000000001,0.0,0.0,0.2
1698415497419.0,16,0.0,0.0,0.0,-0.4,9.5,0.7000000000000001,0.0,0.2,0.1
1698415497435.0,16,0.0,0.0,0.0,-0.4,9.5,0.7000000000000001,0.0,0.2,0.1
1698415497452.0,16,0.0,0.0,0.0,-0.4,9.5,0.7000000000000001,0.0,0.1,0.0
1698415497469.0,16,0.0,0.0,0.0,-0.4,9.5,0.7000000000000001,-0.1,0.0,0.0
1698415497486.0,16,0.0,0.0,0.0,-0.4,9.5,0.7000000000000001,0.1,0.2,-0.1
1698415497502.0,16,0.0,0.0,0.0,-0.4,9.5,0.7000000000000001,0.1,0.1,-0.1
1698415497519.0,16,0.0,0.0,0.0,-0.4,9.5,0.7000000000000001,-0.1,0.1,0.0
1698415497536.0,16,0.0,0.0,0.0,-0.4,9.5,0.7000000000000001,-0.1,0.2,0.0
1698415497553.0,16,0.0,0.0,0.0,-0.4,9.5,0.7000000000000001,0.0,0.0,0.1
1698415497569.0,16,0.0,0.0,0.0,-0.4,9.5,0.7000000000000001,-0.1,0.0,0.0
1698415497586.0,16,0.0,0.0,0.0,-0.4,9.5,0.7000000000000001,0.0,0.2,0.0
1698415497602.0,16,0.0,0.0,0.0,-0.4,9.5,0.7000000000000001,-0.1,0.2,-0.2
1698415497619.0,16,0.0,0.0,0.0,-0.4,9.5,0.7000000000000001,0.0,0.2,-0.1
1698415497635.0,16,0.0,0.0,0.0,-0.4,9.5,0.6000000000000001,-0.1,0.2,-0.1
1698415497652.0,16,0.0,0.0,0.0,-0.4,9.5,0.7000000000000001,-0.2,0.2,0.1
1698415497669.0,16,0.0,0.0,0.0,-0.4,9.5,0.7000000000000001,-0.2,0.2,0.0
1698415497686.0,16,0.0,0.0,0.0,-0.4,9.5,0.7000000000000001,-0.2,0.2,0.0
1698415497702.0,16,0.0,0.0,0.0,-0.4,9.5,0.7000000000000001,-0.30000000000000004,0.1,-0.1
1698415497719.0,16,0.0,0.0,0.0,-0.4,9.5,0.7000000000000001,-0.30000000000000004,0.2,0.0
1698415497736.0,16,0.0,0.0,0.0,-0.4,9.5,0.7000000000000001,-0.1,0.1,0.1
1698415497753.0,16,0.0,0.0,0.0,-0.4,9.5,0.7000000000000001,-0.2,0.5,-0.1
1698415497769.0,16,0.0,0.0,0.0,-0.4,9.5,0.7000000000000001,-0.2,0.4,-0.2
1698415497786.0,16,0.0,0.0,0.0,-0.4,9.5,0.7000000000000001,-0.30000000000000004,0.0,-0.1
1698415497803.0,16,0.0,0.0,0.0,-0.4,9.5,0.7000000000000001,-0.1,0.2,-0.1
1698415497820.0,16,0.0,0.0,0.0,-0.4,9.5,0.7000000000000001,-0.4,0.30000000000000004,-0.1
1698415497836.0,16,0.0,0.0,0.0,-0.4,9.5,0.7000000000000001,-0.30000000000000004,0.0,-0.1
1698415497853.0,16,0.0,0.0,0.0,-0.4,9.5,0.7000000000000001,-0.1,-0.30000000000000004,-0.1
1698415497871.0,16,0.0,0.0,0.0,-0.4,9.5,0.7000000000000001,-0.2,-0.5,0.0
1698415497886.0,16,0.0,0.0,0.0,-0.4,9.5,0.7000000000000001,-0.1,0.0,0.1
1698415497903.0,16,0.0,0.0,0.0,-0.4,9.5,0.7000000000000001,0.1,-0.1,0.1
1698415497919.0,16,0.0,0.0,0.0,-0.4,9.5,0.7000000000000001,0.0,-0.1,0.1
1698415497936.0,16,0.0,0.0,0.0,-0.4,9.5,0.7000000000000001,0.1,-0.2,0.1
1698415497952.0,16,0.0,0.0,0.0,-0.4,9.5,0.7000000000000001,0.1,0.1,-0.1
1698415497969.0,16,0.0,0.0,0.0,-0.4,9.5,0.7000000000000001,0.1,0.1,-0.1
1698415497986.0,16,0.0,0.0,0.0,-0.4,9.5,0.7000000000000001,0.2,0.2,-0.1
1698415498003.0,16,0.0,0.0,0.0,-0.4,9.5,0.7000000000000001,0.30000000000000004,0.2,-0.1
1698415498019.0,16,0.0,-0.1,0.0,-0.4,9.4,0.7000000000000001,0.5,0.0,0.1
1698415498036.0,16,0.0,-0.1,0.0,-0.4,9.4,0.7000000000000001,0.7,0.0,0.1
1698415498052.0,16,0.0,0.0,0.0,-0.4,9.5,0.7000000000000001,0.9,0.30000000000000004,0.0
1698415498069.0,16,0.0,0.0,0.0,-0.4,9.5,0.7000000000000001,0.8,0.2,0.0
1698415498086.0,16,0.0,0.0,0.0,-0.4,9.5,0.7000000000000001,0.6000000000000001,0.2,-0.1
1698415498102.0,16,0.0,0.0,0.0,-0.4,9.5,0.7000000000000001,0.30000000000000004,-0.2,0.1
1698415498120.0,16,0.0,0.0,0.0,-0.4,9.5,0.6000000000000001,0.2,-0.30000000000000004,0.2
1698415498135.0,16,0.0,0.1,-0.1,-0.4,9.600000000000001,0.6000000000000001,0.1,-0.2,0.2
1698415498152.0,16,0.0,0.0,-0.1,-0.4,9.5,0.6000000000000001,0.0,0.0,0.2
1698415498169.0,16,0.0,0.0,-0.1,-0.4,9.5,0.6000000000000001,-0.2,0.0,0.1
1698415498185.0,16,0.0,0.0,0.0,-0.4,9.5,0.6000000000000001,-0.2,0.0,0.1
1698415498202.0,16,0.0,0.0,0.0,-0.4,9.5,0.6000000000000001,-0.30000000000000004,0.2,0.0
1698415498219.0,16,0.0,0.0,0.0,-0.4,9.5,0.6000000000000001,-0.5,0.2,0.1
1698415498237.0,16,0.0,0.0,0.0,-0.4,9.5,0.7000000000000001,-0.5,0.1,0.0
1698415498252.0,16,0.0,0.0,0.0,-0.4,9.5,0.7000000000000001,-0.5,0.1,0.1
1698415498269.0,16,0.0,0.0,0.0,-0.4,9.5,0.7000000000000001,-0.7,0.1,0.0
1698415498286.0,16,0.0,0.0,0.0,-0.4,9.5,0.7000000000000001,-0.7,0.1,-0.1
1698415498302.0,16,0.0,0.0,0.0,-0.4,9.5,0.7000000000000001,-0.6000000000000001,0.0,0.1
1698415498319.0,16,0.0,0.0,0.0,-0.4,9.5,0.7000000000000001,-0.7,0.0,0.0
1698415498335.0,16,0.0,0.0,0.0,-0.4,9.5,0.7000000000000001,-0.5,0.0,0.0
1698415498352.0,16,0.0,0.0,0.0,-0.4,9.5,0.7000000000000001,-0.5,0.2,-0.2
1698415498369.0,16,0.0,0.0,0.0,-0.4,9.5,0.7000000000000001,-0.30000000000000004,-0.1,-0.30000000000000004
1698415498386.0,16,0.0,0.0,0.0,-0.4,9.5,0.7000000000000001,-0.30000000000000004,-0.1,-0.2
1698415498402.0,16,0.0,0.0,0.0,-0.4,9.5,0.7000000000000001,-0.2,-0.2,-0.30000000000000004
1698415498419.0,16,0.0,0.0,0.0,-0.4,9.5,0.7000000000000001,-0.1,0.0,-0.2
1698415498437.0,16,0.0,0.0,0.0,-0.4,9.5,0.7000000000000001,-0.2,0.0,-0.4
1698415498452.0,16,0.0,0.0,0.0,-0.4,9.5,0.7000000000000001,-0.2,0.2,-0.2
1698415498469.0,16,0.0,0.0,0.0,-0.4,9.5,0.7000000000000001,-0.2,0.2,-0.30000000000000004
1698415498486.0,16,0.0,0.0,0.0,-0.4,9.5,0.7000000000000001,-0.30000000000000004,0.2,-0.30000000000000004
1698415498502.0,16,0.0,0.0,0.0,-0.4,9.5,0.7000000000000001,-0.2,0.0,-0.30000000000000004
1698415498519.0,16,0.0,0.0,0.0,-0.4,9.5,0.7000000000000001,-0.1,0.2,-0.4
1698415498536.0,16,0.0,0.0,0.0,-0.4,9.5,0.7000000000000001,0.0,0.0,-0.4
1698415498552.0,16,0.0,0.0,0.0,-0.4,9.5,0.7000000000000001,-0.1,-0.1,-0.2
1698415498569.0,16,0.0,0.0,0.0,-0.4,9.5,0.7000000000000001,0.0,-0.30000000000000004,0.1
1698415498586.0,16,0.0,0.0,0.0,-0.4,9.5,0.7000000000000001,0.0,-0.2,0.1
1698415498602.0,16,0.0,0.0,0.0,-0.4,9.5,0.7000000000000001,0.0,-0.1,-0.1
1698415498619.0,16,0.0,0.0,0.0,-0.4,9.5,0.7000000000000001,-0.2,-0.30000000000000004,0.0
1698415498636.0,16,0.0,0.0,0.0,-0.4,9.5,0.7000000000000001,0.0,-0.2,0.1
1698415498652.0,16,0.0,0.1,0.0,-0.4,9.600000000000001,0.7000000000000001,0.0,0.0,0.0
1698415498669.0,16,0.0,0.0,0.0,-0.4,9.5,0.7000000000000001,0.0,0.0,0.0
1698415498685.0,16,0.0,0.0,0.0,-0.4,9.5,0.7000000000000001,0.0,-0.4,-0.1
1698415498702.0,16,0.0,0.0,0.0,-0.4,9.5,0.7000000000000001,0.1,-0.5,0.1
1698415498719.0,16,0.0,0.0,0.0,-0.4,9.5,0.7000000000000001,0.1,-0.5,0.1
1698415498736.0,16,0.0,0.0,0.0,-0.4,9.4,0.7000000000000001,0.2,0.0,0.1
1698415498752.0,16,0.0,0.0,0.0,-0.4,9.5,0.7000000000000001,0.4,0.0,0.1
1698415498769.0,16,0.0,0.0,0.0,-0.4,9.5,0.7000000000000001,0.30000000000000004,0.0,0.1
1698415498786.0,16,0.0,0.0,0.0,-0.4,9.5,0.7000000000000001,0.30000000000000004,0.0,0.1
1698415498802.0,16,0.0,0.0,0.0,-0.4,9.5,0.7000000000000001,0.2,0.30000000000000004,0.1
1698415498820.0,16,0.0,0.0,0.0,-0.4,9.5,0.7000000000000001,0.1,0.2,0.1
1698415498836.0,16,0.0,0.0,0.0,-0.4,9.5,0.7000000000000001,0.1,0.1,0.1
1698415498853.0,16,0.0,0.0,0.0,-0.4,9.5,0.7000000000000001,0.30000000000000004,0.0,0.1
1698415498869.0,16,0.0,0.0,0.0,-0.4,9.4,0.7000000000000001,0.2,-0.1,0.2
1698415498886.0,16,0.0,0.0,0.0,-0.4,9.5,0.7000000000000001,0.1,-0.1,0.2
1698415498902.0,16,0.0,0.0,0.0,-0.4,9.5,0.7000000000000001,0.1,0.0,0.2
1698415498920.0,16,0.0,0.0,0.0,-0.4,9.5,0.7000000000000001,0.1,0.2,0.30000000000000004
1698415498937.0,16,0.0,0.0,0.0,-0.4,9.5,0.7000000000000001,0.1,-0.1,0.2
1698415498953.0,16,0.0,0.0,0.0,-0.4,9.5,0.7000000000000001,0.1,-0.1,0.2
1698415498969.0,16,0.0,0.0,0.0,-0.4,9.5,0.7000000000000001,0.0,-0.30000000000000004,0.4
1698415498985.0,16,0.0,0.0,0.0,-0.4,9.5,0.7000000000000001,-0.1,-0.4,0.30000000000000004
1698415499002.0,16,0.0,0.0,0.0,-0.4,9.5,0.7000000000000001,0.0,-0.30000000000000004,0.30000000000000004
1698415499019.0,16,0.0,0.0,0.0,-0.4,9.5,0.7000000000000001,0.0,-0.2,0.30000000000000004
1698415499035.0,16,0.0,0.0,0.0,-0.4,9.5,0.7000000000000001,0.1,0.1,0.30000000000000004
1698415499053.0,16,0.0,0.0,0.0,-0.4,9.5,0.7000000000000001,0.2,0.1,0.2
1698415499069.0,16,0.0,0.0,0.0,-0.4,9.5,0.7000000000000001,0.30000000000000004,0.2,0.30000000000000004
1698415499085.0,16,0.0,0.0,0.0,-0.4,9.5,0.7000000000000001,0.30000000000000004,0.1,0.4
1698415499103.0,16,0.0,0.0,0.0,-0.4,9.5,0.7000000000000001,0.2,0.1,0.4
1698415499119.0,16,0.0,0.0,0.0,-0.4,9.5,0.7000000000000001,0.1,0.1,0.2
1698415499137.0,16,0.0,0.0,0.0,-0.4,9.5,0.7000000000000001,0.0,0.30000000000000004,0.2
1698415499152.0,16,0.0,0.0,0.0,-0.4,9.5,0.7000000000000001,0.0,0.30000000000000004,0.2
1698415499169.0,16,0.0,0.0,0.0,-0.4,9.5,0.7000000000000001,-0.2,0.2,0.30000000000000004
1698415499186.0,16,0.0,0.0,-0.1,-0.4,9.5,0.6000000000000001,-0.5,0.2,0.4
1698415499203.0,16,0.0,0.0,-0.1,-0.4,9.5,0.6000000000000001,-0.8,0.5,0.5
1698415499219.0,16,0.0,0.0,0.0,-0.4,9.5,0.7000000000000001,-1.0999999999999999,0.5,0.5
1698415499236.0,16,0.0,0.0,0.0,-0.30000000000000004,9.5,0.7000000000000001,-1.0,0.30000000000000004,0.6000000000000001
1698415499262.0,16,0.1,0.0,0.0,-0.30000000000000004,9.5,0.7000000000000001,-0.5,0.30000000000000004,0.30000000000000004
1698415499269.0,16,0.1,0.0,0.0,-0.30000000000000004,9.5,0.7000000000000001,-0.30000000000000004,0.30000000000000004,0.1
1698415499285.0,16,0.0,0.0,0.0,-0.4,9.5,0.7000000000000001,-0.30000000000000004,0.5,0.0
1698415499302.0,16,0.0,0.0,0.0,-0.4,9.5,0.7000000000000001,-0.30000000000000004,0.6000000000000001,0.1
1698415499319.0,16,0.0,0.0,0.0,-0.4,9.5,0.7000000000000001,-0.4,0.5,-0.1
1698415499336.0,16,0.0,0.0,0.0,-0.4,9.5,0.7000000000000001,-0.30000000000000004,0.5,-0.2
1698415499353.0,16,0.0,0.0,0.0,-0.4,9.5,0.7000000000000001,-0.30000000000000004,0.4,-0.1
1698415499369.0,16,0.0,0.0,0.0,-0.4,9.5,0.7000000000000001,-0.4,0.2,0.0
1698415499386.0,16,0.0,0.0,0.0,-0.4,9.5,0.7000000000000001,-0.1,0.0,0.1
1698415499402.0,16,0.0,0.0,0.0,-0.4,9.5,0.7000000000000001,0.0,-0.1,0.1
1698415499419.0,16,0.0,0.0,0.0,-0.4,9.5,0.7000000000000001,0.0,0.0,-0.1
1698415499436.0,16,0.0,0.0,0.0,-0.4,9.5,0.7000000000000001,-0.2,-0.5,0.1
1698415499452.0,16,0.0,0.0,0.1,-0.4,9.5,0.8,-0.2,-0.7,0.2
1698415499469.0,16,0.0,0.0,0.0,-0.4,9.5,0.7000000000000001,0.0,-0.6000000000000001,0.4
1698415499486.0,16,0.0,0.0,-0.1,-0.30000000000000004,9.5,0.6000000000000001,-0.2,-0.4,0.1
1698415499503.0,16,0.0,0.0,0.0,-0.4,9.5,0.7000000000000001,-0.30000000000000004,-0.5,0.1
1698415499521.0,16,0.0,0.0,0.0,-0.4,9.5,0.7000000000000001,-0.4,-0.9,0.2
1698415499536.0,16,0.0,0.0,0.0,-0.4,9.5,0.7000000000000001,-0.30000000000000004,-0.9,0.4
1698415499552.0,16,0.0,0.0,0.0,-0.4,9.5,0.7000000000000001,-0.30000000000000004,-0.7,0.4
1698415499569.0,16,0.0,0.0,0.0,-0.4,9.5,0.8,-0.4,-0.8,0.4
1698415499586.0,16,0.0,0.0,0.0,-0.4,9.5,0.7000000000000001,-0.2,-0.5,0.2
1698415499603.0,16,0.0,0.0,0.0,-0.4,9.5,0.7000000000000001,0.0,-0.1,0.2
1698415499619.0,16,0.0,0.0,0.1,-0.30000000000000004,9.5,0.8,0.0,-0.2,0.2
1698415499636.0,16,0.0,0.0,0.0,-0.4,9.5,0.7000000000000001,0.1,-0.1,0.1
1698415499652.0,16,0.0,0.0,0.0,-0.4,9.5,0.7000000000000001,0.1,-0.2,0.1
1698415499669.0,16,0.0,0.0,0.0,-0.4,9.5,0.7000000000000001,0.1,-0.30000000000000004,0.1
1698415499686.0,16,0.0,0.0,0.0,-0.4,9.5,0.7000000000000001,0.2,-0.30000000000000004,0.1
1698415499702.0,16,0.0,0.0,0.0,-0.4,9.5,0.7000000000000001,0.2,-0.30000000000000004,0.1
1698415499720.0,16,0.0,0.0,0.0,-0.4,9.5,0.7000000000000001,0.30000000000000004,0.0,0.0
1698415499737.0,16,0.0,0.0,0.0,-0.30000000000000004,9.5,0.7000000000000001,0.30000000000000004,0.2,0.0
1698415499752.0,16,0.0,0.0,0.0,-0.4,9.5,0.7000000000000001,0.30000000000000004,0.2,-0.1
1698415499769.0,16,0.0,0.0,0.0,-0.4,9.5,0.7000000000000001,0.2,-0.1,-0.1
1698415499786.0,16,0.0,0.0,0.0,-0.4,9.5,0.7000000000000001,0.2,-0.30000000000000004,0.0
1698415499802.0,16,0.0,0.0,0.0,-0.4,9.5,0.7000000000000001,0.30000000000000004,-0.30000000000000004,0.0
1698415499819.0,16,0.0,0.0,0.0,-0.4,9.5,0.7000000000000001,0.1,-0.2,0.0
1698415499836.0,16,0.0,0.0,0.0,-0.4,9.5,0.7000000000000001,0.1,-0.2,-0.1
1698415499852.0,16,0.0,0.0,0.0,-0.4,9.5,0.7000000000000001,0.1,-0.1,-0.1
1698415499870.0,16,0.0,0.0,0.0,-0.4,9.5,0.7000000000000001,0.0,-0.1,-0.1
1698415499886.0,16,0.0,0.0,0.0,-0.4,9.5,0.7000000000000001,0.0,0.0,0.0
1698415499903.0,16,0.0,0.0,0.0,-0.4,9.5,0.7000000000000001,-0.30000000000000004,0.0,-0.1
1698415499920.0,16,0.0,0.0,0.0,-0.4,9.5,0.7000000000000001,-0.2,-0.1,0.0
1698415499936.0,16,0.0,0.0,0.0,-0.4,9.5,0.7000000000000001,-0.4,0.2,0.0
1698415499952.0,16,0.0,0.0,-0.1,-0.4,9.5,0.6000000000000001,-0.8,0.6000000000000001,-0.1
1698415499969.0,16,0.0,0.0,0.0,-0.4,9.5,0.7000000000000001,-0.8,0.8,-0.2
1698415499986.0,16,0.0,0.0,0.0,-0.4,9.5,0.7000000000000001,-1.0,0.30000000000000004,0.1
1698415500003.0,16,0.0,0.0,0.0,-0.30000000000000004,9.5,0.7000000000000001,-0.8,0.30000000000000004,-0.1
1698415500019.0,16,0.1,0.0,0.0,-0.30000000000000004,9.5,0.7000000000000001,-0.9,0.6000000000000001,-0.2
1698415500035.0,16,0.0,0.0,0.0,-0.30000000000000004,9.5,0.7000000000000001,-0.9,0.6000000000000001,-0.2
1698415500052.0,16,0.0,0.0,0.0,-0.30000000000000004,9.5,0.7000000000000001,-0.8,0.5,-0.30000000000000004
1698415500069.0,16,0.0,0.0,0.0,-0.4,9.5,0.7000000000000001,-0.7,0.4,-0.2
1698415500086.0,16,0.0,0.0,0.0,-0.4,9.5,0.7000000000000001,-0.6000000000000001,0.4,-0.1
1698415500102.0,16,0.0,0.0,0.0,-0.4,9.5,0.7000000000000001,-0.5,0.30000000000000004,-0.2
1698415500119.0,16,0.0,0.0,0.0,-0.4,9.5,0.7000000000000001,-0.4,0.1,-0.1
1698415500136.0,16,0.0,0.0,0.0,-0.4,9.5,0.7000000000000001,-0.30000000000000004,0.0,-0.1
1698415500153.0,16,0.0,0.0,0.0,-0.4,9.5,0.7000000000000001,-0.4,0.0,0.0
1698415500169.0,16,-0.1,0.0,0.0,-0.4,9.5,0.7000000000000001,-0.30000000000000004,0.0,-0.1
1698415500186.0,16,0.0,0.0,0.0,-0.4,9.5,0.7000000000000001,-0.4,-0.1,0.1
1698415500204.0,16,0.0,0.0,0.0,-0.4,9.5,0.7000000000000001,-0.4,-0.2,0.2
1698415500219.0,16,0.0,0.0,0.0,-0.4,9.5,0.7000000000000001,-0.5,-0.30000000000000004,0.1
1698415500237.0,16,0.0,0.0,0.0,-0.4,9.5,0.7000000000000001,-0.5,0.2,0.0
1698415500252.0,16,0.0,0.0,0.0,-0.4,9.5,0.7000000000000001,-0.7,0.0,0.1
1698415500269.0,16,0.0,0.0,0.0,-0.4,9.5,0.7000000000000001,-0.5,0.0,0.1
1698415500286.0,16,0.0,0.0,0.0,-0.4,9.5,0.7000000000000001,-0.4,-0.1,0.2
1698415500302.0,16,0.0,0.0,0.0,-0.30000000000000004,9.5,0.7000000000000001,-0.5,0.0,-0.1
1698415500319.0,16,0.0,0.0,0.0,-0.4,9.5,0.8,-0.6000000000000001,0.0,-0.1
1698415500336.0,16,0.0,0.0,0.0,-0.4,9.5,0.7000000000000001,-0.30000000000000004,0.0,-0.1
1698415500352.0,16,0.0,0.0,0.0,-0.4,9.5,0.8,-0.2,-0.30000000000000004,-0.1
1698415500369.0,16,0.0,0.0,0.0,-0.4,9.5,0.8,0.0,-0.30000000000000004,0.0
1698415500387.0,16,0.0,0.0,0.0,-0.4,9.5,0.8,0.0,-0.4,0.1
1698415500403.0,16,0.0,0.0,0.0,-0.30000000000000004,9.5,0.7000000000000001,0.1,-0.30000000000000004,-0.1
1698415500420.0,16,0.0,0.0,0.0,-0.4,9.5,0.8,0.1,0.0,-0.2
1698415500436.0,16,0.0,0.0,0.0,-0.4,9.5,0.7000000000000001,0.1,0.0,-0.2
1698415500452.0,16,0.0,0.0,0.0,-0.4,9.5,0.8,0.30000000000000004,0.0,-0.30000000000000004
1698415500469.0,16,0.0,0.0,0.0,-0.4,9.5,0.7000000000000001,0.30000000000000004,-0.30000000000000004,-0.1
1698415500486.0,16,0.0,0.0,0.0,-0.4,9.5,0.8,0.4,-0.4,-0.1
1698415500503.0,16,0.0,0.0,0.0,-0.4,9.5,0.7000000000000001,0.4,-0.30000000000000004,-0.1
1698415500519.0,16,0.0,0.0,0.0,-0.4,9.5,0.7000000000000001,0.5,-0.30000000000000004,0.0
1698415500536.0,16,0.0,0.0,0.0,-0.4,9.5,0.7000000000000001,0.5,-0.30000000000000004,0.0
1698415500553.0,16,0.0,0.0,0.0,-0.4,9.5,0.7000000000000001,0.4,-0.1,-0.1
1698415500569.0,16,0.0,0.0,0.0,-0.4,9.5,0.7000000000000001,0.30000000000000004,-0.4,0.1
1698415500585.0,16,0.0,0.0,0.0,-0.4,9.5,0.7000000000000001,0.4,-0.30000000000000004,0.1
1698415500602.0,16,0.0,0.0,0.0,-0.4,9.5,0.7000000000000001,0.30000000000000004,-0.30000000000000004,0.2
1698415500619.0,16,0.0,0.0,0.0,-0.4,9.5,0.7000000000000001,0.30000000000000004,-0.1,0.1
1698415500636.0,16,0.0,0.0,0.0,-0.4,9.5,0.7000000000000001,0.30000000000000004,-0.1,0.2
1698415500653.0,16,0.0,0.0,0.0,-0.4,9.5,0.7000000000000001,0.1,-0.2,0.2
1698415500669.0,16,0.0,0.0,0.0,-0.4,9.5,0.7000000000000001,0.0,-0.4,0.1
1698415500686.0,16,0.0,0.0,0.0,-0.4,9.5,0.7000000000000001,0.1,-0.4,0.2
1698415500703.0,16,0.0,0.0,0.0,-0.4,9.5,0.7000000000000001,0.1,-0.4,0.2
1698415500720.0,16,0.0,0.0,0.0,-0.4,9.5,0.7000000000000001,0.0,-0.30000000000000004,0.30000000000000004
1698415500736.0,16,0.0,0.0,0.0,-0.4,9.5,0.7000000000000001,0.0,-0.30000000000000004,0.30000000000000004
1698415500753.0,16,0.0,0.0,0.0,-0.4,9.5,0.7000000000000001,-0.1,-0.1,0.2
1698415500769.0,16,0.0,0.0,0.0,-0.4,9.5,0.7000000000000001,-0.30000000000000004,-0.30000000000000004,0.4
1698415500786.0,16,0.0,0.0,0.0,-0.4,9.5,0.7000000000000001,-0.30000000000000004,-0.1,0.2
1698415500803.0,16,0.0,0.0,0.0,-0.4,9.5,0.7000000000000001,-0.4,0.2,0.30000000000000004
1698415500819.0,16,0.0,0.0,0.0,-0.4,9.5,0.7000000000000001,-0.5,0.30000000000000004,0.4
1698415500835.0,16,0.0,0.0,0.0,-0.4,9.5,0.8,-0.5,0.4,0.30000000000000004
1698415500853.0,16,0.0,0.0,0.0,-0.30000000000000004,9.5,0.7000000000000001,-0.5,0.4,0.4
1698415500869.0,16,0.0,0.0,0.0,-0.30000000000000004,9.5,0.7000000000000001,-0.5,0.7,0.2
1698415500886.0,16,0.0,0.0,0.0,-0.30000000000000004,9.5,0.7000000000000001,-0.7,0.6000000000000001,0.1
1698415500902.0,16,0.0,0.0,0.0,-0.30000000000000004,9.5,0.8,-0.7,1.0,0.1
1698415500919.0,16,0.0,0.0,0.0,-0.4,9.5,0.7000000000000001,-0.8,1.0,0.0
1698415500937.0,16,0.0,0.0,0.0,-0.4,9.5,0.8,-0.7,0.9,0.1
1698415500953.0,16,0.0,0.0,0.0,-0.4,9.5,0.7000000000000001,-0.6000000000000001,0.7,0.1
1698415500969.0,16,0.0,0.0,0.0,-0.4,9.5,0.7000000000000001,-0.30000000000000004,0.6000000000000001,0.0
1698415500985.0,16,0.0,0.0,0.0,-0.4,9.5,0.8,-0.2,0.6000000000000001,0.1
1698415501002.0,16,0.0,0.0,0.0,-0.4,9.5,0.7000000000000001,-0.2,0.6000000000000001,-0.1
1698415501020.0,16,0.0,0.0,0.0,-0.4,9.5,0.8,-0.2,0.30000000000000004,-0.1
1698415501036.0,16,0.0,0.0,0.0,-0.4,9.5,0.7000000000000001,-0.2,0.2,0.0
1698415501053.0,16,0.0,0.0,0.0,-0.4,9.5,0.8,-0.4,0.2,0.1
1698415501069.0,16,0.0,0.0,0.0,-0.30000000000000004,9.5,0.8,-0.30000000000000004,0.4,0.0
1698415501085.0,16,0.0,0.0,0.0,-0.4,9.5,0.7000000000000001,-0.1,0.2,-0.1
1698415501103.0,16,0.0,0.0,0.0,-0.4,9.5,0.7000000000000001,-0.1,-0.1,-0.1
1698415501119.0,16,0.0,0.0,0.0,-0.4,9.5,0.8,0.1,-0.4,0.0
1698415501137.0,16,0.0,0.0,0.0,-0.30000000000000004,9.5,0.7000000000000001,0.2,0.0,-0.1
1698415501152.0,16,0.0,0.0,0.0,-0.30000000000000004,9.5,0.7000000000000001,0.30000000000000004,0.2,-0.2
1698415501169.0,16,0.0,0.0,0.0,-0.4,9.5,0.8,0.2,-0.30000000000000004,-0.1
1698415501185.0,16,0.0,0.0,0.0,-0.4,9.5,0.8,0.5,-0.5,-0.1
1698415501202.0,16,0.0,0.0,0.0,-0.4,9.5,0.7000000000000001,0.5,-0.6000000000000001,-0.1
1698415501219.0,16,-0.1,0.0,0.0,-0.4,9.5,0.7000000000000001,0.6000000000000001,-0.7,0.0
1698415501238.0,16,0.0,0.0,-0.1,-0.4,9.5,0.7000000000000001,0.6000000000000001,-1.0999999999999999,0.2
1698415501252.0,16,0.0,0.0,0.0,-0.4,9.5,0.8,0.5,-1.2000000000000002,0.2
1698415501269.0,16,0.0,0.0,0.0,-0.4,9.5,0.8,0.9,-0.6000000000000001,0.1
1698415501286.0,16,0.0,0.0,0.0,-0.30000000000000004,9.5,0.7000000000000001,0.6000000000000001,-1.0,0.1
1698415501302.0,16,0.0,0.0,0.0,-0.4,9.5,0.8,0.4,-0.9,0.0
1698415501321.0,16,0.0,0.0,0.0,-0.30000000000000004,9.5,0.8,0.7,-0.4,0.1
1698415501336.0,16,0.0,0.0,0.0,-0.4,9.5,0.7000000000000001,0.8,-0.30000000000000004,0.1
1698415501353.0,16,0.0,0.0,0.0,-0.4,9.5,0.7000000000000001,0.8,-0.2,0.2
1698415501369.0,16,0.0,0.0,0.0,-0.4,9.5,0.7000000000000001,0.9,-0.1,0.2
1698415501385.0,16,0.0,0.0,0.0,-0.30000000000000004,9.5,0.7000000000000001,0.8,-0.1,0.2
1698415501402.0,16,0.0,0.0,0.0,-0.30000000000000004,9.5,0.7000000000000001,0.8,0.0,0.1
1698415501422.0,16,0.0,0.0,0.0,-0.4,9.5,0.7000000000000001,0.7,-0.30000000000000004,0.1
1698415501435.0,16,0.0,0.0,0.0,-0.4,9.5,0.7000000000000001,0.6000000000000001,-0.5,0.2
1698415501452.0,16,0.0,0.0,0.0,-0.4,9.5,0.7000000000000001,0.6000000000000001,-0.6000000000000001,0.30000000000000004
1698415501469.0,16,0.0,0.0,0.0,-0.4,9.5,0.7000000000000001,0.6000000000000001,-0.9,0.2
1698415501485.0,16,0.0,0.0,0.0,-0.4,9.5,0.8,0.6000000000000001,-1.0,0.2
1698415501502.0,16,0.0,0.0,0.0,-0.4,9.5,0.7000000000000001,0.6000000000000001,-1.0,0.30000000000000004
1698415501520.0,16,0.0,0.0,0.0,-0.30000000000000004,9.5,0.7000000000000001,0.7,-0.8,0.30000000000000004
1698415501535.0,16,0.0,0.0,0.0,-0.4,9.5,0.7000000000000001,0.8,-0.6000000000000001,0.4
1698415501552.0,16,0.0,0.0,0.0,-0.4,9.5,0.7000000000000001,1.0999999999999999,-0.7,0.5
1698415501569.0,16,0.0,0.0,0.0,-0.4,9.5,0.7000000000000001,1.0999999999999999,-0.6000000000000001,0.4
1698415501585.0,16,0.0,0.0,0.0,-0.30000000000000004,9.5,0.7000000000000001,1.0999999999999999,-0.5,0.4
1698415501602.0,16,0.0,0.0,0.0,-0.4,9.5,0.7000000000000001,1.0999999999999999,-0.7,0.4
1698415501619.0,16,0.0,0.0,0.0,-0.4,9.5,0.7000000000000001,1.0999999999999999,-0.6000000000000001,0.30000000000000004
1698415501636.0,16,0.0,0.0,0.0,-0.4,9.5,0.7000000000000001,1.0999999999999999,-0.8,0.4
1698415501652.0,16,0.0,0.0,0.0,-0.4,9.5,0.7000000000000001,1.3,-0.6000000000000001,0.5
1698415501669.0,16,0.0,0.0,0.0,-0.30000000000000004,9.5,0.7000000000000001,1.0999999999999999,-0.6000000000000001,0.6000000000000001
1698415501685.0,16,0.0,0.0,0.0,-0.30000000000000004,9.5,0.7000000000000001,1.0999999999999999,-0.30000000000000004,0.5
1698415501702.0,16,0.0,0.0,0.0,-0.30000000000000004,9.5,0.7000000000000001,1.2000000000000002,-0.4,0.5
1698415501719.0,16,0.0,0.0,0.0,-0.30000000000000004,9.5,0.7000000000000001,1.0999999999999999,-0.30000000000000004,0.4
1698415501736.0,16,0.0,0.0,0.0,-0.30000000000000004,9.5,0.7000000000000001,1.2000000000000002,-0.2,0.2
1698415501752.0,16,0.0,0.0,0.0,-0.30000000000000004,9.5,0.6000000000000001,1.3,0.0,0.4
1698415501769.0,16,0.0,-0.1,0.0,-0.30000000000000004,9.4,0.7000000000000001,1.3,-0.1,0.30000000000000004
1698415501785.0,16,0.0,0.0,0.0,-0.30000000000000004,9.5,0.7000000000000001,1.5000000000000002,0.0,0.2
1698415501802.0,16,0.0,0.0,0.0,-0.30000000000000004,9.5,0.7000000000000001,1.7,-0.1,0.2
1698415501820.0,16,0.0,0.0,0.0,-0.30000000000000004,9.5,0.7000000000000001,1.9,-0.1,0.4
1698415501835.0,16,0.0,0.0,0.0,-0.30000000000000004,9.5,0.7000000000000001,2.0,-0.1,0.4
1698415501852.0,16,0.0,-0.1,0.1,-0.4,9.4,0.7000000000000001,2.1999999999999997,-0.2,0.4
1698415501868.0,16,0.0,0.0,0.1,-0.4,9.5,0.7000000000000001,2.3000000000000003,-0.4,0.30000000000000004
1698415501886.0,16,-0.1,0.0,0.1,-0.4,9.5,0.7000000000000001,2.4000000000000004,-0.4,0.6000000000000001
1698415501902.0,16,-0.1,0.0,0.0,-0.4,9.5,0.7000000000000001,2.6,-0.9,0.7
1698415501919.0,16,0.0,0.0,0.0,-0.4,9.5,0.6000000000000001,2.7,-1.0999999999999999,0.7
1698415501935.0,16,0.0,0.0,0.0,-0.30000000000000004,9.5,0.6000000000000001,2.8,-1.2000000000000002,0.8
1698415501952.0,16,0.0,0.0,0.0,-0.30000000000000004,9.5,0.6000000000000001,2.8,-1.0999999999999999,0.6000000000000001
1698415501969.0,16,0.0,0.0,0.0,-0.4,9.5,0.6000000000000001,2.8,-1.4,0.4
1698415501985.0,16,0.0,0.0,0.0,-0.30000000000000004,9.5,0.6000000000000001,2.8,-1.6,0.4
1698415502003.0,16,0.1,0.0,0.0,-0.30000000000000004,9.5,0.5,2.8,-1.2000000000000002,0.4
1698415502020.0,16,0.1,0.0,-0.1,-0.30000000000000004,9.5,0.5,2.6,-1.2000000000000002,0.4
1698415502036.0,16,0.0,0.0,0.0,-0.30000000000000004,9.5,0.5,2.4000000000000004,-1.0999999999999999,0.2
1698415502052.0,16,0.0,0.0,0.0,-0.30000000000000004,9.5,0.5,2.3000000000000003,-0.9,0.30000000000000004
1698415502069.0,16,0.0,0.0,-0.1,-0.30000000000000004,9.5,0.5,2.3000000000000003,-0.8,0.30000000000000004
1698415502086.0,16,0.0,0.0,-0.1,-0.30000000000000004,9.5,0.5,2.1,-0.6000000000000001,0.4
1698415502102.0,16,0.0,0.0,-0.1,-0.30000000000000004,9.5,0.5,2.1,-0.7,0.4
1698415502120.0,16,0.0,0.0,-0.1,-0.30000000000000004,9.5,0.5,1.8,-0.6000000000000001,0.30000000000000004
1698415502137.0,16,0.0,0.0,-0.1,-0.30000000000000004,9.600000000000001,0.5,1.7,0.0,0.2
1698415502152.0,16,0.0,0.0,-0.1,-0.30000000000000004,9.5,0.5,1.8,0.1,0.2
1698415502168.0,16,0.0,0.0,-0.1,-0.30000000000000004,9.5,0.4,1.4,0.5,0.2
1698415502186.0,16,0.0,0.0,-0.1,-0.30000000000000004,9.5,0.4,1.3,0.4,0.2
1698415502202.0,16,0.0,0.0,-0.1,-0.30000000000000004,9.5,0.4,1.0,0.1,0.2
1698415502220.0,16,0.0,0.0,0.0,-0.30000000000000004,9.5,0.4,0.8,0.0,0.2
1698415502236.0,16,0.0,0.0,0.0,-0.30000000000000004,9.600000000000001,0.4,0.6000000000000001,0.0,0.1
1698415502252.0,16,0.0,0.0,0.0,-0.30000000000000004,9.5,0.4,0.4,0.4,0.0
1698415502270.0,16,0.0,0.0,0.0,-0.30000000000000004,9.5,0.4,0.30000000000000004,0.6000000000000001,-0.2
1698415502286.0,16,0.0,0.0,-0.1,-0.30000000000000004,9.5,0.4,-0.1,0.30000000000000004,-0.1
1698415502303.0,16,0.0,0.0,0.0,-0.30000000000000004,9.600000000000001,0.4,-0.30000000000000004,0.1,0.2
1698415502319.0,16,0.0,0.0,0.0,-0.30000000000000004,9.600000000000001,0.4,-0.5,-0.1,0.2
1698415502336.0,16,0.0,0.0,0.0,-0.30000000000000004,9.5,0.4,-0.7,-0.2,0.30000000000000004
1698415502352.0,16,0.0,0.0,0.0,-0.30000000000000004,9.5,0.4,-1.3,-0.5,0.30000000000000004
1698415502370.0,16,0.0,0.0,0.0,-0.30000000000000004,9.600000000000001,0.5,-1.3,-0.30000000000000004,0.2
1698415502386.0,16,0.0,0.0,0.0,-0.30000000000000004,9.5,0.5,-1.8,-0.5,0.0
1698415502403.0,16,0.0,0.0,0.0,-0.30000000000000004,9.5,0.5,-2.1,-0.4,0.1
1698415502420.0,16,0.0,0.0,0.0,-0.30000000000000004,9.5,0.5,-2.4000000000000004,-0.5,0.2
1698415502436.0,16,0.0,0.0,-0.1,-0.30000000000000004,9.5,0.4,-3.2,-0.5,-0.1
1698415502452.0,16,0.0,0.1,-0.1,-0.30000000000000004,9.600000000000001,0.4,-4.6000000000000005,-0.8,-0.2
1698415502470.0,16,0.0,0.1,-0.1,-0.30000000000000004,9.600000000000001,0.4,-5.2,-0.9,-0.5
1698415502486.0,16,0.0,0.1,-0.1,-0.30000000000000004,9.600000000000001,0.4,-7.1000000000000005,-0.9,-0.9
1698415502502.0,16,0.0,0.1,-0.1,-0.30000000000000004,9.700000000000001,0.4,-9.4,-1.6,-1.0
1698415502519.0,16,0.0,0.2,-0.1,-0.30000000000000004,9.700000000000001,0.5,-12.200000000000001,-1.7,-1.2000000000000002
1698415502536.0,16,0.0,0.2,-0.1,-0.30000000000000004,9.700000000000001,0.5,-13.5,-1.4,-1.3
1698415502553.0,16,0.1,0.1,-0.1,-0.2,9.600000000000001,0.5,-15.5,-0.5,-1.0
1698415502569.0,16,0.1,0.1,-0.1,-0.2,9.700000000000001,0.5,-17.200000000000003,1.0,-0.7
1698415502586.0,16,0.1,0.1,-0.2,-0.2,9.600000000000001,0.5,-18.0,1.6,-0.2
1698415502603.0,16,0.0,0.0,-0.1,-0.30000000000000004,9.600000000000001,0.6000000000000001,-18.900000000000002,2.6,-0.30000000000000004
1698415502619.0,16,-0.1,0.0,-0.30000000000000004,-0.4,9.700000000000001,0.4,-14.600000000000001,1.6,0.9
1698415502637.0,16,0.0,0.30000000000000004,-0.30000000000000004,-0.30000000000000004,9.8,0.6000000000000001,-14.800000000000002,1.0,1.0
1698415502653.0,16,0.0,0.2,-0.2,-0.30000000000000004,9.8,0.7000000000000001,-16.0,1.2000000000000002,1.4
1698415502669.0,16,0.0,0.0,-0.1,-0.30000000000000004,9.600000000000001,0.8,-16.400000000000002,1.5000000000000002,1.4
1698415502685.0,16,-0.1,0.0,0.0,-0.4,9.5,0.9,-16.900000000000002,1.4,1.2000000000000002
1698415502703.0,16,-0.1,0.0,-0.1,-0.4,9.5,0.9,-19.1,1.9,1.0
1698415502719.0,16,-0.1,-0.1,-0.1,-0.4,9.4,1.0,-22.000000000000004,2.0,0.8
1698415502736.0,16,-0.1,-0.2,0.0,-0.4,9.4,1.1,-21.700000000000003,1.7,0.7
1698415502753.0,16,0.0,0.0,0.1,-0.30000000000000004,9.5,1.3,-20.900000000000002,1.0999999999999999,0.6000000000000001
1698415502769.0,16,0.0,0.1,0.1,-0.30000000000000004,9.600000000000001,1.3,-23.400000000000002,1.6,0.7
1698415502786.0,16,-0.1,0.1,0.1,-0.4,9.600000000000001,1.4000000000000001,-24.8,1.8,0.9
1698415502802.0,16,-0.1,0.0,-0.1,-0.4,9.5,1.3,-26.500000000000004,1.3,1.0
1698415502819.0,16,-0.1,0.0,-0.1,-0.4,9.5,1.4000000000000001,-28.400000000000002,1.4,1.2000000000000002
1698415502836.0,16,0.0,0.1,-0.2,-0.30000000000000004,9.600000000000001,1.4000000000000001,-29.800000000000004,1.6,1.3
1698415502852.0,16,0.0,0.0,-0.1,-0.30000000000000004,9.5,1.5,-32.300000000000004,0.9,1.8
1698415502869.0,16,0.0,0.0,-0.1,-0.30000000000000004,9.5,1.6,-35.0,1.7,2.1
1698415502886.0,16,0.0,0.1,-0.1,-0.30000000000000004,9.5,1.6,-36.1,2.1999999999999997,2.3000000000000003
1698415502903.0,16,0.0,0.1,-0.4,-0.2,9.5,1.5,-38.400000000000006,3.1,2.5
1698415502919.0,16,0.0,0.0,-0.2,-0.30000000000000004,9.4,1.8,-39.2,2.8,2.1
1698415502936.0,16,0.0,0.2,-0.30000000000000004,-0.30000000000000004,9.600000000000001,1.8,-39.8,2.9,2.1
1698415502952.0,16,0.1,0.30000000000000004,-0.30000000000000004,-0.2,9.700000000000001,1.9000000000000001,-43.900000000000006,2.7,2.1999999999999997
1698415502969.0,16,0.0,0.1,-0.30000000000000004,-0.30000000000000004,9.4,2.1,-46.7,2.8,1.8
1698415502986.0,16,0.0,0.2,-0.30000000000000004,-0.30000000000000004,9.5,2.1,-48.400000000000006,3.0000000000000004,2.4000000000000004
1698415503002.0,16,-0.1,0.1,-0.5,-0.4,9.4,2.1,-51.300000000000004,3.0000000000000004,3.4
1698415503019.0,16,-0.1,0.1,-0.5,-0.4,9.3,2.3000000000000003,-53.00000000000001,1.2000000000000002,4.6000000000000005
1698415503035.0,16,0.0,0.4,-0.5,-0.2,9.600000000000001,2.3000000000000003,-54.5,1.6,4.5
1698415503053.0,16,0.0,0.2,-0.6000000000000001,-0.2,9.4,2.4000000000000004,-56.400000000000006,1.0,2.7
1698415503069.0,16,0.0,0.1,-0.5,-0.2,9.200000000000001,2.6,-57.00000000000001,1.7,3.5
1698415503086.0,16,0.0,0.30000000000000004,-0.6000000000000001,-0.2,9.4,2.7,-57.6,1.6,3.7000000000000006
1698415503103.0,16,-0.1,0.5,-0.5,-0.30000000000000004,9.5,2.9000000000000004,-59.1,0.0,4.2
1698415503119.0,16,-0.1,0.1,-0.5,-0.30000000000000004,9.0,3.1,-61.300000000000004,0.5,3.4
1698415503135.0,16,-0.1,0.30000000000000004,-0.6000000000000001,-0.2,9.200000000000001,3.3000000000000003,-63.0,0.30000000000000004,3.1
1698415503152.0,16,0.1,0.4,-0.5,-0.1,9.200000000000001,3.4000000000000004,-63.6,0.2,3.2
1698415503169.0,16,0.1,0.2,-0.5,0.0,8.9,3.6,-66.4,2.4000000000000004,3.4
1698415503185.0,16,0.1,0.2,-0.30000000000000004,-0.1,8.9,3.9000000000000004,-67.5,3.4,2.7
1698415503202.0,16,0.0,0.30000000000000004,-0.4,-0.2,8.9,4.1000000000000005,-69.4,5.6,2.3000000000000003
1698415503219.0,16,-0.1,0.2,-0.30000000000000004,-0.2,8.700000000000001,4.3,-71.10000000000001,5.1,2.6
1698415503236.0,16,-0.1,0.4,-0.30000000000000004,-0.2,8.8,4.4,-73.4,5.300000000000001,2.1999999999999997
1698415503253.0,16,-0.1,-0.30000000000000004,0.0,-0.30000000000000004,7.9,4.9,-74.60000000000001,5.7,1.3
1698415503269.0,16,0.0,0.1,-0.1,-0.2,8.200000000000001,5.1000000000000005,-76.4,6.9,1.0
1698415503285.0,16,0.0,0.2,0.30000000000000004,-0.2,8.200000000000001,5.7,-78.2,7.400000000000001,0.9
1698415503302.0,16,-0.1,0.4,0.30000000000000004,-0.30000000000000004,8.3,5.800000000000001,-78.4,7.6,1.0999999999999999
1698415503319.0,16,-0.30000000000000004,-0.2,0.5,-0.5,7.6000000000000005,6.2,-80.5,6.000000000000001,1.5000000000000002
1698415503335.0,16,-0.2,-0.2,0.6000000000000001,-0.4,7.5,6.5,-79.8,5.7,3.5
1698415503353.0,16,-0.1,0.4,0.6000000000000001,-0.4,7.9,6.7,-77.7,4.7,3.1
1698415503369.0,16,-0.1,0.30000000000000004,0.8,-0.30000000000000004,7.7,7.1000000000000005,-74.89999999999999,4.0,0.8
1698415503385.0,16,-0.1,-0.4,1.3,-0.30000000000000004,6.800000000000001,7.6000000000000005,-71.8,6.000000000000001,2.7
1698415503402.0,16,0.0,0.30000000000000004,1.4000000000000001,-0.30000000000000004,7.4,7.9,-70.39999999999999,7.400000000000001,2.4000000000000004
1698415503419.0,16,-0.2,0.7000000000000001,1.5,-0.4,7.7,8.1,-63.800000000000004,6.7,1.2000000000000002
1698415503437.0,16,-0.30000000000000004,-0.1,1.7000000000000002,-0.5,6.800000000000001,8.4,-59.60000000000001,5.6,0.7
1698415503452.0,16,0.1,0.0,1.9000000000000001,-0.2,6.800000000000001,8.8,-56.1,6.000000000000001,2.9
1698415503469.0,16,0.1,0.2,1.9000000000000001,-0.2,6.9,9.0,-49.0,6.6000000000000005,0.5
1698415503485.0,16,0.1,0.1,1.9000000000000001,-0.2,6.6000000000000005,9.1,-42.5,7.400000000000001,-0.1
1698415503502.0,16,0.2,0.1,1.8,-0.1,6.5,9.0,-39.300000000000004,7.699999999999999,-0.8
1698415503519.0,16,0.0,0.1,1.7000000000000002,-0.30000000000000004,6.5,9.0,-35.1,7.1000000000000005,-1.6
1698415503536.0,16,-0.2,-0.1,1.5,-0.5,6.300000000000001,8.9,-30.100000000000005,6.7,-1.6
1698415503552.0,16,-0.2,-0.1,1.4000000000000001,-0.5,6.2,8.9,-28.900000000000002,6.000000000000001,-1.6
1698415503569.0,16,-0.30000000000000004,-0.2,1.5,-0.6000000000000001,6.0,9.0,-25.900000000000002,2.1,-1.8
1698415503586.0,16,-0.2,-0.4,1.3,-0.6000000000000001,5.7,8.8,-23.3,0.9,-0.2
1698415503603.0,16,-0.2,-0.4,1.4000000000000001,-0.5,5.800000000000001,9.0,-22.000000000000004,0.0,-0.4
1698415503619.0,16,-0.1,-0.30000000000000004,1.2000000000000002,-0.5,5.7,8.8,-19.0,-1.5000000000000002,-0.8
1698415503637.0,16,0.0,-0.5,1.0,-0.4,5.5,8.700000000000001,-16.0,-2.8,-0.5
1698415503653.0,16,-0.1,-0.6000000000000001,1.1,-0.4,5.4,8.8,-14.3,-3.0000000000000004,-0.5
1698415503669.0,16,0.0,-0.6000000000000001,0.9,-0.4,5.300000000000001,8.700000000000001,-10.5,-2.0,-0.8
1698415503686.0,16,-0.1,-0.7000000000000001,0.9,-0.4,5.2,8.700000000000001,-6.5,-3.9,-0.9
1698415503703.0,16,-0.1,-0.7000000000000001,0.8,-0.4,5.2,8.6,-4.2,-3.9,-0.7
1698415503721.0,16,-0.1,-0.7000000000000001,0.6000000000000001,-0.4,5.2,8.4,-0.2,-3.2,-0.2
1698415503736.0,16,-0.1,-0.7000000000000001,0.7000000000000001,-0.4,5.300000000000001,8.5,3.7000000000000006,-3.9,0.2
1698415503752.0,16,-0.1,-0.7000000000000001,0.6000000000000001,-0.4,5.2,8.3,5.9,-4.7,0.6000000000000001
1698415503769.0,16,-0.1,-0.7000000000000001,0.5,-0.4,5.300000000000001,8.3,10.3,-5.500000000000001,1.5000000000000002
1698415503785.0,16,0.0,-0.6000000000000001,0.5,-0.30000000000000004,5.4,8.200000000000001,14.500000000000002,-5.0,1.9
1698415503802.0,16,0.0,-0.6000000000000001,0.4,-0.2,5.4,8.1,16.700000000000003,-5.300000000000001,1.5000000000000002
1698415503819.0,16,0.1,-0.6000000000000001,0.30000000000000004,-0.2,5.4,8.0,20.4,-6.6000000000000005,1.5000000000000002
1698415503836.0,16,0.0,-0.5,0.30000000000000004,-0.2,5.6000000000000005,7.9,23.6,-6.6000000000000005,1.8
1698415503853.0,16,0.1,-0.4,0.30000000000000004,-0.2,5.7,7.9,25.8,-7.2,1.9
1698415503869.0,16,0.1,-0.30000000000000004,0.2,-0.1,5.9,7.800000000000001,26.9,-7.0,1.8
1698415503885.0,16,0.1,-0.30000000000000004,0.2,-0.1,6.0,7.7,28.500000000000004,-7.1000000000000005,1.5000000000000002
1698415503903.0,16,0.1,-0.30000000000000004,0.2,-0.1,6.0,7.6000000000000005,29.300000000000004,-6.9,1.4
1698415503919.0,16,0.2,-0.4,0.1,0.1,6.0,7.5,31.3,-7.6,1.4
1698415503936.0,16,0.4,-0.5,0.1,0.30000000000000004,5.9,7.4,33.800000000000004,-7.400000000000001,0.6000000000000001
1698415503953.0,16,0.4,-0.6000000000000001,-0.1,0.30000000000000004,5.9,7.1000000000000005,35.4,-6.3,0.0
1698415503969.0,16,0.30000000000000004,-0.8,-0.30000000000000004,0.2,5.800000000000001,6.9,38.300000000000004,-4.7,-0.6000000000000001
1698415503986.0,16,0.30000000000000004,-0.9,-0.5,0.2,5.800000000000001,6.6000000000000005,41.2,-4.5,-0.9
1698415504002.0,16,0.2,-1.0,-0.5,0.1,5.7,6.6000000000000005,43.0,-4.800000000000001,-1.0
1698415504021.0,16,0.2,-1.2000000000000002,-0.5,0.1,5.7,6.4,46.5,-4.7,-0.2
1698415504036.0,16,0.1,-1.2000000000000002,-0.6000000000000001,0.1,5.800000000000001,6.2,49.6,-4.2,-0.5
1698415504053.0,16,0.1,-1.2000000000000002,-0.6000000000000001,0.1,5.800000000000001,6.1000000000000005,51.300000000000004,-3.9,-0.9
1698415504069.0,16,0.2,-1.3,-0.7000000000000001,0.1,5.800000000000001,5.9,54.7,-3.5,-1.0999999999999999
1698415504085.0,16,0.0,-1.4000000000000001,-0.7000000000000001,0.0,5.800000000000001,5.800000000000001,57.5,-3.3000000000000003,-1.2000000000000002
1698415504102.0,16,0.0,-1.3,-0.5,-0.1,6.0,5.800000000000001,60.1,-3.5,-0.9
1698415504119.0,16,0.0,-1.3,-0.6000000000000001,-0.1,6.1000000000000005,5.6000000000000005,61.599999999999994,-3.3000000000000003,-0.5
1698415504135.0,16,-0.1,-1.3,-0.5,-0.1,6.2,5.6000000000000005,63.4,-4.800000000000001,0.2
1698415504152.0,16,-0.1,-1.2000000000000002,-0.4,-0.1,6.5,5.4,64.7,-5.0,0.2
1698415504169.0,16,0.0,-1.1,-0.4,0.0,6.7,5.4,65.10000000000001,-5.500000000000001,0.1
1698415504185.0,16,0.0,-0.8,-0.4,0.0,7.0,5.300000000000001,65.4,-6.4,-0.30000000000000004
1698415504202.0,16,0.0,-0.8,-0.30000000000000004,0.1,7.2,5.1000000000000005,65.4,-9.200000000000001,-0.2
1698415504219.0,16,0.1,-0.8,-0.30000000000000004,0.2,7.300000000000001,4.9,65.0,-13.100000000000001,-0.9
1698415504235.0,16,0.2,-0.8,-0.30000000000000004,0.2,7.4,4.800000000000001,64.7,-14.100000000000001,-1.5000000000000002
1698415504252.0,16,0.2,-0.7000000000000001,-0.4,0.30000000000000004,7.5,4.6000000000000005,64.0,-16.0,-2.5
1698415504268.0,16,0.30000000000000004,-0.7000000000000001,-0.30000000000000004,0.4,7.6000000000000005,4.5,62.900000000000006,-15.8,-3.3000000000000003
1698415504285.0,16,0.30000000000000004,-0.6000000000000001,-0.2,0.4,7.800000000000001,4.5,62.8,-15.399999999999999,-4.0
1698415504302.0,16,0.4,-0.6000000000000001,-0.4,0.5,7.9,4.1000000000000005,62.8,-15.2,-4.0
1698415504319.0,16,0.4,-1.0,-0.2,0.5,7.5,4.2,62.1,-14.900000000000002,-4.3999999999999995
1698415504335.0,16,0.5,-0.6000000000000001,-0.30000000000000004,0.7000000000000001,8.0,4.0,62.1,-13.3,-4.9
1698415504352.0,16,0.5,-0.5,-0.2,0.6000000000000001,8.200000000000001,3.8000000000000003,62.0,-10.5,-5.7
1698415504369.0,16,0.4,-0.5,-0.2,0.5,8.200000000000001,3.7,62.6,-9.5,-6.1000000000000005
1698415504385.0,16,0.30000000000000004,-0.6000000000000001,-0.30000000000000004,0.4,8.200000000000001,3.4000000000000004,63.50000000000001,-6.7,-6.000000000000001
1698415504402.0,16,0.4,-0.6000000000000001,-0.4,0.5,8.3,3.1,62.6,-5.6,-5.9
1698415504418.0,16,0.30000000000000004,-0.7000000000000001,-0.4,0.4,8.3,2.9000000000000004,62.8,-4.0,-6.5
1698415504435.0,16,0.2,-0.7000000000000001,-0.4,0.30000000000000004,8.3,2.8000000000000003,62.4,-3.0000000000000004,-6.6000000000000005
1698415504452.0,16,0.2,-0.7000000000000001,-0.30000000000000004,0.30000000000000004,8.3,2.8000000000000003,61.7,-1.2000000000000002,-6.7
1698415504469.0,16,0.2,-0.8,-0.30000000000000004,0.30000000000000004,8.3,2.6,61.1,-1.0999999999999999,-6.5
1698415504485.0,16,0.2,-0.7000000000000001,-0.30000000000000004,0.30000000000000004,8.5,2.5,59.7,-0.30000000000000004,-6.7
1698415504502.0,16,0.2,-0.7000000000000001,-0.1,0.30000000000000004,8.5,2.5,58.60000000000001,1.4,-7.400000000000001
1698415504518.0,16,0.1,-0.7000000000000001,-0.2,0.1,8.6,2.2,57.5,3.0000000000000004,-7.8
1698415504535.0,16,0.1,-0.5,-0.2,0.1,8.700000000000001,2.1,56.5,3.3000000000000003,-7.699999999999999
1698415504552.0,16,0.1,-0.30000000000000004,0.0,0.1,9.0,2.1,54.4,1.7,-7.0
1698415504569.0,16,0.1,-0.30000000000000004,0.0,0.1,9.0,2.0,53.50000000000001,0.4,-6.7
1698415504585.0,16,0.4,-0.30000000000000004,0.2,0.30000000000000004,9.1,2.0,51.0,-1.6,-6.3
1698415504602.0,16,0.4,-0.5,0.30000000000000004,0.30000000000000004,8.9,2.0,49.5,-0.9,-7.6
1698415504619.0,16,0.30000000000000004,-0.6000000000000001,0.1,0.2,8.700000000000001,1.6,46.1,-0.5,-8.200000000000001
1698415504636.0,16,0.2,-0.9,0.2,0.1,8.5,1.7000000000000002,42.400000000000006,-1.2000000000000002,-9.200000000000001
1698415504652.0,16,0.2,0.30000000000000004,0.0,0.1,9.200000000000001,1.6,39.699999999999996,2.6,-8.4
1698415504669.0,16,0.2,0.30000000000000004,0.1,0.1,9.700000000000001,1.3,38.5,2.9,-8.799999999999999
1698415504686.0,16,0.30000000000000004,-0.1,0.1,0.2,9.3,1.3,35.7,7.1000000000000005,-8.4
1698415504702.0,16,0.4,-0.30000000000000004,0.30000000000000004,0.2,9.1,1.4000000000000001,31.099999999999998,14.100000000000001,-7.300000000000001
1698415504719.0,16,0.2,-0.30000000000000004,0.5,0.1,9.1,1.4000000000000001,28.500000000000004,19.700000000000003,-7.0
1698415504735.0,16,0.1,-0.5,0.5,-0.1,9.0,1.5,23.0,34.800000000000004,-5.9
1698415504752.0,16,-0.1,0.2,0.5,-0.4,9.600000000000001,1.4000000000000001,20.6,38.7,-5.9
1698415504769.0,16,-0.5,0.1,0.1,-0.8,9.600000000000001,0.9,17.599999999999998,42.2,-5.8
1698415504788.0,16,-0.6000000000000001,0.2,-0.2,-1.0,9.700000000000001,0.6000000000000001,14.0,41.6,-4.9
1698415504803.0,16,-0.7000000000000001,0.8,0.1,-1.0,10.3,0.9,3.5,36.2,-3.3000000000000003
1698415504819.0,16,-0.5,1.1,0.4,-0.9,10.600000000000001,1.1,0.9,35.8,-2.8
1698415504836.0,16,-0.30000000000000004,1.1,0.1,-0.6000000000000001,10.600000000000001,0.8,1.5000000000000002,36.7,-3.4
1698415504852.0,16,-0.6000000000000001,0.5,-0.5,-1.0,10.0,0.30000000000000004,3.5,32.6,-4.800000000000001
1698415504869.0,16,-0.8,0.30000000000000004,-0.8,-1.2000000000000002,9.8,0.0,4.1000000000000005,30.7,-5.1
1698415504886.0,16,-1.0,0.4,-1.4000000000000001,-1.5,10.0,-0.7000000000000001,2.5,23.8,-5.500000000000001
1698415504903.0,16,-1.0,0.9,-1.2000000000000002,-1.5,10.4,-0.5,-2.0,15.9,-7.699999999999999
1698415504919.0,16,-0.9,1.1,-1.0,-1.4000000000000001,10.600000000000001,-0.30000000000000004,-2.5,14.3,-9.8
1698415504937.0,16,-0.5,0.6000000000000001,-0.7000000000000001,-1.1,10.100000000000001,-0.1,-1.8,14.700000000000001,-13.9
1698415504952.0,16,-0.30000000000000004,-0.1,-0.7000000000000001,-0.9,9.4,0.0,-0.5,16.6,-15.6
1698415504970.0,16,-0.30000000000000004,-0.4,-0.9,-0.9,9.1,-0.30000000000000004,-0.30000000000000004,17.7,-15.2
1698415504986.0,16,-0.6000000000000001,-0.5,-1.1,-1.3,9.0,-0.5,-2.1999999999999997,16.0,-12.4
1698415505002.0,16,-1.0,-0.5,-0.9,-1.8,9.0,-0.30000000000000004,-3.5,12.000000000000002,-10.4
1698415505023.0,16,-1.0,-0.6000000000000001,-0.8,-1.7000000000000002,8.9,-0.1,-2.1999999999999997,7.1000000000000005,-7.9
1698415505035.0,16,-0.8,-0.6000000000000001,-0.9,-1.6,8.9,-0.2,0.4,1.4,-7.1000000000000005
1698415505052.0,16,-0.8,-0.4,-1.2000000000000002,-1.7000000000000002,9.0,-0.5,1.7,-2.1,-6.6000000000000005
1698415505068.0,16,-1.0,-0.30000000000000004,-1.4000000000000001,-1.8,9.200000000000001,-0.8,4.1000000000000005,-9.3,-5.1
1698415505085.0,16,-1.0,-0.2,-1.4000000000000001,-1.8,9.3,-0.8,4.800000000000001,-10.700000000000001,-3.4
1698415505102.0,16,-0.8,-0.30000000000000004,-1.5,-1.6,9.200000000000001,-0.9,5.7,-12.4,1.4
1698415505121.0,16,-0.5,-0.5,-1.4000000000000001,-1.3,9.0,-0.8,6.2,-13.8,4.9
1698415505135.0,16,-0.4,-0.6000000000000001,-1.4000000000000001,-1.2000000000000002,8.9,-0.9,6.7,-14.200000000000001,6.1000000000000005
1698415505152.0,16,-0.30000000000000004,-0.6000000000000001,-1.5,-1.1,8.9,-0.9,6.3,-15.8,8.4
1698415505169.0,16,-0.30000000000000004,-0.5,-1.3,-1.2000000000000002,9.1,-0.6000000000000001,4.5,-14.600000000000001,8.5
1698415505185.0,16,-0.5,-0.30000000000000004,-1.0,-1.3,9.1,-0.5,4.0,-12.8,8.3
1698415505203.0,16,-0.5,-0.1,-1.2000000000000002,-1.3,9.4,-0.7000000000000001,3.7000000000000006,-10.3,9.0
1698415505220.0,16,-0.5,-0.1,-1.1,-1.3,9.4,-0.7000000000000001,3.6,-10.3,9.600000000000001
1698415505236.0,16,-0.6000000000000001,0.1,-1.4000000000000001,-1.3,9.5,-1.0,3.8,-10.9,9.8
1698415505252.0,16,-0.9,0.1,-1.6,-1.6,9.600000000000001,-1.2000000000000002,4.5,-14.600000000000001,8.9
1698415505269.0,16,-1.2000000000000002,0.1,-1.7000000000000002,-1.9000000000000001,9.600000000000001,-1.3,5.6,-20.4,7.1000000000000005
1698415505286.0,16,-0.5,1.1,-0.5,-1.2000000000000002,10.600000000000001,-0.1,-2.1999999999999997,-26.200000000000003,3.6
1698415505303.0,16,0.0,1.1,0.4,-0.7000000000000001,10.600000000000001,0.8,-2.6,-24.3,1.8
1698415505319.0,16,0.7000000000000001,1.2000000000000002,-0.8,0.1,10.700000000000001,-0.5,5.6,-8.3,2.4000000000000004
1698415505337.0,16,0.30000000000000004,0.5,-1.0,-0.30000000000000004,10.0,-0.7000000000000001,7.6,-12.4,0.6000000000000001
1698415505353.0,16,-0.6000000000000001,0.30000000000000004,-0.2,-1.3,9.8,0.1,4.6000000000000005,-25.8,-1.2000000000000002
1698415505368.0,16,-0.7000000000000001,0.9,-0.7000000000000001,-1.4000000000000001,10.4,-0.4,4.800000000000001,-22.7,-1.7
1698415505386.0,16,-0.6000000000000001,1.1,-0.6000000000000001,-1.2000000000000002,10.600000000000001,-0.30000000000000004,4.800000000000001,-18.8,-1.5000000000000002
1698415505402.0,16,-0.30000000000000004,1.4000000000000001,-0.1,-1.0,11.0,0.2,4.7,-20.7,-3.5
1698415505420.0,16,0.9,2.7,1.0,0.2,12.3,1.4000000000000001,-7.699999999999999,-22.1,-7.1000000000000005
1698415505438.0,16,1.2000000000000002,3.3000000000000003,1.4000000000000001,0.6000000000000001,12.9,1.7000000000000002,-7.0,-11.5,-8.3
1698415505454.0,16,0.6000000000000001,0.5,0.30000000000000004,-0.2,10.100000000000001,0.7000000000000001,9.8,-0.6000000000000001,-5.1
1698415505470.0,16,-1.5,-0.1,-0.5,-2.2,9.4,-0.1,9.0,-7.0,-4.6000000000000005
1698415505485.0,16,-1.5,0.1,-0.2,-2.3000000000000003,9.700000000000001,0.1,6.7,-11.000000000000002,-2.9
1698415505504.0,16,-0.4,0.0,0.30000000000000004,-1.1,9.600000000000001,0.6000000000000001,5.500000000000001,-14.4,-2.4000000000000004
1698415505519.0,16,0.6000000000000001,-0.9,0.6000000000000001,-0.2,8.700000000000001,0.9,6.2,-15.7,-3.8
1698415505537.0,16,0.8,-0.9,0.6000000000000001,0.0,8.700000000000001,0.9,6.3,-13.100000000000001,-1.8
1698415505553.0,16,0.6000000000000001,-0.7000000000000001,0.6000000000000001,-0.1,8.8,0.9,6.4,-12.000000000000002,0.1
1698415505569.0,16,0.4,-0.30000000000000004,0.8,-0.30000000000000004,9.200000000000001,1.0,7.2,-6.6000000000000005,4.5
1698415505585.0,16,0.4,-0.2,0.8,-0.30000000000000004,9.3,1.0,7.9,-3.7000000000000006,6.3
1698415505603.0,16,0.2,-0.4,1.0,-0.5,9.1,1.2000000000000002,9.0,-3.9,9.0
1698415505621.0,16,0.30000000000000004,-0.7000000000000001,1.2000000000000002,-0.30000000000000004,8.9,1.4000000000000001,7.699999999999999,-8.3,10.8
1698415505636.0,16,0.30000000000000004,-0.8,1.3,-0.30000000000000004,8.700000000000001,1.5,5.500000000000001,-14.900000000000002,13.4
1698415505652.0,16,0.4,-0.8,1.3,-0.2,8.8,1.5,4.6000000000000005,-17.400000000000002,14.100000000000001
1698415505669.0,16,0.5,-0.7000000000000001,1.3,-0.1,8.8,1.5,3.7000000000000006,-20.900000000000002,14.600000000000001
1698415505685.0,16,0.5,-0.5,1.0,0.1,9.0,1.2000000000000002,3.1,-21.3,14.4
1698415505702.0,16,0.6000000000000001,-0.4,0.9,0.1,9.1,1.1,2.5,-21.1,14.0
1698415505719.0,16,0.9,0.0,0.8,0.5,9.5,1.0,2.0,-19.400000000000002,13.100000000000001
1698415505735.0,16,1.1,0.1,0.4,0.7000000000000001,9.600000000000001,0.6000000000000001,2.9,-14.0,11.5
1698415505752.0,16,0.9,0.2,0.4,0.6000000000000001,9.8,0.6000000000000001,2.4000000000000004,-10.5,11.4
1698415505769.0,16,0.1,0.6000000000000001,0.5,-0.1,10.100000000000001,0.7000000000000001,2.1,-6.000000000000001,12.5
1698415505785.0,16,-0.4,0.30000000000000004,0.30000000000000004,-0.6000000000000001,9.9,0.5,1.5000000000000002,-9.5,14.800000000000002
1698415505804.0,16,-0.30000000000000004,0.0,0.4,-0.5,9.600000000000001,0.6000000000000001,0.6000000000000001,-12.100000000000001,15.100000000000001
1698415505819.0,16,0.1,-0.5,0.4,-0.1,9.1,0.6000000000000001,0.1,-16.0,14.800000000000002
1698415505836.0,16,0.30000000000000004,-0.6000000000000001,0.30000000000000004,0.1,8.9,0.5,0.0,-16.6,14.500000000000002
1698415505852.0,16,0.6000000000000001,-0.6000000000000001,0.1,0.5,8.9,0.30000000000000004,-0.8,-15.5,12.9
1698415505869.0,16,0.6000000000000001,-0.4,-0.1,0.6000000000000001,9.1,0.1,-1.7,-13.200000000000001,10.4
1698415505886.0,16,0.5,-0.30000000000000004,-0.30000000000000004,0.6000000000000001,9.200000000000001,0.0,-2.1,-11.6,9.8
1698415505903.0,16,0.4,-0.30000000000000004,-0.4,0.4,9.3,-0.2,-3.0000000000000004,-10.8,8.1
1698415505920.0,16,0.30000000000000004,-0.30000000000000004,-0.5,0.30000000000000004,9.3,-0.2,-5.4,-10.8,5.9
1698415505937.0,16,0.30000000000000004,-0.4,-0.30000000000000004,0.30000000000000004,9.0,0.0,-6.4,-10.5,4.300000000000001
1698415505953.0,16,0.2,-0.5,-0.30000000000000004,0.30000000000000004,9.0,0.0,-6.8,-10.3,2.3000000000000003
1698415505969.0,16,0.4,-0.5,-0.4,0.5,9.1,-0.2,-7.2,-10.0,1.7
1698415505985.0,16,0.8,-0.4,-0.4,0.9,9.1,-0.1,-6.000000000000001,-9.0,0.6000000000000001
1698415506003.0,16,0.9,-0.4,-0.4,1.0,9.1,-0.30000000000000004,-4.6000000000000005,-7.699999999999999,-0.1
1698415506018.0,16,0.8,-0.5,-0.6000000000000001,0.9,9.1,-0.30000000000000004,-2.9,-4.5,-2.5
1698415506035.0,16,0.6000000000000001,-0.5,-0.7000000000000001,0.7000000000000001,9.0,-0.4,-1.5000000000000002,1.4,-5.2
1698415506052.0,16,0.5,-0.5,-0.8,0.6000000000000001,9.0,-0.5,-1.8,5.6,-6.5
1698415506069.0,16,0.5,-0.4,-0.7000000000000001,0.5,9.1,-0.4,-2.1999999999999997,11.1,-8.799999999999999
1698415506086.0,16,0.2,-0.4,-0.7000000000000001,0.2,9.1,-0.4,-0.30000000000000004,12.8,-11.4
1698415506102.0,16,0.1,-0.4,-0.7000000000000001,0.1,9.1,-0.4,0.5,12.9,-12.3
1698415506119.0,16,0.0,-0.2,-0.8,-0.1,9.3,-0.5,1.4,11.4,-12.8
1698415506136.0,16,0.0,-0.1,-0.8,-0.1,9.4,-0.5,0.6000000000000001,9.0,-12.3
1698415506153.0,16,0.4,-0.1,-0.8,0.2,9.4,-0.5,-1.0999999999999999,5.8,-11.8
1698415506170.0,16,0.6000000000000001,0.0,-0.9,0.4,9.5,-0.6000000000000001,-1.0999999999999999,5.8,-11.8
1698415506185.0,16,0.9,0.30000000000000004,-1.2000000000000002,0.7000000000000001,9.8,-0.9,2.0,14.0,-12.3
1698415506203.0,16,1.0,0.4,-1.4000000000000001,0.7000000000000001,9.9,-1.2000000000000002,4.3999999999999995,21.8,-12.100000000000001
1698415506219.0,16,0.9,0.9,-1.3,0.7000000000000001,10.4,-1.1,4.800000000000001,38.300000000000004,-8.9
1698415506236.0,16,0.1,2.0,-0.7000000000000001,-0.2,11.5,-0.5,1.8,43.900000000000006,-4.0
1698415506254.0,16,-0.5,1.8,-0.7000000000000001,-0.8,11.3,-0.5,5.8,23.700000000000003,-1.8
1698415506270.0,16,-0.4,1.2000000000000002,-0.4,-0.7000000000000001,10.700000000000001,-0.30000000000000004,5.8,17.200000000000003,-1.5000000000000002
1698415506286.0,16,0.1,0.7000000000000001,0.0,-0.2,10.200000000000001,0.2,3.1,25.6,-1.5000000000000002
1698415506302.0,16,0.30000000000000004,0.5,-0.2,0.0,10.100000000000001,-0.1,3.6,24.3,-2.8
1698415506319.0,16,0.5,0.30000000000000004,-0.4,0.2,9.8,-0.30000000000000004,4.5,20.1,-4.9
1698415506335.0,16,0.30000000000000004,0.30000000000000004,-0.30000000000000004,-0.1,9.8,-0.2,5.9,22.6,-3.7000000000000006
1698415506352.0,16,0.30000000000000004,0.2,-0.4,0.0,9.700000000000001,-0.30000000000000004,5.300000000000001,28.200000000000003,-1.5000000000000002
1698415506369.0,16,-0.1,1.0,0.2,-0.4,10.600000000000001,0.30000000000000004,2.0,31.4,0.30000000000000004
1698415506385.0,16,-0.7000000000000001,2.0,1.2000000000000002,-1.0,11.600000000000001,1.3,-2.0,32.6,3.6
1698415506403.0,16,-0.6000000000000001,1.7000000000000002,1.3,-0.6000000000000001,10.8,1.3,0.8,31.7,-0.2
1698415506419.0,16,0.4,0.7000000000000001,1.2000000000000002,0.0,10.3,1.3,1.0999999999999999,33.400000000000006,-2.0
1698415506436.0,16,0.9,-0.1,1.2000000000000002,0.6000000000000001,9.5,1.3,1.8,33.800000000000004,-5.7
1698415506452.0,16,0.9,-0.4,1.1,0.5,9.200000000000001,1.2000000000000002,1.6,34.0,-6.9
1698415506469.0,16,0.5,-1.3,1.2000000000000002,0.1,8.3,1.3,0.2,36.6,-8.1
1698415506485.0,16,-0.2,-1.8,1.2000000000000002,-0.5,7.7,1.3,-2.4000000000000004,38.900000000000006,-8.799999999999999
1698415506502.0,16,-0.8,-1.6,1.3,-1.2000000000000002,8.0,1.4000000000000001,-5.9,40.0,-9.700000000000001
1698415506519.0,16,-1.1,-1.4000000000000001,1.2000000000000002,-1.6,8.200000000000001,1.4000000000000001,-7.0,39.400000000000006,-10.4
1698415506538.0,16,-1.4000000000000001,-1.0,1.2000000000000002,-1.8,8.5,1.3,-7.6,37.0,-10.600000000000001
1698415506552.0,16,-1.1,-0.9,1.1,-1.6,8.6,1.3,-6.6000000000000005,33.5,-8.9
1698415506569.0,16,-0.7000000000000001,-0.5,0.9,-1.2000000000000002,9.0,1.1,-5.2,30.4,-8.0
1698415506587.0,16,-0.4,-0.30000000000000004,0.8,-1.0,9.200000000000001,1.0,-0.8,23.5,-5.6
1698415506602.0,16,-0.30000000000000004,-0.1,0.6000000000000001,-0.9,9.4,0.8,1.5000000000000002,19.9,-2.9
1698415506619.0,16,-0.30000000000000004,0.2,0.7000000000000001,-0.9,9.700000000000001,0.9,1.6,18.0,-2.1
1698415506636.0,16,-0.5,0.6000000000000001,0.6000000000000001,-1.1,10.200000000000001,0.8,2.5,16.3,-1.8
1698415506652.0,16,-0.5,0.5,0.5,-1.2000000000000002,10.0,0.7000000000000001,2.5,15.6,-3.2
1698415506669.0,16,-0.4,0.30000000000000004,0.4,-1.1,9.8,0.6000000000000001,2.0,15.399999999999999,-4.1000000000000005
1698415506685.0,16,-0.30000000000000004,-0.2,0.5,-1.0,9.4,0.7000000000000001,0.6000000000000001,16.6,-6.000000000000001
1698415506702.0,16,-0.4,-0.4,0.30000000000000004,-1.1,9.1,0.5,0.0,17.200000000000003,-6.5
1698415506719.0,16,-0.5,-0.5,0.30000000000000004,-1.2000000000000002,9.1,0.4,-0.2,16.0,-6.6000000000000005
1698415506736.0,16,-0.7000000000000001,-0.5,0.2,-1.4000000000000001,9.0,0.4,-0.30000000000000004,13.9,-5.9
1698415506753.0,16,-0.7000000000000001,-0.5,0.1,-1.5,9.0,0.30000000000000004,-0.30000000000000004,11.8,-5.0
1698415506770.0,16,-0.6000000000000001,-0.4,0.1,-1.4000000000000001,9.1,0.30000000000000004,-0.2,10.4,-4.300000000000001
1698415506786.0,16,-0.6000000000000001,-0.5,0.1,-1.4000000000000001,9.0,0.30000000000000004,0.30000000000000004,6.6000000000000005,-3.5
1698415506802.0,16,-0.6000000000000001,-0.5,0.1,-1.4000000000000001,9.1,0.2,0.5,5.0,-2.1999999999999997
1698415506819.0,16,-0.5,-0.4,-0.1,-1.3,9.1,0.1,0.5,3.0000000000000004,-1.2000000000000002
1698415506837.0,16,-0.6000000000000001,-0.2,-0.2,-1.4000000000000001,9.3,0.0,0.6000000000000001,1.5000000000000002,-0.4
1698415506853.0,16,-0.6000000000000001,-0.1,-0.2,-1.4000000000000001,9.4,-0.1,0.8,-0.5,0.4
1698415506869.0,16,-0.6000000000000001,-0.1,-0.5,-1.4000000000000001,9.4,-0.30000000000000004,1.8,-6.1000000000000005,2.3000000000000003
1698415506886.0,16,-0.5,-0.1,-0.6000000000000001,-1.3,9.4,-0.4,1.7,-7.6,2.6
1698415506902.0,16,-0.4,-0.2,-0.5,-1.2000000000000002,9.3,-0.4,0.9,-10.4,3.6
1698415506920.0,16,-0.30000000000000004,-0.2,-0.5,-1.1,9.200000000000001,-0.30000000000000004,0.7,-11.3,4.2
1698415506936.0,16,-0.2,-0.30000000000000004,-0.5,-0.9,9.200000000000001,-0.4,0.6000000000000001,-11.8,5.6
1698415506952.0,16,0.0,-0.30000000000000004,-0.5,-0.8,9.200000000000001,-0.4,0.4,-11.5,6.5
1698415506968.0,16,-0.1,-0.4,-0.5,-0.8,9.1,-0.30000000000000004,0.5,-10.5,6.6000000000000005
1698415506986.0,16,-0.1,-0.4,-0.6000000000000001,-0.8,9.1,-0.5,1.0,-8.1,6.5
1698415507002.0,16,-0.2,-0.4,-0.6000000000000001,-0.9,9.0,-0.5,0.8,-6.1000000000000005,6.3
1698415507019.0,16,-0.30000000000000004,-0.4,-0.6000000000000001,-1.0,9.1,-0.5,-0.2,-4.300000000000001,5.9
1698415507037.0,16,-0.4,-0.30000000000000004,-0.6000000000000001,-1.1,9.1,-0.5,-0.8,-3.6,5.7
1698415507052.0,16,-0.4,-0.30000000000000004,-0.6000000000000001,-1.1,9.1,-0.5,-0.9,-3.7000000000000006,6.1000000000000005
1698415507069.0,16,-0.4,-0.30000000000000004,-0.7000000000000001,-1.1,9.1,-0.6000000000000001,0.2,-4.7,6.5
1698415507086.0,16,-0.5,-0.2,-1.2000000000000002,-1.2000000000000002,9.200000000000001,-1.1,3.6,-10.5,7.1000000000000005
1698415507102.0,16,-0.6000000000000001,0.0,-1.5,-1.3,9.4,-1.5,7.9,-18.0,5.500000000000001
1698415507119.0,16,-0.7000000000000001,0.0,-1.7000000000000002,-1.4000000000000001,9.5,-1.7000000000000002,10.1,-21.5,3.4
1698415507137.0,16,-0.9,0.2,-2.0,-1.6,9.700000000000001,-2.0,13.100000000000001,-29.900000000000006,0.7
1698415507153.0,16,-0.8,1.2000000000000002,-1.5,-1.4000000000000001,10.600000000000001,-1.6,8.700000000000001,-37.2,-1.2000000000000002
1698415507169.0,16,-0.4,1.8,-0.7000000000000001,-0.6000000000000001,11.600000000000001,-0.2,5.300000000000001,-35.9,-3.4
1698415507185.0,16,0.30000000000000004,1.9000000000000001,0.1,-0.4,11.4,0.0,8.4,-29.400000000000002,-3.8
1698415507203.0,16,0.0,0.7000000000000001,-0.6000000000000001,-0.7000000000000001,10.200000000000001,-0.8,13.9,-22.900000000000002,-1.3
1698415507220.0,16,-0.2,0.8,-0.2,-0.9,10.3,-0.4,10.4,-31.2,3.8
1698415507235.0,16,0.1,1.1,-0.30000000000000004,-0.6000000000000001,10.600000000000001,-0.5,9.5,-30.9,5.9
1698415507252.0,16,0.4,1.6,-0.1,-0.30000000000000004,11.100000000000001,-0.4,9.4,-27.400000000000002,6.3
1698415507269.0,16,1.3,3.1,0.9,0.6000000000000001,12.700000000000001,0.7000000000000001,1.8,-31.7,1.6
1698415507285.0,16,1.8,3.4000000000000004,0.9,1.2000000000000002,12.9,0.7000000000000001,1.0999999999999999,-31.8,-1.2000000000000002
1698415507302.0,16,0.7000000000000001,1.2000000000000002,0.8,0.0,10.700000000000001,0.6000000000000001,13.9,-21.1,-0.2
1698415507318.0,16,-2.0,-0.1,-0.30000000000000004,-2.6,9.4,-0.6000000000000001,14.900000000000002,-24.8,2.1
1698415507335.0,16,-1.9000000000000001,0.0,0.5,-2.5,9.600000000000001,0.2,7.0,-39.9,9.5
1698415507352.0,16,-1.3,-0.30000000000000004,1.0,-1.9000000000000001,9.3,0.7000000000000001,4.800000000000001,-46.800000000000004,10.2
1698415507368.0,16,-0.2,-1.4000000000000001,1.4000000000000001,-0.8,8.1,1.1,2.0,-53.1,6.3
1698415507386.0,16,0.2,-1.7000000000000002,1.5,-0.4,7.800000000000001,1.2000000000000002,0.2,-53.1,4.800000000000001
1698415507402.0,16,1.3,-1.4000000000000001,1.5,0.7000000000000001,8.200000000000001,1.2000000000000002,-2.1999999999999997,-46.1,3.9
1698415507419.0,16,1.9000000000000001,-1.0,1.5,1.3,8.5,1.2000000000000002,-1.8,-34.7,5.4
1698415507436.0,16,1.9000000000000001,-0.8,1.5,1.4000000000000001,8.700000000000001,1.3,-0.5,-27.6,7.400000000000001
1698415507452.0,16,1.4000000000000001,-0.4,1.3,0.9,9.1,1.1,2.6,-14.600000000000001,11.8
1698415507469.0,16,0.9,-0.1,1.0,0.5,9.4,0.8,4.800000000000001,-8.799999999999999,14.100000000000001
1698415507486.0,16,0.8,-0.1,1.0,0.4,9.4,0.7000000000000001,5.6,-7.0,14.500000000000002
1698415507503.0,16,0.6000000000000001,0.0,0.8,0.2,9.5,0.6000000000000001,5.9,-3.9,13.4
1698415507519.0,16,0.4,0.1,0.8,0.1,9.600000000000001,0.6000000000000001,5.300000000000001,-2.5,12.700000000000001
1698415507536.0,16,0.30000000000000004,0.0,0.8,0.1,9.5,0.5,5.2,-1.9,11.8
1698415507552.0,16,0.4,-0.30000000000000004,0.7000000000000001,0.1,9.200000000000001,0.4,4.7,-2.9,12.200000000000001
1698415507569.0,16,0.5,-0.5,0.5,0.30000000000000004,9.1,0.30000000000000004,3.3000000000000003,-1.9,11.700000000000001
1698415507586.0,16,0.5,-0.5,0.4,0.4,9.0,0.1,2.1999999999999997,-2.3000000000000003,10.4
1698415507602.0,16,0.5,-0.5,0.30000000000000004,0.4,9.0,0.0,1.3,-2.0,9.3
1698415507619.0,16,0.6000000000000001,-0.4,0.2,0.4,9.1,-0.1,-0.7,-1.4,6.9
1698415507637.0,16,0.5,-0.30000000000000004,0.2,0.4,9.200000000000001,-0.1,-2.0,-0.30000000000000004,4.800000000000001
1698415507652.0,16,0.5,-0.2,0.1,0.4,9.3,-0.2,-2.8,0.6000000000000001,4.2
1698415507669.0,16,0.4,-0.2,0.0,0.4,9.4,-0.2,-4.7,2.1999999999999997,3.5
1698415507685.0,16,0.30000000000000004,-0.2,-0.1,0.30000000000000004,9.3,-0.30000000000000004,-6.6000000000000005,2.7,3.4
1698415507704.0,16,0.30000000000000004,-0.2,-0.2,0.30000000000000004,9.3,-0.4,-7.500000000000001,2.9,3.8
1698415507719.0,16,0.4,-0.30000000000000004,-0.2,0.30000000000000004,9.200000000000001,-0.4,-8.5,2.8,3.8
1698415507736.0,16,0.30000000000000004,-0.4,-0.30000000000000004,0.30000000000000004,9.1,-0.5,-9.0,2.3000000000000003,3.7000000000000006
1698415507753.0,16,0.4,-0.4,-0.30000000000000004,0.4,9.1,-0.5,-9.8,1.7,3.2
1698415507769.0,16,0.7000000000000001,0.0,-0.6000000000000001,0.7000000000000001,9.5,-0.7000000000000001,-9.5,1.0,0.9
1698415507785.0,16,1.0,0.1,-0.5,0.9,9.600000000000001,-0.6000000000000001,-8.5,2.0,-2.4000000000000004
1698415507802.0,16,0.9,0.0,-0.6000000000000001,0.9,9.5,-0.7000000000000001,-7.500000000000001,3.6,-4.0
1698415507820.0,16,0.6000000000000001,-0.1,-0.8,0.6000000000000001,9.4,-0.9,-6.8,6.3,-6.6000000000000005
1698415507836.0,16,0.5,-0.1,-0.8,0.5,9.4,-0.9,-6.9,7.699999999999999,-7.0
1698415507852.0,16,0.4,0.0,-0.7000000000000001,0.4,9.5,-0.8,-7.1000000000000005,10.0,-8.200000000000001
1698415507869.0,16,0.30000000000000004,-0.1,-0.8,0.2,9.4,-0.8,-5.1,10.5,-9.0
1698415507886.0,16,0.30000000000000004,-0.2,-0.8,0.2,9.3,-0.8,-3.1,8.600000000000001,-9.0
1698415507902.0,16,0.30000000000000004,-0.30000000000000004,-0.8,0.2,9.200000000000001,-0.8,-2.1999999999999997,8.200000000000001,-9.200000000000001
1698415507920.0,16,0.6000000000000001,-0.30000000000000004,-0.9,0.4,9.200000000000001,-1.0,-1.3,6.4,-9.200000000000001
1698415507936.0,16,0.7000000000000001,-0.30000000000000004,-0.9,0.5,9.200000000000001,-0.9,-1.3,6.1000000000000005,-9.600000000000001
1698415507952.0,16,0.7000000000000001,-0.30000000000000004,-0.9,0.5,9.200000000000001,-1.0,-1.0999999999999999,6.3,-9.8
1698415507969.0,16,0.7000000000000001,-0.30000000000000004,-1.0,0.5,9.200000000000001,-1.0,-0.2,7.699999999999999,-10.1
1698415507985.0,16,0.6000000000000001,-0.4,-1.1,0.4,9.1,-1.2000000000000002,1.7,12.8,-10.1
1698415508002.0,16,0.6000000000000001,-0.4,-1.3,0.4,9.1,-1.4000000000000001,3.4,16.5,-9.8
1698415508019.0,16,0.7000000000000001,-0.30000000000000004,-1.7000000000000002,0.5,9.1,-1.8,7.2,25.2,-8.3
1698415508037.0,16,0.8,0.0,-2.0,0.6000000000000001,9.1,-2.0,9.0,29.900000000000006,-7.300000000000001
1698415508052.0,16,0.5,1.0,-1.6,0.2,10.5,-1.8,2.3000000000000003,40.8,-3.4
1698415508069.0,16,-0.8,2.6,0.9,-1.0,12.100000000000001,0.8,-2.9,34.0,3.6
1698415508085.0,16,-1.2000000000000002,1.0,-0.5,-1.5,10.5,-0.7000000000000001,10.5,2.4000000000000004,2.9
1698415508103.0,16,-0.1,0.8,-0.7000000000000001,-0.4,10.3,-0.9,4.7,2.4000000000000004,1.4
1698415508120.0,16,0.6000000000000001,0.9,0.7000000000000001,0.30000000000000004,10.4,0.5,0.6000000000000001,16.1,-7.6
1698415508136.0,16,0.5,0.9,-0.1,0.1,10.4,-0.30000000000000004,4.0,16.3,-10.700000000000001
1698415508152.0,16,0.30000000000000004,0.30000000000000004,-0.30000000000000004,-0.1,9.8,-0.5,6.4,20.2,-7.6
1698415508169.0,16,0.2,0.1,-0.1,-0.2,9.600000000000001,-0.4,7.2,21.8,-5.7
1698415508186.0,16,0.2,0.4,0.1,-0.1,9.9,-0.2,4.2,28.900000000000002,-1.5000000000000002
1698415508202.0,16,0.1,0.8,0.8,-0.30000000000000004,10.3,0.5,0.8,31.7,-0.9
1698415508219.0,16,-0.7000000000000001,1.5,1.6,-1.1,11.0,1.3,-1.0999999999999999,37.800000000000004,-3.8
1698415508235.0,16,-0.6000000000000001,1.3,1.6,-0.9,10.9,1.3,-0.2,39.50000000000001,-5.7
1698415508252.0,16,0.30000000000000004,0.4,1.4000000000000001,-0.1,9.9,1.2000000000000002,1.0999999999999999,38.1,-7.699999999999999
1698415508269.0,16,0.7000000000000001,-0.30000000000000004,1.3,0.2,9.200000000000001,1.1,0.7,34.2,-9.8
1698415508285.0,16,0.4,-0.9,1.2000000000000002,-0.1,8.6,1.0,0.5,35.6,-11.9
1698415508302.0,16,0.1,-1.2000000000000002,1.3,-0.4,8.3,1.0,0.1,36.4,-12.5
1698415508318.0,16,-0.5,-1.4000000000000001,1.3,-1.0,8.1,1.1,-1.7,38.1,-13.8
1698415508336.0,16,-1.3,-0.8,1.2000000000000002,-1.9000000000000001,8.700000000000001,1.0,-4.9,35.4,-14.800000000000002
1698415508352.0,16,-1.6,-0.4,1.1,-2.2,9.1,0.9,-5.7,31.5,-15.399999999999999
1698415508369.0,16,-1.8,-0.1,1.1,-2.5,9.4,0.9,-4.7,20.5,-15.7
1698415508386.0,16,-1.2000000000000002,-0.1,1.0,-2.0,9.4,0.8,-2.5,9.5,-14.3
1698415508402.0,16,-0.7000000000000001,-0.1,0.9,-1.1,9.5,0.8,-0.9,1.2000000000000002,-12.000000000000002
1698415508419.0,16,0.1,-0.1,1.0,-0.7000000000000001,9.4,0.8,0.0,-1.6,-11.4
1698415508437.0,16,0.1,-0.30000000000000004,1.0,-0.7000000000000001,9.200000000000001,0.8,1.0999999999999999,-5.300000000000001,-10.9
1698415508453.0,16,0.0,-0.4,0.9,-0.9,9.1,0.8,1.0,-6.4,-11.2
1698415508469.0,16,-0.30000000000000004,-0.7000000000000001,0.9,-1.2000000000000002,8.8,0.8,0.0,-6.6000000000000005,-11.5
1698415508486.0,16,-0.30000000000000004,-0.9,0.8,-1.2000000000000002,8.6,0.6000000000000001,-1.2000000000000002,-4.3999999999999995,-11.9
1698415508502.0,16,-0.4,-0.8,0.7000000000000001,-1.4000000000000001,8.8,0.6000000000000001,-3.4,-3.0000000000000004,-11.4
1698415508519.0,16,-0.6000000000000001,-0.4,0.7000000000000001,-1.5,9.0,0.6000000000000001,-3.4,-3.3000000000000003,-10.4
1698415508536.0,16,-0.7000000000000001,0.0,0.6000000000000001,-1.7000000000000002,9.4,0.5,-1.0,-5.6,-7.500000000000001
1698415508552.0,16,-0.6000000000000001,0.0,0.4,-1.6,9.5,0.30000000000000004,2.0,-9.5,-3.1
1698415508569.0,16,-0.4,0.0,0.4,-1.5,9.5,0.30000000000000004,3.2,-11.8,-1.0
1698415508585.0,16,-0.2,0.0,0.2,-1.2000000000000002,9.5,0.1,4.0,-15.2,1.9
1698415508602.0,16,-0.30000000000000004,0.1,0.2,-1.3,9.600000000000001,0.1,3.1,-19.1,2.4000000000000004
1698415508619.0,16,-0.4,0.2,0.2,-1.4000000000000001,9.600000000000001,0.1,2.4000000000000004,-20.7,2.8
1698415508637.0,16,-0.4,0.2,0.30000000000000004,-1.4000000000000001,9.600000000000001,0.2,1.7,-22.7,4.300000000000001
1698415508652.0,16,-0.30000000000000004,0.1,0.2,-1.4000000000000001,9.600000000000001,0.1,1.4,-23.5,5.0
1698415508668.0,16,-0.30000000000000004,0.0,0.0,-1.4000000000000001,9.5,0.0,0.0,-26.500000000000004,6.3
1698415508686.0,16,-0.5,0.0,0.1,-1.5,9.4,0.0,-0.2,-27.400000000000002,6.9
1698415508702.0,16,-0.5,0.0,0.1,-1.5,9.5,0.0,-0.30000000000000004,-28.500000000000004,7.400000000000001
1698415508719.0,16,-0.30000000000000004,-0.1,-0.1,-1.3,9.4,-0.2,-0.5,-29.800000000000004,8.4
1698415508738.0,16,0.0,-0.2,-0.2,-1.0,9.3,-0.2,-1.3,-31.0,8.700000000000001
1698415508752.0,16,0.1,-0.30000000000000004,-0.2,-0.8,9.200000000000001,-0.2,-1.4,-31.900000000000002,8.700000000000001
1698415508769.0,16,0.1,-0.2,-0.2,-0.8,9.3,-0.30000000000000004,-1.3,-31.4,8.5
1698415508786.0,16,0.1,-0.1,-0.30000000000000004,-0.8,9.4,-0.30000000000000004,-1.4,-28.500000000000004,7.9
1698415508802.0,16,-0.2,0.0,-0.30000000000000004,-1.0,9.5,-0.4,-0.8,-26.500000000000004,7.9
1698415508821.0,16,-0.30000000000000004,0.0,-0.4,-1.1,9.5,-0.4,-0.7,-25.5,8.1
1698415508836.0,16,-0.5,0.0,-0.5,-1.3,9.5,-0.5,0.1,-24.9,8.4
1698415508853.0,16,-0.4,-0.1,-0.6000000000000001,-1.2000000000000002,9.4,-0.6000000000000001,0.5,-25.900000000000002,8.5
1698415508869.0,16,-0.30000000000000004,-0.2,-0.6000000000000001,-1.0,9.3,-0.6000000000000001,0.9,-28.0,9.0
1698415508885.0,16,-0.1,-0.2,-0.7000000000000001,-0.8,9.200000000000001,-0.7000000000000001,1.5000000000000002,-29.600000000000005,9.200000000000001
1698415508902.0,16,0.1,-0.30000000000000004,-0.9,-0.7000000000000001,9.1,-0.9,2.1999999999999997,-31.3,9.700000000000001
1698415508918.0,16,0.1,-0.2,-1.2000000000000002,-0.6000000000000001,9.200000000000001,-1.2000000000000002,3.0000000000000004,-32.6,9.8
1698415508935.0,16,0.0,-0.2,-1.3,-0.7000000000000001,9.3,-1.3,3.1,-33.0,9.5
1698415508953.0,16,-0.1,-0.1,-1.4000000000000001,-0.8,9.4,-1.4000000000000001,3.5,-33.0,9.200000000000001
1698415508969.0,16,-0.30000000000000004,0.0,-1.5,-0.9,9.5,-1.6,4.2,-34.1,8.1
1698415508986.0,16,-0.6000000000000001,0.1,-1.6,-1.2000000000000002,9.5,-1.7000000000000002,5.300000000000001,-35.199999999999996,6.2
1698415509002.0,16,-0.7000000000000001,-0.1,-1.7000000000000002,-1.3,9.4,-1.8,7.300000000000001,-38.800000000000004,5.500000000000001
1698415509019.0,16,-0.7000000000000001,-0.2,-1.7000000000000002,-1.3,9.3,-1.8,8.3,-41.1,5.500000000000001
1698415509036.0,16,-0.4,0.2,-1.6,-0.9,9.700000000000001,-1.8,7.9,-44.5,6.1000000000000005
1698415509052.0,16,0.9,1.1,-0.5,0.30000000000000004,10.600000000000001,-0.6000000000000001,-1.0,-45.9,2.7
1698415509070.0,16,1.3,1.3,0.0,0.8,10.8,-0.2,-0.2,-37.2,2.0
1698415509086.0,16,1.0,0.2,0.0,0.4,9.700000000000001,-0.2,9.1,-14.4,1.5000000000000002
1698415509102.0,16,-0.30000000000000004,0.0,-0.5,-0.8,9.5,-0.7000000000000001,5.8,-14.900000000000002,-0.2
1698415509120.0,16,0.30000000000000004,0.4,0.1,-0.2,9.9,-0.1,0.9,-15.000000000000002,4.0
1698415509135.0,16,0.6000000000000001,0.6000000000000001,0.0,0.1,10.100000000000001,-0.2,2.1999999999999997,-12.100000000000001,4.9
1698415509152.0,16,0.5,0.7000000000000001,-0.30000000000000004,-0.1,10.200000000000001,-0.5,4.0,-10.5,0.7
1698415509169.0,16,0.1,1.8,-0.30000000000000004,-0.5,11.3,-0.5,-1.0,-11.8,-8.799999999999999
1698415509187.0,16,0.5,2.4000000000000004,0.1,-0.1,11.9,-0.1,-4.300000000000001,-13.6,-12.100000000000001
1698415509202.0,16,0.7000000000000001,2.5,0.5,0.2,11.600000000000001,0.5,2.1999999999999997,-8.1,-9.600000000000001
1698415509219.0,16,0.5,1.2000000000000002,0.6000000000000001,-0.1,10.8,0.4,6.4,-9.1,-8.799999999999999
1698415509237.0,16,-0.6000000000000001,0.2,0.6000000000000001,-1.2000000000000002,9.700000000000001,0.30000000000000004,4.7,-9.1,-5.1
1698415509252.0,16,-0.4,-0.30000000000000004,0.7000000000000001,-1.1,9.3,0.5,4.6000000000000005,-9.1,-3.8
1698415509269.0,16,-0.2,-0.6000000000000001,0.7000000000000001,-0.8,8.9,0.5,4.1000000000000005,-8.5,-2.6
1698415509285.0,16,0.4,-1.1,0.9,-0.30000000000000004,8.4,0.7000000000000001,2.8,-4.7,-0.30000000000000004
1698415509302.0,16,0.8,-1.1,1.0,0.1,8.5,0.8,0.7,-1.6,3.6
1698415509320.0,16,1.0,-1.0,1.1,0.6000000000000001,8.8,1.0,-0.8,0.6000000000000001,5.9
1698415509336.0,16,1.3,-0.6000000000000001,1.2000000000000002,0.7000000000000001,8.9,1.0,-2.6,6.1000000000000005,10.4
1698415509352.0,16,1.3,-0.4,1.2000000000000002,0.7000000000000001,9.1,1.0,-2.3000000000000003,9.700000000000001,12.5
1698415509369.0,16,1.0,-0.30000000000000004,1.2000000000000002,0.5,9.200000000000001,1.0,-2.4000000000000004,11.000000000000002,12.4
1698415509386.0,16,0.4,-0.30000000000000004,1.1,-0.1,9.200000000000001,1.0,-2.1,14.4,9.700000000000001
1698415509404.0,16,0.0,-0.30000000000000004,1.0,-0.4,9.200000000000001,0.8,-0.8,15.000000000000002,6.2
1698415509421.0,16,-0.1,-0.30000000000000004,0.8,-0.5,9.200000000000001,0.7000000000000001,-0.2,15.5,4.3999999999999995
1698415509438.0,16,0.0,0.1,0.6000000000000001,-0.4,9.700000000000001,0.5,-0.30000000000000004,18.1,1.4
1698415509452.0,16,0.1,0.30000000000000004,0.6000000000000001,-0.30000000000000004,9.8,0.4,1.4,20.900000000000002,1.5000000000000002
1698415509470.0,16,0.2,0.2,0.6000000000000001,-0.2,9.8,0.4,2.6,21.200000000000003,2.6
1698415509486.0,16,0.1,0.1,0.5,-0.2,9.600000000000001,0.30000000000000004,2.6,22.6,5.500000000000001
1698415509502.0,16,0.2,0.0,0.5,-0.2,9.5,0.4,1.7,22.7,6.000000000000001
1698415509519.0,16,0.1,-0.1,0.6000000000000001,-0.2,9.5,0.4,1.0,21.8,6.3
1698415509535.0,16,0.30000000000000004,-0.2,0.5,-0.1,9.4,0.30000000000000004,0.30000000000000004,20.7,7.0
1698415509552.0,16,0.30000000000000004,-0.30000000000000004,0.5,0.0,9.200000000000001,0.30000000000000004,-0.7,20.2,6.2
1698415509569.0,16,0.4,-0.30000000000000004,0.30000000000000004,0.1,9.200000000000001,0.1,-1.0999999999999999,20.0,5.4
1698415509586.0,16,0.4,-0.2,0.30000000000000004,0.1,9.3,0.1,-1.3,20.2,4.9
1698415509602.0,16,0.5,-0.1,0.2,0.2,9.4,0.0,-0.8,20.1,3.4
1698415509619.0,16,0.4,-0.1,0.1,0.1,9.4,-0.1,-0.30000000000000004,21.0,1.9
1698415509635.0,16,0.4,-0.1,0.0,0.2,9.5,-0.1,-0.1,21.400000000000002,1.5000000000000002
1698415509653.0,16,0.5,0.0,0.0,0.2,9.600000000000001,-0.1,-0.30000000000000004,21.700000000000003,0.4
1698415509669.0,16,0.5,0.1,0.0,0.1,9.700000000000001,-0.30000000000000004,0.0,22.4,-1.2000000000000002
1698415509686.0,16,0.30000000000000004,0.1,-0.1,0.1,9.700000000000001,-0.30000000000000004,-0.1,23.0,-1.4
1698415509702.0,16,0.30000000000000004,0.0,-0.2,0.0,9.5,-0.4,-0.8,24.1,-1.6
1698415509719.0,16,0.4,0.0,-0.30000000000000004,0.1,9.5,-0.4,-1.9,25.900000000000002,-1.3
1698415509736.0,16,0.4,-0.1,-0.2,0.2,9.4,-0.30000000000000004,-2.5,26.8,-1.3
1698415509752.0,16,0.30000000000000004,-0.30000000000000004,-0.1,0.0,9.200000000000001,-0.30000000000000004,-2.9,28.8,-1.9
1698415509769.0,16,0.2,-0.4,-0.2,-0.1,9.1,-0.4,-2.8,30.4,-2.0
1698415509785.0,16,0.2,-0.4,-0.2,-0.1,9.1,-0.30000000000000004,-2.7,30.9,-2.0
1698415509802.0,16,0.2,-0.5,-0.2,-0.1,9.0,-0.30000000000000004,-1.6,31.6,-2.1
1698415509820.0,16,0.0,-0.6000000000000001,-0.4,-0.2,8.9,-0.5,-0.1,32.6,-2.6
1698415509836.0,16,0.30000000000000004,-0.1,-0.6000000000000001,0.0,9.4,-0.7000000000000001,-0.30000000000000004,33.400000000000006,-3.0000000000000004
1698415509852.0,16,0.6000000000000001,0.2,-0.6000000000000001,0.30000000000000004,9.700000000000001,-0.8,-0.30000000000000004,34.300000000000004,-3.7000000000000006
1698415509869.0,16,0.9,0.4,-0.6000000000000001,0.6000000000000001,9.9,-0.8,0.9,38.1,-6.5
1698415509885.0,16,0.7000000000000001,0.2,-0.6000000000000001,0.4,9.700000000000001,-0.8,2.5,41.6,-8.5
1698415509902.0,16,0.6000000000000001,0.2,-0.6000000000000001,0.30000000000000004,9.700000000000001,-0.8,3.7000000000000006,42.5,-8.600000000000001
1698415509919.0,16,0.30000000000000004,0.0,-0.6000000000000001,0.0,9.5,-0.8,7.2,45.0,-8.4
1698415509936.0,16,0.2,0.0,-0.7000000000000001,-0.2,9.5,-1.0,8.700000000000001,46.1,-8.600000000000001
1698415509952.0,16,0.0,-0.1,-1.1,-0.4,9.4,-1.4000000000000001,9.3,49.2,-9.600000000000001
1698415509969.0,16,0.0,-0.1,-1.1,-0.4,9.4,-1.4000000000000001,7.6,48.2,-9.1
1698415509985.0,16,0.2,-0.1,-1.1,-0.2,9.4,-1.5,6.9,47.2,-8.3
1698415510002.0,16,0.4,-0.2,-1.1,-0.1,9.4,-1.3,3.9,47.7,-7.699999999999999
1698415510019.0,16,0.2,0.2,-0.5,-0.2,9.700000000000001,-0.9,2.8,48.6,-7.6
1698415510035.0,16,-0.7000000000000001,0.5,-0.2,-1.2000000000000002,10.0,-0.6000000000000001,2.1999999999999997,47.300000000000004,-8.1
1698415510052.0,16,-1.0,0.30000000000000004,0.0,-1.5,9.8,-0.4,5.500000000000001,40.3,-7.6
1698415510068.0,16,-0.6000000000000001,0.0,-0.30000000000000004,-1.1,9.5,-0.8,7.2,35.4,-7.300000000000001
1698415510085.0,16,0.30000000000000004,0.30000000000000004,-0.2,-0.2,9.8,-0.6000000000000001,2.4000000000000004,34.0,-7.400000000000001
1698415510102.0,16,0.4,0.5,0.0,-0.2,10.0,-0.5,1.5000000000000002,35.1,-8.5
1698415510119.0,16,-0.4,0.9,0.1,-0.9,10.4,-0.4,1.9,34.900000000000006,-8.0
1698415510135.0,16,-0.9,1.4000000000000001,0.30000000000000004,-1.5,10.9,-0.2,0.0,36.2,-5.2
1698415510153.0,16,-1.8,2.5,0.7000000000000001,-2.3000000000000003,12.0,0.2,-1.9,39.2,1.5000000000000002
1698415510169.0,16,-0.7000000000000001,1.0,0.4,-1.2000000000000002,10.5,-0.1,3.3000000000000003,32.7,3.8
1698415510185.0,16,1.2000000000000002,0.2,0.30000000000000004,0.6000000000000001,9.700000000000001,-0.2,1.5000000000000002,34.0,1.2000000000000002
1698415510202.0,16,1.2000000000000002,0.0,0.4,0.7000000000000001,9.5,-0.1,0.5,36.7,-1.0
1698415510219.0,16,0.8,-0.4,0.5,0.30000000000000004,9.200000000000001,0.0,-0.7,42.800000000000004,-1.5000000000000002
1698415510236.0,16,0.4,-0.7000000000000001,0.6000000000000001,-0.1,8.9,0.1,-1.4,45.800000000000004,-1.0
1698415510252.0,16,-0.5,-1.1,0.7000000000000001,-1.1,8.4,0.2,-2.7,50.9,0.30000000000000004
1698415510269.0,16,-1.2000000000000002,-1.1,0.6000000000000001,-1.7000000000000002,8.4,0.1,-4.0,50.4,1.0
1698415510286.0,16,-1.3,-0.9,0.6000000000000001,-1.8,8.6,0.1,-5.0,44.2,1.3
1698415510302.0,16,-1.1,-0.8,0.7000000000000001,-1.6,8.700000000000001,0.2,-5.2,40.9,1.0
1698415510320.0,16,-0.6000000000000001,-0.30000000000000004,0.8,-1.1,9.200000000000001,0.30000000000000004,-5.4,34.6,-0.7
1698415510336.0,16,-0.30000000000000004,0.1,1.0,-0.8,9.600000000000001,0.5,-5.2,30.000000000000004,-2.1
1698415510352.0,16,-0.2,0.2,1.0,-0.7000000000000001,9.700000000000001,0.6000000000000001,-5.2,28.700000000000003,-2.8
1698415510369.0,16,-0.2,0.30000000000000004,1.1,-0.7000000000000001,9.8,0.7000000000000001,-5.8,28.900000000000002,-2.9
1698415510385.0,16,-0.2,0.4,1.2000000000000002,-0.7000000000000001,9.9,0.8,-7.6,31.8,-2.6
1698415510402.0,16,-0.2,0.4,1.2000000000000002,-0.7000000000000001,9.9,0.8,-8.600000000000001,34.2,-2.6
1698415510419.0,16,-0.30000000000000004,0.30000000000000004,1.1,-0.8,9.8,0.8,-10.1,38.7,-3.0000000000000004
1698415510436.0,16,-0.30000000000000004,0.2,1.0,-0.9,9.700000000000001,0.7000000000000001,-11.3,41.9,-3.6
1698415510452.0,16,-0.4,0.1,0.9,-0.9,9.700000000000001,0.6000000000000001,-11.9,43.300000000000004,-4.1000000000000005
1698415510469.0,16,-0.6000000000000001,0.0,0.9,-1.1,9.5,0.7000000000000001,-13.5,46.1,-4.9
1698415510485.0,16,-0.9,-0.2,0.8,-1.5,9.4,0.5,-13.3,47.1,-6.000000000000001
1698415510502.0,16,-1.1,-0.2,0.6000000000000001,-1.7000000000000002,9.3,0.4,-12.5,47.5,-6.3
1698415510519.0,16,-1.0,-0.2,0.5,-1.7000000000000002,9.3,0.30000000000000004,-11.9,46.4,-6.3
1698415510535.0,16,-0.8,-0.30000000000000004,0.30000000000000004,-1.4000000000000001,9.3,0.2,-10.700000000000001,42.6,-5.9
1698415510553.0,16,-0.4,-0.2,0.4,-1.1,9.4,0.30000000000000004,-11.000000000000002,40.3,-5.7
1698415510569.0,16,0.0,0.1,0.4,-0.6000000000000001,9.600000000000001,0.30000000000000004,-11.2,40.0,-6.7
1698415510586.0,16,0.0,0.0,0.4,-0.7000000000000001,9.5,0.4,-11.5,42.5,-7.300000000000001
1698415510603.0,16,-0.1,0.0,0.4,-0.8,9.5,0.4,-12.100000000000001,44.5,-7.2
1698415510620.0,16,-0.2,-0.1,0.5,-1.0,9.4,0.5,-13.5,48.9,-6.7
1698415510636.0,16,0.0,-0.4,0.5,-0.8,9.1,0.5,-13.8,53.6,-5.6
1698415510652.0,16,0.2,-0.5,0.4,-0.6000000000000001,9.0,0.4,-13.9,55.900000000000006,-5.2
1698415510669.0,16,0.1,-0.30000000000000004,0.4,-0.6000000000000001,9.200000000000001,0.5,-14.600000000000001,60.599999999999994,-4.1000000000000005
1698415510687.0,16,-0.2,0.0,0.30000000000000004,-1.0,9.4,0.4,-13.700000000000001,65.3,-2.5
1698415510702.0,16,-0.5,0.1,0.1,-1.2000000000000002,9.5,0.30000000000000004,-12.6,66.7,-1.0999999999999999
1698415510719.0,16,-0.6000000000000001,0.0,0.0,-1.4000000000000001,9.5,0.1,-10.700000000000001,67.80000000000001,2.5
1698415510735.0,16,-0.5,0.0,0.1,-1.3,9.5,0.2,-10.2,68.5,4.6000000000000005
1698415510753.0,16,-0.5,0.0,0.2,-1.2000000000000002,9.5,0.30000000000000004,-9.600000000000001,68.0,5.300000000000001
1698415510769.0,16,-0.5,0.0,0.2,-1.2000000000000002,9.5,0.4,-8.5,65.60000000000001,5.6
1698415510785.0,16,-0.5,0.0,0.30000000000000004,-1.3,9.5,0.5,-8.0,63.800000000000004,3.8
1698415510803.0,16,-0.4,0.0,0.30000000000000004,-1.2000000000000002,9.5,0.5,-7.6,63.900000000000006,3.3000000000000003
1698415510819.0,16,-0.30000000000000004,0.0,0.30000000000000004,-1.0,9.5,0.5,-7.400000000000001,64.4,4.0
1698415510836.0,16,-0.2,-0.1,0.2,-1.0,9.4,0.4,-6.7,64.60000000000001,4.300000000000001
1698415510852.0,16,-0.4,0.0,0.2,-1.2000000000000002,9.5,0.4,-6.8,63.0,4.9
1698415510869.0,16,-0.5,0.1,0.2,-1.2000000000000002,9.600000000000001,0.4,-6.8,62.0,4.9
1698415510885.0,16,-0.5,0.0,0.2,-1.3,9.600000000000001,0.4,-6.2,60.300000000000004,4.300000000000001
1698415510902.0,16,-0.5,-0.1,0.1,-1.4000000000000001,9.4,0.4,-5.4,60.1,3.5
1698415510919.0,16,-0.5,-0.1,0.1,-1.4000000000000001,9.4,0.4,-4.9,59.7,3.1
1698415510936.0,16,-0.7000000000000001,-0.2,0.1,-1.5,9.3,0.4,-2.8,58.400000000000006,2.6
1698415510952.0,16,-0.9,-0.1,-0.2,-1.8,9.4,0.0,-0.2,55.2,2.9
1698415510970.0,16,-1.0,-0.1,-0.2,-1.9000000000000001,9.4,0.0,2.1,51.300000000000004,3.8
1698415510985.0,16,-1.1,-0.30000000000000004,-0.2,-1.9000000000000001,9.200000000000001,0.0,3.3000000000000003,49.2,4.5
1698415511002.0,16,-0.8,-0.4,-0.2,-1.7000000000000002,9.1,0.0,4.300000000000001,47.300000000000004,5.500000000000001
1698415511020.0,16,-0.7000000000000001,-0.30000000000000004,-0.2,-1.5,9.200000000000001,0.0,4.9,47.300000000000004,6.2
1698415511038.0,16,-0.6000000000000001,-0.30000000000000004,-0.1,-1.4000000000000001,9.200000000000001,0.0,6.3,46.800000000000004,8.1
1698415511052.0,16,-0.5,-0.30000000000000004,-0.1,-1.3,9.200000000000001,0.0,7.9,47.900000000000006,10.0
1698415511069.0,16,-0.5,-0.1,-0.1,-1.3,9.4,0.0,8.3,47.800000000000004,10.700000000000001
1698415511086.0,16,-0.4,0.1,-0.2,-1.2000000000000002,9.600000000000001,-0.1,9.4,48.7,12.000000000000002
1698415511102.0,16,-0.4,0.2,-0.1,-1.1,9.700000000000001,-0.1,9.600000000000001,48.2,12.6
1698415511119.0,16,-0.4,0.4,0.1,-1.1,9.9,0.0,8.799999999999999,47.800000000000004,11.8
1698415511135.0,16,-0.4,0.6000000000000001,0.2,-1.1,10.100000000000001,0.1,8.0,48.6,10.700000000000001
1698415511152.0,16,-0.6000000000000001,0.9,0.5,-1.3,10.4,0.4,6.000000000000001,50.1,7.300000000000001
1698415511168.0,16,-0.7000000000000001,0.9,0.5,-1.3,10.4,0.4,5.8,51.1,5.8
1698415511186.0,16,-0.9,0.30000000000000004,0.2,-1.5,9.8,0.1,6.7,47.2,4.3999999999999995
1698415511202.0,16,-1.2000000000000002,0.0,0.2,-1.8,9.600000000000001,0.0,5.500000000000001,39.50000000000001,2.1999999999999997
1698415511219.0,16,-1.3,0.0,0.30000000000000004,-1.9000000000000001,9.5,0.1,5.300000000000001,36.1,1.2000000000000002
1698415511235.0,16,-1.0,0.0,0.30000000000000004,-1.6,9.5,0.1,6.000000000000001,29.000000000000004,1.2000000000000002
1698415511252.0,16,-0.8,0.0,0.2,-1.4000000000000001,9.5,0.0,6.5,26.3,1.2000000000000002
1698415511269.0,16,-0.30000000000000004,-0.1,0.30000000000000004,-0.9,9.4,0.0,6.6000000000000005,23.400000000000002,2.6
1698415511285.0,16,0.1,-0.1,0.30000000000000004,-0.5,9.4,0.1,6.4,23.2,3.7000000000000006
1698415511314.0,16,0.1,0.0,0.5,-0.5,9.600000000000001,0.2,5.9,26.400000000000002,5.300000000000001
1698415511318.0,16,0.0,0.1,0.6000000000000001,-0.6000000000000001,9.600000000000001,0.2,5.9,27.900000000000002,5.7
1698415511338.0,16,-0.1,0.1,0.6000000000000001,-0.7000000000000001,9.600000000000001,0.30000000000000004,6.1000000000000005,29.1,6.000000000000001
1698415511352.0,16,-0.2,0.0,0.6000000000000001,-0.7000000000000001,9.600000000000001,0.2,6.9,30.4,6.9
1698415511369.0,16,-0.2,0.0,0.6000000000000001,-0.7000000000000001,9.5,0.30000000000000004,7.0,30.200000000000003,7.0
1698415511386.0,16,-0.1,-0.1,0.6000000000000001,-0.6000000000000001,9.5,0.2,7.6,30.200000000000003,7.0
1698415511402.0,16,0.0,-0.1,0.6000000000000001,-0.4,9.4,0.2,7.6,31.5,6.8
1698415511418.0,16,0.2,-0.2,0.6000000000000001,-0.2,9.3,0.30000000000000004,8.1,34.7,6.1000000000000005
1698415511436.0,16,0.2,-0.1,0.6000000000000001,-0.2,9.5,0.2,8.799999999999999,38.5,5.9
1698415511452.0,16,0.1,-0.1,0.6000000000000001,-0.2,9.5,0.2,9.4,40.1,6.000000000000001
1698415511468.0,16,0.1,0.0,0.6000000000000001,-0.2,9.5,0.1,10.3,43.0,6.8
1698415511485.0,16,0.1,0.0,0.6000000000000001,-0.2,9.5,0.1,10.1,44.4,7.1000000000000005
1698415511502.0,16,0.2,0.0,0.8,-0.1,9.5,0.30000000000000004,8.9,44.3,7.500000000000001
1698415511518.0,16,0.4,-0.1,0.8,0.1,9.4,0.30000000000000004,6.7,42.5,7.6
1698415511535.0,16,0.5,-0.1,1.0,0.2,9.4,0.5,4.2,40.3,5.4
1698415511552.0,16,0.6000000000000001,-0.30000000000000004,1.0,0.4,9.200000000000001,0.5,3.1,39.6,3.7000000000000006
1698415511568.0,16,0.8,-0.4,1.0,0.5,9.1,0.4,1.6,42.2,-0.4
1698415511586.0,16,0.8,-0.30000000000000004,1.0,0.6000000000000001,9.200000000000001,0.4,1.0999999999999999,44.3,-2.0
1698415511602.0,16,0.8,0.0,0.7000000000000001,0.6000000000000001,9.5,0.2,2.3000000000000003,50.0,-3.5
1698415511619.0,16,0.9,0.30000000000000004,0.5,0.7000000000000001,9.700000000000001,0.0,4.0,56.1,-4.1000000000000005
1698415511637.0,16,0.8,0.4,0.5,0.6000000000000001,9.9,-0.1,4.800000000000001,58.00000000000001,-4.0
1698415511652.0,16,0.4,0.4,0.30000000000000004,0.2,9.9,-0.30000000000000004,6.000000000000001,60.20000000000001,-3.8
1698415511670.0,16,0.30000000000000004,0.5,0.4,0.1,10.0,-0.2,3.9,58.9,-2.8
1698415511686.0,16,0.30000000000000004,0.4,0.5,0.1,9.9,-0.2,0.0,57.800000000000004,-2.0
1698415511705.0,16,0.5,0.2,0.7000000000000001,0.30000000000000004,9.8,0.1,-1.9,57.699999999999996,-1.8
1698415511721.0,16,0.6000000000000001,0.1,0.8,0.5,9.600000000000001,0.2,-4.1000000000000005,58.800000000000004,-1.2000000000000002
1698415511737.0,16,0.6000000000000001,0.0,0.7000000000000001,0.5,9.5,0.1,-5.2,61.599999999999994,0.6000000000000001
1698415511752.0,16,0.5,0.0,0.6000000000000001,0.4,9.5,0.1,-5.2,63.2,1.5000000000000002
1698415511768.0,16,0.4,0.0,0.4,0.2,9.5,-0.2,-5.2,67.2,3.5
1698415511785.0,16,0.4,0.0,0.30000000000000004,0.30000000000000004,9.5,-0.2,-5.2,68.80000000000001,4.6000000000000005
1698415511802.0,16,0.6000000000000001,0.1,0.2,0.5,9.600000000000001,-0.30000000000000004,-5.0,71.4,6.2
1698415511819.0,16,0.5,0.2,0.1,0.4,9.700000000000001,-0.4,-5.1,73.10000000000001,5.2
1698415511836.0,16,0.30000000000000004,0.2,0.1,0.30000000000000004,9.8,-0.4,-5.4,73.2,4.5
1698415511852.0,16,0.1,0.30000000000000004,0.1,0.1,9.8,-0.4,-5.500000000000001,73.30000000000001,3.2
1698415511868.0,16,-0.1,0.1,0.1,0.0,9.700000000000001,-0.4,-5.4,73.4,0.8
1698415511885.0,16,-0.1,0.1,0.0,-0.1,9.600000000000001,-0.4,-6.1000000000000005,74.5,-1.2000000000000002
1698415511902.0,16,0.0,-0.1,0.1,0.0,9.4,-0.30000000000000004,-6.6000000000000005,73.7,-2.1999999999999997
1698415511919.0,16,0.0,-0.30000000000000004,0.4,0.1,9.200000000000001,0.0,-6.000000000000001,71.7,-3.8
1698415511935.0,16,0.4,-0.6000000000000001,0.2,0.5,8.9,-0.2,-2.1,71.10000000000001,-3.6
1698415511952.0,16,0.8,-0.8,-0.2,0.9,8.700000000000001,-0.6000000000000001,-1.2000000000000002,72.10000000000001,-3.7000000000000006
1698415511969.0,16,1.1,-0.30000000000000004,0.2,1.1,9.200000000000001,-0.2,-0.8,78.9,-3.5
1698415511986.0,16,0.9,-0.2,-0.7000000000000001,1.1,9.3,-0.8,1.8,83.2,-5.2
1698415512004.0,16,0.8,-0.2,-0.6000000000000001,0.8,9.3,-0.9,3.4,92.8,-10.3
1698415512019.0,16,0.30000000000000004,-0.1,-0.6000000000000001,0.30000000000000004,9.4,-1.0,3.3000000000000003,97.10000000000001,-13.200000000000001
1698415512037.0,16,0.0,0.1,-0.7000000000000001,0.0,9.600000000000001,-1.1,3.3000000000000003,96.60000000000001,-15.100000000000001
1698415512053.0,16,-0.5,0.5,0.1,-0.5,10.100000000000001,-0.30000000000000004,-1.0,98.9,-17.8
1698415512069.0,16,-1.0,1.0,0.6000000000000001,-1.1,10.600000000000001,0.30000000000000004,-5.4,95.2,-18.6
1698415512085.0,16,-1.2000000000000002,1.3,1.1,-1.4000000000000001,10.8,0.7000000000000001,-8.0,91.7,-17.5
1698415512102.0,16,-1.5,0.8,1.1,-1.7000000000000002,10.4,0.8,-8.4,85.80000000000001,-19.1
1698415512118.0,16,-0.5,-0.2,0.8,-0.7000000000000001,9.3,0.5,-8.4,85.2,-21.200000000000003
1698415512136.0,16,0.0,-0.6000000000000001,0.6000000000000001,-0.2,9.0,0.30000000000000004,-9.3,86.7,-21.900000000000002
1698415512152.0,16,0.5,-0.5,0.5,0.2,9.0,0.30000000000000004,-12.8,93.5,-21.0
1698415512168.0,16,0.1,-0.1,0.4,-0.30000000000000004,9.4,0.1,-13.8,97.10000000000001,-14.500000000000002
1698415512185.0,16,-1.2000000000000002,-0.1,0.30000000000000004,-1.6,9.4,0.1,-14.200000000000001,96.10000000000001,-9.8
1698415512202.0,16,-1.6,0.0,0.30000000000000004,-2.1,9.5,0.1,-15.100000000000001,94.80000000000001,-8.200000000000001
1698415512219.0,16,-1.6,0.2,0.4,-2.1,9.700000000000001,0.30000000000000004,-14.600000000000001,94.2,-9.3
1698415512236.0,16,-1.1,0.1,0.5,-1.6,9.600000000000001,0.30000000000000004,-13.4,92.9,-10.9
1698415512253.0,16,-0.8,0.1,0.4,-1.4000000000000001,9.600000000000001,0.30000000000000004,-12.5,92.10000000000001,-11.3
1698415512269.0,16,-0.7000000000000001,0.0,0.2,-1.3,9.5,0.2,-9.9,91.2,-10.8
1698415512285.0,16,-0.9,-0.2,0.1,-1.5,9.3,0.0,-6.6000000000000005,89.9,-8.5
1698415512303.0,16,-1.0,-0.30000000000000004,-0.1,-1.6,9.200000000000001,-0.2,-5.4,89.0,-7.0
1698415512319.0,16,-1.0,-0.30000000000000004,-0.1,-1.7000000000000002,9.200000000000001,-0.1,-4.7,85.60000000000001,-5.1
1698415512335.0,16,-0.8,-0.30000000000000004,-0.1,-1.5,9.200000000000001,-0.2,-3.8,83.7,-5.4
1698415512352.0,16,-0.8,-0.4,0.1,-1.4000000000000001,9.1,0.0,-3.4,83.10000000000001,-5.6
1698415512369.0,16,-1.1,-0.5,-0.1,-1.9000000000000001,9.0,-0.2,-4.0,82.8,-5.9
1698415512386.0,16,-1.5,-0.2,0.30000000000000004,-2.3000000000000003,9.3,0.2,-5.7,82.7,-3.6
1698415512403.0,16,-1.4000000000000001,-0.2,0.2,-2.1,9.3,0.1,-5.2,82.10000000000001,-2.0
1698415512418.0,16,-1.1,-0.1,0.2,-1.9000000000000001,9.4,0.1,-5.0,80.2,0.30000000000000004
1698415512435.0,16,-1.0,-0.1,0.30000000000000004,-1.7000000000000002,9.4,0.2,-4.6000000000000005,76.9,1.3
1698415512452.0,16,-1.0,-0.1,0.2,-1.7000000000000002,9.4,0.1,-4.0,75.4,1.5000000000000002
1698415512468.0,16,-1.0,0.0,0.1,-1.8,9.5,0.0,-3.3000000000000003,72.5,1.9
1698415512485.0,16,-1.2000000000000002,0.0,0.2,-1.9000000000000001,9.5,0.0,-3.0000000000000004,71.9,2.7
1698415512503.0,16,-1.1,0.0,0.1,-1.9000000000000001,9.5,0.0,-2.7,72.2,3.2
1698415512519.0,16,-1.1,0.0,0.1,-1.8,9.5,-0.1,-2.9,71.30000000000001,4.300000000000001
1698415512535.0,16,-1.1,-0.1,0.0,-1.8,9.4,-0.1,-3.4,71.0,4.1000000000000005
1698415512553.0,16,-1.1,-0.1,0.1,-2.0,9.4,-0.1,-4.1000000000000005,69.2,3.6
1698415512568.0,16,-1.3,-0.1,0.0,-2.1,9.4,-0.1,-3.9,67.5,3.4
1698415512585.0,16,-1.2000000000000002,-0.1,0.0,-2.1,9.4,-0.1,-3.8,64.9,3.1
1698415512602.0,16,-1.1,-0.1,-0.1,-2.1,9.4,-0.2,-4.2,63.300000000000004,2.6
1698415512619.0,16,-1.0,0.0,-0.1,-2.0,9.4,-0.2,-4.3999999999999995,63.300000000000004,2.7
1698415512635.0,16,-1.1,-0.1,-0.2,-2.0,9.4,-0.30000000000000004,-4.2,61.8,4.0
1698415512652.0,16,-1.1,-0.2,-0.2,-2.2,9.3,-0.4,-4.3999999999999995,59.1,5.7
1698415512669.0,16,-1.1,-0.2,-0.2,-2.2,9.3,-0.4,-4.5,57.699999999999996,6.000000000000001
1698415512685.0,16,-1.1,-0.1,-0.30000000000000004,-2.2,9.4,-0.5,-4.6000000000000005,54.7,6.4
1698415512702.0,16,-1.1,0.0,-0.2,-2.2,9.4,-0.4,-4.5,53.1,6.3
1698415512719.0,16,-1.1,0.0,-0.2,-2.2,9.4,-0.5,-4.3999999999999995,49.2,6.7
1698415512736.0,16,-1.0,-0.1,-0.2,-2.2,9.4,-0.4,-4.9,44.8,7.500000000000001
1698415512753.0,16,-0.9,-0.1,-0.1,-2.1,9.4,-0.4,-4.9,42.900000000000006,7.6
1698415512768.0,16,-0.8,0.0,-0.2,-2.0,9.4,-0.5,-4.3999999999999995,40.2,7.699999999999999
1698415512785.0,16,-0.8,0.0,-0.1,-2.0,9.4,-0.4,-3.6,37.1,8.1
1698415512802.0,16,-0.8,-0.1,-0.30000000000000004,-2.0,9.4,-0.7000000000000001,-2.6,35.0,8.9
1698415512819.0,16,-0.7000000000000001,-0.1,-0.30000000000000004,-1.9000000000000001,9.4,-0.6000000000000001,-2.7,33.7,9.5
1698415512835.0,16,-0.7000000000000001,-0.2,-0.2,-1.9000000000000001,9.3,-0.6000000000000001,-1.9,32.0,10.5
1698415512854.0,16,-0.6000000000000001,-0.30000000000000004,-0.30000000000000004,-1.9000000000000001,9.200000000000001,-0.7000000000000001,-1.0,30.4,11.1
1698415512868.0,16,-0.6000000000000001,-0.2,-0.4,-1.9000000000000001,9.200000000000001,-0.8,-0.7,29.300000000000004,11.2
1698415512885.0,16,-0.6000000000000001,-0.1,-0.1,-1.9000000000000001,9.4,-0.5,-1.0999999999999999,26.3,10.700000000000001
1698415512903.0,16,-0.5,0.1,-0.2,-1.7000000000000002,9.600000000000001,-0.7000000000000001,0.30000000000000004,24.6,10.9
1698415512918.0,16,-0.4,0.2,-0.1,-1.6,9.700000000000001,-0.6000000000000001,0.2,23.2,10.600000000000001
1698415512935.0,16,-0.2,0.30000000000000004,-0.1,-1.4000000000000001,9.700000000000001,-0.5,1.2000000000000002,21.5,9.200000000000001
1698415512952.0,16,-0.2,0.2,-0.2,-1.4000000000000001,9.600000000000001,-0.7000000000000001,1.7,21.3,8.200000000000001
1698415512969.0,16,-0.5,0.0,-0.2,-1.6,9.5,-0.6000000000000001,1.4,21.700000000000003,6.2
1698415512985.0,16,-0.6000000000000001,-0.1,-0.30000000000000004,-1.7000000000000002,9.4,-0.8,1.5000000000000002,22.5,4.800000000000001
1698415513002.0,16,-0.6000000000000001,-0.2,-0.4,-1.8,9.3,-0.9,1.6,22.000000000000004,4.300000000000001
1698415513019.0,16,-0.7000000000000001,-0.2,-0.30000000000000004,-1.8,9.3,-0.8,2.1,21.0,4.2
1698415513036.0,16,-0.6000000000000001,-0.2,-0.2,-1.7000000000000002,9.3,-0.7000000000000001,3.1,20.2,3.4
1698415513052.0,16,-0.5,0.2,0.1,-1.7000000000000002,9.4,-0.6000000000000001,2.6,19.6,1.0
1698415513069.0,16,-0.4,0.5,0.30000000000000004,-1.5,10.0,-0.30000000000000004,1.8,19.400000000000002,-0.5
1698415513085.0,16,0.1,1.1,0.8,-1.0,10.600000000000001,0.2,-0.2,19.200000000000003,-5.0
1698415513102.0,16,0.30000000000000004,1.1,0.8,-0.8,10.3,0.1,1.3,19.1,-8.200000000000001
1698415513118.0,16,-0.1,0.30000000000000004,0.4,-1.3,9.700000000000001,-0.2,2.1,10.2,-9.200000000000001
1698415513135.0,16,-0.5,0.1,0.5,-1.6,9.600000000000001,-0.1,0.9,8.3,-9.200000000000001
1698415513152.0,16,-0.6000000000000001,0.1,0.6000000000000001,-1.8,9.5,0.0,-2.1,2.1,-7.500000000000001
1698415513168.0,16,-0.4,0.1,1.0,-1.6,9.5,0.5,-3.3000000000000003,-0.5,-7.0
1698415513185.0,16,0.0,0.4,1.2000000000000002,-1.3,9.8,0.7000000000000001,-5.1,0.2,-5.500000000000001
1698415513202.0,16,0.2,0.8,1.3,-1.0,10.3,0.8,-4.7,4.7,-2.4000000000000004
1698415513219.0,16,0.30000000000000004,0.9,1.3,-0.9,10.200000000000001,0.7000000000000001,-1.6,8.0,1.7
1698415513235.0,16,0.4,0.4,1.2000000000000002,-0.8,9.9,0.7000000000000001,-0.2,9.200000000000001,3.8
1698415513252.0,16,0.5,0.2,1.0,-0.7000000000000001,9.700000000000001,0.5,1.0,7.699999999999999,7.8
1698415513269.0,16,0.6000000000000001,0.2,1.0,-0.4,9.600000000000001,0.5,1.0,5.6,10.9
1698415513285.0,16,0.9,0.0,0.9,-0.30000000000000004,9.5,0.5,0.9,4.0,12.3
1698415513302.0,16,1.0,-0.1,0.9,-0.1,9.4,0.4,1.0,2.1999999999999997,13.100000000000001
1698415513319.0,16,1.0,-0.4,1.1,0.0,9.1,0.6000000000000001,1.8,-2.5,14.200000000000001
1698415513336.0,16,1.0,-0.5,0.9,0.0,9.0,0.4,1.8,-2.6,13.9
1698415513352.0,16,1.0,-0.30000000000000004,0.8,0.0,9.200000000000001,0.30000000000000004,1.9,0.2,12.700000000000001
1698415513369.0,16,1.0,-0.1,0.7000000000000001,0.1,9.4,0.30000000000000004,2.5,2.5,12.100000000000001
1698415513385.0,16,0.9,0.1,0.7000000000000001,0.0,9.600000000000001,0.30000000000000004,2.9,6.8,10.700000000000001
1698415513402.0,16,0.5,0.30000000000000004,0.7000000000000001,-0.30000000000000004,9.8,0.2,4.800000000000001,7.2,11.2
1698415513420.0,16,0.4,0.30000000000000004,0.6000000000000001,-0.4,9.8,0.1,5.8,4.2,11.8
1698415513435.0,16,0.5,0.1,0.7000000000000001,-0.30000000000000004,9.600000000000001,0.2,5.9,3.0000000000000004,12.000000000000002
1698415513452.0,16,0.6000000000000001,-0.2,0.7000000000000001,-0.1,9.3,0.2,5.9,0.9,12.700000000000001
1698415513468.0,16,0.6000000000000001,-0.30000000000000004,0.7000000000000001,-0.1,9.200000000000001,0.2,5.7,0.4,12.6
1698415513485.0,16,0.5,-0.4,0.7000000000000001,-0.2,9.1,0.1,5.0,0.4,13.200000000000001
1698415513501.0,16,0.5,-0.4,0.7000000000000001,-0.1,9.200000000000001,0.2,3.8,1.0999999999999999,14.3
1698415513518.0,16,0.5,-0.4,0.8,0.0,9.1,0.2,4.0,-0.30000000000000004,15.399999999999999
1698415513535.0,16,0.5,-0.30000000000000004,0.7000000000000001,0.0,9.200000000000001,0.1,4.1000000000000005,-1.0,15.2
1698415513552.0,16,0.6000000000000001,-0.30000000000000004,0.7000000000000001,0.1,9.3,0.1,3.9,-2.3000000000000003,13.9
1698415513568.0,16,0.7000000000000001,0.0,0.6000000000000001,0.30000000000000004,9.600000000000001,0.0,3.6,-2.7,11.5
1698415513585.0,16,0.8,0.2,0.6000000000000001,0.4,9.700000000000001,0.0,3.5,-2.5,10.1
1698415513602.0,16,0.8,0.2,0.4,0.4,9.8,-0.2,3.0000000000000004,-1.0,7.2
1698415513618.0,16,0.7000000000000001,0.30000000000000004,0.30000000000000004,0.30000000000000004,9.8,-0.30000000000000004,0.9,0.5,5.7
1698415513638.0,16,0.5,0.30000000000000004,0.30000000000000004,0.2,9.8,-0.30000000000000004,0.0,0.6000000000000001,5.4
1698415513652.0,16,0.4,0.2,0.30000000000000004,0.1,9.700000000000001,-0.30000000000000004,-1.8,0.9,4.800000000000001
1698415513668.0,16,0.5,0.1,0.30000000000000004,0.2,9.600000000000001,-0.30000000000000004,-3.5,1.6,4.5
1698415513685.0,16,0.5,0.0,0.30000000000000004,0.30000000000000004,9.600000000000001,-0.30000000000000004,-4.2,1.3,4.3999999999999995
1698415513702.0,16,0.6000000000000001,-0.1,0.2,0.30000000000000004,9.5,-0.30000000000000004,-4.9,0.1,4.1000000000000005
1698415513718.0,16,0.6000000000000001,-0.2,0.2,0.4,9.4,-0.4,-5.0,-0.5,3.6
1698415513736.0,16,0.7000000000000001,-0.30000000000000004,0.1,0.4,9.200000000000001,-0.4,-4.9,2.7,2.3000000000000003
1698415513753.0,16,0.8,-0.5,0.0,0.6000000000000001,9.1,-0.5,-4.800000000000001,4.3999999999999995,1.5000000000000002
1698415513768.0,16,0.8,-0.6000000000000001,-0.1,0.6000000000000001,8.9,-0.6000000000000001,-2.5,7.400000000000001,-0.5
1698415513785.0,16,0.8,-0.7000000000000001,-0.1,0.6000000000000001,8.8,-0.6000000000000001,-0.5,8.3,-1.3
1698415513802.0,16,0.7000000000000001,-0.7000000000000001,-0.5,0.5,8.8,-1.0,2.3000000000000003,11.9,-2.8
1698415513819.0,16,0.7000000000000001,-0.6000000000000001,-0.6000000000000001,0.4,8.9,-1.0,4.2,15.8,-3.8
1698415513836.0,16,0.6000000000000001,-0.5,-0.6000000000000001,0.4,9.0,-1.1,5.7,16.6,-3.8
1698415513852.0,16,0.6000000000000001,-0.7000000000000001,-0.30000000000000004,0.30000000000000004,8.8,-0.9,8.9,19.6,-5.300000000000001
1698415513869.0,16,0.6000000000000001,-0.9,-0.30000000000000004,0.30000000000000004,8.6,-0.9,11.4,24.6,-8.700000000000001
1698415513885.0,16,0.5,-0.9,-0.30000000000000004,0.30000000000000004,8.5,-0.9,11.700000000000001,26.500000000000004,-9.5
1698415513903.0,16,0.2,-1.0,-0.30000000000000004,-0.1,8.5,-1.0,10.700000000000001,26.8,-10.4
1698415513919.0,16,-0.1,-1.0,-0.6000000000000001,-0.4,8.4,-1.3,12.8,29.300000000000004,-11.5
1698415513935.0,16,-0.2,-0.6000000000000001,-0.8,-0.6000000000000001,8.9,-1.5,11.700000000000001,33.5,-11.2
1698415513952.0,16,-0.8,1.8,0.30000000000000004,-1.1,11.3,-0.4,4.7,40.4,-5.7
1698415513969.0,16,-1.1,2.8000000000000003,0.30000000000000004,-1.5,12.3,-0.5,14.500000000000002,21.8,-1.7
1698415513985.0,16,-0.7000000000000001,2.1,-0.5,-1.0,11.600000000000001,-1.3,16.900000000000002,12.4,-1.9
1698415514003.0,16,0.5,1.6,0.5,0.1,11.100000000000001,-0.4,10.3,14.700000000000001,-5.300000000000001
1698415514018.0,16,0.30000000000000004,1.6,0.5,-0.1,11.100000000000001,-0.4,9.1,9.0,-8.200000000000001
1698415514036.0,16,0.6000000000000001,1.0,0.2,0.2,10.5,-0.7000000000000001,9.9,13.3,-6.1000000000000005
1698415514052.0,16,0.6000000000000001,1.0,0.2,0.2,10.100000000000001,-0.6000000000000001,9.8,13.4,-5.8
1698415514068.0,16,0.2,0.6000000000000001,0.4,-0.2,10.100000000000001,-0.6000000000000001,7.300000000000001,20.8,-2.3000000000000003
1698415514085.0,16,-0.5,1.2000000000000002,1.2000000000000002,-0.6000000000000001,10.4,-0.30000000000000004,4.1000000000000005,24.200000000000003,0.4
1698415514102.0,16,-0.6000000000000001,1.1,1.4000000000000001,-1.0,10.700000000000001,0.4,1.8,26.8,3.1
1698415514118.0,16,0.0,0.6000000000000001,1.6,-0.7000000000000001,10.4,0.5,1.8,28.1,2.3000000000000003
1698415514136.0,16,0.30000000000000004,0.4,1.7000000000000002,0.0,9.9,0.7000000000000001,1.0999999999999999,31.4,1.0999999999999999
1698415514153.0,16,0.4,0.0,1.6,0.0,9.5,0.7000000000000001,2.0,26.8,-1.5000000000000002
1698415514168.0,16,0.1,-0.5,1.5,-0.2,9.1,0.6000000000000001,2.1,21.1,-4.800000000000001
1698415514185.0,16,0.0,-0.7000000000000001,1.6,-0.4,8.8,0.6000000000000001,1.8,19.9,-6.2
1698415514203.0,16,-0.30000000000000004,-0.9,1.7000000000000002,-0.7000000000000001,8.6,0.8,-0.4,18.2,-8.5
1698415514219.0,16,-0.5,-0.8,1.9000000000000001,-0.9,8.700000000000001,1.0,-2.8,16.900000000000002,-10.4
1698415514237.0,16,-0.4,-0.8,1.9000000000000001,-0.9,8.700000000000001,1.0,-4.1000000000000005,17.599999999999998,-12.3
1698415514252.0,16,-0.2,-0.7000000000000001,2.0,-0.7000000000000001,8.8,1.1,-4.800000000000001,19.400000000000002,-11.9
1698415514269.0,16,-0.2,-0.4,2.1,-0.7000000000000001,9.1,1.2000000000000002,-5.300000000000001,21.900000000000002,-9.200000000000001
1698415514285.0,16,-0.30000000000000004,-0.2,2.0,-0.8,9.3,1.1,-5.0,23.400000000000002,-5.1
1698415514303.0,16,-0.5,-0.1,1.9000000000000001,-1.0,9.4,1.1,-4.3999999999999995,21.6,-3.6
1698415514319.0,16,-0.4,-0.2,1.7000000000000002,-1.0,9.3,0.9,-2.5,19.1,-2.1
1698415514335.0,16,-0.4,-0.2,1.4000000000000001,-0.9,9.3,0.6000000000000001,-1.0,16.400000000000002,-2.4000000000000004
1698415514353.0,16,-0.30000000000000004,-0.1,1.2000000000000002,-0.9,9.4,0.5,-0.7,14.900000000000002,-2.9
1698415514368.0,16,-0.30000000000000004,0.1,1.2000000000000002,-0.9,9.600000000000001,0.4,-0.30000000000000004,11.1,-5.0
1698415514385.0,16,-0.4,0.1,1.0,-1.0,9.600000000000001,0.30000000000000004,0.9,9.4,-7.500000000000001
1698415514402.0,16,-0.4,0.1,1.0,-1.0,9.600000000000001,0.2,1.5000000000000002,8.600000000000001,-8.4
1698415514418.0,16,-0.30000000000000004,-0.1,0.9,-1.0,9.4,0.1,2.3000000000000003,8.600000000000001,-9.600000000000001
1698415514435.0,16,-0.4,-0.1,0.8,-1.0,9.3,0.0,1.8,8.3,-9.200000000000001
1698415514452.0,16,-0.4,-0.1,0.9,-1.2000000000000002,9.3,0.1,2.1,6.7,-7.699999999999999
1698415514468.0,16,-0.5,-0.2,0.8,-1.2000000000000002,9.3,0.0,2.6,5.9,-7.0
1698415514485.0,16,-0.5,-0.2,0.7000000000000001,-1.2000000000000002,9.200000000000001,-0.1,3.0000000000000004,3.6,-5.7
1698415514502.0,16,-0.4,-0.2,0.6000000000000001,-1.2000000000000002,9.200000000000001,-0.1,2.8,1.9,-5.2
1698415514518.0,16,-0.30000000000000004,-0.1,0.6000000000000001,-1.1,9.3,-0.1,2.5,0.0,-4.5
1698415514535.0,16,-0.30000000000000004,-0.1,0.6000000000000001,-1.1,9.4,-0.2,2.1,-2.1999999999999997,-4.0
1698415514552.0,16,-0.4,0.0,0.6000000000000001,-1.2000000000000002,9.4,-0.2,1.5000000000000002,-2.8,-3.6
1698415514568.0,16,-0.4,-0.1,0.7000000000000001,-1.3,9.4,0.0,0.1,-3.7000000000000006,-2.1
1698415514585.0,16,-0.4,0.1,0.6000000000000001,-1.3,9.5,-0.1,-1.0999999999999999,-5.1,-1.4
1698415514602.0,16,-0.30000000000000004,0.0,0.5,-1.1,9.5,-0.2,-2.1,-6.6000000000000005,-1.2000000000000002
1698415514618.0,16,-0.2,0.0,0.5,-1.1,9.5,-0.2,-2.3000000000000003,-6.8,-1.2000000000000002
1698415514635.0,16,-0.2,0.0,0.30000000000000004,-1.1,9.4,-0.30000000000000004,-2.1999999999999997,-7.500000000000001,-0.30000000000000004
1698415514652.0,16,-0.2,0.0,0.1,-1.1,9.4,-0.5,-2.7,-8.3,0.2
1698415514668.0,16,-0.2,0.0,0.1,-1.1,9.4,-0.5,-3.9,-10.3,1.6
1698415514685.0,16,-0.1,-0.1,0.0,-1.0,9.4,-0.5,-4.300000000000001,-11.000000000000002,2.9
1698415514702.0,16,-0.1,-0.1,-0.1,-1.0,9.3,-0.7000000000000001,-4.0,-10.8,3.4
1698415514718.0,16,-0.1,-0.2,-0.1,-1.0,9.3,-0.7000000000000001,-3.8,-10.600000000000001,3.6
1698415514735.0,16,-0.1,-0.30000000000000004,-0.2,-1.0,9.200000000000001,-0.7000000000000001,-3.3000000000000003,-9.700000000000001,4.2
1698415514752.0,16,-0.1,-0.30000000000000004,-0.30000000000000004,-0.9,9.200000000000001,-0.8,-3.1,-9.200000000000001,4.5
1698415514768.0,16,-0.2,-0.1,-0.30000000000000004,-1.0,9.4,-0.8,-3.6,-8.3,5.2
1698415514785.0,16,-0.2,-0.2,-0.30000000000000004,-1.1,9.3,-0.8,-3.6,-7.2,5.8
1698415514802.0,16,-0.2,-0.30000000000000004,-0.4,-1.1,9.200000000000001,-0.9,-4.3999999999999995,-7.2,6.4
1698415514818.0,16,-0.2,-0.1,-0.2,-1.1,9.3,-0.7000000000000001,-4.800000000000001,-8.0,6.3
1698415514835.0,16,-0.1,-0.1,-0.30000000000000004,-1.0,9.3,-0.8,-3.9,-8.3,5.8
1698415514852.0,16,-0.1,-0.1,-0.30000000000000004,-1.0,9.3,-0.8,-3.3000000000000003,-8.799999999999999,5.6
1698415514868.0,16,-0.2,-0.2,-0.4,-1.0,9.3,-0.9,-2.1,-9.700000000000001,5.2
1698415514885.0,16,-0.1,-0.1,-0.5,-1.0,9.3,-1.1,-1.0,-10.9,4.5
1698415514902.0,16,-0.2,-0.1,-0.6000000000000001,-1.0,9.4,-1.2000000000000002,-0.30000000000000004,-11.9,3.7000000000000006
1698415514919.0,16,-0.2,-0.1,-0.7000000000000001,-1.1,9.4,-1.3,0.1,-13.3,3.2
1698415514936.0,16,-0.4,-0.1,-0.7000000000000001,-1.2000000000000002,9.4,-1.3,0.9,-15.8,2.7
1698415514952.0,16,-0.4,0.30000000000000004,-0.6000000000000001,-1.2000000000000002,9.8,-1.2000000000000002,0.6000000000000001,-18.5,1.2000000000000002
1698415514969.0,16,-0.2,0.6000000000000001,-0.4,-1.0,10.0,-1.0,0.4,-20.0,-0.1
1698415514985.0,16,0.2,0.9,0.0,-0.7000000000000001,10.3,-0.6000000000000001,1.0999999999999999,-17.599999999999998,-1.8
1698415515002.0,16,0.2,0.6000000000000001,0.1,-0.6000000000000001,10.0,-0.4,3.5,-14.700000000000001,-2.9
1698415515018.0,16,0.1,0.5,0.1,-0.8,9.9,-0.5,4.2,-14.4,-2.7
1698415515035.0,16,-0.2,0.7000000000000001,0.30000000000000004,-1.0,10.0,-0.5,2.3000000000000003,-16.6,-1.7
1698415515052.0,16,-0.1,1.0,0.2,-1.0,10.5,-0.4,2.1999999999999997,-16.1,1.2000000000000002
1698415515068.0,16,0.0,0.9,0.1,-0.8,10.4,-0.5,2.9,-14.700000000000001,3.0000000000000004
1698415515085.0,16,0.30000000000000004,0.6000000000000001,0.0,-0.6000000000000001,10.0,-0.7000000000000001,3.9,-14.100000000000001,5.7
1698415515102.0,16,0.4,0.6000000000000001,0.1,-0.4,10.100000000000001,-0.5,3.4,-15.399999999999999,6.3
1698415515118.0,16,0.5,0.9,0.1,-0.30000000000000004,10.4,-0.5,2.8,-15.7,5.4
1698415515135.0,16,0.4,1.2000000000000002,0.30000000000000004,-0.4,10.700000000000001,-0.30000000000000004,1.7,-14.700000000000001,3.7000000000000006
1698415515151.0,16,0.0,0.9,0.4,-0.8,10.4,-0.2,3.3000000000000003,-15.2,4.1000000000000005
1698415515168.0,16,-0.2,0.7000000000000001,0.4,-1.0,10.200000000000001,-0.2,3.6,-17.400000000000002,4.9
1698415515185.0,16,0.0,0.5,0.6000000000000001,-0.8,10.0,0.0,3.2,-22.6,6.5
1698415515201.0,16,0.2,-0.1,0.8,-0.6000000000000001,9.4,0.1,3.4,-25.700000000000003,5.9
1698415515218.0,16,0.1,-0.5,0.8,-0.6000000000000001,9.0,0.2,3.1,-27.900000000000002,5.300000000000001
1698415515235.0,16,0.1,-0.9,1.0,-0.6000000000000001,8.6,0.4,1.4,-33.400000000000006,4.300000000000001
1698415515252.0,16,0.30000000000000004,-1.0,1.3,-0.5,8.5,0.7000000000000001,0.0,-36.2,4.0
1698415515269.0,16,0.4,-0.9,1.4000000000000001,-0.1,8.700000000000001,0.8,-1.2000000000000002,-33.800000000000004,4.300000000000001
1698415515285.0,16,1.0,-0.6000000000000001,1.4000000000000001,0.30000000000000004,8.9,0.9,-1.0,-31.5,4.800000000000001
1698415515302.0,16,1.6,-0.30000000000000004,1.4000000000000001,0.9,9.200000000000001,0.8,0.2,-23.400000000000002,5.9
1698415515318.0,16,1.6,-0.1,1.3,0.9,9.4,0.8,1.2000000000000002,-18.7,6.7
1698415515335.0,16,1.2000000000000002,0.1,1.0,0.6000000000000001,9.600000000000001,0.5,4.0,-10.5,9.0
1698415515352.0,16,0.9,0.1,0.8,0.30000000000000004,9.600000000000001,0.30000000000000004,5.9,-6.7,10.9
1698415515368.0,16,0.7000000000000001,0.1,0.7000000000000001,0.1,9.5,0.1,7.400000000000001,-5.6,12.6
1698415515385.0,16,0.7000000000000001,0.0,0.5,0.2,9.5,0.0,7.9,-4.7,12.9
1698415515402.0,16,0.7000000000000001,0.0,0.5,0.30000000000000004,9.5,-0.1,8.5,-2.8,12.000000000000002
1698415515418.0,16,0.7000000000000001,0.1,0.4,0.2,9.5,-0.2,8.9,-2.8,11.6
1698415515435.0,16,0.6000000000000001,-0.1,0.30000000000000004,0.2,9.4,-0.4,8.700000000000001,-3.8,10.700000000000001
1698415515452.0,16,0.6000000000000001,-0.30000000000000004,0.30000000000000004,0.30000000000000004,9.200000000000001,-0.4,6.7,-4.6000000000000005,8.200000000000001
1698415515469.0,16,0.7000000000000001,-0.30000000000000004,0.4,0.30000000000000004,9.200000000000001,-0.30000000000000004,2.8,-5.0,6.3
1698415515485.0,16,0.6000000000000001,-0.4,0.5,0.30000000000000004,9.1,-0.1,1.4,-5.1,5.6
1698415515502.0,16,0.5,-0.5,0.6000000000000001,0.1,9.0,-0.1,-0.8,-4.9,4.5
1698415515518.0,16,0.5,-0.4,0.7000000000000001,0.2,9.0,0.0,-2.1,-4.3999999999999995,4.800000000000001
1698415515535.0,16,0.6000000000000001,-0.30000000000000004,0.7000000000000001,0.30000000000000004,9.1,0.1,-3.3000000000000003,-3.6,5.2
1698415515552.0,16,0.6000000000000001,-0.6000000000000001,0.8,0.30000000000000004,8.9,0.2,-3.1,-2.5,6.7
1698415515568.0,16,0.4,-0.7000000000000001,0.7000000000000001,0.2,8.700000000000001,0.1,-2.9,-2.0,7.500000000000001
1698415515585.0,16,0.4,-0.5,0.4,0.1,9.0,-0.2,-3.4,-1.6,8.0
1698415515602.0,16,0.6000000000000001,0.1,0.1,0.4,9.600000000000001,-0.5,-4.800000000000001,-3.0000000000000004,7.0
1698415515618.0,16,0.8,0.4,0.1,0.6000000000000001,9.8,-0.5,-4.300000000000001,-4.3999999999999995,4.0
1698415515635.0,16,0.8,0.4,0.0,0.6000000000000001,9.8,-0.6000000000000001,-3.4,-4.300000000000001,2.0
1698415515652.0,16,0.4,0.2,-0.2,0.2,9.700000000000001,-0.7000000000000001,-1.5000000000000002,-3.8,-1.8
1698415515668.0,16,0.1,0.1,-0.4,-0.1,9.600000000000001,-0.9,-0.5,-1.9,-4.6000000000000005
1698415515685.0,16,0.2,0.1,-0.5,0.0,9.600000000000001,-1.0,-1.0,-0.7,-5.2
1698415515702.0,16,0.6000000000000001,0.2,-0.4,0.4,9.700000000000001,-0.9,-2.7,1.4,-5.2
1698415515719.0,16,0.7000000000000001,0.2,-0.30000000000000004,0.5,9.700000000000001,-0.9,-3.2,2.4000000000000004,-5.1
1698415515735.0,16,0.9,0.1,-0.2,0.6000000000000001,9.600000000000001,-0.7000000000000001,-3.6,4.1000000000000005,-5.0
1698415515752.0,16,0.6000000000000001,-0.2,-0.30000000000000004,0.4,9.3,-0.8,-4.2,5.1,-4.2
1698415515768.0,16,0.6000000000000001,-0.2,-0.30000000000000004,0.4,9.3,-0.8,-5.500000000000001,5.2,-3.5
1698415515785.0,16,0.5,-0.2,-0.30000000000000004,0.2,9.3,-0.8,-5.8,5.300000000000001,-3.5
1698415515801.0,16,0.4,-0.2,-0.30000000000000004,0.2,9.3,-0.8,-5.8,4.5,-3.8
1698415515818.0,16,0.5,-0.30000000000000004,-0.4,0.2,9.1,-0.9,-5.6,3.9,-4.800000000000001
1698415515836.0,16,0.6000000000000001,-0.4,-0.5,0.30000000000000004,9.1,-0.9,-5.4,3.6,-5.1
1698415515852.0,16,0.7000000000000001,-0.4,-0.5,0.4,9.0,-1.0,-4.9,3.9,-5.9
1698415515868.0,16,0.7000000000000001,-0.5,-0.6000000000000001,0.4,9.0,-1.0,-4.2,5.300000000000001,-6.8
1698415515886.0,16,0.7000000000000001,-0.4,-0.6000000000000001,0.4,9.0,-1.0,-4.1000000000000005,6.3,-6.8
1698415515902.0,16,0.8,-0.30000000000000004,-0.6000000000000001,0.5,9.1,-1.1,-4.0,8.799999999999999,-6.9
1698415515918.0,16,0.8,-0.30000000000000004,-0.6000000000000001,0.5,9.200000000000001,-1.0,-3.0000000000000004,12.9,-7.6
1698415515935.0,16,0.8,-0.2,-0.7000000000000001,0.5,9.200000000000001,-1.1,-2.1,15.2,-8.0
1698415515952.0,16,0.8,-0.1,-0.8,0.5,9.4,-1.2000000000000002,0.0,19.9,-8.600000000000001
1698415515968.0,16,0.7000000000000001,0.30000000000000004,-1.0,0.4,9.700000000000001,-1.4000000000000001,2.5,24.000000000000004,-9.600000000000001
1698415515985.0,16,0.4,0.9,-0.8,0.0,10.3,-1.3,1.0999999999999999,25.8,-9.0
1698415516002.0,16,-0.6000000000000001,2.2,0.30000000000000004,-0.9,11.700000000000001,-0.2,0.4,20.7,-6.000000000000001
1698415516018.0,16,-0.7000000000000001,1.3,-0.5,-1.1,10.8,-1.1,9.200000000000001,7.300000000000001,-5.500000000000001
1698415516035.0,16,0.0,1.0,-0.9,-0.4,10.5,-1.4000000000000001,6.5,5.0,-6.8
1698415516052.0,16,0.30000000000000004,1.4000000000000001,0.6000000000000001,-0.1,10.9,0.1,-1.3,9.4,-12.000000000000002
1698415516068.0,16,0.1,1.3,-0.2,-0.4,10.8,-0.7000000000000001,3.1,11.000000000000002,-15.100000000000001
1698415516086.0,16,0.2,0.8,-0.2,-0.30000000000000004,10.3,-0.8,3.3000000000000003,17.599999999999998,-15.100000000000001
1698415516102.0,16,0.1,0.6000000000000001,-0.1,-0.4,10.100000000000001,-0.7000000000000001,3.7000000000000006,23.0,-14.700000000000001
1698415516119.0,16,0.30000000000000004,0.4,-0.1,-0.2,9.9,-0.7000000000000001,3.3000000000000003,32.4,-12.3
1698415516135.0,16,0.30000000000000004,0.5,0.5,-0.30000000000000004,10.0,-0.1,0.8,37.300000000000004,-11.700000000000001
1698415516152.0,16,0.2,0.6000000000000001,0.7000000000000001,-0.5,10.100000000000001,0.1,-0.2,39.50000000000001,-12.3
1698415516168.0,16,-0.1,0.6000000000000001,1.1,-0.7000000000000001,10.100000000000001,0.6000000000000001,-0.4,40.6,-14.700000000000001
1698415516185.0,16,0.1,0.30000000000000004,1.3,-0.6000000000000001,9.600000000000001,0.8,-0.8,42.1,-16.400000000000002
1698415516202.0,16,0.1,-0.1,1.5,-0.6000000000000001,9.4,0.9,-1.3,41.0,-16.400000000000002
1698415516218.0,16,0.30000000000000004,-0.5,1.5,-0.5,9.0,0.9,-1.6,40.6,-16.2
1698415516235.0,16,0.2,-0.7000000000000001,1.5,-0.6000000000000001,8.700000000000001,0.9,-2.5,40.6,-17.3
1698415516252.0,16,0.1,-0.8,1.5,-0.7000000000000001,8.700000000000001,0.9,-3.0000000000000004,40.3,-17.9
1698415516268.0,16,-0.4,-0.7000000000000001,1.5,-1.3,8.8,0.9,-3.7000000000000006,38.0,-18.7
1698415516285.0,16,-0.9,-0.6000000000000001,1.4000000000000001,-1.8,8.9,0.9,-3.9,35.4,-18.8
1698415516302.0,16,-1.0,-0.6000000000000001,1.3,-2.0,8.9,0.8,-4.300000000000001,34.50000000000001,-18.5
1698415516318.0,16,-1.0,-0.5,1.3,-2.1,8.9,0.7000000000000001,-5.0,31.099999999999998,-17.5
1698415516335.0,16,-1.0,-0.4,1.1,-2.1,9.0,0.6000000000000001,-3.8,25.8,-15.399999999999999
1698415516352.0,16,-0.9,-0.30000000000000004,1.0,-2.1,9.1,0.5,-2.5,23.0,-14.4
1698415516368.0,16,-0.9,-0.2,0.7000000000000001,-2.1,9.200000000000001,0.2,1.0,16.5,-12.3
1698415516385.0,16,-0.9,-0.1,0.7000000000000001,-2.0,9.200000000000001,0.2,3.5,9.600000000000001,-9.8
1698415516402.0,16,-0.9,0.0,0.7000000000000001,-2.2,9.4,0.2,4.6000000000000005,7.0,-8.5
1698415516418.0,16,-0.7000000000000001,-0.1,0.6000000000000001,-1.9000000000000001,9.3,0.0,4.800000000000001,3.2,-7.400000000000001
1698415516436.0,16,-0.7000000000000001,-0.1,0.6000000000000001,-2.0,9.3,0.1,4.7,1.7,-7.300000000000001
1698415516452.0,16,-0.6000000000000001,-0.2,0.6000000000000001,-2.0,9.200000000000001,0.0,2.8,0.2,-7.300000000000001
1698415516468.0,16,-0.6000000000000001,-0.4,0.8,-1.9000000000000001,9.0,0.2,0.4,-1.2000000000000002,-7.400000000000001
1698415516485.0,16,-0.4,-0.5,0.9,-1.8,8.9,0.30000000000000004,-1.0,-2.0,-7.300000000000001
1698415516502.0,16,-0.4,-0.5,0.8,-1.8,8.9,0.30000000000000004,-1.3,-2.7,-7.400000000000001
1698415516519.0,16,-0.4,-0.6000000000000001,0.9,-1.8,8.8,0.4,-1.4,-5.4,-7.6
1698415516535.0,16,-0.5,-0.4,0.7000000000000001,-1.9000000000000001,9.0,0.2,-0.5,-6.6000000000000005,-6.8
1698415516552.0,16,-0.6000000000000001,-0.2,0.5,-2.0,9.200000000000001,0.0,0.2,-7.400000000000001,-6.2
1698415516568.0,16,-0.6000000000000001,0.0,0.30000000000000004,-2.1,9.3,-0.2,0.9,-8.3,-4.0
1698415516585.0,16,-0.4,0.1,0.2,-1.9000000000000001,9.4,-0.30000000000000004,0.8,-8.4,0.2
1698415516602.0,16,-0.30000000000000004,0.0,0.2,-1.8,9.4,-0.30000000000000004,0.8,-8.600000000000001,2.4000000000000004
1698415516618.0,16,0.0,-0.1,0.2,-1.4000000000000001,9.200000000000001,-0.30000000000000004,0.4,-10.0,5.7
1698415516635.0,16,0.0,-0.1,0.2,-1.4000000000000001,9.3,-0.30000000000000004,-0.7,-12.5,6.8
1698415516652.0,16,0.0,0.0,0.30000000000000004,-1.4000000000000001,9.4,-0.2,-0.8,-13.100000000000001,7.1000000000000005
1698415516668.0,16,-0.2,0.30000000000000004,0.2,-1.7000000000000002,9.600000000000001,-0.30000000000000004,0.6000000000000001,-13.4,7.500000000000001
1698415516685.0,16,-0.5,0.4,-0.1,-1.9000000000000001,9.8,-0.6000000000000001,2.5,-14.100000000000001,8.5
1698415516702.0,16,-0.5,0.2,-0.2,-1.7000000000000002,9.5,-0.8,3.4,-15.2,10.600000000000001
1698415516719.0,16,-0.2,0.0,-0.4,-1.6,9.4,-0.9,2.6,-15.2,11.4
1698415516735.0,16,-0.2,0.0,-0.2,-1.5,9.4,-0.6000000000000001,0.7,-12.9,12.3
1698415516752.0,16,-0.30000000000000004,0.0,-0.1,-1.6,9.4,-0.6000000000000001,0.9,-13.3,12.8
1698415516768.0,16,-0.30000000000000004,-0.1,-0.2,-1.5,9.3,-0.6000000000000001,2.1,-14.900000000000002,13.5
1698415516785.0,16,-0.30000000000000004,-0.1,-0.2,-1.5,9.3,-0.7000000000000001,2.9,-16.0,13.0
1698415516802.0,16,-0.2,-0.1,-0.2,-1.4000000000000001,9.3,-0.7000000000000001,3.3000000000000003,-16.0,12.6
1698415516818.0,16,-0.1,-0.4,-0.2,-1.3,9.0,-0.7000000000000001,3.9,-15.100000000000001,12.5
1698415516835.0,16,-0.2,-0.30000000000000004,-0.2,-1.3,9.1,-0.7000000000000001,3.5,-13.6,11.3
1698415516852.0,16,-0.30000000000000004,-0.2,-0.30000000000000004,-1.4000000000000001,9.200000000000001,-0.7000000000000001,3.3000000000000003,-12.6,10.4
1698415516868.0,16,-0.5,0.0,-0.30000000000000004,-1.6,9.4,-0.8,3.2,-10.3,9.200000000000001
1698415516885.0,16,-0.7000000000000001,0.2,-0.6000000000000001,-1.8,9.600000000000001,-1.1,3.7000000000000006,-10.600000000000001,9.200000000000001
1698415516902.0,16,-0.7000000000000001,0.2,-0.7000000000000001,-1.7000000000000002,9.700000000000001,-1.2000000000000002,4.5,-13.9,10.8
1698415516919.0,16,-0.6000000000000001,0.2,-0.8,-1.6,9.600000000000001,-1.3,5.300000000000001,-16.3,11.6
1698415516935.0,16,-0.5,0.0,-0.8,-1.5,9.4,-1.4000000000000001,5.9,-21.6,12.5
1698415516952.0,16,-0.5,-0.1,-0.8,-1.5,9.3,-1.4000000000000001,6.2,-24.000000000000004,12.4
1698415516968.0,16,-0.7000000000000001,-0.1,-1.0,-1.6,9.3,-1.5,7.300000000000001,-27.400000000000002,12.100000000000001
1698415516985.0,16,-0.7000000000000001,-0.1,-1.1,-1.6,9.4,-1.8,8.5,-30.200000000000003,12.4
1698415517001.0,16,-0.2,0.5,-0.9,-1.1,9.9,-1.5,6.1000000000000005,-30.5,11.4
1698415517018.0,16,0.0,0.8,-0.6000000000000001,-0.9,10.3,-1.2000000000000002,5.4,-28.8,9.8
1698415517035.0,16,0.1,1.0,-0.4,-0.8,10.5,-1.0,7.699999999999999,-19.6,7.6
