msFromStart,interval,accx,accy,accz,accGx,accGy,accGz,rotRate_alpha,rotRate_beta,rotRate_gamma
49,0.01666666753590107,0.3516743435269222,0.38794162522703407,-0.27060499335229393,0.9198224233765154,-3.904045082092285,-9.069834439086913,8.636173148834162,-13.71358807498084,-1.0517458255707672
173,0.01666666753590107,0.036894364089891316,-0.3460030564248562,0.004514847075939178,0.668580521337688,-5.704183701756596,-8.18457837524414,-16.44947925741104,-25.923074579623783,-5.715982118255863
190,0.01666666753590107,0.5437590136002749,-0.14397007951736449,-0.6245265678167343,1.1484684261931106,-5.475837302941083,-8.832809059253334,-6.51581007666905,-11.595575441663858,-13.035272596996766
206,0.01666666753590107,0.3004704817187041,-0.09283727365136146,-0.7323369541943073,0.9154826406065374,-5.417178777745366,-8.94473740234375,1.091289205770556,0.8208522411738381,-18.419992248054303
222,0.01666666753590107,-0.21217808495536444,0.27353637062907216,-0.750084792330861,0.4361933957640081,-5.052063609093428,-8.959103196826577,1.9367831686442134,3.496557397463471,-20.65049468190681
240,0.01666666753590107,0.055435690691694614,0.6395885278701782,-0.15715221717357636,0.7363664289060979,-4.677221411675214,-8.369231762805581,-5.6357184308849275,-10.936365710335602,-15.261282473922696
256,0.01666666753590107,0.1917562783692032,0.35091888551712036,-0.37818449358344075,0.8500910077635199,-4.947915252354741,-8.603713887897133,-8.200622230746204,-23.84430992082499,-8.977690291297616
273,0.01666666753590107,0.7105114913552999,-0.11270575720369815,-0.46679918110370633,1.3088799008909613,-5.3930871235400435,-8.708759485736488,-1.5963507455983224,-29.168479944890365,-13.30385527195553
289,0.01666666753590107,0.7080454665679484,-0.016625556108355522,-0.7978080820143222,1.2672806470457463,-5.300611668938398,-9.04020677806437,7.384789431560385,-27.919473987221398,-21.100409487819302
307,0.01666666753590107,0.6186375097781419,0.06533610326349736,-0.6062438921511173,1.1550524807585403,-5.238661700981855,-8.837297602844238,12.972595366078142,-24.382829355745475,-23.384880661398665
323,0.01666666753590107,-0.1461445009469986,0.6259241596549749,-0.34059622894525526,0.3272572202268988,-4.705053421452641,-8.558074418750405,6.6333563516245,-41.95123361808259,-7.092802259636925
340,0.01666666753590107,-0.7798940204653888,0.833801186415553,0.015944003584980965,-0.37888259538281704,-4.503641206791997,-8.201188733783363,-1.634768211802117,-18.03753751302673,2.917752439601193
356,0.01666666753590107,-0.3542252335861325,0.8979267448455095,0.4307283352911472,0.05985485884081572,-4.415654880303144,-7.80120741893351,-19.994367927215166,25.02731405299683,-1.3285110671552076
374,0.01666666753590107,-0.6825616273518651,0.499442975077033,0.28231705845594407,-0.15951386827100067,-4.7343823917895556,-7.994389565387368,-34.47064651454454,44.239589461752395,-8.201330009098946
391,0.01666666753590107,-0.4004001247838139,-0.034977789878845214,0.3969698580741882,0.2400184972349554,-5.183595062798261,-7.924808079639076,-42.21712263718743,46.63756984160091,-16.81946377456146
407,0.01666666753590107,-0.42907348075620827,-0.05630465554594993,0.4285954149156809,0.3262096839353442,-5.105334596031904,-7.944410605731606,-43.89910111653268,31.529447529626577,-21.99461443886279
424,0.01666666753590107,-0.5272037462491542,0.04614040440618992,0.8026216197758913,0.30151947931498285,-4.894195937126875,-7.6280767113834616,-23.073171318246793,-2.29029689805456,-13.687497606125037
441,0.01666666753590107,-0.44668994759805497,0.3411982864916324,1.392308929401636,0.3727469056393951,-4.573073054936528,-7.05451519165039,1.3434126189334714,-16.7220379562404,-8.219096184903796
457,0.01666666753590107,-0.3051204264163971,0.4210615122795105,1.1972381927222013,0.48213214011825617,-4.51426547665894,-7.240365680041909,16.596512739673905,-19.279081489027458,-5.183109969118509
473,0.01666666753590107,-0.1459939865604043,0.4844084875524044,0.09847323371171951,0.6058823653623462,-4.493765124943852,-8.317157876697182,8.572214403672517,-5.678124514120598,-1.2214901137107472
490,0.01666666753590107,0.21112784525007008,0.4268079469770193,-0.2891366753429174,0.9572313859250396,-4.549280675938725,-8.706514337158202,-11.212163626378839,-1.0873802031311932,-1.410287107818772
506,0.01666666753590107,0.14580788940377531,0.39714638368487354,-0.21922785733640193,0.9051575728818774,-4.5292298215568065,-8.664616392627359,-33.30147522298927,12.579721177471717,-1.8394662064630487
523,0.01666666753590107,-0.25675620848089453,0.31405308993458747,0.02884849334359169,0.566378037969768,-4.479250861901044,-8.486846919360756,-54.13367513493322,23.54635999375611,-2.665640979269325
540,0.01666666753590107,-0.23572065391056238,0.05632891320437192,-0.05295943677127361,0.6284776435300707,-4.611680141228437,-8.633940099334716,-55.18456121044221,6.358503563007663,-5.178070997058333
557,0.01666666753590107,-0.2588696204382926,-0.11531710874587296,0.2054261264771223,0.5992983107969164,-4.67108597766012,-8.436269409289956,-42.21019341027445,-15.664808342539757,-2.6071907816732947
589,0.01666666753590107,-0.23727160967960953,-0.4756263384208083,0.8782195893347263,0.4703107694212347,-4.93863801318258,-7.825299073138833,1.7198856023519926,-43.28118756269996,6.833926991036041
590,0.01666666753590107,-0.36398945255763826,-0.44133302367478605,0.7757499794632196,0.3073554189268499,-4.908710784691572,-7.928399382129311,8.398428777978005,-43.27590782647154,10.9978980307946
606,0.01666666753590107,-0.6695142950564622,-0.5902957969129086,0.6809481277406215,-0.10878679366167635,-5.096805252617597,-8.010849117279053,22.59667170853732,-35.01798030858893,20.797099569799254
623,0.01666666753590107,-0.34669173280876125,0.5254629669964314,0.7062327911227941,0.12000913901962339,-4.061612017546594,-7.948899149322509,24.454892974130985,-8.867895854163308,8.404011603850844
640,0.01666666753590107,0.33631146429814396,1.1113882937401534,-0.07658873416185379,0.7918819433683529,-3.514836505669355,-8.711452962604165,8.304679308977702,0.34506385159211517,1.4008519485323399
656,0.01666666753590107,-0.04581573902908712,0.41493806096315383,-0.7513976284950972,0.41389739280380305,-4.208257161492109,-9.387664709472656,-10.499426556298838,8.7214301313752,7.588845601882747
673,0.01666666753590107,-0.3495825588794425,-0.45055064161419867,-0.49303076994717115,0.13317724815048276,-5.026475286589562,-9.153183168902993,-18.573833721372377,12.380568229199778,5.609029466703103
690,0.01666666753590107,0.2106595701511949,-0.13985095376074314,-0.1622562623143196,0.7134718755308538,-4.675874673241377,-8.842236228290199,-16.541866103671925,7.921034413487257,0.23058137004666537
706,0.01666666753590107,0.12620192924514412,-0.23871231000721455,-0.16719430323839188,0.6407480001036078,-4.739171379631758,-8.864981144061684,-15.147479569519236,3.1435388567679508,1.4495975145348399
723,0.01666666753590107,0.0412195338126272,-0.0723904056891799,-0.4595698143720627,0.5472245342863723,-4.531025180540978,-9.179369749560951,-11.676013725745452,-4.419704421341239,6.062196296434171
740,0.01666666753590107,0.264177152261883,0.06660305445939302,-0.4131389025866985,0.7609070324553177,-4.374803814476728,-9.14225962382853,-4.036273823036002,6.228954084359562,12.4593143339145
756,0.01666666753590107,0.11236695370338856,0.1770285917714238,-0.5644412246882915,0.6073787779325619,-4.269309303826094,-9.291148455047606,7.592905295570674,7.363959062139139,18.091482347091492
773,0.01666666753590107,-0.09865436243228613,0.2709995456278324,0.11764613621532917,0.39294809174481776,-4.231001785002649,-8.58066911239624,25.878816661349394,10.365462641012794,21.204853325512556
790,0.01666666753590107,0.007884360041655599,0.13093641042113302,0.10369885940551757,0.4964973866118118,-4.439596604643762,-8.558971659851073,30.83017276240067,6.626494572829577,16.092106684563046
806,0.01666666753590107,0.19015724567472933,-0.03188274647295475,-0.0947697030186653,0.6742668598784134,-4.667345037566125,-8.723124695697427,24.463780757788467,0.9762375506877473,5.0179299548913905
824,0.01666666753590107,0.18658534200470894,-0.24783669670522213,-0.23236790941655636,0.6708251949919387,-4.934597797881066,-8.832958696857094,9.529697642281585,-0.9505050264331358,-3.3621514408720796
840,0.01666666753590107,0.09769574653320014,0.0885197027131915,-0.06496902351677418,0.5790973073545843,-4.609584630253911,-8.659528129577636,1.6733022181086248,-4.148698309887588,-0.17585874819016947
857,0.01666666753590107,0.1264635758560151,0.2370993218526244,0.08387070786356926,0.5907690404478461,-4.46309000069499,-8.51048907623291,1.1131171029757416,-9.008793265230562,4.166534922018253
874,0.01666666753590107,0.11484452279806136,0.22358488350212571,0.31545126629471776,0.5370491406980902,-4.487780205315351,-8.274960072436928,5.703091843744756,-12.870253519101965,5.529491913818305
891,0.01666666753590107,0.23510277774054555,0.0881821413218975,0.21390753909647464,0.6215944233549758,-4.640560198754072,-8.368632627868651,9.519543712306714,-13.616560968952578,2.4847227150906157
907,0.01666666753590107,0.0873949729995802,0.09778379014283418,0.22228899847269057,0.44562060133349146,-4.656721059960127,-8.347234450531005,13.192765660199857,-9.188183914912715,1.5761668962707
924,0.01666666753590107,-0.19381021522432565,0.2966828529387712,0.26540684018731114,0.13841456428207458,-4.498553820525109,-8.282441368103028,12.930042433775316,-6.696476691065527,3.2642370505819502
940,0.01666666753590107,-0.006133607384189963,0.1769131486982107,0.3437392031461,0.3046619785917923,-4.6435529508292674,-8.19071410152018,9.22217264376999,-8.68265002481516,3.3309647971218013
957,0.01666666753590107,0.04963703261660412,0.12978987073451279,0.40653497427701946,0.3353377056288533,-4.705801901732385,-8.12023479014933,4.162199886329411,-9.764182305356353,3.2982353843927465
974,0.01666666753590107,-0.3637757002091035,-0.017939853577315805,0.4122235413074493,0.22146336130350827,-4.742463114653527,-8.161384546661376,-2.5686702223017153,-3.9474130619341357,1.2752577897439108
989,0.01666666753590107,-0.32749428038578476,-0.19427052621245383,0.13329787885546684,0.1635537182463333,-4.920831138335168,-8.445098027911781,-7.153127771046947,3.503774559538648,-2.6637985357407143
1007,0.01666666753590107,-0.32716994380224496,-0.25209347736686466,0.01545183615386486,0.1273413450712338,-4.953302498351038,-8.578873461151122,-8.787488305932978,10.796782256909928,-2.870111870140354
1024,0.01666666753590107,-0.4764729453127831,0.06882657572776078,0.2342921554774046,-0.03875635856948793,-4.632479768151045,-8.360852056995034,-5.162796559640068,8.177493502669249,4.071973514280366
1040,0.01666666753590107,-0.24378566774874924,0.10182955840229987,0.5150649071007967,0.17417795158065855,-4.641158164647221,-8.058134600067138,0.3009688973624533,0.3293330454795031,7.962805289130116
1057,0.01666666753590107,-0.07366736682243645,-0.05107844533026218,0.47326340868175026,0.3136402348173782,-4.815635902892053,-8.08940944377482,3.594827597920676,-4.5450832157274,6.959890193483062
1073,0.01666666753590107,-0.12475454344842582,-0.1165790915057063,0.3640039925396442,0.20425514646898954,-4.914995564049482,-8.182184758105874,1.619618211892794,-7.939714127093595,3.571672189417275
1094,0.01666666753590107,-0.1664047968285158,-0.09017799131423235,0.46830257140398024,0.10699072229145094,-4.895542383299768,-8.07594147491455,-3.2576401550607756,-8.813295321938226,1.1269852684769237
1108,0.01666666753590107,-0.09412411685781553,-0.16244886227697133,0.5125520474970341,0.1399109951185994,-4.952105397520959,-8.041674463653564,-7.35702556635793,-7.776771426706478,0.15329232344076302
1124,0.01666666753590107,-0.15991455802638083,-0.17191840915083884,0.5182528894871473,0.0442925845824182,-4.938787943047285,-8.049455619049072,-10.807094135009356,-1.991258836473531,0.48687904264866344
1140,0.01666666753590107,-0.17233120946912095,-0.06930354558974504,0.5889467203915119,0.04339474069355055,-4.840924657927453,-7.975834502521157,-11.572723336248288,0.793670276072156,2.2817770908386152
1157,0.01666666753590107,-0.18188337485883385,-0.03941460328251123,0.6900795287013054,0.02917916833637282,-4.796482289610803,-7.8829095505863425,-11.87571821179287,-2.0723167467788923,4.564731535535412
1174,0.01666666753590107,-0.12324138067280872,-0.07595248208492994,0.7383961081027984,0.058957051484566175,-4.818030104552209,-7.843554860797524,-9.872680714095653,-7.293686660863463,4.662071549605026
1190,0.01666666753590107,-0.16937349217468872,-0.10775310323238373,0.7820300826460123,-0.01137260401621461,-4.8494542936027045,-7.800608868518471,-8.066818824905654,-8.73201009439955,3.796868008664238
1207,0.01666666753590107,-0.0632206820121035,-0.22774638709574938,0.7469102539479732,0.061500909014791244,-4.961682496422529,-7.840561524200439,-8.668096599241156,-7.220957099033874,2.3358047409470624
1224,0.01666666753590107,-0.030476688200468196,-0.23214286848902702,0.7325128952831029,0.07616539418324828,-4.949711488121748,-7.864204850116372,-12.476776566301284,-5.887588486718318,1.672783550618527
1240,0.01666666753590107,0.12521816063849256,-0.2905456653580069,0.48634442405104633,0.21832112688818014,-4.990113641136884,-8.1203838432312,-16.25519794156461,-3.4053472647305325,1.6398225517879264
1257,0.01666666753590107,0.1491320927898865,-0.08459493048489093,0.37333588450849053,0.23104032320776022,-4.750842820464074,-8.251616021728514,-17.039330979038755,-1.1986258420207179,3.2741256703962476
1274,0.01666666753590107,0.19989793764017522,-0.04312719406485557,0.3159182992845774,0.2747344989390345,-4.680812714165449,-8.324489534759522,-16.914490488936554,-0.897389953630826,3.070819753665529
1290,0.01666666753590107,0.1842953679040074,0.0018897592693567274,0.20181553476452826,0.2539348857161589,-4.620658105193078,-8.446744041553139,-16.887939836085422,-1.715459426326413,3.228900640024066
1307,0.01666666753590107,0.1614514487374574,0.03219195855259895,0.16595044065713882,0.22415700713454279,-4.566489584892988,-8.495376262775062,-15.570379269717037,-2.3101949466540996,3.0306087224743714
1323,0.01666666753590107,0.16570938017657025,0.04028963255137205,0.15079028092622757,0.23313524509381967,-4.543445393913984,-8.518420453754066,-11.655548771444801,0.8922675251967279,1.1782414626079323
1341,0.01666666753590107,0.2092145955072716,0.0362462023794651,0.12993921607732772,0.29643195605077777,-4.5483834348380565,-8.538621530261635,-7.710008035116896,4.081552854591308,1.4538151563473227
1357,0.01666666753590107,0.17198873444069177,0.29833880345225333,0.34313130038082595,0.2832638560530729,-4.279334731017053,-8.328829609790445,-7.369130369114485,2.3281122403943355,4.299057240502602
1374,0.01666666753590107,0.17357965689394622,0.2793859734401107,0.31315351074635983,0.2901471675597131,-4.282626466038823,-8.366986614227294,-10.786554048627835,0.8379412143946514,3.8406896486053936
1390,0.01666666753590107,0.02894573403983377,0.19210837974250317,0.21267478243112564,0.15472514529027975,-4.346372377501428,-8.479664314380287,-13.988656868330178,1.1882371242931287,2.056525135974411
1407,0.01666666753590107,-0.08312819153373129,0.27467764961868524,0.18993103570342063,0.05731105610951781,-4.225913814213872,-8.521861534118651,-14.889757749114438,2.2873163742554956,0.7321824052036153
1424,0.01666666753590107,-0.1269675341896247,0.29627777926921844,0.2278729360848665,0.02289440724477172,-4.175635871611536,-8.498518652454019,-13.441748253561626,1.1166480973332267,1.787394124891341
1440,0.01666666753590107,-0.09378792543970048,0.3652434712067246,0.2314203994333744,0.06628931233510374,-4.0803170102775095,-8.508245096698403,-12.673371608729054,2.177586397031479,2.422636722422023
1457,0.01666666753590107,-0.09618070232775061,0.32320465690046546,0.3105541419029236,0.07691358220204711,-4.0837583829030395,-8.448389470672607,-14.165167739503525,4.325806822613311,2.3894355997534142
1474,0.01666666753590107,-0.10714392182547598,0.3434001804500818,0.4238572804778814,0.07347193558188155,-4.031235876244306,-8.35112502822876,-15.233785839871517,5.601029180750903,3.779815160740832
1490,0.01666666753590107,-0.038766258908994496,0.2665881589263677,0.6858709710955619,0.14963743936298415,-4.059666728697717,-8.112901963043212,-17.055516819824394,6.725821318174018,5.35049997642895
1507,0.01666666753590107,0.011072762553114443,0.13531623294055461,0.7761965541869401,0.20560190316913649,-4.1494492909535765,-8.042721926879882,-19.00331772393007,7.277091008727624,5.732198268005943
1524,0.01666666753590107,-0.0064421984093263746,0.07634908018708228,0.8216980761677026,0.19557620198354123,-4.162467762480676,-8.019229407611489,-20.76695794499199,4.463003978697711,5.348592646103224
1540,0.01666666753590107,-0.06513661690233274,-0.051174014659225935,0.8457663494974375,0.13901318776234983,-4.224717297905683,-8.026112737384437,-21.03934759663939,2.564857696084379,4.162029985373807
1557,0.01666666753590107,-0.17620646173357962,-0.14128858534842728,0.8220505428671836,0.03097481958149001,-4.266465897093713,-8.072350172424317,-20.51432973816073,3.649931856597046,3.469491705660238
1574,0.01666666753590107,-0.17234220578717066,-0.17469634943157433,0.8428659518808126,0.039653800599556414,-4.251502136717736,-8.073696910858153,-20.98307537561495,3.7695592048152347,4.602785934496138
1590,0.01666666753590107,-0.12434691249560564,-0.29549072054475545,0.8849848456859588,0.09337373688193037,-4.308065443199872,-8.060529386249184,-20.13357572023649,4.983922016127074,4.540632920596314
1607,0.01666666753590107,-0.21349800844751296,-0.35097850674986836,0.935557679581642,0.013167963000386952,-4.317043699425459,-8.030452227893472,-19.9609239059442,5.623143198849288,3.041090714972814
1623,0.01666666753590107,-0.2207791784316301,-0.38496787011325356,0.9311123906105756,0.014215426226705312,-4.303426385222375,-8.055591345325112,-20.765931709069193,3.5694777777029967,2.7488237187367948
1640,0.01666666753590107,-0.20033897767225278,-0.4291539255812764,0.9420371047288179,0.03336900297533721,-4.282177845488488,-8.072948722839355,-20.821150373414163,-1.2209864939811645,4.128186824923216
1657,0.01666666753590107,-0.23184282609652726,-0.4141340511038899,0.8333113570719957,-0.006584182429593056,-4.218133243340254,-8.202685109820962,-20.788940908835674,-1.5650022050203736,4.067406679046566
1673,0.01666666753590107,-0.2519160749733448,-0.4858627780139446,0.6723363667398691,-0.0294787723374553,-4.240878159111738,-8.384194938659668,-20.665022494271426,2.414572616889765,2.2834445107697445
1690,0.01666666753590107,-0.3552723314862698,-0.4661044768378138,0.6306231311261653,-0.1215058803834021,-4.1554350873649115,-8.45257990809977,-21.318611833686408,5.3151960092696235,1.5312156070738479
1707,0.01666666753590107,-0.2821221204057336,-0.35619127296209335,0.6370335826903581,-0.04070157435312867,-3.993078287285566,-8.467094755664467,-22.63263606961202,1.9351300494216588,1.4338950163546864
1724,0.01666666753590107,-0.2103225202165544,-0.40371640972495076,0.5494646048307419,0.030226649829000234,-3.9870927831351755,-8.575880709075927,-22.02537248824265,-1.7408076457185053,0.5554027020534048
1740,0.01666666753590107,-0.10282490784889087,-0.2687508899182081,0.34221710814535616,0.1267429225203581,-3.7838852094903586,-8.80991450587809,-21.278119057191986,-4.056924046217889,-0.06900219953346538
1758,0.01666666753590107,-0.08177729751458392,-0.1097957149758935,-0.0376841262280941,0.13781610519858076,-3.572446983116865,-9.210045458331704,-22.351507190921588,-3.861550326991082,1.2384087057282804
1774,0.01666666753590107,-0.12416441380186005,-0.016515958254039287,-0.21243980463147163,0.08574220082387328,-3.4277474202811717,-9.40427448348999,-19.90356226974714,-2.226464297949148,3.1304302296468154
1790,0.01666666753590107,-0.20530436326097695,0.0922474910646677,-0.31203415132761,-0.001945416713040322,-3.266737358635664,-9.523236378479004,-12.984073498978349,1.2948323648532267,5.223021752646655
1807,0.01666666753590107,-0.2392672222099267,0.20727555373609063,-0.14532207864820956,-0.0362124462403357,-3.1232348966300485,-9.366865082550047,-11.078434498845514,2.745409264482023,6.2472525880328496
1824,0.01666666753590107,-0.2592832610067911,0.1725453088775277,-0.008266893085837364,-0.05401933935405686,-3.1320635152518745,-9.239074568939209,-10.641364717440874,3.4641825142410223,6.230250966528218
1840,0.01666666753590107,-0.18364923375388606,0.1636982778161764,0.3450561309635639,0.024390783282369374,-3.1061762098014354,-8.898050469970702,-11.794939272026422,1.6075580188092555,5.314203070519033
1857,0.01666666753590107,-0.06903928689667954,0.17933569967001675,0.25065818386673927,0.13467369725331663,-3.057992901390791,-9.003993893432616,-15.281139541387216,-1.735673691340183,3.9665700350087287
1874,0.01666666753590107,-0.03210108366506174,0.1806044044315815,0.06620002661645412,0.1620573970076628,-3.0166929227530956,-9.202563578143716,-17.469330660878786,-3.332198926927458,2.9640895101476175
1890,0.01666666753590107,-0.1233842962748371,0.5663195857807993,-0.34742870531380177,0.05596433594198897,-2.5767583676993846,-9.635016253009438,-14.85443201072713,-2.7181548887029683,5.532265824394976
1907,0.01666666753590107,-0.13805152138965204,0.9125701872259377,-0.643417730769515,0.030974856114108114,-2.202215445488691,-9.94072529296875,-8.602554103965714,-0.17689498927288091,9.175026409250332
1924,0.01666666753590107,-0.167135083864443,0.9738079152598976,-0.6714233435481787,-0.0023943295243196187,-2.126948023058474,-9.973495928192138,-3.880966420367313,3.401748608811582,11.398842087905397
1940,0.01666666753590107,-0.15096339073712006,1.1081225699424744,-0.5746896469801664,0.01062414200277999,-1.981350342339277,-9.880570976257324,-5.569705506330401,2.9012080138841294,12.398441980484055
1957,0.01666666753590107,0.06457160343071446,0.8441507309943437,-0.4622516008019447,0.21981751205893232,-2.2251099988639353,-9.77492682800293,-8.707761215298712,-0.17951297943740563,10.42728951337975
1974,0.01666666753590107,0.22302081987857816,0.7799722733333706,-0.5099731369197368,0.364965987705905,-2.2556360700309277,-9.833884043884277,-13.281231977877155,-3.3239373862395043,7.713926002379544
1990,0.01666666753590107,0.2909489489292726,0.9027648325264453,-0.7503601021409034,0.40656525068427435,-2.058712983483076,-10.098443911853431,-16.713411427318672,-5.097815420537036,6.700306719642612
2007,0.01666666753590107,0.28601989502925423,0.9150336547300219,-1.2219938637942076,0.3851670916129369,-2.0060408392205833,-10.582969888305664,-15.908617067605238,-4.437689590086351,4.4780624113834735
2024,0.01666666753590107,0.27860580111416056,0.9219865426078439,-1.522747327172756,0.36571419399101285,-1.9636931050956248,-10.894814654541015,-13.073539585595407,-3.350758685336498,2.8742789258642967
2041,0.01666666753590107,0.12647829850111156,1.1161840035840869,-1.9819354487508534,0.19707261912033427,-1.7316051816642284,-11.365724193572998,-10.923042572585846,-4.981404237644278,3.0190849126840904
2057,0.01666666753590107,0.08008781919083557,1.075651794448495,-2.353849776023626,0.1360204859195044,-1.7389374242484568,-11.74774899597168,-12.503064256869372,-7.087105881869134,3.5558139842683865
2074,0.01666666753590107,0.10021035970263183,0.999025943146646,-2.5437737974643704,0.13661904318440937,-1.7797884900748728,-11.948413607135414,-14.939314186637464,-7.292405146620439,1.7234272688800558
2090,0.01666666753590107,-0.014092493966780603,0.9028805678606033,-2.7631542150139805,0.006733600837644189,-1.819292817467451,-12.184392108264564,-18.510113179058035,-3.1712521358818657,-4.193525695184028
2107,0.01666666753590107,-0.02772466552898986,0.8453864102691412,-3.035168490642309,-0.006883423387783113,-1.8264757147088646,-12.470797897338866,-21.717891032187016,-0.5584895206714274,-8.945982845623124
2123,0.01666666753590107,0.014268206726713105,0.8329986378610134,-3.135213503715396,0.04234734139931388,-1.7835294301688671,-12.586318127441405,-22.356272955414962,0.7097094820086867,-11.088061650480647
2140,0.01666666753590107,0.02207140270738164,0.9710986563012003,-3.2741362367153166,0.05880748009617673,-1.5747852651849388,-12.744485074615477,-19.331747370170135,-1.6431707318634077,-10.822601225746222
2157,0.01666666753590107,0.08534214125615544,1.0024746222957968,-3.308913535585999,0.12270273461830801,-1.496973418968916,-12.791621504321693,-16.834891464349226,-2.5634662584844,-9.896030569546987
2174,0.01666666753590107,0.06316874176231213,0.9624991702601313,-3.274711990776658,0.10040672709152568,-1.4971230565726756,-12.767827956280112,-13.997145939694859,-1.9816587921516666,-8.004065608132516
2190,0.01666666753590107,0.018531430828874,0.9880709800206124,-2.873444143247604,0.05790964305717498,-1.420358965843916,-12.37966801212728,-11.769226171122263,1.6270745373106263,-6.581169010610549
2207,0.01666666753590107,-0.005527791544725187,0.8651524563603102,-2.3856068502902983,0.043993350474094035,-1.5108898622490465,-11.89993043899536,-12.022644118576308,3.677550580279639,-5.887122753194288
2224,0.01666666753590107,0.00012420176840387284,0.8147711995139718,-2.1574901685774326,0.0635958674334688,-1.5304923883415757,-11.679364611053465,-11.520107827750742,4.97289766391985,-6.399212771121409
2240,0.01666666753590107,-0.01882242683181539,0.7474475756950676,-1.7003262463033197,0.06748643143149093,-1.5614672261893747,-11.230900712585449,-9.735811407091413,4.315230274683547,-6.502264103997622
2257,0.01666666753590107,-0.08705636129551567,0.8231453523665666,-1.4882704725533722,0.0080803118720185,-1.4598634393669665,-11.024999369812011,-10.089750956107828,-0.07401387751738868,-6.512956765143278
2274,0.01666666753590107,-0.11375420681070536,0.7575149423316121,-1.5344418566197155,-0.019901910897903143,-1.5001161009088158,-11.07722347804606,-9.40940861948755,-3.816909491236348,-6.526236360437075
2290,0.01666666753590107,-0.22699573312522842,0.6860188551336527,-1.7658184169113635,-0.14365221834038383,-1.5454562948480248,-11.314847408294677,-4.98021365029458,-4.485150867081478,-6.810242456315375
2307,0.01666666753590107,-0.2754829746522009,0.7186261164888739,-1.9923440300405024,-0.19916776020210236,-1.5040066786065698,-11.543493666839598,-1.8996320622012217,-3.878049502704894,-5.868958291983462
2324,0.01666666753590107,-0.28029187277127054,0.7290273912549018,-2.086609290668368,-0.20724819993828422,-1.4872471208550035,-11.639262317767738,-3.4432439290101136,-0.6149486114026933,-5.788731316879315
2340,0.01666666753590107,-0.36926059789359567,0.60411754764691,-2.2141788550049064,-0.2819173824807163,-1.5931905443169176,-11.771091877636312,-6.578702031659705,6.422116102955754,-6.409192104385621
2357,0.01666666753590107,-0.3516930482273921,0.5474139559112489,-2.101337488722801,-0.240916669917386,-1.6337421888053416,-11.661707373809813,-5.084154188423365,8.424389473239577,-7.896553307954638
2374,0.01666666753590107,-0.38565640036668625,0.5097283683784306,-1.945133950576186,-0.25184023325815796,-1.6623232633844016,-11.507281366729735,-1.7445314861983374,5.593251302833551,-8.437737370425074
2392,0.01666666753590107,-0.4417576788276434,0.508956361092627,-1.5521943709313868,-0.2971804089310579,-1.661126016423851,-11.11463229446411,0.5938545860073139,-2.234533739566695,-7.787715097304131
2407,0.01666666753590107,-0.4946534027129411,0.40442441186383365,-1.4545084882050752,-0.3546412670411169,-1.7687153073966502,-11.016320388793945,2.4826484720170474,-4.522833020732437,-8.607478670357292
2424,0.01666666753590107,-0.4675246823666617,0.3943634749680757,-1.3620172515124083,-0.3329438144959509,-1.7856246488824485,-10.922347973632812,3.105517114649194,-3.7724940517242245,-10.444134467420293
2439,0.01666666753590107,-0.5065512727122754,0.5092573898658156,-1.389621297752857,-0.3722984768853057,-1.6808781801201402,-10.947637313190102,3.8091623491702613,-1.2880428366531167,-11.758284208071903
2457,0.01666666753590107,-0.5310091664141043,0.6493069349385797,-1.284852763289213,-0.3901053882653359,-1.552040203282982,-10.8401969291687,6.0181898144986015,0.9538334629930477,-12.361757034451916
2474,0.01666666753590107,-0.5316396098047494,0.732789812528342,-1.1059750365197658,-0.3808278294327669,-1.4857507448174059,-10.657190724292397,8.026840873919923,1.1363438015786047,-12.164644605194518
2490,0.01666666753590107,-0.37150326225385066,0.8249994558006525,-0.7141063009768724,-0.20919355271924286,-1.4172167222954333,-10.25960302658081,6.153032689753463,0.5101537660191282,-11.712923214246555
2507,0.01666666753590107,-0.3405317854069173,0.886568753876537,-0.4619003031462431,-0.17148485830547286,-1.366938487432152,-10.004620549774168,4.025942308142711,-0.6373529125408045,-10.343477969621814
2524,0.01666666753590107,-0.22660927282460033,0.7919061644941567,-0.2429267128318548,-0.05776026118174195,-1.4721338690057395,-9.783156896209716,5.371189473198565,-2.304231551178444,-9.079709411835513
2540,0.01666666753590107,-0.20901724630426613,0.7327405665591359,-0.16301146459579466,-0.04309579427959397,-1.5453065111137925,-9.699958388519287,7.945519787888106,-2.844730673741175,-8.907139559813261
2557,0.01666666753590107,-0.2180150474805385,0.6584053104124963,-0.03745265555977821,-0.05581499059917405,-1.6335926973320543,-9.571120411682129,8.453826734788686,-1.5161436207314511,-10.295981687907192
2574,0.01666666753590107,-0.1921408024410717,0.6053617024891078,-0.07840133654177188,-0.02813201563730836,-1.6980865045525133,-9.609278000640868,5.798934765725669,-0.0430913433084931,-12.343971221853202
2590,0.01666666753590107,-0.20717476024273782,0.6267360605597496,-0.08075929784476757,-0.038008134018070995,-1.682374556157738,-9.610175826263427,6.814196282071166,0.8481723575236545,-11.890057340181666
2607,0.01666666753590107,-0.1636753353320062,0.7967633952669799,-0.03876724528968334,0.008080247939936816,-1.5123863844171166,-9.568127659606933,10.835528212524117,0.9968081594771216,-9.572781621792378
2624,0.01666666753590107,-0.0309801533437334,0.7963878399528562,0.18389584719240665,0.13781603213334456,-1.5240579713799058,-9.342773428344726,15.356645575114413,-1.2654504918694187,-6.764925431832809
2640,0.01666666753590107,0.027853600554727017,0.7848674980290233,0.29957915890216824,0.18809428526293484,-1.5520403494134545,-9.223212982940673,14.83434954702,-2.9873719174808984,-5.134090128332151
2657,0.01666666753590107,-0.06753028883952647,0.7158129587642849,0.40014205836951733,0.07436972467182204,-1.6130924917474387,-9.124901077270508,15.688408353669443,-3.8542787368459575,-4.2724468234962325
2674,0.01666666753590107,-0.12218306725891306,0.7448819629907607,0.3928174145698547,0.005536426942329854,-1.6145888677850364,-9.124901077270508,21.91181547064931,-2.4374671975442364,-6.639282821389956
2690,0.01666666753590107,-0.17115268547534943,0.8217451301798224,0.3919593364357948,-0.0418987117158249,-1.5952854707695543,-9.111284055328369,24.05569573790042,-0.1520166388709177,-7.556322802376085
2707,0.01666666753590107,-0.19505294529441744,0.9875538242787122,0.5350502950310707,-0.05970558656323701,-1.4870976293817162,-8.953266745758055,22.52363649574237,1.368750486320103,-7.077761329310911
2724,0.01666666753590107,-0.09117768814237788,1.0292872258976102,0.7518482948720455,0.05716140023944899,-1.515379136492312,-8.717737157440185,20.667465994447,2.501944396752568,-5.844256059076465
2740,0.01666666753590107,-0.058117312724795187,1.0715025658145547,0.8493079676270484,0.09741389738451689,-1.5243568081960082,-8.60625714263916,21.307599861197055,0.20064697211160024,-4.727260155704096
2757,0.01666666753590107,0.030452896332927047,1.0575269396930933,0.9718395377963781,0.18629865228412673,-1.5922925725638866,-8.468740769305825,22.59993995405517,-2.0192083974440465,-5.003554968009452
2773,0.01666666753590107,0.005029491200344636,1.0709437628880143,0.9363134663850069,0.15771786083285697,-1.651250080706179,-8.483703945159911,21.548546737000304,-2.26425594807024,-5.488713123152389
2790,0.01666666753590107,-0.03798314570728689,1.0770420797631144,0.8920470391571521,0.1135747677237261,-1.6968892575919627,-8.512883277893065,21.162581284739346,-1.9181572427775888,-5.938595058779504
2807,0.01666666753590107,-0.017357350114779548,1.0978802851304412,0.8369237023502588,0.1345240322500933,-1.747766042870283,-8.546551738739014,23.297735985325765,-1.026591306074668,-5.513070004619478
2824,0.01666666753590107,-0.14078074542414395,1.1840797282025217,0.7440922739177942,0.013916114486567675,-1.7191855528131126,-8.621669815826415,24.06569513484532,0.5045671515257337,-4.6086966094491375
2840,0.01666666753590107,-0.20481805931506677,1.2160855165332556,0.7210352234572172,-0.04309583081221208,-1.744623653191328,-8.626607856750487,23.159042164039487,2.2660213385272767,-4.377998005608672
2857,0.01666666753590107,-0.23676046355338765,1.2038079265013337,0.8856815957784652,-0.06359618252729997,-1.8297671574696897,-8.438363751220702,22.28283817655357,1.3127034480948594,-4.391238754201564
2873,0.01666666753590107,-0.29119590942766516,1.2416010660618544,1.0468389569401741,-0.11372476152051239,-1.84547939812541,-8.259546814727782,21.979123569825198,0.16784055967182407,-2.9954031527277754
2890,0.01666666753590107,-0.3267597555661574,1.2510247279673814,1.1032564252108334,-0.14529829591382293,-1.886330463951826,-8.186224388885497,19.456779105569094,2.049290684982898,-2.096123798017795
2907,0.01666666753590107,-0.484832558183372,0.9832669407397508,1.1283762534201145,-0.29089566610576584,-2.209996600884199,-8.141782020568847,15.756920273686548,3.5957283291174713,-3.138631152405885
2923,0.01666666753590107,-0.6230511615019291,0.7398667651772499,1.197934358292818,-0.4185365969117731,-2.489070731896162,-8.059630976104735,14.626412975475425,2.863779431006106,-4.087193737072092
2940,0.01666666753590107,-0.7049081183902919,0.7188225158438086,1.19110480453372,-0.4930561418504454,-2.544885850359499,-8.054094384765625,14.823692744367488,0.144464930928543,-3.748143573559483
2957,0.01666666753590107,-0.7136931901313364,0.5548021664664149,1.1578501851856708,-0.5017351046022027,-2.7569223348870873,-8.070255830493569,15.475122036457455,-2.3040441478630918,-4.253509270248727
2974,0.01666666753590107,-0.7606575512062758,0.47954643447399137,0.8870511305660009,-0.5509658762391656,-2.868252419823408,-8.328080837249756,15.619291961910791,-2.595724601604136,-4.6640582808798525
2990,0.01666666753590107,-0.754673727556318,0.5178063147634268,0.7365086869210005,-0.5461774546525441,-2.8685519872918723,-8.464550331878662,17.730653698523472,-1.6707849732343576,-4.7577842711048834
3007,0.01666666753590107,-0.7034138612445443,0.6527709577873348,0.5811497829049825,-0.49230793556533753,-2.7998677426442504,-8.595183959960938,24.392065479050625,0.17918809188458046,-2.1410004887423058
3024,0.01666666753590107,-0.5451097706221044,0.7503489962249994,0.7148334462076426,-0.3327942316911183,-2.7603639997735616,-8.439411214447022,24.397422054907207,0.41667590376003943,-0.838144038996489
3040,0.01666666753590107,-0.5311754263591021,0.6638882718682289,0.7814198417931795,-0.31573554486250505,-2.9011726926505563,-8.351723578643798,21.921539952480114,2.2262873533609624,-0.6034466262012448
3057,0.01666666753590107,-0.5472611034370959,0.450893171441555,0.9809323603123425,-0.3190275538789108,-3.181144357024133,-8.125471521759033,22.004856307523223,4.941129600316474,-2.4333170038498073
3074,0.01666666753590107,-0.46469340446349233,0.3856973534315824,1.1795330246835947,-0.2214638544938527,-3.2959166913688183,-7.906551707458496,21.425236209272185,5.499280279572046,-3.919157423111439
3090,0.01666666753590107,-0.41271245733555406,0.3785065651446581,1.1960574585050343,-0.15637149685835464,-3.3500855039298534,-7.870489044952392,19.92121660120433,3.066464440852588,-3.3544081407874007
3107,0.01666666753590107,-0.24439280332904306,0.4050844832077622,1.2286655966430902,0.019303049955610184,-3.3800130246818063,-7.81422589046061,20.500922076819993,1.319979093664804,-2.4480533504275215
3123,0.01666666753590107,-0.09774893802516162,0.4454208775103092,1.0620452939003706,0.1669953466001898,-3.3834543973073363,-7.962366533660888,22.203314284047114,0.39425884937808736,-2.189279680890541
3140,0.01666666753590107,-0.09772873548734932,0.5347510198235511,0.9737322196751832,0.1693895665266551,-3.3475413724049923,-8.027758751025795,24.636063741865573,1.0691522425054274,-0.5637584246467106
3157,0.01666666753590107,-0.09685109413629397,0.7114756602123379,0.8491057230532169,0.17058666735673322,-3.2516239606559276,-8.117091815948486,28.084404272656986,0.9371601174554003,3.726328803124108
3173,0.01666666753590107,-0.0828857336805202,0.6644841919347644,0.9217097714930772,0.17971456118607892,-3.36489962670207,-8.015039554706215,29.039969935656572,-0.04201855004155153,5.792684715748283
3190,0.01666666753590107,-0.0936344701773487,0.6196963711813092,1.0279477939873933,0.160560966171138,-3.4756317457452415,-7.879018972888589,27.546719828362537,-1.5556090940860194,5.622288144542567
3207,0.01666666753590107,-0.18717201931886374,0.5005193721368909,1.2325251946806908,0.055216074857953934,-3.6730034528434277,-7.6384017060428855,23.116768415718987,-0.6396689869996736,3.0286964829501795
3223,0.01666666753590107,-0.08019667725963518,0.30080431678295133,1.190543663519621,0.1631047689024359,-3.9199054990470406,-7.658003647613525,18.23711393302721,3.4569802932046554,0.6512093920152034
3240,0.01666666753590107,-0.0009371712522581219,0.31592560580819845,1.1493629273474215,0.2533362257032655,-3.9404055585011837,-7.681796026611328,12.833938257058653,6.456634598360529,1.0197381717379124
3257,0.01666666753590107,0.06275774067547171,0.439246280528605,1.1051415083050726,0.33399093066239727,-3.849575825279951,-7.709778843036293,9.853504104227195,6.581937833778998,4.3365652243297275
3273,0.01666666753590107,0.03168959852103144,0.48455491028577086,1.132129468473792,0.30870215736068785,-3.829225111168623,-7.670424153247475,12.030743869158297,4.0506684467118035,6.861347639232703
3290,0.01666666753590107,-0.006889467252790928,0.48205344885885715,1.1703794118911026,0.26680362830795346,-3.8615465413197874,-7.6176014945983885,13.232019611133568,0.8945311992980582,8.73217658026057
3306,0.01666666753590107,0.05185268110577017,0.3485354975119233,1.2505524342805145,0.3088518314970657,-4.0325826146781445,-7.519290173450112,10.020512474717762,-1.0194069075631667,11.170629246035991
3324,0.01666666753590107,0.13701101762708276,0.08439940791279077,1.276965809431672,0.380827518905513,-4.313751379881799,-7.484723886981606,4.398793797197245,1.519808017221163,10.894246495045072
3340,0.01666666753590107,0.16416412349594756,-0.01224982524216175,1.243710605561733,0.403123503599409,-4.415505242699385,-7.515548648834228,0.0032391104921727656,5.101224965593342,11.09504893400157
3357,0.01666666753590107,0.2617635883141309,-0.1467325299680233,1.2359428941696882,0.4996397580244578,-4.547934229765832,-7.524377851977944,-1.2719398119111656,5.440039487579586,12.744152859097897
3374,0.01666666753590107,0.5102202435486018,-0.27893881419450045,1.168105621740222,0.7432497769453562,-4.678118945036828,-7.5933607873111955,-0.8997346295068444,4.226959471171241,14.560708263207195
3390,0.01666666753590107,0.6104769996762275,-0.3238645821139216,1.0918623400151728,0.8357258526015094,-4.7227109509572385,-7.669975240436196,0.139493647110258,4.951455992567888,17.21411381235209
3406,0.01666666753590107,0.7218668519757687,-0.6091837449952959,1.0504612390905619,0.9317931394163519,-5.013456522801518,-7.709030070495605,1.8896025697352925,2.7230529881115135,18.308892391014876
3424,0.01666666753590107,0.8148861311305314,-0.843202928750217,1.0974158824890852,1.009006197755318,-5.252129085320234,-7.660099158588051,0.23239123677458653,1.0499880123548408,16.167564906966057
3440,0.01666666753590107,0.8399600013062357,-0.943780733525753,1.062801665225625,1.01992976109609,-5.348644755223393,-7.697059062194824,-4.597977054433626,1.6857300674685802,12.840645502823605
3457,0.01666666753590107,0.8327412290338426,-0.9950859733492136,0.8713105405986309,1.0075098582503386,-5.37288633929342,-7.902212216949462,-13.470324057501665,5.30210125597024,7.748478221843347
3474,0.01666666753590107,0.9632236120771616,-0.9130559249162673,0.5938970362752676,1.1451764171767047,-5.255570457945764,-8.1969982963562,-16.589392267464167,7.753519755224462,6.680109850266884
3492,0.01666666753590107,1.0824402124796062,-0.9326730640560388,0.5087409647762775,1.2747625820326618,-5.237913512963056,-8.300248827472329,-15.558556212263746,8.002750796717288,7.428197845056755
3507,0.01666666753590107,1.3062436341032384,-0.8545967216849326,0.35015783801674844,1.5137339083022436,-5.116856691521406,-8.479364454650879,-12.8347587335327,9.91846944851777,9.776474938315085
3524,0.01666666753590107,1.2089264385588467,-0.8060752673611045,0.28589433242082596,1.4287396945677697,-5.038595932494103,-8.557624921417236,-13.531108472246547,10.798840705171042,10.736649271457136
3540,0.01666666753590107,1.0770976093426345,-0.8625681389555334,0.2747346405029297,1.3115734508238732,-5.061490778130293,-8.584410052490234,-16.06730626768673,11.865203135565636,9.969856376738361
3557,0.01666666753590107,0.7047204137984663,-0.8179895770385861,0.23090309756100177,0.9632170727385208,-4.963926768217981,-8.652495162200927,-17.88390948312022,12.047291709969944,8.84013028141356
3574,0.01666666753590107,0.41045159973148254,-0.7330144150644541,0.2970142768502235,0.6853400608229451,-4.841523500603437,-8.603264975085853,-14.301071428513854,9.901167725576483,9.991187911289959
3590,0.01666666753590107,0.306180219401326,-0.6753133367240428,0.3615641981720924,0.5870281551527791,-4.759222234013676,-8.549843766021729,-7.07410120168943,5.625582003269806,11.559325066417662
3607,0.01666666753590107,0.23687320321286096,-0.6234393571019172,0.6346861427813768,0.5137057110441848,-4.701013206151128,-8.27974789123535,1.0713783505663226,3.726480347946318,13.263721934166181
3624,0.01666666753590107,0.15293271804871036,-0.6243444892480969,0.8654974704056978,0.4260181117735803,-4.704305817955732,-8.047959827533363,-0.881700795663895,6.437249667722387,14.423373649565749
3639,0.01666666753590107,0.09213997556958348,-0.6181769065290689,0.9022323330849409,0.3675098087035119,-4.68964104052633,-8.015038970184326,-7.270097748791177,8.985207768252861,15.216983574513286
3657,0.01666666753590107,0.09257456759456545,-0.7241945642709732,0.9442863449603318,0.3718492992125451,-4.764759409874677,-7.98690710067749,-12.36244859110538,5.596172062477377,15.16593474065661
3673,0.01666666753590107,0.10968798028510063,-0.7994602331355214,0.9569652092695236,0.37678735840292643,-4.812044600401818,-7.987206375885009,-11.879012924293756,-3.2238463000382565,14.030144291122483
3690,0.01666666753590107,0.09465546552184968,-0.8843065080329775,0.8495996440500021,0.3311478892561979,-4.873545947808027,-8.105868995666503,-8.727883806367217,-10.764110047015173,11.59210826688643
3707,0.01666666753590107,0.02571569347688928,-0.7983160315364599,0.41502632376849646,0.209193260458298,-4.7658068731009955,-8.551340726581214,-6.235338603686232,-12.368155214156927,7.986515437060168
3724,0.01666666753590107,-0.028115338497143236,-0.8265075222760438,-0.02800970443189144,0.12479764280463568,-4.7792739651784295,-9.0014500541687,-6.8105643289800115,-7.321341243039198,5.658191887688385
3741,0.01666666753590107,-0.014078410642500965,-0.8666039703428745,-0.14799275916218757,0.12270272548515349,-4.803215981779992,-9.128792239490151,-6.677508401966755,-2.7555465458707915,3.295657841754713
3757,0.01666666753590107,0.07512719197561964,-0.9658522800803184,-0.055527241432666775,0.2014120959296357,-4.886414781731367,-9.043498220825194,-2.9009815504244614,-3.4061457565331894,0.7683882774985009
3773,0.01666666753590107,0.22432627645395695,-1.0462433291345834,0.22177461920976638,0.3392283198592253,-4.9811353849112985,-8.760085183826089,1.4494599502560876,-7.811636981098454,-1.1336482247339768
3790,0.01666666753590107,0.2541702105756849,-1.009494437929988,0.32704175084531306,0.35015188319999724,-4.957343005913495,-8.649352772521972,3.9512571777763834,-9.988255198815084,-3.2925311092187277
3806,0.01666666753590107,0.3264306697422638,-1.0784370412528514,0.4872206223636865,0.3983351870440645,-5.052063609093428,-8.47801830073893,4.306361274046285,-8.848431522576064,-4.592712259244015
3824,0.01666666753590107,0.40186358493249863,-1.1083686536580324,0.6101338853269815,0.460584430208127,-5.102940394371748,-8.345888296619057,1.8104504956517766,-7.803357084277106,-6.12988261733535
3840,0.01666666753590107,0.40368732976093885,-1.1361349047228693,0.5695476079165935,0.4525039950385224,-5.1436415303334595,-8.380753273773193,1.218085264409496,-8.296763973503303,-7.188791176911345
3857,0.01666666753590107,0.4796585165463388,-1.1250976701408624,0.434391533973813,0.5175963709403295,-5.168032459746301,-8.500015028491616,5.345189931236089,-11.007444073933339,-8.549417793543952
3874,0.01666666753590107,0.567610794635117,-1.0288923813611268,0.24080372932851313,0.592864083348203,-5.109973361748457,-8.67628754119873,7.555297420226937,-14.040878787176803,-7.422370839921088
3890,0.01666666753590107,0.7198954057723284,-1.1522203626051544,0.1638894164741039,0.7157165897134778,-5.279812042015791,-8.731803092193603,4.918511428879977,-18.540623634080482,-6.982151914422249
3907,0.01666666753590107,0.6948910206362605,-1.124829666854441,-0.0386076708137989,0.6569090028735576,-5.270983131133019,-8.925584373584389,0.2098124189670962,-21.896456082753243,-7.891112208507076
3923,0.01666666753590107,0.3147473558090627,-0.7711185202702879,-0.6745154643446206,0.24884722088805863,-4.935046710692346,-9.553014261627197,-1.9365041981053008,-18.22432269625907,-9.178862414242941
3939,0.01666666753590107,0.1868003729948774,-0.6139297704786062,-1.009156584277749,0.10339949286645278,-4.78211737191081,-9.885509601703285,0.6457642905036752,-9.088873818154376,-8.84641661677091
3957,0.01666666753590107,0.21114183724280444,-0.5264750666484237,-0.9520300909548998,0.11836323497612028,-4.707897120445966,-9.822063257709145,8.039681629559547,-6.524189438120186,-6.076542681898959
3974,0.01666666753590107,0.40395284882932897,-0.3522197389826178,-0.5249368972957134,0.2965816393203102,-4.556014952629805,-9.384223629108071,10.820885994490904,-11.222752127139652,-4.41167169199048
3990,0.01666666753590107,0.3499947564095259,-0.16980799286812542,-0.484711269891262,0.20694870553505607,-4.403683579741418,-9.329156406402587,7.948482382440599,-13.744931813082028,-3.1368719518077834
4007,0.01666666753590107,0.2750653154957108,-0.07969312991797924,-0.5502881961733103,0.10369876807397231,-4.326320938597619,-9.388114206805824,2.5799737584912634,-13.982659108465262,-2.727679160613728
4024,0.01666666753590107,0.2356167551446706,-0.028424422712624072,-0.633999329560995,0.031723080665525046,-4.271254300414025,-9.472958728137613,-6.268735240519832,-17.735832689461635,-4.652376949851838
4040,0.01666666753590107,-0.10103135722931474,0.30353052687644955,-1.3545610902875662,-0.34506440560156476,-3.897459566222131,-10.212467765918374,-20.689496769614873,-12.744164811928943,-9.324342882243274
4057,0.01666666753590107,-0.4096383105872199,0.6338473538696765,-1.8657792588323354,-0.6588544424194842,-3.5151357808768746,-10.748020749774575,-22.515107297016318,-0.11383666848312655,-9.750987233653534
4074,0.01666666753590107,-0.4741364651892334,0.9835676772519946,-2.0450795949280263,-0.7010522649460472,-3.124880910271406,-10.946738903045654,-10.694232942937711,9.993517005796933,-7.419403976500363
4090,0.01666666753590107,-0.14233829533075912,0.9817682266145944,-0.9586743512749671,-0.3312977643219754,-3.1278733700856565,-9.860669759479164,10.179554283315156,6.581022161543394,-1.5281963432955847
4107,0.01666666753590107,-0.03201965245930478,0.9543652559041976,-0.4110375463932752,-0.2213141072922386,-3.1872794987782833,-9.298181422424316,16.037883520289608,-6.1388071132596185,2.125273978178351
4124,0.01666666753590107,-0.10844689418282359,0.8378650748535991,0.23839023844599722,-0.3250129849640652,-3.338862683647871,-8.63169553527832,13.879634242572081,-13.762128521864827,2.4839165393251426
4140,0.01666666753590107,-0.3735137618260458,0.8327470011875033,0.3519645951777696,-0.6340146184616722,-3.3762717923268672,-8.501660457611084,7.259987361272266,-11.77145878920721,-1.1516775762652833
4157,0.01666666753590107,-0.4352477489443496,0.842736480282247,0.30975919213294983,-0.7131729108505882,-3.3780677358329294,-8.537723704639077,3.0901666913764134,-6.188143704068736,-5.312603952479604
4174,0.01666666753590107,-0.5755671604670584,0.8314721589460968,0.22406185336410997,-0.8542811529297382,-3.394827147454023,-8.620772574725747,0.8346375906313338,-2.593955796052514,-10.105510763843986
4190,0.01666666753590107,-0.47785723927803336,1.0108534513235092,0.24967735613584516,-0.7510312063354998,-3.2182547750175,-8.593986859130858,1.345972659211757,-4.008037394120346,-12.34699699565552
4207,0.01666666753590107,-0.34212117349021137,1.0633420557126403,0.28972002818882464,-0.6135142484802752,-3.170071466606855,-8.551939276996254,1.9127517883797582,-6.632211014278054,-13.135972637251202
4224,0.01666666753590107,-0.12113191423816606,1.1522352679133414,0.30048107617795466,-0.40028069965522733,-3.0888179555043576,-8.537274207305908,3.457353178844656,-9.62900859281357,-12.802172754776215
4240,0.01666666753590107,-0.024815420168917624,1.27641957372576,0.19737375292479992,-0.3167828984909691,-2.9697064229115844,-8.637531401824951,4.013307311951833,-9.416224294505577,-11.815325679151618
4257,0.01666666753590107,-0.011728066390380263,1.310159346242249,0.12373217813074588,-0.31289232079321516,-2.9453157857596874,-8.706364699554443,5.049732596327439,-7.5069448035451245,-10.37240382075682
4274,0.01666666753590107,-0.04052647351454943,1.3929866825327277,0.0699216774880886,-0.3503017399994656,-2.8769314008414746,-8.75290199432373,5.560001515067105,-6.161912789448126,-9.530866458403302
4290,0.01666666753590107,-0.23560820651203393,1.432011409714818,-0.04209960458278656,-0.5497686658112332,-2.8458067792594433,-8.86094034423828,4.21969812630987,-5.502668053400372,-9.84221465530281
4307,0.01666666753590107,-0.3968150328386575,1.459173265145719,-0.014343582651019095,-0.7125743421692401,-2.8251567899405954,-8.829965944781899,2.527145446912388,-5.833816968703746,-11.076606569468888
4324,0.01666666753590107,-0.5710752558752894,1.4493994746282697,-0.06048632514476776,-0.8878000127045437,-2.8318901898488402,-8.877550702777505,-2.0866505390823984,-6.7929714692253516,-12.936751387087563
4340,0.01666666753590107,-0.65506009163782,1.4193433590605855,-0.12419979564249514,-0.9751883733002469,-2.8483503262624144,-8.947730154418945,-5.150432209695053,-7.925097522269768,-11.753905203040278
4357,0.01666666753590107,-0.6444135368738323,1.4370631401464342,-0.1744289306670427,-0.9702502958435565,-2.8130358517751097,-9.006239042010902,-8.115665776528648,-7.445875228402394,-10.331391096111831
4374,0.01666666753590107,-0.6945073550809174,1.2565525514781475,-0.2836380779266357,-1.028608961309865,-2.955640780419111,-9.133281367602944,-11.709660091370582,-4.7822086006900255,-6.401580712329288
4390,0.01666666753590107,-0.7582737978748977,1.0044172807961702,-0.29076982950270175,-1.0974422955719754,-3.1718668255910276,-9.157223384204507,-10.34364530925648,-0.7383788808846978,-4.15912971629749
4407,0.01666666753590107,-0.7518405499570071,0.8262249059423804,-0.12222118904590606,-1.0883143652100116,-3.3246471112906932,-9.000702450671792,-6.53433696479271,1.8772298954972262,-3.3332373291247115
4424,0.01666666753590107,-0.6784198513720184,0.5389467179477214,0.5020645557522774,-1.0136452374665066,-3.584717266625166,-8.389133564105629,-3.855013409068557,-0.5957702406260909,-2.0732076595787556
4440,0.01666666753590107,-0.5150664780033752,0.3094154932618141,1.0520207434922455,-0.8637083584992215,-3.795257082854211,-7.847445438495278,-3.4359305039563224,-7.514349582379064,-1.288692238232797
4457,0.01666666753590107,-0.42247941625341773,0.24840719006955622,1.1571417446553707,-0.7984663632599637,-3.8452366270318623,-7.746289833831787,-3.0298727695913024,-14.900178910240584,-2.213880955063869
4474,0.01666666753590107,-0.4248369391649961,0.25319763921648264,0.9835703076004981,-0.8520366619385779,-3.8223417813956737,-7.925854958343505,-6.0596746759699665,-16.4119968867933,-5.122164191154486
4491,0.01666666753590107,-0.4921955246994272,0.20652122823745012,0.3804512694716453,-0.9463082427093759,-3.8498748082265255,-8.536376381683349,-8.268066079931849,-8.929153259508213,-7.912726342135582
4507,0.01666666753590107,-0.5433045843636617,0.24517712210714815,0.21526596796810626,-1.0007763670105487,-3.790019766722619,-8.711003465270995,-10.478044649102113,-1.2179854796145901,-10.284839088049964
4524,0.01666666753590107,-0.47600072469115257,0.28623072476834055,0.1629974360704422,-0.9154829694001003,-3.7171462536916136,-8.77849060908854,-10.967379038035691,4.0336531648288325,-11.556225014308122
4540,0.01666666753590107,-0.32796273814775045,0.29754648403078315,0.45253333986401556,-0.7486370777405797,-3.685423373955488,-8.498967565265298,-9.350878167168773,3.74134070514615,-11.677135584316627
4557,0.01666666753590107,-0.23698431717082857,0.25554098747223614,0.6444564261674881,-0.6391023517884313,-3.7089164777457713,-8.316110413470863,-8.439666898865603,3.3720545748383635,-10.805305479220458
4574,0.01666666753590107,-0.11632307091802357,0.08595189805179834,0.8426444180846214,-0.4967969540802762,-3.851970026940107,-8.130559784808755,-10.11875706196558,3.384558516774541,-9.207521888000315
4590,0.01666666753590107,-0.05170603917669504,3.156418204307556e-05,0.7978846543818712,-0.41808757450263945,-3.9125732564628124,-8.186973161426186,-11.71665078998609,3.374873735418286,-7.605320018160818
4607,0.01666666753590107,-0.04883110479488969,-0.038487551565468306,0.7634580686450004,-0.40147780048530546,-3.9230481809869406,-8.234109006610511,-12.352143543195123,3.528363027107282,-5.77690911319967
4623,0.01666666753590107,-0.10565434085484593,-0.10537146879285574,0.5215981082618236,-0.43888720142524684,-3.9544717855155467,-8.491934013366699,-9.89600922520583,5.421271408400861,-3.4222282907076305
4640,0.01666666753590107,-0.15939064375013112,-0.09821516729742288,0.4004992012441158,-0.47719446452036496,-3.927985929650068,-8.621819453430176,-8.251904998581953,7.314337737818996,-0.635241210148507
4657,0.01666666753590107,-0.14203923931894824,-0.12707681238353252,0.32629297830462456,-0.44247850391548127,-3.9377123738944526,-8.704718685913086,-9.165228502885949,9.001474717534894,2.5034737187964162
4674,0.01666666753590107,-0.035390023941546674,-0.4419245598271489,0.2654483412414789,-0.3067572155716829,-4.2257644688710565,-8.77774242106974,-8.953437143328546,14.363367022612602,6.287607906970224
4690,0.01666666753590107,-0.034226989777851845,-0.6450652057155967,0.21181553525328634,-0.27967282755747436,-4.41146502739787,-8.839392529296875,-7.751974424924747,14.571609245122536,9.155623549365618
4707,0.01666666753590107,-0.0689741492385976,-0.732964146181941,0.18296645738780498,-0.2928409184220247,-4.486583104485273,-8.87410845336914,-3.8392399409540587,12.534739259145306,10.548778088146765
4724,0.01666666753590107,-0.05961958878021687,-0.8451859192609786,0.24995325046777725,-0.2648586682526395,-4.597464861132204,-8.808118270111084,0.2445919023033598,10.915981010757699,10.264384379033068
4740,0.01666666753590107,-0.02462419017944485,-0.7842141486868262,0.14429215107858182,-0.21652575877085325,-4.547336263872682,-8.909572565460204,2.210656465445388,13.469554807446393,9.994563732287236
4757,0.01666666753590107,0.009802523421589285,-0.7403828980058431,0.15178338361680507,-0.15622180445566772,-4.509028745049238,-8.9002950340271,2.490289105820765,16.632502713957994,10.409525898895838
4773,0.01666666753590107,0.06926551513429731,-0.7388228090822696,0.24567747284471989,-0.056712788822269065,-4.509926278410852,-8.806023343658447,-1.5065919213423056,16.635436280206513,10.689461202028811
4790,0.01666666753590107,-0.017785247537493706,-0.8655427708521485,0.02369184123277664,-0.1162685642518103,-4.628289915245771,-9.031827072253822,-4.780426348203475,15.485915442893367,9.425300762138878
4807,0.01666666753590107,-0.08323725053193047,-0.9631164253756404,-0.1769441283583641,-0.15248087806140537,-4.714181899803877,-9.23757819290161,-4.503780208042687,16.984388937355174,8.39673062219561
4824,0.01666666753590107,-0.11812509710500016,-1.0484943229317665,-0.44034313585460183,-0.14125805549613432,-4.783913023155927,-9.507674067687988,-5.920813515049022,18.178659466562948,8.984598173869438
4840,0.01666666753590107,-0.14469150739340111,-1.1679141908213495,-0.6386883641600608,-0.13706820087839441,-4.885367026244103,-9.713426357379555,-9.213019336508529,15.079462838216957,10.113076905897067
4857,0.01666666753590107,-0.22365389361772686,-1.1480199883058666,-0.8407014673233032,-0.19258373303613624,-4.841523500603437,-9.925163566699624,-10.439109155738455,14.013910639012654,9.86321492567966
4874,0.01666666753590107,-0.2594234001298435,-1.129346852017939,-1.2566659487247467,-0.18659824715205467,-4.79483656823039,-10.352228703308105,-6.325789091317418,20.294500099723866,8.757519997175901
4890,0.01666666753590107,-0.1684359373299405,-1.063045995375514,-1.2165659935265778,-0.0529718761277385,-4.718521098051965,-10.315717127990721,-2.4677080735378794,21.769330894373674,9.591036156122884
4907,0.01666666753590107,-0.1609644872044213,-0.9133189597666264,-1.0843839669585227,-0.008529507811088114,-4.566190017424524,-10.184036621204019,-0.054792951460605886,17.424048214228893,12.084378783389468
4923,0.01666666753590107,-0.2180038684993982,-0.6656611267596483,-0.8661825300604105,-0.04144978063823655,-4.324076666802168,-9.963171518054605,3.5650727325751617,9.720657778644092,14.943007611431149
4940,0.01666666753590107,-0.33907362248785794,-0.493475006583333,-0.8661047886490821,-0.15562329057324678,-4.16620928709656,-9.957185429382324,7.895196661630744,8.871444991210776,15.107130226997386
4958,0.01666666753590107,-0.3830556798163801,-0.3609025193929672,-0.8559095578491688,-0.191835572416801,-4.0560754262074825,-9.937732540893554,9.896623942231132,9.708197806050698,14.997249558724805
4974,0.01666666753590107,-0.24909150080559775,-0.3265399388030171,-0.6293541341036558,-0.04788417933359742,-4.047546375054121,-9.700407301330566,4.51307822993719,6.782263440154064,12.478086255074635
4990,0.01666666753590107,-0.06142660166956484,-0.20045301423966883,-0.6381424207150935,0.13796572453603148,-3.923646439141035,-9.708338678851723,-3.0028918148224597,0.7920788953563959,9.504024668738799
5007,0.01666666753590107,-0.04801286548087373,-0.014252104975283146,-0.844655757907033,0.14185626570116727,-3.723730308257043,-9.92067385406494,-8.3932822304384,-1.2141479805181008,6.317829359613414
5024,0.01666666753590107,-0.0654039443353191,0.5589397046625614,-1.532076296532154,0.12285232655629515,-3.1226363462150095,-10.619482048144937,-8.030792992128422,5.464533399716898,3.6103551792250537
5040,0.01666666753590107,0.11177465036604553,1.0538634487494827,-1.6742466331511734,0.31947613789662715,-2.616711607903242,-10.765677402496337,-0.29766922230224957,14.463663227932361,5.142536084127695
5057,0.01666666753590107,0.21763613116554914,1.2247726808577775,-1.292353932699561,0.46178148080585524,-2.4579458180531857,-10.377966371154784,10.025625725085163,20.69339680763095,8.291865020321112
5074,0.01666666753590107,0.5181114717224613,1.415882404951751,-0.17457973731458187,0.814327675263863,-2.314742923516035,-9.239074568939209,18.468117760946214,19.58401528452268,12.177704780661228
5090,0.01666666753590107,0.7261399261850864,1.422597100159526,0.9093196609973907,1.0509047085417433,-2.353499062889814,-8.135347603607178,18.627450706356978,15.056469006376108,13.527247707818198
5107,0.01666666753590107,0.8017102040193974,1.4424004095211624,1.1852718605965376,1.143081472457759,-2.376692891472578,-7.840711746326089,16.884852590580575,10.755089074668879,14.151752394199974
5124,0.01666666753590107,0.8455922350395471,1.5197089823901653,1.3817927960842846,1.1930604686461388,-2.3506559484183787,-7.622091207233071,15.118842293876664,6.286259371495969,16.543706839653243
5140,0.01666666753590107,0.7836970660101622,1.6651508880257606,1.2860679842978715,1.1245263730589299,-2.2406717251330615,-7.702745291137695,13.842107475724738,2.8893937076107115,17.853842990393822
5157,0.01666666753590107,0.7896729986146092,1.663419534188509,1.1871230414211749,1.1148000018797815,-2.27329330727458,-7.78878691329956,10.798773257052988,-0.5839649523368114,17.976110206726222
5173,0.01666666753590107,0.7064405886545777,1.6195999739453195,0.8287175995409488,0.9992797535109333,-2.342126605004072,-8.137292892456054,4.379577486854236,-4.294220185909764,15.877754857840536
5191,0.01666666753590107,0.5489638157017529,1.6254972152903675,0.3121569009244442,0.815674450230319,-2.3431737759694458,-8.651597921100258,0.9570595534371151,-4.775579475213705,13.487507105906126
5207,0.01666666753590107,0.5697414499882608,1.5600009530290961,-0.22618600591123103,0.8051998179671355,-2.406471066881716,-9.191789086151122,-2.7306434627135134,-4.447881086101657,11.007165743724661
5223,0.01666666753590107,0.5233311425995081,1.5126976423233747,-0.4243097004204988,0.7369650706526822,-2.444179450768232,-9.394698261371254,-6.176803882499223,-4.980515032391707,10.158012720446582
5241,0.01666666753590107,0.4809203531756997,1.3714528961166739,-0.9800321966022253,0.6715734378096647,-2.5674802517443895,-9.958831443023682,-9.018096836653765,-5.739456624659551,9.425682398958752
5257,0.01666666753590107,0.3781443077035248,1.182322363141179,-1.3560574663251637,0.5427354427061974,-2.7286405355155465,-10.347589937591552,-8.27550927857987,-1.99510444641966,8.722290735210622
5274,0.01666666753590107,0.3240637214152142,1.0812389469310641,-1.4509680391192434,0.4830300753386691,-2.814532520073652,-10.449194455066323,-4.887835341770157,4.890952896239445,8.187397276965767
5290,0.01666666753590107,0.27786760476641353,0.9144915106773376,-1.200976210206747,0.4469674128325656,-2.9750936689078804,-10.20169385844767,-0.4449005399272064,10.424086154659014,8.448021073994175
5306,0.01666666753590107,0.2526383248332888,0.843922475196421,-0.8833160356909037,0.4414308032271452,-3.048266164885461,-9.8825162651062,3.648064653632694,12.735117372599616,9.316568419420506
5324,0.01666666753590107,0.28473042147429656,0.7375891756340861,-0.021430326041579247,0.49769452397450803,-3.167228059874475,-9.01461816329956,6.490207966338904,9.57526866442391,10.883195248967992
5341,0.01666666753590107,0.23172657930571586,0.6091609486415982,0.6493441982090473,0.45205507309408854,-3.3053438604056833,-8.339453879657388,6.322971638284788,4.928784460278499,11.573685539147613
5357,0.01666666753590107,0.20595237884093076,0.5409992665633558,0.934390389367938,0.4159924288542941,-3.3888416433036324,-8.047959827533363,5.767571390830616,-1.1031788575682557,13.074296029045987
5373,0.01666666753590107,0.1710416080499999,0.5159767612487077,0.9897487039744853,0.36152435935204846,-3.4258018391713496,-7.987805510821938,4.926333276140111,-3.6796594011858805,13.765749375898581
5390,0.01666666753590107,0.09205883662477135,0.48385143819153303,0.9395914651423692,0.26066861441796646,-3.4654558041676875,-8.035090993610025,2.5373296858517,-3.310710511468363,12.886251529685426
5407,0.01666666753590107,-0.012145716413715854,0.3985913217961788,0.7765005055695772,0.13512267399667763,-3.5511981511220334,-8.198345034790039,-2.0063998717595686,-0.3358958967765333,10.768641877529475
5424,0.01666666753590107,-0.024595904799876733,0.395207816837728,0.760657624271512,0.11133029499887488,-3.547457795549929,-8.217499232593179,-3.491830693114411,-1.5071211542812757,9.420187511771477
5440,0.01666666753590107,0.04141933070104569,0.3624754677981138,0.7342348967701197,0.1632545252372045,-3.5733445164784787,-8.247126893615722,-1.8378542818189256,-3.522242537280716,9.246420669097184
5457,0.01666666753590107,0.10619907872341573,0.24629238987267016,0.6505594192177057,0.1982697427832987,-3.6876679380118844,-8.331971414947509,-0.3248765604894813,-7.929492749000671,8.097755312977581
5474,0.01666666753590107,0.1283114322124049,0.16127280423492193,0.6005424656391144,0.19407989444460252,-3.7681729688346386,-8.384195523181557,-3.980728590271342,-7.980422908320517,5.85715572509768
5490,0.01666666753590107,0.13018529979288576,-0.03321311829388141,0.3319143253177404,0.16968896959833799,-3.941453021727502,-8.662221606445312,-8.857855476083389,-5.322494920171429,2.207609987632151
5507,0.01666666753590107,0.13402177268322557,-0.08930559239387512,0.11398235301077365,0.16145891052470543,-3.976019308196008,-8.889521711078286,-8.816833359928292,-4.392837872240993,0.30280341680441
5524,0.01666666753590107,0.12879959018868392,-0.1508107391923666,0.08777180695533753,0.14574695185513117,-4.020611314116418,-8.923040534320473,-5.284785872650612,-5.465288989393831,-1.3425888340865444
5540,0.01666666753590107,0.18883418037742375,-0.23816081360429525,0.20555998198986053,0.1915360728761734,-4.0988720731437205,-8.809166317859292,-1.4926329356695036,-5.869636615145409,-3.981197738889957
5557,0.01666666753590107,0.22425138458684085,-0.3011225889518857,0.24716391201019286,0.2217628654107131,-4.159026389855146,-8.768764164844155,-2.260500838130614,-3.863700555919167,-6.136165964484939
5574,0.01666666753590107,0.2072089547732845,-0.296978036493063,0.3258843975037336,0.20500344066070975,-4.147504002104699,-8.693196590423584,-4.959612945984175,-2.274665796695574,-6.241069986173518
5590,0.01666666753590107,0.2390259790662676,-0.3108005178794265,0.548323033580184,0.2349309688333509,-4.142865528649091,-8.47861685115397,-7.280320834431394,-5.217728782926719,-5.413473039915998
5607,0.01666666753590107,0.2343901724917814,-0.4290992727845907,0.7322977912276983,0.22161321125311076,-4.247911126488447,-8.300248242950438,-6.262069829663546,-8.20944256628563,-4.886222563352388
5624,0.01666666753590107,0.1770474060697481,-0.4674538456201553,0.7206319033533334,0.1494879045072128,-4.275893650652468,-8.316259466552735,-4.468384033329565,-9.158493936364316,-3.7365642684821956
5640,0.01666666753590107,0.16607074256855994,-0.537134700089693,0.6583943506270646,0.11806400543437338,-4.3414346288383,-8.380155307880043,-2.330752321951957,-7.840842869989429,-1.876476440254409
5657,0.01666666753590107,0.23900214153295382,-0.713045978268981,0.725726011621952,0.17866723952365574,-4.518605551689863,-8.31221983577311,-2.419970387324779,-7.514426422007227,-1.3305628986705618
5673,0.01666666753590107,0.24924396968726067,-0.7698971617817878,0.7687403929620981,0.17178390518412925,-4.571427918078005,-8.270770219531656,-3.8322970536627405,-10.277011691261128,-1.311360248705894
5690,0.01666666753590107,0.2753729749390855,-0.8464274437546729,0.7054448556154966,0.1616085572616197,-4.642056282530724,-8.336161267852782,-3.8122799036395487,-16.506115186008785,-1.6722503689764427
5707,0.01666666753590107,0.3267626416429877,-0.8298018876463175,0.3200233965158462,0.17283135927729307,-4.626045351189375,-8.72072990951538,-1.9421756029939385,-20.60974406577122,-0.8149307873285545
5724,0.01666666753590107,0.37264658707007764,-0.7764081511110067,0.07504267376363277,0.16938973092343657,-4.575018928307294,-8.96374196254313,0.0721955264138579,-22.30043445140282,0.7832321995556426
5740,0.01666666753590107,0.3356567632490769,-0.731330407500267,-0.40992578575909133,0.06913255467070266,-4.544492272618412,-9.440935696411133,0.9579358453632866,-20.014762872076826,1.3017851772631823
5757,0.01666666753590107,0.29515604523029176,-0.8478677056908607,-0.7742424975097179,-0.01316814566347748,-4.669440256279707,-9.80036580516398,-0.3641924900538234,-17.657280391364612,0.5640685045628585
5773,0.01666666753590107,0.26699794530365617,-0.8517936469629407,-0.9462433242470025,-0.08349778289794921,-4.669888876830041,-9.97229941188395,-4.568068082944963,-19.775064213344397,-0.9900532091096849
5790,0.01666666753590107,0.018312961206026376,-0.7784367343291639,-1.4281886365562677,-0.3942950859069824,-4.578161025725305,-10.459369812121986,-6.317599694502573,-20.74800758513979,-3.0876418692610357
5807,0.01666666753590107,-0.18920644775591788,-0.7191197452247142,-1.7937801905483006,-0.6426935081481934,-4.50783105969727,-10.82762737045288,-2.490334355824016,-16.365551600437215,-4.553018187995663
5824,0.01666666753590107,-0.19784213762152938,-0.7069172662556171,-1.7139298242419958,-0.6781576567718759,-4.497805924767255,-10.745476910510659,3.9843532862865034,-10.959354419534572,-5.396138019802506
5840,0.01666666753590107,0.009391111342795192,-0.6636383887603878,-1.121062715536356,-0.49634793167114255,-4.477155935448408,-10.141688594818115,8.279771316621959,-11.24293021349516,-6.084720125882757
5857,0.01666666753590107,0.2825590505182743,-0.5996484394088387,-0.40223055508136746,-0.24705168380737302,-4.430469003075361,-9.414150565338135,5.152757035333796,-14.86201010561126,-7.205523432830584
5874,0.01666666753590107,0.4322696099163964,-0.5750611106410622,-0.24635201110541818,-0.13108250436093657,-4.409968359099328,-9.254487242126464,-3.6651046949514066,-21.584179833900258,-9.494599007684181
5890,0.01666666753590107,0.5147833867456764,-0.2827867217943072,-0.66716860871315,-0.11731588134765625,-4.081214835900068,-9.686191728973387,-20.322719026279774,-29.036913426002993,-11.618742589554895
5907,0.01666666753590107,0.011767156291753053,0.3705234574362635,-1.8807529560804366,-0.6699275520324707,-3.3723812146291134,-10.919355806079507,-27.276807827836556,-21.850200334146624,-12.904940634801875
5924,0.01666666753590107,-0.2703757146410644,0.6909010742172599,-2.49629191532135,-0.9741408004760742,-2.9908053250417113,-11.558307789611815,-24.38600027106765,-6.942606399788344,-13.429599054575466
5940,0.01666666753590107,-0.546184706377238,1.0684753269478677,-2.765512760838866,-1.2220903099060059,-2.5710721387565134,-11.846659452056883,-1.8322099842435564,12.5452406749942,-10.974301434759498
5957,0.01666666753590107,-0.38008323987685144,1.3818877808913588,-1.5901327641814946,-1.0146925910949707,-2.2785303311452267,-10.665869120788573,18.187777769104915,13.721250693455948,-5.57099726585718
5973,0.01666666753590107,-0.31511417982745915,1.4978712445914744,-0.7079787580072879,-0.9247603912353515,-2.223613622826338,-9.76056220256388,32.05804611477762,3.7652194733713378,-0.7586841795134994
5990,0.01666666753590107,-0.35663704396821555,1.5852900003254413,0.5728863969504833,-0.9828198545593768,-2.245909333525598,-8.432678106799722,35.1008031824645,-13.4670592270784,-1.6477951968183295
6007,0.01666666753590107,-0.568321280992031,1.4697437589988112,0.9846253696113825,-1.22822537859492,-2.4369965535268188,-7.986009275054931,28.066375988342738,-17.09625206803435,-6.609595831049319
6024,0.01666666753590107,-0.7854671444226056,1.5359168976083397,0.9296037396132946,-1.4707880804199724,-2.4266718511283396,-8.014590641894936,18.186153891629747,-12.684653373690622,-14.002833779726187
6040,0.01666666753590107,-1.1127541752658783,1.7159706824198364,0.6522831742703914,-1.7950527677673846,-2.291848077879846,-8.271966735839843,9.02272855868468,-2.886327379560199,-23.808461672966178
6057,0.01666666753590107,-1.0994733264755456,1.8656988870725035,0.5429004240095615,-1.7558476425170897,-2.1627108258351684,-8.374020166125893,5.37970799975404,1.348139216560826,-27.225849493986384
6074,0.01666666753590107,-0.9779803786389529,1.9126415477722882,0.5730395416855811,-1.6003741722106932,-2.1299401906117796,-8.339902792468667,2.841506824452929,2.594024738274449,-27.201819180938987
6090,0.01666666753590107,-0.7546805956885219,1.850331806592643,0.6878934168338775,-1.333121411895752,-2.2005694318473337,-8.224232340240478,-0.6443897149332102,1.3241407065817514,-26.155318086877145
6106,0.01666666753590107,-0.4426449465235695,1.5451882915616035,0.7056482692331075,-0.9931447761535644,-2.5047823880299926,-8.208670029449463,-3.289489754047368,-0.868942109016017,-25.085090623185966
6124,0.01666666753590107,-0.36466472147069867,1.4518135500326752,0.6506196249723434,-0.8942343931335955,-2.590974232317507,-8.268225795745849,-5.6779003985384575,-2.5150400038255984,-22.139834505901014
6140,0.01666666753590107,-0.27276366922352463,1.295242932139337,0.5020680628836155,-0.7818565527100115,-2.7292390859305855,-8.426243689838051,-8.196572782342033,-0.8665272102575944,-17.843775291557225
6157,0.01666666753590107,-0.11682853622213005,0.9899868966445327,0.33134207838773727,-0.605882657623291,-3.016991613438725,-8.60595786743164,-8.122277399645219,3.287876548742776,-15.665843116199014
6174,0.01666666753590107,-0.06184658064730465,0.8853186076849698,0.321914909350872,-0.5247791859833524,-3.1073730183705686,-8.623166776385903,-5.219513169847385,5.689682047969907,-13.460532127552806
6190,0.01666666753590107,0.00666954089179635,0.8175263434410095,0.41645547978878017,-0.4200328268188983,-3.1675273350819944,-8.533832542419432,-1.1906696321330053,6.317411437413575,-10.843518680079388
6207,0.01666666753590107,0.10937084062732756,0.5696396701142191,0.5574158560961484,-0.29224231320805844,-3.415327499169111,-8.394071605029701,0.03346240408478829,5.878524825689711,-10.462607567804238
6224,0.01666666753590107,0.12575937310941518,0.4662932774081826,0.6132663381338119,-0.25273798581548035,-3.5191759961783884,-8.339004966846108,-0.8776139946627003,4.502138828207769,-11.05072015251454
6240,0.01666666753590107,0.09388780561760067,0.31271219671964645,0.5086678995400666,-0.25752642566841094,-3.6698610631644724,-8.44599585353434,-1.626589807322967,3.1050949235811225,-11.90832126602228
6257,0.01666666753590107,-0.0023353110797703263,0.254866156950593,0.3560696924090385,-0.3324948286194354,-3.723730600517988,-8.601170048633218,-2.981661665891356,4.260017586754103,-12.807796561784075
6274,0.01666666753590107,-0.11005756251616403,0.2554436645776033,0.25079437746703626,-0.41285025837104766,-3.7137045888051388,-8.711602600207925,-6.083093687086648,7.67762952335645,-13.55488009187913
6290,0.01666666753590107,-0.3938805137567222,0.21078151603043077,0.12289689635038376,-0.6464345943726599,-3.7370483472526073,-8.850465711975097,-7.4029107772020755,12.113823728901393,-14.008968143374505
6307,0.01666666753590107,-0.44284240532442926,0.019122633621096608,0.13951894532740114,-0.6507740666153841,-3.915266733330488,-8.840888905334472,-4.301372247744414,12.959821204782926,-14.514539599512494
6324,0.01666666753590107,-0.5150301280483603,-0.0023997546181082725,0.27600656013488767,-0.6796541241410188,-3.931277956932783,-8.70771202251017,-1.11857826610399,10.986687982819317,-13.788218990720631
6341,0.01666666753590107,-0.5099885902171954,0.0564934561163187,0.5222299764245748,-0.6272809445587918,-3.8718715359792113,-8.462455405426025,0.045996681665834385,8.455509522645448,-11.802392715958199
6356,0.01666666753590107,-0.38165582295581696,0.0401718513906002,0.664841042548418,-0.46821620829477906,-3.8862370382010933,-8.321047869873047,-2.239083285884158,8.099736067836885,-10.233636574936963
6374,0.01666666753590107,-0.3533411442279816,0.03694236795008182,0.7185954290896653,-0.4124014049252728,-3.879952258843183,-8.271667460632324,-6.055771222859304,6.960799889303143,-8.29756908205172
6390,0.01666666753590107,-0.3488094556150958,-0.014066811536252498,0.7034393610119819,-0.3809774875861243,-3.902397607146203,-8.299350417327881,-11.659622125511069,3.1457208887643584,-7.233832859392995
6407,0.01666666753590107,-0.4133129439793527,-0.040758711367845535,0.40802608961760994,-0.4339491856173496,-3.900003405486047,-8.607304605865478,-12.461971277501636,1.2404920201468401,-6.655668018321993
6424,0.01666666753590107,-0.4876487115826457,-0.11295096413642168,0.22762685236930846,-0.4991911934146948,-3.943996860991418,-8.799739148822427,-11.396747781151142,1.820635161477912,-5.092209542775748
6440,0.01666666753590107,-0.5612426478426903,-0.23576778098791837,-0.0927659619808197,-0.5571009489238349,-4.032133701866865,-9.134777159118652,-10.928501601279978,4.720155905193637,-2.2752235243299883
6457,0.01666666753590107,-0.4968244631417095,-0.48063393744975325,-0.1865250266522169,-0.48153399612859354,-4.254645110918581,-9.23787805263102,-9.684696832663976,5.851335977038006,0.005950322066697593
6474,0.01666666753590107,-0.4801289836023003,-0.562068065816164,-0.11827449724674224,-0.45504814939626953,-4.31943819334656,-9.176526050567626,-6.582864605072004,5.435551626408065,2.015082322855124
6490,0.01666666753590107,-0.3109386842411011,-0.7206561610117554,0.05272679705917835,-0.2790743205249193,-4.467579128807783,-9.009829759979247,-2.949525625846446,4.980115039438438,3.868110723688879
6507,0.01666666753590107,-0.1860697388990782,-0.7952309250026941,0.16041209575235843,-0.1535283527041669,-4.538657282854617,-8.903587061309814,-2.5358387836219336,5.159634608941175,4.709962274744216
6524,0.01666666753590107,-0.11046497427327558,-0.8174626305550337,0.1885813746601343,-0.0778117115019937,-4.558259224425256,-8.876503239551186,-1.1207276412584284,4.7668919014762725,5.049447009042768
6540,0.01666666753590107,-0.06035279842559248,-0.7705147091582417,0.19910043058693408,-0.024840008904191198,-4.515163886803388,-8.864382593646646,0.7382768549339708,6.9779078056267325,5.037307201566716
6557,0.01666666753590107,-0.08821695690695196,-0.5813248472109437,0.1730260781317949,-0.051026578145707026,-4.3415842664420605,-8.883984535217285,1.741404967105764,8.490861728015787,6.087905128470099
6574,0.01666666753590107,-0.10613165777670219,-0.4584153836399317,0.17547756293714045,-0.05446826586506795,-4.240279316435754,-8.872462439727782,3.644660231218266,9.276325798604438,7.288518768982701
6590,0.01666666753590107,-0.13544692838182673,-0.3999719624996185,0.17628420314490795,-0.0700305720895063,-4.198979337798058,-8.864382009124755,4.890751405658929,10.321423288791843,7.81149440089953
6607,0.01666666753590107,-0.20811193149499593,-0.375099387049675,0.09601882629692554,-0.12524685701001434,-4.2022716573417185,-8.932617340961098,5.560227765083362,13.245550215879362,8.134671631667853
6624,0.01666666753590107,-0.28662931389817964,-0.3874710851058364,0.08293430379629135,-0.17073667941982856,-4.251502428978681,-8.929624588885902,6.413070371173719,16.927582254028177,9.699425281835463
6640,0.01666666753590107,-0.298470722736232,-0.4273062518879771,0.13688216708302497,-0.1518823322129436,-4.315846306334436,-8.864681868854165,7.290372311568714,19.98027724695743,11.777209808488362
6658,0.01666666753590107,0.01683826727727428,-0.7782751140266656,0.5573240861594677,0.1849518955839798,-4.693980531035363,-8.432078971862792,4.124493827016355,14.55869164985475,13.055698277709688
6674,0.01666666753590107,0.13059501310493796,-0.9078615711435675,0.6034405251681805,0.301669244782906,-4.8295527845636,-8.38329711303711,-3.4083557496165118,3.5300293798213533,11.655541087481986
6690,0.01666666753590107,-0.04011531716408208,-0.7038204692840576,-0.08071779679059982,0.11881209298847242,-4.607490288323164,-9.075521252551674,-11.50287952934303,6.2426584320423695,6.2189350506208
6707,0.01666666753590107,-0.03625805721404031,-0.34896453657895327,-1.0125111554026602,0.14155699049364776,-4.223070992003381,-10.019733947753906,-13.126880801692268,13.67517935995692,4.495411518762129
6724,0.01666666753590107,-0.0021412863450124857,0.10572072062194347,-1.4022417098730802,0.21398160897968335,-3.7309132054984566,-10.424653303527831,-10.218813356890742,14.108513881659208,7.620411321131961
6740,0.01666666753590107,-0.07091554736364633,0.2873462847948074,-1.499565773549676,0.16759393354784696,-3.5300995412528513,-10.529549263763426,-6.409257844956382,13.008940510199073,9.837518900248426
6757,0.01666666753590107,-0.25157347208075226,0.43775428840517994,-1.6757500234514473,0.01047446786640212,-3.370136942833662,-10.709114972797035,-1.9064505119835984,16.282257443508907,10.318292500831038
6774,0.01666666753590107,-0.2414393968835473,0.39503859775066374,-1.261165598231554,0.06748637663256377,-3.41622532479167,-10.291626058307289,2.3487396251311856,21.825317955000266,11.436836722710884
6790,0.01666666753590107,-0.18024247578401117,0.32630057708919047,-0.9099906921267509,0.16669610792528836,-3.48954745837301,-9.937133990478515,0.3090162475869035,19.969072321624026,12.727569159793106
6807,0.01666666753590107,-0.0022702464869245884,0.13025515015870331,-0.38875907908976076,0.3793311428679153,-3.678988664732873,-9.41729295501709,-5.572784640985607,11.720245177036809,10.280006729212179
6824,0.01666666753590107,0.1738994269002229,0.16914572956711052,-0.6169242761194705,0.5681737988127396,-3.622725510241091,-9.652223992919922,-9.357550408214228,7.043010607474355,6.896082993143626
6841,0.01666666753590107,0.15825531957726924,0.40944910815805197,-0.9290542890369892,0.5641335835112259,-3.35861484734416,-9.973795203399657,-10.471494497688072,8.659492268434231,5.194516385032431
6857,0.01666666753590107,0.21621782533284276,1.0424570885941387,-1.5524433772563933,0.6561606732908636,-2.702304317253828,-10.60526589126587,-3.3015593386410154,18.31344641964398,6.757240615242899
6873,0.01666666753590107,0.4575335958367213,1.4148647523418068,-1.3241770579397678,0.9385268681181594,-2.3329987111747266,-10.373626880645752,5.110809001659339,22.605026737439534,9.617088205164604
6890,0.01666666753590107,0.5203335316861049,1.634349507048726,-1.0130383941471577,1.0443206539763137,-2.1350284536615014,-10.051158429065346,11.57433782221335,22.894584069565763,13.356601407820953
6907,0.01666666753590107,0.6309798356093466,1.8260206644177435,-0.26112404830157754,1.197848725835979,-1.9934709882438182,-9.275586144256591,18.566923277479617,17.34984162399129,16.92510972554863
6924,0.01666666753590107,0.7836901248127222,1.852474956101179,0.3911094416081905,1.370231318432465,-2.017413004845381,-8.600570913696288,21.717636607640433,13.806294232585422,17.151272656893386
6940,0.01666666753590107,0.8184557332456112,1.9228017072588204,0.5345955370008945,1.4149729984892532,-1.9997557676017284,-8.43357534790039,20.426303967684895,9.594678354497793,16.745332316404728
6957,0.01666666753590107,0.8710023514322937,2.080076089507341,0.64603814240098,1.4665979352537541,-1.8993489354789257,-8.297105853271484,13.718121613042436,5.374017598401774,17.77865968310491
6973,0.01666666753590107,0.7248311086088418,2.2259283295094967,0.5955868890583514,1.3105259145323187,-1.7811352285087108,-8.335862577167154,7.742215792148091,2.14960631365311,17.871722718093626
6990,0.01666666753590107,0.5915709314152598,2.2889710611388088,0.42579263245463367,1.1607387097014115,-1.7323533696830271,-8.500313719177246,2.58706669650091,-0.9463354093882547,15.778389265795191
7007,0.01666666753590107,0.25440968188736585,2.267934410589933,-0.0061608607172966,0.7959222317351028,-1.7580910375297067,-8.9318691529423,-0.5101259650147721,-4.339015127807647,11.39700988966054
7024,0.01666666753590107,0.04314374334085733,2.293185171702504,-0.46874973064959047,0.5629364826811477,-1.7308569936454294,-9.396643550220132,-2.201381068552511,-4.80136301244368,8.536516419975445
7040,0.01666666753590107,-0.06835325912758708,2.292197037447989,-0.7054436865717172,0.4363431064330041,-1.724721851891279,-9.637410454669594,-4.751655456985266,-0.9168597280250647,6.115764616320934
7057,0.01666666753590107,-0.27843864612001923,2.1801780934646726,-0.9573030629217624,0.23148919035326687,-1.8194424550712107,-9.896731837463378,-5.8678436904882805,8.788757013571308,2.766305161030619
7074,0.01666666753590107,-0.3390307331942022,1.9072648231700062,-0.7447785026162862,0.19632435346972196,-2.0819068120658395,-9.687389414325356,-2.5441436533224344,13.768508772323266,1.0942926747363633
7090,0.01666666753590107,-0.3569188565842807,1.7928367722183465,-0.3865314661681652,0.20949242606796323,-2.1950325482472777,-9.327809667968749,0.9861828397278148,12.952342147641764,0.8309897360060181
7107,0.01666666753590107,-0.2926724847862497,1.4964417963102459,0.4865291329681873,0.29852683683764186,-2.4910160207450387,-8.453328096118568,0.4192588091637885,4.432474313768224,1.4097848754713644
7124,0.01666666753590107,-0.3272904283767566,1.1112366103097795,1.0295289256989955,0.26156634870897977,-2.865558942955732,-7.915230688476562,-2.194871684830077,-2.4996061241788965,1.4044417465497105
7140,0.01666666753590107,-0.35161896007787435,0.9839254046484828,1.1263520541161298,0.2222116223875433,-2.9812285184010863,-7.824550300598144,-4.840257951559141,-7.8496153942046645,0.5842020346062049
7157,0.01666666753590107,-0.34887068428304047,0.7217667526021599,1.0928197868704794,0.19153598668202756,-3.215561298149824,-7.872434918323159,-9.796546302964812,-12.054381446328417,-1.2110588140225511
7173,0.01666666753590107,-0.3785724699877202,0.563589868555963,0.652856590244174,0.131830546249263,-3.3429028989493843,-8.327632508960365,-12.67854974589357,-13.846267060929277,-2.350493489643998
7190,0.01666666753590107,-0.35742004757206886,0.5090247501537204,0.41330607584714885,0.1209070377074182,-3.3651989019095896,-8.582913676452636,-13.166384054530683,-15.42229393832199,-3.4520986289388005
7207,0.01666666753590107,-0.2471897771038115,0.40798078917115926,-0.1653407843261957,0.1895906978331506,-3.424305463133752,-9.181614313617349,-11.721835757339775,-13.499167092592984,-5.244898848558207
7223,0.01666666753590107,-0.22866686294153332,0.22659458671212196,-0.5174883348554372,0.18510156972035766,-3.5790310376822947,-9.546130931854247,-9.372882475353615,-11.143561206355232,-7.313700822678892
7240,0.01666666753590107,-0.19009258294068276,0.19096826979666948,-0.6153367146670818,0.20694865986928343,-3.5950422612845894,-9.65297276546061,-6.293722633824678,-10.334644827477696,-9.951664167884033
7257,0.01666666753590107,-0.067207121299766,0.07962532537877559,-0.567459695726633,0.30989933125600216,-3.689463589257002,-9.613018940734863,-3.683532972218924,-11.980652115559069,-13.342123968101465
7273,0.01666666753590107,0.008076046688854694,0.03752250592559576,-0.5166588982939719,0.37005361143480986,-3.722084294615686,-9.566780921173095,-2.8071746651464484,-12.231186015636075,-15.746847452208073
7290,0.01666666753590107,-0.022625161849334836,0.0768561529263854,-0.47280222091078755,0.328454357589595,-3.675098671557009,-9.526528405761718,-2.2512053775570497,-10.92106694036842,-18.781744679707565
7307,0.01666666753590107,-0.02342537231631577,0.16569705041795968,-0.3518663955003023,0.32486309163197874,-3.5781332120597362,-9.409062886810302,-0.8632898073127141,-8.008418146181107,-21.969248823832654
7323,0.01666666753590107,0.06856960529200733,0.25401743116676806,-0.05205459688603878,0.42137930952440944,-3.4870039113700386,-9.11023659210205,0.2477969152105354,-6.994018941218323,-22.8440560376333
7340,0.01666666753590107,0.1386213389005512,0.28712475099861623,0.12776479464769364,0.4964973866118118,-3.452437624901533,-8.930821105194092,0.08325189513281604,-7.913468271434175,-22.79021365640609
7357,0.01666666753590107,0.28871136260293423,0.24552491263151166,0.45791327933669085,0.6474817653380334,-3.487303186577558,-8.603414612689614,-2.3425860515758274,-10.526399827104864,-22.76290656010438
7374,0.01666666753590107,0.4032657068153843,0.22146277678161858,0.5856815811157227,0.7561186291350052,-3.501069846123457,-8.480112642669678,-4.044246361344698,-13.050935928310897,-22.208433510830037
7390,0.01666666753590107,0.4354151048678905,0.1987719292849302,0.5528104081273079,0.777217531265132,-3.5107962903678414,-8.518719728961587,-4.9172930938867765,-13.955476663115903,-21.142575660660377
7407,0.01666666753590107,0.45832423475775863,0.09967413393408059,0.45763153978586196,0.7812577465666457,-3.5899545827567576,-8.622717279052734,-6.195001640882252,-14.766076683623846,-20.180336902841688
7424,0.01666666753590107,0.4172938303090632,0.09143851276934147,0.2305354332923889,0.7231983745741658,-3.580677051323652,-8.857499263873695,-6.687020294159645,-15.532237785844394,-19.23511726888738
7440,0.01666666753590107,0.3813733162200078,0.050043549324572084,0.07999766582250595,0.6679820622541941,-3.6058161687552928,-9.015216713714599,-5.483989193567679,-15.640060859629507,-17.773740239355206
7456,0.01666666753590107,0.45036048933696,-0.04342150083631277,-0.22269348762035368,0.7088331646132282,-3.6860216321095822,-9.324068727874755,-1.197669295371799,-15.003422342187203,-15.586460950117832
7473,0.01666666753590107,0.4242218760065734,-0.1278638711079955,-0.2877028431475162,0.6639418469526804,-3.770417532891035,-9.389609998321532,1.7721487157770492,-12.844777767271463,-14.701633848804775
7489,0.01666666753590107,0.43346535903960465,-0.17661796514391898,-0.24012451489269732,0.6576570858610794,-3.8235388822257517,-9.34067908641398,2.637030597496611,-12.249369686753942,-14.8273571408572
7507,0.01666666753590107,0.42063970667086537,-0.2754413274675607,0.060256023520231246,0.6238389691450633,-3.931277956932783,-9.037213441467285,3.706461917262657,-13.488476992768268,-15.230819830224439
7524,0.01666666753590107,0.4660241050779819,-0.33884207875430583,0.3291448606044054,0.6497263111281208,-4.002056543511152,-8.76577141276896,3.1731122952136364,-15.081904630845235,-15.367037707936587
7540,0.01666666753590107,0.45479441666379566,-0.3587228372663259,0.3238034995764494,0.6177038639235309,-4.026148197716474,-8.769811628070473,1.0248926166837447,-14.565960678678936,-15.767068227245895
7557,0.01666666753590107,0.337532092134282,-0.41816140692383047,0.1573369260907173,0.4788401311018504,-4.084057950371504,-8.93725552215576,-0.7981204111206838,-12.03376281277144,-16.170723869457184
7574,0.01666666753590107,0.2965607243964448,-0.5073597395509482,0.04131576072871685,0.4261677037115674,-4.170847468291223,-9.054421765899658,0.0017148310489227716,-11.081613951904155,-15.791100247840586
7590,0.01666666753590107,0.27207999780829994,-0.5457184040397405,-0.010493336963653564,0.38980576599794436,-4.211548896513879,-9.105448773303628,2.858352632267119,-10.970703632614194,-14.289603540897403
7607,0.01666666753590107,0.26914281184524297,-0.7328039871841668,-0.0681570059031248,0.3697543270941358,-4.414457779473066,-9.156924108996987,7.721708149165128,-10.261480694862165,-12.303477591585136
7624,0.01666666753590107,0.3367275342857465,-1.0204515930131077,0.04009410997927189,0.424820956144575,-4.72435725685954,-9.0397572807312,11.418007598716452,-9.904683565451746,-11.587621686375378
7640,0.01666666753590107,0.4250993894934654,-1.1536746530666946,0.2021060421437025,0.499190836080024,-4.886115506523847,-8.866178244891762,12.476047443607387,-11.843614615146517,-11.320889992681687
7657,0.01666666753590107,0.6246876035973429,-1.4228221410870552,0.41129824315607544,0.6655878697271924,-5.186887090080976,-8.64411604091227,6.9187946527943875,-19.13649958255615,-12.510500625328223
7674,0.01666666753590107,0.4928067519329488,-1.2956219945847987,-0.06550561461150646,0.49754484013415345,-5.070468742094934,-9.11652137145996,3.0050834517723874,-21.010034132268988,-13.629045700981715
7691,0.01666666753590107,0.3710426590047777,-1.0823609366983176,-0.48375908373296256,0.3449144734535715,-4.863969141167402,-9.531915944018959,3.2266033485854146,-15.508999774740719,-13.84904524037418
7707,0.01666666753590107,0.45819344798494127,-0.8286360587373376,-0.8771803094148636,0.4195836491461377,-4.627691364830732,-9.917980377197265,9.320009980988546,-3.484566786932102,-10.328585595910248
7723,0.01666666753590107,0.5915895630504936,-0.6006672610625624,-0.48217035323679447,0.5581480633778148,-4.429271902245283,-9.510517766681312,15.193424544518619,-1.0215937420363344,-7.903975162261503
7739,0.01666666753590107,0.8502097387723624,-0.44827275981009,-0.19145839140117168,0.8171707258032169,-4.313452396935224,-9.204209007263183,15.095561594090675,-4.657493615313824,-5.172711006107165
7757,0.01666666753590107,1.1539553697042166,-0.20102555343061684,0.11437456719875334,1.1037267872355179,-4.106653520800173,-8.88084214553833,10.61550647501685,-8.03298036021012,0.1420938681107701
7774,0.01666666753590107,1.3037637999862433,0.09697656541317701,0.10840718322694301,1.229572048530099,-3.827130184715986,-8.878598166003822,4.847303291688009,-11.11170093519806,4.08096716586998
7790,0.01666666753590107,1.4065437909811733,0.13468641060441733,-0.1025391679763794,1.294065860317135,-3.7904686795338987,-9.088688777160645,-3.7964308765573573,-17.247981305351598,6.364162801621842
7807,0.01666666753590107,1.1045273949947207,0.3798322607904672,-0.9708066876173019,0.9234135066710412,-3.5146868680655956,-9.969156437683106,-14.939927196115473,-17.6143031335596,6.463799466799872
7824,0.01666666753590107,0.21926457261759785,1.1576640149638056,-2.50253928527832,0.0017955051146447657,-2.695420695219934,-11.517905636596678,-18.260363896961934,-6.77638905058103,6.319828897492935
7840,0.01666666753590107,-0.07527127662142738,1.3698022063001989,-2.9373575202316045,-0.2971804271973669,-2.448818216484785,-11.967267360687256,-8.611489698947382,8.969303672770486,8.012060344556016
7857,0.01666666753590107,-0.35682029158063233,1.722435786780715,-2.4651281307727095,-0.5415386706696823,-2.1059984662711617,-11.49171964046061,15.672044927965384,20.42818226970665,13.975293603219049
7874,0.01666666753590107,-0.28940056870980185,1.6924138657435774,-0.715817196547985,-0.44621949880840256,-2.1875509603202343,-9.720908237567544,27.664444968896877,15.666082172819964,18.403575888384175
7890,0.01666666753590107,-0.2628087499855086,1.5871666078522801,0.08126432475745678,-0.4140473957337439,-2.3621780439078806,-8.89371097946167,30.893372502790797,5.6228396823180455,19.064482067947537
7907,0.01666666753590107,-0.20217530798763036,1.2698200293302535,1.2664724724680185,-0.3748423070160672,-2.7657503689870238,-7.669675380706787,23.58694327025703,-2.980407685848424,13.68694350702862
7924,0.01666666753590107,-0.29142074942579493,1.1740367653548718,1.5350649569541215,-0.4834792621445842,-2.9044644276723264,-7.381174665179849,13.912490867574428,-2.522064213056722,9.241173376267321
7940,0.01666666753590107,-0.40019678423143923,1.2874258286476135,1.3339946875989437,-0.6031893086197786,-2.817824547356367,-7.569717461395263,4.551966765750304,1.783770282649826,3.2333677971846657
7957,0.01666666753590107,-0.4144754849527031,1.35504770476073,1.1937485970407724,-0.6106711888077668,-2.7548271161735056,-7.707982607269287,-0.4547841438213322,4.528622886714493,-1.185347100500567
7974,0.01666666753590107,-0.2954546080517582,1.4738763287588954,0.8279758412629366,-0.47824190948037426,-2.6292811666190623,-8.077139160266517,-5.027721031066603,4.389584567761951,-3.2707197538779385
7991,0.01666666753590107,-0.18177355780880897,1.6613175934731959,0.32197102345228196,-0.34506446040049193,-2.420686054717004,-8.59323867111206,-7.89426604835633,5.591633828660727,-2.8976832093855798
8007,0.01666666753590107,-0.11879410980721003,1.7205244002014397,0.12039105100929737,-0.2654572369339876,-2.3434730511769652,-8.80332986679077,-7.252818223964691,7.098462778911573,0.09712419610009707
8023,0.01666666753590107,0.06809648962123319,1.8118784495577216,-0.14581015442609785,-0.06449397161724045,-2.23513571831584,-9.077465956878662,-7.176655638303525,6.561571490334489,4.492553084594479
8040,0.01666666753590107,0.1910698304750025,1.6479776349067687,-0.33368308855593204,0.06254834484164602,-2.374148759947717,-9.276633607482909,-8.300205535071344,2.8695701507618074,11.22485241030943
8057,0.01666666753590107,0.20577188944118097,1.5801158125579355,-0.42531390902698035,0.06718712882450781,-2.421434534996748,-9.377339714813232,-8.875421015081368,0.8349326227869666,15.527914276099775
8074,0.01666666753590107,0.12724782156888395,1.4647057648316024,-0.8251987777650356,-0.027234190014749762,-2.5128628186330197,-9.787646024322509,-9.381585843903505,2.144701170611983,18.17940224963519
8090,0.01666666753590107,0.07246434770822524,1.1831161438673734,-0.998149452573061,-0.09337397434394806,-2.7627576169118284,-9.974393753814697,-7.112417709159556,7.889537849903388,19.60366232367022
8107,0.01666666753590107,0.12237248888378963,1.0416595084756612,-0.8624486042290925,-0.0410008495606482,-2.889351321953535,-9.845257086291909,-2.845738553530575,11.123400195472646,19.60827611645456
8124,0.01666666753590107,0.24514603284914044,0.8008283066183328,-0.33393910914361474,0.08828604008778929,-3.1205417120233174,-9.32107656032145,-0.13004397367183956,11.191196653174192,19.392568497181806
8140,0.01666666753590107,0.3765773506477475,0.6488067303314805,0.09020107992887497,0.22565334207294507,-3.270927211540937,-8.897751194763183,-0.5303914564473172,9.725079472358031,19.836672519657913
8157,0.01666666753590107,0.4023583461795002,0.6047758654251695,0.23001345524489877,0.2516902851271443,-3.310730814141035,-8.75978590861857,-2.3637760731455573,7.648326304269803,19.583139312761624
8173,0.01666666753590107,0.4373678098382428,0.5803992567986249,0.26999533702135087,0.2832638560530729,-3.327340295897424,-8.723124695697427,-3.3306337463904674,6.403590922379387,19.46244303993833
8190,0.01666666753590107,0.3156182934246957,0.6988257297366857,0.08874620494544505,0.15352807185966522,-3.1962577550038693,-8.909722203063964,-4.005785566128357,5.754037370990235,19.61183464501214
8207,0.01666666753590107,0.25274795922022314,0.7378595170080662,-0.041889176702499385,0.08559261801904067,-3.1462787953481075,-9.044994596862793,-4.3480962911960015,7.659659295650147,20.107052388142037
8224,0.01666666753590107,0.0676209993302822,0.7449874691918492,-0.2214122156381607,-0.09861130874184891,-3.1283225751578807,-9.229198487091065,-3.7627396878158,10.584722812427604,21.00944332090578
8240,0.01666666753590107,-0.09025613458435983,0.7277610245808959,-0.15115969876050947,-0.24854818770913406,-3.1328117032706735,-9.164555626788735,-3.641830398467765,12.175093940850992,22.553612488462264
8257,0.01666666753590107,-0.1134677454189863,0.6484706302449107,-0.0904652838230133,-0.26665430123144757,-3.200896812981367,-9.108740216064453,-5.071474369116059,11.500680208430285,23.419436295957052
8274,0.01666666753590107,-0.13933162432806565,0.48103082781285045,0.023701778104901313,-0.2937387075119652,-3.346494201439619,-9.003844255828858,-7.561848425414626,8.634493776071986,25.76808051188327
8290,0.01666666753590107,-0.22564667487014084,0.3754994922831654,0.05564531485438347,-0.38860894829565656,-3.4323861859977245,-8.980052461352944,-7.683156000168637,6.852495714068366,28.027785419532165
8307,0.01666666753590107,-0.2625914174403995,0.3053291007310152,0.04449322172105312,-0.43963537117773666,-3.484310142241418,-8.998607524219155,-6.583168121603246,5.910365033166195,29.85097976751472
8324,0.01666666753590107,-0.33358919972740114,0.08893559003770352,-0.04143909484744072,-0.5303157590561546,-3.680485333031416,-9.092579939380288,-4.784465551323892,7.361244061944059,29.97178190827015
8340,0.01666666753590107,-0.3696234398566186,-0.1200537818789482,-0.033033670073747634,-0.5765537786179222,-3.877707694786787,-9.088838414764403,-3.568494230462515,8.704368318828509,29.74226023140104
8357,0.01666666753590107,-0.3264295372311026,-0.17392419601529835,0.04433656985461712,-0.5407903730530291,-3.9231975263297554,-9.01476838542521,-1.8763904225595491,9.427519719845487,29.682779529013985
8374,0.01666666753590107,-0.19595352912964298,-0.2336670093163848,0.33532442602217194,-0.4188356894562021,-3.9775162687554952,-8.725817588043212,-0.17999131946293132,9.242757980154764,29.273220895812507
8390,0.01666666753590107,0.01129922825274989,-0.2699617270126939,0.5019079038858414,-0.21862057562563567,-4.011483712548017,-8.560019707599281,-0.1668535039552647,8.444708432246719,27.93679534695655
8407,0.01666666753590107,0.10337623985502868,-0.2469502692595124,0.47630584511756896,-0.1331775038788095,-3.986643870323896,-8.58620570373535,0.29827865660311453,8.504256582751829,26.505104027104544
8423,0.01666666753590107,0.2332452402403578,-0.08657704421281814,0.340089448466897,-0.007631554324366152,-3.8268309095084665,-8.722076647949219,1.7301657841048024,10.662452072729641,26.421550322987777
8440,0.01666666753590107,0.3591181201942265,-0.011992051088809966,0.30435353369712825,0.11941078953398392,-3.755154205046594,-8.756642934417725,2.0521501863676064,11.68570149530947,25.913681361967726
8457,0.01666666753590107,0.43472723220158366,-0.005236147087812423,0.3043482730001211,0.19692305001523344,-3.7496179059684276,-8.756194606128334,0.10061781118013213,10.704183674784773,24.70562580346757
8474,0.01666666753590107,0.5130447263848036,0.0459776150599122,0.10479659151434897,0.2742857459579594,-3.6902114850148555,-8.959102612304687,-4.027398845983216,9.105764022198171,24.406378140456386
8490,0.01666666753590107,0.424826856162399,0.1522954247921705,-0.3525064469695091,0.18614916081083938,-3.5690053182303902,-9.42253027114868,-6.8604370896389755,12.293279265380662,25.450857498523906
8507,0.01666666753590107,0.3471934352532029,0.17452303869128227,-0.5698439605146646,0.11746548241879791,-3.525909396086633,-9.648632690429688,-8.770629691514095,16.893508147806276,28.814659070410777
8523,0.01666666753590107,0.19246055418103933,0.08157178327143191,-0.8410989422082901,-0.017657237243652344,-3.593396247643232,-9.930699573516845,-4.930579092482921,20.339883291664016,32.989130672244585
8540,0.01666666753590107,0.1979310397476889,-0.1541559579670429,-0.7475742708146572,0.004489146379102021,-3.8211446805655953,-9.840767373657226,0.05397028719158958,21.063690390841316,35.90680648566103
8557,0.01666666753590107,0.18922542645102366,-0.27562603638470173,-0.600492781278491,0.009726462510693817,-3.946690337859094,-9.692326870727538,4.980826232885765,20.74103054690262,39.805775577133204
8574,0.01666666753590107,0.1802946808952838,-0.38252836800664664,-0.23601474148631094,0.0076315360580570995,-4.074331506127119,-9.319580184283852,9.685676111036226,17.723855952752018,44.72909204409428
8590,0.01666666753590107,0.1900803993125446,-0.519954432708025,0.023663784182071684,0.013467420870997011,-4.235640550719201,-9.050082275390624,12.480293259950194,16.73311823062145,47.26711520759015
8607,0.01666666753590107,0.2039296408416703,-0.5697255948320031,0.1321446171671152,0.019752181962598113,-4.315248048180341,-8.929175676074623,14.511882655925358,16.511878158120982,48.57362794297604
8624,0.01666666753590107,0.15349610581882298,-0.5777557565525174,0.30203415083885193,-0.04339485029140487,-4.363880269402265,-8.742128086853027,12.655787286710856,15.431552259741943,48.00611777012344
8640,0.01666666753590107,0.14853084809426217,-0.5457689651831984,0.25219255382716654,-0.0613513810088858,-4.355799838799238,-8.781632414245605,9.926331850026102,12.314900229198336,44.99450294995722
8657,0.01666666753590107,0.13548329660315067,-0.42405601792037484,0.10788228257000446,-0.09142852109828964,-4.251652358843386,-8.9181024933964,7.323165757321237,10.432311409967001,41.3181672895762
8674,0.01666666753590107,-0.04511550007155165,0.04954056823849678,-0.4258084145456552,-0.2861070435897447,-3.7988486776053905,-9.44258171005249,8.884076572307068,15.913353803794642,39.672474190196645
8690,0.01666666753590107,0.032801468753069635,0.4358806034877896,-0.6350427011340856,-0.20560197623437268,-3.433733216692507,-9.642796823883057,11.318097299084798,19.67223400784256,40.02527053630073
8707,0.01666666753590107,0.10227357584275305,0.5528577544003724,-0.5202548769593238,-0.12958607352441176,-3.341406522911787,-9.517550734058021,11.255697544601208,20.269810673421564,40.493295588797515
8723,0.01666666753590107,0.13406016846485436,0.673198244266212,-0.12459434791803359,-0.09127886522822082,-3.2441417882069943,-9.112032827869058,4.199584926751475,18.041306069901285,38.641501531212825
8740,0.01666666753590107,0.2858373415365815,0.4959180158212781,0.00817687671482563,0.059406220024172215,-3.4181709059014915,-8.980650427246093,-5.089979486011739,12.723852683110973,35.201702151978516
8757,0.01666666753590107,0.3149324300523847,0.4191425269156694,-0.11371405746340751,0.07676421859292314,-3.4709929800286887,-9.112630793762207,-13.21700429401694,6.52460095701768,30.95839590368932
8773,0.01666666753590107,0.0878101296717301,0.7158169042870401,-0.897953632852435,-0.1668458368605934,-3.1205414197623726,-9.919477337756753,-17.484022397783484,9.59384763273999,26.32989259942079
8790,0.01666666753590107,0.046860663238447155,0.9500640515789389,-1.5486609361082315,-0.19991569249257443,-2.847003880089521,-10.587010103607177,-13.38453602775266,18.939962596736326,25.429685619644157
8807,0.01666666753590107,0.1640541420491412,0.9948805139049887,-1.4831395394057034,-0.053420514944382005,-2.77757203194499,-10.532542015838622,-5.52865820385274,27.17559125452614,27.30905485845548
8823,0.01666666753590107,0.31498489089198406,0.9639505381122231,-0.6753548377782106,0.1526304836991243,-2.8061522297412154,-9.726893157196045,4.074991177233041,30.78779826878991,31.002563321957208
8841,0.01666666753590107,0.44379955991879105,0.7987479932129382,0.4679325690478086,0.3199253064362332,-2.9809295354545116,-8.58022078410685,4.351434119266022,27.497706390878523,30.989483509696633
8857,0.01666666753590107,0.5224986007655039,0.6173641288414597,0.8799678943067789,0.4284125782952178,-3.1697718991383907,-8.16542476196289,2.7564888985328415,23.052426326190172,29.717224172998357
8874,0.01666666753590107,0.5721222807101906,0.5033931740075349,1.3202818040668964,0.5018846417412627,-3.289781257353723,-7.722797314563393,2.009334078338324,16.13162445155345,27.37892086347554
8890,0.01666666753590107,0.6806413998790085,0.6000082126319408,1.2418746223062276,0.6166567249241983,-3.1979040609061715,-7.799262130084633,2.833171218901163,11.60991115495807,26.422088200384916
8907,0.01666666753590107,0.7413619721710681,0.7304112468287348,1.0862100133419037,0.6751650325608439,-3.0732559369742867,-7.952491036334633,1.9171529915261853,8.399637721461097,25.5363407310812
8924,0.01666666753590107,0.842435305378586,0.9886039178535342,0.5754319897800684,0.7639001133240759,-2.812138318413496,-8.464400694274902,-3.248115883150016,5.6461592288049385,25.295909534560288
8940,0.01666666753590107,0.8309193473689258,1.1188307187005877,-0.0024281039297580718,0.740556656270707,-2.6719275914296508,-9.04634133529663,-4.024787152399332,5.519007146555512,25.16109696826987
8957,0.01666666753590107,0.8469096743136644,1.1881801492586732,-0.22584055347442625,0.744297559832083,-2.5926199536979198,-9.273790493011473,-4.021762232370663,4.736367359188662,23.96979244870917
8974,0.01666666753590107,0.839836374926567,1.2940826561883092,-0.7178904956907034,0.7221511853424831,-2.4684207425773144,-9.773281398883462,-7.41353513645603,6.019800458482255,23.20754504488304
8990,0.01666666753590107,0.7628994118489325,1.3603718223929404,-1.0837784022808075,0.6416461636528838,-2.3814812947928905,-10.147674683490395,-8.87892831722017,10.396860166853696,23.348719932385325
9007,0.01666666753590107,0.8091260332338511,1.3411048118650912,-1.1258026035398243,0.695366154734185,-2.3798349888905883,-10.198401246643066,-7.990727102457128,15.395464955262181,23.217452234274145
9024,0.01666666753590107,0.8909103632774203,1.2683324211210012,-0.8986281711131334,0.8019080738122109,-2.428318157030642,-9.981427305713295,-7.066763870973544,19.247208411265593,25.129700296202614
9040,0.01666666753590107,0.9756634069334715,1.2803200882956385,-0.4877659812867641,0.9088990107327932,-2.398839256829023,-9.577854688373208,-6.9559649691444205,20.484497179413403,27.227884890359046
9057,0.01666666753590107,1.018801999175176,1.1951900280207395,-0.1977881789445877,0.9742906344426563,-2.4684207425773144,-9.294290844726563,-5.776321716931048,21.162627388516242,30.20974228385881
9074,0.01666666753590107,1.1242295820694417,1.1083479031309484,0.33023850106000896,1.103727152561699,-2.536206869341433,-8.774001480975747,-6.213763316758631,19.183539095370026,33.80601788188353
9090,0.01666666753590107,1.197825929482281,0.9894216639772057,0.6676338881373405,1.1870753458049497,-2.6399054364860057,-8.442703826251625,-6.138613733528742,17.175772545446222,36.29175253218836
9107,0.01666666753590107,1.2625161360576749,0.9358668916612863,0.7901444155186415,1.2559085801731824,-2.6777634579762815,-8.326434823608398,-7.019657763815259,15.678851211473303,38.227325690132425
9123,0.01666666753590107,1.3104225272230803,0.8337403961390256,0.7568126392811536,1.3010991445001419,-2.7536303076043724,-8.37012900390625,-8.987899716559493,14.22593593254913,41.00228128574687
9140,0.01666666753590107,1.2770716078937052,0.6875695917069912,0.5682137289643288,1.2618941956338938,-2.877380021391809,-8.56750100326538,-9.393186066435124,12.936505500277441,41.38325557727184
9157,0.01666666753590107,1.2974281672239303,0.5759568904370069,0.43357086524069305,1.2731169063180219,-2.967312513512373,-8.710554552459715,-8.611607519710565,11.143083946886977,40.95620824470054
9174,0.01666666753590107,1.2188316003710031,0.533070811651647,0.20487316876947878,1.175403601295245,-2.98182736107707,-8.950124940600992,-9.272177312457302,8.903788498251725,40.56458568825952
9190,0.01666666753590107,1.1370373334553092,0.5096934431955218,-0.173566760879755,1.07978521359195,-2.9795827970206736,-9.338284884753822,-11.62798212795463,10.665430888981414,39.601283128477604
9207,0.01666666753590107,1.0898143945094196,0.4747603692412376,-0.379023282495141,1.02980621740357,-2.9828748243033885,-9.555707738494872,-13.925680816635369,16.49530128900536,37.45423706854619
9224,0.01666666753590107,0.9807851338613778,0.5590571935623884,-0.5503256055742501,0.9436149964538518,-2.852390833824873,-9.744401341357827,-13.676711883651942,24.357590099214985,35.60180097317952
9240,0.01666666753590107,1.0718068094581366,0.6350804027959704,-0.3877724061399698,1.0655695830109122,-2.746447118102014,-9.592967501831055,-10.706259198518811,27.45844646352929,37.3650177225129
9257,0.01666666753590107,1.202048880939558,0.6135752579525112,0.10225158320665359,1.2373535715350763,-2.7388156003102657,-9.113529203906655,-7.9255414845658185,26.244265932890926,40.96867333993582
9273,0.01666666753590107,1.2536553687319159,0.5269955833911896,0.34808629243969913,1.3135191049989312,-2.805703609190881,-8.874707003784179,-9.305963696960415,24.412125744642953,43.08908507719877
9291,0.01666666753590107,1.2824679139792918,0.39163638809174295,0.5787134956687688,1.3608045786538627,-2.914789714592695,-8.653392987823485,-13.128672018802105,22.33969267120476,44.498371669025836
9307,0.01666666753590107,1.3031935988828538,0.3206301302373409,0.5650765999823808,1.3953709290544503,-2.9514509275138376,-8.679130655670166,-16.018379915114636,21.14270543425461,45.71872839822119
9324,0.01666666753590107,1.2831143951892852,0.25818477997928857,0.3747200323432684,1.3857941406801342,-2.9607281666859984,-8.888024750518799,-17.21324296323291,18.54322081351238,48.255587014463565
9340,0.01666666753590107,1.2355958342976867,0.28016631016284227,-0.0076648355394601814,1.340304300004011,-2.9002751592889426,-9.283666574859618,-15.117409661698254,17.18315256484442,50.40668337657279
9357,0.01666666753590107,1.2099755822855978,0.31971856835037465,-0.3750678228676319,1.3115739257479087,-2.8200691114127636,-9.664943773761392,-10.880837979930691,16.286717557036926,53.098351645448105
9374,0.01666666753590107,1.1872521476935594,0.3279775703907013,-0.4636322415053844,1.2834420197084546,-2.7901415906608102,-9.760860893249511,-8.407736618269439,15.483521461589278,54.652236757098926
9390,0.01666666753590107,1.1184270332705228,0.3574447801545262,-0.5790566100180149,1.2071268691904375,-2.7431553830802438,-9.882216989898682,-7.048514459284916,15.135574549795903,55.36076301555561
9407,0.01666666753590107,1.0849519761048256,0.3331935514733195,-0.5835182656019926,1.1625348084711002,-2.7473455282464623,-9.893439810180663,-6.234560815894497,14.841406839979916,55.39078169695782
9424,0.01666666753590107,1.1034537013486028,0.3062313102677464,-0.6148708507210016,1.1739072891897289,-2.7606629827201363,-9.929352835083007,-5.858648121431328,15.413909881115801,54.75225804730459
9441,0.01666666753590107,1.106107138466835,0.3861620483338833,-0.6717647043317556,1.1707649451765465,-2.667289117974043,-9.99070425262451,-5.774475431421029,15.318451157275703,54.43874553421184
9457,0.01666666753590107,1.0860817838523535,0.5569838944196701,-0.711882195186615,1.1411367087652673,-2.4815891439691184,-10.0357451713562,-3.3353576759751773,14.719054246282893,55.2973549543958
9474,0.01666666753590107,1.0840097268186508,0.6265753170400857,-0.7170142973780632,1.1321584525396813,-2.4081167882621286,-10.04217958831787,-0.22244948289102306,16.069413381045678,56.47462343521212
9490,0.01666666753590107,1.0835251581721008,0.7030187975123524,-0.6364654274135828,1.1284175078791099,-2.334345449608564,-9.960776731872558,1.4522331137808187,18.139787152449113,57.693344334101255
9507,0.01666666753590107,1.0749941342573612,0.7075806986004114,-0.3934031055033207,1.1200378842669538,-2.333298278643191,-9.716568162536621,-0.3803012510874605,19.498301533080895,57.74125128093972
9524,0.01666666753590107,1.0512385070733725,0.6625710517898201,-0.2890466589719057,1.0986396429972256,-2.3757950658500193,-9.613019525256753,-1.8138929109934632,19.81828565041224,57.60850655442053
9540,0.01666666753590107,1.0398212601978332,0.6150228264123201,-0.11629413708448409,1.0875664740187347,-2.421284897392988,-9.440935696411133,-0.0027971225476788935,17.595721603922577,58.0850078716773
9557,0.01666666753590107,1.0423150497749447,0.6130746149539947,-0.04263035045862198,1.0796356855860445,-2.4292159826532003,-9.365369291034341,2.988143942300521,14.057113293060278,60.13907798153191
9574,0.01666666753590107,1.0426639362778514,0.5855661380425096,-0.07738602201938628,1.0619785145577625,-2.466625091332197,-9.39694282542765,4.911097685422751,11.192293752309626,61.74229413446315
9590,0.01666666753590107,0.9842000568713992,0.5770391327157617,-0.13798574441075323,0.9730937733578844,-2.4943080480277535,-9.451260691070557,6.521457789339005,10.991849044510907,62.005003700509356
9607,0.01666666753590107,0.8609144534643739,0.4861752049639821,-0.22836393447220324,0.8285438755254144,-2.601299519237876,-9.536254850006102,7.316409846458448,12.204556815609488,61.79261896826781
9624,0.01666666753590107,0.8444768942087888,0.4152525337398052,-0.19263269587755202,0.7924812244357541,-2.6918296849906445,-9.49390799266398,9.536491119184808,12.44436134227405,61.05536834925663
9640,0.01666666753590107,0.8364760316479951,0.2902189176216721,-0.07087737077772617,0.7576155714281835,-2.849847286821902,-9.360880162921548,11.448555619779334,10.901108273839995,59.673812325459814
9657,0.01666666753590107,0.7704150481760501,0.15009762248694897,0.10557868180274962,0.6682820315814577,-3.015645459526777,-9.175478587341308,10.523844482581634,9.328616019342762,57.12045197218268
9673,0.01666666753590107,0.7742638325586915,0.08598083188533782,0.059517772373557085,0.6476319417979102,-3.1010891157954927,-9.213935451507568,8.880337897510133,8.853966537124712,53.67317695090179
9690,0.01666666753590107,0.7719662231408059,-0.1025561191111803,-0.06685118400156498,0.6215950900752563,-3.3161180601373315,-9.330802420043945,9.292053162942038,11.578307015894774,48.86679673762591
9707,0.01666666753590107,0.8217087436921894,-0.13308774323612452,-0.14646364989876745,0.6615483576785772,-3.3663965872615575,-9.40337724238932,8.549498902040346,12.980361291164447,46.18317443159288
9724,0.01666666753590107,0.8554463242515921,-0.14944471153616903,-0.1594628322035074,0.6889320939655416,-3.399465913170576,-9.41040962524414,6.875242805325447,13.210145076542956,44.10648615030177
9740,0.01666666753590107,0.964474854247272,-0.10345365247279405,-0.13512801689207554,0.7929301737796515,-3.369089771868288,-9.380482104492186,4.33965204294775,14.246479434025234,42.3155251725598
9757,0.01666666753590107,0.9839527310468256,0.00020370587855577467,-0.1469640006363392,0.8114852183795533,-3.270927503801882,-9.39035818634033,1.7934644555161896,14.33809873777814,42.35404402438409
9774,0.01666666753590107,0.9754330322436988,0.10155132598280905,-0.16756898176968096,0.8010105678500608,-3.1697721913993355,-9.41085853805542,0.23078230033822542,14.024826988853627,42.91654766857507
9790,0.01666666753590107,0.8838707469642162,0.22832623281031847,-0.3042114948779344,0.7055418497165664,-3.0424305905997753,-9.547627307891846,1.9182690871252477,14.308153480909512,44.25335570802456
9807,0.01666666753590107,0.7627963898658752,0.3450926635816693,-0.3009446020364761,0.5804447764407843,-2.931848693682253,-9.542091301074624,5.192149297598198,13.827791399224392,46.32339480015866
9824,0.01666666753590107,0.7328932729028165,0.39401919157505033,-0.2018921071320772,0.5404915362369269,-2.8966838567987083,-9.437942944335937,7.980218002645417,11.060497568311414,48.81298509224997
9840,0.01666666753590107,0.6616765871681273,0.38704029247313737,0.011991466566920279,0.43858838287545365,-2.929603837364912,-9.214085089111327,10.163530659522305,5.548331283096492,50.65893250790512
9857,0.01666666753590107,0.4826128363072872,0.3575681142732501,-0.014022095611691474,0.22670164554947986,-2.9815277936086058,-9.231143775939941,11.124452044604828,3.5291967370728465,50.20754921132107
9874,0.01666666753590107,0.42726811183467506,0.3649050330325961,-0.05267185200154781,0.13527305138595402,-2.997688947075605,-9.260173471069335,11.00847116362978,2.6804112633494777,48.46079663298202
9890,0.01666666753590107,0.31531832409743216,0.34790041447877884,-0.09069149379432201,-0.020350093056820333,-3.0428795034110543,-9.286360051727295,9.45496768879883,4.542962015103289,44.97389968432588
9907,0.01666666753590107,0.19767244361042977,0.4147954376220703,-0.032439795833826064,-0.1631042939784005,-2.991105477032065,-9.221566969299316,6.2895933575845815,6.339745729112693,41.602378291129604
9924,0.01666666753590107,0.19751447656974194,0.41174569466263056,-0.0008019640326499939,-0.1824076179286465,-3.0015798170343038,-9.18640213241577,3.4334718492985297,7.152327785140409,38.498327105831024
9940,0.01666666753590107,0.3102363081254065,0.4536942003369331,0.13322422909736634,-0.09127824417371302,-2.9625244024530053,-9.050381550598145,1.897819287306818,6.420283477824075,36.43490305190807
9957,0.01666666753590107,0.5005747555859387,0.5160147551715374,0.17716507763266562,0.08050554227940737,-2.900125813946128,-9.005639907073974,1.3704906904545753,5.475565862773761,37.59105941799989
9974,0.01666666753590107,0.5411795915663242,0.5388175386101007,0.165358904504776,0.10160462707262485,-2.8760335752189157,-9.017012364959717,1.1529430822524398,6.808622420821613,38.62902960578838
9990,0.01666666753590107,0.5387582096382976,0.5180547365665435,0.06228665256500244,0.0779619587438181,-2.895935961040854,-9.119364485931396,2.4125039233448975,8.234612667150772,39.57959386276823
10008,0.01666666753590107,0.6171757666625082,0.46180385703444476,0.1133311956256628,0.13946294082384555,-2.9550425222650167,-9.06639277420044,4.1451547223688205,7.36330507152611,41.39020187965774
10024,0.01666666753590107,0.6419152172520757,0.4764905540347099,0.14012217191755771,0.1427550411717966,-2.94651317885071,-9.036165978240966,5.139735279681166,6.598238080233234,43.26206986321309
10040,0.01666666753590107,0.6757495361842215,0.3938941038906574,0.18163783913254736,0.14889003679547458,-3.033602264238894,-8.991424334716797,1.9894270651154984,8.479284557372615,43.94564544063172
10057,0.01666666753590107,0.6054267305493355,0.33879239439368247,0.05732756885290145,0.06210026314742863,-3.085227237536013,-9.11607245864868,0.7100371710062886,10.4020067143933,44.06819952490926
10074,0.01666666753590107,0.63412997020334,0.35650194634646176,0.07086041964292526,0.07736326219830661,-3.0639786978021264,-9.103053987121582,1.835624438498328,11.148463574632007,44.626492357476934
10090,0.01666666753590107,0.6936027343913912,0.37738457537740466,-0.0544324319332838,0.12015961687359958,-3.0440768965020775,-9.226953923034667,4.644892770068797,12.232332633642992,47.029144586717734
10107,0.01666666753590107,0.6195695299312471,0.3520701013788581,-0.13241232819259166,0.03426770538073033,-3.076248981310427,-9.30162308731079,7.101619180081765,13.597307519455958,48.30276313106084
10124,0.01666666753590107,0.5912732636429369,0.352238151422143,-0.1116097786605358,-0.002094159267656505,-3.0874718015924096,-9.27603505706787,8.443281776483833,15.418224853123956,48.33054151041529
10141,0.01666666753590107,0.5804213224999606,0.3467559206187725,-0.048263387909531594,-0.01780614419505,-3.110665630175173,-9.205705383300781,8.815858350424273,17.893360757384226,48.56203711195453
10157,0.01666666753590107,0.4625351304510608,0.5390849573746324,0.016985621592402456,-0.13377525057625025,-2.9316987638175487,-9.13552534713745,8.751626397695826,20.468302800891305,49.52459176602233
10174,0.01666666753590107,0.4311556207925081,0.6247931097984314,0.06583762304484844,-0.15951302802078424,-2.8589751806512473,-9.082104722595215,8.668942688924592,22.00318291117657,51.15152233575186
