msFromStart,interval,accx,accy,accz,accGx,accGy,accGz,rotRate_alpha,rotRate_beta,rotRate_gamma
1698924842014.0,16,0.0,0.0,0.0,0.1,9.1,-2.6,0.4,0.0,-0.2
1698924842030.0,16,0.0,0.0,0.0,0.1,9.1,-2.6,0.6000000000000001,-0.1,0.0
1698924842047.0,16,0.0,0.0,0.0,0.1,9.1,-2.6,0.7,-0.1,-0.1
1698924842064.0,16,0.0,0.0,0.0,0.1,9.200000000000001,-2.6,0.9,-0.2,-0.1
1698924842080.0,16,0.0,0.0,0.0,0.1,9.200000000000001,-2.7,0.9,-0.2,-0.1
1698924842096.0,16,0.0,0.0,0.0,0.0,9.1,-2.6,0.8,-0.2,0.0
1698924842114.0,16,0.0,0.0,0.0,0.0,9.200000000000001,-2.7,0.6000000000000001,-0.1,0.1
1698924842131.0,16,0.0,0.0,0.0,0.0,9.1,-2.7,0.5,0.1,0.2
1698924842149.0,16,0.0,0.0,0.0,0.1,9.1,-2.7,0.30000000000000004,0.1,0.2
1698924842164.0,16,0.0,0.0,0.0,0.1,9.1,-2.7,0.1,0.0,0.1
1698924842180.0,16,0.0,0.0,0.0,0.1,9.200000000000001,-2.7,0.1,0.0,0.1
1698924842197.0,16,0.0,0.0,0.0,0.1,9.200000000000001,-2.6,0.0,-0.2,0.0
1698924842214.0,16,0.0,0.0,0.0,0.1,9.1,-2.6,0.1,-0.30000000000000004,0.0
1698924842232.0,16,0.0,0.0,0.0,0.1,9.1,-2.6,0.0,-0.4,0.0
1698924842247.0,16,0.0,0.0,0.0,0.1,9.200000000000001,-2.6,-0.1,-0.4,0.0
1698924842263.0,16,0.0,0.0,0.0,0.1,9.200000000000001,-2.6,0.0,-0.1,-0.1
1698924842280.0,16,0.0,0.0,0.0,0.1,9.200000000000001,-2.6,-0.1,-0.2,-0.1
1698924842297.0,16,0.0,0.0,0.0,0.1,9.1,-2.7,-0.5,-0.1,-0.1
1698924842314.0,16,0.0,0.0,0.0,0.0,9.1,-2.6,-0.7,0.1,0.0
1698924842331.0,16,0.0,0.0,0.0,0.0,9.200000000000001,-2.6,-0.5,0.2,0.0
1698924842346.0,16,0.0,0.0,0.0,0.1,9.1,-2.6,-0.30000000000000004,0.1,0.0
1698924842363.0,16,0.0,0.0,0.0,0.1,9.1,-2.6,0.0,0.0,0.0
1698924842380.0,16,0.0,0.0,0.0,0.0,9.200000000000001,-2.6,0.1,0.1,0.0
1698924842397.0,16,0.0,0.0,0.0,0.0,9.200000000000001,-2.6,0.4,0.30000000000000004,0.0
1698924842414.0,16,0.0,0.0,0.0,0.1,9.1,-2.6,0.6000000000000001,0.1,0.2
1698924842430.0,16,0.0,0.0,0.0,0.0,9.1,-2.6,0.5,0.2,0.2
1698924842448.0,16,0.0,0.0,0.0,0.1,9.1,-2.6,0.5,0.1,0.2
1698924842464.0,16,0.0,0.0,0.0,0.1,9.1,-2.7,0.2,0.30000000000000004,0.1
1698924842480.0,16,0.0,0.0,0.0,0.1,9.1,-2.7,0.1,0.30000000000000004,0.2
1698924842498.0,16,0.0,0.0,0.0,0.1,9.1,-2.6,0.0,0.30000000000000004,0.1
1698924842513.0,16,0.0,0.0,0.0,0.1,9.200000000000001,-2.6,-0.1,0.1,0.1
1698924842530.0,16,0.0,0.0,0.0,0.1,9.1,-2.6,0.0,0.2,0.0
1698924842547.0,16,0.0,0.0,0.0,0.1,9.1,-2.6,0.1,0.2,0.0
1698924842564.0,16,0.0,0.0,0.0,0.1,9.1,-2.6,0.0,0.2,0.0
1698924842580.0,16,0.0,0.0,0.0,0.1,9.1,-2.7,0.30000000000000004,0.2,0.0
1698924842597.0,16,0.0,0.0,0.0,0.1,9.200000000000001,-2.6,0.1,0.30000000000000004,0.0
1698924842613.0,16,0.0,0.0,0.0,0.1,9.1,-2.6,0.1,0.2,0.0
1698924842630.0,16,0.0,0.0,0.0,0.1,9.1,-2.6,0.1,0.30000000000000004,0.0
1698924842647.0,16,0.0,0.0,0.0,0.1,9.1,-2.6,0.2,0.4,0.0
1698924842664.0,16,0.0,0.0,0.0,0.1,9.200000000000001,-2.6,0.30000000000000004,0.30000000000000004,0.0
1698924842681.0,16,0.0,0.0,0.0,0.1,9.200000000000001,-2.6,0.30000000000000004,0.30000000000000004,0.0
1698924842697.0,16,0.0,0.0,0.0,0.1,9.1,-2.6,0.1,0.30000000000000004,0.0
1698924842714.0,16,0.0,0.0,0.0,0.1,9.1,-2.6,0.30000000000000004,0.30000000000000004,0.0
1698924842730.0,16,0.0,0.0,0.0,0.1,9.1,-2.6,0.30000000000000004,0.30000000000000004,0.0
1698924842747.0,16,0.0,0.0,0.0,0.1,9.200000000000001,-2.6,0.1,0.2,0.0
1698924842764.0,16,0.0,0.0,0.0,0.1,9.200000000000001,-2.6,0.0,0.2,0.0
1698924842779.0,16,0.0,0.0,0.0,0.1,9.1,-2.6,-0.1,0.1,-0.1
1698924842797.0,16,0.0,0.0,0.0,0.1,9.1,-2.6,-0.1,-0.1,0.0
1698924842814.0,16,0.0,0.0,0.0,0.1,9.1,-2.6,-0.30000000000000004,-0.1,0.0
1698924842829.0,16,0.0,0.0,0.0,0.1,9.200000000000001,-2.6,-0.30000000000000004,-0.1,-0.1
1698924842846.0,16,0.0,0.0,0.0,0.1,9.1,-2.6,-0.1,0.1,0.1
1698924842863.0,16,0.0,0.0,0.0,0.1,9.1,-2.6,-0.2,0.1,0.0
1698924842880.0,16,0.0,0.0,0.0,0.1,9.200000000000001,-2.7,-0.30000000000000004,0.1,0.0
1698924842896.0,16,0.0,0.0,0.0,0.1,9.1,-2.7,-0.2,0.1,0.0
1698924842914.0,16,0.0,0.0,0.0,0.0,9.200000000000001,-2.7,-0.2,0.1,0.0
1698924842930.0,16,0.0,0.0,0.0,0.1,9.200000000000001,-2.6,-0.2,-0.1,0.0
1698924842947.0,16,0.0,0.0,0.0,0.1,9.1,-2.6,-0.2,-0.1,-0.1
1698924842964.0,16,0.0,0.0,0.0,0.0,9.1,-2.6,-0.1,0.0,0.0
1698924842980.0,16,0.0,0.0,0.0,0.1,9.200000000000001,-2.6,0.0,0.1,0.0
1698924842997.0,16,0.0,0.0,0.0,0.0,9.1,-2.6,0.1,0.1,0.0
1698924843014.0,16,0.0,0.0,0.0,0.1,9.200000000000001,-2.6,0.30000000000000004,-0.1,0.0
1698924843030.0,16,0.0,0.0,0.0,0.1,9.200000000000001,-2.6,0.4,-0.1,0.0
1698924843047.0,16,0.0,0.0,0.0,0.1,9.1,-2.6,0.30000000000000004,-0.1,0.0
1698924843064.0,16,0.0,0.0,0.0,0.1,9.1,-2.6,0.5,0.2,0.0
1698924843080.0,16,0.0,0.0,0.0,0.0,9.1,-2.7,0.5,0.30000000000000004,0.0
1698924843097.0,16,0.0,0.0,0.0,0.1,9.200000000000001,-2.6,0.6000000000000001,0.1,0.0
1698924843114.0,16,0.0,0.0,0.0,0.1,9.1,-2.7,0.4,0.1,0.1
1698924843130.0,16,0.0,0.0,0.0,0.1,9.1,-2.6,0.30000000000000004,-0.1,0.1
1698924843146.0,16,0.0,0.0,0.0,0.1,9.200000000000001,-2.7,0.2,0.0,0.2
1698924843165.0,16,0.0,0.0,0.0,0.0,9.1,-2.6,0.1,-0.1,0.1
1698924843180.0,16,0.0,0.0,0.0,0.1,9.1,-2.6,0.0,-0.1,0.2
1698924843197.0,16,0.0,0.0,0.0,0.1,9.200000000000001,-2.7,0.0,-0.1,0.1
1698924843215.0,16,0.0,0.0,0.0,0.1,9.200000000000001,-2.6,-0.1,-0.1,0.1
1698924843230.0,16,0.0,0.0,0.0,0.1,9.1,-2.6,-0.30000000000000004,-0.1,0.0
1698924843247.0,16,0.0,0.0,0.0,0.1,9.1,-2.6,-0.2,0.0,0.1
1698924843264.0,16,0.0,0.0,0.0,0.1,9.200000000000001,-2.6,-0.2,0.0,0.2
1698924843280.0,16,0.0,0.0,0.0,0.1,9.200000000000001,-2.6,-0.2,-0.1,0.1
1698924843297.0,16,0.0,0.0,0.0,0.1,9.1,-2.6,0.0,-0.1,0.1
1698924843314.0,16,0.0,0.0,0.0,0.0,9.200000000000001,-2.6,-0.1,0.1,0.0
1698924843330.0,16,0.0,0.0,0.0,0.1,9.200000000000001,-2.6,0.0,0.30000000000000004,0.2
1698924843346.0,16,0.0,0.0,0.0,0.1,9.1,-2.7,0.0,0.2,0.1
1698924843364.0,16,0.0,0.0,0.0,0.1,9.200000000000001,-2.6,-0.2,-0.2,0.1
1698924843380.0,16,0.0,0.0,0.0,0.1,9.1,-2.6,-0.1,-0.2,0.2
1698924843397.0,16,0.0,0.0,0.0,0.1,9.1,-2.6,0.0,-0.2,0.1
1698924843414.0,16,0.0,0.0,0.0,0.1,9.1,-2.6,0.1,0.0,0.1
1698924843431.0,16,0.0,0.0,0.0,0.1,9.1,-2.6,0.1,0.0,0.0
1698924843449.0,16,0.0,0.0,0.0,0.1,9.200000000000001,-2.6,0.1,0.1,0.0
1698924843464.0,16,0.0,0.0,0.0,0.1,9.200000000000001,-2.6,0.1,0.1,0.0
1698924843479.0,16,0.0,0.0,0.0,0.1,9.200000000000001,-2.6,0.1,0.1,0.0
1698924843496.0,16,0.0,0.0,0.0,0.1,9.200000000000001,-2.6,0.0,0.30000000000000004,0.0
1698924843514.0,16,0.0,0.0,0.0,0.1,9.200000000000001,-2.6,0.0,0.30000000000000004,0.0
1698924843530.0,16,0.0,0.0,0.0,0.1,9.1,-2.6,0.0,0.4,0.0
1698924843547.0,16,0.0,0.0,0.0,0.1,9.1,-2.7,0.1,0.30000000000000004,0.0
1698924843564.0,16,0.0,0.0,0.0,0.0,9.1,-2.7,0.0,-0.1,0.0
1698924843580.0,16,0.0,0.0,0.0,0.1,9.200000000000001,-2.6,0.1,-0.1,0.0
1698924843597.0,16,0.0,0.0,0.0,0.1,9.1,-2.6,0.0,-0.30000000000000004,0.1
1698924843614.0,16,0.0,0.0,0.0,0.1,9.1,-2.6,-0.1,-0.1,0.0
1698924843631.0,16,0.0,0.0,0.0,0.0,9.200000000000001,-2.6,0.0,-0.2,0.2
1698924843648.0,16,0.0,0.0,0.0,0.1,9.200000000000001,-2.6,0.1,-0.2,0.1
1698924843664.0,16,0.0,0.0,0.0,0.1,9.200000000000001,-2.6,0.1,-0.2,0.1
1698924843681.0,16,0.0,0.0,0.0,0.1,9.1,-2.6,0.2,-0.2,0.2
1698924843697.0,16,0.0,0.0,0.0,0.1,9.200000000000001,-2.6,0.2,-0.2,0.1
1698924843714.0,16,0.0,0.0,0.0,0.1,9.1,-2.7,0.0,-0.2,0.2
1698924843730.0,16,0.0,0.0,0.0,0.1,9.1,-2.6,0.1,-0.1,0.1
1698924843747.0,16,0.0,0.0,0.0,0.1,9.200000000000001,-2.6,0.0,-0.30000000000000004,-0.1
1698924843765.0,16,0.0,0.0,0.0,0.1,9.200000000000001,-2.6,0.0,-0.4,0.1
1698924843780.0,16,0.0,0.0,0.0,0.1,9.1,-2.6,0.0,-0.1,0.0
1698924843796.0,16,0.0,0.0,0.0,0.0,9.200000000000001,-2.6,0.30000000000000004,-0.5,0.0
1698924843814.0,16,0.0,0.0,0.0,0.1,9.200000000000001,-2.6,0.4,-0.7,0.1
1698924843830.0,16,0.0,0.0,0.0,0.1,9.1,-2.7,0.30000000000000004,-0.9,0.0
1698924843847.0,16,0.0,0.0,0.0,0.1,9.200000000000001,-2.7,0.4,-0.7,-0.1
1698924843863.0,16,0.0,0.0,0.0,0.1,9.1,-2.6,0.2,-0.7,0.0
1698924843880.0,16,0.0,0.0,0.0,0.1,9.1,-2.7,0.0,-0.4,-0.1
1698924843897.0,16,0.0,0.0,0.0,0.1,9.1,-2.6,-0.2,-0.1,-0.1
1698924843914.0,16,0.0,0.0,0.0,0.1,9.1,-2.6,-0.30000000000000004,0.2,-0.1
1698924843930.0,16,0.0,0.0,0.0,0.1,9.200000000000001,-2.6,0.0,0.30000000000000004,-0.2
1698924843946.0,16,0.0,0.0,0.0,0.0,9.200000000000001,-2.7,0.0,0.1,-0.2
1698924843963.0,16,0.0,0.0,0.0,0.0,9.200000000000001,-2.6,-0.2,-0.2,-0.30000000000000004
1698924843979.0,16,0.0,0.0,0.0,0.0,9.1,-2.6,-0.30000000000000004,-0.1,-0.30000000000000004
1698924843997.0,16,0.0,0.0,0.0,0.0,9.200000000000001,-2.6,-0.5,0.0,-0.2
1698924844013.0,16,0.0,0.0,0.0,0.1,9.200000000000001,-2.6,-0.5,0.0,-0.1
1698924844029.0,16,0.0,0.0,0.0,0.0,9.200000000000001,-2.6,-0.5,0.1,-0.1
1698924844046.0,16,0.0,0.0,0.0,0.1,9.1,-2.6,-0.4,-0.2,-0.1
1698924844063.0,16,0.0,0.0,0.0,0.1,9.200000000000001,-2.6,-0.2,0.0,-0.2
1698924844079.0,16,0.0,0.0,0.0,0.1,9.1,-2.7,-0.1,0.1,-0.1
1698924844096.0,16,0.0,0.0,0.0,0.0,9.1,-2.6,-0.2,0.1,-0.1
1698924844113.0,16,0.0,0.0,0.0,0.0,9.1,-2.6,0.0,-0.1,0.0
1698924844129.0,16,0.0,0.0,0.0,0.0,9.200000000000001,-2.6,-0.2,0.0,0.0
1698924844146.0,16,0.0,0.0,0.1,0.1,9.200000000000001,-2.6,0.1,0.1,0.0
1698924844163.0,16,0.0,0.0,0.0,0.0,9.200000000000001,-2.6,0.2,0.2,0.0
1698924844180.0,16,0.0,0.0,0.0,0.0,9.200000000000001,-2.6,0.1,0.30000000000000004,0.0
1698924844196.0,16,0.0,0.0,0.0,0.1,9.200000000000001,-2.6,0.1,0.4,0.1
1698924844213.0,16,0.0,0.0,0.0,0.1,9.1,-2.6,0.0,0.5,0.1
1698924844230.0,16,0.0,0.0,0.0,0.1,9.200000000000001,-2.6,0.0,0.4,0.1
1698924844247.0,16,0.0,0.0,0.0,0.0,9.1,-2.7,0.0,0.6000000000000001,0.1
1698924844264.0,16,0.0,0.0,0.0,0.1,9.1,-2.7,-0.2,0.5,0.1
1698924844280.0,16,0.0,0.0,0.0,0.1,9.200000000000001,-2.6,0.0,0.4,0.0
1698924844297.0,16,0.0,0.0,0.0,0.1,9.1,-2.7,0.0,0.30000000000000004,0.0
1698924844314.0,16,0.0,0.0,0.0,0.1,9.1,-2.6,-0.2,0.4,0.0
1698924844330.0,16,0.0,0.0,0.0,0.1,9.1,-2.7,-0.30000000000000004,0.30000000000000004,0.0
1698924844347.0,16,0.0,0.0,0.0,0.1,9.200000000000001,-2.6,-0.30000000000000004,0.4,-0.1
1698924844363.0,16,0.0,0.0,0.0,0.1,9.200000000000001,-2.6,-0.7,0.4,-0.1
1698924844380.0,16,0.0,0.0,0.0,0.1,9.200000000000001,-2.6,-0.7,0.30000000000000004,0.0
1698924844396.0,16,0.0,0.0,0.0,0.0,9.1,-2.7,-0.6000000000000001,0.1,-0.1
1698924844413.0,16,0.0,0.0,0.0,0.1,9.200000000000001,-2.6,-0.6000000000000001,0.1,0.0
1698924844430.0,16,0.0,0.0,0.0,0.0,9.1,-2.7,-0.5,0.2,0.0
1698924844447.0,16,0.0,0.0,0.0,0.1,9.200000000000001,-2.6,-0.5,0.30000000000000004,0.0
1698924844463.0,16,0.0,0.0,0.0,0.0,9.200000000000001,-2.6,-0.5,0.1,0.0
1698924844479.0,16,0.0,0.0,0.0,0.1,9.200000000000001,-2.6,-0.5,0.2,0.0
1698924844497.0,16,0.0,0.0,0.0,0.0,9.200000000000001,-2.6,-0.4,0.4,0.0
1698924844513.0,16,0.0,0.0,0.0,0.1,9.200000000000001,-2.6,-0.30000000000000004,0.4,0.0
1698924844532.0,16,0.0,0.0,0.0,0.1,9.1,-2.6,0.0,0.30000000000000004,0.0
1698924844548.0,16,0.0,0.0,0.0,0.1,9.200000000000001,-2.6,0.0,0.0,0.0
1698924844564.0,16,0.0,0.0,0.0,0.1,9.200000000000001,-2.6,0.1,-0.2,0.0
1698924844581.0,16,0.0,0.0,0.0,0.1,9.1,-2.6,0.0,-0.2,0.0
1698924844597.0,16,0.0,0.0,0.0,0.1,9.200000000000001,-2.6,0.1,-0.1,0.1
1698924844616.0,16,0.0,0.0,0.0,0.1,9.200000000000001,-2.6,0.1,0.1,0.0
1698924844631.0,16,0.0,0.0,0.1,0.1,9.200000000000001,-2.5,0.0,0.30000000000000004,0.0
1698924844648.0,16,0.0,0.0,-0.1,0.1,9.200000000000001,-2.7,-0.2,-0.1,0.0
1698924844665.0,16,0.0,-0.1,0.0,0.1,9.1,-2.7,0.6000000000000001,-1.2000000000000002,0.0
1698924844680.0,16,0.0,0.0,0.1,0.0,9.200000000000001,-2.5,0.4,-0.8,-0.1
1698924844697.0,16,0.0,0.1,0.1,0.0,9.200000000000001,-2.5,0.30000000000000004,-0.5,0.0
1698924844714.0,16,0.0,0.1,0.1,0.1,9.200000000000001,-2.5,0.0,0.0,-0.1
1698924844731.0,16,0.0,0.0,0.0,0.0,9.1,-2.6,0.0,0.2,-0.1
1698924844746.0,16,0.0,0.0,-0.1,0.0,9.1,-2.7,0.1,0.0,-0.1
1698924844763.0,16,0.0,0.0,0.0,0.1,9.1,-2.6,0.1,-0.6000000000000001,0.0
1698924844780.0,16,0.0,0.0,0.0,0.1,9.200000000000001,-2.6,0.2,-0.4,0.0
1698924844796.0,16,0.0,0.0,0.0,0.1,9.200000000000001,-2.6,0.30000000000000004,-0.2,-0.1
1698924844813.0,16,0.0,0.0,0.0,0.0,9.200000000000001,-2.6,0.4,0.0,-0.2
1698924844829.0,16,0.0,0.0,0.0,0.0,9.1,-2.6,0.6000000000000001,0.2,-0.1
1698924844847.0,16,0.0,0.0,0.0,0.0,9.1,-2.6,0.6000000000000001,0.2,-0.1
1698924844863.0,16,0.0,0.0,0.0,0.1,9.200000000000001,-2.6,0.6000000000000001,0.1,0.0
1698924844880.0,16,0.0,0.0,0.0,0.1,9.1,-2.6,0.6000000000000001,0.2,-0.1
1698924844896.0,16,0.0,0.0,0.0,0.1,9.200000000000001,-2.6,0.5,0.2,0.0
1698924844914.0,16,0.0,0.0,0.0,0.0,9.200000000000001,-2.7,0.4,0.30000000000000004,0.0
1698924844930.0,16,0.0,0.0,0.0,0.0,9.1,-2.6,0.2,0.1,-0.1
1698924844949.0,16,0.0,0.0,0.0,0.0,9.1,-2.6,0.1,0.1,0.0
1698924844963.0,16,0.0,0.0,0.0,0.1,9.200000000000001,-2.6,0.0,-0.1,0.0
1698924844980.0,16,0.0,0.0,0.0,0.0,9.1,-2.6,0.0,-0.1,0.0
1698924844997.0,16,0.0,0.0,0.0,0.1,9.1,-2.6,0.1,0.0,0.1
1698924845014.0,16,0.0,0.0,0.0,0.1,9.1,-2.6,0.0,0.1,0.0
1698924845030.0,16,0.0,0.0,0.0,0.1,9.200000000000001,-2.6,0.0,0.2,0.1
1698924845046.0,16,0.0,0.0,0.0,0.1,9.200000000000001,-2.6,0.30000000000000004,0.30000000000000004,0.2
1698924845064.0,16,0.0,0.0,0.0,0.1,9.1,-2.6,0.0,0.30000000000000004,0.0
1698924845079.0,16,0.0,0.0,-0.1,0.0,9.1,-2.7,-0.30000000000000004,0.6000000000000001,0.0
1698924845096.0,16,-0.1,0.0,0.0,0.0,9.200000000000001,-2.7,-0.5,0.4,0.1
1698924845114.0,16,0.0,0.0,-0.1,0.0,9.200000000000001,-2.7,-0.7,0.1,0.1
1698924845130.0,16,0.0,0.0,0.0,0.0,9.200000000000001,-2.6,-0.8,0.2,0.2
1698924845146.0,16,0.0,0.0,0.0,0.0,9.200000000000001,-2.6,-0.30000000000000004,0.1,0.2
1698924845163.0,16,0.0,0.0,0.0,0.1,9.200000000000001,-2.6,-0.2,-0.1,0.30000000000000004
1698924845179.0,16,0.0,0.0,0.0,0.1,9.1,-2.6,-0.1,-0.1,0.30000000000000004
1698924845196.0,16,0.0,0.0,0.1,0.1,9.200000000000001,-2.6,0.0,-0.1,0.1
1698924845214.0,16,0.0,0.0,0.0,0.1,9.200000000000001,-2.6,0.1,0.1,0.2
1698924845231.0,16,0.0,0.0,0.0,0.1,9.200000000000001,-2.6,0.30000000000000004,0.2,0.30000000000000004
1698924845246.0,16,0.0,0.0,0.0,0.1,9.1,-2.6,0.30000000000000004,0.2,0.30000000000000004
1698924845263.0,16,0.0,0.0,0.0,0.1,9.200000000000001,-2.6,0.6000000000000001,0.30000000000000004,0.2
1698924845280.0,16,0.0,0.0,0.0,0.1,9.200000000000001,-2.6,1.0,0.2,0.2
1698924845296.0,16,0.0,0.0,0.0,0.1,9.200000000000001,-2.6,1.0999999999999999,0.1,0.2
1698924845314.0,16,0.0,0.0,0.0,0.1,9.1,-2.6,0.9,-0.1,0.2
1698924845330.0,16,0.0,0.0,0.0,0.1,9.200000000000001,-2.7,0.8,-0.2,0.1
1698924845347.0,16,0.0,0.0,0.0,0.1,9.200000000000001,-2.6,0.8,-0.1,0.1
1698924845363.0,16,0.0,0.0,0.0,0.1,9.1,-2.6,0.8,0.0,0.1
1698924845379.0,16,0.0,0.0,0.0,0.1,9.200000000000001,-2.6,0.8,0.2,0.2
1698924845396.0,16,0.0,0.0,0.0,0.1,9.200000000000001,-2.6,0.6000000000000001,0.0,0.2
1698924845416.0,16,0.0,0.0,0.0,0.1,9.200000000000001,-2.6,0.4,0.0,0.2
1698924845430.0,16,0.0,0.0,0.0,0.1,9.1,-2.7,0.30000000000000004,0.30000000000000004,0.2
1698924845446.0,16,0.0,0.0,0.0,0.1,9.1,-2.6,0.2,0.5,0.2
1698924845463.0,16,0.0,0.0,0.0,0.1,9.200000000000001,-2.6,0.30000000000000004,0.5,0.2
1698924845480.0,16,0.0,0.0,0.0,0.0,9.1,-2.6,0.4,0.4,0.2
1698924845496.0,16,0.0,0.0,0.0,0.1,9.1,-2.7,0.6000000000000001,0.4,0.2
1698924845514.0,16,0.0,0.0,0.0,0.1,9.200000000000001,-2.6,0.7,0.5,0.2
1698924845530.0,16,0.0,0.0,0.0,0.1,9.1,-2.6,0.6000000000000001,0.4,0.1
1698924845546.0,16,0.0,0.0,0.0,0.1,9.200000000000001,-2.6,0.7,0.6000000000000001,0.0
1698924845563.0,16,0.0,0.0,0.0,0.1,9.1,-2.6,0.8,0.6000000000000001,0.2
1698924845580.0,16,0.0,0.0,0.0,0.1,9.1,-2.6,0.7,0.4,0.0
1698924845596.0,16,0.0,0.0,0.0,0.1,9.1,-2.7,0.6000000000000001,0.4,0.0
1698924845613.0,16,0.0,0.0,0.0,0.1,9.1,-2.7,0.4,0.30000000000000004,0.0
1698924845630.0,16,0.0,0.0,0.0,0.1,9.1,-2.7,0.30000000000000004,0.4,0.0
1698924845646.0,16,0.0,0.0,0.0,0.1,9.1,-2.7,0.30000000000000004,0.4,0.0
1698924845663.0,16,0.0,0.0,0.0,0.1,9.1,-2.7,0.30000000000000004,0.30000000000000004,0.0
1698924845680.0,16,0.0,0.0,0.0,0.1,9.1,-2.7,0.1,0.30000000000000004,-0.1
1698924845696.0,16,0.0,0.0,0.0,0.1,9.200000000000001,-2.7,0.30000000000000004,0.30000000000000004,0.0
1698924845713.0,16,0.0,0.0,0.0,0.1,9.1,-2.7,0.1,0.30000000000000004,0.0
1698924845730.0,16,0.0,0.0,0.0,0.1,9.1,-2.7,-0.1,-0.1,0.0
1698924845747.0,16,0.0,0.0,0.0,0.0,9.1,-2.7,-0.2,-0.2,0.0
1698924845764.0,16,0.0,0.0,0.0,0.1,9.200000000000001,-2.7,-0.30000000000000004,-0.30000000000000004,0.0
1698924845780.0,16,0.0,0.0,0.0,0.0,9.1,-2.6,-0.5,-0.30000000000000004,0.0
1698924845797.0,16,0.0,0.0,0.0,0.1,9.1,-2.6,-0.5,-0.2,0.0
1698924845816.0,16,0.0,0.0,0.0,0.1,9.1,-2.6,-0.6000000000000001,-0.30000000000000004,0.0
1698924845830.0,16,0.0,0.0,0.0,0.1,9.200000000000001,-2.7,-0.7,-0.30000000000000004,0.0
1698924845846.0,16,0.0,0.0,0.0,0.1,9.1,-2.6,-0.5,-0.2,0.0
1698924845864.0,16,0.0,0.0,0.0,0.1,9.1,-2.6,-0.6000000000000001,-0.2,0.0
1698924845880.0,16,0.0,0.0,0.1,0.1,9.200000000000001,-2.6,-0.30000000000000004,-0.2,0.1
1698924845896.0,16,0.0,0.0,0.1,0.1,9.200000000000001,-2.6,0.0,0.1,-0.1
1698924845913.0,16,0.0,0.0,0.0,0.1,9.1,-2.6,0.30000000000000004,0.4,0.0
1698924845929.0,16,0.0,0.0,0.0,0.1,9.200000000000001,-2.6,0.6000000000000001,0.2,0.0
1698924845946.0,16,0.0,0.0,0.0,0.0,9.1,-2.6,0.7,0.0,0.0
1698924845963.0,16,0.0,0.0,0.0,0.1,9.200000000000001,-2.6,0.7,-0.1,0.0
1698924845980.0,16,0.0,0.0,0.0,0.1,9.200000000000001,-2.6,0.9,-0.1,0.0
1698924845997.0,16,0.0,0.0,0.0,0.1,9.1,-2.7,0.8,0.0,0.0
1698924846013.0,16,0.0,0.0,0.0,0.1,9.1,-2.7,0.8,0.1,0.0
1698924846030.0,16,0.0,0.0,-0.1,0.1,9.1,-2.7,0.5,0.1,0.0
1698924846047.0,16,0.0,0.0,0.0,0.1,9.1,-2.7,0.30000000000000004,0.2,0.0
1698924846063.0,16,0.0,0.0,0.0,0.1,9.1,-2.7,0.1,0.2,-0.1
1698924846080.0,16,0.0,0.0,0.0,0.1,9.1,-2.7,0.1,0.1,0.0
1698924846096.0,16,0.0,0.0,0.0,0.1,9.1,-2.7,0.0,0.0,0.0
1698924846113.0,16,0.0,0.0,0.0,0.1,9.200000000000001,-2.7,0.0,-0.1,0.0
1698924846130.0,16,0.0,0.0,0.0,0.1,9.200000000000001,-2.6,0.0,-0.1,0.0
1698924846147.0,16,0.0,0.0,0.0,0.1,9.1,-2.6,0.0,0.1,-0.1
1698924846163.0,16,0.0,0.0,0.0,0.1,9.1,-2.6,0.0,0.30000000000000004,0.0
1698924846180.0,16,0.0,0.0,0.0,0.1,9.200000000000001,-2.6,0.0,0.30000000000000004,0.0
1698924846196.0,16,0.0,0.0,0.0,0.1,9.200000000000001,-2.7,-0.2,0.4,0.0
1698924846214.0,16,0.0,0.0,0.0,0.1,9.1,-2.7,-0.1,0.30000000000000004,-0.1
1698924846230.0,16,0.0,0.0,0.0,0.1,9.1,-2.6,0.0,0.30000000000000004,0.0
1698924846247.0,16,0.0,0.0,0.0,0.1,9.200000000000001,-2.7,0.0,0.30000000000000004,0.0
1698924846263.0,16,0.0,0.0,0.0,0.1,9.1,-2.6,0.0,0.2,0.0
1698924846280.0,16,0.0,0.0,0.0,0.1,9.200000000000001,-2.6,0.1,0.1,0.0
1698924846296.0,16,0.0,0.0,0.0,0.1,9.1,-2.6,0.1,0.1,0.1
1698924846314.0,16,0.0,0.0,0.0,0.1,9.1,-2.7,0.0,0.1,0.0
1698924846330.0,16,0.0,0.0,0.0,0.1,9.200000000000001,-2.7,0.0,0.1,0.1
1698924846347.0,16,0.0,0.0,0.0,0.1,9.1,-2.6,0.1,0.1,0.0
1698924846376.0,16,0.0,0.0,0.0,0.1,9.200000000000001,-2.6,0.30000000000000004,0.1,0.1
1698924846379.0,16,0.0,0.0,0.0,0.1,9.200000000000001,-2.6,0.30000000000000004,0.1,0.1
1698924846396.0,16,0.0,0.0,0.0,0.1,9.1,-2.7,0.1,0.1,0.1
1698924846413.0,16,0.0,0.0,0.0,0.1,9.1,-2.7,0.0,0.0,0.1
1698924846430.0,16,0.0,0.0,0.0,0.1,9.200000000000001,-2.7,0.1,-0.1,0.2
1698924846446.0,16,0.0,0.0,0.0,0.1,9.200000000000001,-2.7,-0.1,0.0,0.1
1698924846464.0,16,0.0,0.0,0.0,0.1,9.1,-2.6,-0.2,-0.1,0.2
1698924846481.0,16,0.0,0.0,0.0,0.0,9.1,-2.6,-0.30000000000000004,-0.1,0.1
1698924846496.0,16,0.0,0.0,0.0,0.1,9.200000000000001,-2.6,-0.30000000000000004,0.30000000000000004,0.1
1698924846514.0,16,0.0,0.0,0.0,0.1,9.1,-2.6,-0.2,0.4,0.1
1698924846529.0,16,0.0,0.0,0.0,0.1,9.200000000000001,-2.6,0.0,0.2,0.1
1698924846547.0,16,0.0,0.0,0.0,0.1,9.200000000000001,-2.6,0.1,0.1,0.0
1698924846565.0,16,0.0,0.0,0.0,0.1,9.1,-2.6,0.0,0.2,0.0
1698924846580.0,16,0.0,0.0,0.0,0.1,9.1,-2.7,0.0,0.30000000000000004,-0.1
1698924846597.0,16,0.0,0.0,0.0,0.1,9.1,-2.7,0.0,0.30000000000000004,0.0
1698924846614.0,16,0.0,0.0,0.0,0.1,9.1,-2.7,0.0,0.30000000000000004,0.0
1698924846630.0,16,0.0,0.0,0.0,0.1,9.1,-2.7,0.0,0.1,0.0
1698924846647.0,16,0.0,0.0,0.0,0.1,9.1,-2.7,-0.1,0.1,0.0
1698924846663.0,16,0.0,0.0,0.0,0.1,9.1,-2.7,0.0,0.30000000000000004,0.0
1698924846680.0,16,0.0,0.0,0.0,0.1,9.1,-2.7,-0.2,0.30000000000000004,0.0
1698924846697.0,16,0.0,0.0,0.0,0.1,9.200000000000001,-2.7,-0.30000000000000004,0.2,0.0
1698924846714.0,16,0.0,0.0,0.0,0.1,9.200000000000001,-2.6,-0.30000000000000004,0.1,0.1
1698924846731.0,16,0.0,0.0,0.0,0.1,9.200000000000001,-2.7,-0.30000000000000004,0.1,0.0
1698924846746.0,16,0.0,0.0,0.0,0.1,9.1,-2.6,-0.5,-0.1,0.1
1698924846763.0,16,0.0,0.0,0.0,0.1,9.1,-2.6,-0.30000000000000004,0.1,0.1
1698924846780.0,16,0.0,0.0,0.0,0.1,9.1,-2.6,-0.2,0.4,0.1
1698924846796.0,16,0.0,0.0,0.0,0.1,9.1,-2.6,-0.1,0.30000000000000004,0.1
1698924846814.0,16,0.0,0.0,0.0,0.1,9.200000000000001,-2.6,0.2,0.30000000000000004,0.2
1698924846830.0,16,0.0,0.0,0.0,0.1,9.1,-2.6,0.1,0.1,0.2
1698924846847.0,16,0.0,0.0,0.0,0.1,9.200000000000001,-2.6,0.1,-0.1,0.1
1698924846863.0,16,0.0,0.0,0.0,0.1,9.200000000000001,-2.6,0.2,-0.2,0.2
1698924846880.0,16,0.0,0.0,0.0,0.1,9.200000000000001,-2.6,0.1,-0.1,0.1
1698924846897.0,16,0.0,0.0,0.0,0.1,9.1,-2.6,0.0,0.1,0.2
1698924846913.0,16,0.0,0.0,0.0,0.1,9.200000000000001,-2.7,0.1,0.0,0.0
1698924846929.0,16,0.0,0.0,0.0,0.1,9.1,-2.7,0.0,0.2,0.2
1698924846947.0,16,0.0,0.0,0.0,0.1,9.1,-2.7,0.0,0.30000000000000004,0.2
1698924846964.0,16,0.0,0.0,0.0,0.1,9.1,-2.7,-0.2,0.4,0.0
1698924846980.0,16,0.0,0.0,0.0,0.1,9.1,-2.7,-0.2,0.5,0.0
1698924846997.0,16,0.0,0.0,-0.1,0.1,9.200000000000001,-2.7,-0.2,0.30000000000000004,0.2
1698924847013.0,16,0.0,0.0,0.0,0.1,9.1,-2.7,-0.5,-0.2,0.0
1698924847030.0,16,0.0,0.0,0.0,0.1,9.1,-2.6,-0.7,-0.1,0.0
1698924847046.0,16,0.0,0.0,0.0,0.1,9.200000000000001,-2.6,-0.5,-0.1,0.0
1698924847063.0,16,0.0,0.0,0.1,0.1,9.200000000000001,-2.6,-0.30000000000000004,0.1,0.0
1698924847079.0,16,0.0,0.0,0.1,0.1,9.1,-2.6,-0.30000000000000004,0.30000000000000004,0.0
1698924847098.0,16,0.0,0.0,0.1,0.1,9.200000000000001,-2.6,-0.2,0.30000000000000004,0.0
1698924847114.0,16,0.0,0.0,0.0,0.1,9.200000000000001,-2.6,0.1,0.30000000000000004,0.0
1698924847129.0,16,0.0,0.0,0.0,0.1,9.1,-2.6,0.2,0.30000000000000004,-0.1
1698924847146.0,16,0.0,0.0,0.0,0.1,9.1,-2.7,0.30000000000000004,0.30000000000000004,-0.1
1698924847163.0,16,0.0,0.0,0.0,0.1,9.200000000000001,-2.7,0.1,0.30000000000000004,-0.1
1698924847179.0,16,0.0,0.0,0.0,0.1,9.1,-2.7,0.1,0.30000000000000004,-0.1
1698924847196.0,16,0.0,0.0,0.0,0.1,9.1,-2.6,0.1,0.2,-0.1
1698924847213.0,16,0.0,0.0,0.0,0.1,9.1,-2.6,0.2,0.1,0.0
1698924847229.0,16,0.0,0.0,0.0,0.1,9.200000000000001,-2.6,0.1,0.0,-0.1
1698924847247.0,16,0.0,0.0,0.0,0.1,9.200000000000001,-2.7,0.0,0.1,-0.1
1698924847263.0,16,0.0,0.0,0.0,0.1,9.200000000000001,-2.7,-0.2,-0.1,0.0
1698924847279.0,16,0.0,0.0,0.0,0.0,9.200000000000001,-2.7,-0.1,-0.1,0.0
1698924847296.0,16,0.0,0.0,0.0,0.0,9.200000000000001,-2.7,-0.1,-0.2,0.0
1698924847313.0,16,0.0,0.0,0.0,0.1,9.1,-2.7,-0.1,-0.4,0.0
1698924847330.0,16,0.0,0.0,0.0,0.1,9.1,-2.6,-0.2,-0.2,0.0
1698924847346.0,16,0.0,0.0,0.0,0.1,9.200000000000001,-2.6,-0.2,-0.2,0.1
1698924847364.0,16,0.0,0.0,0.0,0.0,9.200000000000001,-2.6,-0.2,-0.2,0.1
1698924847380.0,16,0.0,0.0,0.0,0.1,9.1,-2.6,-0.2,0.1,0.0
1698924847397.0,16,0.0,0.0,0.0,0.1,9.1,-2.6,-0.1,0.30000000000000004,0.0
1698924847414.0,16,0.0,0.0,0.0,0.1,9.200000000000001,-2.6,-0.1,0.30000000000000004,0.0
1698924847430.0,16,0.0,0.0,0.0,0.1,9.1,-2.6,0.0,0.1,-0.1
1698924847447.0,16,0.0,0.0,0.0,0.1,9.200000000000001,-2.6,0.0,-0.1,-0.1
1698924847464.0,16,0.0,0.0,0.0,0.1,9.200000000000001,-2.6,0.0,0.1,-0.1
1698924847480.0,16,0.0,0.0,0.0,0.1,9.200000000000001,-2.6,0.1,0.30000000000000004,-0.1
1698924847497.0,16,0.0,0.0,0.0,0.1,9.200000000000001,-2.6,0.1,0.4,-0.1
1698924847514.0,16,0.0,0.0,0.0,0.1,9.1,-2.6,0.0,0.30000000000000004,0.0
1698924847531.0,16,0.0,0.0,0.0,0.1,9.1,-2.7,0.0,0.2,0.0
1698924847547.0,16,0.0,0.0,0.0,0.1,9.1,-2.7,0.0,0.30000000000000004,-0.1
1698924847563.0,16,0.0,0.0,0.0,0.1,9.200000000000001,-2.6,0.0,0.2,0.0
1698924847580.0,16,0.0,0.0,0.0,0.1,9.200000000000001,-2.6,0.0,0.0,0.0
1698924847597.0,16,0.0,0.0,0.0,0.0,9.1,-2.6,-0.2,-0.1,0.0
1698924847613.0,16,0.0,0.0,0.0,0.0,9.200000000000001,-2.6,-0.30000000000000004,0.1,0.0
1698924847630.0,16,0.0,0.0,0.0,0.1,9.1,-2.6,-0.30000000000000004,0.30000000000000004,0.1
1698924847646.0,16,0.0,0.0,0.0,0.1,9.1,-2.6,-0.30000000000000004,0.2,0.1
1698924847663.0,16,0.0,0.0,0.0,0.1,9.200000000000001,-2.6,0.0,0.1,0.1
1698924847679.0,16,0.0,0.0,0.0,0.1,9.1,-2.6,0.1,0.1,0.0
1698924847696.0,16,0.0,0.0,0.0,0.1,9.1,-2.6,0.2,0.0,0.0
1698924847713.0,16,0.0,0.0,0.0,0.1,9.1,-2.6,0.30000000000000004,0.1,0.0
1698924847730.0,16,0.0,0.0,0.0,0.1,9.200000000000001,-2.6,0.30000000000000004,0.1,0.0
1698924847748.0,16,0.0,0.0,0.0,0.1,9.200000000000001,-2.6,0.2,0.30000000000000004,0.0
1698924847763.0,16,0.0,0.0,0.0,0.1,9.1,-2.6,0.2,0.0,0.0
1698924847780.0,16,0.0,0.0,0.0,0.1,9.200000000000001,-2.6,0.30000000000000004,-0.2,0.0
1698924847796.0,16,0.0,0.0,0.0,0.1,9.1,-2.6,0.1,-0.1,0.0
1698924847814.0,16,0.0,0.0,0.0,0.1,9.1,-2.7,0.0,-0.1,-0.1
1698924847832.0,16,0.0,0.0,0.0,0.0,9.1,-2.6,-0.2,0.0,0.0
1698924847847.0,16,0.0,0.0,0.0,0.0,9.200000000000001,-2.6,-0.2,-0.1,-0.1
1698924847863.0,16,0.0,0.0,0.0,0.1,9.200000000000001,-2.6,-0.30000000000000004,0.0,0.0
1698924847880.0,16,0.0,0.0,0.0,0.1,9.1,-2.6,0.0,0.1,0.1
1698924847896.0,16,0.0,0.0,0.0,0.1,9.200000000000001,-2.6,0.1,0.1,0.0
1698924847913.0,16,0.0,0.0,0.0,0.1,9.1,-2.6,0.0,0.2,0.1
1698924847930.0,16,0.0,0.0,0.0,0.1,9.200000000000001,-2.6,0.30000000000000004,0.4,0.2
1698924847946.0,16,0.0,0.0,0.0,0.1,9.200000000000001,-2.6,0.30000000000000004,0.30000000000000004,0.1
1698924847965.0,16,0.0,0.0,0.0,0.1,9.200000000000001,-2.6,0.4,0.2,0.1
1698924847980.0,16,0.0,0.0,0.0,0.1,9.1,-2.6,0.30000000000000004,-0.1,0.0
1698924847996.0,16,0.0,0.0,0.0,0.1,9.200000000000001,-2.6,0.30000000000000004,-0.2,0.1
1698924848014.0,16,0.0,0.0,0.0,0.1,9.1,-2.6,0.30000000000000004,-0.2,0.0
1698924848030.0,16,0.0,0.0,0.0,0.1,9.1,-2.6,0.2,-0.2,-0.1
1698924848047.0,16,0.0,0.0,0.0,0.1,9.200000000000001,-2.6,0.30000000000000004,-0.1,-0.1
1698924848064.0,16,0.0,0.0,0.0,0.0,9.1,-2.6,0.30000000000000004,0.1,0.1
1698924848080.0,16,0.0,0.0,0.0,0.1,9.200000000000001,-2.7,0.2,0.1,0.0
1698924848096.0,16,0.0,0.0,-0.1,0.1,9.1,-2.7,0.0,0.1,0.0
1698924848113.0,16,0.0,0.0,0.0,0.1,9.1,-2.7,-0.1,0.1,0.0
1698924848131.0,16,0.0,0.0,-0.1,0.1,9.1,-2.7,-0.5,0.2,-0.1
1698924848147.0,16,0.0,0.0,0.0,0.1,9.1,-2.7,-0.5,-0.1,0.0
1698924848163.0,16,0.0,0.0,0.0,0.1,9.200000000000001,-2.7,-0.7,-0.2,0.0
1698924848180.0,16,0.0,0.0,0.0,0.1,9.1,-2.6,-0.7,0.1,0.0
1698924848196.0,16,0.0,0.0,0.1,0.1,9.200000000000001,-2.5,-0.30000000000000004,-0.1,0.0
1698924848214.0,16,0.0,0.0,0.1,0.1,9.200000000000001,-2.5,-0.2,-0.2,0.0
1698924848230.0,16,0.0,0.0,0.0,0.1,9.200000000000001,-2.6,0.1,-0.2,0.0
1698924848247.0,16,0.0,0.0,0.0,0.1,9.1,-2.6,0.1,-0.1,-0.1
1698924848263.0,16,0.0,0.0,0.0,0.1,9.200000000000001,-2.6,0.30000000000000004,0.0,-0.1
1698924848280.0,16,0.0,0.0,0.0,0.1,9.200000000000001,-2.6,0.30000000000000004,0.0,0.0
1698924848296.0,16,0.0,0.0,0.0,0.0,9.1,-2.6,0.6000000000000001,-0.1,0.0
1698924848314.0,16,0.0,0.0,0.0,0.1,9.1,-2.6,0.6000000000000001,-0.1,0.0
1698924848330.0,16,0.0,0.0,0.0,0.0,9.200000000000001,-2.6,0.8,-0.1,0.1
1698924848349.0,16,0.0,0.0,0.0,0.1,9.1,-2.6,0.8,-0.2,0.1
1698924848362.0,16,0.0,0.0,0.0,0.1,9.200000000000001,-2.6,0.6000000000000001,0.1,0.1
1698924848379.0,16,0.0,0.0,0.0,0.1,9.1,-2.6,0.5,0.1,0.1
1698924848396.0,16,0.0,0.0,0.0,0.1,9.200000000000001,-2.7,0.4,0.1,0.0
1698924848413.0,16,0.0,0.0,0.0,0.1,9.1,-2.7,0.2,-0.1,0.0
1698924848429.0,16,0.0,0.0,0.0,0.1,9.200000000000001,-2.7,0.1,0.0,0.0
1698924848446.0,16,0.0,0.0,-0.2,0.1,9.200000000000001,-2.8000000000000003,-0.30000000000000004,0.1,0.1
1698924848462.0,16,0.0,-0.1,0.0,0.1,9.1,-2.7,-0.4,0.30000000000000004,0.0
1698924848479.0,16,0.0,0.0,0.1,0.1,9.200000000000001,-2.6,-0.30000000000000004,0.30000000000000004,0.0
1698924848496.0,16,0.0,0.0,0.1,0.1,9.200000000000001,-2.5,0.30000000000000004,0.30000000000000004,0.1
1698924848513.0,16,0.0,0.0,0.1,0.1,9.1,-2.6,0.6000000000000001,0.2,0.2
1698924848529.0,16,0.0,0.0,0.0,0.1,9.1,-2.6,0.6000000000000001,0.30000000000000004,0.1
1698924848546.0,16,0.0,0.0,0.0,0.1,9.200000000000001,-2.6,0.4,0.30000000000000004,0.0
1698924848563.0,16,0.0,0.0,0.0,0.1,9.200000000000001,-2.6,0.2,0.30000000000000004,0.0
1698924848580.0,16,0.0,0.0,0.0,0.0,9.200000000000001,-2.7,0.1,0.4,0.1
1698924848596.0,16,0.0,0.0,-0.1,0.1,9.1,-2.7,0.0,0.4,0.2
1698924848614.0,16,0.0,0.0,-0.1,0.1,9.1,-2.7,0.0,0.4,0.0
1698924848630.0,16,0.0,0.0,0.0,0.1,9.1,-2.7,0.1,0.30000000000000004,0.0
1698924848647.0,16,0.0,0.0,0.0,0.1,9.1,-2.7,0.30000000000000004,0.30000000000000004,0.0
1698924848665.0,16,0.0,0.0,0.0,0.1,9.1,-2.6,0.6000000000000001,0.4,0.0
1698924848679.0,16,0.0,0.0,0.1,0.1,9.200000000000001,-2.6,0.7,0.5,0.2
1698924848697.0,16,0.0,0.0,0.1,0.1,9.200000000000001,-2.6,0.6000000000000001,0.4,0.1
1698924848714.0,16,0.0,0.0,0.0,0.1,9.200000000000001,-2.6,0.4,0.4,0.0
1698924848730.0,16,0.0,0.0,0.0,0.1,9.200000000000001,-2.6,0.30000000000000004,0.4,0.0
1698924848749.0,16,0.0,0.0,0.0,0.1,9.200000000000001,-2.7,-0.1,0.7,0.1
1698924848763.0,16,0.0,0.0,-0.1,0.1,9.1,-2.7,-0.7,0.7,0.0
1698924848779.0,16,0.0,0.0,-0.1,0.1,9.1,-2.7,-1.0,0.6000000000000001,0.0
1698924848796.0,16,0.0,0.0,-0.1,0.1,9.1,-2.7,-1.4,0.4,0.0
1698924848813.0,16,0.0,0.0,0.0,0.1,9.1,-2.7,-1.4,0.4,0.1
1698924848831.0,16,0.0,0.0,0.0,0.1,9.200000000000001,-2.7,-1.2000000000000002,0.7,0.1
1698924848846.0,16,0.0,0.0,0.0,0.1,9.1,-2.7,-0.9,0.7,0.1
1698924848863.0,16,0.0,0.0,0.0,0.1,9.200000000000001,-2.6,-0.5,0.6000000000000001,0.1
1698924848879.0,16,0.0,0.0,0.0,0.1,9.200000000000001,-2.6,-0.30000000000000004,0.4,0.30000000000000004
1698924848896.0,16,0.0,0.0,0.1,0.1,9.200000000000001,-2.5,0.0,0.0,0.2
1698924848913.0,16,0.0,0.0,0.1,0.1,9.200000000000001,-2.5,0.0,-0.1,0.2
1698924848929.0,16,0.0,0.0,0.1,0.1,9.200000000000001,-2.5,0.2,0.1,0.2
1698924848946.0,16,0.0,0.0,0.1,0.1,9.200000000000001,-2.5,0.30000000000000004,0.1,0.30000000000000004
1698924848964.0,16,0.0,0.0,0.1,0.1,9.200000000000001,-2.5,0.4,-0.30000000000000004,0.2
1698924848981.0,16,0.0,0.0,0.1,0.1,9.200000000000001,-2.5,0.8,-0.5,0.2
1698924848997.0,16,0.0,0.0,0.0,0.1,9.1,-2.6,1.0,-0.5,0.1
1698924849014.0,16,0.0,0.0,0.0,0.1,9.200000000000001,-2.6,1.2000000000000002,-0.4,0.1
1698924849030.0,16,0.0,0.0,0.0,0.1,9.200000000000001,-2.7,1.0999999999999999,-0.4,0.0
1698924849047.0,16,0.0,0.0,-0.1,0.1,9.1,-2.7,0.7,-0.1,-0.1
1698924849064.0,16,0.0,0.0,-0.1,0.1,9.1,-2.8000000000000003,0.4,0.1,-0.1
1698924849080.0,16,0.0,0.0,-0.1,0.1,9.1,-2.7,0.30000000000000004,0.4,0.0
1698924849096.0,16,0.0,0.0,-0.1,0.1,9.1,-2.7,-0.2,0.30000000000000004,0.1
1698924849114.0,16,0.0,0.0,-0.1,0.1,9.1,-2.7,-0.30000000000000004,0.0,0.0
1698924849129.0,16,0.0,0.0,0.0,0.1,9.200000000000001,-2.7,-0.6000000000000001,-0.1,0.0
1698924849146.0,16,0.0,0.0,0.0,0.0,9.200000000000001,-2.6,-0.8,0.1,0.0
1698924849163.0,16,0.0,0.0,0.1,0.1,9.1,-2.6,-0.7,0.30000000000000004,0.1
1698924849179.0,16,0.0,0.0,0.1,0.1,9.200000000000001,-2.6,-0.5,0.30000000000000004,0.1
1698924849196.0,16,0.0,0.0,0.1,0.1,9.200000000000001,-2.5,-0.4,0.0,0.0
1698924849213.0,16,0.0,0.0,0.1,0.1,9.1,-2.6,-0.30000000000000004,0.1,-0.1
1698924849229.0,16,0.0,0.0,0.0,0.1,9.200000000000001,-2.6,-0.2,-0.1,0.0
1698924849246.0,16,0.0,0.0,0.0,0.1,9.200000000000001,-2.6,-0.1,-0.1,-0.2
1698924849263.0,16,0.0,0.0,0.0,0.1,9.200000000000001,-2.6,0.0,-0.4,-0.1
1698924849280.0,16,0.0,0.0,0.0,0.1,9.200000000000001,-2.6,-0.1,-0.5,-0.1
1698924849298.0,16,0.0,0.0,0.0,0.1,9.1,-2.7,0.1,-0.6000000000000001,-0.30000000000000004
1698924849314.0,16,0.0,0.0,0.0,0.1,9.200000000000001,-2.6,0.4,-1.0,-0.2
1698924849331.0,16,0.0,0.0,0.0,0.0,9.1,-2.6,0.4,-1.2000000000000002,-0.30000000000000004
1698924849347.0,16,0.0,0.0,0.1,0.0,9.1,-2.6,0.6000000000000001,-1.0,-0.2
1698924849364.0,16,0.0,0.0,0.0,0.1,9.200000000000001,-2.6,1.0999999999999999,-1.4,-0.2
1698924849380.0,16,0.0,0.0,0.0,0.1,9.1,-2.6,1.2000000000000002,-1.4,-0.2
1698924849397.0,16,0.0,0.0,0.0,0.1,9.1,-2.7,1.0,-1.2000000000000002,-0.2
1698924849414.0,16,0.0,0.0,0.0,0.0,9.200000000000001,-2.6,0.8,-0.9,-0.2
1698924849430.0,16,0.0,0.0,-0.1,0.1,9.1,-2.7,0.2,-0.7,-0.30000000000000004
1698924849447.0,16,0.0,0.0,0.0,0.1,9.1,-2.7,-0.1,-0.8,-0.1
1698924849463.0,16,0.0,0.0,-0.1,0.1,9.1,-2.7,-0.7,-0.7,-0.2
1698924849480.0,16,0.0,0.0,0.0,0.0,9.1,-2.7,-1.0,-0.5,0.0
1698924849497.0,16,0.0,0.0,0.0,0.0,9.1,-2.6,-1.3,-0.4,-0.2
1698924849514.0,16,0.0,0.0,0.0,0.1,9.200000000000001,-2.6,-1.2000000000000002,-0.4,-0.1
1698924849531.0,16,0.0,0.0,0.0,0.1,9.1,-2.6,-0.9,-0.2,0.0
1698924849546.0,16,0.0,0.0,0.0,0.1,9.1,-2.6,-0.8,0.0,-0.1
1698924849565.0,16,0.0,0.0,0.0,0.1,9.1,-2.6,-0.6000000000000001,0.0,0.0
1698924849579.0,16,0.0,0.0,0.0,0.1,9.200000000000001,-2.6,-0.7,0.1,-0.1
1698924849597.0,16,0.0,0.0,0.0,0.1,9.200000000000001,-2.6,-0.7,0.30000000000000004,-0.1
1698924849614.0,16,0.0,0.0,0.1,0.1,9.1,-2.6,-0.4,0.4,0.0
1698924849629.0,16,0.0,0.0,0.1,0.1,9.200000000000001,-2.5,0.0,0.2,-0.1
1698924849646.0,16,0.0,0.0,0.1,0.1,9.200000000000001,-2.5,0.30000000000000004,0.1,0.0
1698924849664.0,16,0.0,0.0,0.0,0.1,9.1,-2.6,0.4,-0.2,0.0
1698924849680.0,16,0.0,0.0,-0.1,0.1,9.1,-2.7,0.5,-0.5,-0.1
1698924849696.0,16,0.0,0.0,-0.1,0.1,9.1,-2.7,0.30000000000000004,-0.9,-0.1
1698924849714.0,16,0.0,0.0,-0.1,0.0,9.1,-2.7,-0.2,-1.3,-0.1
1698924849729.0,16,0.0,0.0,-0.1,0.0,9.200000000000001,-2.8000000000000003,0.0,-2.1999999999999997,0.2
1698924849746.0,16,0.0,0.0,-0.1,0.1,9.200000000000001,-2.7,-0.2,-3.3000000000000003,0.30000000000000004
1698924849764.0,16,0.0,0.0,0.0,0.1,9.1,-2.6,-0.8,-4.800000000000001,0.30000000000000004
1698924849780.0,16,0.0,0.0,0.0,0.1,9.1,-2.6,-1.0999999999999999,-4.800000000000001,0.30000000000000004
1698924849797.0,16,0.0,0.0,0.0,0.0,9.200000000000001,-2.7,-1.9,-4.800000000000001,0.2
1698924849814.0,16,0.0,0.0,-0.1,0.1,9.1,-2.7,-3.3000000000000003,-6.2,0.30000000000000004
1698924849830.0,16,0.0,0.0,0.0,0.1,9.200000000000001,-2.6,-5.300000000000001,-6.5,0.1
1698924849847.0,16,0.0,0.0,0.0,0.0,9.200000000000001,-2.6,-5.8,-6.3,0.2
1698924849865.0,16,-0.1,0.0,0.1,0.0,9.200000000000001,-2.4000000000000004,-6.000000000000001,-5.8,0.2
1698924849879.0,16,0.0,0.0,0.1,0.0,9.200000000000001,-2.5,-5.0,-5.300000000000001,0.4
1698924849896.0,16,0.0,0.0,0.0,0.0,9.200000000000001,-2.5,-4.5,-5.2,0.30000000000000004
1698924849913.0,16,0.0,0.0,0.0,0.1,9.1,-2.5,-3.6,-4.800000000000001,0.2
1698924849930.0,16,0.0,0.0,0.0,0.0,9.200000000000001,-2.5,-3.0000000000000004,-4.0,0.2
1698924849946.0,16,0.0,0.0,-0.1,0.0,9.200000000000001,-2.6,-2.1,-4.2,0.4
1698924849963.0,16,0.0,0.0,-0.1,0.0,9.200000000000001,-2.6,-2.0,-4.2,0.5
1698924849980.0,16,0.0,0.0,0.0,0.0,9.200000000000001,-2.5,-2.1999999999999997,-4.1000000000000005,0.5
1698924849996.0,16,0.0,0.0,0.0,0.0,9.200000000000001,-2.5,-2.5,-4.1000000000000005,0.30000000000000004
1698924850013.0,16,0.0,0.0,0.0,0.0,9.200000000000001,-2.5,-3.1,-5.1,0.30000000000000004
1698924850030.0,16,0.0,0.0,0.1,0.0,9.200000000000001,-2.4000000000000004,-4.2,-5.9,0.2
1698924850046.0,16,0.0,0.1,0.1,0.0,9.200000000000001,-2.4000000000000004,-4.3999999999999995,-5.7,0.4
1698924850064.0,16,0.0,0.0,0.1,0.0,9.200000000000001,-2.4000000000000004,-4.300000000000001,-5.1,0.1
1698924850080.0,16,0.0,0.0,0.2,0.0,9.200000000000001,-2.3000000000000003,-4.300000000000001,-4.7,0.0
1698924850096.0,16,0.0,0.0,0.2,0.0,9.200000000000001,-2.2,-3.8,-4.2,0.0
1698924850113.0,16,0.0,0.0,0.30000000000000004,0.0,9.3,-2.1,-1.3,-2.4000000000000004,0.30000000000000004
1698924850129.0,16,0.0,0.0,0.30000000000000004,-0.1,9.200000000000001,-2.1,1.8,0.1,0.5
1698924850146.0,16,-0.1,0.0,0.2,-0.1,9.200000000000001,-2.2,4.5,2.9,0.6000000000000001
1698924850162.0,16,0.0,0.0,0.2,-0.1,9.200000000000001,-2.2,5.9,4.0,0.8
1698924850180.0,16,0.0,0.0,0.0,0.0,9.200000000000001,-2.4000000000000004,8.5,5.6,0.9
1698924850196.0,16,0.0,0.0,-0.1,0.0,9.200000000000001,-2.5,10.0,6.9,0.9
1698924850213.0,16,0.0,0.0,-0.2,0.0,9.200000000000001,-2.6,10.5,7.500000000000001,1.0999999999999999
1698924850229.0,16,0.0,-0.1,-0.1,0.0,9.1,-2.6,9.8,7.300000000000001,1.6
1698924850247.0,16,0.0,0.0,-0.1,0.1,9.200000000000001,-2.6,8.9,7.300000000000001,1.0
1698924850263.0,16,0.0,-0.1,0.0,0.1,9.1,-2.5,8.5,7.500000000000001,0.8
1698924850280.0,16,0.0,0.1,0.0,0.1,9.200000000000001,-2.6,8.3,7.400000000000001,0.8
1698924850297.0,16,0.1,0.0,-0.1,0.1,9.1,-2.7,7.8,7.0,0.7
1698924850313.0,16,0.1,0.0,-0.2,0.1,9.1,-2.8000000000000003,7.2,6.4,0.6000000000000001
1698924850331.0,16,0.0,0.0,0.0,0.1,9.1,-2.7,5.4,5.4,0.30000000000000004
1698924850346.0,16,0.0,0.0,0.0,0.1,9.200000000000001,-2.7,4.5,5.2,0.2
1698924850363.0,16,0.0,0.0,-0.1,0.1,9.200000000000001,-2.7,4.3999999999999995,5.300000000000001,0.2
1698924850380.0,16,0.0,0.0,-0.1,0.1,9.1,-2.8000000000000003,4.1000000000000005,4.800000000000001,0.2
1698924850397.0,16,0.0,-0.1,-0.1,0.1,9.1,-2.8000000000000003,3.9,4.5,0.1
1698924850414.0,16,0.0,0.0,-0.1,0.1,9.1,-2.8000000000000003,3.9,4.300000000000001,0.0
1698924850430.0,16,0.0,0.0,0.0,0.1,9.1,-2.7,4.3999999999999995,3.7000000000000006,0.2
1698924850446.0,16,0.0,0.0,0.0,0.1,9.1,-2.7,4.5,3.1,0.0
1698924850464.0,16,0.0,0.0,0.0,0.1,9.1,-2.8000000000000003,4.7,3.2,-0.2
1698924850480.0,16,0.0,0.0,0.0,0.1,9.1,-2.8000000000000003,4.5,3.2,-0.4
1698924850496.0,16,0.0,0.0,-0.1,0.1,9.1,-2.9000000000000004,4.1000000000000005,3.2,-0.4
1698924850513.0,16,0.0,0.0,-0.1,0.1,9.1,-2.9000000000000004,3.1,2.1999999999999997,-0.5
1698924850530.0,16,0.0,0.0,-0.1,0.1,9.1,-2.9000000000000004,2.6,1.4,-0.5
1698924850549.0,16,0.0,0.0,0.0,0.1,9.1,-2.8000000000000003,1.7,0.30000000000000004,-0.5
1698924850563.0,16,0.0,0.1,-0.1,0.1,9.1,-2.9000000000000004,0.6000000000000001,-0.6000000000000001,-0.4
1698924850580.0,16,0.0,0.0,-0.1,0.1,9.1,-2.9000000000000004,0.1,-0.7,-0.30000000000000004
1698924850596.0,16,0.0,0.0,0.0,0.1,9.1,-2.8000000000000003,-1.0,-1.2000000000000002,-0.4
1698924850614.0,16,0.0,0.0,0.0,0.1,9.1,-2.8000000000000003,-1.4,-1.5000000000000002,-0.4
1698924850630.0,16,0.0,0.0,0.0,0.1,9.1,-2.8000000000000003,-1.6,-1.8,-0.30000000000000004
1698924850646.0,16,0.0,0.0,0.0,0.1,9.1,-2.8000000000000003,-1.5000000000000002,-2.0,-0.4
1698924850663.0,16,0.0,0.0,0.0,0.1,9.1,-2.8000000000000003,-1.4,-1.8,-0.30000000000000004
1698924850679.0,16,0.0,0.0,0.0,0.1,9.1,-2.8000000000000003,-1.3,-1.6,-0.4
1698924850696.0,16,0.0,0.0,0.0,0.1,9.1,-2.8000000000000003,-1.0999999999999999,-1.3,-0.30000000000000004
1698924850714.0,16,0.0,0.0,0.0,0.1,9.1,-2.8000000000000003,-0.9,-1.2000000000000002,-0.30000000000000004
1698924850730.0,16,0.0,0.0,0.0,0.1,9.1,-2.8000000000000003,-0.6000000000000001,-1.0,-0.4
1698924850747.0,16,0.0,0.0,0.0,0.1,9.1,-2.7,-0.4,-1.0999999999999999,-0.5
1698924850764.0,16,0.0,0.0,0.1,0.1,9.1,-2.7,-0.30000000000000004,-1.2000000000000002,-0.5
1698924850780.0,16,0.0,0.0,0.1,0.1,9.1,-2.7,0.0,-1.0999999999999999,-0.30000000000000004
1698924850797.0,16,0.0,0.0,0.1,0.0,9.1,-2.7,0.30000000000000004,-0.9,-0.30000000000000004
1698924850814.0,16,0.0,0.0,0.0,0.1,9.1,-2.7,0.30000000000000004,-1.0,-0.4
1698924850829.0,16,0.0,0.0,0.0,0.1,9.1,-2.8000000000000003,0.2,-1.0,-0.4
1698924850847.0,16,-0.1,0.0,0.0,0.0,9.1,-2.8000000000000003,0.0,-0.5,-0.30000000000000004
1698924850863.0,16,0.0,0.0,0.0,0.0,9.1,-2.8000000000000003,0.1,-0.2,0.0
1698924850879.0,16,0.0,0.0,0.0,0.0,9.1,-2.8000000000000003,0.1,-0.1,0.0
1698924850896.0,16,0.0,0.0,-0.1,0.1,9.1,-2.8000000000000003,0.1,0.1,-0.1
1698924850914.0,16,0.0,0.0,0.0,0.0,9.1,-2.8000000000000003,0.30000000000000004,0.30000000000000004,0.0
1698924850931.0,16,0.0,0.0,0.0,0.0,9.1,-2.8000000000000003,0.1,0.30000000000000004,0.0
1698924850946.0,16,0.0,0.0,-0.1,0.0,9.1,-2.9000000000000004,0.1,0.30000000000000004,0.1
1698924850963.0,16,0.0,0.0,0.0,0.1,9.1,-2.8000000000000003,-0.2,0.5,0.2
1698924850980.0,16,0.0,0.0,0.0,0.0,9.1,-2.8000000000000003,-0.2,0.6000000000000001,0.2
1698924850996.0,16,0.0,0.0,0.0,0.1,9.1,-2.7,-0.2,0.5,0.30000000000000004
1698924851014.0,16,0.0,0.0,0.0,0.1,9.1,-2.7,-0.30000000000000004,0.5,0.1
1698924851031.0,16,0.0,0.0,0.0,0.1,9.1,-2.7,-0.2,0.6000000000000001,0.0
1698924851047.0,16,0.0,0.0,0.0,0.1,9.1,-2.8000000000000003,0.0,0.4,0.2
1698924851063.0,16,0.0,0.0,0.0,0.1,9.1,-2.7,0.1,0.6000000000000001,0.0
1698924851079.0,16,0.0,0.0,0.1,0.1,9.1,-2.7,0.30000000000000004,0.5,0.0
1698924851097.0,16,0.0,0.0,0.0,0.1,9.1,-2.8000000000000003,0.4,0.6000000000000001,0.0
1698924851114.0,16,0.0,0.0,0.0,0.1,9.1,-2.8000000000000003,0.30000000000000004,0.7,0.0
1698924851130.0,16,0.0,0.0,0.0,0.1,9.1,-2.8000000000000003,0.30000000000000004,0.7,0.1
1698924851146.0,16,0.0,0.0,-0.1,0.1,9.1,-2.8000000000000003,0.30000000000000004,0.4,0.2
1698924851163.0,16,0.0,0.0,-0.1,0.1,9.1,-2.8000000000000003,0.1,-0.2,0.2
1698924851179.0,16,0.0,0.0,-0.1,0.1,9.1,-2.9000000000000004,-0.5,-1.2000000000000002,0.0
1698924851196.0,16,0.0,0.0,-0.1,0.1,9.1,-2.9000000000000004,-0.8,-1.3,0.0
1698924851214.0,16,0.1,0.0,-0.1,0.2,9.1,-2.9000000000000004,-1.0999999999999999,-2.6,0.0
1698924851230.0,16,0.1,0.0,-0.1,0.2,9.1,-2.9000000000000004,-1.3,-3.2,0.1
1698924851247.0,16,0.1,0.0,-0.1,0.2,9.1,-2.9000000000000004,-1.6,-4.1000000000000005,0.0
1698924851263.0,16,0.1,0.0,-0.2,0.1,9.1,-3.0,-2.9,-6.3,-0.30000000000000004
1698924851279.0,16,0.0,0.0,-0.1,0.1,9.1,-3.0,-5.2,-9.1,-0.1
1698924851297.0,16,0.0,0.0,-0.1,0.0,9.1,-2.9000000000000004,-6.8,-10.5,0.0
1698924851314.0,16,-0.1,0.0,0.1,0.0,9.1,-2.6,-10.4,-12.4,-0.1
1698924851330.0,16,-0.1,0.0,0.2,-0.1,9.200000000000001,-2.5,-12.700000000000001,-13.100000000000001,0.2
1698924851347.0,16,-0.1,0.1,0.2,0.0,9.200000000000001,-2.5,-12.700000000000001,-12.6,0.2
1698924851363.0,16,0.0,0.0,0.0,0.0,9.200000000000001,-2.6,-12.3,-12.200000000000001,0.0
1698924851380.0,16,0.0,0.0,0.0,0.0,9.1,-2.5,-12.6,-12.700000000000001,0.1
1698924851396.0,16,-0.1,0.0,0.1,-0.1,9.1,-2.5,-12.700000000000001,-12.5,0.30000000000000004
1698924851414.0,16,-0.2,0.1,0.1,-0.2,9.200000000000001,-2.4000000000000004,-11.3,-10.9,0.1
1698924851430.0,16,-0.1,0.0,0.1,-0.1,9.200000000000001,-2.4000000000000004,-10.5,-10.600000000000001,0.5
1698924851448.0,16,-0.1,0.0,0.1,-0.1,9.200000000000001,-2.4000000000000004,-9.700000000000001,-11.3,1.0999999999999999
1698924851463.0,16,0.0,0.0,0.1,0.0,9.200000000000001,-2.4000000000000004,-9.4,-10.3,0.8
1698924851485.0,16,0.0,0.0,0.1,0.0,9.200000000000001,-2.4000000000000004,-9.200000000000001,-9.200000000000001,0.30000000000000004
1698924851496.0,16,0.0,0.0,0.1,-0.1,9.3,-2.3000000000000003,-8.600000000000001,-8.5,0.2
1698924851513.0,16,0.0,0.0,0.1,-0.1,9.200000000000001,-2.3000000000000003,-6.8,-7.300000000000001,0.2
1698924851530.0,16,0.0,0.0,0.2,-0.1,9.200000000000001,-2.2,-5.9,-6.6000000000000005,0.30000000000000004
1698924851546.0,16,0.0,0.0,0.1,0.0,9.3,-2.3000000000000003,-3.5,-5.0,0.0
1698924851563.0,16,0.1,0.0,0.0,0.0,9.200000000000001,-2.3000000000000003,-1.5000000000000002,-3.9,0.0
1698924851579.0,16,0.1,0.0,0.1,0.0,9.200000000000001,-2.3000000000000003,-0.7,-3.6,0.1
1698924851597.0,16,0.0,0.0,0.1,0.0,9.200000000000001,-2.3000000000000003,0.7,-2.7,0.0
1698924851614.0,16,0.0,0.0,0.1,0.0,9.200000000000001,-2.2,2.3000000000000003,-1.2000000000000002,-0.1
1698924851629.0,16,0.1,0.0,-0.1,0.0,9.200000000000001,-2.4000000000000004,3.1,-0.5,-0.5
1698924851646.0,16,0.0,0.0,0.0,0.0,9.200000000000001,-2.3000000000000003,2.8,-0.30000000000000004,-0.6000000000000001
1698924851663.0,16,-0.1,0.0,0.1,-0.1,9.3,-2.3000000000000003,2.7,1.3,-0.7
1698924851679.0,16,-0.1,0.1,0.0,-0.1,9.3,-2.3000000000000003,3.0000000000000004,1.9,-0.7
1698924851696.0,16,0.0,0.0,0.0,-0.1,9.200000000000001,-2.4000000000000004,3.2,2.3000000000000003,-0.7
1698924851713.0,16,0.0,0.0,0.1,-0.1,9.200000000000001,-2.3000000000000003,2.6,2.8,-0.7
1698924851729.0,16,-0.1,0.1,0.1,-0.1,9.3,-2.3000000000000003,2.7,2.5,-0.7
1698924851747.0,16,0.0,0.0,0.1,-0.1,9.200000000000001,-2.3000000000000003,2.6,2.3000000000000003,-0.7
1698924851763.0,16,0.0,0.0,0.0,-0.1,9.200000000000001,-2.4000000000000004,2.1,1.5000000000000002,-0.8
1698924851779.0,16,-0.1,0.1,0.1,-0.1,9.3,-2.3000000000000003,2.1999999999999997,2.3000000000000003,-0.6000000000000001
1698924851797.0,16,0.1,0.0,-0.2,0.0,9.3,-2.6,3.2,1.4,-0.6000000000000001
1698924851813.0,16,0.1,-0.1,-0.1,0.0,9.1,-2.5,2.7,0.1,-0.5
1698924851829.0,16,0.0,-0.1,0.1,-0.1,9.200000000000001,-2.4000000000000004,2.1,0.4,-0.6000000000000001
1698924851847.0,16,0.0,0.0,-0.1,0.0,9.3,-2.5,2.5,1.6,-0.6000000000000001
1698924851863.0,16,0.0,0.0,-0.1,0.0,9.200000000000001,-2.6,2.6,0.5,-0.6000000000000001
1698924851879.0,16,0.0,-0.1,0.0,-0.1,9.1,-2.5,1.6,0.1,-0.6000000000000001
1698924851896.0,16,-0.1,0.0,0.0,-0.1,9.200000000000001,-2.5,2.3000000000000003,1.7,-0.5
1698924851913.0,16,0.0,0.0,0.0,-0.1,9.200000000000001,-2.5,2.6,2.0,-0.6000000000000001
1698924851930.0,16,0.0,0.0,-0.2,0.0,9.200000000000001,-2.6,2.4000000000000004,0.8,-0.30000000000000004
1698924851946.0,16,0.0,0.0,0.0,-0.1,9.200000000000001,-2.4000000000000004,1.5000000000000002,0.4,-0.2
1698924851963.0,16,-0.1,0.0,0.1,-0.2,9.200000000000001,-2.4000000000000004,2.5,1.3,-0.1
1698924851979.0,16,-0.1,0.1,-0.2,-0.1,9.200000000000001,-2.7,3.6,1.8,0.0
1698924851997.0,16,0.0,0.0,-0.4,-0.1,9.1,-2.7,3.3000000000000003,0.1,0.0
1698924852013.0,16,0.0,-0.1,-0.1,0.0,9.1,-2.6,1.0999999999999999,-0.9,-0.1
1698924852029.0,16,-0.1,0.1,0.0,-0.2,9.3,-2.6,0.4,-0.4,0.0
1698924852047.0,16,-0.1,0.1,0.0,-0.2,9.3,-2.5,0.1,-0.4,0.1
1698924852063.0,16,0.0,0.0,0.1,-0.1,9.200000000000001,-2.4000000000000004,-0.30000000000000004,-0.5,0.6000000000000001
1698924852080.0,16,0.1,0.0,0.1,0.0,9.200000000000001,-2.4000000000000004,-0.30000000000000004,-1.3,0.6000000000000001
1698924852096.0,16,0.0,0.0,0.1,-0.1,9.200000000000001,-2.4000000000000004,-0.7,-1.2000000000000002,0.5
1698924852112.0,16,0.0,0.0,0.2,-0.1,9.200000000000001,-2.3000000000000003,-1.2000000000000002,-0.8,0.5
1698924852129.0,16,-0.1,0.1,0.1,-0.1,9.3,-2.4000000000000004,-0.7,0.30000000000000004,0.7
1698924852146.0,16,0.0,-0.1,0.0,0.0,9.1,-2.5,0.2,-0.2,0.6000000000000001
1698924852163.0,16,0.0,-0.1,0.1,0.0,9.1,-2.4000000000000004,0.2,-0.6000000000000001,0.6000000000000001
1698924852179.0,16,0.0,0.0,0.2,-0.1,9.200000000000001,-2.3000000000000003,0.6000000000000001,-0.6000000000000001,0.5
1698924852196.0,16,-0.1,0.1,0.2,-0.2,9.3,-2.3000000000000003,1.8,0.1,0.7
1698924852213.0,16,0.0,-0.1,-0.1,-0.1,9.1,-2.6,3.9,0.6000000000000001,0.7
1698924852230.0,16,0.1,-0.1,-0.2,0.0,9.1,-2.7,3.8,0.4,0.6000000000000001
1698924852246.0,16,0.1,-0.1,-0.1,0.0,9.1,-2.6,3.2,0.8,0.5
1698924852263.0,16,0.0,0.0,-0.1,-0.1,9.200000000000001,-2.7,3.4,1.4,0.2
1698924852280.0,16,0.0,-0.2,-0.1,-0.1,9.0,-2.6,3.3000000000000003,0.8,0.2
1698924852296.0,16,0.1,0.0,-0.1,0.0,9.200000000000001,-2.7,2.9,0.5,0.2
1698924852314.0,16,0.0,0.0,-0.1,-0.1,9.200000000000001,-2.7,1.6,1.4,-0.1
1698924852330.0,16,0.0,0.0,-0.1,-0.1,9.200000000000001,-2.7,0.2,0.7,0.2
1698924852347.0,16,0.0,0.0,0.0,-0.1,9.200000000000001,-2.6,-0.7,0.4,0.2
1698924852364.0,16,0.0,0.0,-0.1,-0.1,9.200000000000001,-2.6,-1.9,-0.1,0.2
1698924852380.0,16,0.0,0.0,0.0,-0.1,9.200000000000001,-2.6,-2.3000000000000003,-0.7,0.1
1698924852396.0,16,0.0,0.0,0.0,0.0,9.200000000000001,-2.5,-2.4000000000000004,-0.5,0.0
1698924852413.0,16,0.0,0.0,0.1,-0.1,9.200000000000001,-2.5,-1.7,0.30000000000000004,0.2
1698924852429.0,16,0.0,0.0,0.1,0.0,9.200000000000001,-2.5,-1.0999999999999999,0.4,0.2
1698924852446.0,16,0.0,0.0,0.1,0.0,9.200000000000001,-2.5,-0.5,0.4,0.2
1698924852463.0,16,0.0,0.0,0.0,0.0,9.200000000000001,-2.5,0.9,0.0,0.1
1698924852480.0,16,0.0,0.0,0.1,0.0,9.200000000000001,-2.5,1.0999999999999999,-0.4,0.0
1698924852496.0,16,0.0,0.0,0.0,-0.1,9.200000000000001,-2.6,1.5000000000000002,-0.6000000000000001,0.0
1698924852513.0,16,0.0,0.0,0.0,-0.1,9.1,-2.5,1.4,-1.0,0.0
1698924852530.0,16,0.0,0.0,0.0,0.0,9.200000000000001,-2.5,1.0,-0.7,-0.1
1698924852548.0,16,0.0,0.0,0.1,-0.1,9.200000000000001,-2.5,0.8,-0.1,-0.1
1698924852563.0,16,0.0,0.0,0.1,-0.1,9.200000000000001,-2.5,0.9,0.5,-0.2
1698924852580.0,16,0.0,0.0,0.1,-0.1,9.200000000000001,-2.4000000000000004,1.7,1.0,0.0
1698924852597.0,16,-0.1,0.0,0.1,-0.1,9.200000000000001,-2.5,2.1,1.3,0.0
1698924852613.0,16,0.0,0.0,0.0,-0.1,9.200000000000001,-2.6,2.3000000000000003,1.5000000000000002,0.0
1698924852629.0,16,0.0,0.0,-0.1,-0.1,9.1,-2.7,2.0,1.2000000000000002,0.2
1698924852646.0,16,-0.1,0.0,0.0,-0.1,9.200000000000001,-2.6,1.8,1.4,0.2
1698924852664.0,16,0.0,0.0,0.0,-0.1,9.200000000000001,-2.6,1.7,1.2000000000000002,0.2
1698924852680.0,16,0.0,0.0,0.0,0.0,9.1,-2.6,1.6,1.0999999999999999,0.2
1698924852696.0,16,0.0,0.0,0.0,0.0,9.200000000000001,-2.6,1.5000000000000002,1.6,0.2
1698924852712.0,16,0.0,0.0,0.0,0.0,9.200000000000001,-2.6,1.5000000000000002,2.0,0.2
1698924852729.0,16,0.0,0.0,0.0,0.0,9.200000000000001,-2.6,1.5000000000000002,1.8,0.2
1698924852746.0,16,0.0,0.0,0.0,0.0,9.200000000000001,-2.6,1.4,1.8,0.0
1698924852762.0,16,0.0,0.0,0.0,-0.1,9.200000000000001,-2.6,1.5000000000000002,1.7,0.0
1698924852779.0,16,0.0,0.0,0.0,-0.1,9.200000000000001,-2.6,1.4,1.5000000000000002,0.1
1698924852796.0,16,0.0,0.0,0.0,-0.1,9.200000000000001,-2.6,0.9,1.3,0.2
1698924852812.0,16,0.0,0.0,-0.1,0.0,9.200000000000001,-2.7,0.7,1.4,0.1
1698924852829.0,16,0.0,0.0,-0.1,0.0,9.200000000000001,-2.7,0.4,1.2000000000000002,0.1
1698924852846.0,16,0.0,0.0,0.0,0.0,9.1,-2.6,0.0,1.0999999999999999,0.0
1698924852863.0,16,0.0,0.0,0.0,0.0,9.200000000000001,-2.6,0.0,1.2000000000000002,0.0
1698924852880.0,16,0.0,0.0,0.0,-0.1,9.200000000000001,-2.6,0.1,1.2000000000000002,0.0
1698924852896.0,16,0.0,0.0,0.0,0.0,9.200000000000001,-2.6,0.2,1.2000000000000002,0.1
1698924852913.0,16,0.0,0.0,0.0,0.0,9.200000000000001,-2.7,0.4,0.8,0.2
1698924852930.0,16,0.0,0.0,0.0,0.0,9.1,-2.7,0.2,0.4,0.0
1698924852946.0,16,0.0,0.0,0.0,-0.1,9.200000000000001,-2.6,0.1,0.4,0.2
1698924852963.0,16,0.0,0.0,0.1,-0.1,9.200000000000001,-2.6,0.2,0.4,0.2
1698924852980.0,16,0.0,0.0,0.0,0.0,9.200000000000001,-2.6,0.7,0.1,0.30000000000000004
1698924852996.0,16,0.0,0.0,0.1,0.0,9.200000000000001,-2.6,0.9,0.30000000000000004,0.2
1698924853013.0,16,0.0,0.0,0.1,-0.1,9.200000000000001,-2.6,1.3,0.4,0.2
1698924853031.0,16,0.0,0.0,0.1,-0.1,9.1,-2.6,1.4,0.4,0.2
1698924853049.0,16,0.0,0.0,0.0,0.0,9.1,-2.6,1.2000000000000002,0.9,0.2
1698924853063.0,16,0.0,0.0,0.0,0.0,9.200000000000001,-2.7,1.2000000000000002,0.7,0.1
1698924853079.0,16,0.0,0.0,0.0,0.0,9.1,-2.6,1.3,0.5,0.0
1698924853096.0,16,0.0,0.0,0.0,0.0,9.200000000000001,-2.6,1.5000000000000002,0.4,0.0
1698924853114.0,16,0.0,0.0,-0.1,0.0,9.1,-2.7,1.7,-0.1,0.0
1698924853130.0,16,0.0,0.0,-0.1,0.0,9.1,-2.8000000000000003,1.4,-0.4,-0.1
1698924853149.0,16,0.0,-0.1,0.0,0.0,9.1,-2.6,0.8,-0.1,0.1
1698924853163.0,16,0.0,0.1,0.0,0.0,9.200000000000001,-2.6,0.7,-0.2,0.0
1698924853181.0,16,0.0,0.0,0.0,0.0,9.200000000000001,-2.6,0.6000000000000001,-0.1,-0.1
1698924853196.0,16,0.0,0.0,0.0,-0.1,9.1,-2.7,0.6000000000000001,0.30000000000000004,-0.1
1698924853212.0,16,0.0,0.0,0.0,0.0,9.1,-2.7,0.4,0.8,-0.1
1698924853229.0,16,0.0,0.0,0.0,0.0,9.1,-2.7,0.1,0.9,0.0
1698924853246.0,16,0.0,0.0,-0.1,-0.1,9.200000000000001,-2.7,0.1,0.7,0.0
1698924853262.0,16,-0.1,0.0,0.0,-0.1,9.1,-2.7,-0.2,0.30000000000000004,0.0
1698924853279.0,16,0.0,0.0,0.0,-0.1,9.1,-2.7,-0.2,0.6000000000000001,0.0
1698924853296.0,16,0.0,0.0,0.0,0.0,9.1,-2.7,-0.30000000000000004,0.6000000000000001,0.1
1698924853313.0,16,0.0,0.0,0.0,0.0,9.1,-2.7,-0.5,0.4,0.0
1698924853330.0,16,0.0,0.0,0.0,0.0,9.1,-2.7,-0.5,0.4,0.1
1698924853347.0,16,0.0,0.0,0.0,0.0,9.1,-2.7,-0.4,0.6000000000000001,0.0
1698924853364.0,16,0.0,0.0,0.0,0.0,9.1,-2.6,-0.2,0.4,0.0
1698924853379.0,16,0.0,0.0,0.0,0.0,9.200000000000001,-2.6,0.0,0.8,0.1
1698924853396.0,16,0.0,0.0,0.0,0.0,9.1,-2.7,-0.1,0.9,0.1
1698924853414.0,16,0.0,0.0,0.0,0.0,9.200000000000001,-2.7,-0.2,0.7,0.0
1698924853432.0,16,0.0,0.0,0.0,0.0,9.200000000000001,-2.7,-0.4,0.6000000000000001,0.0
1698924853447.0,16,0.0,0.0,0.0,0.0,9.200000000000001,-2.7,-0.5,0.6000000000000001,0.0
1698924853464.0,16,0.0,0.0,0.0,0.0,9.1,-2.6,-0.7,0.4,0.1
1698924853479.0,16,0.0,0.0,0.1,0.0,9.200000000000001,-2.6,-0.6000000000000001,0.7,0.1
1698924853496.0,16,0.0,0.0,0.0,0.0,9.200000000000001,-2.7,-0.5,0.7,-0.1
1698924853514.0,16,0.0,0.0,0.0,0.0,9.1,-2.6,-0.8,0.6000000000000001,0.0
1698924853530.0,16,0.0,0.0,0.1,0.0,9.1,-2.6,-0.8,0.6000000000000001,0.1
1698924853546.0,16,-0.1,0.1,0.1,-0.1,9.200000000000001,-2.6,-0.30000000000000004,0.9,0.0
1698924853565.0,16,0.0,0.0,0.0,0.0,9.1,-2.7,-0.2,0.7,0.1
1698924853580.0,16,0.0,0.0,0.0,0.0,9.1,-2.7,-0.2,0.7,0.1
1698924853596.0,16,0.1,0.0,-0.1,0.0,9.1,-2.7,-0.2,0.30000000000000004,-0.1
1698924853614.0,16,0.0,0.0,0.0,0.0,9.1,-2.6,-0.5,-0.2,-0.2
1698924853630.0,16,0.0,0.0,0.0,-0.1,9.1,-2.6,-0.9,-0.2,-0.2
1698924853647.0,16,0.0,0.1,0.0,-0.1,9.200000000000001,-2.7,-1.4,0.30000000000000004,-0.1
1698924853663.0,16,0.0,0.0,0.0,0.0,9.1,-2.7,-1.9,-0.4,-0.1
1698924853679.0,16,0.0,0.0,0.0,0.0,9.1,-2.6,-2.5,-0.5,-0.2
1698924853697.0,16,0.0,0.0,-0.1,0.0,9.200000000000001,-2.7,-3.2,-0.1,-0.1
1698924853713.0,16,0.0,0.0,-0.1,-0.1,9.200000000000001,-2.7,-4.3999999999999995,0.1,-0.30000000000000004
1698924853731.0,16,0.0,0.0,-0.1,-0.1,9.1,-2.7,-5.0,0.0,-0.2
1698924853746.0,16,0.0,0.0,0.0,0.0,9.200000000000001,-2.6,-6.000000000000001,-0.30000000000000004,-0.2
1698924853763.0,16,0.0,0.0,-0.1,0.0,9.200000000000001,-2.7,-6.7,-0.1,-0.1
1698924853780.0,16,0.0,0.0,-0.1,0.0,9.200000000000001,-2.6,-7.2,-0.1,-0.2
1698924853796.0,16,0.0,0.0,0.0,-0.1,9.200000000000001,-2.6,-8.3,0.7,-0.2
1698924853813.0,16,0.0,0.0,-0.1,0.0,9.200000000000001,-2.6,-9.1,0.4,-0.30000000000000004
1698924853830.0,16,0.0,0.0,-0.1,0.0,9.200000000000001,-2.6,-11.000000000000002,-0.30000000000000004,-0.5
1698924853846.0,16,0.0,0.0,0.0,-0.1,9.200000000000001,-2.5,-12.200000000000001,-0.1,-0.5
1698924853866.0,16,0.0,0.1,-0.1,-0.1,9.3,-2.5,-13.9,0.4,-0.6000000000000001
1698924853880.0,16,0.0,0.1,-0.2,0.0,9.3,-2.6,-14.800000000000002,0.2,-0.7
1698924853896.0,16,0.1,0.0,0.0,0.1,9.3,-2.4000000000000004,-18.900000000000002,2.0,-1.2000000000000002
1698924853914.0,16,0.0,0.0,0.0,0.0,9.3,-2.3000000000000003,-20.8,4.0,-1.8
1698924853930.0,16,-0.1,0.1,-0.1,-0.2,9.3,-2.3000000000000003,-22.000000000000004,4.800000000000001,-1.4
1698924853946.0,16,-0.1,0.0,-0.1,-0.2,9.3,-2.2,-25.3,6.6000000000000005,-1.6
1698924853963.0,16,0.0,-0.1,0.0,0.0,9.3,-2.1,-26.8,7.9,-1.7
1698924853981.0,16,0.1,0.0,-0.2,0.0,9.3,-2.2,-30.100000000000005,8.9,-2.1999999999999997
1698924853997.0,16,0.0,0.0,-0.2,0.0,9.3,-2.1,-31.3,8.700000000000001,-2.1999999999999997
1698924854014.0,16,0.0,0.0,-0.1,-0.1,9.3,-2.0,-34.2,4.6000000000000005,-2.1999999999999997
1698924854029.0,16,0.0,0.0,0.1,-0.1,9.4,-1.7000000000000002,-36.6,4.2,-1.9
1698924854046.0,16,0.0,0.0,-0.1,-0.1,9.4,-1.7000000000000002,-38.800000000000004,3.5,-1.8
1698924854063.0,16,0.0,0.0,-0.1,-0.1,9.4,-1.7000000000000002,-40.7,2.4000000000000004,-1.5000000000000002
1698924854079.0,16,0.0,0.0,-0.30000000000000004,0.0,9.4,-1.7000000000000002,-43.400000000000006,-2.3000000000000003,-0.4
1698924854096.0,16,0.0,0.0,-0.4,0.0,9.4,-1.7000000000000002,-46.2,-3.5,-0.30000000000000004
1698924854113.0,16,-0.1,-0.1,-0.4,-0.2,9.4,-1.6,-48.400000000000006,-4.3999999999999995,0.5
1698924854130.0,16,-0.2,0.0,-0.30000000000000004,-0.30000000000000004,9.5,-1.5,-50.300000000000004,-5.7,1.9
1698924854146.0,16,-0.8,0.30000000000000004,-0.30000000000000004,-0.9,9.8,-1.3,-52.7,-8.5,7.2
1698924854164.0,16,-0.8,0.9,-0.4,-0.8,10.4,-1.2000000000000002,-54.9,-10.5,22.4
1698924854179.0,16,-1.1,1.6,-0.5,-1.0,11.100000000000001,-1.1,-58.5,-9.8,34.800000000000004
1698924854196.0,16,-0.30000000000000004,2.1,-0.6000000000000001,-0.1,11.600000000000001,-1.0,-62.50000000000001,-0.7,46.900000000000006
1698924854214.0,16,0.4,2.3000000000000003,-0.9,0.7000000000000001,11.9,-1.1,-66.80000000000001,1.4,48.6
1698924854230.0,16,0.4,2.1,-1.2000000000000002,0.9,11.700000000000001,-1.2000000000000002,-80.8,4.2,44.1
1698924854246.0,16,0.8,2.1,-1.3,1.3,11.700000000000001,-1.2000000000000002,-88.2,7.2,40.1
1698924854265.0,16,1.2000000000000002,3.0,-1.5,1.4000000000000001,12.200000000000001,-0.8,-98.2,10.0,21.400000000000002
1698924854279.0,16,0.0,1.5,-1.2000000000000002,0.6000000000000001,11.100000000000001,-0.4,-105.9,10.4,-3.5
1698924854296.0,16,0.4,0.9,-1.0,0.7000000000000001,10.600000000000001,-0.1,-107.2,15.299999999999999,-6.1000000000000005
1698924854314.0,16,0.8,1.3,-0.9,1.4000000000000001,10.9,0.4,-112.9,37.4,-8.799999999999999
1698924854330.0,16,1.3,2.3000000000000003,-1.1,1.8,11.9,0.6000000000000001,-130.1,45.4,-19.200000000000003
1698924854346.0,16,0.6000000000000001,2.3000000000000003,-0.9,1.0,11.700000000000001,1.3,-145.4,48.2,-28.700000000000003
1698924854365.0,16,1.0,2.8000000000000003,-0.9,1.3,12.200000000000001,1.6,-153.3,65.10000000000001,-31.0
1698924854380.0,16,1.4000000000000001,3.3000000000000003,-1.8,1.5,12.600000000000001,1.2000000000000002,-169.10000000000002,77.3,-45.4
1698924854397.0,16,1.5,3.3000000000000003,-2.4000000000000004,1.5,12.5,0.9,-185.20000000000002,72.5,-53.9
1698924854413.0,16,-0.1,1.9000000000000001,0.5,-0.4,10.9,4.4,-197.1,109.50000000000001,-52.50000000000001
1698924854430.0,16,0.0,1.7000000000000002,-0.9,-0.5,10.4,3.5,-161.5,58.400000000000006,-28.8
1698924854446.0,16,-0.6000000000000001,-0.6000000000000001,-1.9000000000000001,-1.2000000000000002,7.9,2.8000000000000003,-115.0,30.100000000000005,0.2
1698924854462.0,16,-0.9,-1.8,-1.7000000000000002,-1.5,6.6000000000000005,3.2,-92.9,23.8,11.8
1698924854480.0,16,-0.9,-3.2,-1.8,-1.4000000000000001,5.1000000000000005,3.3000000000000003,-40.8,5.9,20.7
1698924854496.0,16,-0.8,-2.8000000000000003,-1.1,-1.3,5.5,3.9000000000000004,8.9,-3.6,11.3
1698924854513.0,16,-0.6000000000000001,-2.4000000000000004,-0.5,-1.1,5.9,4.5,31.6,1.0999999999999999,8.0
1698924854530.0,16,0.30000000000000004,-2.1,1.9000000000000001,-0.2,6.2,6.7,60.00000000000001,-14.900000000000002,9.1
1698924854546.0,16,1.2000000000000002,-2.6,2.4000000000000004,0.7000000000000001,5.800000000000001,7.1000000000000005,46.1,-16.2,11.8
1698924854563.0,16,1.2000000000000002,-3.6,2.7,0.8,4.800000000000001,7.6000000000000005,-39.2,16.1,9.4
1698924854580.0,16,0.8,-2.7,0.8,0.4,5.5,5.9,-89.2,21.700000000000003,6.4
1698924854596.0,16,0.30000000000000004,-3.1,0.0,-0.1,4.9,5.300000000000001,-74.8,29.700000000000003,14.900000000000002
1698924854613.0,16,-0.2,-3.3000000000000003,-0.30000000000000004,-0.6000000000000001,4.6000000000000005,5.1000000000000005,-51.5,21.900000000000002,18.6
1698924854630.0,16,-1.0,-3.2,-0.1,-1.4000000000000001,4.7,5.300000000000001,-7.1000000000000005,14.500000000000002,18.6
1698924854647.0,16,-0.5,-2.9000000000000004,0.8,-0.9,5.0,6.2,12.5,13.200000000000001,5.500000000000001
1698924854662.0,16,0.1,-2.7,1.6,-0.30000000000000004,5.2,7.0,0.1,14.700000000000001,5.0
1698924854679.0,16,0.1,-2.7,1.4000000000000001,-0.4,5.1000000000000005,6.800000000000001,-12.4,16.5,3.9
1698924854696.0,16,0.2,-2.7,0.7000000000000001,-0.30000000000000004,5.1000000000000005,6.2,-25.900000000000002,16.700000000000003,-3.4
1698924854713.0,16,0.2,-2.4000000000000004,0.4,-0.30000000000000004,5.300000000000001,5.9,-25.3,18.7,-5.6
1698924854730.0,16,0.5,-2.6,0.30000000000000004,-0.1,5.1000000000000005,5.9,-12.4,18.1,-10.2
1698924854746.0,16,0.6000000000000001,-2.7,0.30000000000000004,0.0,4.9,5.800000000000001,6.2,16.700000000000003,-8.9
1698924854763.0,16,0.2,-2.6,0.5,-0.4,5.1000000000000005,6.0,14.3,15.8,-5.2
1698924854780.0,16,-0.2,-2.5,0.8,-0.8,5.2,6.300000000000001,24.000000000000004,4.800000000000001,1.0
1698924854797.0,16,-0.5,-2.4000000000000004,0.9,-1.1,5.4,6.4,24.200000000000003,2.4000000000000004,2.0
1698924854813.0,16,-1.0,-1.9000000000000001,1.0,-1.6,5.800000000000001,6.4,16.6,-0.2,3.4
1698924854829.0,16,-1.1,-1.8,1.2000000000000002,-1.7000000000000002,6.0,6.6000000000000005,9.0,3.0000000000000004,3.4
1698924854846.0,16,-1.1,-1.9000000000000001,0.8,-1.7000000000000002,5.800000000000001,6.2,12.000000000000002,-1.6,7.8
1698924854862.0,16,-1.2000000000000002,-2.1,0.7000000000000001,-1.8,5.7,6.1000000000000005,15.5,-5.4,11.9
1698924854879.0,16,-1.6,-1.8,0.8,-2.1,6.0,6.1000000000000005,26.9,-12.4,19.200000000000003
1698924854896.0,16,-1.6,-1.2000000000000002,1.5,-2.1,6.7,6.7,37.2,-10.4,17.0
1698924854914.0,16,-1.0,-1.5,1.1,-1.4000000000000001,6.4,6.300000000000001,39.699999999999996,-10.8,12.6
1698924854930.0,16,-1.0,-1.8,0.8,-1.4000000000000001,6.1000000000000005,5.9,38.400000000000006,-15.7,14.800000000000002
1698924854946.0,16,-1.1,-1.7000000000000002,0.8,-1.5,6.300000000000001,5.800000000000001,38.400000000000006,-18.6,15.2
1698924854962.0,16,-1.1,-1.7000000000000002,0.8,-1.5,6.300000000000001,5.800000000000001,38.400000000000006,-18.6,15.2
1698924854980.0,16,-0.7000000000000001,0.2,1.2000000000000002,-0.9,8.3,6.0,50.300000000000004,-20.3,14.100000000000001
1698924854996.0,16,-0.5,0.1,1.1,-0.7000000000000001,8.3,5.800000000000001,54.9,-20.1,10.600000000000001
1698924855013.0,16,-0.9,0.2,1.3,-1.0,8.5,5.7,56.7,-25.3,8.5
1698924855032.0,16,-0.9,0.6000000000000001,1.4000000000000001,-1.0,9.0,5.7,54.7,-28.3,8.200000000000001
1698924855047.0,16,-1.0,1.2000000000000002,1.4000000000000001,-1.0,9.600000000000001,5.7,53.9,-27.8,8.799999999999999
1698924855063.0,16,-0.8,1.3,1.1,-0.8,9.8,5.300000000000001,52.800000000000004,-27.5,8.200000000000001
1698924855079.0,16,-0.1,1.3,1.1,-0.1,9.8,5.2,49.2,-26.500000000000004,5.6
1698924855096.0,16,0.30000000000000004,0.9,0.5,0.4,9.5,4.4,48.9,-23.6,6.4
1698924855114.0,16,0.4,0.30000000000000004,0.30000000000000004,0.6000000000000001,9.0,4.1000000000000005,43.300000000000004,-25.0,4.7
1698924855130.0,16,0.30000000000000004,0.0,0.2,0.4,8.700000000000001,3.9000000000000004,42.900000000000006,-24.3,4.5
1698924855149.0,16,-0.1,-0.5,-0.1,0.1,8.3,3.5,40.4,-23.6,4.5
1698924855163.0,16,-0.30000000000000004,-0.6000000000000001,0.1,-0.1,8.3,3.8000000000000003,38.800000000000004,-20.7,4.1000000000000005
1698924855179.0,16,0.0,-0.4,0.1,0.2,8.4,3.5,42.6,-17.400000000000002,2.1999999999999997
1698924855197.0,16,0.5,-0.7000000000000001,-0.6000000000000001,0.7000000000000001,8.200000000000001,2.7,42.7,-23.6,-4.1000000000000005
1698924855213.0,16,0.30000000000000004,-0.9,-0.6000000000000001,0.6000000000000001,8.0,2.6,41.9,-22.3,-5.4
1698924855230.0,16,0.1,-0.9,-0.6000000000000001,0.4,8.0,2.4000000000000004,43.0,-22.8,-3.3000000000000003
1698924855248.0,16,-0.2,-0.7000000000000001,-0.7000000000000001,0.1,8.3,2.2,43.900000000000006,-29.800000000000004,2.0
1698924855264.0,16,-0.30000000000000004,-0.30000000000000004,-0.1,0.0,8.8,2.7,44.6,-33.300000000000004,4.5
1698924855279.0,16,-0.30000000000000004,-0.1,-0.2,0.2,8.9,2.4000000000000004,52.50000000000001,-35.9,8.799999999999999
1698924855296.0,16,0.30000000000000004,0.2,-0.1,0.8,9.3,2.4000000000000004,59.80000000000001,-34.0,10.0
1698924855313.0,16,0.8,0.9,0.2,1.4000000000000001,10.100000000000001,2.4000000000000004,62.8,-32.9,7.699999999999999
1698924855330.0,16,0.9,0.7000000000000001,0.2,1.5,9.9,2.4000000000000004,56.0,-28.1,7.699999999999999
1698924855346.0,16,1.2000000000000002,0.0,-0.2,1.8,9.200000000000001,1.8,40.4,-17.0,16.400000000000002
1698924855364.0,16,0.6000000000000001,-0.4,-0.5,1.3,8.8,1.5,39.8,-15.000000000000002,16.0
1698924855379.0,16,0.4,-0.30000000000000004,-0.4,1.2000000000000002,8.9,1.5,44.00000000000001,-18.3,8.4
1698924855397.0,16,0.8,-0.4,-0.2,1.6,8.9,1.5,40.8,-13.8,3.8
1698924855413.0,16,0.7000000000000001,-0.5,-0.30000000000000004,1.5,8.8,1.3,37.4,-8.200000000000001,1.5000000000000002
1698924855431.0,16,0.5,-0.5,-0.1,1.2000000000000002,9.0,1.4000000000000001,39.300000000000004,-7.6,1.0999999999999999
1698924855446.0,16,0.30000000000000004,-0.1,0.0,1.1,9.3,1.3,39.9,-6.1000000000000005,0.5
1698924855463.0,16,0.8,0.6000000000000001,0.2,1.6,9.9,1.4000000000000001,41.4,-0.8,1.5000000000000002
1698924855479.0,16,0.9,1.1,-0.2,1.7000000000000002,10.5,0.9,43.0,0.7,-0.5
1698924855496.0,16,0.7000000000000001,1.3,-0.5,1.5,10.700000000000001,0.5,42.800000000000004,3.1,-0.8
1698924855514.0,16,0.5,1.3,-0.7000000000000001,1.3,10.700000000000001,0.1,40.8,8.600000000000001,-1.3
1698924855529.0,16,0.4,1.0,-0.7000000000000001,1.1,10.4,0.1,40.3,11.700000000000001,-2.1999999999999997
1698924855546.0,16,0.30000000000000004,0.5,-1.3,1.1,9.9,-0.6000000000000001,41.2,9.700000000000001,-0.2
1698924855563.0,16,-0.7000000000000001,0.0,-1.4000000000000001,0.1,9.5,-0.9,34.800000000000004,5.1,-1.4
1698924855579.0,16,-1.0,0.2,-1.7000000000000002,-0.30000000000000004,9.600000000000001,-1.2000000000000002,34.900000000000006,3.1,-1.8
1698924855596.0,16,-1.0,0.9,-1.9000000000000001,-0.30000000000000004,10.4,-1.6,60.1,-61.0,-5.7
1698924855613.0,16,-0.30000000000000004,0.0,-0.5,0.4,9.5,-0.5,63.900000000000006,-21.700000000000003,-4.800000000000001
1698924855629.0,16,-0.1,0.0,-0.5,0.6000000000000001,9.5,-0.6000000000000001,62.300000000000004,-42.1,-3.1
1698924855647.0,16,-0.1,0.2,-0.7000000000000001,0.6000000000000001,9.700000000000001,-0.9,63.300000000000004,-38.2,-2.1999999999999997
1698924855662.0,16,-0.1,0.4,-0.4,0.6000000000000001,9.9,-0.9,63.6,-34.1,-1.2000000000000002
1698924855679.0,16,0.0,0.5,-0.7000000000000001,0.7000000000000001,10.0,-1.4000000000000001,60.400000000000006,-31.099999999999998,-1.5000000000000002
1698924855696.0,16,-0.1,0.5,-0.7000000000000001,0.6000000000000001,9.9,-1.5,56.5,-26.6,-1.9
1698924855713.0,16,0.1,0.5,-0.5,0.7000000000000001,9.9,-1.5,49.8,-16.6,-2.0
1698924855729.0,16,0.1,0.9,-0.4,0.7000000000000001,10.3,-1.5,42.1,-17.599999999999998,-2.1999999999999997
1698924855746.0,16,0.1,1.0,-0.2,0.7000000000000001,10.4,-1.4000000000000001,37.6,-14.900000000000002,-2.1999999999999997
1698924855764.0,16,0.2,1.0,0.0,0.8,10.4,-1.3,33.300000000000004,-10.5,-1.8
1698924855779.0,16,0.1,0.9,-0.2,0.7000000000000001,10.3,-1.7000000000000002,30.000000000000004,-12.3,-2.8
1698924855796.0,16,0.0,0.6000000000000001,-0.1,0.6000000000000001,10.0,-1.6,27.7,-9.3,-3.1
1698924855814.0,16,0.0,0.1,-0.2,0.6000000000000001,9.5,-1.7000000000000002,25.400000000000002,-4.3999999999999995,-3.6
1698924855830.0,16,0.0,0.0,-0.2,0.6000000000000001,9.4,-1.8,24.8,-3.1,-3.8
1698924855846.0,16,0.0,-0.1,-0.1,0.6000000000000001,9.3,-1.8,19.200000000000003,1.8,-3.1
1698924855864.0,16,0.0,-0.1,-0.30000000000000004,0.6000000000000001,9.200000000000001,-2.0,16.400000000000002,3.0000000000000004,-3.0000000000000004
1698924855879.0,16,0.0,-0.1,-0.2,0.6000000000000001,9.200000000000001,-2.0,16.1,5.9,-4.2
1698924855896.0,16,0.0,0.0,-0.2,0.6000000000000001,9.3,-2.0,15.2,5.9,-3.2
1698924855914.0,16,0.0,0.1,-0.4,0.5,9.4,-2.3000000000000003,12.8,6.000000000000001,-3.5
1698924855930.0,16,-0.1,0.0,-0.4,0.5,9.4,-2.3000000000000003,11.4,4.7,-3.9
1698924855946.0,16,0.0,-0.2,-0.30000000000000004,0.6000000000000001,9.200000000000001,-2.2,8.4,2.1,-4.1000000000000005
1698924855963.0,16,0.1,-0.2,-0.30000000000000004,0.6000000000000001,9.1,-2.3000000000000003,4.800000000000001,1.3,-4.7
1698924855979.0,16,0.2,-0.30000000000000004,-0.1,0.7000000000000001,9.0,-2.1,2.5,1.6,-5.4
1698924855996.0,16,0.2,-0.2,0.0,0.6000000000000001,9.1,-2.0,1.0999999999999999,2.5,-6.3
1698924856012.0,16,0.30000000000000004,-0.2,0.0,0.7000000000000001,9.1,-2.0,-0.5,2.8,-9.4
1698924856029.0,16,-0.1,0.1,0.0,0.4,9.4,-1.9000000000000001,-1.4,1.8,-4.0
1698924856046.0,16,-0.1,0.1,0.1,0.4,9.4,-1.8,-1.4,2.6,-3.7000000000000006
1698924856063.0,16,-0.1,0.1,0.1,0.30000000000000004,9.5,-1.8,-0.9,2.1999999999999997,-2.4000000000000004
1698924856079.0,16,-0.1,0.1,0.1,0.30000000000000004,9.4,-1.9000000000000001,-0.30000000000000004,2.0,-2.0
1698924856096.0,16,0.0,0.1,0.0,0.4,9.4,-1.9000000000000001,-0.2,2.1,-2.0
1698924856112.0,16,-0.1,0.0,0.0,0.4,9.3,-1.9000000000000001,0.30000000000000004,2.6,-2.0
1698924856129.0,16,0.0,-0.1,0.0,0.4,9.200000000000001,-1.9000000000000001,1.2000000000000002,2.5,-1.6
1698924856146.0,16,0.0,-0.1,0.0,0.4,9.3,-1.9000000000000001,1.5000000000000002,2.4000000000000004,-1.4
1698924856162.0,16,0.0,0.0,0.0,0.4,9.3,-1.9000000000000001,1.5000000000000002,2.1,-1.3
1698924856179.0,16,-0.1,0.0,0.1,0.30000000000000004,9.3,-1.9000000000000001,2.0,2.3000000000000003,-0.8
1698924856196.0,16,-0.1,0.1,0.0,0.30000000000000004,9.4,-1.9000000000000001,2.9,2.4000000000000004,-0.30000000000000004
1698924856212.0,16,-0.1,0.0,0.0,0.4,9.3,-1.9000000000000001,3.3000000000000003,2.4000000000000004,-0.1
1698924856229.0,16,0.0,-0.1,0.0,0.4,9.3,-2.0,3.6,3.1,-0.30000000000000004
1698924856248.0,16,0.0,-0.1,-0.1,0.4,9.200000000000001,-2.1,4.300000000000001,3.7000000000000006,-0.6000000000000001
1698924856265.0,16,0.0,-0.1,-0.1,0.4,9.200000000000001,-2.1,4.3999999999999995,3.5,-0.6000000000000001
1698924856279.0,16,0.0,-0.1,-0.1,0.4,9.200000000000001,-2.1,4.7,3.6,-0.8
1698924856295.0,16,0.0,0.0,-0.2,0.4,9.200000000000001,-2.2,4.7,3.4,-0.8
1698924856312.0,16,0.0,0.0,-0.1,0.4,9.3,-2.1,4.300000000000001,2.0,-0.8
1698924856329.0,16,0.0,0.0,-0.1,0.4,9.3,-2.2,3.4,1.7,-0.7
1698924856345.0,16,0.0,0.0,0.0,0.4,9.3,-2.1,2.6,0.9,-0.5
1698924856362.0,16,0.0,0.0,0.0,0.4,9.3,-2.1,2.3000000000000003,0.9,-0.4
1698924856379.0,16,0.0,0.0,0.0,0.4,9.200000000000001,-2.1,2.4000000000000004,0.7,-0.5
1698924856396.0,16,0.0,0.0,0.0,0.4,9.3,-2.1,2.6,0.6000000000000001,-0.5
1698924856412.0,16,0.0,-0.1,0.0,0.4,9.200000000000001,-2.1,2.3000000000000003,0.1,-0.6000000000000001
1698924856429.0,16,0.0,0.0,0.1,0.4,9.3,-2.0,1.9,0.9,-0.6000000000000001
1698924856446.0,16,0.0,0.0,0.0,0.4,9.3,-2.0,1.9,0.7,-0.7
1698924856463.0,16,0.0,0.0,0.1,0.4,9.3,-2.0,1.8,0.7,-0.8
1698924856479.0,16,0.0,0.0,0.0,0.4,9.200000000000001,-2.1,1.8,0.9,-0.9
1698924856495.0,16,0.0,0.0,0.0,0.4,9.3,-2.1,2.1,0.4,-0.9
1698924856513.0,16,0.0,0.0,0.0,0.4,9.3,-2.1,2.3000000000000003,0.6000000000000001,-0.6000000000000001
1698924856529.0,16,0.0,0.0,-0.1,0.5,9.3,-2.2,2.4000000000000004,0.6000000000000001,-0.5
1698924856545.0,16,0.0,0.0,-0.1,0.4,9.3,-2.2,1.8,-0.30000000000000004,-0.30000000000000004
1698924856562.0,16,0.0,0.0,-0.1,0.4,9.200000000000001,-2.2,1.7,-0.5,-0.2
1698924856579.0,16,-0.1,0.0,0.0,0.30000000000000004,9.3,-2.2,1.6,-0.5,0.2
1698924856596.0,16,0.0,0.0,0.0,0.4,9.200000000000001,-2.2,1.4,-0.30000000000000004,0.1
1698924856612.0,16,0.0,0.0,0.0,0.5,9.200000000000001,-2.2,1.0999999999999999,-0.30000000000000004,0.0
1698924856629.0,16,0.0,-0.1,-0.1,0.4,9.200000000000001,-2.2,0.7,-0.2,-0.1
1698924856647.0,16,0.0,0.0,0.0,0.4,9.200000000000001,-2.2,1.4,-0.2,0.0
1698924856662.0,16,0.0,0.0,0.0,0.4,9.200000000000001,-2.2,1.4,-0.2,0.0
1698924856679.0,16,0.0,0.0,0.0,0.4,9.200000000000001,-2.2,1.0999999999999999,0.1,0.0
1698924856696.0,16,0.0,0.0,0.0,0.4,9.200000000000001,-2.2,1.0,0.4,0.0
1698924856713.0,16,0.0,0.0,0.0,0.4,9.200000000000001,-2.2,1.0,0.30000000000000004,0.0
1698924856732.0,16,0.0,0.0,0.0,0.4,9.200000000000001,-2.2,1.0999999999999999,-0.2,0.0
1698924856747.0,16,0.0,0.0,0.1,0.4,9.3,-2.1,2.0,-0.1,0.0
1698924856762.0,16,-0.1,0.0,0.1,0.30000000000000004,9.3,-2.1,2.4000000000000004,0.30000000000000004,0.1
1698924856779.0,16,0.0,-0.2,0.1,0.4,9.0,-2.1,2.8,1.4,0.30000000000000004
1698924856796.0,16,0.0,0.1,0.0,0.4,9.3,-2.2,2.8,1.7,0.0
1698924856812.0,16,0.0,0.0,0.0,0.5,9.200000000000001,-2.2,2.9,1.8,0.0
1698924856830.0,16,0.0,-0.1,0.0,0.5,9.1,-2.2,3.0000000000000004,1.5000000000000002,0.1
1698924856851.0,16,-0.1,0.0,0.1,0.30000000000000004,9.3,-2.1,2.3000000000000003,1.6,-0.1
1698924856863.0,16,0.0,0.0,0.0,0.4,9.200000000000001,-2.2,2.1,1.8,0.0
1698924856879.0,16,0.0,0.0,0.0,0.4,9.200000000000001,-2.2,2.1,2.0,0.0
1698924856895.0,16,0.0,0.0,0.0,0.4,9.200000000000001,-2.2,2.0,2.0,0.0
1698924856912.0,16,0.0,0.0,0.0,0.4,9.200000000000001,-2.3000000000000003,2.1999999999999997,1.9,-0.2
1698924856929.0,16,0.0,0.0,-0.1,0.4,9.200000000000001,-2.3000000000000003,2.3000000000000003,1.7,-0.2
1698924856946.0,16,0.0,0.0,0.0,0.4,9.200000000000001,-2.3000000000000003,2.3000000000000003,1.3,0.0
1698924856963.0,16,0.0,0.0,0.0,0.4,9.200000000000001,-2.3000000000000003,2.1999999999999997,1.5000000000000002,0.1
1698924856979.0,16,0.0,0.0,0.0,0.4,9.200000000000001,-2.3000000000000003,2.6,1.8,0.0
1698924856996.0,16,0.0,0.0,0.0,0.4,9.200000000000001,-2.2,3.1,1.8,0.0
1698924857012.0,16,0.0,0.0,0.0,0.4,9.200000000000001,-2.3000000000000003,3.4,2.1,-0.1
1698924857029.0,16,0.0,0.0,0.0,0.4,9.200000000000001,-2.3000000000000003,3.3000000000000003,2.1,0.1
1698924857051.0,16,0.0,0.0,0.0,0.4,9.200000000000001,-2.3000000000000003,3.3000000000000003,2.1999999999999997,0.1
1698924857062.0,16,0.0,0.0,-0.1,0.4,9.200000000000001,-2.4000000000000004,2.9,2.0,0.2
1698924857080.0,16,0.0,0.0,-0.1,0.5,9.200000000000001,-2.4000000000000004,2.4000000000000004,1.7,0.30000000000000004
1698924857096.0,16,0.0,0.0,0.0,0.4,9.200000000000001,-2.4000000000000004,1.6,1.7,0.5
1698924857113.0,16,0.0,0.0,0.0,0.4,9.200000000000001,-2.4000000000000004,1.5000000000000002,1.6,0.30000000000000004
1698924857130.0,16,0.0,0.0,0.0,0.4,9.200000000000001,-2.3000000000000003,1.2000000000000002,1.5000000000000002,0.6000000000000001
1698924857146.0,16,0.0,0.0,0.0,0.4,9.200000000000001,-2.3000000000000003,0.8,2.0,0.5
1698924857162.0,16,0.0,0.0,0.0,0.4,9.200000000000001,-2.3000000000000003,0.1,2.3000000000000003,0.4
1698924857179.0,16,0.0,0.0,-0.1,0.4,9.200000000000001,-2.4000000000000004,-0.1,2.1999999999999997,0.4
1698924857196.0,16,0.0,0.0,-0.1,0.4,9.200000000000001,-2.4000000000000004,-0.8,1.3,0.4
1698924857212.0,16,0.0,0.0,0.0,0.5,9.200000000000001,-2.4000000000000004,-1.0,1.4,0.4
1698924857229.0,16,0.0,0.0,0.0,0.5,9.200000000000001,-2.4000000000000004,-0.9,1.4,0.30000000000000004
1698924857246.0,16,0.0,0.0,0.0,0.4,9.200000000000001,-2.4000000000000004,-0.6000000000000001,1.2000000000000002,0.30000000000000004
1698924857262.0,16,0.0,0.0,0.0,0.5,9.200000000000001,-2.3000000000000003,-0.7,1.4,0.30000000000000004
1698924857279.0,16,0.0,0.0,0.1,0.5,9.200000000000001,-2.3000000000000003,-0.5,1.7,0.30000000000000004
1698924857296.0,16,0.0,0.0,0.0,0.5,9.200000000000001,-2.3000000000000003,0.0,1.5000000000000002,0.0
1698924857313.0,16,0.0,0.0,0.0,0.5,9.200000000000001,-2.3000000000000003,0.0,1.5000000000000002,0.2
1698924857329.0,16,0.0,0.0,0.1,0.4,9.200000000000001,-2.2,0.30000000000000004,1.2000000000000002,0.2
1698924857346.0,16,0.0,0.0,0.0,0.5,9.200000000000001,-2.3000000000000003,0.5,1.0,0.30000000000000004
1698924857363.0,16,0.0,0.0,0.0,0.5,9.200000000000001,-2.3000000000000003,0.30000000000000004,0.8,0.0
1698924857379.0,16,0.0,0.0,0.0,0.5,9.200000000000001,-2.3000000000000003,0.4,0.6000000000000001,0.1
1698924857396.0,16,0.0,0.0,0.0,0.5,9.200000000000001,-2.3000000000000003,0.1,0.6000000000000001,0.0
1698924857415.0,16,0.0,0.0,0.0,0.5,9.200000000000001,-2.3000000000000003,0.1,0.5,0.0
1698924857429.0,16,0.0,0.0,0.0,0.5,9.200000000000001,-2.3000000000000003,0.0,0.6000000000000001,0.0
1698924857446.0,16,0.0,0.0,0.0,0.5,9.200000000000001,-2.3000000000000003,0.0,0.5,-0.1
1698924857463.0,16,0.0,0.0,0.0,0.5,9.200000000000001,-2.3000000000000003,0.1,0.30000000000000004,-0.1
1698924857480.0,16,0.0,0.0,0.0,0.5,9.200000000000001,-2.3000000000000003,0.1,0.30000000000000004,-0.1
1698924857496.0,16,0.0,0.0,0.0,0.5,9.200000000000001,-2.3000000000000003,0.4,0.30000000000000004,-0.1
1698924857513.0,16,0.0,0.0,0.0,0.5,9.1,-2.3000000000000003,0.5,0.2,0.1
1698924857529.0,16,0.0,0.0,0.0,0.5,9.1,-2.3000000000000003,0.6000000000000001,0.30000000000000004,0.0
1698924857546.0,16,0.0,0.0,0.0,0.5,9.200000000000001,-2.3000000000000003,0.9,0.5,0.0
1698924857562.0,16,0.0,0.0,0.0,0.4,9.200000000000001,-2.3000000000000003,1.0999999999999999,0.7,0.0
1698924857579.0,16,0.0,0.0,0.0,0.4,9.200000000000001,-2.3000000000000003,1.0999999999999999,0.6000000000000001,0.0
1698924857596.0,16,0.0,0.0,0.0,0.4,9.200000000000001,-2.4000000000000004,0.9,0.5,0.1
1698924857612.0,16,0.0,0.0,0.0,0.5,9.200000000000001,-2.3000000000000003,0.9,0.4,0.2
1698924857629.0,16,0.0,0.0,0.0,0.5,9.200000000000001,-2.3000000000000003,0.8,0.7,0.0
1698924857646.0,16,0.0,0.0,0.0,0.5,9.200000000000001,-2.3000000000000003,0.7,0.7,0.0
1698924857662.0,16,0.0,-0.2,0.0,0.5,9.0,-2.4000000000000004,0.8,0.8,-0.30000000000000004
1698924857679.0,16,0.0,0.1,0.0,0.5,9.3,-2.4000000000000004,0.6000000000000001,1.0999999999999999,-0.1
1698924857696.0,16,0.0,0.0,0.0,0.5,9.200000000000001,-2.4000000000000004,0.30000000000000004,0.7,-0.2
1698924857712.0,16,0.0,0.0,0.0,0.5,9.200000000000001,-2.3000000000000003,0.1,0.7,-0.1
1698924857729.0,16,0.0,0.0,0.0,0.4,9.200000000000001,-2.4000000000000004,-0.1,0.4,0.0
1698924857746.0,16,0.0,0.0,0.0,0.4,9.200000000000001,-2.4000000000000004,-0.2,0.30000000000000004,0.0
1698924857762.0,16,0.0,0.0,0.0,0.5,9.200000000000001,-2.4000000000000004,0.0,0.30000000000000004,0.0
1698924857779.0,16,0.0,0.0,0.0,0.5,9.200000000000001,-2.4000000000000004,0.0,0.30000000000000004,0.1
1698924857796.0,16,0.0,0.0,0.0,0.5,9.200000000000001,-2.3000000000000003,0.1,0.2,0.0
1698924857813.0,16,0.0,0.0,0.0,0.5,9.200000000000001,-2.3000000000000003,0.6000000000000001,0.4,0.0
1698924857829.0,16,0.0,0.0,0.0,0.5,9.200000000000001,-2.3000000000000003,0.6000000000000001,0.4,0.0
1698924857846.0,16,0.0,0.0,0.0,0.5,9.200000000000001,-2.3000000000000003,0.8,0.30000000000000004,0.0
1698924857862.0,16,0.0,-0.2,0.0,0.5,8.9,-2.3000000000000003,0.9,0.2,-0.5
1698924857879.0,16,0.0,0.1,0.0,0.4,9.3,-2.3000000000000003,0.8,0.5,-0.1
1698924857896.0,16,0.0,0.0,0.0,0.5,9.200000000000001,-2.4000000000000004,0.6000000000000001,0.6000000000000001,-0.1
1698924857912.0,16,0.0,0.0,0.0,0.5,9.200000000000001,-2.4000000000000004,0.8,0.4,-0.2
1698924857929.0,16,0.0,0.0,0.0,0.4,9.200000000000001,-2.3000000000000003,0.4,0.30000000000000004,-0.1
1698924857946.0,16,0.0,0.0,0.0,0.4,9.200000000000001,-2.4000000000000004,0.4,0.30000000000000004,-0.1
1698924857962.0,16,0.0,0.0,0.0,0.5,9.200000000000001,-2.3000000000000003,0.4,0.2,-0.1
1698924857979.0,16,0.0,0.0,0.0,0.5,9.200000000000001,-2.3000000000000003,0.30000000000000004,0.4,-0.1
1698924857996.0,16,0.0,0.0,0.0,0.5,9.200000000000001,-2.4000000000000004,0.4,0.2,-0.1
1698924858013.0,16,0.0,0.0,0.0,0.4,9.200000000000001,-2.4000000000000004,0.30000000000000004,-0.1,0.0
1698924858029.0,16,0.0,0.0,0.0,0.5,9.200000000000001,-2.4000000000000004,0.1,-0.4,0.0
1698924858046.0,16,0.0,0.0,0.0,0.5,9.200000000000001,-2.3000000000000003,0.1,-0.4,-0.1
1698924858064.0,16,0.0,0.0,0.0,0.5,9.200000000000001,-2.3000000000000003,0.30000000000000004,-0.4,-0.1
1698924858079.0,16,0.0,-0.1,0.0,0.5,9.1,-2.3000000000000003,0.6000000000000001,-0.2,0.0
1698924858096.0,16,0.0,-0.1,0.0,0.4,9.1,-2.3000000000000003,0.9,-0.2,-0.30000000000000004
1698924858113.0,16,0.0,0.1,0.0,0.5,9.200000000000001,-2.3000000000000003,1.0999999999999999,-0.1,-0.1
1698924858129.0,16,0.0,0.0,0.0,0.5,9.200000000000001,-2.3000000000000003,0.8,-0.6000000000000001,-0.1
1698924858146.0,16,0.0,0.0,0.0,0.4,9.200000000000001,-2.4000000000000004,0.8,-0.5,-0.1
1698924858163.0,16,0.0,0.1,0.0,0.4,9.200000000000001,-2.4000000000000004,0.9,-0.5,0.0
1698924858179.0,16,0.0,0.0,0.0,0.4,9.200000000000001,-2.4000000000000004,0.9,-0.2,0.0
1698924858195.0,16,0.0,0.0,0.0,0.5,9.200000000000001,-2.4000000000000004,0.9,-0.2,0.2
1698924858212.0,16,0.0,0.0,-0.1,0.5,9.200000000000001,-2.4000000000000004,0.8,0.0,0.1
1698924858229.0,16,0.0,0.0,0.0,0.5,9.200000000000001,-2.4000000000000004,0.1,-0.1,0.1
1698924858246.0,16,0.0,0.0,0.0,0.4,9.200000000000001,-2.4000000000000004,0.0,0.0,0.1
1698924858263.0,16,0.0,0.0,0.0,0.4,9.200000000000001,-2.4000000000000004,-0.2,-0.2,0.2
1698924858279.0,16,0.0,0.0,0.0,0.4,9.200000000000001,-2.4000000000000004,-0.4,-0.2,0.2
1698924858296.0,16,0.0,0.0,0.0,0.5,9.200000000000001,-2.4000000000000004,-0.5,-0.2,0.1
1698924858312.0,16,0.0,0.0,0.0,0.4,9.200000000000001,-2.4000000000000004,-0.4,-0.30000000000000004,0.1
1698924858329.0,16,0.0,0.0,0.0,0.5,9.200000000000001,-2.4000000000000004,-0.2,-0.4,0.1
1698924858347.0,16,0.0,0.0,0.0,0.5,9.200000000000001,-2.4000000000000004,-0.1,-0.7,0.0
1698924858362.0,16,0.0,0.0,0.0,0.5,9.200000000000001,-2.4000000000000004,0.0,-0.5,0.2
1698924858381.0,16,0.0,0.0,0.0,0.4,9.200000000000001,-2.3000000000000003,0.1,-0.1,0.2
1698924858397.0,16,0.0,0.0,0.1,0.4,9.200000000000001,-2.3000000000000003,0.5,0.4,0.2
1698924858413.0,16,0.0,0.0,0.0,0.5,9.200000000000001,-2.3000000000000003,0.6000000000000001,0.4,0.2
1698924858429.0,16,0.0,0.0,0.0,0.5,9.1,-2.4000000000000004,0.8,0.4,0.1
1698924858445.0,16,0.0,0.0,0.0,0.5,9.1,-2.4000000000000004,0.6000000000000001,0.30000000000000004,0.0
1698924858463.0,16,0.0,0.0,0.0,0.5,9.200000000000001,-2.4000000000000004,0.5,0.30000000000000004,0.0
1698924858481.0,16,0.0,0.0,0.0,0.5,9.200000000000001,-2.4000000000000004,0.4,-0.2,0.2
1698924858496.0,16,0.0,0.0,0.0,0.4,9.200000000000001,-2.3000000000000003,-0.1,-0.2,0.1
1698924858513.0,16,0.0,0.0,0.0,0.4,9.200000000000001,-2.4000000000000004,-0.2,0.0,0.0
1698924858529.0,16,0.0,0.0,0.0,0.5,9.200000000000001,-2.4000000000000004,-0.2,0.1,0.2
1698924858546.0,16,0.0,0.0,0.0,0.5,9.200000000000001,-2.4000000000000004,-0.2,0.2,0.1
1698924858563.0,16,0.0,0.0,0.0,0.5,9.200000000000001,-2.4000000000000004,-0.2,0.30000000000000004,0.2
1698924858579.0,16,0.0,0.0,0.0,0.5,9.200000000000001,-2.4000000000000004,-0.2,0.4,0.2
1698924858596.0,16,0.0,0.0,0.0,0.4,9.200000000000001,-2.3000000000000003,-0.2,0.6000000000000001,0.2
1698924858612.0,16,0.0,0.0,0.0,0.4,9.200000000000001,-2.4000000000000004,0.0,0.6000000000000001,0.1
1698924858629.0,16,0.0,0.0,0.0,0.5,9.200000000000001,-2.4000000000000004,0.2,0.8,0.30000000000000004
1698924858647.0,16,0.0,0.0,0.0,0.5,9.1,-2.4000000000000004,0.30000000000000004,0.7,0.2
1698924858663.0,16,0.0,0.0,0.0,0.5,9.200000000000001,-2.4000000000000004,0.4,0.5,0.1
1698924858679.0,16,0.0,0.0,0.0,0.5,9.200000000000001,-2.4000000000000004,0.5,0.30000000000000004,0.2
1698924858696.0,16,0.0,0.0,0.0,0.5,9.200000000000001,-2.4000000000000004,0.4,0.30000000000000004,0.1
1698924858713.0,16,0.0,0.0,0.0,0.5,9.200000000000001,-2.4000000000000004,0.4,0.6000000000000001,0.0
1698924858729.0,16,0.0,0.0,0.0,0.5,9.1,-2.4000000000000004,0.8,0.8,0.2
1698924858748.0,16,0.0,0.0,0.0,0.5,9.200000000000001,-2.4000000000000004,0.8,0.9,0.2
1698924858762.0,16,0.0,0.0,0.0,0.5,9.200000000000001,-2.4000000000000004,0.8,0.9,0.2
1698924858779.0,16,0.0,0.0,0.0,0.5,9.1,-2.4000000000000004,0.6000000000000001,1.3,0.2
1698924858796.0,16,0.0,0.0,0.0,0.5,9.200000000000001,-2.4000000000000004,0.6000000000000001,1.2000000000000002,0.0
1698924858812.0,16,0.0,0.0,0.0,0.4,9.200000000000001,-2.4000000000000004,0.6000000000000001,1.2000000000000002,0.0
1698924858829.0,16,0.0,0.0,0.0,0.5,9.200000000000001,-2.4000000000000004,0.5,1.0,-0.1
1698924858846.0,16,0.0,0.0,0.0,0.5,9.200000000000001,-2.4000000000000004,0.7,1.2000000000000002,-0.1
1698924858863.0,16,0.0,0.0,0.0,0.5,9.200000000000001,-2.4000000000000004,0.8,1.0999999999999999,-0.2
1698924858879.0,16,0.0,0.0,0.0,0.5,9.200000000000001,-2.4000000000000004,0.9,0.8,-0.30000000000000004
1698924858896.0,16,0.0,0.0,0.0,0.5,9.200000000000001,-2.4000000000000004,0.4,0.6000000000000001,-0.30000000000000004
1698924858912.0,16,0.0,0.0,-0.1,0.5,9.200000000000001,-2.5,0.2,0.30000000000000004,-0.30000000000000004
1698924858929.0,16,0.0,0.0,0.0,0.5,9.1,-2.4000000000000004,-0.2,-0.30000000000000004,-0.30000000000000004
1698924858946.0,16,0.0,0.0,0.0,0.5,9.200000000000001,-2.4000000000000004,-0.7,-0.6000000000000001,-0.1
1698924858962.0,16,0.0,0.0,0.0,0.4,9.200000000000001,-2.4000000000000004,-0.9,-0.4,0.0
1698924858979.0,16,0.0,0.0,-0.1,0.5,9.200000000000001,-2.5,-1.0,-0.30000000000000004,0.0
1698924858996.0,16,0.0,0.0,0.0,0.5,9.200000000000001,-2.4000000000000004,-0.30000000000000004,-0.2,0.30000000000000004
1698924859012.0,16,0.0,0.0,0.0,0.5,9.200000000000001,-2.4000000000000004,0.1,-0.2,0.30000000000000004
1698924859029.0,16,0.0,0.0,0.0,0.5,9.200000000000001,-2.4000000000000004,0.1,-0.2,0.2
1698924859046.0,16,-0.1,0.0,0.1,0.4,9.1,-2.3000000000000003,0.30000000000000004,0.2,0.2
1698924859062.0,16,0.0,0.0,0.1,0.4,9.200000000000001,-2.3000000000000003,0.6000000000000001,0.30000000000000004,0.30000000000000004
1698924859080.0,16,0.0,0.0,0.0,0.5,9.200000000000001,-2.4000000000000004,0.9,0.7,0.30000000000000004
1698924859096.0,16,0.0,0.0,-0.1,0.5,9.200000000000001,-2.5,0.8,0.7,0.2
1698924859113.0,16,0.0,0.0,0.0,0.5,9.1,-2.4000000000000004,0.1,0.2,0.1
1698924859129.0,16,0.0,0.0,0.0,0.5,9.1,-2.4000000000000004,0.2,-0.1,0.1
1698924859147.0,16,0.0,0.0,0.0,0.5,9.200000000000001,-2.4000000000000004,-0.5,0.0,-0.1
1698924859162.0,16,0.0,0.0,-0.1,0.5,9.200000000000001,-2.5,-1.3,0.30000000000000004,0.0
1698924859182.0,16,0.0,0.0,0.0,0.5,9.200000000000001,-2.4000000000000004,-1.0,0.4,0.0
1698924859196.0,16,0.0,0.0,0.0,0.5,9.200000000000001,-2.4000000000000004,-0.9,0.6000000000000001,0.0
1698924859212.0,16,0.0,0.0,0.1,0.5,9.200000000000001,-2.3000000000000003,-0.6000000000000001,0.4,0.0
1698924859229.0,16,0.0,0.0,0.1,0.5,9.200000000000001,-2.3000000000000003,-0.4,0.7,0.0
1698924859247.0,16,0.0,0.0,0.0,0.5,9.1,-2.3000000000000003,0.0,1.0,0.0
1698924859262.0,16,0.0,0.0,0.0,0.5,9.1,-2.4000000000000004,0.1,1.2000000000000002,0.0
1698924859279.0,16,0.0,0.0,0.0,0.5,9.200000000000001,-2.4000000000000004,0.2,1.4,0.0
1698924859295.0,16,0.0,0.0,0.0,0.5,9.200000000000001,-2.4000000000000004,0.30000000000000004,1.4,0.0
1698924859312.0,16,0.0,0.0,-0.1,0.5,9.200000000000001,-2.5,0.0,1.2000000000000002,0.0
1698924859329.0,16,0.0,0.0,-0.30000000000000004,0.5,9.1,-2.4000000000000004,-0.5,1.0,0.0
1698924859345.0,16,0.0,0.0,0.0,0.5,9.1,-2.4000000000000004,-0.2,0.4,0.0
1698924859362.0,16,0.0,0.0,0.1,0.5,9.200000000000001,-2.3000000000000003,-0.1,0.5,0.0
1698924859380.0,16,0.0,0.0,0.1,0.5,9.200000000000001,-2.3000000000000003,0.30000000000000004,0.4,0.2
1698924859396.0,16,0.0,0.0,0.1,0.5,9.1,-2.3000000000000003,0.6000000000000001,0.6000000000000001,-0.1
1698924859412.0,16,0.0,0.0,0.0,0.5,9.1,-2.3000000000000003,0.9,0.9,-0.1
1698924859430.0,16,0.0,0.0,0.0,0.5,9.200000000000001,-2.3000000000000003,1.0,0.9,-0.1
1698924859446.0,16,0.0,0.0,0.0,0.5,9.200000000000001,-2.4000000000000004,1.0999999999999999,0.6000000000000001,-0.30000000000000004
1698924859462.0,16,0.0,0.0,0.0,0.5,9.1,-2.4000000000000004,0.5,0.4,-0.30000000000000004
1698924859479.0,16,0.0,0.0,-0.1,0.5,9.1,-2.5,0.30000000000000004,0.4,-0.2
1698924859495.0,16,0.0,0.0,-0.1,0.5,9.1,-2.5,0.4,0.6000000000000001,0.0
1698924859512.0,16,0.0,0.0,0.0,0.5,9.200000000000001,-2.4000000000000004,1.0999999999999999,0.5,0.0
1698924859529.0,16,0.0,0.0,0.0,0.5,9.200000000000001,-2.3000000000000003,1.8,0.30000000000000004,0.0
1698924859546.0,16,0.0,0.0,0.1,0.5,9.200000000000001,-2.3000000000000003,2.4000000000000004,0.0,-0.1
1698924859562.0,16,0.0,0.0,-0.1,0.4,9.1,-2.5,1.8,-0.30000000000000004,0.0
1698924859579.0,16,0.0,0.0,-0.1,0.4,9.1,-2.5,1.4,-0.2,0.0
1698924859596.0,16,0.0,0.0,-0.1,0.5,9.1,-2.5,0.4,-0.6000000000000001,-0.1
1698924859612.0,16,0.0,-0.1,0.0,0.5,9.1,-2.4000000000000004,0.0,-0.9,-0.30000000000000004
1698924859629.0,16,0.0,0.1,0.0,0.4,9.200000000000001,-2.4000000000000004,-0.5,-1.2000000000000002,-0.1
1698924859646.0,16,0.0,0.0,0.0,0.5,9.1,-2.5,-0.7,-1.3,0.0
1698924859662.0,16,0.0,0.0,0.0,0.5,9.200000000000001,-2.4000000000000004,-0.7,-1.0,-0.1
1698924859679.0,16,0.0,0.0,0.0,0.5,9.200000000000001,-2.4000000000000004,-0.6000000000000001,-0.8,-0.1
1698924859696.0,16,0.0,0.0,0.0,0.4,9.200000000000001,-2.4000000000000004,-0.4,-0.7,0.1
1698924859712.0,16,0.0,0.0,0.1,0.4,9.200000000000001,-2.4000000000000004,-0.1,-0.7,0.1
1698924859729.0,16,0.0,0.0,0.1,0.5,9.1,-2.3000000000000003,0.0,-0.5,0.1
1698924859746.0,16,0.0,0.0,0.0,0.4,9.200000000000001,-2.4000000000000004,0.30000000000000004,-0.2,0.0
1698924859763.0,16,0.0,0.0,-0.2,0.4,9.200000000000001,-2.6,-0.4,0.0,0.1
1698924859780.0,16,0.0,-0.1,0.0,0.5,9.0,-2.4000000000000004,-0.7,0.4,0.1
1698924859795.0,16,0.0,0.0,0.0,0.5,9.200000000000001,-2.4000000000000004,0.30000000000000004,0.5,0.0
1698924859812.0,16,0.0,0.1,0.1,0.5,9.200000000000001,-2.3000000000000003,1.0,0.30000000000000004,0.0
1698924859829.0,16,0.0,0.0,0.1,0.4,9.1,-2.3000000000000003,1.0999999999999999,0.30000000000000004,0.0
1698924859846.0,16,0.0,0.0,0.0,0.5,9.200000000000001,-2.4000000000000004,1.0,0.6000000000000001,0.0
1698924859862.0,16,0.0,-0.1,0.0,0.5,9.0,-2.4000000000000004,1.0999999999999999,1.2000000000000002,-0.5
1698924859879.0,16,0.0,0.1,0.0,0.5,9.3,-2.5,1.3,1.5000000000000002,-0.6000000000000001
1698924859896.0,16,0.0,0.1,-0.1,0.5,9.200000000000001,-2.5,0.9,1.2000000000000002,-0.5
1698924859912.0,16,0.0,0.0,-0.1,0.5,9.200000000000001,-2.5,0.5,0.6000000000000001,-0.1
1698924859929.0,16,0.1,0.0,-0.1,0.5,9.1,-2.5,0.30000000000000004,0.30000000000000004,0.0
1698924859946.0,16,0.0,0.0,0.0,0.5,9.1,-2.4000000000000004,0.5,0.2,0.0
1698924859962.0,16,0.0,0.0,0.1,0.4,9.200000000000001,-2.4000000000000004,1.2000000000000002,0.6000000000000001,0.1
1698924859979.0,16,0.0,0.0,0.1,0.5,9.200000000000001,-2.4000000000000004,2.3000000000000003,0.9,0.5
1698924859996.0,16,0.0,0.0,0.1,0.5,9.1,-2.4000000000000004,2.6,1.0,0.5
1698924860012.0,16,0.0,-0.1,0.0,0.5,9.0,-2.4000000000000004,2.3000000000000003,1.5000000000000002,0.4
1698924860029.0,16,0.0,0.1,-0.1,0.5,9.200000000000001,-2.5,2.1999999999999997,1.0,0.5
1698924860046.0,16,0.0,0.0,-0.1,0.5,9.1,-2.5,1.9,0.7,0.30000000000000004
1698924860062.0,16,0.0,0.0,0.0,0.5,9.200000000000001,-2.5,1.3,0.0,0.1
1698924860079.0,16,0.0,0.0,0.0,0.5,9.200000000000001,-2.5,1.0,-0.2,0.2
1698924860096.0,16,0.0,0.0,0.0,0.5,9.200000000000001,-2.5,0.8,-0.1,0.2
1698924860112.0,16,0.0,0.0,0.0,0.5,9.200000000000001,-2.4000000000000004,0.7,-0.2,0.2
1698924860129.0,16,0.0,0.0,0.0,0.5,9.1,-2.5,0.30000000000000004,0.7,0.2
1698924860145.0,16,0.0,0.0,0.0,0.5,9.1,-2.5,0.30000000000000004,0.9,0.2
1698924860163.0,16,0.0,0.0,0.0,0.5,9.1,-2.5,0.1,1.0,0.2
1698924860179.0,16,0.0,0.0,-0.1,0.5,9.1,-2.5,-0.2,1.0999999999999999,0.2
1698924860196.0,16,0.0,0.0,0.0,0.5,9.1,-2.5,-0.30000000000000004,1.4,0.2
1698924860212.0,16,0.0,0.0,0.0,0.5,9.1,-2.5,-0.1,1.4,0.30000000000000004
1698924860229.0,16,0.0,0.0,-0.1,0.5,9.200000000000001,-2.5,0.0,1.4,0.30000000000000004
1698924860246.0,16,0.0,0.0,0.0,0.5,9.200000000000001,-2.5,-0.1,1.0999999999999999,0.2
1698924860262.0,16,0.0,0.0,0.0,0.5,9.1,-2.5,0.0,1.3,0.0
1698924860279.0,16,0.0,0.0,0.0,0.5,9.1,-2.5,0.0,0.6000000000000001,0.2
1698924860296.0,16,0.0,0.0,0.0,0.5,9.1,-2.5,-0.2,0.0,0.2
1698924860312.0,16,0.0,0.0,0.0,0.5,9.1,-2.5,-0.5,-0.1,0.2
1698924860329.0,16,0.0,0.0,0.0,0.5,9.200000000000001,-2.4000000000000004,-0.7,0.1,0.2
1698924860345.0,16,0.0,0.0,0.1,0.5,9.200000000000001,-2.4000000000000004,-0.5,0.4,0.30000000000000004
1698924860362.0,16,0.0,0.0,0.0,0.5,9.200000000000001,-2.4000000000000004,-0.2,0.7,0.4
1698924860379.0,16,0.0,0.0,0.0,0.5,9.1,-2.5,-0.30000000000000004,0.9,0.5
1698924860395.0,16,0.0,0.0,0.0,0.5,9.1,-2.5,-0.4,0.8,0.5
1698924860413.0,16,0.0,0.0,0.0,0.5,9.200000000000001,-2.5,-0.7,0.8,0.1
1698924860429.0,16,0.0,0.0,-0.1,0.5,9.1,-2.5,-0.8,0.1,0.6000000000000001
1698924860446.0,16,0.0,0.0,0.0,0.5,9.1,-2.5,-1.0999999999999999,0.1,0.5
1698924860463.0,16,0.0,0.0,0.0,0.5,9.1,-2.5,-1.3,0.0,0.5
1698924860479.0,16,0.0,0.0,0.0,0.5,9.200000000000001,-2.4000000000000004,-1.4,0.1,0.4
1698924860496.0,16,0.0,0.0,0.1,0.5,9.1,-2.4000000000000004,-1.2000000000000002,0.5,0.4
1698924860513.0,16,0.0,0.0,0.1,0.5,9.1,-2.4000000000000004,-0.8,0.6000000000000001,0.30000000000000004
1698924860529.0,16,0.0,0.0,0.0,0.5,9.200000000000001,-2.4000000000000004,-0.5,0.9,0.2
1698924860545.0,16,0.0,0.0,0.1,0.5,9.1,-2.4000000000000004,-0.2,0.9,0.2
1698924860563.0,16,0.0,0.0,0.1,0.5,9.1,-2.4000000000000004,0.6000000000000001,1.5000000000000002,0.1
1698924860579.0,16,0.0,0.0,0.0,0.5,9.1,-2.4000000000000004,0.9,1.0,-0.1
1698924860596.0,16,0.0,0.0,0.0,0.5,9.200000000000001,-2.4000000000000004,0.8,1.2000000000000002,-0.1
1698924860613.0,16,0.0,0.0,0.0,0.5,9.1,-2.5,0.6000000000000001,1.4,-0.4
1698924860629.0,16,0.0,0.0,0.0,0.5,9.1,-2.5,-0.1,0.0,-0.8
1698924860645.0,16,0.0,0.0,0.0,0.5,9.200000000000001,-2.4000000000000004,-1.4,-2.0,-1.2000000000000002
1698924860664.0,16,0.0,0.0,0.1,0.5,9.200000000000001,-2.4000000000000004,-2.1999999999999997,-2.5,-1.4
1698924860679.0,16,0.0,0.0,0.1,0.5,9.200000000000001,-2.3000000000000003,-2.8,-2.3000000000000003,-1.2000000000000002
1698924860695.0,16,0.0,0.0,0.0,0.5,9.200000000000001,-2.4000000000000004,-2.0,-1.2000000000000002,-0.9
1698924860712.0,16,0.1,0.0,0.0,0.6000000000000001,9.200000000000001,-2.4000000000000004,-1.8,-1.0999999999999999,-0.6000000000000001
1698924860729.0,16,0.0,0.0,-0.1,0.5,9.200000000000001,-2.5,-1.6,-1.3,-0.5
1698924860745.0,16,-0.1,0.0,-0.1,0.4,9.1,-2.5,-1.4,-0.6000000000000001,-0.1
1698924860762.0,16,-0.1,0.0,-0.1,0.4,9.1,-2.6,-1.0,-0.7,0.1
1698924860779.0,16,0.0,0.0,-0.1,0.5,9.1,-2.5,-0.7,-0.9,0.30000000000000004
1698924860796.0,16,0.0,0.0,0.0,0.5,9.200000000000001,-2.4000000000000004,-0.1,-1.4,0.30000000000000004
1698924860812.0,16,0.0,0.0,0.1,0.4,9.200000000000001,-2.3000000000000003,0.30000000000000004,-1.4,0.30000000000000004
1698924860829.0,16,0.0,0.0,0.1,0.5,9.200000000000001,-2.3000000000000003,1.0999999999999999,-1.6,0.1
1698924860846.0,16,0.0,0.0,0.1,0.4,9.200000000000001,-2.3000000000000003,1.9,-0.7,0.0
1698924860862.0,16,-0.1,0.1,0.1,0.4,9.200000000000001,-2.3000000000000003,1.8,-0.5,0.0
1698924860879.0,16,0.0,0.0,0.0,0.4,9.200000000000001,-2.5,0.6000000000000001,-0.1,0.0
1698924860896.0,16,0.0,0.0,-0.1,0.5,9.1,-2.6,-0.30000000000000004,0.9,0.0
1698924860912.0,16,0.0,0.0,-0.1,0.5,9.1,-2.6,-0.5,1.0999999999999999,0.0
1698924860929.0,16,0.0,0.0,0.0,0.5,9.1,-2.4000000000000004,0.1,-0.1,-0.1
1698924860945.0,16,0.0,0.0,0.1,0.5,9.200000000000001,-2.3000000000000003,1.8,-0.5,0.0
1698924860962.0,16,-0.1,0.1,0.2,0.4,9.200000000000001,-2.3000000000000003,2.0,-0.2,0.0
1698924860979.0,16,0.0,0.0,0.0,0.5,9.1,-2.4000000000000004,0.9,0.8,-0.1
1698924860996.0,16,0.1,-0.1,0.0,0.5,9.1,-2.4000000000000004,0.1,0.1,-0.8
1698924861014.0,16,0.0,-0.1,-0.1,0.5,9.1,-2.5,0.30000000000000004,0.0,-0.8
1698924861029.0,16,0.0,0.0,0.0,0.5,9.200000000000001,-2.4000000000000004,1.0,-0.6000000000000001,-1.0999999999999999
1698924861046.0,16,0.0,0.0,0.0,0.5,9.1,-2.4000000000000004,2.0,-0.8,-0.6000000000000001
1698924861062.0,16,0.1,0.0,0.0,0.5,9.1,-2.4000000000000004,2.8,-1.3,-0.5
1698924861079.0,16,0.1,0.0,0.0,0.5,9.1,-2.4000000000000004,2.8,-1.2000000000000002,-0.5
1698924861097.0,16,0.0,0.0,0.0,0.5,9.1,-2.5,2.0,-0.8,-0.30000000000000004
1698924861113.0,16,0.0,0.0,0.0,0.5,9.1,-2.5,1.8,-0.7,-0.30000000000000004
1698924861130.0,16,0.0,0.0,0.0,0.4,9.200000000000001,-2.5,1.5000000000000002,-0.8,-0.1
1698924861146.0,16,0.0,0.0,0.0,0.5,9.1,-2.5,1.2000000000000002,-0.4,0.2
1698924861162.0,16,0.0,0.0,0.0,0.5,9.1,-2.5,1.2000000000000002,-0.5,0.2
1698924861179.0,16,0.0,0.0,0.0,0.5,9.200000000000001,-2.4000000000000004,2.1,-0.2,0.2
1698924861196.0,16,0.0,0.0,0.0,0.4,9.200000000000001,-2.5,0.5,0.4,0.30000000000000004
1698924861213.0,16,0.0,0.0,0.0,0.4,9.1,-2.5,0.4,0.1,0.2
1698924861230.0,16,0.0,0.0,-0.1,0.5,9.1,-2.5,-0.30000000000000004,-0.4,0.1
1698924861246.0,16,0.0,0.0,-0.1,0.5,9.1,-2.6,-0.4,-2.1,-0.2
1698924861262.0,16,0.0,0.0,-0.1,0.5,9.1,-2.6,-0.2,-3.5,-0.1
1698924861280.0,16,-0.1,0.0,0.0,0.4,9.1,-2.5,-0.5,-4.3999999999999995,-0.30000000000000004
1698924861296.0,16,0.0,0.1,-0.1,0.4,9.200000000000001,-2.6,-0.8,-4.300000000000001,0.0
1698924861312.0,16,0.1,0.0,0.0,0.5,9.1,-2.5,-1.0,-3.0000000000000004,0.2
1698924861329.0,16,0.1,0.0,-0.1,0.5,9.200000000000001,-2.6,-1.4,-3.0000000000000004,0.0
1698924861346.0,16,0.0,0.0,-0.1,0.4,9.1,-2.6,-2.7,-3.5,-0.1
1698924861362.0,16,0.0,0.0,0.0,0.4,9.1,-2.5,-4.3999999999999995,-3.7000000000000006,0.0
1698924861379.0,16,0.0,-0.1,0.1,0.5,9.1,-2.4000000000000004,-4.5,-2.9,-0.1
1698924861396.0,16,0.0,0.1,0.0,0.5,9.200000000000001,-2.5,-5.0,-1.8,-0.30000000000000004
1698924861412.0,16,0.0,0.0,0.1,0.4,9.200000000000001,-2.3000000000000003,-4.800000000000001,-0.1,0.0
1698924861429.0,16,-0.1,0.0,0.0,0.4,9.200000000000001,-2.5,-4.3999999999999995,1.5000000000000002,0.2
1698924861448.0,16,0.0,0.0,-0.1,0.4,9.1,-2.5,-4.3999999999999995,0.2,0.1
1698924861462.0,16,0.0,0.0,-0.1,0.4,9.1,-2.5,-5.0,-0.8,0.2
1698924861479.0,16,0.0,0.0,-0.1,0.5,9.1,-2.5,-7.2,-3.8,0.2
1698924861495.0,16,0.0,0.0,0.1,0.4,9.200000000000001,-2.3000000000000003,-8.9,-6.3,0.7
1698924861512.0,16,-0.1,0.0,0.1,0.4,9.200000000000001,-2.2,-8.799999999999999,-7.300000000000001,1.0
1698924861529.0,16,0.0,0.1,0.1,0.4,9.3,-2.2,-9.5,-6.5,1.0999999999999999
1698924861547.0,16,0.0,-0.1,0.0,0.5,9.1,-2.3000000000000003,-10.8,-6.6000000000000005,0.9
1698924861562.0,16,0.0,0.0,0.0,0.4,9.200000000000001,-2.2,-11.9,-6.2,1.4
1698924861580.0,16,-0.1,0.0,0.2,0.4,9.200000000000001,-2.0,-12.5,-5.500000000000001,1.6
1698924861596.0,16,-0.1,0.1,0.2,0.4,9.3,-1.9000000000000001,-11.000000000000002,-2.7,1.7
1698924861612.0,16,0.0,0.0,0.2,0.4,9.3,-1.9000000000000001,-7.699999999999999,-1.9,0.7
1698924861629.0,16,0.0,0.0,0.2,0.4,9.200000000000001,-1.9000000000000001,-5.8,-1.9,0.1
1698924861649.0,16,0.0,-0.1,-0.1,0.5,9.1,-2.3000000000000003,-3.3000000000000003,-3.1,-0.8
1698924861662.0,16,0.0,0.0,-0.1,0.4,9.200000000000001,-2.3000000000000003,-2.5,-4.6000000000000005,-0.4
1698924861680.0,16,0.0,0.0,-0.2,0.5,9.200000000000001,-2.3000000000000003,-3.1,-3.7000000000000006,-0.30000000000000004
1698924861696.0,16,0.0,-0.1,-0.1,0.4,9.1,-2.2,-3.5,-4.5,0.0
1698924861712.0,16,0.0,0.0,-0.1,0.4,9.200000000000001,-2.2,-4.1000000000000005,-3.8,0.30000000000000004
1698924861729.0,16,0.0,0.0,-0.1,0.4,9.200000000000001,-2.2,-4.9,-3.2,0.1
1698924861746.0,16,0.0,-0.1,-0.1,0.5,9.1,-2.2,-6.7,-2.4000000000000004,0.30000000000000004
1698924861764.0,16,0.1,0.0,-0.1,0.5,9.200000000000001,-2.2,-8.0,-2.5,0.30000000000000004
1698924861779.0,16,0.0,-0.1,0.0,0.4,9.1,-2.0,-10.3,-1.6,0.7
1698924861795.0,16,0.1,-0.2,0.0,0.5,9.1,-2.0,-12.9,-0.30000000000000004,1.3
1698924861813.0,16,0.0,-0.1,0.1,0.5,9.1,-1.9000000000000001,-15.100000000000001,0.2,1.2000000000000002
1698924861829.0,16,-0.1,-0.1,0.1,0.4,9.1,-1.8,-15.100000000000001,0.8,1.0999999999999999
1698924861846.0,16,0.1,0.2,0.0,0.5,9.4,-1.9000000000000001,-15.2,1.6,0.9
1698924861864.0,16,0.2,0.2,0.2,0.6000000000000001,9.4,-1.7000000000000002,-15.2,1.9,0.6000000000000001
1698924861879.0,16,0.1,0.4,0.0,0.5,9.600000000000001,-1.8,-14.4,1.2000000000000002,-0.9
1698924861897.0,16,-0.2,0.2,0.0,0.30000000000000004,9.5,-1.8,-13.5,-1.5000000000000002,-1.4
1698924861913.0,16,-0.1,0.0,0.1,0.30000000000000004,9.3,-1.7000000000000002,-13.5,-0.8,-1.4
1698924861929.0,16,0.1,0.2,0.1,0.5,9.5,-1.6,-13.9,-0.2,-2.1999999999999997
1698924861946.0,16,0.0,0.30000000000000004,-0.1,0.5,9.600000000000001,-1.7000000000000002,-13.3,1.4,-1.9
1698924861965.0,16,-0.2,0.0,0.1,0.2,9.3,-1.5,-12.9,-2.1,-1.2000000000000002
1698924861980.0,16,0.0,0.1,0.1,0.4,9.4,-1.5,-12.3,-0.30000000000000004,-0.1
1698924861996.0,16,0.0,0.1,0.1,0.4,9.4,-1.5,-12.700000000000001,0.4,-0.1
