ts,interval,accx,accy,accz,accGx,accGy,accGz,alpha,beta,gamma
1698924847003.0,0.01666666753590107,-0.13517481517586857,0.49769934628009793,-0.5770727427244186,0.37065252717603,-1.376965814319253,-10.18957262802124,-27.773412099367967,5.797578973175421,-2.2200804189527132
1698924847174.0,0.01666666753590107,0.03945975759848952,0.33640053082108495,-0.039276363855600356,0.24690206446992233,-6.197092306628823,-7.349599961742759,-1.771620550055137,2.3574713816548125,-2.934540617694261
1698924847191.0,0.01666666753590107,0.04003629711112007,0.3548375202655792,-0.1383142457127571,0.2611176550934091,-6.174497028461098,-7.451952082714438,-0.739473632142604,2.0467605267822315,-4.517540051012501
1698924847207.0,0.01666666753590107,0.07546155676282942,0.3075421006053686,-0.09971008203029633,0.30810384440766647,-6.222231424060464,-7.4125979774475095,1.6730038242192597,1.894261825966299,-4.047968814442355
1698924847224.0,0.01666666753590107,0.10621760076079517,0.20534896958768367,-0.09744798231720923,0.3470096213852055,-6.329971083289385,-7.405115512737631,4.07440506162489,1.1934992514400944,-2.3489233999085415
1698924847241.0,0.01666666753590107,0.10567160251690075,0.03902735753059387,-0.05134907896518707,0.35045128627168015,-6.506991784015297,-7.349300686535239,3.5521882210361673,-0.05808769064191723,0.1024468611346675
1698924847257.0,0.01666666753590107,0.0928581885752268,-0.2697568520903587,0.2574538353562355,0.3338415305206552,-6.4833490426212546,-7.325657945141196,0.9018127145618208,-1.1778080657607537,0.6318352936301979
1698924847274.0,0.01666666753590107,0.08648330151475965,-0.1998877815723419,0.22592940080165863,0.33728317714082073,-6.4390568964302535,-7.335833886718749,-0.3899587650478883,-1.8948255300162367,-0.08480480267364192
1698924847291.0,0.01666666753590107,0.07663147732503711,-0.09088146340847014,0.2638847451865673,0.3522469557831064,-6.3613943955570456,-7.271040804290771,0.23600043146198293,-1.068422799646411,-0.2741206510347497
1698924847307.0,0.01666666753590107,-0.024726518042758105,-0.17024200037121773,0.1862023705691099,0.2819172820160165,-6.50564504558146,-7.293037532043456,0.934810959267739,-1.565100175546281,0.967896288885575
1698924847324.0,0.01666666753590107,-0.057520461076498025,-0.16989596341252325,0.10180968465805053,0.25049338522646575,-6.538116405597329,-7.349450908660888,1.200437549698064,-2.2228927493434663,2.1090497175786322
1698924847341.0,0.01666666753590107,-0.09065854137279093,-0.010288754302263258,0.06249941853284836,0.21248541560517623,-6.422895450702309,-7.350797062572837,2.537354658730853,-2.1750752352944414,2.497347039110915
1698924847357.0,0.01666666753590107,-0.13212956572845577,0.1368108554124832,0.1923416039764881,0.17387893210146574,-6.289867620959877,-7.208641339001059,3.125260630218762,0.28967686043670327,2.0851918668077776
1698924847374.0,0.01666666753590107,-0.14749927655681966,0.14844634814858435,0.2525660633146763,0.16310502463076262,-6.2856777680546045,-7.141753330120443,1.7409072170699993,2.3528635652859924,2.02617390973699
1698924847391.0,0.01666666753590107,-0.21094320939816533,0.08103285408914089,0.18835282660126684,0.09920976782534272,-6.367379899707436,-7.193528525543212,-1.231596445804839,2.3924908287465256,2.957493895286912
1698924847406.0,0.01666666753590107,-0.2064504462898709,0.13503390886783598,0.006576455780863762,0.09202712631225586,-6.316801805114745,-7.372793790325522,-2.511595240606385,0.38629575594035165,2.5714923710893998
1698924847424.0,0.01666666753590107,-0.17754315369743853,0.18292787894308565,-0.07047346615195274,0.11133039546357468,-6.264877556610107,-7.453748318481445,-1.826588738556636,-1.334645644246937,1.3864200789812202
1698924847441.0,0.01666666753590107,-0.09449063034895806,0.24449615410566328,-0.17452888391017912,0.17537528987275436,-6.200085058704018,-7.561337171062827,-0.1835087601637821,-3.944247696140658,-0.04868155965945764
1698924847457.0,0.01666666753590107,-0.07722717819586396,0.03173486243486404,-0.2083107420027256,0.17103579936372115,-6.417957994300127,-7.591414913940429,0.5464564349011575,-4.918963928912491,0.2344300215614089
1698924847474.0,0.01666666753590107,-0.10512257206570357,-0.060389294511079786,-0.214964354673028,0.12494741740571334,-6.513575254058837,-7.595604766845702,0.34482679600314814,-4.433200021367537,1.5652557757933103
1698924847491.0,0.01666666753590107,-0.21048655167184768,-0.21554186230003833,-0.31526947998702526,-0.010324976393114775,-6.666355832019448,-7.698854713439941,-0.6796496060280489,-3.7803065074742497,3.4408414099695617
1698924847507.0,0.01666666753590107,-0.46536823498513546,-0.25850948188900946,-0.8049503549844026,-0.28490996102597566,-6.6976295066833496,-8.199242275890708,-0.3723587015780877,-2.4168963753114503,5.638631079679115
1698924847523.0,0.01666666753590107,-0.6182218416493386,-0.27264380570352076,-1.3195692718833685,-0.4504091690505855,-6.712294576373696,-8.713696357616781,4.010637134873182,0.3052558282424148,8.006462150757544
1698924847541.0,0.01666666753590107,-0.8228657317075878,-0.09673194300234317,-2.7796383168250323,-0.6848913032752927,-6.565050589752197,-10.149319528087974,21.375119696237217,-8.508720111374432,10.5236703127578
1698924847557.0,0.01666666753590107,-1.232129181100428,0.0045317982107400895,-4.1371231856048105,-1.1317091698356438,-6.526145397296547,-11.452214728546142,44.74035502603564,-12.787986451870099,9.026889851436511
1698924847574.0,0.01666666753590107,-1.6034106172971427,0.27395196569263935,-4.584138054308295,-1.542464437821973,-6.369474826160073,-11.79742809589803,74.92988678014038,-14.68381900790209,5.410377683561514
1698924847591.0,0.01666666753590107,-2.3411903470672666,0.8368629120737314,-4.874262571644783,-2.310254898231651,-6.045059916687011,-11.860575749206543,116.95405315818036,-8.47259182575965,-6.381446595316559
1698924847607.0,0.01666666753590107,-2.761174439373612,1.4505220489174127,-4.28235115622878,-2.7163714438839115,-5.664981572180986,-11.030535961151122,142.9709130652976,1.712203347083021,-15.629279406024642
1698924847624.0,0.01666666753590107,-2.875570926143229,1.8045283790558575,-3.7871681766837835,-2.7769747784378938,-5.575946613422036,-10.243890493664145,161.14854629593773,10.613620489032282,-25.720047206545157
1698924847640.0,0.01666666753590107,-2.510814653931558,1.6233470515191555,-3.571948970466852,-2.3319524900574238,-6.118382342529297,-9.58892611748576,172.66223716096326,2.4278225435493552,-20.107153133432295
1698924847657.0,0.01666666753590107,-1.7560617236591876,1.2365771004199981,-3.0293636037558316,-1.548300322634913,-6.772149033355713,-8.685114990776777,177.77664183033377,-7.279361192853007,-11.926733748477341
1698924847674.0,0.01666666753590107,-1.476017724701762,1.3754331979244947,-2.9667402665823697,-1.263988784159813,-6.884826733508706,-8.248174356842041,173.0666799824764,-25.38546185231562,-13.832649371271563
1698924847691.0,0.01666666753590107,-0.5527767250534147,2.1699948453634974,-2.4396517442107197,-0.3657142853225581,-6.374562504687905,-7.248595163726806,150.36451087956635,-56.193783132014126,-17.276739816851936
1698924847707.0,0.01666666753590107,-0.09289277583141811,1.6581009695142506,-1.3187638007193803,0.0550666564499028,-7.0584063538700335,-5.809978364397585,134.94008592222332,-76.2971608783827,-19.75244091926602
1698924847725.0,0.01666666753590107,-0.0014197671374306083,1.6431623435795306,-0.960940542641282,0.10130467601167037,-7.219865328326821,-5.156960153850913,125.0454504188143,-86.59208644828948,-22.518455797256916
1698924847741.0,0.01666666753590107,-0.06332699193079024,2.11398420432806,-0.05949848315119743,0.003292045549023896,-6.918644831958413,-3.877558641704917,119.83251344047717,-84.958448632795,-34.20388664632053
1698924847757.0,0.01666666753590107,0.4891019060656428,2.608784906557202,0.6526981848120689,0.5761047470756341,-6.535722788459062,-2.8886037184566256,113.63167839115691,-75.59794075267016,-47.89504864893527
1698924847774.0,0.01666666753590107,0.6116043962709605,2.694922974830866,0.8531167122602462,0.7636007193855475,-6.544700460162758,-2.429664603203535,103.70750914977675,-64.92316104226228,-57.20906343137984
1698924847791.0,0.01666666753590107,0.6681279552645981,2.336955339846015,1.0958975868806242,0.9442132797241211,-7.004837845289707,-1.8748092452451586,92.36840475012593,-53.40552915808567,-57.005636492234764
1698924847807.0,0.01666666753590107,0.29172771474942566,1.3242618136137723,1.1046814895778894,0.6639420844146982,-8.080431187549234,-1.649155446514487,89.33635400396305,-45.31961312426066,-50.87660380656426
1698924847824.0,0.01666666753590107,0.10824691463131457,1.020859297031164,0.7478983882024883,0.5633855781555176,-8.441655778503417,-1.7866724043697118,93.55815540165045,-35.56117842309087,-38.11555988964892
1698924847841.0,0.01666666753590107,-0.11506634885519743,0.492027730384469,0.4770364974796772,0.4103063825745135,-9.048287208667396,-1.7313069293700158,107.56950301217707,-16.04882719088726,-19.18270922738587
1698924847857.0,0.01666666753590107,-0.6347907721996306,0.5688122793793678,-0.024912030677497386,-0.0695814492156729,-9.030779024505614,-1.9481315249569713,121.69230564957994,-10.486387725173284,-20.460282451258415
1698924847874.0,0.01666666753590107,-0.6747641053434461,1.051774075254798,-0.6944539443932474,-0.04878185882568359,-8.601469323840737,-2.3048669877983627,126.88547606045906,-11.146359022593998,-32.30621762317545
1698924847891.0,0.01666666753590107,-0.6336147872228175,1.4342559737712144,-0.9751056999854743,0.11776472109369933,-8.269721587261557,-2.174532634923607,116.83136930030858,-7.853904753003432,-42.19012631449295
1698924847907.0,0.01666666753590107,-0.25707674567215144,0.9972451972097158,-0.4766835193235427,0.5916673044618219,-8.730009194514155,-1.3880375356927512,112.59972560002718,1.3533208755416326,-33.57512333699125
1698924847924.0,0.01666666753590107,-0.16283924983404577,0.8571066586792468,-0.6381786610722542,0.7577648985046893,-8.886978456336259,-1.2511193474482745,122.9527487590141,6.234413539940518,-23.545412305008767
1698924847941.0,0.01666666753590107,0.6004819676235318,1.2824708365887403,-1.2203308990180493,1.597531130804494,-8.47203279658854,-1.3814534445947035,141.61790723223143,1.17217678823349,-21.283970821763397
1698924847957.0,0.01666666753590107,1.0157872544638813,1.1222294212281703,-1.0378782363712786,2.0618566152710467,-8.626309750586747,-0.8325827505365013,145.3004720251355,-4.367221674645684,-16.475591070607997
1698924847974.0,0.01666666753590107,1.0749242838915436,1.0304390262812375,-0.722581210790202,2.1517890343263746,-8.700081673762202,-0.15008443421181292,143.90774181185654,-1.061162095115276,-8.489835492092993
1698924847991.0,0.01666666753590107,1.3868077016368507,1.479949218931794,-0.03126724492311477,2.4821884981017557,-8.206276412311196,1.0399829535655676,152.54510341360628,20.349800726338874,-3.958603046228732
1698924848007.0,0.01666666753590107,1.8304855348721145,0.8380828092575072,0.5904043718539178,2.9188311720032245,-8.795100383105874,2.069488206128031,163.83042007354325,31.725364675779222,2.810166714889737
1698924848024.0,0.01666666753590107,2.568607209947705,0.20037410378456114,0.22825696696639058,3.612251681695506,-9.335741045489907,2.263868914716691,157.8868714200682,17.874388199417222,12.683851680236792
1698924848041.0,0.01666666753590107,2.9386329469949004,0.15792027893662453,-0.4028177073195576,3.945045566326752,-9.296984321594238,1.9976628869757056,133.7504035725905,-19.099884645963005,18.01988147402225
1698924848057.0,0.01666666753590107,2.9249361378148198,0.08492518535256385,-0.25747341683954,3.897311609118804,-9.298781726405023,2.420389994379878,98.7894041171524,-50.12425163929819,29.83353887946909
1698924848074.0,0.01666666753590107,2.0851647909484803,0.4184329173415899,1.1231211093708873,2.993649900817871,-8.899097933197021,4.043509374623,67.9181921631237,-55.18408309720031,40.61220576715285
1698924848091.0,0.01666666753590107,1.8935937329530714,0.6732464673221111,1.280192078001797,2.740163800048828,-8.598923731011151,4.359243257251381,75.51172327477708,-41.01598606031649,41.579322987586224
1698924848107.0,0.01666666753590107,1.7639666515648365,0.7247025137931108,1.342388421934843,2.525433765588328,-8.48475257743001,4.62514957139343,100.21013810602841,-13.710940522903813,50.019541424227306
1698924848124.0,0.01666666753590107,1.8671036393038927,0.5860486608624458,0.6267077112480998,2.4401404410431162,-8.488043435668946,4.301334089118242,147.56383279153764,9.155985549391628,68.03076734102385
1698924848141.0,0.01666666753590107,1.4951219458833336,0.5816115551978349,0.5822127359613776,1.860144942739792,-8.317307514300943,4.686650334277749,223.1979872071872,92.0180570268393,67.08781874496857
1698924848157.0,0.01666666753590107,0.8968550239607691,1.0409060597598552,6.81299776109457,0.9358335693469969,-7.555202613830566,11.532720928412676,298.6149416072304,204.79521728112508,61.14802669553703
1698924848174.0,0.01666666753590107,1.1286409687709062,0.8958563683122396,1.942168671029806,0.6554125218046829,-7.152979073011875,7.524529243147373,286.172823128325,157.8753693815059,54.74384325424714
1698924848191.0,0.01666666753590107,1.0048710159130394,0.7178449029833078,0.27151158680319787,0.23044183672480284,-6.931663888007402,6.35885114081502,225.97148114231925,100.94684230990599,48.89932892864268
1698924848207.0,0.01666666753590107,-0.3852104466974735,1.4198556924968957,1.869592095118761,-1.3825018942017107,-5.899164422065019,8.320001575690508,166.4155783725014,72.18617246978957,34.89674103572662
1698924848224.0,0.01666666753590107,-0.4410639974750578,1.4834177718251942,1.8208377088218926,-1.6282068395752458,-5.5355438758850095,8.565856743189691,88.816774683611,40.29014185721924,12.05365403118181
1698924848241.0,0.01666666753590107,-0.3244631325289607,1.1003957750827074,0.7917384067118167,-1.5412674648560583,-5.812074752154946,7.640647439143061,29.900584016361936,-14.021813167882359,-4.443125140005212
1698924848257.0,0.01666666753590107,-0.4230654725130647,0.916441475701332,-0.20871113949716089,-1.556380716705322,-5.998822481647133,6.651691346850991,-28.52234575695445,-52.77584035812386,-12.696206638671699
1698924848274.0,0.01666666753590107,-0.6145372348524629,0.49930619695484635,1.1096446649432181,-1.595585841955617,-6.541558070483803,7.8649542071789496,-64.79452808962343,-50.680775452870826,-5.987836026940242
1698924848291.0,0.01666666753590107,-0.65252114774473,0.304335413518548,1.1175783805519341,-1.559822454657033,-6.846968419757485,7.766343026301264,-53.43808525476454,-28.266490285740357,6.667482964925646
1698924848308.0,0.01666666753590107,-0.7124217819560319,-0.8980150076508522,1.0186801994264125,-1.6285060417175292,-8.097787980541586,7.613711501422524,9.320833018783533,8.940956680167641,12.137625230611594
1698924848324.0,0.01666666753590107,-0.2247957205966115,-0.7114841357797383,-0.4705085570156574,-1.18991815203242,-7.859266224670409,6.173899062567949,47.00681328322638,23.40757225736874,8.901936663213005
1698924848378.0,0.01666666753590107,0.2704108590196818,-0.933704160669446,0.5245224712759256,-0.8738836059570312,-7.5999442573547356,7.625382649993896,61.91358161846873,10.882075951717756,-1.4723247555546457
1698924851925.0,0.01666666753590107,0.008956921176612377,-0.05054945302009582,0.122581254529953,-1.4285903492249548,-5.436334729114175,8.19086432364583,-0.11807438731650957,6.011423231465234,1.0731066018697475
1698924851940.0,0.01666666753590107,0.07036810608133673,-0.09044599460065364,-0.069991820114851,-1.3784617519654332,-5.474791593280434,7.9972338489025825,1.023701068838695,3.6391145444990385,1.7477724109595085
1698924851956.0,0.01666666753590107,0.04251271542832255,-0.11753156992495059,0.014379823008179663,-1.4178162956237792,-5.500528676605224,8.080431187549234,-0.48238419120541326,4.939943708721831,1.9376559387540941
1698924851974.0,0.01666666753590107,-0.017429127576202155,0.05810147583484649,0.1265466510295868,-1.4923358222961425,-5.329792170715332,8.186674470740556,-2.4418438546983334,4.682103213780203,1.4904512238382135
1698924851991.0,0.01666666753590107,0.01403860835507512,0.055819502377510065,0.09011106355786323,-1.470339094543457,-5.335627452740073,8.14612151107788,-1.4004639084101185,3.7896971638093713,0.055593657738657654
1698924852006.0,0.01666666753590107,0.039984950516372915,-0.038377953711152074,-0.039347675526142115,-1.4480433838441966,-5.430798137775064,8.015340583479404,0.30198969047825286,1.2554410630841766,-0.037744345725004486
1698924852024.0,0.01666666753590107,0.05428703211322426,-0.08840133703052996,0.02477145316302776,-1.4335282440185546,-5.478532533374429,8.081030322486162,2.0996411319969397,0.027982377895043098,-1.0485905983393387
1698924852041.0,0.01666666753590107,0.0754648446984589,-0.011734276935458183,0.059797173836827276,-1.4092869522094726,-5.398026918029784,8.119188495966792,2.376234551635072,-0.3307979342934857,-1.7710828861014098
1698924852057.0,0.01666666753590107,0.01786123538315296,0.00127834937274456,0.11717618061602116,-1.4640543151855467,-5.380968231201171,8.179791725489496,1.1208579484611876,0.1254540331887381,-1.8513816849135476
1698924852074.0,0.01666666753590107,-0.027703122700750826,0.0675865125387907,0.13452069864869118,-1.507299874933064,-5.315278492194413,8.197151441091298,-0.8380226964170155,0.9083481383804651,-1.9070831582554708
1698924852091.0,0.01666666753590107,0.005426847354322671,0.04443886118531227,0.07566051340103148,-1.472882933807373,-5.341164628601074,8.136694926562905,-0.8816664312746334,0.5619673142585805,-2.210819109324999
1698924852108.0,0.01666666753590107,0.08397402210757136,0.016531448084115982,0.11580664582848549,-1.390432906396687,-5.374235708075761,8.174106665590404,-1.8524824125869774,-0.4138540484570457,-1.9016706602250588
1698924852124.0,0.01666666753590107,0.04210910306349396,0.028543957439064977,0.15271160437762737,-1.4273935406558216,-5.367502600428462,8.208374261373281,-2.5152173753006073,-1.1767935692255953,-1.6600021322473175
1698924852141.0,0.01666666753590107,0.03751622231528163,-0.0009206219762563705,0.15462591356635091,-1.4258967262268065,-5.402815905871987,8.207473513141274,-2.5703705125182252,-2.0832123926089436,-2.1420075147580593
1698924852158.0,0.01666666753590107,0.08897986757084726,-0.009148352095484733,0.07033668802976607,-1.362749511309713,-5.416581980895995,8.121582113105058,-0.9322596701693278,-3.086898018971739,-2.78755131821759
1698924852174.0,0.01666666753590107,0.05881532319262624,-0.03514613218307495,0.07834229983091354,-1.3820532005861401,-5.443368865534663,8.131010451185702,0.4323791489921334,-2.979617945225641,-3.304369748041064
1698924852191.0,0.01666666753590107,0.02157470294833183,-0.013405425018072127,0.10375964968204497,-1.4083892727173863,-5.421370968738198,8.15854260123372,0.5621574389774301,-2.828327120675743,-3.7480338636459396
1698924852207.0,0.01666666753590107,-0.052978579863160846,-0.04301087420880794,0.14482698860764504,-1.467645909936726,-5.452645812445879,8.201190487349033,-1.3251492267013862,-2.4574809324728433,-3.437177440366673
1698924852224.0,0.01666666753590107,-0.062057519984245295,-0.15828443607389925,0.17969021219611167,-1.4679448928833008,-5.5726540016174315,8.234408281818032,-2.6511225584148166,-1.9742047078896556,-1.7986432330109403
1698924852241.0,0.01666666753590107,-0.08521437755748629,-0.15917875456511973,0.11380056670308113,-1.4851530711852012,-5.57968638447225,8.165426515528559,-2.167288819640627,-1.1516608209574757,-1.612062955453702
1698924852257.0,0.01666666753590107,-0.09404913365915417,-0.1567278542816639,-0.04399345550537109,-1.4891938710086048,-5.580137050849199,8.006513133901358,-0.4945941148421631,-1.2917630485949523,-1.3441923277159107
1698924852274.0,0.01666666753590107,0.012592501199990511,-0.13478724063038824,-0.049178164666891094,-1.3769655220583081,-5.559487061530351,8.001424286329746,-1.0404292693331139,-2.0394278918213997,0.06221048353838684
1698924852290.0,0.01666666753590107,0.01102481349185109,-0.11831482925713062,0.022000234884023664,-1.3748705956056713,-5.546318952399492,8.071006356599927,-2.4539668001448716,-2.492791516377928,1.3353261018429994
1698924852307.0,0.01666666753590107,-0.05408858693167567,-0.06406827528476715,0.10017068527936934,-1.4383165012083947,-5.4976849776118994,8.145672598266602,-1.8705378042144944,-1.2842705445188598,0.8318637867763681
1698924852324.0,0.01666666753590107,-0.09199293178170918,0.013666706302762031,0.018161095112562177,-1.4748280765257775,-5.423614363750815,8.061427796393632,-1.6424799222618844,-1.806395924605728,0.30140728344937706
1698924852340.0,0.01666666753590107,-0.10726225097551942,0.005292261189222335,0.011621464210748672,-1.486649739483744,-5.435586541095375,8.053048675104975,-1.455299121666214,-2.0843122665087273,0.30248501259521104
1698924852357.0,0.01666666753590107,-0.05861965449005365,-0.04499298793673515,-0.05764496423900127,-1.433827519226074,-5.4896051315307615,7.981969644275307,-0.7036268783876729,-1.312788612016073,0.5403557953118667
1698924852373.0,0.01666666753590107,0.0029592881970107554,-0.11042553731203078,-0.07948211751580238,-1.3718776974000035,-5.555147571021318,7.96012430769205,1.0739556797609446,0.3643329624990583,0.4806716279927384
1698924852390.0,0.01666666753590107,-0.002194733565300703,-0.08380290332436562,-0.10621931779384612,-1.3798087826602161,-5.52147911017537,7.937679251649976,5.831261197293692,3.15722292732666,-0.5906548024637216
1698924852408.0,0.01666666753590107,0.042830841466784474,-0.08713935427069663,-0.15724281806647777,-1.3539210388183593,-5.4899044067382805,7.906852736231684,16.64338662040041,7.912610228919692,-1.300654460790428
1698924852424.0,0.01666666753590107,0.058590866786986585,-0.10022679938077926,-0.009893032982945442,-1.3537714012145996,-5.471947894287109,8.072201119342445,12.19454802715448,5.79337797994904,-0.3014479177388533
1698924852441.0,0.01666666753590107,0.10896218676120042,-0.05861877770721912,0.21544132453501225,-1.312621060180664,-5.414337416839599,8.30653360683024,3.47674237835103,2.8047046979878427,0.5311353600974669
1698924852457.0,0.01666666753590107,0.021409137123078105,0.1057844335079193,0.36260815426707266,-1.4067428206846118,-5.250782931408286,8.451981357684732,-1.0626971801312364,2.6066870552220065,-0.7297734828607164
1698924852474.0,0.01666666753590107,-0.033870997680723665,0.10770692600309849,0.1292827979952097,-1.4645030818663536,-5.252428945049643,8.215853218951821,-0.333283082614739,1.4353654280169432,-1.3066444299708233
1698924852491.0,0.01666666753590107,-0.05862082353383302,0.08280044828355312,0.03243687322437763,-1.4893430702209471,-5.277718284606934,8.118738414111734,1.1826884493661394,0.6095186110125332,-0.5843556605016773
1698924852507.0,0.01666666753590107,-0.004149228633940219,0.04137538196146488,0.06426818177103996,-1.4347254909791052,-5.314828410339355,8.153455507227777,2.498595683068558,0.042237996549064634,-1.021274537414342
1698924852524.0,0.01666666753590107,0.04780263852998614,0.13178572072684763,0.11815759286880492,-1.3798084903992711,-5.219360203662514,8.211215622279047,1.5500329916806446,-1.1365950244740142,0.029399802230379416
1698924852540.0,0.01666666753590107,0.1079440957598388,0.14620295313596723,0.21893851900100705,-1.3172601181581616,-5.202302101355791,8.314167462709545,-0.6907556537010484,-1.717693431793536,1.7635723460570405
1698924852557.0,0.01666666753590107,0.1548519774071872,0.2676011353611946,0.39281040030717845,-1.2692261550903319,-5.0875300592720505,8.48385533632934,-5.048754598615658,-2.3447702180063503,2.3001020614949366
1698924852574.0,0.01666666753590107,0.10506590997502208,0.32976971450448034,0.08516834645867347,-1.3133692481994628,-5.035455004119873,8.1705136095345,-5.827588263067518,-5.571982093758131,1.130010722114122
1698924852590.0,0.01666666753590107,0.07181450549736619,0.291032279831171,0.05778057331740856,-1.3361140178404747,-5.085732654461264,8.137292892456054,-5.434609487189427,-4.849608480532889,-0.11323506488742331
1698924852607.0,0.01666666753590107,0.1649924092799425,0.21579203766882418,0.30883915467858314,-1.2363061745241284,-5.17746225913167,8.378510463282465,-7.237335038889919,0.11511803598380475,-0.634156170565827
1698924852623.0,0.01666666753590107,0.08055354613959789,0.2727314839869737,0.32873335719406604,-1.3201033787600696,-5.137210328242182,8.38734083546996,-10.995651752331312,0.6610774679011381,0.6401052119720552
1698924852640.0,0.01666666753590107,0.03530614505037665,0.2760802098929882,0.4434276578664779,-1.3664905975341797,-5.160103128051757,8.484152857971191,-15.185376874129052,0.5750974991642837,0.09134500228862003
1698924852657.0,0.01666666753590107,0.07058291787579656,0.38795653053522106,0.4856348144769668,-1.3355159058168529,-5.0891766574352975,8.497773387044667,-15.497618972036184,3.638878049199027,-0.25103565217673796
1698924852673.0,0.01666666753590107,0.19839958884119988,0.40650224105119703,0.36995150276720523,-1.2141599552981555,-5.100998028132319,8.360107376107573,-16.199781201733714,3.160432475906331,0.22349176709032437
1698924852690.0,0.01666666753590107,0.28794819621071216,0.4714712645679712,0.3773229083180427,-1.131859127099812,-5.068375861468911,8.34379395468831,-16.444763011789146,4.4810083573498645,0.7743520465001269
1698924852707.0,0.01666666753590107,0.24560031595528126,0.4077355822384357,0.6694044049412011,-1.1929115616947412,-5.176266327345371,8.601623053097724,-18.37002941427566,8.872161307299981,-0.04687049231234645
1698924852724.0,0.01666666753590107,0.21668547937721014,0.5158820687025785,0.7344809804856777,-1.2412439231872558,-5.104737214660644,8.6372338801831,-19.907399128513394,10.799712408063863,-1.051432917529416
1698924852741.0,0.01666666753590107,0.2633379249587655,0.5753899042040109,0.7397253108799458,-1.2119152451112867,-5.087380421668291,8.609102595198154,-22.479503228420334,7.827308850149048,-0.8490845079429685
1698924852757.0,0.01666666753590107,0.38610198870971796,0.7955553346514701,0.6748737762629985,-1.1004352303102611,-4.936096804267168,8.492085989058017,-27.027096111780892,2.060159223499681,-1.4511354810368564
1698924852774.0,0.01666666753590107,0.20007994314357638,0.620459464508295,0.6443301694393158,-1.287033322198689,-5.168333780780435,8.419213060548902,-27.861190275486386,1.117467826755334,-2.2539530345940992
1698924852791.0,0.01666666753590107,0.18470190287828445,0.6948854676783085,0.6721843910485505,-1.2993037518374622,-5.150976403266191,8.404848435109853,-26.84089490972259,1.3856368483824901,-5.049365900546374
1698924852807.0,0.01666666753590107,0.3437368650585413,0.9307990868777036,0.806851804691553,-1.131709051104635,-4.991460964092612,8.482807288581132,-28.911384794341913,1.7250109122721466,-6.867397906176865
1698924852823.0,0.01666666753590107,0.3381250165261328,1.0614619410544632,1.0710030918598175,-1.1327569527223706,-4.925622172003984,8.697389365938305,-33.361550151834116,3.803303754409683,-5.243908898015378
1698924852841.0,0.01666666753590107,0.22356500975787638,0.9736603234827518,1.2686240975439547,-1.2503721092775464,-5.083789119178056,8.838647263887523,-35.48004943612946,7.326488644352449,-4.008562891799613
1698924852857.0,0.01666666753590107,0.3358703694671392,1.3130150279343127,1.5284008228898047,-1.1587934573851526,-4.83942974319458,9.017312809211015,-34.85659318378528,14.618995390036792,-3.686273585623392
1698924852874.0,0.01666666753590107,0.618644816301763,1.4132675462782383,1.6470143428325652,-0.9045594608582556,-4.807558102637529,9.073427495142816,-34.26806651885655,20.746614226549106,-3.3156320896521803
1698924852891.0,0.01666666753590107,0.6543574963264167,1.3896002549648283,1.6979449041247368,-0.9083001086913048,-4.900781160736083,9.057264880371093,-36.68715901342957,27.076126624737828,-4.215072807581302
1698924852907.0,0.01666666753590107,0.45458954174146055,1.548969563665986,1.7993804947733878,-1.1818379406251012,-4.844667643848061,9.05292772794962,-43.4504806314679,38.512609031385516,-3.606549056310064
1698924852924.0,0.01666666753590107,0.4180637917682528,1.6942659233510493,2.1308242799699304,-1.2963108536317944,-4.789750643268227,9.285463979670405,-51.27587275978111,48.159687743422005,-1.5314451654629837
1698924852941.0,0.01666666753590107,0.5579398799702525,1.8071978905260562,2.026714501675963,-1.249025224713236,-4.778976151275635,9.064299601313472,-58.51885465756734,51.80486066571484,0.1283019819487954
1698924852957.0,0.01666666753590107,0.5370432224139571,1.8507821807086466,1.5648533614963291,-1.3967173934936523,-4.880729721832275,8.429087388831377,-59.81066882585936,55.4061154716445,-1.6041230739869736
1698924852974.0,0.01666666753590107,0.5081248787045478,1.8829314691632986,1.7718068436712024,-1.5254063172489403,-4.95345593534708,8.50226251515746,-57.0093862660891,61.86347535071752,-3.3508587902965212
1698924852991.0,0.01666666753590107,0.6042034723646938,1.8850059373497963,1.7023200504690408,-1.5334866017214952,-5.04967174552083,8.29860456739664,-52.715621995306435,66.17372086796743,-4.269766828020649
1698924853007.0,0.01666666753590107,1.0064533166684209,1.7229197709053754,1.766304154601693,-1.2856864376343786,-5.324255579376221,8.189217140960693,-43.971634310423624,81.42006230308073,-4.989655533048476
1698924853024.0,0.01666666753590107,1.0743981411255896,1.6677520104348658,2.2951368902921674,-1.3542206062868236,-5.452794865527749,8.585608322364092,-41.08329757458697,96.26267125635457,-6.542023488929913
1698924853041.0,0.01666666753590107,1.0656479945674537,1.7448925332605838,2.4771798030942676,-1.5219646523624657,-5.44561284506917,8.623019476869702,-39.78471468882747,114.15211831534437,-5.138379914017742
1698924853058.0,0.01666666753590107,0.7231886020988225,1.3999270031899214,3.0626059481441974,-2.110638693292439,-5.878813123431802,8.992173691779374,-41.27075553145256,125.91384066988972,-4.312718899503097
1698924853074.0,0.01666666753590107,-0.09909925665557384,1.7650088540941475,3.039168958455324,-3.1163524436399337,-5.580733263176679,8.793004872131347,-39.101999715244254,130.63695746208856,-7.526007007744984
1698924853091.0,0.01666666753590107,-0.395246979804337,1.6415309429854155,3.5230788488358256,-3.5925001755863426,-5.764790438410639,9.099315969637036,-33.1828006861603,134.78394779779683,-12.159397312364655
1698924853107.0,0.01666666753590107,-0.2592497788622975,1.6602087554484606,3.2234979363679885,-3.679589260974526,-5.8195572168648235,8.564360367152094,-27.8210987726057,137.5346152407227,-8.278594816537424
1698924853124.0,0.01666666753590107,-0.1553939753293991,0.3412099769294262,3.1393641936540604,-3.7641342148378487,-7.174226443701982,8.303242164069413,-22.47434302050239,140.4394537135941,4.460708608249764
1698924853141.0,0.01666666753590107,0.18338146792948246,0.619793694075942,2.513931032386422,-3.6985935289129612,-6.913408684870601,7.448662393519282,-12.718340720450772,138.02612931377516,16.02219457576609
1698924853157.0,0.01666666753590107,0.3018701924487948,1.0010855060249566,2.486936642476916,-3.7870293527349825,-6.5225552638500925,7.266703067347407,2.905731093218559,138.33657507193058,13.168028422573364
1698924853174.0,0.01666666753590107,-0.6001464520588516,0.6710995184212922,1.5172423000156878,-4.874295889392495,-6.828413356891274,6.171205585700273,16.476523391429705,125.89968851792946,8.736694750396532
1698924853192.0,0.01666666753590107,-1.0710121519491076,0.6004869360595941,-0.10169044219255446,-5.54123068934977,-6.854749575152993,4.437803291486204,35.794388402111785,114.93175708834464,-4.115515543352374
1698924853206.0,0.01666666753590107,-1.7340958294361828,0.36505262480974193,-0.6431216704323888,-6.319944487054646,-7.050175701141357,3.84628584382385,42.13523208413356,100.14509421456238,-9.741716105628889
1698924853224.0,0.01666666753590107,-2.16737969442904,-0.2346224103450775,-1.2243752059727906,-6.838439660865068,-7.61550832171142,3.233670370814204,38.888498247073414,85.69414879886457,-13.647752735344733
1698924853241.0,0.01666666753590107,-1.3793763825923204,-0.12901041079461573,-1.4070453107625245,-6.110750824737549,-7.501332491955161,3.0012820031315086,7.181448723553582,55.967908776161806,-25.070709659888507
1698924853257.0,0.01666666753590107,-0.7406441792905331,-0.37401626798808574,-2.0198843633949757,-5.472698128132522,-7.7822057813435785,2.3271663517594336,-10.429025235202579,34.688382700000794,-27.82521054648605
1698924853274.0,0.01666666753590107,-0.5437000499546527,-1.382124219995737,-2.4574650487989187,-5.235969977679848,-8.846277612635493,1.8366537021130322,-22.790524430013328,-4.535783486285605,-29.626481694780153
1698924853291.0,0.01666666753590107,-0.14002338771820066,-3.096648502999544,-1.7215131189778445,-4.749048922784627,-10.639832762256264,2.5243878367319703,-20.56700757213445,4.510814876000977,-36.94386484319533
1698924853307.0,0.01666666753590107,1.0216180064439773,-4.24803504512906,-2.0198343867734074,-3.528753971862793,-11.860575749206543,2.1651073655828834,-25.435996714437252,17.12164329627387,-29.393903508257463
1698924853324.0,0.01666666753590107,4.4227872164011,-8.337382334080338,-1.8236665025070309,-0.1225549510449171,-15.99805841577351,2.2780855099871755,-26.334159760104757,34.79307583959875,-1.8329463640134485
1698924853340.0,0.01666666753590107,6.9223688209176055,-7.3572969459861515,-2.6455294138476253,2.245312828937173,-15.002814621514082,1.3346180801942944,-15.37847827479636,46.03392113784977,57.07835068613872
1698924853357.0,0.01666666753590107,5.35124353954494,-4.547210883927345,-2.188690778005123,0.4849751815244555,-12.12289163764119,1.6970421100661157,-9.917917910742293,69.17123817768673,67.45564492234126
1698924853374.0,0.01666666753590107,0.5327081158190965,0.9566653495401144,-1.4445844755619763,-4.521150559997558,-6.5578674002498385,2.318486493958533,-17.871526350154987,75.2819898620437,45.457528303981555
1698924853391.0,0.01666666753590107,-0.461008907264471,1.1927414658248423,-1.544437765455246,-5.683834741210937,-6.291663272204995,2.043901198798418,-14.964239254466133,65.9475733045483,15.510569010702529
1698924853407.0,0.01666666753590107,0.3907125512450933,-0.010694412493705749,-2.1118217655971647,-4.887912326812744,-7.500435835376382,1.3825035747021437,-4.851340787261133,42.610603005082694,-6.438725842356756
1698924853424.0,0.01666666753590107,2.855654219534993,-0.7729203089952469,-3.1700431172952053,-2.43206114295125,-8.283640222498773,0.2650093653023243,-1.3644136363622623,15.538514729691636,-11.817344853825002
1698924853441.0,0.01666666753590107,2.154240226870775,1.6477280440598725,-2.923288662868738,-3.1135102059513327,-5.888838842883706,0.4857248308479786,-5.141574308115192,16.313341634421636,-22.561499649406336
1698924853457.0,0.01666666753590107,1.7119851199150085,1.9846306791841983,-2.6508459326952694,-3.516632741436362,-5.597792534527183,0.7164657235845923,-9.849839707737484,21.76900987548268,-34.59664301416377
1698924853474.0,0.01666666753590107,1.9445435834676026,0.557177955687046,-2.9643285292655226,-3.1907220404475924,-7.120206099700927,0.33069968883097167,-14.045275721454999,22.383696164932566,-55.22766994938875
1698924853491.0,0.01666666753590107,2.2118384293586013,-0.6927274128615856,-2.2033882886603475,-2.8235119453430175,-8.4591639626652,1.0366910724133251,-8.746838435087648,23.34554389442127,-60.87667011000159
1698924853507.0,0.01666666753590107,2.3116209921032187,-0.8839198468029499,-1.9673720858693122,-2.6268881340026855,-8.72701527339518,1.236905601722002,1.7753696835792392,21.03213833197044,-50.64261518597796
1698924853524.0,0.01666666753590107,0.7687161353036761,-1.0175859744489193,-1.7927192833185195,-4.090194845691323,-8.916007566943764,1.3973176974743604,7.732691093350509,15.082386159181722,-43.646797343686984
1698924853541.0,0.01666666753590107,-0.08195026119500398,-0.3153624189674854,-1.2617439826413988,-4.831350481635332,-8.279300731989741,1.9303274265885353,10.022293446543843,21.945973246688542,-48.074248907094315
1698924853557.0,0.01666666753590107,0.634939533020556,-0.20012568198144434,-0.6505448061704635,-4.047547836358845,-8.20986771480143,2.525734867426753,8.067996178763835,30.024623666783953,-35.17682660302133
1698924853574.0,0.01666666753590107,1.6712255317643283,-0.7867588647335767,-1.0212973961874843,-2.95878521592468,-8.830864939448237,2.1450562189400193,17.948825308539313,30.39819403324863,-29.72862375872311
1698924853590.0,0.01666666753590107,1.3063327736914156,-1.952088592019677,-0.9829480840489268,-3.2803546728387474,-10.019283865898847,2.1877014747068286,17.239144748112892,21.326698777663704,-32.27534858322157
1698924853607.0,0.01666666753590107,0.9436828261092305,-2.097652662730217,-1.6343576903551815,-3.5954923431396484,-10.182539660644531,1.559523690906167,24.382682506678318,15.17381336386422,-23.953369258849875
1698924853624.0,0.01666666753590107,0.41909225803315636,-1.3760843553096056,-1.526076471595466,-4.106356291419267,-9.451562304365634,1.710809061872959,24.91870038481529,24.52242817709678,-0.5002852098855175
1698924853640.0,0.01666666753590107,0.5469301179170608,-0.4812742811799049,-1.3258698333323,-4.012981549890339,-8.529494220954179,1.930475310626626,23.721678996919287,25.526670890763754,9.59811820851854
1698924853657.0,0.01666666753590107,0.7752104657590388,-0.6326023222446441,-1.600507150940597,-3.8165079606756565,-8.651599674665928,1.6831258129164575,24.368127373557023,13.199474613512102,3.9424722738432774
1698924853674.0,0.01666666753590107,1.519491247986257,-2.3461259037733075,-1.3383558054178952,-3.088369919475913,-10.332177264404296,2.0024504135131833,21.791503395966828,-4.381624836057948,6.78851775899968
1698924853691.0,0.01666666753590107,1.6145222322896122,-2.7250042248398065,-1.8938404011905192,-3.009661416681111,-10.679337674170732,1.4996657267928122,20.379302020911453,-6.929121471932624,15.095988480913801
1698924853707.0,0.01666666753590107,1.2625059069246054,-2.2870330788135527,-2.0335162906453013,-3.399318613654375,-10.200049013850093,1.4047987008795142,20.116404624663076,3.0405504896981483,23.381680717772515
1698924853724.0,0.01666666753590107,0.6427671579062938,-1.4212883556485176,-1.722987867705524,-4.113388966535031,-9.259576674219966,1.7570459123909472,18.315276910341545,7.441922256420249,40.230077173658145
1698924853740.0,0.01666666753590107,0.3408949196308851,-1.7452105131685733,-1.788940057040751,-4.509328897039592,-9.511863920593262,1.721730561120808,18.184386580182004,0.7676823134147566,46.021076967115555
1698924853757.0,0.01666666753590107,0.41626258756518364,-1.8952800786048172,-1.7797201010137795,-4.519503961834311,-9.587579963573813,1.775151770184934,16.654723026875338,-13.041231083273955,43.90019736189446
1698924853774.0,0.01666666753590107,0.33139526987969875,-2.519292851680517,-1.1432868223041295,-4.697871985515952,-10.121636571392417,2.4735101746708152,9.763748588344058,-13.88852885641873,40.86689669111346
1698924853791.0,0.01666666753590107,0.4384054457902908,-2.1700059512794017,-0.707152536316216,-4.660462584576011,-9.711779174694419,2.938883706885576,4.730952299837312,-10.303430009197092,41.461816413105325
1698924853807.0,0.01666666753590107,0.5108686244547367,-2.1075357588410375,-0.9220376882731914,-4.664204693713784,-9.587281857410073,2.744354529736936,4.0431185263580005,-6.372586986189407,45.03027948082975
1698924853824.0,0.01666666753590107,0.5100146379739046,-1.5329799673736095,-0.5898410388827323,-4.7860097031742335,-8.924238219672441,3.08328399451375,-2.2694953434938747,0.8666916684062036,50.34571027785209
1698924853841.0,0.01666666753590107,0.28484803823828697,-0.6231254688471556,-0.14662000950425863,-5.106383812823891,-7.949649090906977,3.5176831272721287,-6.769144354305762,-3.804481535154687,47.909521819786534
1698924853857.0,0.01666666753590107,0.313128960826993,-0.7236030281186103,-0.4212371611073613,-5.157110375976562,-7.99304282695353,3.239655290442705,-7.484462382118381,-10.495850952268336,43.13787311844017
1698924853874.0,0.01666666753590107,0.27001228815615175,-1.7187994761049747,-0.5235726232051849,-5.285350386920571,-8.919599453955888,3.144784465137124,-7.477440947651608,-15.428816768979353,37.410110631413325
1698924853890.0,0.01666666753590107,0.09512450780570507,-1.407823893919587,-0.09535451716929673,-5.5090580200195305,-8.56660376216471,3.5809780800968407,-7.440447789333173,-17.53805260921287,31.092031969895203
1698924853907.0,0.01666666753590107,0.12302490664422511,-1.1438906334161758,-0.013470891469717024,-5.518336135974526,-8.2676278298527,3.674054130940139,-9.65774832129369,-17.94678991216665,28.283760419056733
1698924853924.0,0.01666666753590107,0.1092050556063652,-0.47749885429441924,-0.21010288611650466,-5.573852271491289,-7.562086528125405,3.4888021929636595,-11.092761674403262,-19.204895389357365,23.095997810452978
1698924853940.0,0.01666666753590107,0.027124153769016265,-0.043026071777939795,-0.390116338917613,-5.672164177161455,-7.110331186896562,3.316870047548413,-13.778109456975365,-24.660432149276886,17.434696479144943
1698924853957.0,0.01666666753590107,0.09139116649627685,-0.03213935158252716,-0.9037041592031717,-5.607668616375327,-7.089529806408286,2.822464774377644,-9.913922250077835,-32.42413400900654,12.538659787728893
1698924853974.0,0.01666666753590107,0.032896307429671284,-0.2431879941165447,-1.4117445744946597,-5.644032307654619,-7.280171036207675,2.386124152162671,6.931659314096106,-42.931399914925265,8.993249462226906
1698924853991.0,0.01666666753590107,0.23443653238415715,0.06625672523975372,-0.4653033895879984,-5.408500965771078,-6.953958137401938,3.4133848406687375,2.9320911411031654,-51.370477709974956,5.026530016830082
1698924854006.0,0.01666666753590107,0.37530046257972716,0.27057927438914775,-0.4438473445832729,-5.216666726794839,-6.745514124408364,3.5152877565681933,-2.5458526947188185,-58.62365025000284,1.1381978777731458
1698924854024.0,0.01666666753590107,0.4741957210958004,0.24744272895157335,-1.66255970248878,-5.029619137573242,-6.7730468589782715,2.4106623810917136,1.7569261451077949,-61.24558911764149,-3.5973615981027507
1698924854041.0,0.01666666753590107,0.6555500671118497,-0.17369477117359639,-1.8141870187610387,-4.772990647125244,-7.196372224536538,2.3551477068796753,4.409834371103747,-65.57131867373981,-3.3962204244521033
1698924854057.0,0.01666666753590107,0.6829828484386206,-0.08028992676734924,-1.9367785024240611,-4.66689758605957,-7.098059734344482,2.3410811876043676,11.81366935827789,-67.36749450091308,-2.6375840562627935
1698924854074.0,0.01666666753590107,0.6020744975119828,0.5800917982846499,-1.9670231263011693,-4.635474858313799,-6.42229748480916,2.472015552198887,18.336689553389533,-66.14377048845692,-7.551538254862491
1698924854091.0,0.01666666753590107,0.8427467094153165,1.2125029818713664,-1.3425465351060033,-4.298041477313637,-5.783044472503661,3.218706318177283,16.251345714872723,-67.15927618406525,-12.569692752222846
1698924854107.0,0.01666666753590107,0.8103846549928188,1.3784440701782703,-1.1642068607360123,-4.21948231986165,-5.619641378241777,3.5152886333510276,11.181052968483078,-72.52514792810814,-16.527029225247365
1698924854124.0,0.01666666753590107,0.22873218326270578,1.5277379750669002,-1.2371399949997663,-4.618565809088945,-5.495891079932451,3.594296995875239,2.294320733249344,-85.41719145820973,-26.705944032101478
1698924854141.0,0.01666666753590107,-0.5282698411107063,1.9222960958242414,-1.1025029764950274,-5.202451154437661,-5.141698287311196,3.839403390833735,-1.430761667072943,-91.44106996651331,-38.963848893996996
1698924854157.0,0.01666666753590107,-0.6945204337581992,2.156699894982576,-0.9217080179274082,-5.161898194774985,-4.965124745830893,4.127304386901855,-5.209734046503219,-98.97990492329322,-50.37142594007719
1698924854174.0,0.01666666753590107,-0.2085167859688401,2.1016911244660617,-1.1501432640701532,-4.353256876318157,-5.115361484527588,4.0369250277966255,-7.799757574584509,-105.82365201880845,-58.97403212423533
1698924854190.0,0.01666666753590107,1.0260226711437106,1.2971949429899454,-1.2442641477912664,-2.8637653375372287,-5.99433393805623,4.035279598677158,-11.28988264139712,-101.23799278365611,-57.74474833779477
1698924854207.0,0.01666666753590107,1.1277946541398762,0.8976204553753137,-0.6399082613438367,-2.5276786949709056,-6.469281938824057,4.702063591986894,-18.874691601480393,-84.43266750067659,-52.61777612035142
1698924854224.0,0.01666666753590107,1.1898618187353014,0.4618927043616771,-0.20638649594187736,-2.2016183563783764,-7.005135951453447,5.1705800984025,-24.799971206472957,-71.77963961039042,-39.8766797709071
1698924854240.0,0.01666666753590107,1.291676764090359,0.5275631541460752,-0.30037761580348016,-1.933317548315227,-7.004835507202148,5.08782816543579,-26.922621538236374,-74.28182477131122,-27.2881630173317
1698924854258.0,0.01666666753590107,0.9497235675781964,0.9080717067629098,-0.22452128756940362,-2.1134821000248194,-6.6832666348099705,5.175368501722812,-27.964339792331916,-88.53500888978047,-22.51564175931887
1698924854274.0,0.01666666753590107,-0.6329872299090027,1.6961767254084348,0.4505214155197143,-3.442862864087522,-5.978324468019604,5.870584224268794,-32.726810426981075,-100.06854828453405,-34.201936627312485
1698924854291.0,0.01666666753590107,-1.8039464875146745,1.8605314213067292,1.6613263613015412,-4.38946859190613,-5.89332621743083,7.08010322189331,-36.71213701522431,-98.65862648511416,-48.41171147851172
1698924854307.0,0.01666666753590107,-2.1444147061660885,1.813733429774642,1.5234370630025862,-4.4797006514951585,-6.023211657494306,6.936301484680175,-31.694372692420288,-103.22221737905818,-56.97142065958759
1698924854324.0,0.01666666753590107,-1.954617525975406,1.3968331288278102,0.9790841020971536,-3.9194583398014307,-6.536621198603511,6.398505690333247,-22.548576931496672,-107.38027262122186,-67.42055824057492
1698924854341.0,0.01666666753590107,-0.947508814138174,0.7017851640641689,0.5407242490142583,-2.6123732864379883,-7.295282680621742,5.967100478693842,-21.016579161041154,-110.75642146758082,-71.76995440214733
1698924854358.0,0.01666666753590107,-0.3608900983028114,0.3716027771055698,0.5112976635217666,-1.7224788952700794,-7.683893291151523,5.9358273885518305,-22.93175054393439,-106.69861291186542,-66.93662567750117
1698924854374.0,0.01666666753590107,0.7245474693618714,-0.787286103478074,1.4993185207903383,-0.2922423862732947,-8.91900031901896,6.885576090571284,-33.96013768541028,-87.94698424375574,-47.43204720057303
1698924854391.0,0.01666666753590107,1.7148957466647028,-1.3917483729094267,1.550194721546769,0.9012672874450683,-9.58862801132202,6.871808846503495,-45.554079858088855,-85.80827442970632,-30.434496488687248
1698924854407.0,0.01666666753590107,1.5717176943078637,-1.8167542389005422,1.3398784849405287,0.9264063318114727,-10.084528199225664,6.574180821669101,-48.62808504122855,-86.37573337614015,-16.587413220152154
1698924854424.0,0.01666666753590107,1.1615684750564397,-1.9421154795378446,1.1419278089106082,0.7044938385009765,-10.287733727043866,6.271461611175536,-33.067770055253526,-84.64999728987722,-8.279146354312902
1698924854441.0,0.01666666753590107,0.12251743204612284,-2.1270611280441285,1.3113631690740584,-0.20694884253237394,-10.505308556476235,6.397308589503169,-13.218740869613416,-76.76366279869457,-10.40645060622204
1698924854458.0,0.01666666753590107,-0.2890468781676143,-2.494578097140789,1.2019687283754348,-0.455197590637207,-10.863990477210283,6.310368557196855,25.979027489304528,-61.74555896488642,-15.42158359864831
1698924854474.0,0.01666666753590107,-0.14303772143754176,-2.350925997531414,1.0768401274502277,-0.20500353541718794,-10.664970710644125,6.2771484246402975,55.87902410939784,-48.16935246109757,-11.607961135950031
1698924854491.0,0.01666666753590107,0.21496621783655134,-1.6863298696547746,1.0713666644752025,0.22864629507753997,-9.910501419618726,6.413021122419834,72.1284027297896,-39.32078433473811,-3.1997259138711796
1698924854507.0,0.01666666753590107,0.320445457852818,-1.3462071034401655,1.117481349918246,0.3887584854347165,-9.467122277069091,6.61443099899292,72.29567406256322,-40.544798630234,3.5082969985428423
1698924854524.0,0.01666666753590107,0.2986153919039294,-0.1631803914219141,1.4804291114032269,0.43140521163940426,-8.15300425632894,7.165097380828857,61.335515388253874,-38.10931368165294,6.694687181502983
1698924854541.0,0.01666666753590107,0.048211785586457695,0.7733587004125118,2.2132202391058207,0.2171241630554199,-7.133973343768716,8.011148977008462,48.955664328916946,-27.153350451041284,5.055344023617428
1698924854557.0,0.01666666753590107,0.007447082869242876,1.129772091692686,2.01364693031013,0.2097919570038095,-6.690897568079829,7.926904759657383,37.97387786060076,-17.847398706911918,3.3181238280387655
1698924854574.0,0.01666666753590107,0.2602927120439708,1.095771037891507,1.5486036529630423,0.48332949667666103,-6.66456134981811,7.540091553938389,41.478400112410114,-19.01333078125331,4.517779534520274
1698924854591.0,0.01666666753590107,0.4720072711408138,1.1330541821032762,0.9685375736415386,0.7151181266342289,-6.55622255565226,7.050176870185136,48.51349837261783,-18.558839748596906,4.530334702875227
1698924854607.0,0.01666666753590107,0.3478292854713276,1.3143617663681506,1.0126263062149286,0.6178537207229994,-6.26832155958414,7.225552726313471,49.11384809499986,-12.536541575312542,1.3754876141626744
1698924854624.0,0.01666666753590107,0.262242932796292,1.3147878828257322,1.2606763534098864,0.5470751524109393,-6.194101308119297,7.561938059565424,40.23886421202537,-5.952684031489948,-2.056857680809626
1698924854640.0,0.01666666753590107,0.11876987954825162,1.518745105794072,1.4333312601417303,0.4209305793762207,-5.934327505382895,7.799712211939692,26.791492151455884,-5.1851974456835945,-5.948306734005616
1698924854657.0,0.01666666753590107,0.2001820883437991,1.452011410692334,1.2427198409587144,0.535253818246536,-5.959020632612705,7.656360556581616,10.809494946502614,-6.767158049917757,-8.148478859075034
1698924854674.0,0.01666666753590107,0.34297227389421314,1.4209581007808445,1.173127833816409,0.7040449256896972,-5.977424304309487,7.599945426398516,4.484861437815399,-5.028310561769341,-8.470960264321663
1698924854691.0,0.01666666753590107,0.4783537906233221,1.2108049457818268,0.7443927181690931,0.8684966522216796,-6.171353469738364,7.1881427408516405,11.184694313084341,-1.7491442117656233,-8.745364821774217
1698924854706.0,0.01666666753590107,0.5123154622621834,0.9427543130874633,0.5185141707718373,0.9150339835235849,-6.423344363513588,6.979847780939936,16.017326358435163,0.5832846548233076,-9.718685561521252
1698924854724.0,0.01666666753590107,0.5395990809092298,0.5711491978943347,0.6502145513027906,0.9624692135132848,-6.753147395765781,7.157619007772207,18.02484872909614,6.710726173221466,-12.190133163629714
1698924854741.0,0.01666666753590107,0.47635867128334936,0.4368786746144295,0.8313239826470613,0.9133880794800817,-6.848915462172031,7.380878312581777,13.674553543874216,9.280178025296324,-14.18379366537015
1698924854758.0,0.01666666753590107,0.29525599847342815,0.2559539521872997,0.5649900907427072,0.7463925502168014,-7.009027698194981,7.13666915872395,8.772698385058963,7.7883571350861125,-16.15483343435315
1698924854774.0,0.01666666753590107,0.2749565030926838,0.11106734234690666,0.477579518315196,0.7457939632691443,-7.140708789503574,7.062449491780996,4.4476945365599505,5.870576193043109,-16.758473600367832
1698924854790.0,0.01666666753590107,0.24719335730038583,-0.11325579230189323,0.48255146150887007,0.7469910275666043,-7.356185769873857,7.075018465974926,1.5744888041689924,6.181648621054877,-16.138323159581937
1698924854807.0,0.01666666753590107,0.30346608333811165,-0.29195991607010363,0.4838666357606649,0.8215105907715856,-7.531262350794672,7.0789096281945705,-0.1605544153540733,6.501324952986746,-14.610027351656564
1698924854824.0,0.01666666753590107,0.30305330128613855,-0.28442016821503635,0.47577042306661604,0.8357260900635272,-7.524826764789223,7.068432657843828,-3.3995241015762736,7.579194544585519,-14.10382837188858
1698924854840.0,0.01666666753590107,0.08274031559415161,-0.1737199056148529,0.2826157491415739,0.6323685134887695,-7.4232222473144525,6.863877468982339,-6.425862461715506,7.313833157594061,-12.947514911445856
1698924854857.0,0.01666666753590107,-0.21004158438332377,-0.1153963114619255,-0.02238777289688587,0.3513493493562564,-7.375490189802647,6.546200343331694,-7.728719338348146,5.171423942335441,-10.880513545945115
1698924854874.0,0.01666666753590107,-0.19182890521399676,-0.011769932770729064,-0.17422434800565242,0.38322190322875976,-7.282862759509682,6.380996921649575,-6.564774422168402,0.38087274582192016,-8.49314130365128
1698924854891.0,0.01666666753590107,-0.12349573902636765,0.15570961714982987,-0.31386078223288055,0.47764330426640805,-7.127389289203286,6.225671335381269,-5.360488701203271,-5.728492463494388,-7.585172667656573
1698924854906.0,0.01666666753590107,-0.049046062719821926,0.19252105219662188,-0.34714170506596564,0.5805940487183631,-7.097910681262612,6.181529995837807,-5.007789258408037,-11.810829707130457,-6.1125693684498374
1698924854924.0,0.01666666753590107,0.0513762592330575,0.16381342862844467,-0.2674275323599577,0.7116764434814453,-7.138312834277748,6.245126561957598,-10.557768324641795,-14.96353403743433,-1.466727095364703
1698924854940.0,0.01666666753590107,0.07262567574977874,0.18871055399775505,0.24572189650833606,0.7691371371947229,-7.154770632603764,6.707804863739013,-26.12739627355013,-20.395086588083352,5.443361093950328
1698924854957.0,0.01666666753590107,-0.054144189576432106,0.36684418440163136,0.29167233130037784,0.6672341482300311,-7.029228774702548,6.690747930476069,-34.61240026057899,-24.546941726027956,7.552232372836894
1698924854974.0,0.01666666753590107,-0.2649804314687848,0.45715047827064986,0.2858879026800394,0.48527496818862853,-7.0034911068558685,6.606203853395581,-41.30982421350503,-25.98064453659053,5.599157708918319
1698924854991.0,0.01666666753590107,-0.2651850141301751,0.4253390434682369,0.5252531236380338,0.5370492137633264,-7.135467966240644,6.718876877373456,-50.25097213896943,-30.639958824204985,0.8500120262879152
1698924855007.0,0.01666666753590107,0.1401308666806668,0.39559564711153505,0.8409253392070531,1.000477091803029,-7.254280808147787,6.9162512148201465,-62.170806542611416,-41.350986348538115,-3.421201627898013
1698924855024.0,0.01666666753590107,0.26101371979489923,0.4439788620084524,0.8763760072946548,1.2125136493958533,-7.314137603217363,6.798936502516269,-78.06691070365719,-60.032690955019795,-7.342829018168058
1698924855040.0,0.01666666753590107,0.07317636843509971,0.3921037133425474,1.4169687388837338,1.1840824316162615,-7.541885451617836,7.072771563830972,-99.26533852870806,-72.76641070016049,-8.527451905173193
1698924855057.0,0.01666666753590107,0.2360731936752796,0.36512744361162186,2.46542623693645,1.4703393868044017,-7.723696893751621,7.870790073725581,-119.0983364065925,-71.27248440413862,-9.155198370089785
1698924855074.0,0.01666666753590107,0.23205855120643973,0.45741877381801604,2.8747061260074376,1.5846622238159178,-7.805546909442543,7.98002552447021,-139.6164978808776,-70.60005911054004,-11.832220152063645
1698924855091.0,0.01666666753590107,0.5988448679409921,0.36071371882259845,2.717888547615707,2.133832229614258,-8.151209189605712,7.339725633460283,-167.0363606057855,-76.4619050411634,-32.75173378726245
1698924855107.0,0.01666666753590107,1.5161599116064608,-0.4748042083829641,2.2011627215653657,3.2202016713015733,-9.17338599897623,6.3965606937453146,-182.43645642930494,-69.85543871741442,-36.382030557543004
1698924855124.0,0.01666666753590107,1.402012285031378,-0.6368880367398262,2.287622276878357,3.2414499187745154,-9.511416176825762,6.033239715033769,-181.10767044703564,-63.65726061168129,-22.053031339286616
1698924855141.0,0.01666666753590107,1.5325703636594117,-0.7914870622992515,1.5587746261045337,3.480720301055908,-9.866355988422036,4.7245089402899145,-163.03377412950965,-52.29591028590374,-1.8967211209543269
1698924855157.0,0.01666666753590107,1.5238719472885132,-0.8183879287064075,1.5603995969578623,3.496282757977396,-10.015843954578042,4.3329079157724975,-148.3446326966968,-36.06053013821592,8.915458730222337
1698924855174.0,0.01666666753590107,1.4936550882011652,-0.4399392312288284,1.486543064238876,3.457376980999857,-9.740061266326904,3.8994069008976218,-138.118323207192,-23.694441910056568,14.384410835445411
1698924855190.0,0.01666666753590107,1.3868588473021983,0.3612549860924482,0.9944576123178005,3.3168674171999095,-9.051430182868241,2.955792317719012,-132.24736580421583,-14.4601695861719,13.467364878043758
1698924855206.0,0.01666666753590107,1.5376649103194475,0.8004115425109862,0.6756861155591904,3.443759812927246,-8.680327756500244,2.304419244030863,-131.85527196472208,-12.921239173708818,11.390993346775405
1698924855224.0,0.01666666753590107,1.3935120215810834,0.6858809079676866,0.8266305641338229,3.276165550585836,-8.850763818138837,2.1221607887819407,-131.28663139556184,-11.595286012397779,11.033476486181197
1698924855241.0,0.01666666753590107,1.3968375127419828,0.4187526508152485,0.8461538875102996,3.245190858868509,-9.173833158221841,1.704223911328986,-125.6622984631365,-15.489349320498592,13.872448029791581
1698924855257.0,0.01666666753590107,1.5990337173871696,0.5528326199591159,0.963279214721918,3.4141318596437573,-9.069087420111893,1.50595383061897,-119.66465471143493,-18.310729711901608,14.469950417063359
1698924855274.0,0.01666666753590107,1.7524489399895071,0.748009155100584,1.3201660687327383,3.531447594860941,-8.89296337596476,1.5593740898350252,-115.72218756023354,-14.189245010101466,16.249559620404767
1698924855290.0,0.01666666753590107,1.1612198077492415,0.8469061671823263,1.909350105011463,2.8796260467529295,-8.806772116199136,1.7545014703388324,-117.48531893220229,1.3163168316092078,19.657610572829565
1698924855307.0,0.01666666753590107,0.4900232586942613,0.6429542049109935,2.0579367384135723,2.1565772915162147,-9.010579117041825,1.60815631398689,-120.03829337979131,21.231543997241673,22.468588586126653
1698924855324.0,0.01666666753590107,0.338301834397763,0.6555068124920129,2.104489815273881,1.9515737743653356,-8.989479045867919,1.3682867602359503,-117.28880072940268,41.262989606366254,23.12725446364225
1698924855341.0,0.01666666753590107,0.2855459573745727,0.9484031326293945,1.4532054427824914,1.8466776679992676,-8.670901171985268,0.3567350975152105,-112.27298984070129,41.82494342032905,15.041922410991274
1698924855357.0,0.01666666753590107,0.55006008650586,1.8048136257380245,0.4210200112253427,2.0926820347107946,-7.782652940589189,-0.9469055875480175,-116.33833892526039,20.604577027664106,9.467092128349247
1698924855374.0,0.01666666753590107,0.7182547989584506,1.678628209236264,0.35111280065402384,2.2290020378664135,-7.8658520328015085,-1.319503951562196,-131.46618340846314,2.661093353942566,22.398020779169375
1698924855391.0,0.01666666753590107,0.36783261091709135,0.243275087878108,0.8989078648373484,1.754950109155476,-9.223364374110101,-1.2526159426815806,-158.26918442867048,-0.5793174354934408,51.93050541059181
1698924855407.0,0.01666666753590107,0.09456862748861312,0.08519640350937843,1.1360822977527976,1.3335703247070312,-9.300874899291992,-1.4206585333123802,-170.09845735410727,8.5512406002787,68.62914655383032
1698924855424.0,0.01666666753590107,0.052375864729657766,0.4048907142013311,1.2910308674022555,1.1284171699523926,-8.879495991626381,-1.6775862989678978,-169.76506216034062,16.1119108180615,71.47580547535156
1698924855441.0,0.01666666753590107,0.14806882007308303,1.5395312887132167,0.7765481441035866,1.018283820519969,-7.5827365174442525,-2.7159219237178562,-157.58567373804897,3.164114374755791,63.36536564731163
1698924855457.0,0.01666666753590107,-0.3847156489178538,1.9174562545776366,0.31154227615743874,0.3459621398925781,-7.072771563830972,-3.5371333854123947,-143.46963981811356,-5.4049617704365165,52.699058786569154
1698924855475.0,0.01666666753590107,-0.7778698942266404,1.626525681555271,0.36418870145678517,-0.15951368560791016,-7.228544893866777,-3.8042365081235765,-129.49257292703126,-4.565603665315058,37.19716582365984
1698924855490.0,0.01666666753590107,-1.4588690215021372,1.337322955238819,0.6042866206035018,-0.9114425714354961,-7.341370478057861,-3.9290333928763865,-110.714245049456,9.667206425746866,12.197418414153178
1698924855508.0,0.01666666753590107,-1.4164295174404977,1.4116776467382908,0.31612346646785733,-0.8696937165191396,-7.138463056403398,-4.455309722082316,-104.17350563609004,11.60374520168484,3.992645562825722
1698924855524.0,0.01666666753590107,-0.9185416628509759,1.1652478942215443,0.13039105149805544,-0.38456860512997953,-7.249792849078774,-4.876838559612631,-111.0440543939084,-2.6578921296559455,16.529356612207046
1698924855540.0,0.01666666753590107,-0.518051083304733,0.3056283759385347,-0.15454934119880198,-0.09965857103876768,-7.8975740357548,-5.512050772094726,-130.59208311924158,-24.55518405680887,46.032343364151494
1698924855557.0,0.01666666753590107,-1.1168237627923487,-0.14717442851662635,-0.26398762103915213,-0.8509889977828599,-8.157195278277992,-5.915473751831055,-143.92682536039754,-30.50570121078463,56.265435231502146
1698924855574.0,0.01666666753590107,-1.4634065188013017,-0.17694705096781252,0.051202363970875735,-1.3504793830650392,-7.965509507861733,-5.906644548687338,-150.49918854962067,-21.861150834933447,50.77772657304457
1698924855592.0,0.01666666753590107,-1.6015052220672368,0.6097586222738027,0.028053543573617935,-1.6379331742217764,-6.855198487964272,-6.331465705761313,-149.72051966348252,-12.31546884244674,36.94531967348854
1698924855607.0,0.01666666753590107,-1.4102875075541437,1.2474661587029694,-0.8623580033361912,-1.532738039243361,-5.970241699329018,-7.500135391125083,-139.3197125010622,-15.70216606220514,29.07541861744894
1698924855623.0,0.01666666753590107,-1.3185264848321676,1.2856775236755609,-1.1553759040266274,-1.5225626365219243,-5.703288214221597,-8.03164815967977,-117.45861289254754,-21.78976682037035,22.678534940834506
1698924855640.0,0.01666666753590107,-1.5197931535422802,1.139850418114662,-1.1182996805638075,-1.8185458898239768,-5.610063987079262,-8.226027406963706,-76.8174778591651,-12.316591554791561,17.516527268043575
1698924855657.0,0.01666666753590107,-1.3543560692347585,1.0125146625339985,-0.10290624772310257,-1.6843209044525398,-5.615301303210854,-7.323263743481039,-54.6520147759509,8.608457094955897,14.49008239964197
1698924855674.0,0.01666666753590107,-1.3429234055943786,0.9134645057171583,0.08265665589869022,-1.6648680524963884,-5.618593330493569,-7.224802784729003,-46.648272748030315,23.232999452372386,13.299092068783093
1698924855691.0,0.01666666753590107,-1.202857420843467,0.6830781255066395,-0.39691958919167514,-1.4882956617935559,-5.728128640967607,-7.812129794964194,-48.044452206840134,25.213583556946833,13.562067158433278
1698924855708.0,0.01666666753590107,-0.8476656803127378,0.44922202335894107,-1.2589321400910616,-1.1203367758819833,-5.864447913470864,-8.757840035247803,-50.644691563485644,10.000331827041313,14.009031322624326
1698924855724.0,0.01666666753590107,-0.6432844597786664,0.6853367180883884,-1.5271177973419428,-0.94945065065464,-5.495291944995522,-9.134777159118652,-48.24877048567189,-11.108203878343014,11.673947593521524
1698924855740.0,0.01666666753590107,-0.6093477764505892,0.7373603353142738,-1.263620005646348,-0.9494506323883309,-5.352388033404946,-8.942792113494873,-42.77303173373477,-9.259327165307567,3.032910923111489
1698924855757.0,0.01666666753590107,-0.5125841962009668,0.816081989851594,-0.5951496666848659,-0.8655039366791024,-5.189881011199951,-8.339453295135497,-40.684756036516724,-3.448491648726799,-1.1835003881037247
1698924855774.0,0.01666666753590107,-0.23594452579431235,0.3145359050154686,-0.7194938392341137,-0.5994482771942392,-5.5831292184025045,-8.546102241405844,-39.189327098877456,-9.16520801231844,3.4061549345998867
1698924855790.0,0.01666666753590107,-0.020287878008186815,0.3166366766870022,-1.2910200537472962,-0.41973347854614257,-5.502324327850341,-9.17458017719686,-34.98768158943075,-10.01856074816243,13.178090998768086
1698924855807.0,0.01666666753590107,-0.25594982400145383,-0.09571662847995757,-1.1427204205930233,-0.6964134444305673,-5.85427314093709,-9.068337478527425,-22.192374028544045,-7.411048947598145,15.146463578880196
1698924855824.0,0.01666666753590107,-0.3069150182155892,0.4090665385812521,-1.0034241781055926,-0.7728782964844256,-5.312734068408608,-8.954163986858726,-12.097627642832,5.019998648436258,14.846758293194622
1698924855840.0,0.01666666753590107,-0.5262423904037102,0.5101578458368778,-0.5620265647619962,-0.9937433631012216,-5.185691158294677,-8.531288703155518,-5.794949350344965,9.470467949346526,12.683660434940032
1698924855857.0,0.01666666753590107,-0.3547771683804691,0.2667944951534271,-1.1098030703753232,-0.8277952239990234,-5.417630028644203,-9.086892541393636,-3.980786219992464,4.905877286462746,13.87297651567861
1698924855874.0,0.01666666753590107,-0.35455154293105007,0.1753238336801529,-0.6607382834047079,-0.8334814894745126,-5.501875999560952,-8.642619080352782,0.8585796448280498,13.964106607132214,15.477814838537732
1698924855890.0,0.01666666753590107,-0.45583501175791025,0.2674719560235739,-0.4802554595261812,-0.9261071662018076,-5.417779666247964,-8.456918229565025,9.71826465111365,13.758065413082317,15.890523896493875
1698924855906.0,0.01666666753590107,-0.2977459521256387,0.4119838873326778,-1.24177700715065,-0.7653963797638192,-5.299865819007158,-9.19956965702474,17.023792298676977,11.06465544596866,14.139132765934729
1698924855924.0,0.01666666753590107,-0.27037692021746185,0.3730097212940454,-0.9863888721525669,-0.7354688590118661,-5.395184388080239,-8.903587061309814,24.885734476786222,11.639862388242221,8.247558436948886
1698924855940.0,0.01666666753590107,-0.2299149998391047,0.44139176812469955,-0.524200984236598,-0.6711246893951669,-5.379921352496743,-8.403797464752197,26.226205205178122,18.395688727440106,3.5829627055587174
1698924855957.0,0.01666666753590107,-0.04862696052491665,0.4311351625263691,-0.6067647011548281,-0.45819037924502043,-5.4417216828495265,-8.449736209106446,24.058128992792238,15.210126064586593,1.5962987721276067
1698924855974.0,0.01666666753590107,0.1533159269463271,0.04097147733569145,-0.888708834645152,-0.23208795996401457,-5.895572535052895,-8.684816884613037,23.6921572117792,5.358717120887299,2.453411420387985
1698924855991.0,0.01666666753590107,0.19012611988410352,-0.03060907327532768,-0.7249070964545011,-0.18854341726992277,-6.019172611236572,-8.481459381103516,28.34935243320366,7.523721455693968,3.8865415622773356
1698924856007.0,0.01666666753590107,0.22344763045590368,-0.01995440827012062,-0.22584406060576437,-0.1409586592743173,-6.0704983093261715,-7.934833214569092,33.52446382391726,13.091099148177864,4.936495743851443
1698924856024.0,0.01666666753590107,0.4724063534609973,-0.3123690823704004,-0.35462124716639515,0.1339256188323721,-6.461053039661049,-7.98675746307373,40.704645547379805,18.115435820510726,8.677208071593952
1698924856040.0,0.01666666753590107,0.5041328133936971,-0.3263596138000488,-0.11671440832316875,0.19348138512875884,-6.557718931689858,-7.682693852233887,42.922510423720496,24.20066479548665,8.379316201133017
1698924856058.0,0.01666666753590107,0.2099033449564129,-0.2514876204282045,0.5389619155168534,-0.05940612869262695,-6.566547550311684,-6.9588967628479,42.179618068454886,30.44199603639592,7.454862049802839
1698924856074.0,0.01666666753590107,0.14150573523044585,-0.20871347758471964,0.7845499565124511,-0.06105216060029343,-6.6250558533817525,-6.628945846557617,35.3002617817018,34.13535252818862,9.765455281862915
1698924856091.0,0.01666666753590107,0.1438152725481428,-0.11081307532489298,0.7807762831926346,-0.014215572357177733,-6.5867486268192526,-6.581810001373291,27.1026909379673,29.46506724921983,11.15394992408282
1698924856107.0,0.01666666753590107,0.10701171941370703,0.03353109820187092,0.5745166285008192,-0.021398177337646485,-6.485742659759521,-6.750301358684897,18.299770673378323,20.663916003625886,10.982741841026343
1698924856124.0,0.01666666753590107,0.05154916811455041,0.08642857565283775,0.20898761835098265,-0.060752857993310316,-6.466739268603921,-7.085788866314291,9.465520331066498,10.999030988423176,8.39102741423865
1698924856141.0,0.01666666753590107,0.10038940606396644,0.170260120549798,0.041592239582538604,-0.006584063698584213,-6.396409594836831,-7.241113283538818,5.361816319223192,8.584050267730502,6.880125963695184
1698924856157.0,0.01666666753590107,0.21096293701194224,0.10079144752621651,0.051878071275353425,0.11581951444321312,-6.478859329986572,-7.219265608868002,6.221730732425451,15.245108585968106,7.7232423804074415
1698924856174.0,0.01666666753590107,0.2325825568142347,0.18786065917015074,0.23206688064336775,0.15592238311767578,-6.405538073188066,-7.0268316504329436,8.263905640953665,17.951453223822476,9.194906528603301
1698924856190.0,0.01666666753590107,0.2389216236426495,0.16573299851417542,0.019783727878332137,0.17732055588874499,-6.443546024543046,-7.2248022002071135,8.484566854921974,16.824200510750863,11.290878995242297
1698924856207.0,0.01666666753590107,0.08255670265555382,0.20392448974251745,-0.018057634738087653,0.03366846541252453,-6.424091967010497,-7.245601827129721,6.728619134412784,12.200929131386564,8.988029490153723
1698924856224.0,0.01666666753590107,-0.05729095860298257,0.3366600585401058,-0.11549509566128253,-0.09920975412561092,-6.303484058380127,-7.331942724499106,6.029270942653301,8.105595516371109,4.994479354149798
1698924856240.0,0.01666666753590107,-0.06082308281846344,0.4152484420865774,-0.17971183950603006,-0.09651625670833745,-6.235997499084473,-7.385961899456381,5.8951328575434205,4.965302066675973,1.7785191478385556
1698924856257.0,0.01666666753590107,0.04693951889462769,0.22604630517959592,-0.136990303632617,0.022146356223290784,-6.442797252002358,-7.3270046835750335,8.104131294567788,5.831871218563939,0.9052947236563521
1698924856274.0,0.01666666753590107,-0.0038228827564045784,0.048098552736639974,0.011148586001992224,-0.016460148971661693,-6.636877808600664,-7.163900279998779,8.97208185221539,8.259589815171863,-0.43827213482239996
1698924856290.0,0.01666666753590107,-0.11260898229833692,0.03123392717540264,0.11110358270406723,-0.10384848730530065,-6.670096772113442,-7.048678740581869,9.189051348937307,11.373083736997986,-2.179158621201051
1698924856307.0,0.01666666753590107,-0.1490103021742776,-0.007169160977005958,0.11483166331648825,-0.10684123538474086,-6.7281561623722315,-7.026382737621665,8.519639022536344,11.116422303461832,-2.493079238096715
1698924856324.0,0.01666666753590107,-0.0817410388911143,0.011958148819208144,0.038189153140783305,-0.01481409993933048,-6.721871383014321,-7.090727491760253,8.96047223817366,12.19093571085719,-2.6185269747048117
1698924856340.0,0.01666666753590107,-0.06954334569498896,0.062335167881846426,0.04893032738566398,0.023792397264111784,-6.686705961608887,-7.0652890991210935,8.551563326716984,10.065414992095072,-3.2230680853596985
1698924856357.0,0.01666666753590107,-0.019779745822958647,0.07905658558011054,-0.016374796217679975,0.09816229546586983,-6.687604371753334,-7.113471823009848,6.669187950897211,4.384091815008792,-3.26262960824947
1698924856374.0,0.01666666753590107,0.03183119894880801,0.043965398454666134,-0.06698503951430321,0.15726914895097724,-6.733094787818193,-7.154024198150634,4.860624721890473,1.7108280244606153,-2.450541673719522
1698924856390.0,0.01666666753590107,0.032443668291345235,0.007245733344554901,-0.08240764957368374,0.16400283198701215,-6.777835846820473,-7.161655715942382,3.8457247786841626,3.9588327113395736,-0.7474360318892521
1698924856407.0,0.01666666753590107,-0.08207136682402343,0.02451484805345535,0.07996025642156601,0.06150105514526367,-6.768109402576089,-6.991816451153158,2.7293978069636324,7.248828539715758,0.8468121360226171
1698924856424.0,0.01666666753590107,-0.1217651158414781,0.08935819936394691,0.06198387022614479,0.03441664886474609,-6.707057260242104,-7.005882385906577,2.2744463768684877,7.934525744645324,0.046321969425056245
1698924856440.0,0.01666666753590107,-0.14312745468076318,0.12321662982404231,0.044646366456151006,0.02738371802065521,-6.675633363452554,-7.020547455596923,0.8625603644536979,6.412779234360347,-1.64605264480633
1698924856457.0,0.01666666753590107,-0.16821747227367012,0.12420096468627452,0.08126607832312584,0.018405443528760224,-6.674735537829995,-6.983437329864501,0.6784527754585629,2.953901002340074,-1.9909583081500506
1698924856474.0,0.01666666753590107,-0.09958733243346214,0.049481531527638435,0.04052840974330902,0.09367315821992232,-6.751948541370034,-7.021594918823242,2.4599468442066295,1.834897450238545,-2.1130893475858716
1698924856490.0,0.01666666753590107,-0.1567353434683755,0.10610065985023975,0.07756605476140975,0.044741680056788025,-6.7012219782173625,-6.978648926544189,3.9702318701775017,4.242173290660621,-1.2768744101430882
1698924856550.0,0.01666666753590107,-0.059688050906546414,-0.013593056544661522,0.44301732349991796,0.1659481208358891,-6.83080755855143,-6.602908903503417,-4.803526047976459,-0.5145250337270835,-1.717441461846186
1698924856557.0,0.01666666753590107,0.029530338127911088,-0.09464461533427238,0.39575171445608137,0.2549825498718768,-6.904878172412515,-6.656927493938803,-6.355970416599235,-1.9251677916303722,-1.3270423630402433
1698924856575.0,0.01666666753590107,0.11839284466309473,-0.13467092077434062,0.266302327722311,0.3408744796310551,-6.931663303485513,-6.79923285511434,-7.516095549485649,-2.183681913978892,-0.9129340767995998
1698924856589.0,0.01666666753590107,0.09487097143605351,-0.1066600472986698,0.22003215945661067,0.3158850180694833,-6.891112097388506,-6.857591520580649,-5.741901405495592,-0.9525006156095431,-1.2922318770484502
1698924856606.0,0.01666666753590107,0.035870994125213475,-0.0013987608820199965,0.02768997095823288,0.2594716414520517,-6.777386349487304,-7.057956272014975,-2.3607622521742893,1.3472877907921017,-1.061819927709713
1698924856626.0,0.01666666753590107,0.003374810195341706,-0.01099193413555622,-0.020803718575835226,0.2365770698104985,-6.783222800555825,-7.109731467437744,-2.234446441211366,4.915226961662848,-1.1349607949933829
1698924856640.0,0.01666666753590107,-0.004208192279562354,-0.007920271605253219,-0.03410334513187408,0.2370259826217778,-6.778284759631752,-7.124545005688071,-2.199940965854696,5.746542945923439,-0.9202626563356119
1698924856658.0,0.01666666753590107,0.04187752279732376,-0.06477203963994979,-0.055043257308006285,0.2967313682556152,-6.8329030695259565,-7.147140868377685,-2.279561761670004,3.828555817544866,-0.23572572979130146
1698924856679.0,0.01666666753590107,0.10107221896266565,-0.06647475190460682,-0.06871230169832707,0.3558382400070317,-6.8227271279484025,-7.172129179161787,-9.068106627982953,-5.592197319267253,-0.38344041670216894
1698924856704.0,0.01666666753590107,0.12587644188413397,0.048504210928082464,-0.28094401653707024,0.36526542731020595,-6.686107411193848,-7.405414787945151,-13.682791605786898,-11.977908940833663,-1.2110619089520187
1698924856707.0,0.01666666753590107,0.13594892308721318,0.054900633966922754,-0.3349339653998613,0.3541922080993652,-6.654982789611816,-7.483375979503989,-11.936696433155452,-12.101935784650985,-1.0359364989631263
1698924856723.0,0.01666666753590107,0.19309083317490294,-0.08461305066347122,-0.3629214579999447,0.39234979705810547,-6.777835846820473,-7.52751907261312,-6.03733654228944,-8.132520975852946,0.8294793037040932
1698924856749.0,0.01666666753590107,0.15381065166071056,-0.06052724167704582,-0.35573651493191716,0.3425204932724126,-6.749404117584228,-7.524676542663574,0.9309667367037855,-1.5179684551786081,1.741499735980498
1698924856778.0,0.01666666753590107,0.001913505471125245,-0.018007365855574605,-0.3590688742250204,0.1897404815673828,-6.717682114630938,-7.517942265972494,6.598980009531826,2.168257639285711,1.0720717214887847
1698924856778.0,0.01666666753590107,-0.10807528439145535,0.1705126340061426,-0.22622049270272254,0.08649055323945358,-6.54320408412516,-7.371746911621093,8.500255799445494,3.817259538431311,-0.42466282281859086
1698924856790.0,0.01666666753590107,-0.08034311825931072,0.16823592124581335,-0.1309516079902649,0.12105682144165038,-6.560113133350014,-7.262511460876464,7.367525274659531,1.8487258085434704,-0.23408877890717272
1698924856807.0,0.01666666753590107,0.0467377857774496,0.03592646890580654,-0.03774725459218025,0.2497451972076669,-6.706009797015786,-7.15641839981079,4.53691900523512,-1.0593909416861271,0.15247874385695137
1698924856838.0,0.01666666753590107,0.008095372443832457,0.05541033705472946,0.06599953560829162,0.20964233766635879,-6.6929919100105755,-7.0465838141292325,4.007637401167076,-0.8639105541143919,0.22747571504757233
1698924856841.0,0.01666666753590107,0.01733735763952136,0.03861117794513702,0.07487725406885147,0.21667530504306778,-6.717681530109047,-7.030273315319419,5.217385565920925,-0.19150020155461603,0.9572606171308073
1698924856859.0,0.01666666753590107,0.05900587732866406,0.07258242112994194,0.129507838922739,0.25692780218813566,-6.695834439960121,-6.964134078979492,5.989603338387982,1.4766426090488574,0.35959593282496355
1698924856888.0,0.01666666753590107,0.0023619981572963297,0.049346506971120835,0.18823650674521922,0.20305821003569288,-6.728155577850341,-6.896646350640058,4.771326401794903,1.772418828414382,-0.1058429058951919
1698924856891.0,0.01666666753590107,-0.028507954543922093,0.022789339435100555,0.13873451695144176,0.17507605119785294,-6.762721864318848,-6.938395826610923,4.4609015610938165,0.8275947051016986,-0.16634402787207725
1698924856907.0,0.01666666753590107,-0.06379428064897656,0.04590308851897716,0.09818331085443496,0.14230541597446425,-6.750751440539956,-6.968173709759116,5.233964569470662,1.4760907511082615,0.5317040267067233
1698924856923.0,0.01666666753590107,-0.10782039631493388,0.12915361865758895,0.15929858155250548,0.10115505667421966,-6.676980101886391,-6.897844035992026,4.834838623339559,2.3025722420969537,0.7290639969606814
1698924856940.0,0.01666666753590107,-0.10734612986668944,0.09490940375030041,0.17681553354263305,0.10339962073061615,-6.7179802207946775,-6.873752966308594,2.3945701944619713,0.6310692985869515,0.7420936500195385
1698924856956.0,0.01666666753590107,-0.05767150518605485,-0.047910336688160894,0.1512894626200199,0.1514332915375009,-6.863727246856689,-6.896497297558188,0.16647458853888764,-1.2956870989948304,-0.4996251361352593
1698924856973.0,0.01666666753590107,-0.09732161599118262,-0.07803308775126934,0.09870762698948382,0.11103110198974608,-6.894552593231201,-6.948422130584716,0.811204172084372,-0.5837577521450368,-1.3607091125111765
1698924856990.0,0.01666666753590107,-0.12181322929952293,-0.08863573030829429,0.10135668019354342,0.09023154813237488,-6.9078709244877095,-6.943034592327475,2.035216653311264,1.261735616012872,-2.0613596292463106
1698924857006.0,0.01666666753590107,-0.11481968061774968,0.05958674595654011,0.02920388265252113,0.10519525370942429,-6.764368462482095,-7.010371514019369,1.4207401787349476,1.0676001887382478,-3.0750352610438965
1698924857023.0,0.01666666753590107,-0.05369491143897175,0.07478080795705318,0.0017629180192947386,0.17253215713500974,-6.751499628558754,-7.0353609938472506,0.8994273777158995,-0.39261402776815724,-3.462248076602028
