timestamp,interval,accx,accy,accz,accGx,accGy,accGz,alpha,beta,gamma
1698924219.0,16,-0.1,0.0,0.0,-0.1,9.3,2.0,-0.8,-1.2000000000000002,0.2
1698924219.016,16,0.0,0.1,0.0,-0.1,9.4,2.0,-0.30000000000000004,-2.4000000000000004,0.0
1698924219.034,16,0.0,0.0,0.0,-0.1,9.3,2.0,0.0,-2.7,-0.30000000000000004
1698924219.05,16,0.1,0.0,0.0,0.0,9.3,2.1,0.2,-2.6,-0.9
1698924219.067,16,0.1,0.0,0.0,0.0,9.3,2.1,0.0,-1.9,-1.4
1698924219.086,16,0.1,0.0,0.0,0.0,9.3,2.1,-0.2,-1.3,-1.5000000000000002
1698924219.1,16,0.1,0.0,0.0,0.0,9.3,2.1,-0.2,0.4,-1.5000000000000002
1698924219.117,16,0.1,0.0,0.0,0.1,9.3,2.0,0.0,1.6,-1.2000000000000002
1698924219.134,16,0.1,0.0,0.0,0.0,9.3,2.0,0.0,2.1,-1.0
1698924219.15,16,0.1,0.0,0.0,0.0,9.3,2.0,0.1,2.8,-0.30000000000000004
1698924219.166,16,0.1,0.0,0.0,0.0,9.3,2.1,0.30000000000000004,2.5,0.2
1698924219.183,16,0.0,0.0,0.0,0.0,9.3,2.1,0.6000000000000001,2.5,0.4
1698924219.2,16,0.0,0.0,0.1,-0.1,9.3,2.1,1.0,2.1999999999999997,1.0
1698924219.217,16,0.0,0.0,0.0,-0.1,9.3,2.1,1.2000000000000002,2.3000000000000003,1.0
1698924219.233,16,-0.1,0.0,0.0,-0.1,9.3,2.1,1.0,2.3000000000000003,0.8
1698924219.25,16,-0.1,0.0,0.0,-0.2,9.3,2.0,0.8,2.1,0.8
1698924219.266,16,-0.1,0.0,0.0,-0.2,9.3,2.1,0.4,1.5000000000000002,1.0
1698924219.283,16,-0.1,0.0,0.0,-0.2,9.3,2.0,0.2,0.8,0.5
1698924219.299,16,-0.1,0.0,0.0,-0.2,9.3,2.0,0.30000000000000004,0.9,0.6000000000000001
1698924219.316,16,-0.1,0.0,0.0,-0.2,9.3,2.0,0.6000000000000001,0.7,0.4
1698924219.333,16,-0.2,0.0,-0.1,-0.30000000000000004,9.3,2.0,0.8,0.2,0.6000000000000001
1698924219.349,16,-0.2,0.0,-0.1,-0.30000000000000004,9.3,1.9000000000000001,1.2000000000000002,0.0,0.5
1698924219.368,16,-0.1,0.1,0.0,-0.2,9.4,2.0,1.5000000000000002,-1.4,-0.30000000000000004
1698924219.383,16,-0.1,0.1,0.0,-0.2,9.4,2.0,1.6,-2.0,0.0
1698924219.399,16,0.0,0.0,0.0,-0.1,9.3,2.0,1.3,-2.0,0.30000000000000004
1698924219.416,16,0.0,0.0,0.0,-0.1,9.3,2.0,0.4,-2.4000000000000004,0.4
1698924219.433,16,0.0,0.0,0.0,-0.1,9.3,2.0,0.0,-2.4000000000000004,0.2
1698924219.45,16,0.0,0.0,0.0,-0.1,9.4,2.0,-0.4,-2.6,0.2
1698924219.466,16,0.0,0.1,0.0,-0.1,9.4,1.9000000000000001,-0.2,-2.1999999999999997,0.1
1698924219.483,16,0.1,0.1,-0.1,0.0,9.4,2.0,0.0,-2.1,0.0
1698924219.5,16,0.1,0.0,0.0,0.0,9.3,2.0,0.4,-1.4,0.0
1698924219.516,16,0.1,0.0,0.0,0.0,9.3,2.0,0.5,-0.7,0.0
1698924219.534,16,0.1,0.0,0.0,0.0,9.3,1.9000000000000001,0.4,-0.4,0.1
1698924219.55,16,0.0,0.0,0.0,-0.1,9.3,2.0,-0.1,-0.1,0.30000000000000004
1698924219.568,16,0.1,0.0,0.0,0.0,9.3,2.0,-0.1,0.2,0.0
1698924219.585,16,0.1,0.0,0.1,0.0,9.3,2.0,0.30000000000000004,0.8,-0.30000000000000004
1698924219.6,16,0.1,0.0,0.0,0.0,9.3,2.0,0.2,1.4,-0.2
1698924219.616,16,0.0,-0.1,0.0,0.0,9.3,2.0,-0.2,1.4,-0.4
1698924219.633,16,0.0,0.0,0.0,-0.1,9.3,2.0,-0.30000000000000004,1.4,-0.4
1698924219.651,16,0.0,0.0,0.0,-0.1,9.3,2.0,-0.2,1.3,-0.30000000000000004
1698924219.666,16,-0.1,0.0,0.0,-0.2,9.3,2.0,0.0,0.9,-0.1
1698924219.683,16,-0.1,0.0,0.0,-0.1,9.3,2.0,0.2,0.6000000000000001,-0.30000000000000004
1698924219.7,16,0.0,0.0,0.0,-0.1,9.3,2.0,0.7,0.0,-0.4
1698924219.717,16,0.0,0.0,0.0,-0.1,9.3,2.0,0.6000000000000001,-0.4,-0.30000000000000004
1698924219.735,16,0.0,0.0,0.0,-0.1,9.3,2.0,0.2,-0.7,0.0
1698924219.75,16,0.0,0.0,0.0,-0.1,9.3,2.0,0.0,-0.8,0.0
1698924219.769,16,0.0,0.0,0.0,-0.1,9.3,2.0,0.0,-0.8,0.1
1698924219.783,16,0.0,0.0,-0.1,-0.1,9.3,1.9000000000000001,0.1,-0.9,0.0
1698924219.799,16,0.0,0.0,-0.1,-0.1,9.3,1.9000000000000001,0.1,-0.9,0.0
1698924219.816,16,0.0,0.0,0.0,-0.1,9.3,2.0,0.1,-0.6000000000000001,0.2
1698924219.833,16,0.0,0.0,0.0,-0.1,9.3,1.9000000000000001,0.0,-0.30000000000000004,0.2
1698924219.849,16,0.0,0.0,0.0,-0.1,9.3,2.0,0.1,-0.4,0.2
1698924219.866,16,0.0,0.0,0.0,-0.1,9.3,1.9000000000000001,-0.2,-0.5,0.1
1698924219.883,16,0.0,0.0,0.0,-0.1,9.3,1.9000000000000001,-0.5,-0.2,0.1
1698924219.899,16,0.0,0.0,0.0,-0.1,9.3,2.0,-0.4,0.2,0.2
1698924219.916,16,0.0,0.0,0.0,-0.1,9.3,2.0,-0.2,0.30000000000000004,0.1
1698924219.933,16,0.0,0.0,0.0,-0.1,9.3,2.0,0.1,0.5,0.1
1698924219.95,16,0.0,0.0,0.0,-0.1,9.3,2.0,0.2,0.6000000000000001,0.2
1698924219.966,16,0.0,0.0,0.0,-0.1,9.3,2.0,0.1,0.7,0.2
1698924219.982,16,0.0,0.0,0.0,-0.1,9.3,2.0,0.0,0.4,0.0
1698924219.999,16,0.0,0.0,0.0,-0.1,9.3,2.0,0.0,0.2,0.1
1698924220.016,16,0.0,0.0,0.0,-0.1,9.3,2.0,0.0,0.1,0.2
1698924220.033,16,0.0,0.0,0.0,-0.1,9.3,2.0,0.0,0.2,0.2
1698924220.05,16,0.0,0.0,0.0,-0.1,9.3,2.0,0.1,0.30000000000000004,0.1
1698924220.066,16,0.0,0.0,0.0,-0.1,9.3,2.0,0.0,0.30000000000000004,0.1
1698924220.083,16,0.0,0.0,0.0,-0.1,9.3,2.0,-0.1,0.0,0.1
1698924220.099,16,0.0,0.0,0.0,-0.1,9.3,2.0,-0.1,-0.30000000000000004,0.0
1698924220.116,16,0.0,0.0,0.0,-0.1,9.3,1.9000000000000001,0.0,-0.30000000000000004,0.2
1698924220.132,16,0.0,0.0,0.0,-0.1,9.3,2.0,-0.2,-0.6000000000000001,0.1
1698924220.149,16,0.0,0.0,0.0,-0.1,9.3,2.0,-0.1,-0.30000000000000004,0.0
1698924220.166,16,0.0,0.0,0.0,-0.1,9.3,1.9000000000000001,0.0,-0.2,0.0
1698924220.183,16,0.0,0.0,0.0,-0.1,9.3,2.0,0.0,0.0,0.0
1698924220.199,16,0.0,0.0,0.0,-0.1,9.3,2.0,-0.2,0.1,0.0
1698924220.216,16,0.0,0.0,0.0,-0.1,9.3,2.0,-0.30000000000000004,0.0,0.0
1698924220.233,16,0.0,0.0,0.0,-0.1,9.3,1.9000000000000001,-0.4,-0.2,0.2
1698924220.249,16,0.0,0.0,0.0,-0.1,9.3,2.0,-0.5,-0.30000000000000004,0.1
1698924220.267,16,0.0,0.0,0.0,-0.1,9.3,2.0,-0.30000000000000004,-0.30000000000000004,0.1
1698924220.283,16,0.0,0.0,0.0,-0.1,9.3,2.0,0.0,-0.7,0.0
1698924220.3,16,0.0,0.0,0.0,-0.1,9.3,2.0,0.0,-0.5,0.1
1698924220.317,16,0.0,0.0,0.0,-0.1,9.3,2.0,-0.1,-0.6000000000000001,0.2
1698924220.334,16,0.0,0.0,0.0,0.0,9.3,2.0,-0.2,-0.8,-0.1
1698924220.352,16,0.0,0.0,0.0,-0.1,9.3,2.0,-0.2,-0.4,-0.30000000000000004
1698924220.367,16,0.0,0.0,0.0,-0.1,9.3,2.0,-0.4,0.0,-0.30000000000000004
1698924220.384,16,0.0,0.0,0.0,-0.1,9.4,2.0,-1.5000000000000002,0.30000000000000004,0.0
1698924220.4,16,0.0,0.1,0.0,0.0,9.4,2.0,-1.7,0.5,-0.1
1698924220.417,16,0.0,0.0,-0.1,-0.1,9.3,1.9000000000000001,-2.1999999999999997,0.9,0.0
1698924220.433,16,0.0,0.0,-0.1,-0.1,9.3,1.9000000000000001,-3.0000000000000004,1.6,0.4
1698924220.449,16,-0.1,0.0,-0.1,-0.2,9.3,1.9000000000000001,-2.9,0.9,1.0
1698924220.467,16,-0.1,0.0,-0.1,-0.2,9.3,1.9000000000000001,-2.3000000000000003,0.5,1.0999999999999999
1698924220.483,16,-0.1,0.0,0.0,-0.1,9.3,2.0,-1.4,-0.4,1.0
1698924220.5,16,0.0,0.1,0.0,-0.1,9.4,2.0,-1.0,-1.0999999999999999,1.0
1698924220.517,16,0.0,0.0,0.0,-0.1,9.3,2.0,-1.2000000000000002,-1.3,1.0
1698924220.534,16,0.0,0.0,0.1,0.0,9.3,2.1,-1.3,-1.3,0.5
1698924220.55,16,0.0,0.0,0.1,-0.1,9.3,2.1,-1.3,-1.2000000000000002,0.2
1698924220.567,16,0.0,-0.1,0.1,0.0,9.200000000000001,2.1,-1.5000000000000002,-0.9,-0.1
1698924220.585,16,0.0,-0.1,0.1,0.0,9.200000000000001,2.1,-1.7,-0.8,0.0
1698924220.599,16,0.0,-0.1,0.1,0.0,9.1,2.1,-1.2000000000000002,-0.30000000000000004,0.5
1698924220.616,16,0.0,-0.2,0.1,-0.1,9.1,2.1,-0.7,0.1,0.8
1698924220.633,16,0.0,-0.2,0.2,-0.1,9.1,2.2,0.6000000000000001,0.1,1.0
1698924220.651,16,0.0,-0.2,0.2,0.0,9.1,2.3000000000000003,2.6,-0.30000000000000004,0.6000000000000001
1698924220.666,16,0.1,-0.2,0.2,0.0,9.0,2.2,3.6,-0.6000000000000001,0.4
1698924220.683,16,0.0,-0.30000000000000004,0.2,0.0,9.0,2.2,4.6000000000000005,-0.30000000000000004,0.2
1698924220.7,16,0.0,-0.2,0.2,0.0,9.0,2.2,5.0,1.6,0.8
1698924220.716,16,0.0,-0.2,0.1,0.0,9.1,2.2,5.6,1.0999999999999999,0.9
1698924220.733,16,0.1,0.0,0.2,0.0,9.200000000000001,2.2,6.8,-0.5,0.6000000000000001
1698924220.749,16,0.0,0.1,0.1,-0.1,9.3,2.1,7.300000000000001,0.30000000000000004,0.5
1698924220.766,16,-0.1,0.1,0.0,-0.1,9.3,2.0,6.3,0.8,0.8
1698924220.785,16,-0.1,0.0,0.0,-0.2,9.3,1.9000000000000001,4.800000000000001,0.6000000000000001,0.6000000000000001
1698924220.8,16,-0.1,0.1,-0.1,-0.2,9.3,1.8,3.9,-0.5,0.4
1698924220.816,16,-0.2,0.1,-0.2,-0.2,9.4,1.7000000000000002,3.1,-1.0999999999999999,0.5
1698924220.833,16,-0.1,0.2,-0.30000000000000004,-0.2,9.4,1.7000000000000002,2.0,-1.3,0.7
1698924220.849,16,-0.1,0.1,-0.30000000000000004,-0.1,9.3,1.7000000000000002,2.6,-1.7,0.7
1698924220.866,16,0.0,0.0,-0.30000000000000004,0.0,9.3,1.7000000000000002,3.5,-1.9,0.6000000000000001
1698924220.884,16,0.0,0.0,-0.2,0.0,9.3,1.7000000000000002,6.1000000000000005,-2.1,0.9
1698924220.9,16,0.0,0.1,-0.2,0.0,9.4,1.7000000000000002,9.1,-2.4000000000000004,1.5000000000000002
1698924220.917,16,0.0,0.1,-0.1,0.0,9.4,1.7000000000000002,10.3,-1.4,1.9
1698924220.934,16,0.0,0.2,0.0,0.0,9.5,1.8,11.5,-1.4,2.1
1698924220.951,16,-0.1,0.2,0.0,-0.1,9.5,1.8,10.2,-1.2000000000000002,1.8
1698924220.966,16,0.0,0.2,0.0,0.0,9.5,1.8,6.5,-1.2000000000000002,1.3
1698924220.985,16,0.0,0.1,0.0,0.0,9.5,1.8,3.9,-1.0,0.9
1698924221.004,16,0.0,0.1,-0.1,0.0,9.4,1.7000000000000002,-0.5,-0.9,0.0
1698924221.016,16,0.1,0.1,-0.1,0.1,9.4,1.6,-3.2,-0.7,-0.6000000000000001
1698924221.033,16,0.1,0.1,-0.2,0.1,9.4,1.5,-3.6,-0.2,-0.30000000000000004
1698924221.049,16,0.0,0.0,-0.2,0.0,9.4,1.5,-3.5,-0.2,0.4
1698924221.066,16,0.0,0.1,-0.2,0.1,9.5,1.5,-2.6,0.1,0.7
1698924221.083,16,0.0,0.1,-0.2,0.0,9.5,1.5,-0.2,-0.2,0.8
1698924221.1,16,0.0,0.1,-0.2,0.0,9.4,1.5,2.3000000000000003,0.0,1.0999999999999999
1698924221.116,16,0.0,0.0,-0.1,0.0,9.4,1.6,4.0,-0.5,1.0999999999999999
1698924221.133,16,0.0,0.0,0.0,0.0,9.4,1.7000000000000002,4.9,-0.6000000000000001,0.9
1698924221.15,16,0.0,0.0,0.1,0.0,9.4,1.7000000000000002,5.0,-1.6,0.5
1698924221.166,16,0.0,0.1,0.1,0.0,9.5,1.7000000000000002,3.7000000000000006,-1.3,0.2
1698924221.183,16,0.0,0.1,0.1,0.0,9.5,1.8,2.5,-1.0999999999999999,0.1
1698924221.199,16,0.0,0.0,0.1,0.0,9.4,1.8,-0.5,-0.2,-0.30000000000000004
1698924221.216,16,0.0,0.0,0.0,0.0,9.4,1.7000000000000002,-2.9,0.30000000000000004,-1.0
1698924221.233,16,0.0,0.0,0.0,0.0,9.4,1.7000000000000002,-3.7000000000000006,0.6000000000000001,-1.5000000000000002
1698924221.25,16,0.0,0.0,-0.1,0.0,9.4,1.6,-4.6000000000000005,1.0999999999999999,-2.1999999999999997
1698924221.267,16,0.0,0.0,-0.1,0.0,9.4,1.6,-4.6000000000000005,1.4,-1.8
1698924221.283,16,0.0,0.0,-0.1,0.0,9.3,1.6,-4.1000000000000005,1.2000000000000002,-1.7
1698924221.3,16,0.0,-0.1,-0.1,0.0,9.3,1.6,-2.5,0.5,-1.5000000000000002
1698924221.316,16,0.0,0.0,-0.2,0.0,9.4,1.5,-1.6,0.5,-1.0
1698924221.333,16,0.0,0.0,-0.1,0.0,9.4,1.6,0.30000000000000004,0.0,-0.4
1698924221.351,16,0.0,0.1,-0.1,-0.1,9.4,1.6,1.9,-0.1,0.2
1698924221.366,16,-0.1,0.0,0.0,-0.1,9.4,1.6,2.1999999999999997,-0.2,0.4
1698924221.383,16,-0.1,0.0,0.0,-0.1,9.3,1.7000000000000002,1.8,-0.5,0.0
1698924221.401,16,0.0,-0.1,0.1,0.0,9.3,1.7000000000000002,1.0,-0.5,-0.9
1698924221.416,16,0.0,0.0,0.0,0.0,9.3,1.7000000000000002,-0.4,-0.2,-1.0
1698924221.433,16,0.1,-0.1,0.0,0.0,9.3,1.7000000000000002,-0.8,0.2,-0.7
1698924221.45,16,0.0,0.0,0.0,0.0,9.3,1.7000000000000002,-1.7,-0.30000000000000004,-0.1
1698924221.466,16,0.0,0.0,0.1,0.0,9.4,1.8,-2.0,0.0,0.8
1698924221.483,16,0.0,0.0,0.0,0.0,9.4,1.8,-1.8,0.9,0.8
1698924221.5,16,0.0,0.0,0.0,0.0,9.3,1.8,-1.6,1.0,0.7
1698924221.516,16,0.0,-0.1,0.0,0.0,9.3,1.7000000000000002,-0.9,0.8,0.5
1698924221.533,16,0.0,0.0,0.0,0.0,9.3,1.7000000000000002,-0.8,0.4,0.5
1698924221.55,16,0.0,0.0,0.0,0.0,9.3,1.7000000000000002,-0.8,-0.2,0.4
1698924221.567,16,0.0,0.0,0.0,0.0,9.3,1.8,-0.8,0.2,0.7
1698924221.585,16,-0.1,0.0,0.0,0.0,9.3,1.7000000000000002,-0.7,0.5,0.8
1698924221.6,16,0.0,0.0,0.0,0.0,9.3,1.8,-0.30000000000000004,0.30000000000000004,0.30000000000000004
1698924221.616,16,0.0,0.0,0.0,0.0,9.3,1.7000000000000002,0.1,-0.30000000000000004,0.0
1698924221.635,16,0.0,0.0,0.0,0.0,9.4,1.7000000000000002,0.0,-0.5,-0.30000000000000004
1698924221.65,16,0.0,0.0,0.0,0.0,9.4,1.7000000000000002,-0.2,-0.6000000000000001,-0.1
1698924221.667,16,0.0,0.0,0.0,0.0,9.4,1.7000000000000002,-0.4,-0.5,0.7
1698924221.683,16,0.0,0.0,0.0,0.0,9.4,1.8,-0.5,-0.30000000000000004,1.0
1698924221.699,16,0.0,0.0,0.0,-0.1,9.3,1.8,-0.4,-0.1,0.9
1698924221.716,16,0.0,-0.1,0.0,0.0,9.3,1.7000000000000002,-0.2,-0.5,0.6000000000000001
1698924221.733,16,0.0,0.0,0.0,0.0,9.3,1.7000000000000002,-0.1,-0.30000000000000004,0.30000000000000004
1698924221.749,16,0.0,0.0,0.0,0.0,9.4,1.7000000000000002,0.0,0.0,0.30000000000000004
1698924221.766,16,0.0,-0.1,0.0,0.0,9.3,1.7000000000000002,0.30000000000000004,0.0,-0.30000000000000004
1698924221.783,16,0.0,-0.1,0.0,0.0,9.3,1.7000000000000002,0.6000000000000001,-0.8,0.1
1698924221.8,16,0.0,0.0,0.0,0.0,9.3,1.7000000000000002,1.0,-0.6000000000000001,0.7
1698924221.816,16,0.0,0.0,0.0,0.0,9.3,1.7000000000000002,1.2000000000000002,-0.30000000000000004,0.6000000000000001
1698924221.835,16,0.0,0.0,0.0,0.0,9.3,1.8,1.2000000000000002,-0.2,0.5
1698924221.85,16,0.0,0.0,0.0,0.0,9.3,1.7000000000000002,1.4,-0.2,0.5
1698924221.867,16,0.0,0.0,0.0,0.0,9.4,1.7000000000000002,1.5000000000000002,-0.2,0.30000000000000004
1698924221.883,16,0.0,0.0,0.0,0.0,9.4,1.8,0.7,0.0,0.2
1698924221.899,16,0.0,0.1,0.0,0.0,9.4,1.7000000000000002,0.5,0.30000000000000004,0.2
1698924221.916,16,0.0,0.0,0.0,0.0,9.4,1.7000000000000002,0.30000000000000004,0.6000000000000001,0.0
1698924221.934,16,0.0,0.0,0.0,0.0,9.4,1.7000000000000002,-0.30000000000000004,0.6000000000000001,0.0
1698924221.953,16,0.0,0.0,-0.1,0.0,9.3,1.7000000000000002,-0.4,0.6000000000000001,0.0
1698924221.968,16,0.0,0.0,-0.1,0.0,9.4,1.7000000000000002,-0.5,0.5,0.0
1698924221.983,16,0.0,0.0,-0.1,0.0,9.4,1.6,-0.2,0.5,0.0
1698924222.0,16,0.0,0.1,-0.1,0.0,9.4,1.7000000000000002,0.4,0.6000000000000001,0.1
1698924222.016,16,0.0,0.0,0.0,0.0,9.4,1.7000000000000002,1.0999999999999999,0.30000000000000004,0.2
1698924222.033,16,0.0,0.0,0.0,0.0,9.4,1.7000000000000002,1.5000000000000002,0.0,0.1
1698924222.05,16,0.0,0.0,0.0,0.0,9.4,1.7000000000000002,1.3,0.1,0.2
1698924222.066,16,0.0,0.0,0.0,0.0,9.4,1.7000000000000002,0.4,-0.2,0.0
1698924222.084,16,0.0,0.0,0.0,0.0,9.4,1.7000000000000002,-0.6000000000000001,-0.30000000000000004,0.30000000000000004
1698924222.1,16,0.0,0.0,0.0,0.0,9.4,1.7000000000000002,-1.0,-0.2,0.4
1698924222.117,16,0.0,0.0,0.0,0.0,9.4,1.7000000000000002,-0.9,-0.8,0.0
1698924222.133,16,0.0,0.0,0.0,0.0,9.4,1.7000000000000002,-1.0,-0.30000000000000004,0.2
1698924222.15,16,0.0,0.0,0.0,0.0,9.4,1.7000000000000002,-0.8,-0.30000000000000004,0.30000000000000004
1698924222.166,16,0.0,0.0,-0.1,0.0,9.4,1.6,-0.6000000000000001,-0.30000000000000004,0.2
1698924222.184,16,0.0,0.0,0.0,0.0,9.4,1.7000000000000002,-0.5,-0.5,0.30000000000000004
1698924222.2,16,0.0,0.0,0.0,0.0,9.4,1.7000000000000002,-0.4,-0.6000000000000001,0.30000000000000004
1698924222.216,16,0.0,0.0,0.0,0.0,9.3,1.7000000000000002,-0.1,-0.5,0.30000000000000004
1698924222.234,16,0.0,0.0,0.0,0.0,9.3,1.7000000000000002,0.0,-0.2,0.4
1698924222.252,16,0.0,0.0,0.0,0.0,9.3,1.7000000000000002,0.0,-0.4,0.4
1698924222.267,16,0.0,0.0,0.0,0.0,9.4,1.7000000000000002,-0.30000000000000004,-0.30000000000000004,0.4
1698924222.283,16,0.0,0.0,0.0,0.0,9.3,1.7000000000000002,-0.5,-0.6000000000000001,0.2
1698924222.3,16,-0.1,0.0,0.0,-0.1,9.4,1.7000000000000002,-1.0,-0.4,0.2
1698924222.317,16,-0.1,0.1,0.0,-0.1,9.4,1.7000000000000002,-1.0,0.5,-0.6000000000000001
1698924222.333,16,0.0,0.0,0.0,0.0,9.4,1.7000000000000002,-0.7,0.9,-1.5000000000000002
1698924222.349,16,0.0,0.0,0.0,0.0,9.3,1.7000000000000002,-0.30000000000000004,0.30000000000000004,-1.0999999999999999
1698924222.366,16,0.0,0.0,0.0,0.0,9.3,1.7000000000000002,0.5,0.0,0.1
1698924222.385,16,0.1,0.0,0.0,0.1,9.4,1.8,0.9,-0.6000000000000001,1.0
1698924222.399,16,0.0,0.0,0.1,0.0,9.4,1.8,1.2000000000000002,0.2,1.2000000000000002
1698924222.416,16,0.0,0.0,0.0,0.0,9.3,1.7000000000000002,0.9,0.8,1.5000000000000002
1698924222.433,16,0.0,-0.1,0.0,0.0,9.3,1.8,-0.2,0.2,1.0999999999999999
1698924222.449,16,0.1,0.0,0.0,0.1,9.3,1.7000000000000002,-0.8,-0.2,0.30000000000000004
1698924222.466,16,0.0,-0.1,0.0,0.1,9.3,1.7000000000000002,-1.0999999999999999,-0.30000000000000004,0.1
1698924222.484,16,0.0,-0.1,0.0,0.0,9.3,1.7000000000000002,-1.7,-0.30000000000000004,-0.4
1698924222.5,16,-0.1,-0.1,0.0,-0.1,9.200000000000001,1.7000000000000002,-2.0,-0.7,-0.30000000000000004
1698924222.517,16,-0.1,-0.1,0.0,-0.1,9.3,1.7000000000000002,-2.1,-1.0999999999999999,0.2
1698924222.533,16,-0.1,0.0,0.0,0.0,9.4,1.7000000000000002,-1.8,-2.1999999999999997,0.30000000000000004
1698924222.549,16,0.1,0.0,0.0,0.1,9.3,1.7000000000000002,-1.0,-2.0,-0.1
1698924222.566,16,0.1,-0.1,0.0,0.1,9.3,1.7000000000000002,-0.30000000000000004,-1.7,0.0
1698924222.583,16,0.1,-0.1,-0.1,0.2,9.3,1.7000000000000002,0.4,-0.7,0.5
1698924222.6,16,0.1,0.0,0.0,0.1,9.3,1.7000000000000002,0.9,0.9,1.2000000000000002
1698924222.616,16,0.0,0.0,0.0,0.1,9.3,1.7000000000000002,1.0,1.4,1.4
1698924222.634,16,0.0,0.0,0.0,0.0,9.4,1.7000000000000002,1.3,1.6,1.8
1698924222.65,16,0.0,0.0,0.1,0.0,9.3,1.8,1.6,2.1,2.3000000000000003
1698924222.667,16,0.0,-0.1,0.0,0.0,9.3,1.8,1.8,1.9,2.7
1698924222.684,16,0.0,-0.1,0.1,0.1,9.3,1.8,1.8,1.8,2.7
1698924222.699,16,0.0,0.0,0.1,0.1,9.3,1.8,1.7,1.4,2.1999999999999997
1698924222.717,16,-0.1,-0.1,0.0,0.0,9.3,1.8,1.9,1.5000000000000002,1.8
1698924222.733,16,0.0,0.0,0.0,0.0,9.3,1.8,1.8,1.0999999999999999,1.9
1698924222.749,16,0.0,0.0,0.1,0.1,9.3,1.8,2.3000000000000003,1.0,1.7
1698924222.767,16,0.0,0.0,0.0,0.1,9.4,1.7000000000000002,2.1,0.0,2.0
1698924222.783,16,0.0,0.1,0.0,0.1,9.4,1.7000000000000002,1.9,0.0,1.6
1698924222.799,16,-0.1,0.1,0.0,0.0,9.4,1.7000000000000002,2.0,0.0,1.4
1698924222.816,16,-0.1,0.1,0.0,0.0,9.4,1.6,2.0,-0.2,1.4
1698924222.833,16,-0.1,0.0,0.0,0.0,9.3,1.6,1.7,-0.6000000000000001,1.0
1698924222.85,16,0.0,-0.1,0.0,0.0,9.3,1.7000000000000002,1.8,-0.6000000000000001,0.2
1698924222.866,16,0.0,0.0,0.0,0.1,9.3,1.6,1.9,-0.7,0.2
1698924222.883,16,0.0,0.0,0.0,0.1,9.3,1.6,2.3000000000000003,-0.1,0.9
1698924222.899,16,0.0,-0.1,0.0,0.1,9.200000000000001,1.6,2.7,-0.6000000000000001,1.0999999999999999
1698924222.916,16,0.0,0.0,0.0,0.1,9.3,1.6,3.1,-1.3,1.7
1698924222.933,16,0.0,0.0,0.0,0.1,9.4,1.6,2.8,-0.9,1.9
1698924222.949,16,0.0,0.1,0.0,0.1,9.4,1.6,2.6,-0.30000000000000004,1.9
1698924222.966,16,0.0,0.1,0.0,0.1,9.4,1.6,2.9,-0.5,1.3
1698924222.984,16,0.0,0.1,0.0,0.1,9.4,1.6,2.9,-0.5,1.0999999999999999
1698924223.0,16,0.0,0.0,0.0,0.1,9.4,1.6,2.8,-0.5,0.8
1698924223.016,16,0.0,0.0,0.0,0.1,9.4,1.6,2.8,-0.1,0.8
1698924223.033,16,0.0,0.0,0.0,0.1,9.4,1.6,2.9,0.30000000000000004,0.7
1698924223.052,16,0.0,-0.1,0.0,0.1,9.3,1.6,3.1,0.0,0.6000000000000001
1698924223.067,16,0.0,0.0,0.0,0.1,9.3,1.6,3.4,-0.5,0.5
1698924223.084,16,0.0,0.0,0.0,0.1,9.4,1.5,3.1,-0.30000000000000004,0.7
1698924223.1,16,0.0,0.0,0.0,0.1,9.3,1.5,2.5,0.4,1.0
1698924223.116,16,0.0,0.0,-0.1,0.1,9.4,1.5,2.5,-0.7,0.5
1698924223.133,16,0.0,0.0,-0.1,0.1,9.4,1.5,2.3000000000000003,-1.3,0.30000000000000004
1698924223.15,16,0.0,0.1,0.0,0.2,9.4,1.5,1.8,-1.0999999999999999,0.0
1698924223.166,16,0.0,0.1,-0.1,0.2,9.5,1.5,1.7,-0.6000000000000001,-0.2
1698924223.183,16,0.1,0.1,0.0,0.2,9.5,1.5,1.5000000000000002,-0.30000000000000004,-0.30000000000000004
1698924223.199,16,0.1,0.1,-0.1,0.2,9.5,1.5,0.9,2.9,0.2
1698924223.216,16,0.0,0.0,-0.1,0.1,9.4,1.4000000000000001,1.5000000000000002,4.300000000000001,0.4
1698924223.233,16,0.0,0.0,0.0,0.1,9.4,1.4000000000000001,2.3000000000000003,3.0000000000000004,0.6000000000000001
1698924223.249,16,0.0,0.0,0.0,0.1,9.4,1.4000000000000001,3.2,0.4,0.5
1698924223.266,16,0.0,0.0,0.0,0.1,9.4,1.4000000000000001,3.4,0.0,-0.1
1698924223.283,16,0.0,0.0,0.0,0.1,9.4,1.4000000000000001,3.1,0.2,-0.2
1698924223.299,16,0.0,0.0,0.0,0.1,9.4,1.4000000000000001,2.5,0.0,-0.30000000000000004
1698924223.316,16,0.0,0.1,0.0,0.1,9.5,1.4000000000000001,1.5000000000000002,-0.2,-0.4
1698924223.334,16,0.0,0.0,0.0,0.1,9.5,1.4000000000000001,0.7,0.0,0.0
1698924223.35,16,0.0,0.0,0.0,0.1,9.4,1.4000000000000001,0.6000000000000001,-0.2,-0.1
1698924223.367,16,0.0,0.0,0.0,0.1,9.5,1.4000000000000001,0.4,-0.30000000000000004,-0.1
1698924223.385,16,0.0,0.0,-0.1,0.1,9.4,1.4000000000000001,-0.5,-1.0,-0.30000000000000004
1698924223.4,16,0.0,0.0,0.0,0.1,9.5,1.4000000000000001,-0.8,-1.3,-0.4
1698924223.416,16,0.0,0.1,-0.1,0.1,9.5,1.4000000000000001,-1.0999999999999999,-1.3,-0.5
1698924223.433,16,0.0,0.1,-0.1,0.1,9.5,1.4000000000000001,-1.5000000000000002,-1.0999999999999999,-0.6000000000000001
1698924223.45,16,0.0,0.0,-0.1,0.2,9.5,1.3,-1.8,-0.9,-0.7
1698924223.466,16,0.0,0.0,-0.1,0.2,9.4,1.4000000000000001,-2.0,-1.0999999999999999,-0.7
1698924223.484,16,0.0,0.0,-0.1,0.2,9.4,1.4000000000000001,-2.0,-1.0,-0.6000000000000001
1698924223.5,16,0.1,0.0,0.0,0.2,9.4,1.4000000000000001,-1.4,-0.5,-0.7
1698924223.516,16,0.1,-0.1,0.0,0.2,9.4,1.4000000000000001,-0.7,0.1,-0.6000000000000001
1698924223.534,16,0.0,-0.1,0.1,0.2,9.4,1.5,-0.2,0.2,-0.4
1698924223.55,16,0.0,0.0,0.1,0.1,9.4,1.5,0.5,0.30000000000000004,-0.30000000000000004
1698924223.566,16,0.0,-0.1,0.1,0.1,9.3,1.5,0.5,0.7,-0.7
1698924223.582,16,0.0,0.0,0.1,0.1,9.4,1.5,-0.2,1.0999999999999999,-0.7
1698924223.6,16,0.0,0.0,0.1,0.1,9.4,1.5,-0.8,0.8,-0.9
1698924223.616,16,-0.1,-0.1,0.1,0.1,9.3,1.5,-1.6,0.4,-0.9
1698924223.632,16,-0.1,-0.1,0.1,0.0,9.3,1.5,-2.1999999999999997,-0.30000000000000004,-0.7
1698924223.649,16,-0.1,-0.1,0.0,0.1,9.3,1.5,-2.3000000000000003,-0.4,-0.9
1698924223.666,16,-0.1,-0.1,0.0,0.0,9.3,1.5,-1.9,-0.6000000000000001,-1.0
1698924223.682,16,-0.1,-0.1,0.0,0.0,9.3,1.5,-1.8,-0.8,-0.7
1698924223.7,16,0.0,0.0,0.0,0.0,9.3,1.5,-0.9,-1.2000000000000002,-0.4
1698924223.716,16,0.0,0.0,0.0,0.1,9.4,1.5,-0.2,-1.0999999999999999,-0.1
1698924223.733,16,0.0,0.0,0.0,0.1,9.4,1.5,0.4,-1.2000000000000002,0.1
1698924223.75,16,0.0,0.0,0.0,0.1,9.4,1.5,0.6000000000000001,-1.2000000000000002,0.0
1698924223.766,16,0.0,0.0,0.0,0.1,9.4,1.5,0.30000000000000004,-0.9,0.0
1698924223.782,16,0.0,0.0,0.0,0.1,9.4,1.5,0.1,-0.2,0.30000000000000004
1698924223.799,16,0.0,0.0,0.0,0.1,9.4,1.5,0.1,0.0,0.4
1698924223.816,16,0.0,0.0,0.0,0.1,9.4,1.5,-0.30000000000000004,0.0,0.4
1698924223.832,16,0.0,0.0,0.0,0.1,9.4,1.5,0.0,-0.2,0.4
1698924223.849,16,0.0,0.0,0.0,0.1,9.4,1.5,0.0,-0.4,0.30000000000000004
1698924223.866,16,0.0,0.0,0.0,0.1,9.4,1.5,0.30000000000000004,-0.6000000000000001,0.2
1698924223.883,16,0.0,0.0,0.0,0.1,9.4,1.5,0.7,-0.4,0.1
1698924223.899,16,0.0,0.0,0.0,0.1,9.4,1.5,0.8,0.1,0.4
1698924223.916,16,0.0,-0.1,0.0,0.1,9.3,1.5,0.8,-0.1,0.2
1698924223.933,16,0.0,-0.1,0.0,0.1,9.3,1.5,0.7,-0.30000000000000004,-0.1
1698924223.95,16,0.0,-0.1,0.0,0.1,9.3,1.5,0.30000000000000004,-0.1,0.0
1698924223.967,16,0.0,-0.1,0.0,0.1,9.3,1.4000000000000001,0.7,-0.2,0.4
1698924223.982,16,0.0,-0.1,0.0,0.1,9.3,1.5,1.2000000000000002,-0.7,0.0
1698924223.999,16,0.0,0.0,0.0,0.1,9.3,1.5,1.7,-0.8,-0.1
1698924224.016,16,0.1,0.0,0.0,0.2,9.4,1.5,2.5,-0.2,-0.1
1698924224.033,16,0.0,0.1,0.1,0.1,9.4,1.5,2.0,0.8,-0.30000000000000004
1698924224.049,16,0.1,0.0,0.1,0.2,9.4,1.5,1.4,0.9,-0.4
1698924224.067,16,0.0,0.1,0.0,0.1,9.5,1.5,-0.4,1.3,-0.5
1698924224.083,16,0.0,0.1,0.0,0.1,9.5,1.4000000000000001,-2.4000000000000004,1.6,0.0
1698924224.1,16,0.0,0.1,-0.1,0.1,9.5,1.4000000000000001,-3.2,1.5000000000000002,0.30000000000000004
1698924224.116,16,0.0,0.1,-0.1,0.1,9.5,1.4000000000000001,-3.8,1.0999999999999999,0.1
1698924224.133,16,0.0,0.0,-0.1,0.1,9.4,1.4000000000000001,-3.6,1.3,0.0
1698924224.149,16,-0.1,0.0,-0.1,0.0,9.3,1.4000000000000001,-2.1,1.6,0.8
1698924224.166,16,-0.1,-0.1,-0.1,0.0,9.3,1.3,-0.8,0.9,0.7
1698924224.183,16,0.0,0.0,-0.1,0.1,9.4,1.4000000000000001,1.5000000000000002,0.0,0.5
1698924224.2,16,0.0,0.0,-0.1,0.1,9.4,1.4000000000000001,2.5,-0.30000000000000004,0.5
1698924224.216,16,0.0,0.0,0.1,0.1,9.4,1.5,3.7000000000000006,-0.5,0.8
1698924224.233,16,0.0,0.0,0.1,0.1,9.3,1.6,4.5,0.0,1.0999999999999999
1698924224.25,16,0.0,-0.1,0.1,0.1,9.3,1.6,4.3999999999999995,-0.2,1.0
1698924224.274,16,0.0,0.0,0.1,0.1,9.4,1.6,2.4000000000000004,-1.0999999999999999,0.0
1698924224.282,16,0.0,0.0,0.1,0.1,9.4,1.6,1.0999999999999999,-1.3,-0.7
1698924224.299,16,0.1,0.1,0.2,0.2,9.5,1.6,-1.3,-1.2000000000000002,-1.5000000000000002
1698924224.317,16,-0.1,0.1,0.0,0.0,9.4,1.5,-1.6,-1.6,-2.1999999999999997
1698924224.333,16,0.0,0.0,0.0,0.1,9.4,1.4000000000000001,-3.5,-0.4,-0.30000000000000004
1698924224.349,16,0.0,0.0,0.0,0.1,9.4,1.4000000000000001,-3.7000000000000006,-0.30000000000000004,0.0
1698924224.366,16,0.0,0.0,-0.2,0.1,9.4,1.3,-3.0000000000000004,0.1,0.6000000000000001
1698924224.383,16,0.0,0.0,-0.1,0.1,9.4,1.3,-1.6,-0.2,0.0
1698924224.399,16,0.0,0.0,-0.1,0.1,9.4,1.4000000000000001,0.7,0.1,0.2
1698924224.416,16,0.0,0.0,-0.1,0.1,9.4,1.3,2.0,0.2,0.5
1698924224.433,16,-0.1,0.0,-0.1,0.0,9.4,1.4000000000000001,3.4,0.0,0.7
1698924224.449,16,0.0,0.0,0.0,0.1,9.3,1.5,5.4,-0.6000000000000001,0.5
1698924224.467,16,0.0,0.0,0.1,0.1,9.4,1.5,5.8,-1.0999999999999999,0.4
1698924224.484,16,0.0,0.0,0.1,0.1,9.4,1.5,5.300000000000001,-0.5,0.4
1698924224.5,16,0.0,0.0,0.1,0.1,9.4,1.5,3.1,-0.6000000000000001,0.4
1698924224.516,16,0.0,0.0,0.1,0.1,9.4,1.5,1.8,-0.4,0.1
1698924224.533,16,0.0,0.0,0.1,0.1,9.4,1.5,-0.8,-0.5,-0.30000000000000004
1698924224.549,16,0.0,0.0,0.0,0.1,9.4,1.4000000000000001,-2.9,0.5,0.0
1698924224.566,16,0.0,0.0,0.0,0.1,9.4,1.4000000000000001,-3.1,0.9,0.1
1698924224.583,16,0.0,0.0,-0.1,0.1,9.4,1.3,-2.4000000000000004,0.8,-0.1
1698924224.599,16,0.0,0.0,-0.1,0.1,9.4,1.3,-0.9,0.4,-0.1
1698924224.616,16,0.0,0.0,-0.1,0.1,9.4,1.3,0.0,0.30000000000000004,0.0
1698924224.633,16,0.0,0.0,-0.1,0.2,9.4,1.3,1.5000000000000002,0.2,0.1
1698924224.649,16,0.1,0.0,0.0,0.2,9.4,1.4000000000000001,2.6,-0.30000000000000004,0.5
1698924224.666,16,0.0,0.0,0.0,0.1,9.4,1.4000000000000001,2.6,-0.6000000000000001,0.9
1698924224.684,16,0.0,0.0,0.0,0.1,9.4,1.4000000000000001,2.7,0.2,1.3
1698924224.699,16,0.0,0.0,0.1,0.1,9.4,1.4000000000000001,1.3,0.4,0.8
1698924224.716,16,-0.1,0.0,0.1,0.1,9.4,1.5,0.7,0.6000000000000001,0.4
1698924224.733,16,0.0,0.0,0.0,0.1,9.4,1.4000000000000001,-0.1,0.8,0.0
1698924224.749,16,0.0,0.0,0.0,0.1,9.4,1.4000000000000001,-0.5,0.8,0.0
1698924224.766,16,0.0,0.0,0.0,0.1,9.4,1.4000000000000001,-0.8,0.1,0.4
1698924224.782,16,0.0,0.0,0.0,0.2,9.4,1.4000000000000001,-0.8,-0.30000000000000004,0.8
1698924224.799,16,0.0,0.0,0.0,0.1,9.4,1.4000000000000001,-0.7,-0.4,1.0
1698924224.816,16,-0.1,0.0,0.0,0.0,9.4,1.4000000000000001,-0.4,0.2,0.4
1698924224.833,16,0.0,0.0,0.0,0.1,9.4,1.4000000000000001,-0.1,0.0,0.1
1698924224.849,16,0.0,0.0,0.0,0.1,9.4,1.4000000000000001,0.6000000000000001,-0.2,0.2
1698924224.866,16,0.0,0.0,0.0,0.1,9.4,1.3,0.9,-0.2,0.30000000000000004
1698924224.883,16,0.0,0.0,-0.1,0.1,9.4,1.3,1.2000000000000002,-0.5,0.4
1698924224.899,16,0.0,0.0,0.0,0.1,9.4,1.4000000000000001,1.4,-0.4,0.5
1698924224.916,16,0.0,0.0,0.0,0.1,9.4,1.3,1.5000000000000002,-0.8,0.4
1698924224.933,16,0.0,0.0,0.0,0.1,9.4,1.4000000000000001,1.4,-0.7,0.4
1698924224.949,16,0.0,0.0,0.0,0.1,9.4,1.4000000000000001,1.4,-1.0999999999999999,0.2
1698924224.966,16,0.0,0.0,0.0,0.1,9.4,1.4000000000000001,1.2000000000000002,-1.2000000000000002,-0.1
1698924224.985,16,0.0,0.1,0.0,0.1,9.5,1.4000000000000001,0.7,-0.9,0.0
1698924224.999,16,0.0,0.0,0.0,0.1,9.4,1.4000000000000001,0.2,-0.4,0.2
1698924225.016,16,0.0,0.0,0.0,0.1,9.4,1.3,0.0,-0.6000000000000001,0.1
1698924225.033,16,0.0,0.0,0.0,0.1,9.4,1.3,-0.4,-1.4,-0.1
1698924225.05,16,0.0,0.0,0.0,0.1,9.4,1.3,-0.7,-0.8,0.2
1698924225.066,16,0.0,0.0,-0.1,0.1,9.4,1.3,-0.8,-0.2,0.5
1698924225.083,16,-0.1,0.0,-0.1,0.1,9.4,1.3,-0.5,-0.6000000000000001,0.4
1698924225.099,16,0.0,0.0,-0.1,0.2,9.4,1.3,-0.1,-0.9,0.0
1698924225.116,16,0.0,0.0,0.0,0.2,9.4,1.3,0.0,-1.0,0.0
1698924225.133,16,0.0,0.0,0.0,0.2,9.4,1.4000000000000001,0.6000000000000001,-0.30000000000000004,0.4
1698924225.154,16,0.0,0.0,0.0,0.1,9.4,1.4000000000000001,1.4,-0.4,0.4
1698924225.166,16,0.0,0.0,0.0,0.1,9.3,1.4000000000000001,1.9,-0.4,0.2
1698924225.184,16,0.0,-0.1,0.0,0.1,9.3,1.4000000000000001,2.1,-0.6000000000000001,0.2
1698924225.199,16,0.0,-0.1,0.1,0.2,9.3,1.4000000000000001,1.9,-0.2,0.4
1698924225.216,16,0.0,-0.1,0.1,0.2,9.3,1.4000000000000001,1.5000000000000002,0.30000000000000004,0.5
1698924225.233,16,0.0,-0.1,0.1,0.2,9.3,1.4000000000000001,1.0999999999999999,0.9,0.7
1698924225.251,16,0.0,-0.1,0.0,0.1,9.3,1.4000000000000001,1.6,0.9,0.7
1698924225.266,16,0.0,-0.1,0.1,0.1,9.3,1.4000000000000001,2.0,0.7,0.7
1698924225.284,16,0.0,-0.1,0.0,0.1,9.200000000000001,1.3,3.4,0.1,0.6000000000000001
1698924225.299,16,0.0,-0.1,0.0,0.1,9.3,1.4000000000000001,3.9,0.0,0.7
1698924225.316,16,0.0,0.0,0.0,0.2,9.3,1.3,4.2,-0.2,0.7
1698924225.333,16,0.0,0.0,0.0,0.2,9.4,1.3,4.2,-0.5,0.7
1698924225.349,16,0.0,0.1,0.1,0.1,9.5,1.3,4.2,-0.5,0.7
1698924225.366,16,0.0,0.1,0.0,0.1,9.5,1.3,3.9,-1.0,0.8
1698924225.383,16,0.0,0.0,0.1,0.1,9.4,1.3,3.7000000000000006,-1.0999999999999999,0.8
1698924225.399,16,0.0,0.0,0.0,0.1,9.3,1.3,3.8,-1.0999999999999999,0.6000000000000001
1698924225.416,16,0.0,-0.1,0.0,0.1,9.200000000000001,1.2000000000000002,3.0000000000000004,-1.3,0.5
1698924225.433,16,0.0,-0.1,0.0,0.2,9.3,1.2000000000000002,3.0000000000000004,-1.2000000000000002,0.5
1698924225.449,16,0.0,-0.1,0.0,0.2,9.3,1.2000000000000002,3.1,-1.8,0.7
1698924225.466,16,0.0,0.0,0.0,0.2,9.4,1.2000000000000002,2.9,-2.3000000000000003,1.0
1698924225.482,16,0.0,0.0,-0.1,0.2,9.4,1.1,3.4,-1.6,1.3
1698924225.499,16,0.0,0.0,0.0,0.2,9.4,1.2000000000000002,3.6,-1.9,1.0999999999999999
1698924225.516,16,0.0,0.1,-0.1,0.2,9.5,1.1,4.1000000000000005,-1.8,0.8
1698924225.532,16,0.0,0.1,0.0,0.2,9.5,1.2000000000000002,4.2,-1.7,0.8
1698924225.549,16,0.0,0.1,0.0,0.2,9.5,1.1,4.7,-1.7,1.0
1698924225.566,16,0.0,0.0,0.0,0.1,9.4,1.1,4.800000000000001,-1.6,1.3
1698924225.582,16,-0.1,0.0,0.0,0.1,9.4,1.2000000000000002,5.0,-1.6,1.0999999999999999
1698924225.599,16,0.0,-0.1,0.0,0.1,9.4,1.1,5.1,-1.9,0.5
1698924225.616,16,0.0,0.0,-0.1,0.2,9.4,1.1,4.5,-2.0,0.4
1698924225.632,16,0.0,0.0,-0.1,0.2,9.4,1.0,4.0,-2.0,0.30000000000000004
1698924225.649,16,0.0,0.1,0.0,0.2,9.5,1.1,2.9,-1.7,0.30000000000000004
1698924225.667,16,0.1,0.1,-0.1,0.30000000000000004,9.5,1.0,2.5,-1.7,0.4
1698924225.683,16,0.0,0.1,-0.1,0.30000000000000004,9.5,1.0,2.1,-1.3,0.7
1698924225.699,16,0.0,0.0,-0.1,0.30000000000000004,9.5,1.0,1.4,0.1,1.0
1698924225.716,16,0.0,-0.1,-0.1,0.30000000000000004,9.4,1.0,1.7,-0.2,1.0
1698924225.733,16,0.0,0.1,-0.1,0.2,9.4,1.0,1.9,-0.8,1.0
1698924225.75,16,0.0,0.1,-0.1,0.2,9.5,0.9,2.3000000000000003,-1.0999999999999999,0.8
1698924225.766,16,0.0,0.0,-0.1,0.2,9.5,1.0,2.6,-1.0999999999999999,0.7
1698924225.783,16,0.0,0.0,-0.1,0.2,9.4,1.0,3.7000000000000006,-0.5,0.8
1698924225.799,16,0.0,0.0,0.0,0.2,9.4,1.0,4.1000000000000005,-0.9,0.7
1698924225.816,16,0.0,-0.1,0.0,0.2,9.4,1.0,4.7,-1.9,0.5
1698924225.832,16,0.0,0.0,0.0,0.30000000000000004,9.4,1.0,5.0,-3.1,0.4
1698924225.849,16,0.0,0.1,-0.1,0.2,9.5,0.9,4.7,-3.0000000000000004,0.2
1698924225.867,16,0.1,0.1,-0.2,0.30000000000000004,9.600000000000001,0.7000000000000001,2.3000000000000003,-4.1000000000000005,-0.1
1698924225.882,16,0.1,0.2,-0.30000000000000004,0.30000000000000004,9.600000000000001,0.6000000000000001,0.4,-4.9,-0.6000000000000001
1698924225.9,16,0.0,0.30000000000000004,-0.2,0.30000000000000004,9.8,0.7000000000000001,-4.7,-7.400000000000001,-0.7
1698924225.916,16,0.0,0.6000000000000001,-0.1,0.30000000000000004,10.0,0.8,-7.2,-9.0,-1.7
1698924225.934,16,0.1,0.6000000000000001,-0.30000000000000004,0.30000000000000004,10.100000000000001,0.7000000000000001,-8.200000000000001,-9.5,-2.4000000000000004
1698924225.95,16,0.1,0.5,-0.2,0.30000000000000004,9.9,0.7000000000000001,-12.700000000000001,-10.600000000000001,-4.300000000000001
1698924225.966,16,0.0,0.4,-0.2,0.2,9.9,0.9,-14.800000000000002,-8.600000000000001,-4.7
1698924225.983,16,0.0,0.30000000000000004,-0.2,0.2,9.8,0.9,-15.299999999999999,-6.6000000000000005,-4.2
1698924226.0,16,-0.1,0.0,-0.6000000000000001,0.1,9.5,0.5,-17.3,-1.4,-2.8
1698924226.016,16,-0.1,0.1,-0.6000000000000001,0.1,9.5,0.6000000000000001,-21.400000000000002,-4.7,-2.4000000000000004
1698924226.034,16,0.0,0.7000000000000001,-0.4,0.1,9.8,0.8,-22.000000000000004,-6.000000000000001,-2.5
1698924226.049,16,0.1,1.0,-0.30000000000000004,0.2,10.4,0.9,-20.3,-5.8,-2.9
1698924226.066,16,0.1,1.3,-0.2,0.30000000000000004,10.8,1.1,-17.8,-3.7000000000000006,-2.4000000000000004
1698924226.083,16,0.2,1.3,-0.4,0.4,10.700000000000001,1.0,-17.1,-2.5,-2.8
1698924226.099,16,0.30000000000000004,1.0,-0.5,0.4,10.4,0.9,-19.6,-2.8,-5.1
1698924226.116,16,0.1,0.7000000000000001,-0.5,0.30000000000000004,10.200000000000001,1.0,-26.200000000000003,-1.7,-5.8
1698924226.133,16,0.1,0.7000000000000001,-0.5,0.30000000000000004,10.100000000000001,1.1,-30.200000000000003,-1.2000000000000002,-5.9
1698924226.15,16,0.0,0.8,-0.4,0.1,10.200000000000001,1.2000000000000002,-39.1,-1.0999999999999999,-6.9
1698924226.166,16,-0.1,0.8,-0.5,0.0,10.200000000000001,1.3,-47.800000000000004,-0.8,-7.2
1698924226.183,16,0.0,0.8,-0.8,0.1,10.100000000000001,1.2000000000000002,-57.5,1.5000000000000002,-7.1000000000000005
1698924226.199,16,0.0,0.8,-1.0,0.1,10.200000000000001,1.0,-63.4,3.0000000000000004,-7.6
1698924226.216,16,0.0,1.0,-1.0,0.0,10.3,1.3,-74.30000000000001,5.0,-8.700000000000001
1698924226.232,16,-0.2,1.1,-1.6,-0.2,10.3,0.9,-80.9,7.699999999999999,-9.200000000000001
1698924226.249,16,-0.2,1.0,-1.9000000000000001,-0.2,10.200000000000001,0.8,-85.60000000000001,8.0,-9.1
1698924226.272,16,-0.1,0.9,-1.9000000000000001,-0.2,9.9,1.3,-91.0,5.7,-7.6
1698924226.283,16,-0.1,1.1,-2.0,-0.2,10.200000000000001,1.2000000000000002,-90.6,4.300000000000001,-7.6
1698924226.299,16,-0.1,1.3,-1.8,-0.1,10.3,1.8,-91.2,6.1000000000000005,-7.400000000000001
1698924226.316,16,0.1,1.4000000000000001,-1.6,0.0,10.3,2.0,-85.5,9.0,-7.0
1698924226.333,16,0.4,1.5,-1.6,0.30000000000000004,10.3,2.2,-77.7,6.7,-10.3
1698924226.349,16,0.5,1.7000000000000002,-0.7000000000000001,0.30000000000000004,10.4,3.3000000000000003,-74.60000000000001,13.0,-12.8
1698924226.366,16,0.6000000000000001,1.9000000000000001,-0.7000000000000001,0.30000000000000004,10.600000000000001,3.5,-72.10000000000001,15.5,-12.6
1698924226.382,16,0.6000000000000001,1.9000000000000001,0.4,0.30000000000000004,10.5,4.800000000000001,-71.6,13.3,-12.8
1698924226.4,16,0.6000000000000001,1.9000000000000001,0.9,0.2,10.4,5.7,-70.5,13.9,-12.100000000000001
1698924226.416,16,0.5,1.6,0.9,0.1,10.100000000000001,5.6000000000000005,-71.7,14.4,-9.8
1698924226.432,16,0.4,0.5,0.9,0.0,8.8,5.800000000000001,-80.2,16.400000000000002,-10.2
1698924226.449,16,0.30000000000000004,-0.2,0.7000000000000001,-0.5,7.300000000000001,6.1000000000000005,-81.9,25.400000000000002,-10.8
1698924226.466,16,-0.2,-1.2000000000000002,1.0,-0.7000000000000001,6.9,6.300000000000001,-76.0,28.900000000000002,-8.5
1698924226.484,16,-0.1,-1.4000000000000001,0.9,-0.7000000000000001,6.5,6.4,-54.0,20.6,-1.6
1698924226.499,16,0.1,-1.8,0.8,-0.5,6.1000000000000005,6.300000000000001,-33.300000000000004,8.9,2.8
1698924226.517,16,0.2,-2.1,0.6000000000000001,-0.5,5.7,6.2,-26.1,7.0,3.4
1698924226.533,16,0.2,-2.2,0.8,-0.5,5.6000000000000005,6.4,-17.400000000000002,6.6000000000000005,4.800000000000001
1698924226.55,16,0.30000000000000004,-1.9000000000000001,1.0,-0.2,6.4,7.2,-14.3,4.800000000000001,5.7
1698924226.566,16,0.1,-0.7000000000000001,1.7000000000000002,-0.4,7.0,7.4,-8.4,1.5000000000000002,8.700000000000001
1698924226.583,16,-0.1,0.1,1.5,-0.6000000000000001,7.800000000000001,7.300000000000001,-9.0,0.5,13.4
1698924226.599,16,-0.1,0.2,1.5,-0.6000000000000001,7.9,7.300000000000001,-11.3,2.5,13.0
1698924226.617,16,-0.1,0.1,1.5,-0.6000000000000001,7.800000000000001,7.300000000000001,-11.000000000000002,6.4,10.8
1698924226.633,16,-0.1,0.1,1.5,-0.6000000000000001,7.800000000000001,7.300000000000001,-4.2,8.600000000000001,12.3
1698924226.65,16,-0.2,-0.1,1.6,-0.7000000000000001,7.6000000000000005,7.4,-0.6000000000000001,9.9,13.100000000000001
1698924226.666,16,-0.1,-0.30000000000000004,1.7000000000000002,-0.6000000000000001,7.4,7.6000000000000005,7.699999999999999,9.9,15.100000000000001
1698924226.683,16,0.0,-0.30000000000000004,1.8,-0.5,7.5,7.6000000000000005,12.3,10.1,15.399999999999999
1698924226.699,16,0.2,-0.2,1.6,-0.30000000000000004,7.6000000000000005,7.4,12.8,9.9,13.100000000000001
1698924226.716,16,0.0,-0.1,1.6,-0.4,7.7,7.4,12.9,10.1,12.9
1698924226.733,16,-0.30000000000000004,0.4,1.6,-0.7000000000000001,8.1,7.4,16.6,12.5,12.8
1698924226.749,16,-0.5,0.5,1.2000000000000002,-0.9,8.4,6.9,22.000000000000004,8.600000000000001,10.2
1698924226.766,16,-0.6000000000000001,0.6000000000000001,1.2000000000000002,-1.0,8.4,6.9,23.3,9.1,9.200000000000001
1698924226.782,16,-0.7000000000000001,0.5,1.0,-1.2000000000000002,8.4,6.6000000000000005,26.700000000000003,10.8,7.699999999999999
1698924226.799,16,-0.9,0.30000000000000004,0.9,-1.3,8.3,6.4,27.3,9.4,6.9
1698924226.816,16,-0.8,0.4,0.7000000000000001,-1.3,8.4,6.300000000000001,28.0,9.200000000000001,6.3
1698924226.833,16,-0.7000000000000001,0.4,0.8,-1.2000000000000002,8.5,6.2,30.4,9.1,5.500000000000001
1698924226.849,16,-0.30000000000000004,0.4,0.4,-0.8,8.6,5.7,35.199999999999996,9.1,5.1
1698924226.866,16,-0.1,0.4,0.2,-0.6000000000000001,8.6,5.5,36.4,6.6000000000000005,4.1000000000000005
1698924226.883,16,-0.1,0.30000000000000004,0.30000000000000004,-0.6000000000000001,8.5,5.5,38.5,5.0,4.6000000000000005
1698924226.899,16,-0.30000000000000004,0.30000000000000004,0.2,-0.8,8.6,5.300000000000001,42.900000000000006,7.2,8.1
1698924226.916,16,-0.5,0.2,-0.1,-0.9,8.6,5.0,44.4,6.7,8.600000000000001
1698924226.935,16,-0.5,-0.1,-0.5,-0.9,8.4,4.4,45.2,2.3000000000000003,7.1000000000000005
1698924226.949,16,-0.4,-0.2,-0.8,-0.8,8.3,3.9000000000000004,45.9,-0.30000000000000004,5.4
1698924226.968,16,-0.5,-0.2,-0.6000000000000001,-0.9,8.3,4.0,46.4,0.5,5.6
1698924226.985,16,-0.5,-0.1,-0.8,-0.9,8.5,3.7,51.2,2.1,8.200000000000001
1698924226.999,16,-0.5,-0.30000000000000004,-0.6000000000000001,-0.9,8.4,3.8000000000000003,53.50000000000001,-1.9,10.1
1698924227.016,16,-0.4,-0.4,-0.8,-0.8,8.4,3.5,55.0,-0.9,11.1
1698924227.034,16,-0.4,-0.9,-0.9,-0.7000000000000001,7.9,3.2,54.5,-3.4,11.8
1698924227.049,16,-0.30000000000000004,-1.3,-1.1,-0.6000000000000001,7.6000000000000005,2.9000000000000004,54.1,-2.4000000000000004,12.100000000000001
1698924227.066,16,-0.2,-1.9000000000000001,-1.7000000000000002,-0.4,7.0,2.1,50.6,-6.2,12.4
1698924227.083,16,-0.30000000000000004,-2.6,-1.5,-0.5,6.300000000000001,2.2,44.9,-1.5000000000000002,12.5
1698924227.099,16,-0.30000000000000004,-3.4000000000000004,-1.3,-0.5,5.6000000000000005,2.2,45.800000000000004,7.699999999999999,15.5
1698924227.116,16,-0.30000000000000004,-3.7,-1.5,-0.4,5.300000000000001,1.9000000000000001,48.2,8.0,17.5
1698924227.133,16,-0.1,-4.1000000000000005,-1.8,-0.2,4.9,1.5,49.8,-2.8,18.8
1698924227.149,16,-0.1,-4.4,-1.6,-0.2,4.7,1.5,47.5,-8.5,18.8
1698924227.166,16,-0.2,-4.4,-1.4000000000000001,-0.2,4.7,1.6,46.800000000000004,-5.500000000000001,19.1
1698924227.183,16,-0.30000000000000004,-4.4,-0.9,-0.2,4.6000000000000005,2.0,48.00000000000001,5.300000000000001,20.1
1698924227.199,16,-0.30000000000000004,-4.4,0.0,-0.2,4.7,2.7,56.7,9.600000000000001,20.900000000000002
1698924227.216,16,-0.30000000000000004,-4.2,0.4,-0.2,4.9,3.0,63.900000000000006,8.5,20.5
1698924227.234,16,-0.30000000000000004,-3.6,1.2000000000000002,-0.1,5.5,3.5,74.4,-0.8,19.6
1698924227.249,16,-0.1,-2.6,2.2,0.2,6.6000000000000005,4.3,71.8,-12.200000000000001,20.2
1698924227.266,16,-0.1,-1.8,2.7,0.30000000000000004,7.4,4.7,65.2,-15.000000000000002,21.0
1698924227.283,16,-0.1,0.1,2.4000000000000004,0.30000000000000004,9.3,4.3,40.8,-13.5,21.400000000000002
1698924227.299,16,0.2,1.7000000000000002,1.2000000000000002,0.6000000000000001,10.9,3.1,5.9,-19.1,15.299999999999999
1698924227.316,16,0.4,2.2,0.9,1.1,11.8,2.8000000000000003,-9.1,-22.5,10.0
1698924227.333,16,0.8,2.7,0.8,1.3,11.9,2.8000000000000003,-26.0,-16.1,-1.4
1698924227.35,16,1.0,1.7000000000000002,-0.1,1.5,11.0,2.0,-30.5,-0.7,-11.000000000000002
1698924227.366,16,1.1,0.9,-0.5,1.6,10.100000000000001,1.7000000000000002,-32.4,1.3,-12.8
1698924227.388,16,1.4000000000000001,-0.4,-0.4,1.9000000000000001,8.8,1.9000000000000001,-28.6,10.2,-7.500000000000001
1698924227.399,16,1.5,-0.2,-0.8,1.9000000000000001,9.0,1.6,-24.5,8.3,-5.0
1698924227.416,16,1.3,0.1,-0.7000000000000001,1.7000000000000002,9.200000000000001,1.6,-20.5,2.7,-3.4
1698924227.433,16,0.8,0.2,-0.8,1.3,9.4,1.6,-10.8,-2.1,1.5000000000000002
1698924227.449,16,0.7000000000000001,0.1,-0.9,1.2000000000000002,9.200000000000001,1.5,-1.0,-6.6000000000000005,5.8
1698924227.466,16,0.6000000000000001,-0.30000000000000004,-0.7000000000000001,1.2000000000000002,9.0,1.6,3.5,-11.4,6.000000000000001
1698924227.482,16,0.5,-0.5,-0.7000000000000001,1.0,8.700000000000001,1.6,11.4,-16.2,3.6
1698924227.499,16,0.5,-0.5,-0.4,1.0,8.700000000000001,1.8,16.5,-19.6,0.7
1698924227.516,16,0.5,-0.2,-0.30000000000000004,1.1,9.0,1.9000000000000001,20.900000000000002,-22.1,-2.4000000000000004
1698924227.534,16,0.5,-0.1,-0.2,1.1,9.1,1.9000000000000001,21.5,-21.0,-3.2
1698924227.549,16,0.7000000000000001,0.0,-0.30000000000000004,1.3,9.200000000000001,1.8,18.8,-16.400000000000002,-6.9
1698924227.568,16,0.9,0.1,0.0,1.4000000000000001,9.3,2.1,16.900000000000002,-13.9,-10.3
1698924227.583,16,1.3,0.4,0.0,1.9000000000000001,9.700000000000001,2.0,15.100000000000001,-7.1000000000000005,-16.400000000000002
1698924227.599,16,0.9,0.8,0.5,1.4000000000000001,10.100000000000001,2.5,13.9,-11.3,-12.6
1698924227.616,16,-0.4,0.6000000000000001,1.1,0.1,9.9,3.1,16.0,-8.600000000000001,2.8
1698924227.632,16,-1.0,0.30000000000000004,1.2000000000000002,-0.5,9.600000000000001,3.1,16.0,-1.6,6.000000000000001
1698924227.65,16,-1.3,-0.30000000000000004,1.1,-0.8,8.9,3.0,12.000000000000002,2.9,-0.9
1698924227.666,16,-0.6000000000000001,-0.6000000000000001,0.6000000000000001,-0.1,8.700000000000001,2.5,-0.8,-5.300000000000001,-13.9
1698924227.683,16,-0.30000000000000004,-0.5,0.1,0.2,8.700000000000001,2.0,-11.6,-9.600000000000001,-16.1
1698924227.699,16,-0.1,-0.4,-0.5,0.30000000000000004,8.9,1.5,-37.900000000000006,-9.9,-10.1
1698924227.716,16,-0.2,0.1,-1.0,0.2,9.3,1.2000000000000002,-54.9,-8.799999999999999,-4.7
1698924227.734,16,-0.2,0.4,-1.1,0.1,9.600000000000001,1.1,-59.1,-7.8,-4.5
1698924227.75,16,0.0,0.9,-1.2000000000000002,0.30000000000000004,10.100000000000001,1.2000000000000002,-59.9,-3.7000000000000006,-6.5
1698924227.766,16,0.1,1.3,-1.2000000000000002,0.4,10.4,1.4000000000000001,-51.7,3.5,-7.9
1698924227.782,16,0.1,1.3,-1.3,0.30000000000000004,10.3,1.1,-38.400000000000006,11.000000000000002,-6.4
1698924227.799,16,0.0,1.0,-1.7000000000000002,0.30000000000000004,10.100000000000001,1.0,-32.5,13.5,-5.0
1698924227.816,16,-0.1,0.4,-1.8,0.2,9.5,1.0,-22.900000000000002,18.5,-2.0
1698924227.832,16,-0.2,0.2,-1.9000000000000001,-0.1,9.1,1.0,-12.6,19.9,0.4
1698924227.849,16,-0.5,-0.1,-1.9000000000000001,-0.30000000000000004,9.0,0.9,-7.9,19.3,1.8
1698924227.866,16,-0.9,0.0,-1.8,-0.7000000000000001,9.0,1.0,0.2,16.400000000000002,4.3999999999999995
1698924227.883,16,-1.0,0.0,-1.8,-0.7000000000000001,9.1,1.0,3.9,13.6,5.300000000000001
1698924227.899,16,-1.1,0.2,-1.7000000000000002,-0.9,9.200000000000001,1.1,9.4,7.699999999999999,4.9
1698924227.916,16,-1.0,0.1,-1.6,-0.8,9.200000000000001,1.2000000000000002,11.2,3.4,2.1
1698924227.932,16,-0.6000000000000001,-0.2,-1.6,-0.6000000000000001,9.1,1.2000000000000002,10.2,3.0000000000000004,-0.30000000000000004
1698924227.949,16,-0.4,-0.30000000000000004,-1.7000000000000002,-0.2,8.700000000000001,1.0,3.2,0.0,-4.300000000000001
1698924227.966,16,-0.4,-0.5,-1.7000000000000002,-0.2,8.6,1.0,-9.600000000000001,-3.7000000000000006,-1.7
1698924227.982,16,-0.4,-0.4,-1.7000000000000002,-0.2,8.700000000000001,1.0,-16.6,-3.1,1.5000000000000002
1698924228.0,16,-0.2,-0.2,-1.7000000000000002,0.0,8.8,1.1,-27.1,-7.699999999999999,5.2
1698924228.016,16,-0.30000000000000004,-0.30000000000000004,-1.9000000000000001,-0.1,8.700000000000001,1.0,-32.2,-16.0,7.1000000000000005
1698924228.033,16,-0.4,-0.2,-2.1,-0.1,8.8,0.8,-34.1,-18.400000000000002,7.6
1698924228.049,16,-0.5,0.1,-2.1,-0.2,9.0,0.9,-37.300000000000004,-19.400000000000002,6.6000000000000005
1698924228.066,16,-0.6000000000000001,0.7000000000000001,-2.1,-0.30000000000000004,9.600000000000001,1.0,-36.800000000000004,-15.299999999999999,3.6
1698924228.083,16,-0.6000000000000001,1.0,-2.1,-0.2,9.8,1.0,-34.800000000000004,-12.6,1.0999999999999999
1698924228.1,16,-0.4,1.3,-2.2,-0.1,10.100000000000001,1.0,-29.200000000000003,-4.7,-5.0
1698924228.116,16,-0.4,1.4000000000000001,-2.1,-0.1,10.200000000000001,1.1,-21.8,3.3000000000000003,-8.3
1698924228.132,16,-0.5,1.3,-1.7000000000000002,-0.30000000000000004,10.100000000000001,1.6,-11.1,11.1,-5.9
1698924228.15,16,-0.7000000000000001,1.6,-0.9,-0.4,10.5,2.4000000000000004,-1.8,14.0,-4.1000000000000005
1698924228.167,16,-0.5,2.8000000000000003,0.2,-0.30000000000000004,11.700000000000001,3.4000000000000004,32.6,26.3,-4.2
1698924228.183,16,-0.5,3.1,-0.5,-0.30000000000000004,12.0,2.6,50.300000000000004,30.9,-7.0
1698924228.199,16,-0.4,3.0,0.1,-0.30000000000000004,12.0,3.0,68.4,22.7,-8.4
1698924228.216,16,0.0,2.8000000000000003,1.4000000000000001,0.1,12.0,4.1000000000000005,87.2,29.300000000000004,-4.300000000000001
1698924228.233,16,0.2,2.8000000000000003,0.9,0.30000000000000004,12.0,3.3000000000000003,92.60000000000001,34.6,0.0
1698924228.25,16,0.2,2.6,0.8,0.2,11.9,3.1,84.80000000000001,35.1,0.0
1698924228.267,16,-0.1,1.4000000000000001,0.7000000000000001,-0.2,10.700000000000001,2.8000000000000003,54.0,41.0,-2.1999999999999997
1698924228.282,16,0.0,-0.30000000000000004,1.0,0.0,9.0,3.0,17.9,36.800000000000004,-2.0
1698924228.3,16,0.1,-0.8,1.4000000000000001,0.0,8.5,3.4000000000000004,4.0,28.400000000000002,-2.5
1698924228.316,16,-0.4,-1.2000000000000002,2.1,-0.5,8.200000000000001,4.1000000000000005,-9.4,11.9,-1.6
1698924228.332,16,-1.2000000000000002,-1.0,2.1,-1.3,8.4,4.1000000000000005,-10.4,-2.0,1.7
1698924228.349,16,-1.5,-0.9,2.0,-1.6,8.5,4.1000000000000005,-9.200000000000001,-8.4,0.9
1698924228.366,16,-1.7000000000000002,-0.7000000000000001,1.5,-1.8,8.700000000000001,3.7,-8.200000000000001,-13.6,-6.9
1698924228.383,16,-1.1,-0.7000000000000001,0.9,-1.3,8.6,3.1,-13.200000000000001,-18.400000000000002,-17.5
1698924228.4,16,-0.6000000000000001,-0.4,0.9,-0.8,8.9,3.2,-16.3,-22.7,-19.500000000000004
1698924228.416,16,0.4,-0.30000000000000004,0.5,0.2,9.0,2.8000000000000003,-19.200000000000003,-24.1,-18.6
1698924228.433,16,1.1,-1.1,-0.4,0.8,8.200000000000001,2.0,-25.5,-30.299999999999997,-14.800000000000002
1698924228.449,16,1.2000000000000002,-1.5,-0.5,0.9,7.7,1.9000000000000001,-29.400000000000002,-33.900000000000006,-11.9
1698924228.467,16,1.0,-1.9000000000000001,-0.4,0.7000000000000001,7.300000000000001,2.2,-31.4,-35.4,-5.4
1698924228.483,16,0.6000000000000001,-1.5,-0.4,0.4,7.7,2.2,-23.700000000000003,-36.3,-0.9
1698924228.499,16,0.5,-1.0,-0.5,0.4,8.1,2.2,-12.9,-37.1,0.4
1698924228.516,16,0.5,-0.9,-0.5,0.4,8.200000000000001,2.2,-7.300000000000001,-37.800000000000004,0.1
1698924228.532,16,0.5,-1.0,-0.6000000000000001,0.4,8.1,2.0,2.1,-37.5,-0.7
1698924228.549,16,0.5,-1.1,-0.6000000000000001,0.5,8.0,2.0,4.7,-35.0,-1.3
1698924228.567,16,0.7000000000000001,-1.2000000000000002,-0.6000000000000001,0.7000000000000001,7.9,2.0,6.5,-26.500000000000004,-2.7
1698924228.582,16,1.2000000000000002,-1.2000000000000002,-0.7000000000000001,1.2000000000000002,7.800000000000001,1.9000000000000001,6.5,-20.5,-5.8
1698924228.599,16,1.4000000000000001,-1.3,-0.7000000000000001,1.3,7.800000000000001,1.9000000000000001,5.9,-17.7,-7.300000000000001
1698924228.616,16,1.5,-1.4000000000000001,-0.9,1.4000000000000001,7.7,1.7000000000000002,2.8,-8.5,-8.200000000000001
1698924228.633,16,1.5,-1.4000000000000001,-1.0,1.5,7.6000000000000005,1.6,-1.3,-1.6,-6.7
1698924228.65,16,1.5,-1.4000000000000001,-1.0,1.4000000000000001,7.6000000000000005,1.5,-3.0000000000000004,1.0999999999999999,-5.8
1698924228.671,16,1.3,-1.3,-1.2000000000000002,1.3,7.7,1.4000000000000001,-5.2,7.8,-4.1000000000000005
1698924228.683,16,1.2000000000000002,-1.1,-1.3,1.1,7.9,1.3,-5.9,13.5,-1.7
1698924228.7,16,1.0,-0.8,-1.4000000000000001,1.0,8.200000000000001,1.2000000000000002,-4.800000000000001,15.6,-0.7
1698924228.716,16,0.7000000000000001,-0.1,-1.5,0.6000000000000001,8.9,1.0,-1.5000000000000002,16.900000000000002,0.9
1698924228.734,16,0.4,0.8,-1.3,0.30000000000000004,9.8,1.2000000000000002,5.2,14.3,2.6
1698924228.749,16,-0.1,1.4000000000000001,-1.3,-0.1,10.4,1.2000000000000002,13.9,1.3,6.2
1698924228.766,16,-0.30000000000000004,1.5,-0.9,-0.30000000000000004,10.600000000000001,1.6,18.6,-7.1000000000000005,9.1
1698924228.782,16,-0.2,2.0,-0.8,-0.2,11.100000000000001,1.6,29.600000000000005,-16.6,12.9
1698924228.8,16,-0.1,2.3000000000000003,-1.5,0.0,11.4,0.8,30.799999999999997,-18.5,12.100000000000001
1698924228.816,16,0.2,2.2,-1.8,0.30000000000000004,11.3,0.4,19.6,-16.900000000000002,5.9
1698924228.832,16,0.5,2.6,-1.0,0.6000000000000001,11.8,1.2000000000000002,-1.4,-11.6,-4.0
1698924228.849,16,0.7000000000000001,4.800000000000001,0.6000000000000001,0.8,14.0,2.8000000000000003,3.4,-12.200000000000001,-0.4
1698924228.866,16,0.8,5.0,0.2,0.9,14.3,2.4000000000000004,12.8,-22.1,4.5
1698924228.882,16,0.6000000000000001,2.8000000000000003,0.9,0.8,12.100000000000001,3.1,23.400000000000002,-34.900000000000006,18.5
1698924228.9,16,0.5,1.8,2.6,0.7000000000000001,11.100000000000001,4.6000000000000005,47.1,-39.9,17.1
1698924228.916,16,-0.1,1.7000000000000002,2.7,0.2,11.0,4.6000000000000005,60.400000000000006,-32.800000000000004,10.700000000000001
1698924228.934,16,-0.4,1.3,2.8000000000000003,-0.1,10.700000000000001,4.5,73.4,-10.0,3.6
1698924228.95,16,0.0,0.6000000000000001,3.0,0.30000000000000004,10.100000000000001,4.6000000000000005,75.4,-9.9,1.8
1698924228.966,16,0.7000000000000001,-1.1,3.1,1.0,8.3,4.4,67.5,-14.900000000000002,-0.5
1698924228.983,16,0.8,-1.7000000000000002,2.8000000000000003,1.2000000000000002,7.800000000000001,4.1000000000000005,37.4,-9.4,1.4
1698924228.999,16,0.2,-0.6000000000000001,3.0,0.6000000000000001,8.9,4.3,-3.8,-4.3999999999999995,7.6
1698924229.016,16,-0.1,0.0,2.7,0.30000000000000004,9.5,4.0,-20.6,-2.6,11.6
1698924229.032,16,-0.4,0.4,1.7000000000000002,0.0,9.8,3.1,-43.6,-0.1,12.6
1698924229.049,16,-0.5,-0.30000000000000004,1.3,-0.1,9.1,2.9000000000000004,-53.00000000000001,-0.4,5.4
1698924229.067,16,-0.5,-0.6000000000000001,1.1,0.0,8.8,2.8000000000000003,-52.400000000000006,0.8,1.4
1698924229.083,16,-0.5,-0.6000000000000001,0.6000000000000001,-0.1,8.700000000000001,2.4000000000000004,-45.800000000000004,2.8,-4.2
1698924229.099,16,-0.7000000000000001,-0.7000000000000001,0.30000000000000004,-0.30000000000000004,8.6,2.3000000000000003,-35.0,0.7,-2.9
1698924229.116,16,-0.9,-0.7000000000000001,0.2,-0.5,8.6,2.3000000000000003,-28.200000000000003,-2.0,-0.30000000000000004
1698924229.133,16,-1.2000000000000002,-0.7000000000000001,0.2,-0.7000000000000001,8.6,2.3000000000000003,-13.200000000000001,-7.1000000000000005,4.1000000000000005
1698924229.15,16,-1.2000000000000002,-0.7000000000000001,0.1,-0.8,8.6,2.3000000000000003,-6.2,-7.400000000000001,4.0
1698924229.166,16,-1.3,-0.9,-0.2,-0.9,8.4,1.9000000000000001,2.9,-4.9,-0.6000000000000001
1698924229.183,16,-1.3,-1.4000000000000001,-0.5,-0.9,7.9,1.6,3.9,-3.3000000000000003,-7.300000000000001
1698924229.2,16,-1.2000000000000002,-1.6,-0.5,-0.7000000000000001,7.6000000000000005,1.7000000000000002,1.7,-2.3000000000000003,-9.0
1698924229.217,16,-0.8,-1.7000000000000002,-0.4,-0.5,7.5,1.7000000000000002,-2.1999999999999997,-3.8,-8.799999999999999
1698924229.235,16,-0.4,-1.8,-0.5,-0.1,7.4,1.6,-5.6,-10.5,-7.6
1698924229.25,16,-0.30000000000000004,-1.9000000000000001,-0.6000000000000001,0.0,7.2,1.4000000000000001,-7.9,-13.3,-6.2
1698924229.267,16,-0.30000000000000004,-2.1,-0.8,0.0,7.1000000000000005,1.3,-13.700000000000001,-18.6,-2.1999999999999997
1698924229.284,16,-0.4,-2.2,-1.0,-0.1,7.0,1.2000000000000002,-20.5,-22.1,1.0999999999999999
1698924229.299,16,-0.5,-2.2,-1.0,-0.2,6.9,1.3,-23.1,-23.3,2.0
1698924229.316,16,-0.5,-2.1,-1.1,-0.1,7.0,1.2000000000000002,-24.200000000000003,-25.400000000000002,2.1
1698924229.334,16,-0.6000000000000001,-1.8,-1.3,-0.2,7.300000000000001,1.1,-23.8,-30.200000000000003,0.5
1698924229.35,16,-0.8,-1.5,-1.2000000000000002,-0.4,7.6000000000000005,1.1,-23.2,-32.300000000000004,1.0
1698924229.366,16,-0.9,-0.6000000000000001,-1.3,-0.5,8.4,1.2000000000000002,-19.500000000000004,-34.0,3.6
1698924229.383,16,-0.7000000000000001,0.2,-0.9,-0.30000000000000004,9.200000000000001,1.6,-12.6,-34.6,2.1999999999999997
1698924229.399,16,-0.1,0.8,-0.8,0.4,9.8,1.7000000000000002,0.6000000000000001,-22.5,-4.300000000000001
1698924229.416,16,0.4,1.0,-1.0,0.8,10.0,1.4000000000000001,6.5,-17.200000000000003,-9.1
1698924229.434,16,0.9,1.4000000000000001,-0.9,1.3,10.4,1.5,14.800000000000002,-12.3,-13.6
1698924229.45,16,0.9,1.6,-0.9,1.2000000000000002,10.8,1.3,18.3,-6.5,-12.3
1698924229.466,16,0.7000000000000001,1.8,-1.3,0.8,11.0,0.8,18.5,2.1999999999999997,1.3
1698924229.483,16,0.0,1.9000000000000001,-1.6,0.4,11.100000000000001,0.6000000000000001,13.9,-0.30000000000000004,5.7
1698924229.499,16,-1.0,2.0,-1.8,-0.5,11.100000000000001,0.4,-0.4,-8.3,11.000000000000002
1698924229.516,16,-1.4000000000000001,2.3000000000000003,-0.5,-0.9,11.5,1.7000000000000002,-5.2,-11.2,13.6
1698924229.533,16,-0.8,4.1000000000000005,0.8,-0.30000000000000004,13.3,3.0,11.5,0.2,7.9
1698924229.549,16,-0.30000000000000004,4.9,0.6000000000000001,0.2,14.200000000000001,2.7,31.6,14.800000000000002,-14.700000000000001
1698924229.566,16,0.0,4.5,1.8,0.4,13.8,3.8000000000000003,41.7,26.200000000000003,-23.8
1698924229.583,16,1.0,2.4000000000000004,1.2000000000000002,1.3,11.8,3.0,74.89999999999999,32.9,-29.900000000000006
1698924229.599,16,1.2000000000000002,-0.7000000000000001,0.7000000000000001,1.4000000000000001,8.700000000000001,2.3000000000000003,78.4,7.400000000000001,-19.700000000000003
1698924229.616,16,0.2,-2.6,1.6,0.4,6.800000000000001,3.0,65.0,-6.6000000000000005,-2.9
1698924229.633,16,-0.7000000000000001,-2.6,2.7,-0.5,6.9,4.0,57.6,-9.9,4.5
1698924229.65,16,-1.7000000000000002,-0.5,4.2,-1.5,9.0,5.4,49.6,8.5,4.0
1698924229.666,16,-1.3,0.8,3.7,-1.1,10.200000000000001,4.800000000000001,45.1,11.3,-6.4
1698924229.684,16,-0.2,1.2000000000000002,2.6,-0.1,10.700000000000001,3.7,16.3,-1.6,-34.7
1698924229.699,16,1.0,-0.1,2.7,1.0,9.4,3.9000000000000004,-19.9,6.000000000000001,-42.7
1698924229.716,16,1.9000000000000001,-0.30000000000000004,1.8,1.8,9.200000000000001,3.1,-39.699999999999996,16.3,-37.1
1698924229.733,16,2.1,-0.2,1.4000000000000001,1.8,9.200000000000001,2.6,-45.7,13.9,-32.1
1698924229.749,16,1.9000000000000001,-0.30000000000000004,1.1,1.6,9.1,2.6,-50.800000000000004,8.1,-13.4
1698924229.766,16,1.2000000000000002,-0.6000000000000001,0.8,1.0,8.8,2.5,-42.7,5.1,9.9
1698924229.783,16,0.9,-0.8,0.4,0.7000000000000001,8.6,2.1,-35.9,0.2,17.0
1698924229.799,16,-0.1,-1.1,0.4,-0.2,8.3,2.2,-22.3,-6.8,18.1
1698924229.816,16,-0.6000000000000001,-1.0,0.5,-0.7000000000000001,8.3,2.4000000000000004,-14.600000000000001,-4.9,13.3
1698924229.833,16,-0.6000000000000001,-1.0,0.6000000000000001,-0.7000000000000001,8.4,2.4000000000000004,2.0,-1.4,-0.1
1698924229.849,16,-0.1,-1.0,0.4,-0.2,8.4,2.2,14.800000000000002,-2.5,-7.6
1698924229.866,16,0.2,-1.1,0.4,0.4,8.1,2.2,17.0,-0.2,-8.0
1698924229.883,16,0.8,-1.3,0.4,0.9,8.0,2.2,16.400000000000002,3.9,-2.6
1698924229.9,16,1.1,-1.4000000000000001,0.4,0.9,7.9,2.1,10.8,-0.4,6.7
1698924229.916,16,0.9,-1.5,0.30000000000000004,0.7000000000000001,8.0,2.0,5.4,-1.6,11.5
1698924229.934,16,0.6000000000000001,-1.0,0.1,0.5,8.3,1.9000000000000001,-8.4,2.1,16.2
1698924229.95,16,0.30000000000000004,-0.6000000000000001,-0.2,0.30000000000000004,8.700000000000001,1.6,-21.6,-0.5,12.6
1698924229.966,16,0.1,-0.4,-0.1,0.2,8.9,1.7000000000000002,-30.799999999999997,2.5,7.0
1698924229.983,16,0.2,-0.4,-0.30000000000000004,0.30000000000000004,8.9,1.6,-32.9,8.200000000000001,3.7000000000000006
1698924229.999,16,0.5,-0.8,-0.9,0.5,8.4,1.2000000000000002,-36.1,18.6,-2.9
1698924230.015,16,1.0,-1.1,-1.1,1.0,8.1,1.0,-36.7,28.400000000000002,-7.500000000000001
1698924230.032,16,1.3,-1.2000000000000002,-1.2000000000000002,1.2000000000000002,8.0,0.9,-34.7,32.1,-8.799999999999999
1698924230.049,16,1.5,-1.1,-1.6,1.4000000000000001,8.1,0.7000000000000001,-27.8,31.7,-7.699999999999999
1698924230.068,16,0.5,-0.6000000000000001,-1.9000000000000001,0.4,8.5,0.4,-20.0,24.9,4.0
1698924230.084,16,-0.1,-0.30000000000000004,-1.8,-0.6000000000000001,9.200000000000001,0.9,-16.8,22.000000000000004,12.6
1698924230.099,16,-0.8,0.4,-1.1,-0.8,9.600000000000001,1.2000000000000002,-5.9,18.6,21.400000000000002
1698924230.116,16,-0.7000000000000001,0.9,-0.5,-0.7000000000000001,10.100000000000001,1.8,16.6,11.700000000000001,14.500000000000002
1698924230.133,16,-0.4,1.2000000000000002,-0.4,-0.2,10.600000000000001,1.8,29.300000000000004,9.4,7.1000000000000005
1698924230.151,16,-0.1,1.8,-0.2,-0.1,11.0,1.9000000000000001,50.9,1.0999999999999999,-5.0
1698924230.166,16,-0.2,2.7,1.3,-0.2,12.0,3.2,71.0,-10.4,1.9
1698924230.183,16,-0.2,3.1,0.7000000000000001,-0.1,12.4,2.4000000000000004,83.8,-13.8,17.9
1698924230.199,16,0.0,2.6,0.2,0.1,12.0,1.7000000000000002,77.80000000000001,-21.0,19.700000000000003
1698924230.216,16,0.8,1.3,-0.5,1.0,10.700000000000001,0.9,41.1,-30.5,8.3
1698924230.234,16,1.0,0.7000000000000001,-0.6000000000000001,1.3,9.9,0.9,14.900000000000002,-23.400000000000002,-0.30000000000000004
1698924230.25,16,1.4000000000000001,0.8,0.0,1.5,10.200000000000001,1.4000000000000001,-32.6,-2.5,-5.8
1698924230.266,16,1.4000000000000001,2.5,1.5,1.6,12.0,3.0,-48.1,-2.4000000000000004,2.4000000000000004
1698924230.282,16,1.1,3.6,2.4000000000000004,1.3,13.0,4.0,-38.900000000000006,-12.4,12.000000000000002
1698924230.299,16,-0.6000000000000001,3.1,1.7000000000000002,-0.30000000000000004,12.600000000000001,3.4000000000000004,-5.1,-14.4,35.6
1698924230.316,16,-1.3,1.3,2.1,-0.9,10.8,3.8000000000000003,12.9,3.6,32.2
1698924230.332,16,-0.2,0.5,2.7,0.2,10.0,4.3,23.400000000000002,11.1,16.8
1698924230.349,16,0.0,0.0,2.7,0.30000000000000004,9.5,4.3,42.6,13.5,-20.2
1698924230.366,16,0.6000000000000001,-1.1,2.6,0.9,8.4,4.0,45.4,16.1,-27.6
1698924230.382,16,0.7000000000000001,-2.3000000000000003,2.1,0.9,7.2,3.4000000000000004,23.2,25.8,-17.400000000000002
1698924230.399,16,0.6000000000000001,-2.8000000000000003,2.0,0.8,6.7,3.4000000000000004,6.7,28.400000000000002,-10.4
1698924230.416,16,-0.5,-3.2,2.2,-0.4,6.2,3.6,-23.900000000000002,31.3,2.0
1698924230.432,16,-1.8,-2.6,1.9000000000000001,-1.7000000000000002,6.800000000000001,3.4000000000000004,-38.7,29.700000000000003,5.7
1698924230.449,16,-2.3000000000000003,-2.2,1.8,-2.1,7.1000000000000005,3.4000000000000004,-40.1,22.6,4.2
1698924230.466,16,-2.8000000000000003,-1.5,1.6,-2.7,7.9,3.4000000000000004,-33.1,7.0,0.2
1698924230.483,16,-2.9000000000000004,-0.8,1.4000000000000001,-2.8000000000000003,8.5,3.3000000000000003,-20.5,-5.9,-3.9
1698924230.5,16,-2.7,-0.6000000000000001,1.4000000000000001,-2.6,8.700000000000001,3.3000000000000003,-13.700000000000001,-11.000000000000002,-5.6
1698924230.516,16,-2.3000000000000003,-0.4,1.2000000000000002,-2.2,9.0,3.1,-1.7,-22.4,-7.9
1698924230.533,16,-1.6,-0.1,1.0,-1.5,9.200000000000001,2.9000000000000004,1.5000000000000002,-28.900000000000002,-9.1
1698924230.549,16,-1.2000000000000002,0.0,0.9,-1.2000000000000002,9.3,2.8000000000000003,1.8,-41.4,-12.6
1698924230.566,16,-1.2000000000000002,-0.1,0.8,-1.2000000000000002,9.3,2.7,-6.2,-54.3,-14.3
1698924230.584,16,-1.3,-0.1,0.7000000000000001,-1.3,9.200000000000001,2.6,-12.200000000000001,-55.6,-13.4
1698924230.6,16,-1.5,-0.30000000000000004,0.4,-1.5,9.0,2.4000000000000004,-24.8,-57.6,-13.6
1698924230.616,16,-1.5,-0.2,0.2,-1.5,9.0,2.3000000000000003,-32.6,-67.1,-17.599999999999998
1698924230.633,16,-1.5,0.0,0.0,-1.6,9.200000000000001,2.2,-34.50000000000001,-75.0,-21.6
1698924230.65,16,-1.6,0.1,-0.1,-1.7000000000000002,9.3,2.2,-34.0,-78.5,-22.7
1698924230.666,16,-1.6,0.5,-0.1,-1.7000000000000002,9.700000000000001,2.3000000000000003,-29.200000000000003,-87.3,-23.400000000000002
1698924230.683,16,-1.6,0.8,-0.1,-1.7000000000000002,10.0,2.3000000000000003,-20.1,-100.10000000000001,-24.6
1698924230.699,16,-1.6,0.8,-0.2,-1.7000000000000002,10.0,2.3000000000000003,-15.399999999999999,-105.9,-25.5
1698924230.716,16,-1.5,0.5,-0.4,-1.6,9.700000000000001,2.1,-9.8,-114.5,-27.2
1698924230.733,16,-1.4000000000000001,0.1,-0.5,-1.5,9.3,2.0,-9.8,-124.10000000000002,-30.599999999999998
1698924230.751,16,-1.4000000000000001,0.0,-0.5,-1.5,9.200000000000001,2.1,-10.700000000000001,-129.9,-32.9
1698924230.766,16,-1.4000000000000001,0.1,-0.6000000000000001,-1.5,9.200000000000001,2.0,-13.9,-141.3,-35.9
1698924230.783,16,-1.3,0.1,-0.8,-1.4000000000000001,9.200000000000001,1.9000000000000001,-16.900000000000002,-147.4,-36.1
1698924230.799,16,-1.1,0.0,-0.9,-1.2000000000000002,9.200000000000001,1.8,-24.5,-158.6,-35.3
1698924230.816,16,-0.8,0.0,-0.9,-0.9,9.1,1.9000000000000001,-30.9,-165.8,-35.7
1698924230.832,16,-0.5,0.0,-1.2000000000000002,-0.5,9.1,1.7000000000000002,-35.199999999999996,-171.4,-40.1
1698924230.849,16,-0.5,0.0,-1.3,-0.5,9.0,1.7000000000000002,-39.400000000000006,-180.3,-42.300000000000004
1698924230.866,16,-0.7000000000000001,0.2,-1.0,-0.6000000000000001,9.200000000000001,2.1,-39.6,-182.60000000000002,-41.800000000000004
1698924230.882,16,-1.1,0.8,-0.2,-0.9,9.8,2.9000000000000004,-32.7,-181.7,-39.8
1698924230.899,16,-1.0,1.2000000000000002,-0.2,-0.7000000000000001,10.3,2.5,-19.8,-183.6,-41.5
1698924230.916,16,-0.6000000000000001,1.1,-1.5,-0.4,10.0,1.7000000000000002,-18.900000000000002,-188.5,-44.7
1698924230.933,16,-0.7000000000000001,0.1,-2.2,-0.4,9.0,1.1,-33.2,-198.8,-51.7
1698924230.95,16,-0.9,-0.1,-1.9000000000000001,-0.7000000000000001,9.0,1.6,-49.9,-193.1,-54.1
1698924230.967,16,-0.7000000000000001,0.4,-1.9000000000000001,-0.30000000000000004,9.200000000000001,1.6,-54.4,-188.0,-56.5
1698924230.982,16,0.5,0.5,-2.1,0.9,9.3,1.5,-58.3,-190.5,-65.4
1698924230.999,16,1.3,0.5,-1.4000000000000001,1.8,9.3,2.3000000000000003,-55.0,-194.3,-69.00000000000001
1698924231.016,16,1.4000000000000001,0.7000000000000001,-1.0,1.8,9.4,2.8000000000000003,-48.6,-189.4,-66.9
1698924231.032,16,1.3,0.8,-1.2000000000000002,1.8,9.5,2.6,-28.200000000000003,-174.3,-56.7
1698924231.049,16,1.4000000000000001,0.5,-1.6,2.0,9.200000000000001,2.3000000000000003,-14.900000000000002,-180.10000000000002,-45.5
1698924231.066,16,1.3,0.30000000000000004,-1.1,2.0,9.0,2.7,-10.600000000000001,-182.0,-42.7
1698924231.083,16,0.4,0.30000000000000004,-0.8,1.2000000000000002,9.0,3.0,-2.1,-167.9,-39.699999999999996
1698924231.099,16,-0.1,0.4,-1.0,0.5,9.1,2.5,-0.5,-161.3,-39.6
1698924231.117,16,-0.6000000000000001,0.2,-1.3,0.4,8.9,2.4000000000000004,-5.8,-164.8,-42.7
1698924231.132,16,-0.8,-0.4,-1.7000000000000002,0.2,8.3,2.0,-20.900000000000002,-171.9,-49.6
1698924231.15,16,-0.7000000000000001,-0.9,-2.3000000000000003,0.4,7.800000000000001,1.5,-44.6,-171.50000000000003,-55.4
1698924231.166,16,-0.4,-0.5,-2.1,0.7000000000000001,8.1,1.6,-56.300000000000004,-170.5,-58.3
1698924231.182,16,0.30000000000000004,1.1,-1.8,1.4000000000000001,9.700000000000001,2.1,-68.0,-167.5,-67.0
1698924231.2,16,0.8,1.8,-1.9000000000000001,1.9000000000000001,10.4,2.1,-68.80000000000001,-163.8,-72.10000000000001
1698924231.216,16,1.4000000000000001,1.8,-2.0,2.5,10.3,2.1,-65.7,-154.5,-80.2
1698924231.233,16,2.0,1.0,-2.2,3.1,9.5,2.0,-56.7,-133.60000000000002,-82.30000000000001
1698924231.249,16,2.4000000000000004,0.6000000000000001,-2.4000000000000004,3.4000000000000004,9.0,1.9000000000000001,-50.5,-125.00000000000001,-83.0
1698924231.266,16,2.3000000000000003,0.4,-2.4000000000000004,3.4000000000000004,8.8,1.9000000000000001,-34.400000000000006,-124.60000000000001,-79.39999999999999
1698924231.283,16,1.8,0.2,-2.3000000000000003,2.8000000000000003,8.6,1.9000000000000001,-15.6,-131.6,-62.4
1698924231.299,16,1.2000000000000002,0.30000000000000004,-2.2,2.3000000000000003,8.700000000000001,2.0,-7.400000000000001,-130.6,-51.5
1698924231.316,16,0.8,0.2,-2.2,1.9000000000000001,8.700000000000001,2.0,5.500000000000001,-117.30000000000001,-41.300000000000004
1698924231.333,16,0.4,0.1,-2.0,1.6,8.6,2.1,15.5,-106.80000000000001,-44.1
1698924231.349,16,0.6000000000000001,0.0,-2.1,2.0,8.6,1.8,18.400000000000002,-105.4,-47.6
1698924231.367,16,1.0,0.5,-1.5,2.2,9.1,2.4000000000000004,15.2,-111.80000000000001,-47.0
1698924231.384,16,0.8,0.7000000000000001,-1.3,2.0,9.3,2.5,13.6,-105.9,-42.300000000000004
1698924231.399,16,0.4,0.9,-1.4000000000000001,1.7000000000000002,9.5,2.3000000000000003,8.0,-95.2,-33.5
1698924231.416,16,0.4,0.9,-1.4000000000000001,1.6,9.5,2.2,4.3999999999999995,-93.5,-33.300000000000004
1698924231.433,16,0.4,0.6000000000000001,-1.5,1.7000000000000002,9.3,2.2,-3.7000000000000006,-95.1,-38.2
1698924231.45,16,0.6000000000000001,0.30000000000000004,-1.5,1.8,9.0,2.1,-11.2,-94.9,-40.4
1698924231.466,16,0.6000000000000001,0.30000000000000004,-1.6,1.9000000000000001,9.0,2.0,-14.500000000000002,-93.0,-39.9
1698924231.483,16,0.8,0.4,-1.7000000000000002,2.1,9.1,1.9000000000000001,-20.1,-84.0,-38.0
1698924231.499,16,1.1,0.5,-1.6,2.3000000000000003,9.200000000000001,2.0,-21.3,-73.9,-38.0
1698924231.516,16,1.2000000000000002,0.5,-1.5,2.4000000000000004,9.200000000000001,2.1,-18.7,-70.10000000000001,-37.5
1698924231.533,16,1.2000000000000002,0.30000000000000004,-1.6,2.4000000000000004,9.0,2.0,-9.5,-63.4,-33.800000000000004
1698924231.55,16,1.2000000000000002,0.0,-1.8,2.4000000000000004,8.6,1.8,-1.0999999999999999,-56.0,-29.500000000000004
1698924231.566,16,1.0,-0.1,-1.7000000000000002,2.3000000000000003,8.5,1.9000000000000001,2.3000000000000003,-52.300000000000004,-28.200000000000003
1698924231.582,16,1.0,0.0,-1.5,2.2,8.700000000000001,2.0,9.200000000000001,-48.9,-24.9
1698924231.599,16,0.6000000000000001,0.30000000000000004,-1.1,1.9000000000000001,9.1,2.3000000000000003,18.6,-63.10000000000001,-16.6
1698924231.616,16,0.1,0.4,-1.0,1.3,9.1,2.4000000000000004,22.5,-67.2,-11.8
1698924231.632,16,-0.7000000000000001,0.5,-0.5,0.6000000000000001,9.3,2.8000000000000003,25.2,-62.8,-5.1
1698924231.65,16,-0.30000000000000004,0.8,-0.4,1.1,9.600000000000001,2.7,28.500000000000004,-64.8,-14.100000000000001
1698924231.666,16,0.1,0.8,-0.6000000000000001,1.4000000000000001,9.600000000000001,2.5,26.700000000000003,-66.60000000000001,-21.200000000000003
1698924231.683,16,0.9,0.6000000000000001,-0.2,2.2,9.5,2.8000000000000003,18.2,-62.8,-27.6
1698924231.699,16,1.7000000000000002,0.5,-0.2,3.0,9.4,2.7,12.4,-42.5,-28.200000000000003
1698924231.717,16,1.9000000000000001,0.2,-0.1,3.2,9.1,2.8000000000000003,11.8,-36.9,-28.500000000000004
1698924231.733,16,1.9000000000000001,-0.30000000000000004,0.0,3.2,8.700000000000001,2.8000000000000003,15.9,-33.7,-25.5
1698924231.749,16,0.9,-0.30000000000000004,-0.1,2.1,8.700000000000001,2.7,24.1,-39.00000000000001,-15.399999999999999
1698924231.766,16,-0.5,-0.2,0.1,0.8,8.8,2.8000000000000003,31.0,-40.9,-3.8
1698924231.783,16,-0.9,-0.4,0.5,0.4,8.700000000000001,3.1,34.900000000000006,-41.300000000000004,-4.6000000000000005
1698924231.799,16,-1.7000000000000002,-0.9,0.9,-0.4,8.200000000000001,3.3000000000000003,44.5,-38.1,-10.600000000000001
1698924231.815,16,-1.9000000000000001,-0.8,1.2000000000000002,-0.6000000000000001,8.3,3.4000000000000004,49.6,-34.300000000000004,-12.100000000000001
1698924231.832,16,-1.8,-0.4,1.3,-0.5,8.8,3.5,50.300000000000004,-38.5,-11.5
1698924231.85,16,-1.5,0.9,2.0,-0.30000000000000004,10.100000000000001,4.0,48.7,-53.7,-8.1
1698924231.869,16,-1.5,1.4000000000000001,2.1,-0.30000000000000004,10.600000000000001,4.0,39.2,-55.300000000000004,-6.4
1698924231.882,16,-1.5,1.4000000000000001,2.1,-0.30000000000000004,10.600000000000001,4.0,30.200000000000003,-50.9,-9.1
1698924231.9,16,-1.6,1.2000000000000002,1.5,-0.4,10.5,3.3000000000000003,7.6,-40.9,-19.9
1698924231.916,16,-1.6,0.7000000000000001,1.1,-0.5,10.0,2.9000000000000004,-16.5,-41.2,-28.1
1698924231.932,16,-1.5,0.5,0.8,-0.5,9.700000000000001,2.6,-24.1,-42.900000000000006,-28.500000000000004
1698924231.949,16,-1.5,0.2,0.5,-0.5,9.5,2.4000000000000004,-31.2,-47.5,-24.9
1698924231.966,16,-1.3,0.1,0.2,-0.4,9.4,2.3000000000000003,-28.700000000000003,-49.8,-21.3
1698924231.983,16,-1.2000000000000002,0.2,0.30000000000000004,-0.30000000000000004,9.4,2.3000000000000003,-24.7,-51.7,-21.400000000000002
1698924231.999,16,-1.0,0.2,0.30000000000000004,-0.1,9.5,2.4000000000000004,-12.4,-51.1,-24.6
1698924232.016,16,-0.6000000000000001,0.2,0.2,0.2,9.5,2.3000000000000003,1.2000000000000002,-43.800000000000004,-30.299999999999997
1698924232.033,16,-0.5,0.1,0.0,0.4,9.0,1.9000000000000001,9.700000000000001,-36.1,-31.3
1698924232.05,16,-0.2,-0.5,-0.2,0.5,8.8,1.9000000000000001,10.600000000000001,-34.6,-29.900000000000006
1698924232.066,16,-0.30000000000000004,-0.6000000000000001,-0.1,0.4,8.700000000000001,1.9000000000000001,9.1,-33.300000000000004,-24.200000000000003
1698924232.084,16,-0.30000000000000004,-0.5,0.0,0.30000000000000004,8.700000000000001,1.9000000000000001,7.6,-32.4,-21.400000000000002
1698924232.1,16,-0.5,-0.4,-0.1,0.1,8.9,1.9000000000000001,3.9,-33.5,-17.7
1698924232.116,16,-0.7000000000000001,-0.4,-0.4,-0.1,8.9,1.6,-2.7,-33.5,-14.800000000000002
1698924232.133,16,-0.7000000000000001,-0.5,-0.6000000000000001,-0.1,8.8,1.4000000000000001,-7.500000000000001,-33.300000000000004,-13.8
1698924232.15,16,-0.6000000000000001,-0.7000000000000001,-0.6000000000000001,-0.1,8.5,1.4000000000000001,-17.400000000000002,-32.4,-13.0
1698924232.166,16,-0.5,-0.9,-0.7000000000000001,0.0,8.4,1.4000000000000001,-23.3,-31.8,-13.5
1698924232.182,16,-0.4,-0.9,-0.8,0.1,8.3,1.3,-25.0,-30.9,-13.9
1698924232.199,16,-0.30000000000000004,-0.9,-1.1,0.2,8.3,1.1,-27.400000000000002,-29.900000000000006,-13.9
1698924232.216,16,-0.2,-1.0,-1.1,0.2,8.1,1.1,-28.1,-32.0,-12.000000000000002
1698924232.233,16,-0.2,-1.0,-1.1,0.2,8.200000000000001,1.2000000000000002,-26.9,-33.2,-10.2
1698924232.249,16,-0.30000000000000004,-0.7000000000000001,-1.0,0.1,8.5,1.3,-21.5,-31.5,-6.000000000000001
1698924232.265,16,-0.30000000000000004,-0.30000000000000004,-1.1,0.1,8.8,1.3,-13.8,-29.800000000000004,-2.4000000000000004
1698924232.282,16,-0.1,-0.1,-1.3,0.30000000000000004,9.0,1.1,-7.8,-31.5,-1.6
1698924232.299,16,0.0,0.0,-1.1,0.5,9.1,1.2000000000000002,-5.7,-32.2,-2.0
1698924232.316,16,0.30000000000000004,-0.1,-0.8,0.8,9.0,1.6,-0.2,-24.6,-1.7
1698924232.333,16,0.4,-0.1,-0.9,0.9,9.0,1.4000000000000001,2.3000000000000003,-18.6,-0.7
1698924232.349,16,0.4,0.0,-0.9,0.9,9.1,1.4000000000000001,3.8,-9.9,1.2000000000000002
1698924232.366,16,0.30000000000000004,0.30000000000000004,-1.0,0.8,9.4,1.3,2.5,-7.2,3.3000000000000003
1698924232.383,16,-0.1,0.9,-0.7000000000000001,0.4,10.0,1.6,0.9,-8.700000000000001,5.7
1698924232.399,16,-0.4,1.2000000000000002,-1.0,0.2,10.3,1.3,-0.30000000000000004,-8.0,6.2
1698924232.415,16,-0.5,1.1,-1.5,0.0,10.3,0.8,-9.0,-3.2,3.0000000000000004
1698924232.432,16,-0.5,1.0,-1.6,0.1,10.200000000000001,0.7000000000000001,-19.8,0.9,0.0
1698924232.449,16,-0.5,1.1,-1.8,0.1,10.3,0.6000000000000001,-23.2,-2.1999999999999997,-0.6000000000000001
1698924232.466,16,-0.6000000000000001,1.7000000000000002,-1.9000000000000001,0.0,10.8,0.6000000000000001,-28.400000000000002,-13.700000000000001,0.5
1698924232.482,16,-0.9,3.2,-0.2,-0.30000000000000004,11.4,1.3,-29.200000000000003,-16.5,2.1
1698924232.499,16,-0.8,4.1000000000000005,0.0,-0.2,13.200000000000001,2.6,-13.100000000000001,-4.0,3.8
1698924232.516,16,-0.2,3.8000000000000003,-1.7000000000000002,0.4,13.0,0.8,0.30000000000000004,16.8,-2.0
1698924232.532,16,0.7000000000000001,2.1,0.4,1.3,11.3,3.0,8.9,6.000000000000001,-5.4
1698924232.549,16,0.7000000000000001,1.5,1.7000000000000002,1.2000000000000002,10.700000000000001,4.2,26.3,5.8,-1.8
1698924232.566,16,0.30000000000000004,1.2000000000000002,2.2,0.9,10.5,4.5,72.8,17.1,12.000000000000002
1698924232.582,16,-1.1,1.1,2.7,-0.5,10.4,4.7,110.50000000000001,11.700000000000001,17.0
1698924232.599,16,-1.4000000000000001,0.6000000000000001,2.6,-0.8,10.0,4.4,121.30000000000001,11.4,15.8
1698924232.616,16,-1.6,-0.9,2.3000000000000003,-1.0,8.5,3.8000000000000003,114.80000000000001,-2.1999999999999997,7.1000000000000005
1698924232.632,16,-2.0,-1.7000000000000002,3.2,-1.4000000000000001,7.800000000000001,4.4,75.80000000000001,-8.600000000000001,-2.8
1698924232.649,16,-2.1,-1.6,3.0,-1.5,7.800000000000001,4.1000000000000005,46.7,0.5,-6.4
1698924232.666,16,-1.6,-0.9,1.5,-1.1,8.6,2.7,-23.1,1.0,-13.4
1698924232.682,16,-0.8,-0.1,2.1,-0.4,9.3,3.4000000000000004,-71.9,-6.7,-21.0
1698924232.699,16,-0.4,0.2,2.2,0.1,9.600000000000001,3.7,-80.7,-4.9,-22.4
1698924232.716,16,0.0,0.30000000000000004,1.6,0.4,9.700000000000001,3.4000000000000004,-77.1,-0.7,-20.2
1698924232.732,16,0.2,-0.4,0.4,0.5,9.0,2.4000000000000004,-63.10000000000001,1.3,-12.4
1698924232.749,16,0.2,-1.0,0.0,0.5,8.3,2.2,-49.1,0.7,-4.3999999999999995
1698924232.766,16,0.2,-1.2000000000000002,0.1,0.5,8.1,2.4000000000000004,-39.50000000000001,0.0,-0.9
1698924232.782,16,0.1,-1.4000000000000001,0.0,0.4,7.800000000000001,2.3000000000000003,-14.700000000000001,-4.5,5.500000000000001
1698924232.799,16,0.0,-1.5,-0.2,0.30000000000000004,7.800000000000001,2.2,-2.1,-9.4,8.4
1698924232.816,16,-0.4,-1.5,-0.1,0.0,7.7,2.2,17.200000000000003,-15.8,13.100000000000001
1698924232.833,16,-0.6000000000000001,-1.3,0.30000000000000004,-0.2,7.9,2.5,31.3,-12.700000000000001,16.2
1698924232.852,16,-0.6000000000000001,-1.3,0.30000000000000004,-0.1,8.0,2.4000000000000004,36.7,-11.6,15.7
1698924232.868,16,-0.4,-1.2000000000000002,0.0,0.1,8.0,2.0,37.900000000000006,-14.700000000000001,10.8
1698924232.882,16,-0.2,-1.3,-0.4,0.4,7.9,1.5,23.5,-12.9,5.500000000000001
1698924232.9,16,-0.1,-1.3,-0.5,0.5,7.9,1.4000000000000001,12.200000000000001,-9.1,3.3000000000000003
1698924232.916,16,0.2,-1.0,-0.7000000000000001,0.8,8.200000000000001,1.2000000000000002,-11.700000000000001,-2.5,0.2
1698924232.932,16,0.2,-0.7000000000000001,-0.7000000000000001,0.8,8.5,1.3,-29.500000000000004,0.0,-1.2000000000000002
1698924232.952,16,0.1,-0.6000000000000001,-0.7000000000000001,0.7000000000000001,8.6,1.3,-34.7,4.0,-1.7
1698924232.966,16,-0.1,-0.7000000000000001,-1.0,0.4,8.5,1.1,-39.400000000000006,14.600000000000001,-3.2
1698924232.983,16,-0.1,-0.7000000000000001,-1.1,0.5,8.4,1.1,-39.6,19.6,-4.7
1698924233.0,16,0.1,-0.9,-1.3,0.6000000000000001,8.1,1.1,-36.6,26.3,-9.1
1698924233.016,16,0.4,-1.0,-1.3,0.8,8.1,1.1,-29.200000000000003,33.5,-11.8
1698924233.032,16,0.5,-1.0,-1.5,0.8,8.1,1.0,-20.2,38.400000000000006,-9.4
1698924233.049,16,0.1,-0.8,-1.2000000000000002,0.4,8.3,1.3,-9.1,34.1,-0.7
1698924233.066,16,-0.1,-0.6000000000000001,-1.1,0.2,8.4,1.5,-1.5000000000000002,28.700000000000003,5.500000000000001
1698924233.083,16,-0.9,-0.1,-1.0,-0.6000000000000001,9.0,1.4000000000000001,17.599999999999998,6.3,15.9
1698924233.099,16,-1.3,0.2,-0.9,-1.0,9.3,1.5,26.3,-6.6000000000000005,18.8
1698924233.116,16,-1.4000000000000001,0.8,-0.7000000000000001,-1.0,9.9,1.6,40.1,-18.900000000000002,17.7
1698924233.133,16,-1.4000000000000001,1.0,-0.8,-0.9,10.100000000000001,1.4000000000000001,44.6,-18.6,14.200000000000001
1698924233.149,16,-0.8,1.6,-1.6,-0.30000000000000004,10.8,0.5,42.2,-10.5,4.2
1698924233.166,16,0.8,2.2,-2.0,1.3,11.4,-0.1,23.900000000000002,-10.0,-10.3
1698924233.185,16,1.7000000000000002,3.0,-0.7000000000000001,2.1,12.3,1.2000000000000002,2.6,-7.300000000000001,-20.6
1698924233.2,16,1.6,4.0,0.8,2.0,13.3,2.7,-0.5,1.6,-19.200000000000003
1698924233.217,16,1.3,5.0,0.9,1.7000000000000002,14.3,2.8000000000000003,16.2,6.5,2.8
1698924233.232,16,-0.5,3.4000000000000004,1.5,0.0,12.8,3.3000000000000003,24.200000000000003,-16.0,36.7
1698924233.25,16,-1.5,3.5,3.2,-0.8,12.9,4.9,46.5,-19.0,54.5
1698924233.266,16,-2.0,3.3000000000000003,2.4000000000000004,-1.3,12.700000000000001,4.1000000000000005,57.400000000000006,-9.1,48.2
1698924233.282,16,-1.4000000000000001,1.4000000000000001,1.9000000000000001,-0.6000000000000001,10.8,3.3000000000000003,56.5,-18.400000000000002,14.600000000000001
1698924233.3,16,-0.8,-0.30000000000000004,2.5,0.2,7.800000000000001,4.0,51.2,-28.0,-8.1
1698924233.316,16,-0.30000000000000004,-2.4000000000000004,2.3000000000000003,0.5,7.0,3.6,36.1,-2.9,-29.600000000000005
1698924233.333,16,0.1,-2.5,2.5,0.7000000000000001,6.9,3.7,16.5,18.0,-17.8
1698924233.35,16,-0.1,-0.9,2.9000000000000004,0.7000000000000001,7.6000000000000005,4.1000000000000005,10.2,19.400000000000002,-5.0
1698924233.366,16,-0.1,-0.2,2.5,0.6000000000000001,9.3,3.7,2.8,22.8,16.2
1698924233.383,16,-0.30000000000000004,0.2,2.2,0.4,9.600000000000001,3.5,-6.6000000000000005,15.7,16.3
1698924233.399,16,-0.8,-0.4,1.7000000000000002,0.0,9.0,3.1,-13.200000000000001,14.800000000000002,10.2
1698924233.417,16,-0.9,-0.5,1.7000000000000002,-0.2,8.9,3.1,-16.900000000000002,18.7,9.600000000000001
1698924233.433,16,-1.1,-0.1,1.6,-0.4,9.3,3.0,-19.6,21.900000000000002,12.3
1698924233.449,16,-1.7000000000000002,0.1,1.3,-0.9,9.5,2.8000000000000003,-17.3,10.5,17.0
1698924233.466,16,-2.0,-0.2,1.1,-1.2000000000000002,9.200000000000001,2.6,-16.2,6.000000000000001,19.500000000000004
1698924233.483,16,-2.2,-0.8,0.6000000000000001,-1.3,8.5,2.3000000000000003,-17.200000000000003,4.7,19.0
1698924233.499,16,-2.2,-1.0,0.5,-1.3,8.3,2.2,-19.6,5.8,9.3
1698924233.516,16,-2.1,-1.1,0.4,-1.2000000000000002,8.3,2.1,-19.700000000000003,5.9,2.8
1698924233.532,16,-1.8,-1.1,0.1,-1.0,8.3,1.9000000000000001,-18.6,4.800000000000001,-8.3
1698924233.549,16,-1.3,-1.2000000000000002,0.0,-0.6000000000000001,8.1,1.8,-17.3,4.5,-13.200000000000001
1698924233.566,16,-1.1,-1.2000000000000002,0.0,-0.4,8.1,1.9000000000000001,-15.8,4.7,-12.8
1698924233.582,16,-0.8,-1.1,0.0,-0.1,8.200000000000001,1.9000000000000001,-9.9,2.4000000000000004,-8.700000000000001
1698924233.599,16,-0.8,-1.1,-0.1,-0.1,8.200000000000001,1.8,-6.5,-0.6000000000000001,-5.6
1698924233.616,16,-0.8,-1.2000000000000002,-0.30000000000000004,-0.1,8.0,1.6,-2.3000000000000003,-4.7,0.0
1698924233.632,16,-1.0,-1.4000000000000001,-0.5,-0.30000000000000004,7.9,1.5,-2.7,-4.3999999999999995,1.7
1698924233.649,16,-1.2000000000000002,-1.2000000000000002,-0.6000000000000001,-0.5,8.0,1.4000000000000001,-5.4,-4.9,1.0999999999999999
1698924233.666,16,-1.2000000000000002,-1.1,-0.7000000000000001,-0.5,8.200000000000001,1.2000000000000002,-7.300000000000001,-6.1000000000000005,0.5
1698924233.684,16,-1.2000000000000002,-1.0,-0.8,-0.5,8.200000000000001,1.1,-12.100000000000001,-13.0,0.6000000000000001
1698924233.699,16,-1.3,-1.1,-0.8,-0.7000000000000001,8.1,1.2000000000000002,-14.0,-17.9,1.9
1698924233.717,16,-1.5,-1.2000000000000002,-0.8,-0.8,8.0,1.2000000000000002,-15.9,-25.2,6.4
1698924233.733,16,-1.6,-1.4000000000000001,-1.2000000000000002,-0.8,7.800000000000001,0.8,-18.5,-31.2,8.3
1698924233.749,16,-1.6,-1.1,-0.9,-0.9,8.0,1.2000000000000002,-22.000000000000004,-34.6,6.000000000000001
1698924233.766,16,-1.2000000000000002,-0.4,-0.30000000000000004,-0.7000000000000001,8.3,1.5,-20.7,-32.7,3.4
1698924233.783,16,-0.8,-0.1,-0.1,0.0,9.1,2.0,-9.4,-22.5,-6.000000000000001
1698924233.799,16,0.0,0.2,-0.4,0.8,9.4,1.8,5.7,-11.8,-15.299999999999999
1698924233.816,16,0.6000000000000001,0.5,-0.6000000000000001,1.0,9.5,1.7000000000000002,12.000000000000002,-9.600000000000001,-16.5
1698924233.833,16,0.6000000000000001,0.7000000000000001,-0.9,1.3,9.8,1.1,19.400000000000002,-4.9,-12.700000000000001
1698924233.85,16,0.1,1.1,-1.6,0.8,10.200000000000001,0.4,13.6,-2.1999999999999997,-5.1
1698924233.867,16,-0.6000000000000001,2.2,-0.6000000000000001,0.1,11.4,1.4000000000000001,4.0,0.6000000000000001,5.300000000000001
1698924233.882,16,-0.9,3.0,-0.2,-0.2,12.200000000000001,1.8,5.7,4.2,6.9
1698924233.899,16,-1.2000000000000002,4.0,-0.30000000000000004,-0.5,13.3,1.6,14.800000000000002,2.3000000000000003,3.0000000000000004
1698924233.915,16,-1.2000000000000002,3.9000000000000004,0.8,-0.5,13.200000000000001,2.6,24.3,-10.0,-2.3000000000000003
1698924233.933,16,-0.9,3.7,1.9000000000000001,-0.2,13.0,3.7,34.900000000000006,-11.000000000000002,-5.9
1698924233.949,16,-0.9,3.0,2.0,-0.2,12.4,3.7,62.7,-1.9,-14.200000000000001
1698924233.966,16,-0.7000000000000001,2.7,1.9000000000000001,-0.1,12.100000000000001,3.4000000000000004,70.8,-3.9,-16.400000000000002
1698924233.982,16,-0.4,1.3,2.0,0.2,10.700000000000001,3.3000000000000003,75.5,-16.6,-21.3
1698924233.999,16,0.0,-0.5,2.0,0.5,9.0,3.1,62.900000000000006,-17.5,-26.3
1698924234.016,16,0.30000000000000004,-1.0,2.2,0.7000000000000001,8.5,3.2,50.4,-14.100000000000001,-28.200000000000003
1698924234.033,16,0.7000000000000001,-0.9,2.7,1.0,8.6,3.7,19.500000000000004,-10.0,-30.299999999999997
1698924234.05,16,0.4,-0.5,2.7,0.6000000000000001,9.0,3.7,-11.700000000000001,-9.4,-25.700000000000003
1698924234.066,16,0.4,-0.4,2.0,0.6000000000000001,9.1,3.1,-41.7,-11.1,-17.0
1698924234.082,16,0.4,-0.4,1.9000000000000001,0.6000000000000001,9.1,3.1,-52.900000000000006,-13.3,-14.700000000000001
1698924234.099,16,0.30000000000000004,-0.5,1.6,0.4,9.0,3.0,-61.4,-13.9,-10.4
1698924234.116,16,0.30000000000000004,-0.6000000000000001,1.3,0.5,8.8,2.8000000000000003,-60.400000000000006,-13.200000000000001,-7.6
1698924234.133,16,0.30000000000000004,-0.7000000000000001,0.8,0.5,8.700000000000001,2.5,-53.6,-13.6,-4.5
1698924234.149,16,0.1,-0.7000000000000001,0.7000000000000001,0.2,8.6,2.5,-39.50000000000001,-19.0,-4.3999999999999995
1698924234.166,16,-0.1,-0.9,0.4,0.1,8.4,2.4000000000000004,-21.1,-24.000000000000004,-5.300000000000001
1698924234.182,16,-0.1,-1.0,0.30000000000000004,0.0,8.3,2.3000000000000003,-12.4,-24.9,-6.4
1698924234.199,16,0.0,-1.0,0.5,0.1,8.3,2.4000000000000004,2.8,-22.1,-9.700000000000001
1698924234.216,16,0.30000000000000004,-0.9,0.4,0.30000000000000004,8.4,2.3000000000000003,12.3,-17.5,-12.4
1698924234.233,16,0.4,-0.9,0.5,0.5,8.4,2.4000000000000004,14.500000000000002,-16.3,-12.5
1698924234.25,16,0.7000000000000001,-0.8,0.5,0.7000000000000001,8.5,2.4000000000000004,14.600000000000001,-16.5,-10.2
1698924234.265,16,0.7000000000000001,-0.9,0.5,0.8,8.4,2.3000000000000003,7.9,-18.6,-6.2
1698924234.283,16,0.6000000000000001,-0.9,0.30000000000000004,0.7000000000000001,8.4,2.2,1.9,-17.7,-4.800000000000001
1698924234.299,16,0.2,-0.7000000000000001,0.1,0.30000000000000004,8.6,2.0,-13.700000000000001,-11.700000000000001,-5.6
1698924234.316,16,0.2,-0.5,0.0,0.1,8.700000000000001,2.0,-20.4,-6.3,-7.500000000000001
1698924234.333,16,0.2,-0.30000000000000004,0.1,0.2,9.0,2.1,-27.3,-4.800000000000001,-12.8
1698924234.349,16,0.30000000000000004,-0.30000000000000004,0.2,0.2,8.9,2.2,-25.5,-2.4000000000000004,-15.299999999999999
1698924234.366,16,0.2,-0.9,-0.4,0.1,8.4,1.7000000000000002,-22.4,-0.30000000000000004,-17.1
1698924234.383,16,0.2,-1.2000000000000002,-0.4,0.1,8.0,1.8,-21.900000000000002,-1.3,-16.900000000000002
1698924234.399,16,0.2,-1.5,-0.5,0.0,7.7,1.8,-18.400000000000002,-2.1999999999999997,-14.500000000000002
1698924234.416,16,-0.2,-1.5,-0.6000000000000001,-0.4,7.7,1.7000000000000002,-13.100000000000001,-16.400000000000002,-11.9
1698924234.432,16,-0.6000000000000001,-1.2000000000000002,-0.7000000000000001,-1.1,8.4,1.5,-11.000000000000002,-22.4,-10.4
1698924234.449,16,-1.1,-0.5,-0.9,-1.4000000000000001,8.700000000000001,1.5,-8.5,-30.5,-9.8
1698924234.466,16,-1.3,0.2,-0.6000000000000001,-1.6,9.3,1.8,-3.6,-44.4,-13.100000000000001
1698924234.482,16,-1.2000000000000002,0.8,-0.2,-1.4000000000000001,9.9,2.2,6.7,-54.1,-20.0
1698924234.499,16,-1.1,1.0,0.1,-1.4000000000000001,10.200000000000001,2.4000000000000004,12.6,-54.5,-23.3
1698924234.516,16,-0.9,1.4000000000000001,0.5,-1.2000000000000002,10.5,2.8000000000000003,25.700000000000003,-53.300000000000004,-25.6
1698924234.533,16,-0.4,1.4000000000000001,0.6000000000000001,-0.7000000000000001,10.600000000000001,2.7,33.400000000000006,-50.9,-24.9
1698924234.549,16,0.2,1.6,0.6000000000000001,-0.2,10.8,2.7,33.300000000000004,-52.2,-25.0
1698924234.566,16,1.0,1.9000000000000001,0.7000000000000001,0.6000000000000001,11.200000000000001,2.8000000000000003,26.6,-68.2,-23.5
1698924234.582,16,1.2000000000000002,1.8,0.4,0.8,11.100000000000001,2.4000000000000004,8.200000000000001,-68.7,-14.500000000000002
1698924234.599,16,1.2000000000000002,1.5,0.6000000000000001,0.7000000000000001,10.8,2.6,-3.5,-70.5,-8.600000000000001
1698924234.616,16,0.4,0.8,1.1,0.0,10.100000000000001,3.2,-17.8,-83.89999999999999,1.7
1698924234.632,16,-1.0,0.2,0.4,-1.3,9.4,2.6,-23.900000000000002,-94.0,4.1000000000000005
1698924234.649,16,-1.5,-0.4,0.30000000000000004,-1.8,8.9,2.5,-27.0,-95.7,1.9
1698924234.666,16,-1.7000000000000002,-1.4000000000000001,0.0,-1.9000000000000001,7.9,2.3000000000000003,-28.200000000000003,-92.60000000000001,-7.6
1698924234.682,16,-1.2000000000000002,-1.5,-0.2,-1.3,7.7,2.2,-24.200000000000003,-88.4,-23.5
1698924234.699,16,-0.8,-1.2000000000000002,0.1,-1.1,8.0,2.5,-19.1,-88.5,-31.3
1698924234.716,16,-0.5,-0.4,0.6000000000000001,-0.8,8.8,3.1,3.2,-94.3,-34.900000000000006
1698924234.732,16,-0.6000000000000001,0.1,0.7000000000000001,-0.8,9.3,3.1,28.400000000000002,-109.7,-24.200000000000003
1698924234.75,16,-0.8,0.30000000000000004,0.8,-1.0,9.5,3.1,36.800000000000004,-114.10000000000001,-20.3
1698924234.766,16,-0.9,0.5,1.1,-1.1,9.700000000000001,3.3000000000000003,42.900000000000006,-115.8,-20.0
1698924234.782,16,-0.9,0.6000000000000001,1.1,-1.1,9.8,3.3000000000000003,41.0,-114.70000000000002,-22.3
1698924234.799,16,-0.8,0.7000000000000001,0.5,-1.0,10.0,2.6,23.3,-119.1,-27.2
1698924234.815,16,-0.9,0.30000000000000004,0.1,-1.2000000000000002,9.600000000000001,2.2,-10.600000000000001,-125.80000000000001,-28.0
1698924234.832,16,-1.0,0.5,0.30000000000000004,-1.2000000000000002,9.700000000000001,2.5,-38.1,-129.9,-28.500000000000004
1698924234.849,16,-0.9,0.8,-0.4,-1.2000000000000002,9.9,2.2,-44.5,-133.0,-30.200000000000003
1698924234.866,16,-0.9,0.9,-0.7000000000000001,-1.1,10.100000000000001,1.8,-51.6,-143.8,-34.2
1698924234.882,16,-0.9,0.8,-0.8,-1.1,10.0,1.8,-51.7,-151.60000000000002,-36.800000000000004
1698924234.9,16,-1.0,0.8,-0.8,-1.2000000000000002,9.9,1.9000000000000001,-48.300000000000004,-153.4,-38.300000000000004
1698924234.916,16,-1.0,0.7000000000000001,-1.0,-1.2000000000000002,9.8,1.8,-36.4,-154.5,-44.3
1698924234.934,16,-1.0,0.7000000000000001,-1.2000000000000002,-1.1,9.700000000000001,1.6,-30.100000000000005,-155.4,-48.9
1698924234.949,16,-0.8,0.6000000000000001,-1.4000000000000001,-1.0,9.700000000000001,1.6,-18.900000000000002,-157.9,-57.3
1698924234.966,16,-0.30000000000000004,0.5,-1.5,-0.5,9.600000000000001,1.5,-9.600000000000001,-164.60000000000002,-60.400000000000006
1698924234.982,16,-0.30000000000000004,0.30000000000000004,-1.4000000000000001,-0.6000000000000001,9.4,1.7000000000000002,-4.1000000000000005,-171.10000000000002,-56.0
1698924234.999,16,-0.5,0.2,-1.3,-0.8,9.3,1.7000000000000002,-2.8,-171.50000000000003,-53.400000000000006
1698924235.016,16,-0.7000000000000001,0.1,-1.3,-0.9,9.200000000000001,1.7000000000000002,-4.0,-173.9,-53.50000000000001
1698924235.033,16,-0.7000000000000001,0.2,-1.3,-0.9,9.200000000000001,1.8,-9.1,-178.0,-58.400000000000006
1698924235.052,16,-0.6000000000000001,0.2,-1.4000000000000001,-0.8,9.3,1.7000000000000002,-13.4,-178.60000000000002,-60.599999999999994
1698924235.065,16,-0.2,0.2,-1.8,-0.5,9.200000000000001,1.3,-25.400000000000002,-183.20000000000002,-61.7
1698924235.083,16,-0.1,-0.1,-1.9000000000000001,-0.30000000000000004,8.8,1.3,-38.2,-188.4,-59.80000000000001
1698924235.099,16,-0.1,-0.6000000000000001,-2.0,-0.30000000000000004,8.3,1.4000000000000001,-45.800000000000004,-193.8,-57.1
1698924235.116,16,-0.30000000000000004,-0.6000000000000001,-1.9000000000000001,-0.4,8.3,1.6,-46.900000000000006,-196.20000000000002,-55.2
1698924235.132,16,-0.7000000000000001,-0.30000000000000004,-1.8,-0.7000000000000001,8.5,1.8,-43.1,-197.2,-54.5
1698924235.149,16,-0.8,-0.1,-1.8,-0.8,8.700000000000001,1.8,-39.1,-196.0,-56.300000000000004
1698924235.177,16,-0.7000000000000001,0.2,-1.7000000000000002,-0.7000000000000001,8.9,2.1,-27.1,-191.3,-66.7
1698924235.182,16,-0.7000000000000001,0.2,-1.7000000000000002,-0.7000000000000001,8.9,2.1,-27.1,-191.3,-66.7
1698924235.199,16,-0.4,0.6000000000000001,-1.1,-0.30000000000000004,9.3,2.7,-12.4,-189.9,-69.2
1698924235.215,16,-0.30000000000000004,1.0,-1.2000000000000002,-0.2,9.600000000000001,2.6,-7.400000000000001,-185.20000000000002,-68.0
1698924235.232,16,-0.2,1.2000000000000002,-1.6,0.0,9.9,2.3000000000000003,-7.1000000000000005,-181.4,-68.9
1698924235.249,16,-0.2,1.4000000000000001,-1.5,0.0,10.100000000000001,2.4000000000000004,-12.700000000000001,-175.9,-67.5
1698924235.266,16,-0.4,1.5,-1.7000000000000002,-0.2,10.200000000000001,2.2,-16.5,-173.5,-64.9
1698924235.282,16,-0.7000000000000001,1.5,-1.7000000000000002,-0.4,10.200000000000001,2.2,-26.1,-174.6,-57.400000000000006
1698924235.299,16,-0.9,1.3,-1.5,-0.6000000000000001,9.700000000000001,2.8000000000000003,-29.000000000000004,-174.7,-55.1
1698924235.316,16,-0.9,0.9,-0.9,-0.5,9.600000000000001,3.1,-26.700000000000003,-171.60000000000002,-56.0
1698924235.333,16,-0.30000000000000004,0.7000000000000001,-1.1,0.1,9.3,2.9000000000000004,-19.9,-167.9,-64.7
1698924235.352,16,0.6000000000000001,0.4,-0.6000000000000001,1.0,9.0,3.4000000000000004,-18.0,-165.7,-70.3
1698924235.366,16,1.1,0.6000000000000001,0.0,1.5,9.200000000000001,4.0,-15.5,-160.20000000000002,-72.6
1698924235.384,16,1.8,1.3,-0.2,2.2,9.9,3.8000000000000003,-9.1,-137.5,-80.5
1698924235.399,16,1.8,0.7000000000000001,-1.1,2.2,9.3,2.9000000000000004,-19.500000000000004,-115.0,-85.2
1698924235.416,16,1.8,0.0,-1.3,2.1,8.6,2.9000000000000004,-29.200000000000003,-106.80000000000001,-83.30000000000001
1698924235.434,16,1.9000000000000001,-1.0,-1.4000000000000001,2.1,7.5,2.9000000000000004,-45.3,-99.9,-74.5
1698924235.449,16,1.8,-1.3,-1.5,1.7000000000000002,7.1000000000000005,2.9000000000000004,-51.6,-106.10000000000001,-64.2
1698924235.465,16,0.9,-1.2000000000000002,-1.4000000000000001,1.1,7.2,3.0,-50.800000000000004,-107.30000000000001,-57.6
1698924235.482,16,0.2,-0.30000000000000004,-1.2000000000000002,0.4,8.1,3.3000000000000003,-40.5,-107.9,-46.5
1698924235.499,16,0.0,0.7000000000000001,-0.9,0.30000000000000004,9.0,3.7,-21.6,-117.60000000000001,-45.2
1698924235.516,16,-0.1,1.0,-0.7000000000000001,0.2,9.3,3.9000000000000004,-12.100000000000001,-119.0,-46.7
1698924235.533,16,0.2,0.4,-1.0,0.5,8.700000000000001,3.5,-2.6,-110.30000000000001,-49.8
1698924235.549,16,0.7000000000000001,-0.30000000000000004,-1.3,1.1,8.0,3.3000000000000003,-9.9,-106.5,-55.1
1698924235.566,16,0.9,-0.4,-1.1,1.5,7.9,3.6,-24.000000000000004,-96.00000000000001,-57.3
1698924235.582,16,1.3,-0.4,-1.3,1.7000000000000002,7.800000000000001,3.4000000000000004,-30.000000000000004,-88.8,-57.9
1698924235.599,16,1.6,-0.7000000000000001,-1.8,2.0,7.5,3.0,-42.300000000000004,-78.5,-58.1
1698924235.615,16,1.7000000000000002,-0.7000000000000001,-1.6,2.0,7.4,3.2,-46.300000000000004,-72.6,-58.5
1698924235.632,16,1.9000000000000001,-0.7000000000000001,-1.3,2.1,7.4,3.5,-43.1,-56.900000000000006,-59.60000000000001
1698924235.649,16,1.9000000000000001,-0.6000000000000001,-1.4000000000000001,2.1,7.5,3.6,-29.800000000000004,-52.6,-53.8
1698924235.666,16,1.9000000000000001,-0.5,-1.4000000000000001,2.1,7.5,3.6,-22.5,-53.400000000000006,-47.6
1698924235.682,16,1.4000000000000001,-1.1,-1.4000000000000001,1.6,6.9,3.6,-13.9,-47.0,-30.200000000000003
1698924235.699,16,0.5,-1.2000000000000002,-0.9,0.8,6.800000000000001,4.2,-11.5,-31.2,-15.9
1698924235.715,16,0.0,-1.1,-0.7000000000000001,0.2,6.800000000000001,4.3,-9.8,-24.1,-16.1
1698924235.733,16,-0.2,-1.0,-0.7000000000000001,0.1,6.9,4.4,-11.9,-24.1,-20.3
1698924235.749,16,-0.1,-0.7000000000000001,-0.6000000000000001,0.1,7.1000000000000005,4.6000000000000005,-21.3,-25.1,-31.6
1698924235.768,16,0.1,-0.8,-0.6000000000000001,0.30000000000000004,7.0,4.5,-29.300000000000004,-24.3,-35.1
1698924235.782,16,0.5,-1.1,0.0,0.6000000000000001,6.7,5.300000000000001,-47.5,-17.400000000000002,-32.4
1698924235.799,16,0.5,-1.3,0.1,0.6000000000000001,6.4,5.5,-54.7,-10.9,-23.8
1698924235.815,16,0.4,-1.3,0.30000000000000004,0.2,6.1000000000000005,5.800000000000001,-53.6,-10.0,-16.6
1698924235.832,16,-0.1,-1.5,0.30000000000000004,0.0,6.0,5.9,-50.6,-10.8,-14.200000000000001
1698924235.849,16,-0.5,-1.6,0.2,-0.9,5.800000000000001,5.800000000000001,-46.300000000000004,-11.4,-12.3
1698924235.866,16,-1.3,-1.5,0.1,-1.4000000000000001,5.9,5.9,-38.1,-13.8,-9.700000000000001
1698924235.883,16,-1.4000000000000001,-1.2000000000000002,-0.1,-1.4000000000000001,6.0,5.800000000000001,-32.9,-15.9,-13.3
1698924235.899,16,-1.2000000000000002,-1.0,0.1,-1.3,6.2,6.1000000000000005,-35.0,-12.000000000000002,-22.900000000000002
1698924235.916,16,-1.0,-0.7000000000000001,0.4,-1.0,6.4,6.4,-34.300000000000004,-8.5,-26.6
1698924235.933,16,-0.6000000000000001,-0.2,0.5,-0.7000000000000001,6.9,6.6000000000000005,-32.2,-7.1000000000000005,-31.900000000000002
1698924235.949,16,-0.2,0.0,0.2,-0.4,7.0,6.4,-32.300000000000004,-4.2,-32.1
1698924235.967,16,-0.1,-0.1,0.4,-0.30000000000000004,6.800000000000001,6.6000000000000005,-35.5,-6.1000000000000005,-28.3
1698924235.982,16,-0.30000000000000004,-0.1,0.8,-0.6000000000000001,6.7,7.1000000000000005,-34.6,-4.5,-20.8
1698924235.999,16,-0.9,0.1,0.6000000000000001,-1.2000000000000002,6.9,7.0,-30.799999999999997,0.5,-13.9
1698924236.015,16,-1.0,0.2,0.6000000000000001,-1.3,6.800000000000001,7.1000000000000005,-29.200000000000003,1.2000000000000002,-12.8
1698924236.033,16,-0.9,-0.1,0.5,-1.3,6.6000000000000005,7.0,-24.3,3.0000000000000004,-17.5
1698924236.05,16,-1.0,-0.6000000000000001,0.5,-1.4000000000000001,6.1000000000000005,7.1000000000000005,-19.200000000000003,1.6,-23.3
1698924236.066,16,-1.2000000000000002,-0.7000000000000001,0.5,-1.7000000000000002,5.9,7.1000000000000005,-16.2,-4.9,-22.8
1698924236.083,16,-1.4000000000000001,-0.7000000000000001,0.5,-1.9000000000000001,5.9,7.1000000000000005,-16.2,-5.9,-21.900000000000002
1698924236.099,16,-1.7000000000000002,-0.4,1.1,-2.3000000000000003,6.2,7.7,-15.6,-4.2,-20.8
1698924236.115,16,-1.5,0.1,0.9,-2.1,6.6000000000000005,7.6000000000000005,-10.0,-5.7,-20.2
1698924236.132,16,-1.2000000000000002,0.1,0.8,-1.8,6.6000000000000005,7.5,-8.200000000000001,-9.600000000000001,-19.9
1698924236.151,16,-0.7000000000000001,-0.2,0.9,-1.3,6.300000000000001,7.6000000000000005,-3.7000000000000006,-14.100000000000001,-17.5
1698924236.166,16,-0.5,-0.4,0.9,-1.1,5.9,7.6000000000000005,6.7,-8.4,-13.700000000000001
1698924236.182,16,-0.30000000000000004,-0.7000000000000001,0.8,-0.9,5.800000000000001,7.5,13.0,-8.4,-12.4
1698924236.2,16,-0.1,-0.9,0.9,-0.8,5.6000000000000005,7.6000000000000005,24.1,-11.000000000000002,-10.600000000000001
1698924236.215,16,-0.1,-1.0,0.9,-0.8,5.6000000000000005,7.6000000000000005,28.0,-11.8,-9.0
1698924236.232,16,-0.2,-1.0,1.0,-0.9,5.6000000000000005,7.6000000000000005,31.900000000000002,-9.700000000000001,-5.0
1698924236.249,16,-0.2,-1.0,1.1,-0.8,5.9,7.5,34.1,-4.7,-2.7
1698924236.266,16,-0.2,-0.8,0.9,-0.8,5.9,7.300000000000001,36.2,-3.0000000000000004,-2.5
1698924236.284,16,-0.30000000000000004,-0.8,0.8,-1.0,6.0,7.2,41.9,-0.1,-2.3000000000000003
1698924236.299,16,-0.6000000000000001,-1.0,0.7000000000000001,-1.2000000000000002,5.9,7.0,52.300000000000004,4.1000000000000005,-2.5
1698924236.317,16,-0.7000000000000001,-1.2000000000000002,0.5,-1.3,5.7,6.300000000000001,58.3,5.2,-3.1
1698924236.334,16,-0.6000000000000001,-1.4000000000000001,0.1,-1.3,5.7,6.1000000000000005,67.80000000000001,4.0,-4.6000000000000005
1698924236.351,16,-0.6000000000000001,-1.3,-0.2,-1.3,5.9,5.7,76.1,6.1000000000000005,-4.800000000000001
1698924236.366,16,-0.7000000000000001,-0.8,-0.30000000000000004,-1.4000000000000001,6.6000000000000005,5.300000000000001,85.2,8.200000000000001,-3.8
1698924236.382,16,-0.8,-0.5,-0.30000000000000004,-1.6,7.0,5.300000000000001,90.8,8.4,-3.1
1698924236.399,16,-0.9,0.0,-0.30000000000000004,-1.8,7.7,5.0,102.7,7.300000000000001,-1.3
1698924236.416,16,-1.1,0.6000000000000001,0.2,-2.0,8.5,5.2,112.80000000000001,1.9,3.8
1698924236.432,16,-1.4000000000000001,1.5,0.9,-2.4000000000000004,10.8,6.2,118.69999999999999,-1.0999999999999999,7.9
1698924236.449,16,-1.7000000000000002,4.3,2.2,-2.5,12.5,6.6000000000000005,131.5,-9.600000000000001,17.5
1698924236.465,16,-1.4000000000000001,7.1000000000000005,2.7,-2.1,15.600000000000001,6.800000000000001,130.4,-17.200000000000003,22.5
1698924236.483,16,-1.0,7.2,2.1,-1.7000000000000002,15.8,6.1000000000000005,118.9,-16.1,21.5
1698924236.5,16,0.0,3.8000000000000003,0.8,-0.6000000000000001,12.600000000000001,4.5,80.9,-10.0,12.6
1698924236.515,16,0.2,1.3,-0.5,-0.4,10.200000000000001,3.0,57.00000000000001,-2.9,4.6000000000000005
1698924236.532,16,0.0,0.0,-1.4000000000000001,-0.6000000000000001,8.9,1.9000000000000001,46.5,3.6,3.8
1698924236.55,16,-0.2,-0.4,-1.6,-0.7000000000000001,8.5,1.7000000000000002,45.1,2.8,5.2
1698924236.566,16,-0.4,-0.8,-2.1,-0.9,8.200000000000001,1.0,47.2,-2.5,10.4
1698924236.582,16,-0.4,-0.9,-2.2,-1.0,8.1,0.8,47.7,-5.2,12.8
1698924236.599,16,-0.6000000000000001,-1.0,-2.0,-1.1,8.1,0.8,49.6,-7.0,17.3
1698924236.616,16,-0.7000000000000001,-0.8,-1.9000000000000001,-1.2000000000000002,8.6,1.0,51.800000000000004,-6.9,19.200000000000003
1698924236.632,16,-1.0,0.30000000000000004,-1.3,-1.3,9.4,1.2000000000000002,65.2,-9.200000000000001,21.700000000000003
1698924236.65,16,-1.0,0.6000000000000001,-1.2000000000000002,-1.3,9.8,1.1,70.7,-11.1,21.200000000000003
1698924236.666,16,-0.8,1.0,-0.9,-1.1,10.200000000000001,1.2000000000000002,79.3,-12.5,17.400000000000002
1698924236.682,16,-0.7000000000000001,1.0,-0.9,-0.9,10.3,1.1,82.30000000000001,-10.0,15.299999999999999
1698924236.7,16,-0.4,0.9,-0.9,-0.6000000000000001,10.3,0.7000000000000001,80.5,-7.500000000000001,12.700000000000001
1698924236.715,16,-0.2,0.9,-0.7000000000000001,-0.30000000000000004,10.3,0.7000000000000001,72.5,-1.2000000000000002,14.600000000000001
1698924236.732,16,-0.2,1.1,-0.8,-0.30000000000000004,10.600000000000001,0.4,59.9,-3.0000000000000004,18.400000000000002
1698924236.749,16,-0.30000000000000004,1.2000000000000002,-0.6000000000000001,-0.30000000000000004,10.600000000000001,0.5,52.2,-4.5,20.0
1698924236.765,16,-0.1,1.8,-3.7,0.0,11.3,-2.7,40.4,-14.100000000000001,20.900000000000002
1698924236.784,16,-1.3,0.9,0.1,-1.2000000000000002,10.4,0.8,128.4,-38.1,19.0
1698924236.799,16,-0.4,-0.9,-1.2000000000000002,-0.30000000000000004,8.6,-0.8,169.20000000000002,48.7,26.0
1698924236.815,16,0.1,1.2000000000000002,-2.8000000000000003,0.30000000000000004,10.700000000000001,-3.0,137.8,-7.1000000000000005,10.600000000000001
1698924236.832,16,-0.30000000000000004,2.5,0.30000000000000004,-0.2,12.0,-0.1,52.50000000000001,-35.0,-5.300000000000001
1698924236.85,16,0.5,2.9000000000000004,-0.5,0.7000000000000001,12.5,-1.0,30.000000000000004,20.8,-4.800000000000001
1698924236.866,16,0.30000000000000004,2.0,-0.30000000000000004,0.5,11.600000000000001,-1.0,59.5,18.5,-5.300000000000001
1698924236.882,16,-0.4,0.5,0.4,-0.30000000000000004,10.0,-0.5,80.5,21.8,-5.0
1698924236.9,16,-0.5,0.2,0.7000000000000001,-0.4,9.8,-0.30000000000000004,63.300000000000004,26.400000000000002,-2.7
1698924236.917,16,-0.30000000000000004,-0.2,0.1,-0.1,9.4,-1.0,30.7,29.000000000000004,2.1
1698924236.933,16,-0.2,-0.30000000000000004,-0.2,0.0,9.200000000000001,-1.5,42.6,25.8,2.4000000000000004
1698924236.949,16,-0.30000000000000004,0.0,-0.30000000000000004,-0.1,9.5,-1.6,44.3,22.2,1.9
1698924236.968,16,-0.4,0.1,-0.2,-0.2,9.600000000000001,-1.6,33.0,17.5,2.7
1698924236.982,16,-0.30000000000000004,0.0,-0.1,0.0,9.4,-1.7000000000000002,31.7,14.200000000000001,3.4
1698924236.999,16,-0.2,0.1,-0.2,0.0,9.5,-1.7000000000000002,31.3,13.6,3.3000000000000003
1698924237.015,16,-0.30000000000000004,-0.1,-0.2,0.0,9.3,-1.9000000000000001,30.799999999999997,12.8,3.2
1698924237.032,16,-0.4,-0.1,-0.4,-0.1,9.3,-2.2,31.099999999999998,10.4,3.6
1698924237.049,16,-0.4,-0.1,-0.30000000000000004,-0.1,9.4,-2.2,31.0,8.700000000000001,3.3000000000000003
1698924237.065,16,-0.30000000000000004,0.0,-0.2,0.0,9.4,-2.1,31.4,6.6000000000000005,3.1
1698924237.082,16,-0.1,0.30000000000000004,-0.2,0.2,9.700000000000001,-2.3000000000000003,29.500000000000004,3.7000000000000006,1.0
1698924237.099,16,-0.30000000000000004,0.1,-0.2,0.0,9.5,-2.3000000000000003,27.7,1.9,-0.30000000000000004
1698924237.116,16,-0.4,-0.2,-0.2,-0.1,9.1,-2.4000000000000004,24.1,0.9,-0.4
1698924237.133,16,-0.4,-0.1,-0.2,-0.1,9.3,-2.5,21.8,0.8,-1.0
1698924237.15,16,-0.4,0.0,-0.1,-0.1,9.3,-2.4000000000000004,20.2,0.7,-2.1
1698924237.166,16,-0.30000000000000004,-0.1,-0.1,-0.1,9.200000000000001,-2.4000000000000004,19.9,2.1999999999999997,-1.5000000000000002
1698924237.184,16,-0.30000000000000004,0.0,-0.2,-0.1,9.3,-2.6,19.400000000000002,3.8,-2.1999999999999997
1698924237.2,16,-0.4,0.0,-0.30000000000000004,-0.1,9.3,-2.7,17.5,3.6,-2.1999999999999997
1698924237.216,16,-0.30000000000000004,-0.1,-0.2,-0.1,9.200000000000001,-2.7,12.000000000000002,2.9,-2.0
1698924237.232,16,-0.30000000000000004,-0.1,-0.2,-0.1,9.200000000000001,-2.7,7.6,2.7,-1.7
1698924237.25,16,-0.4,0.0,-0.2,-0.1,9.200000000000001,-2.7,5.9,2.8,-1.6
1698924237.266,16,-0.30000000000000004,0.0,0.2,-0.1,9.200000000000001,-2.4000000000000004,4.800000000000001,3.1,-0.9
1698924237.283,16,-0.30000000000000004,0.0,0.2,-0.1,9.3,-2.3000000000000003,3.9,4.1000000000000005,-0.5
1698924237.299,16,-0.30000000000000004,0.0,0.1,-0.1,9.3,-2.5,2.0,5.300000000000001,0.5
1698924237.316,16,-0.4,-0.1,0.1,-0.2,9.200000000000001,-2.5,1.4,4.800000000000001,1.0
1698924237.334,16,-0.30000000000000004,0.0,0.0,-0.1,9.200000000000001,-2.5,1.2000000000000002,3.8,1.0
1698924237.349,16,-0.30000000000000004,-0.1,0.0,-0.1,9.200000000000001,-2.5,0.7,2.9,1.0
1698924237.366,16,-0.2,-0.1,-0.1,-0.1,9.200000000000001,-2.7,-1.5000000000000002,2.1999999999999997,0.2
1698924237.382,16,-0.2,-0.1,0.0,-0.1,9.1,-2.5,-4.6000000000000005,1.0999999999999999,-0.5
1698924237.399,16,-0.2,-0.1,0.0,-0.1,9.200000000000001,-2.5,-5.8,0.9,-0.7
1698924237.415,16,-0.2,0.0,0.1,-0.1,9.200000000000001,-2.4000000000000004,-7.1000000000000005,0.0,-0.9
1698924237.432,16,-0.2,0.0,0.0,-0.1,9.200000000000001,-2.5,-7.699999999999999,-0.9,-1.0999999999999999
1698924237.449,16,-0.2,0.0,0.0,-0.1,9.200000000000001,-2.4000000000000004,-7.699999999999999,-1.0999999999999999,-1.0999999999999999
1698924237.466,16,-0.1,0.0,0.0,-0.1,9.200000000000001,-2.4000000000000004,-6.9,-1.4,-1.0
1698924237.482,16,-0.1,0.0,0.1,-0.1,9.200000000000001,-2.4000000000000004,-5.1,-0.8,-0.30000000000000004
1698924237.499,16,-0.2,-0.1,0.1,-0.1,9.200000000000001,-2.3000000000000003,-2.9,-0.5,0.0
1698924237.515,16,-0.1,-0.1,0.1,-0.1,9.200000000000001,-2.3000000000000003,-1.8,-0.5,0.2
1698924237.532,16,-0.1,0.0,0.2,-0.1,9.200000000000001,-2.2,1.2000000000000002,0.0,0.2
1698924237.55,16,-0.1,-0.1,0.0,-0.1,9.200000000000001,-2.3000000000000003,3.2,0.2,-0.1
1698924237.565,16,-0.1,-0.1,0.0,-0.1,9.200000000000001,-2.4000000000000004,3.9,-0.2,-0.5
1698924237.582,16,-0.1,-0.1,-0.1,-0.1,9.1,-2.5,4.800000000000001,-1.4,-0.6000000000000001
1698924237.599,16,-0.1,-0.1,-0.1,0.0,9.200000000000001,-2.6,5.0,-1.4,-0.6000000000000001
1698924237.616,16,-0.1,-0.1,-0.1,-0.1,9.200000000000001,-2.6,5.300000000000001,-1.4,-0.30000000000000004
1698924237.632,16,-0.1,0.0,-0.2,-0.1,9.200000000000001,-2.7,5.6,-1.3,0.0
1698924237.649,16,-0.1,0.0,-0.1,-0.1,9.200000000000001,-2.6,5.2,-1.0999999999999999,0.1
1698924237.665,16,-0.1,-0.1,-0.1,-0.1,9.200000000000001,-2.6,4.800000000000001,-0.9,0.1
1698924237.682,16,-0.2,0.0,-0.1,-0.2,9.1,-2.7,3.3000000000000003,-0.4,0.0
1698924237.699,16,-0.1,-0.1,0.0,-0.1,9.1,-2.6,2.3000000000000003,0.4,0.2
1698924237.715,16,-0.1,0.0,0.0,-0.1,9.1,-2.5,1.9,0.7,0.0
1698924237.732,16,-0.1,0.0,-0.1,-0.1,9.200000000000001,-2.6,1.4,1.4,0.0
1698924237.748,16,-0.1,0.0,0.0,-0.1,9.200000000000001,-2.6,0.7,1.0999999999999999,0.0
1698924237.765,16,-0.1,0.0,0.1,-0.1,9.200000000000001,-2.5,0.2,0.8,0.1
1698924237.782,16,-0.1,0.0,0.1,-0.1,9.200000000000001,-2.5,0.1,0.7,0.1
1698924237.799,16,0.0,0.0,0.0,-0.1,9.200000000000001,-2.5,-0.4,0.6000000000000001,0.2
1698924237.815,16,0.0,0.0,0.0,-0.1,9.200000000000001,-2.5,-0.2,0.6000000000000001,0.2
1698924237.832,16,-0.1,0.0,0.1,-0.1,9.200000000000001,-2.4000000000000004,-0.2,0.6000000000000001,0.1
1698924237.849,16,0.0,0.0,0.0,-0.1,9.200000000000001,-2.5,0.1,0.7,0.0
1698924237.865,16,0.0,0.0,0.1,-0.1,9.200000000000001,-2.5,0.1,0.8,0.1
1698924237.882,16,0.0,0.0,-0.1,-0.1,9.200000000000001,-2.6,0.1,0.5,0.0
1698924237.899,16,0.0,0.0,0.0,-0.1,9.200000000000001,-2.6,0.2,0.0,0.0
1698924237.915,16,0.0,0.0,-0.1,-0.1,9.200000000000001,-2.6,0.30000000000000004,-0.30000000000000004,-0.1
1698924237.933,16,0.0,0.0,0.0,-0.1,9.200000000000001,-2.6,0.1,-0.2,0.0
1698924237.949,16,0.0,0.0,0.0,-0.1,9.200000000000001,-2.6,0.0,-0.30000000000000004,0.0
1698924237.966,16,-0.1,0.0,0.0,-0.1,9.200000000000001,-2.5,-0.30000000000000004,-0.6000000000000001,-0.1
1698924237.983,16,0.0,0.0,0.0,-0.1,9.200000000000001,-2.5,-0.2,-0.8,-0.1
1698924238.0,16,0.0,0.0,0.0,-0.1,9.200000000000001,-2.6,-0.30000000000000004,-0.8,-0.1
1698924238.017,16,0.0,0.0,0.0,-0.1,9.1,-2.6,-0.6000000000000001,-1.0999999999999999,-0.2
1698924238.033,16,0.0,0.0,0.0,-0.1,9.200000000000001,-2.6,-0.7,-1.0999999999999999,-0.30000000000000004
1698924238.049,16,-0.1,0.0,0.0,-0.1,9.1,-2.5,-1.0999999999999999,-1.4,-0.1
1698924238.066,16,0.0,0.0,0.0,-0.1,9.1,-2.6,-1.0999999999999999,-1.3,-0.1
1698924238.083,16,0.0,0.0,0.0,-0.1,9.1,-2.6,-1.0,-1.3,-0.1
1698924238.099,16,0.0,0.0,0.0,-0.1,9.200000000000001,-2.5,-1.0,-1.3,-0.1
1698924238.116,16,0.0,0.0,0.0,-0.1,9.200000000000001,-2.5,-0.9,-1.4,-0.2
1698924238.132,16,0.0,0.0,0.0,-0.1,9.200000000000001,-2.5,-0.4,-0.9,-0.1
1698924238.149,16,0.0,0.0,0.0,-0.1,9.200000000000001,-2.5,-0.4,-0.8,-0.1
1698924238.166,16,0.0,0.0,0.0,-0.1,9.200000000000001,-2.6,-0.30000000000000004,-0.7,-0.1
1698924238.184,16,0.0,0.0,0.0,-0.1,9.200000000000001,-2.5,-0.4,-0.7,0.0
1698924238.199,16,0.0,0.0,0.0,-0.1,9.200000000000001,-2.5,-0.2,-0.6000000000000001,-0.2
1698924238.216,16,0.0,0.0,0.0,-0.1,9.200000000000001,-2.5,-0.2,-0.30000000000000004,0.0
1698924238.232,16,0.0,0.0,0.0,-0.1,9.200000000000001,-2.5,0.0,-0.2,0.0
1698924238.25,16,0.0,0.0,0.0,-0.1,9.200000000000001,-2.5,0.0,-0.5,-0.1
1698924238.266,16,0.0,0.0,0.0,-0.1,9.200000000000001,-2.5,0.1,-0.6000000000000001,-0.2
1698924238.282,16,0.0,0.0,0.0,-0.1,9.200000000000001,-2.5,0.1,-0.30000000000000004,-0.1
1698924238.299,16,0.0,0.0,0.0,-0.1,9.200000000000001,-2.6,0.2,-0.2,-0.1
1698924238.316,16,0.0,0.0,0.0,-0.1,9.200000000000001,-2.5,0.4,-0.1,-0.1
1698924238.332,16,0.0,0.0,0.0,-0.1,9.200000000000001,-2.5,0.7,0.2,0.0
1698924238.349,16,0.0,0.0,0.0,-0.1,9.1,-2.6,1.2000000000000002,0.6000000000000001,0.1
1698924238.366,16,0.0,0.0,0.0,-0.1,9.200000000000001,-2.6,1.5000000000000002,0.7,0.2
1698924238.382,16,0.0,0.0,0.0,-0.1,9.200000000000001,-2.6,1.6,1.0,0.2
1698924238.399,16,0.0,0.0,0.0,-0.1,9.200000000000001,-2.6,1.7,1.0,0.2
1698924238.415,16,0.0,0.0,0.0,-0.1,9.200000000000001,-2.5,1.7,0.8,0.2
1698924238.432,16,0.0,0.0,-0.1,-0.1,9.200000000000001,-2.6,1.3,0.8,0.1
1698924238.449,16,0.0,0.0,0.0,-0.1,9.1,-2.6,1.0,0.7,0.0
1698924238.465,16,0.0,0.0,0.0,-0.1,9.1,-2.6,1.0,0.0,0.0
1698924238.482,16,0.0,0.0,0.0,-0.1,9.1,-2.6,1.0,-0.30000000000000004,0.0
1698924238.499,16,0.0,0.0,0.0,-0.1,9.200000000000001,-2.5,0.6000000000000001,-0.2,-0.2
1698924238.516,16,0.0,0.0,0.0,-0.1,9.200000000000001,-2.6,0.4,-0.4,-0.1
1698924238.532,16,0.0,0.0,0.0,-0.1,9.1,-2.6,0.30000000000000004,-0.4,-0.1
1698924238.55,16,0.0,0.0,0.0,-0.1,9.200000000000001,-2.6,0.1,0.0,-0.1
1698924238.566,16,0.0,0.0,-0.1,-0.1,9.200000000000001,-2.6,0.0,0.0,0.0
1698924238.582,16,0.0,0.0,0.0,-0.1,9.1,-2.6,-0.2,0.0,0.0
1698924238.599,16,0.0,0.0,0.0,-0.1,9.1,-2.6,0.0,0.0,0.0
1698924238.616,16,0.0,0.0,0.0,-0.1,9.200000000000001,-2.6,0.1,0.30000000000000004,0.0
1698924238.633,16,0.0,0.0,0.0,-0.1,9.1,-2.6,0.1,0.2,0.0
1698924238.651,16,0.0,0.0,0.0,-0.1,9.200000000000001,-2.6,0.0,0.4,0.0
1698924238.665,16,0.0,0.0,0.0,-0.1,9.1,-2.6,-0.2,0.30000000000000004,0.0
1698924238.682,16,0.0,0.0,0.0,-0.1,9.200000000000001,-2.6,-0.2,0.30000000000000004,0.0
1698924238.699,16,0.0,0.0,0.0,-0.1,9.200000000000001,-2.6,0.0,-0.2,0.0
1698924238.715,16,0.0,0.0,0.0,-0.1,9.200000000000001,-2.5,0.1,-0.2,-0.1
1698924238.732,16,0.0,0.0,0.0,-0.1,9.200000000000001,-2.6,0.1,-0.2,0.0
1698924238.749,16,0.0,0.0,0.0,-0.1,9.200000000000001,-2.6,0.30000000000000004,-0.30000000000000004,0.0
1698924238.766,16,0.0,0.0,0.0,-0.1,9.200000000000001,-2.5,0.4,-0.4,0.0
1698924238.783,16,0.0,0.0,0.0,-0.1,9.200000000000001,-2.6,0.6000000000000001,-0.2,0.1
1698924238.799,16,0.0,0.0,0.0,-0.1,9.200000000000001,-2.6,0.6000000000000001,-0.1,0.2
1698924238.816,16,0.0,0.0,0.0,-0.1,9.200000000000001,-2.6,0.7,-0.5,0.0
1698924238.833,16,0.0,0.0,0.0,-0.1,9.200000000000001,-2.6,1.2000000000000002,-0.5,0.1
1698924238.849,16,0.0,0.0,-0.1,-0.1,9.1,-2.6,0.8,0.1,0.1
1698924238.865,16,0.0,0.0,0.0,-0.1,9.200000000000001,-2.6,1.0999999999999999,0.2,0.0
1698924238.883,16,0.0,0.0,0.0,-0.1,9.1,-2.6,1.2000000000000002,0.1,0.0
1698924238.899,16,0.0,-0.1,0.0,-0.1,9.1,-2.6,1.0999999999999999,0.0,0.0
1698924238.915,16,0.0,0.1,0.0,-0.2,9.200000000000001,-2.6,1.3,0.1,-0.4
1698924238.933,16,0.0,0.0,0.0,-0.1,9.200000000000001,-2.6,1.0,0.2,-0.1
1698924238.95,16,0.0,0.0,-0.1,-0.1,9.200000000000001,-2.7,0.4,0.30000000000000004,0.1
1698924238.965,16,0.0,0.0,0.0,-0.1,9.1,-2.6,0.1,0.2,0.2
1698924238.982,16,0.0,0.0,0.0,-0.1,9.1,-2.7,-0.4,0.1,0.0
1698924238.999,16,0.0,0.0,0.0,-0.1,9.1,-2.6,-0.4,0.1,0.0
1698924239.015,16,0.0,0.0,0.0,-0.1,9.200000000000001,-2.6,-0.2,0.5,-0.1
1698924239.032,16,0.0,0.0,0.0,-0.1,9.1,-2.6,-0.4,0.6000000000000001,0.0
1698924239.049,16,0.0,0.0,0.0,-0.1,9.1,-2.6,-0.30000000000000004,0.7,0.0
1698924239.065,16,0.0,0.0,0.0,-0.1,9.200000000000001,-2.6,-0.30000000000000004,0.5,0.0
1698924239.082,16,0.0,0.0,0.0,-0.1,9.1,-2.6,-0.2,0.6000000000000001,0.0
1698924239.101,16,0.0,0.0,0.0,-0.1,9.200000000000001,-2.6,-0.1,0.6000000000000001,0.0
1698924239.116,16,0.0,0.0,0.0,-0.1,9.200000000000001,-2.6,0.0,0.30000000000000004,0.2
1698924239.132,16,0.0,0.0,0.0,-0.1,9.1,-2.6,0.2,0.30000000000000004,0.1
1698924239.149,16,0.0,0.0,0.0,-0.1,9.1,-2.6,0.1,0.2,0.0
1698924239.166,16,0.0,0.0,0.0,-0.1,9.1,-2.6,0.1,-0.2,0.0
1698924239.182,16,0.0,0.0,0.0,-0.1,9.200000000000001,-2.6,0.2,-0.30000000000000004,0.0
1698924239.2,16,0.0,0.0,0.0,-0.1,9.1,-2.6,0.2,-0.30000000000000004,-0.1
1698924239.216,16,0.0,0.0,0.0,-0.1,9.1,-2.6,0.0,-0.5,-0.1
1698924239.233,16,0.0,0.0,0.0,-0.1,9.200000000000001,-2.6,-0.30000000000000004,-0.6000000000000001,0.1
1698924239.249,16,0.0,0.0,0.0,-0.1,9.1,-2.6,-0.2,-0.6000000000000001,0.0
1698924239.266,16,0.0,0.0,0.0,-0.1,9.200000000000001,-2.6,-0.2,-0.8,-0.1
1698924239.284,16,0.0,0.0,0.0,-0.1,9.200000000000001,-2.6,-0.2,-1.0,-0.1
1698924239.299,16,0.0,0.0,0.0,-0.1,9.1,-2.6,-0.4,-1.0999999999999999,-0.1
1698924239.316,16,0.0,0.0,0.0,-0.1,9.1,-2.6,-0.7,-0.9,-0.1
1698924239.332,16,0.0,0.0,0.0,-0.1,9.200000000000001,-2.6,-0.5,-0.8,0.0
1698924239.352,16,0.0,0.0,0.0,-0.1,9.200000000000001,-2.6,-0.4,-0.9,0.0
1698924239.366,16,0.0,0.0,0.0,-0.1,9.200000000000001,-2.6,-0.1,-1.0999999999999999,-0.1
1698924239.383,16,0.0,0.0,0.0,-0.1,9.200000000000001,-2.6,-0.1,-1.0999999999999999,0.0
1698924239.399,16,0.0,0.0,0.0,-0.1,9.200000000000001,-2.6,-0.2,-0.8,0.0
1698924239.416,16,0.0,0.0,0.0,-0.1,9.1,-2.6,-0.4,-0.5,0.0
1698924239.432,16,0.0,0.0,0.0,-0.1,9.200000000000001,-2.6,-0.30000000000000004,-0.2,-0.1
1698924239.448,16,0.0,0.0,0.0,-0.1,9.1,-2.6,0.1,0.0,-0.1
1698924239.466,16,0.0,0.0,0.0,-0.1,9.200000000000001,-2.6,0.4,0.0,-0.2
1698924239.482,16,-0.1,0.0,0.1,-0.2,9.1,-2.5,0.9,0.2,-0.2
1698924239.501,16,0.0,0.0,0.0,-0.1,9.200000000000001,-2.6,1.0999999999999999,0.5,-0.30000000000000004
1698924239.516,16,0.0,-0.1,0.0,-0.1,9.1,-2.6,1.9,0.7,-0.2
1698924239.533,16,0.0,0.0,0.0,-0.1,9.200000000000001,-2.6,2.8,0.6000000000000001,-0.6000000000000001
1698924239.55,16,0.0,0.0,0.0,-0.1,9.1,-2.6,3.5,0.5,-1.0999999999999999
1698924239.567,16,0.0,0.0,0.0,-0.1,9.200000000000001,-2.6,3.7000000000000006,0.4,-1.0
1698924239.582,16,0.0,0.0,0.0,-0.1,9.1,-2.7,4.0,0.30000000000000004,-1.0999999999999999
1698924239.599,16,0.0,0.0,0.0,-0.1,9.1,-2.7,4.2,0.1,-1.0
1698924239.616,16,0.0,0.0,0.0,-0.1,9.1,-2.7,4.0,0.30000000000000004,-0.9
1698924239.632,16,0.0,0.0,0.0,-0.1,9.1,-2.7,3.7000000000000006,0.30000000000000004,-0.7
1698924239.649,16,0.0,0.0,-0.1,-0.1,9.1,-2.7,3.6,0.6000000000000001,-0.6000000000000001
1698924239.665,16,0.0,0.0,0.0,-0.1,9.1,-2.7,3.4,0.6000000000000001,-0.6000000000000001
1698924239.682,16,0.0,0.0,0.0,-0.2,9.1,-2.7,3.5,0.9,-0.30000000000000004
1698924239.699,16,0.0,0.0,0.0,-0.2,9.1,-2.7,3.4,0.9,-0.1
1698924239.716,16,0.0,0.0,0.0,-0.2,9.1,-2.7,3.3000000000000003,1.4,0.0
1698924239.733,16,0.0,0.0,0.0,-0.2,9.1,-2.7,3.8,1.6,-0.2
1698924239.749,16,0.0,0.0,0.0,-0.1,9.1,-2.7,4.1000000000000005,1.8,-0.2
1698924239.766,16,0.0,0.0,0.0,-0.2,9.1,-2.7,4.9,1.9,-0.4
1698924239.783,16,0.0,0.0,0.0,-0.2,9.1,-2.8000000000000003,4.800000000000001,1.2000000000000002,-0.2
1698924239.8,16,0.0,0.0,-0.1,-0.2,9.1,-2.8000000000000003,4.2,0.9,-0.30000000000000004
1698924239.816,16,0.0,0.0,-0.1,-0.1,9.1,-2.9000000000000004,3.2,0.5,-0.6000000000000001
1698924239.833,16,0.0,0.0,-0.1,-0.1,9.1,-3.0,1.9,0.2,-0.2
1698924239.849,16,0.0,0.0,-0.1,-0.1,9.1,-2.9000000000000004,1.0999999999999999,0.1,-0.1
1698924239.866,16,0.0,0.0,-0.1,-0.1,9.1,-2.9000000000000004,0.9,0.2,-0.1
1698924239.882,16,0.0,0.0,-0.1,-0.1,9.1,-2.9000000000000004,0.0,0.0,0.1
1698924239.901,16,0.0,0.0,-0.1,-0.1,9.1,-2.9000000000000004,-0.30000000000000004,-0.30000000000000004,0.1
1698924239.916,16,0.0,0.0,0.1,-0.1,9.1,-2.8000000000000003,-0.5,-0.5,0.0
1698924239.932,16,0.0,0.0,0.1,-0.2,9.1,-2.7,-0.8,-0.30000000000000004,0.1
1698924239.949,16,0.0,0.0,0.1,-0.1,9.1,-2.7,-0.9,-0.30000000000000004,0.1
1698924239.965,16,0.0,0.0,0.1,-0.2,9.1,-2.7,-0.7,-0.2,0.1
1698924239.982,16,0.0,0.0,0.1,-0.1,9.1,-2.8000000000000003,-0.2,0.0,0.1
1698924239.999,16,0.0,0.0,0.1,-0.2,9.1,-2.7,0.7,0.4,0.1
1698924240.015,16,0.0,0.0,0.1,-0.1,9.1,-2.8000000000000003,1.4,0.8,0.0
1698924240.032,16,0.0,0.0,0.0,-0.2,9.1,-2.8000000000000003,2.3000000000000003,1.3,0.2
1698924240.048,16,0.0,0.0,0.0,-0.1,9.1,-2.8000000000000003,2.7,1.8,0.2
1698924240.066,16,0.0,0.0,0.0,-0.1,8.9,-2.9000000000000004,2.9,2.3000000000000003,0.2
1698924240.082,16,0.0,0.0,0.0,-0.1,9.1,-2.9000000000000004,3.1,2.6,0.6000000000000001
1698924240.099,16,0.0,0.0,0.0,-0.1,9.1,-2.9000000000000004,2.9,2.8,-0.1
1698924240.115,16,0.0,0.0,-0.1,-0.2,9.1,-2.9000000000000004,2.0,2.1,0.0
1698924240.132,16,0.0,0.0,-0.1,-0.1,9.1,-2.9000000000000004,1.4,1.9,0.0
1698924240.149,16,0.0,0.0,-0.1,-0.1,9.1,-3.0,0.30000000000000004,1.7,0.0
1698924240.165,16,0.0,0.0,-0.1,-0.1,9.1,-3.0,-0.4,1.3,0.0
1698924240.184,16,0.0,0.0,-0.1,-0.1,9.1,-2.9000000000000004,-0.5,1.0999999999999999,-0.1
1698924240.199,16,0.0,0.0,0.0,-0.1,9.1,-2.9000000000000004,-0.2,0.9,-0.1
1698924240.217,16,0.0,0.0,0.0,-0.1,9.1,-2.9000000000000004,0.1,1.0,-0.1
1698924240.234,16,0.0,0.0,0.0,-0.2,9.1,-2.8000000000000003,0.8,1.3,0.2
1698924240.25,16,0.0,0.0,0.0,-0.1,9.1,-2.8000000000000003,1.8,1.2000000000000002,0.4
1698924240.265,16,0.0,-0.1,0.0,-0.1,9.0,-2.9000000000000004,2.5,1.6,0.7
1698924240.282,16,0.0,0.0,0.0,-0.1,9.1,-2.8000000000000003,2.3000000000000003,1.6,1.0999999999999999
1698924240.299,16,0.0,0.0,0.0,-0.1,9.1,-2.9000000000000004,2.1,1.5000000000000002,0.4
1698924240.315,16,0.0,0.0,0.0,-0.1,9.1,-2.8000000000000003,2.3000000000000003,1.3,0.5
1698924240.332,16,0.0,0.0,0.0,-0.1,9.1,-2.9000000000000004,2.6,1.9,0.4
1698924240.349,16,0.0,-0.1,0.0,-0.1,8.9,-2.9000000000000004,2.3000000000000003,2.1999999999999997,0.8
1698924240.366,16,-0.1,0.1,0.0,-0.1,9.200000000000001,-2.9000000000000004,2.3000000000000003,1.3,1.0999999999999999
1698924240.382,16,0.0,0.0,0.0,0.0,9.0,-2.9000000000000004,1.7,1.3,0.7
1698924240.399,16,-0.1,0.1,0.0,-0.1,9.1,-3.0,1.7,1.5000000000000002,0.7
1698924240.415,16,0.0,0.0,0.0,-0.1,9.0,-3.0,1.8,1.5000000000000002,0.5
1698924240.432,16,0.0,0.0,0.0,-0.1,9.1,-3.0,1.2000000000000002,1.3,0.6000000000000001
1698924240.449,16,0.0,0.0,0.0,-0.1,9.0,-2.9000000000000004,1.0999999999999999,1.4,0.6000000000000001
1698924240.466,16,0.0,0.0,0.0,-0.1,9.1,-2.9000000000000004,1.0,1.4,0.6000000000000001
1698924240.484,16,0.0,0.0,0.0,0.0,9.0,-2.9000000000000004,1.0,1.6,0.8
1698924240.499,16,0.0,0.0,0.0,0.0,9.1,-2.9000000000000004,1.2000000000000002,1.4,0.5
1698924240.515,16,0.0,0.0,0.0,-0.1,9.0,-3.0,1.0,1.5000000000000002,0.30000000000000004
1698924240.533,16,0.0,0.0,0.0,-0.1,9.0,-2.9000000000000004,0.9,0.9,0.2
1698924240.549,16,0.0,0.0,0.0,-0.1,9.0,-2.9000000000000004,0.9,0.30000000000000004,0.1
1698924240.566,16,0.0,-0.1,0.0,-0.1,9.0,-3.0,0.9,0.2,-0.1
1698924240.582,16,0.0,0.0,0.0,0.0,9.0,-3.0,0.6000000000000001,0.5,0.1
1698924240.599,16,0.0,0.1,0.0,-0.1,9.1,-3.0,0.4,0.2,-0.1
1698924240.615,16,0.0,0.0,-0.1,-0.1,9.0,-3.0,-0.6000000000000001,0.1,-0.30000000000000004
1698924240.632,16,0.0,0.0,-0.1,0.0,9.0,-3.0,-1.0,0.0,-0.30000000000000004
1698924240.649,16,0.0,0.0,0.0,-0.1,9.0,-3.0,-1.4,-0.4,-0.4
1698924240.666,16,0.0,0.0,0.0,-0.1,9.1,-3.0,-1.5000000000000002,-0.6000000000000001,-0.30000000000000004
1698924240.683,16,0.0,0.0,0.0,-0.1,9.0,-2.9000000000000004,-1.5000000000000002,-0.5,-0.4
1698924240.699,16,0.0,0.0,0.0,-0.1,9.1,-2.9000000000000004,-1.5000000000000002,-0.5,-0.6000000000000001
1698924240.715,16,0.0,0.0,0.0,-0.1,9.1,-2.9000000000000004,-1.4,-0.8,-0.6000000000000001
1698924240.732,16,0.0,0.0,0.1,-0.1,9.0,-2.9000000000000004,-1.3,-0.7,-0.4
1698924240.75,16,0.0,0.0,0.0,-0.1,9.1,-2.9000000000000004,-0.8,-0.8,-0.4
1698924240.766,16,0.0,0.0,0.0,-0.1,9.0,-3.0,-0.7,-1.4,-0.4
1698924240.782,16,0.0,0.0,0.0,0.0,9.1,-2.9000000000000004,-0.5,-1.5000000000000002,-0.1
1698924240.799,16,0.0,0.0,0.0,-0.1,9.1,-2.9000000000000004,-0.4,-1.5000000000000002,-0.30000000000000004
1698924240.815,16,0.0,0.0,0.0,-0.1,9.1,-2.9000000000000004,-0.30000000000000004,-1.3,-0.30000000000000004
1698924240.832,16,0.0,0.0,0.0,-0.1,9.1,-3.0,-0.5,-1.3,-0.2
1698924240.848,16,0.0,0.0,0.0,-0.1,9.1,-2.9000000000000004,-0.2,-1.3,-0.1
1698924240.865,16,0.0,0.0,0.0,-0.1,9.0,-2.9000000000000004,0.0,-1.4,-0.1
1698924240.882,16,0.0,0.0,0.0,-0.1,9.1,-2.9000000000000004,-0.1,-1.4,-0.2
1698924240.899,16,0.0,0.0,0.0,-0.1,9.0,-3.0,-0.2,-1.3,-0.2
1698924240.915,16,0.0,0.0,0.0,-0.1,9.1,-2.9000000000000004,-0.2,-1.3,-0.1
1698924240.932,16,0.0,0.0,0.0,-0.1,9.1,-2.9000000000000004,0.0,-1.2000000000000002,-0.1
1698924240.95,16,0.0,0.0,0.0,-0.1,9.1,-2.9000000000000004,-0.30000000000000004,-0.9,-0.1
1698924240.966,16,0.0,0.0,0.0,-0.1,9.1,-2.9000000000000004,-0.2,-0.9,0.0
1698924240.982,16,0.0,0.0,0.0,-0.1,9.1,-2.9000000000000004,0.0,-0.6000000000000001,-0.1
1698924241.002,16,0.0,0.0,0.0,-0.1,9.1,-2.9000000000000004,0.0,-0.5,0.0
1698924241.015,16,0.0,0.0,0.0,-0.1,9.1,-2.9000000000000004,0.0,-0.4,0.0
1698924241.032,16,0.0,0.0,0.0,-0.1,9.1,-2.9000000000000004,0.30000000000000004,-0.30000000000000004,-0.1
1698924241.049,16,0.0,0.0,0.0,-0.1,9.1,-3.0,0.30000000000000004,-0.4,-0.1
1698924241.066,16,0.0,0.0,0.0,-0.1,9.1,-3.0,0.1,-0.4,-0.1
1698924241.084,16,0.0,0.0,0.0,-0.1,9.1,-2.9000000000000004,0.0,-0.1,-0.2
1698924241.1,16,0.0,0.0,0.0,-0.1,9.1,-2.9000000000000004,0.30000000000000004,0.0,-0.30000000000000004
1698924241.116,16,0.0,0.0,0.0,-0.1,9.1,-2.9000000000000004,0.1,-0.5,-0.4
1698924241.132,16,0.0,0.0,0.0,-0.1,9.1,-2.9000000000000004,0.0,-0.30000000000000004,-0.30000000000000004
1698924241.15,16,0.0,0.0,0.0,-0.1,9.1,-2.9000000000000004,0.2,-0.6000000000000001,-0.2
1698924241.166,16,0.0,0.0,0.0,-0.1,9.0,-2.9000000000000004,0.1,-0.9,-0.4
1698924241.182,16,0.0,0.0,0.0,-0.1,9.0,-3.0,0.0,-0.7,-0.4
1698924241.199,16,0.0,0.0,0.0,-0.1,9.0,-3.0,-0.1,-0.8,-0.30000000000000004
1698924241.215,16,0.0,0.0,0.0,-0.1,9.1,-3.0,-0.2,-1.0,-0.4
1698924241.232,16,0.0,0.0,0.0,-0.1,9.0,-2.9000000000000004,-0.30000000000000004,-1.0999999999999999,-0.2
1698924241.249,16,0.0,0.0,0.0,-0.1,9.0,-3.0,-0.30000000000000004,-1.0,-0.30000000000000004
1698924241.265,16,0.0,0.0,0.0,-0.1,9.1,-3.0,-0.5,-0.9,-0.2
1698924241.285,16,0.0,0.0,0.0,-0.1,9.1,-2.9000000000000004,-0.2,-0.8,-0.1
1698924241.299,16,0.0,0.0,0.0,-0.1,9.0,-2.9000000000000004,-0.2,-0.9,-0.1
1698924241.315,16,0.0,0.0,0.0,-0.1,9.1,-2.9000000000000004,-0.2,-0.9,-0.2
1698924241.333,16,0.0,0.0,0.0,-0.1,9.1,-2.9000000000000004,0.0,-0.8,0.0
1698924241.349,16,0.0,0.0,0.0,-0.1,9.1,-2.9000000000000004,0.30000000000000004,-0.6000000000000001,0.0
1698924241.366,16,0.0,0.0,0.0,-0.1,9.1,-2.9000000000000004,0.4,-0.9,0.0
1698924241.382,16,0.0,0.0,0.0,-0.1,9.0,-2.9000000000000004,0.5,-0.6000000000000001,0.1
