ts,interval,accx,accy,accz,accGx,accGy,accGz,alpha,beta,gamma
1698673075007.0,16,0.1,0.1,-0.1,0.7000000000000001,9.5,0.4,0.6000000000000001,1.0999999999999999,-0.5
1698673075024.0,16,-0.1,0.2,0.0,0.5,9.600000000000001,0.5,0.4,2.0,0.4
1698673075041.0,16,0.0,0.0,0.0,0.6000000000000001,9.5,0.5,-0.7,2.3000000000000003,0.1
1698673075059.0,16,0.0,-0.1,0.0,0.6000000000000001,9.4,0.6000000000000001,-2.0,2.5,-1.7
1698673075074.0,16,0.1,-0.1,0.1,0.7000000000000001,9.3,0.6000000000000001,-3.0000000000000004,2.3000000000000003,-1.6
1698673075091.0,16,0.0,-0.1,0.0,0.6000000000000001,9.3,0.6000000000000001,-4.6000000000000005,1.8,-0.4
1698673075108.0,16,0.0,-0.2,0.0,0.5,9.3,0.6000000000000001,-4.9,1.7,-0.4
1698673075124.0,16,0.0,-0.1,0.1,0.5,9.3,0.6000000000000001,-4.1000000000000005,2.0,-0.7
1698673075141.0,16,0.0,-0.1,0.0,0.6000000000000001,9.4,0.6000000000000001,-2.4000000000000004,2.4000000000000004,-0.8
1698673075157.0,16,0.0,-0.1,0.0,0.6000000000000001,9.3,0.6000000000000001,-1.2000000000000002,1.8,-0.2
1698673075174.0,16,0.0,-0.1,0.0,0.5,9.4,0.6000000000000001,1.0999999999999999,2.1999999999999997,0.4
1698673075192.0,16,-0.1,0.0,0.0,0.5,9.4,0.6000000000000001,2.3000000000000003,1.8,0.5
1698673075207.0,16,-0.1,0.0,0.1,0.5,9.4,0.6000000000000001,2.7,2.1,0.6000000000000001
1698673075224.0,16,-0.1,-0.2,0.1,0.5,9.3,0.7000000000000001,2.8,2.3000000000000003,0.4
1698673075241.0,16,-0.1,0.0,-0.1,0.5,9.4,0.5,1.0999999999999999,4.0,0.4
1698673075258.0,16,0.0,-0.1,-0.1,0.5,9.3,0.5,-0.1,1.2000000000000002,0.4
1698673075274.0,16,0.0,0.2,-0.1,0.6000000000000001,9.600000000000001,0.5,-3.3000000000000003,-1.0999999999999999,-0.5
1698673075293.0,16,0.0,0.1,0.2,0.5,9.5,0.7000000000000001,-2.4000000000000004,-3.2,-0.7
1698673075307.0,16,-0.1,0.0,0.1,0.5,9.4,0.7000000000000001,-0.9,-0.9,-1.0
1698673075324.0,16,-0.2,-0.1,0.1,0.4,9.3,0.7000000000000001,2.1999999999999997,0.7,-1.0999999999999999
1698673075341.0,16,-0.2,-0.1,0.1,0.4,9.3,0.7000000000000001,4.9,0.9,0.7
1698673075359.0,16,-0.1,-0.1,0.0,0.5,9.4,0.6000000000000001,6.7,-0.8,2.4000000000000004
1698673075374.0,16,0.0,0.0,0.1,0.5,9.4,0.6000000000000001,7.2,-2.1,2.6
1698673075391.0,16,0.0,-0.1,0.0,0.6000000000000001,9.4,0.6000000000000001,7.400000000000001,-2.6,2.4000000000000004
1698673075407.0,16,0.1,-0.1,0.0,0.6000000000000001,9.3,0.5,6.5,-1.8,0.8
1698673075424.0,16,0.2,-0.2,0.1,0.8,9.200000000000001,0.6000000000000001,5.2,0.1,-2.0
1698673075441.0,16,0.4,-0.2,0.0,1.0,9.200000000000001,0.5,3.7000000000000006,2.9,-4.1000000000000005
1698673075458.0,16,0.6000000000000001,-0.2,0.0,1.1,9.200000000000001,0.5,1.8,5.0,-4.0
1698673075475.0,16,0.5,-0.2,0.1,1.0,9.200000000000001,0.5,1.3,6.000000000000001,-2.8
1698673075491.0,16,0.30000000000000004,0.0,0.0,0.9,9.4,0.5,2.1999999999999997,6.6000000000000005,0.6000000000000001
1698673075507.0,16,0.2,0.0,0.0,0.6000000000000001,9.4,0.5,3.6,7.2,2.0
1698673075524.0,16,-0.1,0.0,0.0,0.4,9.4,0.4,4.7,6.5,2.3000000000000003
1698673075541.0,16,-0.30000000000000004,0.0,0.0,0.2,9.3,0.4,6.5,5.2,2.4000000000000004
1698673075558.0,16,-0.4,0.1,0.0,0.2,9.5,0.4,8.5,1.9,1.9
1698673075575.0,16,-0.4,0.2,0.1,0.2,9.600000000000001,0.5,9.5,0.5,1.3
1698673075591.0,16,-0.4,0.1,0.2,0.1,9.5,0.5,11.700000000000001,-2.5,1.0
1698673075607.0,16,-0.30000000000000004,0.1,0.2,0.2,9.4,0.5,13.100000000000001,-6.2,1.2000000000000002
1698673075625.0,16,-0.30000000000000004,0.1,0.30000000000000004,0.30000000000000004,9.5,0.6000000000000001,13.3,-6.5,0.7
1698673075641.0,16,-0.1,0.0,0.2,0.5,9.4,0.5,12.5,-5.1,0.1
1698673075658.0,16,0.1,0.1,0.1,0.5,9.4,0.4,11.000000000000002,-4.1000000000000005,-0.2
1698673075676.0,16,0.2,0.1,0.1,0.8,9.5,0.30000000000000004,6.7,-2.7,0.1
1698673075693.0,16,0.30000000000000004,0.30000000000000004,-0.1,0.9,9.700000000000001,0.1,1.5000000000000002,-0.2,0.6000000000000001
1698673075708.0,16,0.4,0.30000000000000004,-0.1,0.9,9.700000000000001,0.1,-1.3,0.9,1.0
1698673075724.0,16,0.4,0.4,-0.2,0.9,9.8,0.0,-6.1000000000000005,3.2,1.3
1698673075741.0,16,0.30000000000000004,0.2,-0.30000000000000004,0.9,9.700000000000001,-0.1,-9.4,4.300000000000001,0.8
1698673075758.0,16,0.30000000000000004,0.2,-0.4,0.9,9.600000000000001,-0.1,-10.9,5.2,0.5
1698673075774.0,16,0.30000000000000004,0.30000000000000004,-0.5,0.9,9.700000000000001,-0.2,-13.200000000000001,8.600000000000001,0.1
1698673075791.0,16,0.30000000000000004,0.30000000000000004,-0.5,0.9,9.8,-0.1,-14.900000000000002,8.600000000000001,1.2000000000000002
1698673075808.0,16,0.0,0.2,-0.5,0.6000000000000001,9.600000000000001,0.0,-14.0,8.3,2.7
1698673075824.0,16,-0.2,0.0,-0.5,0.4,9.5,-0.1,-12.6,7.1000000000000005,3.8
1698673075841.0,16,-0.30000000000000004,0.0,-0.4,0.30000000000000004,9.4,0.1,-9.1,3.7000000000000006,4.6000000000000005
1698673075857.0,16,-0.4,0.2,-0.30000000000000004,0.2,9.600000000000001,0.2,-3.1,2.3000000000000003,2.3000000000000003
1698673075874.0,16,-0.4,0.1,-0.2,0.2,9.5,0.2,0.4,2.4000000000000004,0.4
1698673075891.0,16,-0.2,0.0,-0.1,0.4,9.4,0.4,7.2,1.0999999999999999,-1.0999999999999999
1698673075907.0,16,-0.1,-0.1,0.1,0.5,9.4,0.5,13.700000000000001,-1.0999999999999999,0.8
1698673075924.0,16,-0.1,-0.1,0.2,0.5,9.3,0.6000000000000001,16.6,-2.1,2.1
1698673075941.0,16,-0.1,-0.1,0.30000000000000004,0.5,9.3,0.6000000000000001,20.0,-3.1,3.6
1698673075958.0,16,-0.1,-0.1,0.4,0.5,9.3,0.7000000000000001,19.9,-3.6,3.2
1698673075974.0,16,0.0,-0.1,0.4,0.6000000000000001,9.4,0.6000000000000001,18.3,-3.8,2.7
1698673075990.0,16,0.1,0.1,0.4,0.7000000000000001,9.5,0.6000000000000001,11.9,-3.5,0.7
1698673076007.0,16,0.2,0.0,0.4,0.9,9.4,0.6000000000000001,3.1,-2.7,-0.9
1698673076024.0,16,0.30000000000000004,0.1,0.30000000000000004,0.9,9.5,0.5,-2.1,-1.0,-1.4
1698673076041.0,16,0.30000000000000004,-0.1,0.2,0.9,9.3,0.4,-11.3,1.2000000000000002,-2.3000000000000003
1698673076057.0,16,0.2,-0.1,-0.1,0.8,9.3,0.2,-18.2,2.4000000000000004,-1.8
1698673076074.0,16,0.0,0.0,-0.1,0.7000000000000001,9.4,0.2,-21.700000000000003,1.0999999999999999,-1.3
1698673076091.0,16,-0.1,0.1,-0.30000000000000004,0.5,9.5,0.1,-20.4,-0.1,-2.9
1698673076107.0,16,-0.1,0.1,-0.30000000000000004,0.6000000000000001,9.5,0.1,-18.7,-0.4,-4.300000000000001
1698673076124.0,16,0.1,0.1,-0.30000000000000004,0.7000000000000001,9.5,0.2,-13.0,-0.5,-6.3
1698673076140.0,16,0.1,0.0,-0.2,0.7000000000000001,9.4,0.2,-9.4,-0.2,-6.3
1698673076157.0,16,0.1,0.0,-0.2,0.7000000000000001,9.4,0.30000000000000004,-0.9,-1.2000000000000002,-3.7000000000000006
1698673076174.0,16,0.1,-0.1,-0.2,0.6000000000000001,9.3,0.30000000000000004,7.400000000000001,-2.1999999999999997,-0.7
1698673076191.0,16,0.0,0.0,-0.1,0.6000000000000001,9.4,0.30000000000000004,10.8,-2.1,-0.5
1698673076207.0,16,0.0,0.1,0.0,0.5,9.600000000000001,0.4,16.400000000000002,-1.9,-0.6000000000000001
1698673076224.0,16,0.0,0.1,0.0,0.5,9.5,0.4,19.200000000000003,-1.3,0.1
1698673076241.0,16,0.0,0.1,0.1,0.5,9.5,0.4,19.400000000000002,-1.0,0.4
1698673076258.0,16,-0.1,0.1,0.2,0.5,9.600000000000001,0.5,17.200000000000003,-1.6,1.2000000000000002
1698673076274.0,16,-0.1,0.2,0.2,0.4,9.600000000000001,0.4,11.700000000000001,-3.0000000000000004,1.2000000000000002
1698673076291.0,16,-0.2,0.1,0.2,0.4,9.600000000000001,0.4,8.1,-3.2,0.6000000000000001
1698673076308.0,16,-0.1,0.0,0.1,0.5,9.5,0.4,-0.4,-2.8,-1.4
1698673076324.0,16,0.0,0.0,0.1,0.5,9.5,0.30000000000000004,-8.3,-2.5,-1.8
1698673076341.0,16,0.0,0.0,0.0,0.6000000000000001,9.4,0.30000000000000004,-11.5,-1.9,-1.6
1698673076357.0,16,0.1,-0.1,-0.1,0.6000000000000001,9.4,0.2,-16.2,-0.7,-1.8
1698673076374.0,16,0.1,0.0,-0.2,0.6000000000000001,9.4,0.1,-17.9,-0.5,-1.5000000000000002
1698673076391.0,16,0.1,0.0,-0.2,0.6000000000000001,9.4,0.2,-17.599999999999998,-0.6000000000000001,-1.4
1698673076408.0,16,0.1,0.0,-0.2,0.6000000000000001,9.5,0.2,-13.8,-0.7,-0.9
1698673076424.0,16,0.1,0.0,-0.2,0.7000000000000001,9.5,0.2,-7.6,-0.30000000000000004,-0.5
1698673076440.0,16,0.1,0.0,-0.2,0.6000000000000001,9.4,0.2,-4.1000000000000005,0.0,-0.30000000000000004
1698673076458.0,16,0.1,0.0,-0.2,0.6000000000000001,9.4,0.30000000000000004,3.1,0.4,0.6000000000000001
1698673076474.0,16,0.1,0.0,-0.1,0.6000000000000001,9.4,0.30000000000000004,8.799999999999999,0.4,1.5000000000000002
1698673076491.0,16,0.1,0.0,-0.1,0.6000000000000001,9.5,0.30000000000000004,11.1,0.4,1.8
1698673076507.0,16,0.0,0.0,0.0,0.6000000000000001,9.5,0.30000000000000004,13.8,0.30000000000000004,2.3000000000000003
1698673076524.0,16,0.0,0.0,0.1,0.6000000000000001,9.5,0.4,13.8,1.2000000000000002,1.9
1698673076541.0,16,0.0,0.0,0.1,0.6000000000000001,9.4,0.4,12.8,1.7,1.9
1698673076558.0,16,0.0,0.0,0.1,0.6000000000000001,9.5,0.4,9.1,1.9,2.0
1698673076574.0,16,-0.1,0.0,0.1,0.5,9.5,0.4,4.3999999999999995,2.3000000000000003,1.5000000000000002
1698673076591.0,16,0.0,0.1,0.1,0.6000000000000001,9.5,0.30000000000000004,-0.8,1.8,1.5000000000000002
1698673076607.0,16,-0.1,0.0,0.1,0.5,9.5,0.4,-3.3000000000000003,1.6,1.5000000000000002
1698673076624.0,16,-0.1,0.0,0.1,0.5,9.5,0.4,-7.2,1.2000000000000002,0.9
1698673076640.0,16,-0.1,0.1,0.0,0.5,9.5,0.30000000000000004,-8.3,1.5000000000000002,0.30000000000000004
1698673076664.0,16,0.0,-0.1,0.0,0.6000000000000001,9.3,0.30000000000000004,-9.200000000000001,1.0999999999999999,-0.1
1698673076674.0,16,0.0,-0.2,0.0,0.6000000000000001,9.3,0.30000000000000004,-8.5,0.8,0.30000000000000004
1698673076691.0,16,-0.1,-0.1,-0.1,0.5,9.4,0.30000000000000004,-6.1000000000000005,-0.2,1.0
1698673076707.0,16,-0.1,0.0,-0.1,0.5,9.4,0.30000000000000004,-4.6000000000000005,-0.5,1.0
1698673076724.0,16,0.0,-0.1,0.0,0.6000000000000001,9.4,0.30000000000000004,-0.8,-1.0,0.5
1698673076741.0,16,0.0,0.0,0.0,0.6000000000000001,9.4,0.4,2.8,-0.5,0.1
1698673076758.0,16,0.1,-0.1,0.0,0.7000000000000001,9.4,0.4,4.2,-0.2,0.4
1698673076774.0,16,0.1,-0.1,0.0,0.7000000000000001,9.4,0.4,5.1,0.2,0.9
1698673076791.0,16,0.1,0.0,0.1,0.7000000000000001,9.4,0.4,5.9,0.5,1.2000000000000002
1698673076808.0,16,0.1,0.0,0.1,0.7000000000000001,9.4,0.4,5.4,0.4,1.3
1698673076824.0,16,0.0,0.0,0.1,0.6000000000000001,9.4,0.4,3.6,0.7,1.3
1698673076841.0,16,0.0,0.0,0.1,0.6000000000000001,9.5,0.4,1.2000000000000002,1.4,0.7
1698673076858.0,16,0.0,0.1,0.0,0.6000000000000001,9.5,0.30000000000000004,0.1,1.6,0.4
1698673076874.0,16,0.0,0.1,0.0,0.6000000000000001,9.5,0.30000000000000004,-1.2000000000000002,1.4,0.2
1698673076891.0,16,0.0,0.0,0.0,0.7000000000000001,9.5,0.30000000000000004,-3.0000000000000004,0.9,0.2
1698673076908.0,16,0.0,0.0,-0.1,0.6000000000000001,9.4,0.2,-4.0,0.5,0.4
1698673076924.0,16,-0.1,0.0,-0.1,0.5,9.4,0.2,-3.6,0.30000000000000004,0.2
1698673076941.0,16,-0.1,0.0,-0.1,0.6000000000000001,9.4,0.2,-2.8,0.4,-0.1
1698673076958.0,16,0.0,0.0,-0.1,0.6000000000000001,9.4,0.2,-0.7,-0.6000000000000001,-0.6000000000000001
1698673076975.0,16,0.0,0.0,-0.1,0.6000000000000001,9.5,0.2,2.3000000000000003,-1.3,-0.1
1698673076991.0,16,0.0,0.0,0.0,0.6000000000000001,9.5,0.30000000000000004,3.7000000000000006,-1.7,0.2
1698673077009.0,16,0.0,0.0,0.0,0.7000000000000001,9.5,0.30000000000000004,6.4,-1.4,0.0
1698673077024.0,16,0.1,0.0,0.0,0.7000000000000001,9.5,0.30000000000000004,7.300000000000001,-0.7,-0.2
1698673077041.0,16,0.1,0.1,0.0,0.7000000000000001,9.600000000000001,0.30000000000000004,6.7,-0.4,0.4
1698673077058.0,16,0.0,0.1,0.1,0.7000000000000001,9.600000000000001,0.30000000000000004,4.800000000000001,0.30000000000000004,0.9
1698673077074.0,16,0.1,0.1,0.0,0.7000000000000001,9.600000000000001,0.30000000000000004,1.7,1.5000000000000002,0.6000000000000001
1698673077091.0,16,0.0,0.1,0.0,0.7000000000000001,9.600000000000001,0.30000000000000004,-1.7,1.8,-0.4
1698673077108.0,16,0.0,0.1,0.0,0.7000000000000001,9.600000000000001,0.2,-3.1,2.1999999999999997,-0.6000000000000001
1698673077124.0,16,0.0,0.1,-0.1,0.6000000000000001,9.5,0.2,-5.2,2.6,-0.5
1698673077141.0,16,0.0,0.1,0.0,0.6000000000000001,9.600000000000001,0.2,-5.8,2.0,-0.7
1698673077157.0,16,0.0,0.1,-0.1,0.6000000000000001,9.600000000000001,0.2,-5.6,2.5,-0.9
1698673077174.0,16,0.0,0.1,-0.1,0.6000000000000001,9.5,0.2,-5.0,2.1,-0.6000000000000001
1698673077191.0,16,0.0,0.0,-0.1,0.6000000000000001,9.5,0.2,-4.7,1.9,-0.1
1698673077208.0,16,0.0,-0.1,-0.1,0.6000000000000001,9.4,0.2,-3.8,0.6000000000000001,0.4
1698673077225.0,16,0.0,-0.1,-0.1,0.6000000000000001,9.4,0.2,-3.0000000000000004,1.2000000000000002,0.2
1698673077241.0,16,0.0,-0.1,-0.1,0.6000000000000001,9.3,0.2,-3.0000000000000004,0.9,-0.1
1698673077259.0,16,0.0,-0.1,-0.1,0.6000000000000001,9.3,0.30000000000000004,-2.8,0.7,-0.2
1698673077274.0,16,0.0,-0.1,-0.1,0.6000000000000001,9.3,0.30000000000000004,-2.1999999999999997,0.0,-0.30000000000000004
1698673077291.0,16,-0.1,-0.1,0.0,0.6000000000000001,9.3,0.30000000000000004,-1.4,-1.0,0.8
1698673077308.0,16,-0.1,-0.1,0.1,0.6000000000000001,9.4,0.4,-0.6000000000000001,-1.5000000000000002,0.9
1698673077324.0,16,0.0,0.0,0.1,0.6000000000000001,9.4,0.5,1.8,-0.2,-0.1
1698673077341.0,16,0.1,-0.1,0.2,0.7000000000000001,9.4,0.5,4.0,0.7,-0.5
1698673077357.0,16,0.1,0.0,0.2,0.7000000000000001,9.4,0.5,4.800000000000001,1.4,-0.1
1698673077375.0,16,0.1,0.0,0.2,0.7000000000000001,9.4,0.5,5.0,2.3000000000000003,1.0999999999999999
1698673077392.0,16,0.0,0.0,0.2,0.7000000000000001,9.4,0.5,4.7,2.1999999999999997,1.4
1698673077407.0,16,-0.1,0.0,0.1,0.6000000000000001,9.5,0.4,2.7,2.5,1.5000000000000002
1698673077424.0,16,-0.1,-0.1,0.1,0.5,9.4,0.4,-0.5,1.3,1.2000000000000002
1698673077441.0,16,-0.1,0.0,0.1,0.5,9.4,0.4,-3.6,1.4,0.1
1698673077457.0,16,-0.1,0.0,0.0,0.5,9.4,0.4,-5.7,1.5000000000000002,-0.7
1698673077474.0,16,0.0,0.0,0.0,0.6000000000000001,9.4,0.4,-6.3,1.0,-0.9
1698673077492.0,16,0.1,-0.1,0.0,0.7000000000000001,9.3,0.4,-6.7,1.0999999999999999,-1.5000000000000002
1698673077508.0,16,0.1,-0.1,-0.1,0.7000000000000001,9.3,0.30000000000000004,-6.5,1.9,-1.2000000000000002
1698673077524.0,16,0.0,-0.1,-0.1,0.7000000000000001,9.3,0.30000000000000004,-5.4,2.0,0.4
1698673077541.0,16,-0.1,-0.1,-0.1,0.5,9.3,0.30000000000000004,-3.0000000000000004,0.7,1.7
1698673077557.0,16,-0.2,-0.1,-0.1,0.4,9.3,0.30000000000000004,-1.4,-0.1,1.6
1698673077574.0,16,-0.2,-0.1,-0.1,0.4,9.3,0.4,2.3000000000000003,-1.8,1.5000000000000002
1698673077591.0,16,-0.1,0.0,0.0,0.5,9.4,0.4,6.1000000000000005,-3.2,1.3
1698673077607.0,16,0.0,0.0,0.0,0.6000000000000001,9.4,0.4,8.799999999999999,-3.8,0.8
1698673077624.0,16,0.1,0.0,0.0,0.7000000000000001,9.4,0.4,9.4,-4.2,0.4
1698673077641.0,16,0.1,0.0,0.1,0.8,9.5,0.4,9.5,-4.0,-0.1
1698673077658.0,16,0.2,0.1,0.1,0.8,9.5,0.4,8.700000000000001,-3.8,-0.1
1698673077675.0,16,0.1,0.0,0.1,0.7000000000000001,9.4,0.4,6.1000000000000005,-4.300000000000001,-0.2
1698673077691.0,16,0.0,0.0,0.2,0.7000000000000001,9.4,0.5,4.3999999999999995,-4.1000000000000005,-0.9
1698673077707.0,16,0.0,-0.1,0.1,0.7000000000000001,9.3,0.4,2.5,-3.3000000000000003,-2.6
1698673077725.0,16,0.1,0.0,0.1,0.7000000000000001,9.4,0.4,1.7,-3.1,-3.4
1698673077740.0,16,0.2,0.0,0.0,0.8,9.4,0.30000000000000004,0.30000000000000004,-1.3,-4.3999999999999995
1698673077757.0,16,0.2,-0.1,0.1,0.8,9.3,0.4,-0.30000000000000004,-1.0,-4.0
1698673077774.0,16,0.2,0.0,0.0,0.8,9.4,0.30000000000000004,-0.2,-0.5,-3.7000000000000006
1698673077791.0,16,0.1,0.1,0.0,0.7000000000000001,9.5,0.30000000000000004,0.0,1.8,-3.0000000000000004
1698673077807.0,16,0.0,0.1,-0.1,0.6000000000000001,9.5,0.2,0.5,2.9,-1.5000000000000002
1698673077824.0,16,0.0,0.1,-0.1,0.6000000000000001,9.5,0.2,0.6000000000000001,2.8,-0.8
1698673077840.0,16,-0.1,0.2,-0.2,0.5,9.700000000000001,0.1,0.6000000000000001,2.8,-0.1
1698673077857.0,16,-0.1,0.30000000000000004,-0.30000000000000004,0.5,9.700000000000001,0.0,-0.8,2.1,-0.1
1698673077874.0,16,-0.1,0.30000000000000004,-0.30000000000000004,0.5,9.700000000000001,0.0,-1.8,1.6,0.1
1698673077890.0,16,-0.2,0.2,-0.30000000000000004,0.4,9.600000000000001,0.0,-3.5,0.9,-0.1
1698673077907.0,16,-0.2,0.1,-0.30000000000000004,0.4,9.5,0.0,-4.300000000000001,0.6000000000000001,-0.5
1698673077924.0,16,-0.1,0.0,-0.30000000000000004,0.5,9.5,0.0,-4.2,0.30000000000000004,-0.7
1698673077941.0,16,-0.1,-0.1,-0.2,0.5,9.3,0.1,-3.2,-1.5000000000000002,-0.4
1698673077957.0,16,-0.1,-0.1,-0.1,0.5,9.3,0.2,-0.7,-2.7,0.1
1698673077974.0,16,-0.1,-0.1,-0.1,0.5,9.4,0.2,0.9,-3.1,-0.1
1698673077991.0,16,0.0,0.0,0.0,0.6000000000000001,9.4,0.30000000000000004,4.800000000000001,-3.1,0.0
1698673078008.0,16,0.1,0.1,0.1,0.7000000000000001,9.5,0.30000000000000004,8.200000000000001,-3.0000000000000004,0.2
1698673078024.0,16,0.1,0.0,0.2,0.7000000000000001,9.5,0.4,9.700000000000001,-2.4000000000000004,0.2
1698673078041.0,16,0.1,0.1,0.2,0.7000000000000001,9.5,0.4,9.5,-1.9,0.4
1698673078057.0,16,0.1,0.1,0.2,0.7000000000000001,9.5,0.4,7.300000000000001,-0.8,0.7
1698673078075.0,16,0.1,0.1,0.1,0.7000000000000001,9.5,0.30000000000000004,5.4,-0.5,0.6000000000000001
1698673078090.0,16,0.1,0.0,0.1,0.7000000000000001,9.5,0.30000000000000004,0.30000000000000004,0.4,0.1
1698673078107.0,16,0.0,0.0,0.0,0.7000000000000001,9.4,0.2,-4.5,1.5000000000000002,-0.1
1698673078124.0,16,0.0,0.0,0.0,0.6000000000000001,9.4,0.2,-8.0,1.7,-0.4
1698673078141.0,16,-0.1,0.0,-0.1,0.6000000000000001,9.4,0.2,-9.0,2.3000000000000003,-0.5
1698673078157.0,16,0.0,-0.1,-0.1,0.6000000000000001,9.4,0.1,-9.5,2.6,-1.0999999999999999
1698673078174.0,16,0.0,0.0,-0.1,0.6000000000000001,9.4,0.2,-8.5,2.3000000000000003,-1.2000000000000002
1698673078191.0,16,-0.1,0.0,-0.1,0.5,9.5,0.2,-5.500000000000001,1.9,-0.6000000000000001
1698673078207.0,16,-0.1,0.0,-0.1,0.5,9.5,0.2,-3.5,1.5000000000000002,0.0
1698673078224.0,16,-0.1,0.0,-0.1,0.5,9.4,0.2,-1.5000000000000002,1.0,0.2
1698673078241.0,16,0.0,0.0,-0.1,0.6000000000000001,9.5,0.2,2.4000000000000004,0.5,0.4
1698673078257.0,16,0.0,0.0,0.0,0.5,9.4,0.30000000000000004,6.2,0.2,1.0999999999999999
1698673078274.0,16,0.0,0.0,0.1,0.5,9.5,0.30000000000000004,8.5,-0.30000000000000004,1.3
1698673078291.0,16,0.0,0.0,0.1,0.6000000000000001,9.4,0.30000000000000004,8.799999999999999,-0.30000000000000004,1.2000000000000002
1698673078307.0,16,0.0,0.0,0.1,0.6000000000000001,9.4,0.30000000000000004,8.200000000000001,0.30000000000000004,1.0
1698673078324.0,16,0.0,0.0,0.1,0.6000000000000001,9.5,0.30000000000000004,7.2,0.4,1.0999999999999999
1698673078341.0,16,0.0,0.0,0.1,0.6000000000000001,9.4,0.30000000000000004,4.1000000000000005,0.2,1.3
1698673078357.0,16,0.0,0.0,0.1,0.6000000000000001,9.5,0.30000000000000004,0.30000000000000004,-0.2,0.6000000000000001
1698673078374.0,16,0.0,0.1,0.1,0.6000000000000001,9.5,0.30000000000000004,-1.6,0.30000000000000004,0.2
1698673078391.0,16,0.1,0.0,0.1,0.7000000000000001,9.5,0.30000000000000004,-4.3999999999999995,0.9,-0.4
1698673078407.0,16,0.1,0.0,0.0,0.7000000000000001,9.5,0.2,-5.8,1.2000000000000002,-0.5
1698673078424.0,16,0.0,0.0,-0.1,0.6000000000000001,9.4,0.2,-5.7,1.0999999999999999,-0.30000000000000004
1698673078441.0,16,0.0,0.0,-0.1,0.6000000000000001,9.5,0.2,-5.2,0.7,0.2
1698673078458.0,16,0.0,0.0,-0.1,0.6000000000000001,9.4,0.2,-3.7000000000000006,0.2,0.30000000000000004
1698673078474.0,16,0.0,0.0,-0.1,0.6000000000000001,9.4,0.2,-2.8,0.0,0.1
1698673078492.0,16,0.0,0.0,-0.1,0.6000000000000001,9.4,0.2,-0.6000000000000001,-0.2,0.1
1698673078508.0,16,0.0,0.0,-0.1,0.6000000000000001,9.4,0.2,1.3,-0.30000000000000004,0.1
1698673078525.0,16,0.1,0.0,0.0,0.7000000000000001,9.4,0.2,1.9,-0.4,0.4
1698673078540.0,16,0.0,0.0,0.0,0.6000000000000001,9.4,0.2,2.7,-1.0999999999999999,0.5
1698673078558.0,16,0.0,0.0,0.0,0.6000000000000001,9.5,0.2,3.2,-0.8,0.4
1698673078574.0,16,0.0,0.0,0.0,0.6000000000000001,9.5,0.2,2.9,-0.4,0.1
1698673078591.0,16,0.0,0.0,0.0,0.6000000000000001,9.5,0.2,2.0,-0.2,-0.1
1698673078608.0,16,0.0,0.0,0.0,0.7000000000000001,9.5,0.30000000000000004,1.4,0.0,0.0
1698673078624.0,16,0.0,0.0,0.0,0.6000000000000001,9.5,0.30000000000000004,0.8,0.0,0.0
1698673078641.0,16,0.0,0.1,0.0,0.6000000000000001,9.5,0.30000000000000004,-0.4,-0.30000000000000004,0.4
1698673078660.0,16,0.0,0.0,0.0,0.6000000000000001,9.5,0.2,-1.9,0.1,0.6000000000000001
1698673078674.0,16,0.0,0.0,0.0,0.6000000000000001,9.4,0.2,-2.8,-0.30000000000000004,0.4
1698673078691.0,16,0.1,0.0,0.0,0.7000000000000001,9.5,0.2,-4.1000000000000005,-0.2,0.0
1698673078708.0,16,0.1,0.1,0.0,0.7000000000000001,9.5,0.30000000000000004,-5.0,0.6000000000000001,0.0
1698673078724.0,16,0.0,0.2,-0.1,0.7000000000000001,9.700000000000001,0.2,-5.6,2.6,1.0
1698673078741.0,16,0.0,0.2,-0.1,0.6000000000000001,9.700000000000001,0.2,-6.000000000000001,2.9,1.7
1698673078758.0,16,-0.1,0.1,-0.1,0.5,9.600000000000001,0.2,-7.699999999999999,0.5,3.0000000000000004
1698673078774.0,16,-0.2,0.0,-0.1,0.4,9.5,0.2,-7.699999999999999,-1.0999999999999999,3.2
1698673078791.0,16,-0.2,0.0,0.0,0.4,9.5,0.30000000000000004,-6.5,-1.6,1.5000000000000002
1698673078808.0,16,-0.2,-0.1,0.0,0.4,9.4,0.30000000000000004,-5.4,-1.7,0.30000000000000004
1698673078824.0,16,-0.1,-0.1,0.0,0.5,9.3,0.4,-3.1,-3.0000000000000004,-1.0
1698673078841.0,16,-0.1,-0.2,0.1,0.6000000000000001,9.3,0.5,-1.0,-4.300000000000001,-1.7
1698673078860.0,16,-0.1,-0.2,0.1,0.6000000000000001,9.3,0.5,-0.2,-4.800000000000001,-1.4
1698673078875.0,16,-0.1,-0.2,0.1,0.4,9.3,0.5,0.5,-6.3,-0.4
1698673078891.0,16,-0.2,-0.1,0.1,0.4,9.4,0.5,0.6000000000000001,-6.7,-0.5
1698673078907.0,16,-0.1,0.0,0.2,0.4,9.4,0.5,0.6000000000000001,-6.8,-2.1999999999999997
1698673078924.0,16,0.0,-0.1,0.2,0.6000000000000001,9.3,0.6000000000000001,-0.2,-5.500000000000001,-4.300000000000001
1698673078941.0,16,0.1,-0.2,0.2,0.7000000000000001,9.3,0.5,-1.0,-4.300000000000001,-5.0
1698673078958.0,16,0.4,-0.2,0.1,0.9,9.3,0.5,-3.8,-2.4000000000000004,-4.6000000000000005
1698673078974.0,16,0.5,-0.1,0.0,1.1,9.4,0.4,-6.8,-0.4,-2.8
1698673078991.0,16,0.5,-0.1,0.0,1.1,9.4,0.4,-7.9,0.6000000000000001,-2.0
1698673079008.0,16,0.4,0.0,-0.1,1.0,9.5,0.4,-9.1,2.8,-1.0
1698673079024.0,16,0.30000000000000004,0.0,-0.1,0.9,9.5,0.4,-9.0,4.1000000000000005,-1.0999999999999999
1698673079041.0,16,0.30000000000000004,0.0,-0.1,0.8,9.5,0.4,-7.9,5.6,-0.7
1698673079057.0,16,0.1,0.0,-0.1,0.7000000000000001,9.4,0.4,-4.300000000000001,6.7,0.8
1698673079074.0,16,0.0,0.0,-0.1,0.6000000000000001,9.4,0.4,-2.6,6.1000000000000005,1.5000000000000002
1698673079091.0,16,-0.2,0.0,-0.1,0.4,9.5,0.4,0.9,5.4,2.3000000000000003
1698673079107.0,16,-0.30000000000000004,0.1,-0.1,0.30000000000000004,9.5,0.4,2.5,4.7,2.4000000000000004
1698673079124.0,16,-0.4,0.1,-0.1,0.30000000000000004,9.5,0.4,3.9,3.6,2.4000000000000004
1698673079141.0,16,-0.4,0.1,0.0,0.2,9.5,0.5,5.8,1.4,2.0
1698673079158.0,16,-0.4,0.0,0.0,0.2,9.5,0.5,6.5,-0.4,0.9
1698673079174.0,16,-0.30000000000000004,0.0,0.1,0.30000000000000004,9.4,0.5,5.500000000000001,-2.1,-0.5
1698673079191.0,16,-0.2,0.0,0.1,0.4,9.4,0.6000000000000001,3.4,-3.8,-0.7
1698673079207.0,16,-0.1,0.0,0.1,0.4,9.4,0.5,2.0,-4.0,-0.30000000000000004
1698673079224.0,16,0.0,0.0,0.1,0.5,9.5,0.5,-1.4,-4.6000000000000005,-0.4
1698673079241.0,16,0.0,0.0,0.1,0.6000000000000001,9.4,0.5,-4.3999999999999995,-4.1000000000000005,-0.9
1698673079257.0,16,0.1,0.0,0.1,0.6000000000000001,9.4,0.5,-5.6,-3.6,-1.2000000000000002
1698673079274.0,16,0.2,-0.1,0.0,0.7000000000000001,9.4,0.5,-7.300000000000001,-3.2,-1.5000000000000002
1698673079291.0,16,0.2,0.0,0.0,0.8,9.4,0.5,-7.699999999999999,-2.1999999999999997,-1.0999999999999999
1698673079308.0,16,0.2,-0.1,0.0,0.8,9.3,0.5,-7.500000000000001,-2.0,-0.6000000000000001
1698673079324.0,16,0.2,-0.1,0.0,0.7000000000000001,9.4,0.5,-5.9,-1.3,0.0
1698673079341.0,16,0.1,-0.1,-0.1,0.7000000000000001,9.4,0.5,-3.7000000000000006,-0.8,0.4
1698673079358.0,16,0.1,0.0,0.0,0.7000000000000001,9.4,0.5,-2.1999999999999997,-0.6000000000000001,0.1
1698673079374.0,16,0.1,0.0,0.0,0.7000000000000001,9.4,0.5,0.5,0.4,-0.1
1698673079390.0,16,0.0,0.0,0.0,0.6000000000000001,9.4,0.5,2.8,1.3,0.1
1698673079407.0,16,0.0,0.0,0.0,0.6000000000000001,9.4,0.5,3.6,1.5000000000000002,0.30000000000000004
1698673079424.0,16,0.0,0.0,0.0,0.6000000000000001,9.4,0.5,4.5,1.3,0.7
1698673079441.0,16,0.0,0.0,0.0,0.5,9.5,0.5,4.2,1.5000000000000002,0.6000000000000001
1698673079457.0,16,-0.1,0.0,0.0,0.6000000000000001,9.5,0.5,3.2,1.0999999999999999,0.6000000000000001
1698673079474.0,16,0.0,0.1,0.0,0.6000000000000001,9.5,0.5,3.2,1.0999999999999999,0.6000000000000001
1698673079491.0,16,-0.1,0.0,0.0,0.5,9.5,0.5,0.9,0.6000000000000001,0.2
1698673079507.0,16,-0.1,0.0,0.0,0.5,9.5,0.5,0.1,0.4,-0.1
1698673079524.0,16,0.0,0.0,0.0,0.5,9.4,0.5,-0.7,0.30000000000000004,-0.5
1698673079541.0,16,0.0,0.0,0.0,0.6000000000000001,9.4,0.5,-1.0,0.1,-0.1
1698673079557.0,16,0.0,0.0,0.0,0.6000000000000001,9.4,0.5,-1.0,0.1,0.1
1698673079575.0,16,0.0,0.0,0.0,0.5,9.4,0.5,-0.5,0.30000000000000004,0.6000000000000001
1698673079591.0,16,-0.1,0.0,0.0,0.5,9.5,0.5,0.1,-0.2,0.5
1698673079607.0,16,0.0,0.0,0.0,0.6000000000000001,9.5,0.5,0.4,-0.8,0.1
1698673079624.0,16,0.0,0.0,0.0,0.6000000000000001,9.4,0.5,0.6000000000000001,-0.8,0.1
1698673079641.0,16,0.0,0.0,0.0,0.6000000000000001,9.4,0.5,1.2000000000000002,-0.30000000000000004,0.30000000000000004
1698673079658.0,16,0.0,0.0,0.0,0.6000000000000001,9.4,0.5,1.3,-0.4,0.4
1698673079675.0,16,0.0,0.0,0.0,0.6000000000000001,9.4,0.5,1.3,-0.6000000000000001,0.2
1698673079690.0,16,0.0,0.0,0.0,0.6000000000000001,9.4,0.5,1.3,-0.4,0.30000000000000004
1698673079707.0,16,0.0,0.0,0.0,0.6000000000000001,9.4,0.5,0.9,-0.8,0.5
1698673079724.0,16,0.0,0.0,0.0,0.6000000000000001,9.5,0.5,0.9,-0.6000000000000001,0.2
1698673079740.0,16,0.0,0.0,0.0,0.6000000000000001,9.4,0.5,0.9,-0.5,0.0
1698673079757.0,16,0.0,0.0,0.0,0.6000000000000001,9.4,0.5,0.8,-0.5,-0.1
1698673079774.0,16,0.0,0.0,0.0,0.6000000000000001,9.4,0.5,0.9,0.0,0.1
1698673079790.0,16,0.0,0.0,0.0,0.6000000000000001,9.4,0.5,1.0,0.0,0.1
1698673079807.0,16,0.0,0.0,0.0,0.6000000000000001,9.4,0.5,1.4,0.5,-0.1
1698673079824.0,16,0.0,0.0,0.0,0.6000000000000001,9.4,0.4,1.4,0.4,0.4
1698673079841.0,16,0.0,0.0,0.0,0.6000000000000001,9.4,0.4,1.0999999999999999,0.30000000000000004,0.4
1698673079858.0,16,0.0,0.0,0.0,0.6000000000000001,9.5,0.4,0.8,0.0,0.30000000000000004
1698673079874.0,16,-0.1,0.0,0.0,0.5,9.5,0.4,0.6000000000000001,-0.30000000000000004,-0.2
1698673079894.0,16,0.0,0.0,0.0,0.6000000000000001,9.5,0.4,0.4,0.0,-0.30000000000000004
1698673079907.0,16,0.0,0.1,0.0,0.6000000000000001,9.5,0.4,0.1,0.0,-0.4
1698673079924.0,16,0.0,0.1,-0.1,0.6000000000000001,9.5,0.4,-0.1,0.7,-0.2
1698673079940.0,16,-0.1,0.0,0.0,0.5,9.4,0.5,0.2,0.2,0.2
1698673079957.0,16,-0.1,-0.1,0.0,0.5,9.4,0.5,0.8,0.1,-0.2
1698673079974.0,16,-0.1,-0.1,0.0,0.5,9.4,0.5,1.0,-0.1,-0.5
1698673079991.0,16,0.0,-0.2,0.1,0.6000000000000001,9.200000000000001,0.5,1.5000000000000002,-1.0999999999999999,-1.3
1698673080007.0,16,0.1,-0.2,0.1,0.7000000000000001,9.200000000000001,0.5,2.6,-0.8,-0.4
1698673080024.0,16,0.1,-0.2,0.1,0.7000000000000001,9.200000000000001,0.5,2.6,-0.8,-0.4
1698673080041.0,16,0.1,0.1,0.0,0.7000000000000001,9.5,0.5,3.1,-0.9,0.7
1698673080057.0,16,0.1,0.1,0.0,0.7000000000000001,9.5,0.4,2.9,-0.7,0.6000000000000001
1698673080074.0,16,0.1,0.1,0.0,0.7000000000000001,9.5,0.4,3.0000000000000004,-0.2,0.5
1698673080091.0,16,0.0,0.1,0.0,0.6000000000000001,9.600000000000001,0.4,2.8,1.0999999999999999,0.7
1698673080107.0,16,-0.1,0.0,-0.1,0.5,9.5,0.30000000000000004,1.9,1.6,1.0
1698673080124.0,16,-0.1,0.0,-0.1,0.5,9.5,0.30000000000000004,0.9,0.7,0.7
1698673080141.0,16,-0.1,0.0,-0.1,0.5,9.4,0.30000000000000004,0.4,0.6000000000000001,0.1
1698673080157.0,16,0.0,0.0,-0.1,0.6000000000000001,9.5,0.30000000000000004,-0.30000000000000004,0.2,0.0
1698673080174.0,16,0.0,0.0,-0.1,0.6000000000000001,9.4,0.30000000000000004,-0.30000000000000004,-0.5,-0.1
1698673080191.0,16,0.0,0.0,0.0,0.6000000000000001,9.4,0.4,0.30000000000000004,-0.30000000000000004,-0.4
1698673080207.0,16,0.1,0.0,0.0,0.7000000000000001,9.4,0.4,1.5000000000000002,0.6000000000000001,-0.2
1698673080224.0,16,0.1,0.0,0.0,0.7000000000000001,9.5,0.4,2.1999999999999997,0.9,0.1
1698673080241.0,16,0.0,0.0,0.0,0.7000000000000001,9.5,0.4,3.4,1.3,1.0
1698673080257.0,16,0.0,0.1,0.0,0.6000000000000001,9.5,0.4,3.7000000000000006,0.8,1.5000000000000002
1698673080274.0,16,0.0,0.1,0.0,0.6000000000000001,9.5,0.30000000000000004,3.6,0.9,1.5000000000000002
1698673080291.0,16,-0.1,0.0,0.0,0.6000000000000001,9.5,0.4,2.3000000000000003,0.1,1.3
1698673080307.0,16,-0.1,0.0,0.0,0.5,9.5,0.30000000000000004,1.2000000000000002,0.4,0.9
1698673080324.0,16,0.0,0.0,0.0,0.6000000000000001,9.5,0.30000000000000004,0.6000000000000001,0.7,0.5
1698673080341.0,16,0.0,-0.1,0.0,0.6000000000000001,9.4,0.30000000000000004,-0.6000000000000001,0.4,0.2
1698673080358.0,16,0.0,-0.1,0.0,0.6000000000000001,9.4,0.30000000000000004,-1.0,0.6000000000000001,0.7
1698673080374.0,16,0.0,0.0,0.0,0.6000000000000001,9.4,0.30000000000000004,-0.9,0.30000000000000004,0.6000000000000001
1698673080391.0,16,0.0,0.0,0.0,0.7000000000000001,9.4,0.30000000000000004,-0.2,0.30000000000000004,0.2
1698673080407.0,16,0.1,0.0,0.0,0.7000000000000001,9.5,0.4,0.4,0.6000000000000001,0.1
1698673080424.0,16,0.1,0.0,0.0,0.7000000000000001,9.5,0.4,1.6,0.7,0.2
1698673080441.0,16,0.0,0.0,0.0,0.7000000000000001,9.5,0.30000000000000004,2.8,1.4,0.8
1698673080458.0,16,0.0,0.0,0.0,0.7000000000000001,9.5,0.30000000000000004,2.9,1.4,1.2000000000000002
1698673080474.0,16,0.0,0.0,0.0,0.6000000000000001,9.5,0.30000000000000004,2.6,1.2000000000000002,1.2000000000000002
1698673080491.0,16,0.0,0.1,0.0,0.6000000000000001,9.5,0.30000000000000004,2.1,0.9,1.2000000000000002
1698673080508.0,16,-0.1,0.0,0.0,0.6000000000000001,9.5,0.30000000000000004,1.0999999999999999,0.4,1.2000000000000002
1698673080524.0,16,-0.1,0.0,0.0,0.5,9.4,0.30000000000000004,-0.30000000000000004,0.0,0.2
1698673080541.0,16,-0.1,0.0,0.0,0.6000000000000001,9.4,0.30000000000000004,-1.7,-0.5,-0.2
1698673080558.0,16,0.0,0.0,0.0,0.6000000000000001,9.4,0.30000000000000004,-2.3000000000000003,-0.30000000000000004,0.0
1698673080575.0,16,0.0,0.0,0.0,0.6000000000000001,9.4,0.30000000000000004,-2.1,-0.6000000000000001,0.30000000000000004
1698673080591.0,16,0.0,0.0,0.0,0.6000000000000001,9.5,0.30000000000000004,-1.7,-0.7,0.4
1698673080607.0,16,0.0,0.0,0.0,0.6000000000000001,9.4,0.30000000000000004,-0.6000000000000001,-1.2000000000000002,0.30000000000000004
1698673080624.0,16,0.0,0.0,0.0,0.7000000000000001,9.4,0.30000000000000004,0.7,-1.3,0.1
1698673080641.0,16,0.1,0.0,0.0,0.7000000000000001,9.4,0.30000000000000004,1.0999999999999999,-1.0999999999999999,0.0
1698673080658.0,16,0.1,0.0,0.0,0.7000000000000001,9.4,0.4,2.0,-0.5,0.0
1698673080674.0,16,0.1,0.0,0.0,0.8,9.4,0.4,2.1,-0.1,0.1
1698673080690.0,16,0.1,0.0,0.0,0.7000000000000001,9.4,0.30000000000000004,1.9,0.6000000000000001,0.5
1698673080708.0,16,0.0,0.0,0.0,0.7000000000000001,9.4,0.30000000000000004,1.0999999999999999,1.0999999999999999,0.7
1698673080724.0,16,0.0,0.0,0.0,0.7000000000000001,9.4,0.30000000000000004,0.6000000000000001,1.2000000000000002,0.7
1698673080741.0,16,0.0,0.0,0.0,0.6000000000000001,9.5,0.30000000000000004,-0.5,1.0,0.2
1698673080758.0,16,0.0,0.0,0.0,0.6000000000000001,9.4,0.30000000000000004,-1.2000000000000002,1.2000000000000002,-0.1
1698673080774.0,16,0.0,0.0,0.0,0.6000000000000001,9.4,0.30000000000000004,-1.5000000000000002,1.2000000000000002,-0.2
1698673080791.0,16,0.0,0.0,0.0,0.6000000000000001,9.4,0.30000000000000004,-1.6,0.9,-0.2
1698673080807.0,16,0.0,0.0,0.0,0.7000000000000001,9.4,0.30000000000000004,-1.5000000000000002,0.6000000000000001,-0.30000000000000004
1698673080824.0,16,0.0,0.0,0.0,0.7000000000000001,9.4,0.30000000000000004,-0.8,0.6000000000000001,-0.1
1698673080840.0,16,0.0,0.0,0.0,0.6000000000000001,9.4,0.30000000000000004,0.1,0.5,0.2
1698673080857.0,16,-0.1,0.0,0.0,0.6000000000000001,9.4,0.30000000000000004,0.9,0.2,0.4
1698673080875.0,16,0.0,0.0,0.0,0.6000000000000001,9.4,0.30000000000000004,1.8,0.0,0.1
1698673080891.0,16,0.0,0.0,0.0,0.7000000000000001,9.4,0.30000000000000004,2.0,0.30000000000000004,0.0
1698673080908.0,16,0.0,0.0,0.0,0.7000000000000001,9.5,0.30000000000000004,2.1999999999999997,0.2,0.5
1698673080924.0,16,0.0,0.0,0.1,0.6000000000000001,9.4,0.4,1.8,-0.1,0.4
1698673080941.0,16,0.0,0.0,0.0,0.6000000000000001,9.4,0.30000000000000004,1.4,0.1,0.4
1698673080958.0,16,0.0,0.0,0.0,0.7000000000000001,9.4,0.30000000000000004,0.4,0.4,0.1
1698673080974.0,16,0.0,0.0,0.0,0.6000000000000001,9.4,0.30000000000000004,-0.6000000000000001,0.9,0.1
1698673080990.0,16,0.0,0.0,0.0,0.7000000000000001,9.4,0.30000000000000004,-1.3,0.4,0.2
1698673081007.0,16,0.0,0.0,0.0,0.6000000000000001,9.4,0.30000000000000004,-1.4,0.30000000000000004,0.4
1698673081024.0,16,0.0,0.0,0.0,0.6000000000000001,9.4,0.30000000000000004,-1.2000000000000002,0.0,0.4
1698673081041.0,16,0.0,0.0,0.0,0.6000000000000001,9.4,0.30000000000000004,-0.8,-0.1,0.2
1698673081058.0,16,0.0,-0.1,0.0,0.7000000000000001,9.4,0.30000000000000004,0.1,-0.7,-0.1
1698673081074.0,16,0.0,0.0,0.0,0.6000000000000001,9.4,0.30000000000000004,0.7,-0.6000000000000001,-0.1
1698673081090.0,16,0.0,0.0,0.0,0.7000000000000001,9.4,0.30000000000000004,2.1,0.1,0.1
1698673081108.0,16,0.0,0.0,0.0,0.7000000000000001,9.4,0.30000000000000004,2.1999999999999997,0.30000000000000004,0.1
1698673081124.0,16,0.0,0.0,0.0,0.7000000000000001,9.4,0.30000000000000004,2.1999999999999997,0.30000000000000004,0.5
1698673081141.0,16,0.0,0.0,0.0,0.7000000000000001,9.5,0.30000000000000004,1.7,0.4,0.5
1698673081157.0,16,0.0,0.0,0.0,0.6000000000000001,9.4,0.30000000000000004,1.3,0.4,0.4
1698673081174.0,16,0.0,0.0,0.0,0.6000000000000001,9.4,0.30000000000000004,0.9,0.6000000000000001,0.4
1698673081191.0,16,0.0,0.0,0.0,0.7000000000000001,9.4,0.30000000000000004,-0.30000000000000004,0.5,0.1
1698673081208.0,16,0.0,0.0,0.0,0.7000000000000001,9.4,0.30000000000000004,-0.6000000000000001,0.5,-0.1
1698673081224.0,16,0.0,0.0,0.0,0.7000000000000001,9.4,0.30000000000000004,-0.9,0.30000000000000004,0.0
1698673081241.0,16,0.0,0.0,0.0,0.7000000000000001,9.4,0.30000000000000004,-1.0,0.30000000000000004,-0.1
1698673081257.0,16,0.0,0.0,0.0,0.7000000000000001,9.5,0.30000000000000004,-1.0,0.5,-0.1
1698673081274.0,16,0.0,0.0,0.0,0.6000000000000001,9.5,0.30000000000000004,-0.9,0.4,0.1
1698673081291.0,16,0.0,0.0,0.0,0.6000000000000001,9.4,0.30000000000000004,-0.4,0.1,0.2
1698673081307.0,16,0.0,0.0,0.0,0.6000000000000001,9.4,0.30000000000000004,0.2,0.0,0.0
1698673081324.0,16,0.0,0.0,0.0,0.6000000000000001,9.4,0.30000000000000004,0.8,-0.4,0.0
1698673081341.0,16,0.0,0.0,0.0,0.7000000000000001,9.4,0.30000000000000004,1.2000000000000002,-0.2,0.2
1698673081358.0,16,0.0,0.0,0.0,0.6000000000000001,9.4,0.30000000000000004,1.2000000000000002,-0.2,0.2
1698673081374.0,16,0.0,0.0,0.0,0.7000000000000001,9.4,0.30000000000000004,1.0999999999999999,0.0,-0.1
1698673081390.0,16,0.0,0.0,0.0,0.7000000000000001,9.4,0.30000000000000004,1.0,0.0,-0.2
1698673081407.0,16,0.0,0.0,0.0,0.7000000000000001,9.5,0.30000000000000004,0.4,0.1,-0.2
1698673081424.0,16,0.0,0.1,0.0,0.7000000000000001,9.5,0.30000000000000004,-0.30000000000000004,0.7,-0.1
1698673081442.0,16,0.0,0.0,0.0,0.7000000000000001,9.5,0.30000000000000004,-1.0,0.5,-0.1
1698673081458.0,16,0.0,0.0,0.0,0.6000000000000001,9.5,0.30000000000000004,-1.0999999999999999,0.5,-0.2
1698673081475.0,16,0.0,0.0,0.0,0.6000000000000001,9.4,0.30000000000000004,-1.3,0.7,-0.2
1698673081491.0,16,0.0,0.0,0.0,0.6000000000000001,9.4,0.30000000000000004,-1.2000000000000002,0.7,-0.4
1698673081507.0,16,0.0,0.0,0.0,0.7000000000000001,9.4,0.30000000000000004,-1.0,0.5,-0.5
1698673081524.0,16,0.1,0.1,0.0,0.7000000000000001,9.5,0.30000000000000004,-0.7,1.0999999999999999,-0.5
1698673081541.0,16,0.0,0.0,0.0,0.7000000000000001,9.5,0.30000000000000004,-0.4,1.2000000000000002,-0.4
1698673081558.0,16,0.0,0.0,0.0,0.6000000000000001,9.4,0.30000000000000004,-0.30000000000000004,1.0,0.4
1698673081574.0,16,0.0,0.0,0.0,0.6000000000000001,9.4,0.30000000000000004,0.0,0.7,0.4
1698673081591.0,16,-0.1,0.0,0.0,0.6000000000000001,9.4,0.30000000000000004,0.1,0.6000000000000001,0.1
1698673081608.0,16,-0.1,0.0,0.0,0.6000000000000001,9.5,0.30000000000000004,0.1,0.30000000000000004,0.2
1698673081624.0,16,0.0,0.0,0.0,0.6000000000000001,9.4,0.30000000000000004,-0.2,-0.4,0.1
1698673081641.0,16,0.0,0.0,0.0,0.7000000000000001,9.5,0.30000000000000004,-0.5,-0.7,-0.2
1698673081658.0,16,0.0,0.0,0.0,0.7000000000000001,9.4,0.30000000000000004,-0.7,-0.9,-0.4
1698673081674.0,16,0.0,0.0,0.0,0.7000000000000001,9.4,0.30000000000000004,-0.7,-0.5,0.1
1698673081692.0,16,0.0,-0.1,0.0,0.7000000000000001,9.4,0.30000000000000004,-0.5,-0.5,0.5
1698673081707.0,16,0.0,-0.1,0.0,0.6000000000000001,9.4,0.30000000000000004,-0.2,-0.5,0.4
1698673081724.0,16,0.0,0.0,0.0,0.7000000000000001,9.4,0.30000000000000004,-0.2,-0.2,0.30000000000000004
1698673081741.0,16,0.0,0.1,0.0,0.7000000000000001,9.5,0.30000000000000004,-0.30000000000000004,-0.6000000000000001,-0.2
1698673081757.0,16,0.0,0.1,0.0,0.7000000000000001,9.5,0.30000000000000004,-0.30000000000000004,-0.4,-0.5
1698673081774.0,16,0.0,0.0,0.0,0.6000000000000001,9.5,0.30000000000000004,-0.7,0.2,-0.2
1698673081790.0,16,0.0,0.0,0.0,0.6000000000000001,9.5,0.30000000000000004,-1.0999999999999999,-0.8,0.7
1698673081807.0,16,0.0,0.0,0.0,0.6000000000000001,9.5,0.30000000000000004,-1.5000000000000002,-1.0,0.7
1698673081824.0,16,0.0,0.0,0.0,0.6000000000000001,9.5,0.30000000000000004,-1.9,-1.3,0.0
1698673081841.0,16,0.0,0.0,0.0,0.7000000000000001,9.5,0.30000000000000004,-1.7,-1.6,-1.0
1698673081857.0,16,0.1,0.0,0.0,0.7000000000000001,9.4,0.30000000000000004,-1.8,-1.7,-1.6
1698673081874.0,16,0.1,0.0,0.0,0.8,9.4,0.30000000000000004,-1.8,-1.2000000000000002,-2.6
1698673081891.0,16,0.1,0.0,0.0,0.8,9.5,0.30000000000000004,-1.6,-0.5,-2.6
1698673081907.0,16,0.1,0.0,0.0,0.8,9.5,0.30000000000000004,-2.1,0.2,-2.3000000000000003
1698673081924.0,16,0.1,0.0,0.0,0.7000000000000001,9.4,0.30000000000000004,-2.1999999999999997,0.4,-1.9
1698673081941.0,16,0.0,0.0,0.0,0.6000000000000001,9.4,0.30000000000000004,-2.5,0.2,-1.4
1698673081957.0,16,0.0,0.0,0.0,0.6000000000000001,9.4,0.4,-2.4000000000000004,0.4,-1.3
1698673081974.0,16,-0.1,-0.1,0.0,0.5,9.3,0.4,-2.0,-0.30000000000000004,-1.2000000000000002
1698673081991.0,16,-0.1,-0.1,0.1,0.5,9.4,0.4,-1.0999999999999999,-1.3,-1.2000000000000002
1698673082007.0,16,-0.1,-0.1,0.0,0.5,9.3,0.4,-0.6000000000000001,-1.6,-2.0
1698673082024.0,16,-0.1,-0.1,0.1,0.5,9.3,0.5,-0.2,-1.8,-2.3000000000000003
1698673082041.0,16,0.0,-0.1,0.1,0.6000000000000001,9.3,0.5,0.8,-0.8,-2.9
1698673082057.0,16,0.2,0.0,0.1,0.7000000000000001,9.3,0.5,0.9,-0.1,-3.0000000000000004
1698673082074.0,16,0.2,0.0,0.1,0.8,9.4,0.4,0.6000000000000001,1.3,-1.8
1698673082090.0,16,0.1,0.0,0.1,0.7000000000000001,9.4,0.4,-0.1,1.5000000000000002,-0.1
1698673082107.0,16,0.0,0.0,0.0,0.6000000000000001,9.4,0.4,-0.5,2.5,0.7
1698673082124.0,16,-0.1,0.0,0.0,0.4,9.4,0.4,-0.5,2.1999999999999997,1.3
1698673082140.0,16,-0.2,0.0,-0.1,0.4,9.5,0.30000000000000004,-0.6000000000000001,1.9,1.7
1698673082157.0,16,-0.2,0.1,0.0,0.4,9.5,0.4,-0.8,0.30000000000000004,0.30000000000000004
1698673082174.0,16,-0.1,0.0,0.0,0.5,9.4,0.4,-0.6000000000000001,0.4,-1.0
1698673082190.0,16,0.1,0.0,0.0,0.6000000000000001,9.4,0.4,-0.2,-0.30000000000000004,-1.8
1698673082207.0,16,0.1,0.0,0.0,0.7000000000000001,9.4,0.4,0.0,0.0,-1.0
1698673082224.0,16,0.1,0.1,0.0,0.6000000000000001,9.5,0.4,-0.2,0.30000000000000004,-0.6000000000000001
1698673082241.0,16,-0.1,0.1,-0.1,0.5,9.5,0.30000000000000004,-0.9,0.30000000000000004,-0.30000000000000004
1698673082257.0,16,-0.1,0.1,-0.1,0.5,9.5,0.30000000000000004,-1.7,-0.4,-1.0
1698673082274.0,16,-0.1,0.1,-0.1,0.5,9.5,0.30000000000000004,-2.1,-0.7,-1.3
1698673082290.0,16,0.0,0.0,-0.1,0.5,9.4,0.30000000000000004,-2.5,-1.3,-1.6
1698673082307.0,16,0.0,0.0,-0.1,0.6000000000000001,9.4,0.4,-2.6,-2.3000000000000003,-1.6
1698673082324.0,16,0.0,0.0,0.0,0.6000000000000001,9.4,0.4,-2.5,-2.4000000000000004,-2.0
1698673082341.0,16,0.1,0.0,0.0,0.6000000000000001,9.4,0.4,-1.9,-1.6,-2.7
1698673082357.0,16,0.1,0.0,0.0,0.6000000000000001,9.4,0.4,-1.3,-1.0,-2.3000000000000003
1698673082374.0,16,0.1,0.0,0.0,0.7000000000000001,9.4,0.4,-1.2000000000000002,-1.3,-1.9
1698673082390.0,16,0.0,-0.1,0.1,0.6000000000000001,9.4,0.5,-0.4,-1.3,-1.6
1698673082407.0,16,0.0,0.0,0.0,0.5,9.4,0.4,0.5,-0.2,-2.0
1698673082424.0,16,0.0,0.0,0.0,0.5,9.4,0.5,0.6000000000000001,-1.0,-2.1
1698673082441.0,16,0.0,0.0,0.0,0.5,9.4,0.5,0.5,-1.0999999999999999,-2.3000000000000003
1698673082457.0,16,0.0,0.0,0.0,0.6000000000000001,9.4,0.5,0.0,-0.5,-2.9
1698673082474.0,16,0.0,0.0,0.0,0.5,9.4,0.4,-0.5,-0.5,-2.9
1698673082491.0,16,0.0,0.0,0.0,0.5,9.5,0.5,-1.4,-0.4,-2.4000000000000004
1698673082507.0,16,-0.1,0.1,0.0,0.4,9.5,0.4,-2.1999999999999997,0.30000000000000004,-1.9
1698673082524.0,16,-0.1,0.0,0.0,0.4,9.5,0.4,-2.7,0.2,-1.7
1698673082541.0,16,-0.1,0.0,-0.1,0.4,9.4,0.4,-3.2,0.30000000000000004,-1.3
1698673082557.0,16,-0.1,0.0,0.0,0.30000000000000004,9.4,0.4,-2.8,-0.4,-1.2000000000000002
1698673082574.0,16,-0.1,0.0,-0.1,0.4,9.5,0.4,-1.9,-1.3,-0.9
1698673082591.0,16,-0.1,0.1,0.0,0.4,9.5,0.4,-1.2000000000000002,-1.8,-1.2000000000000002
1698673082607.0,16,0.0,0.0,0.0,0.5,9.5,0.5,0.0,-2.1,-1.8
1698673082626.0,16,0.0,0.0,0.0,0.5,9.4,0.5,0.6000000000000001,-1.9,-1.4
1698673082641.0,16,0.0,0.0,0.0,0.5,9.4,0.5,0.8,-2.1,-1.0
1698673082657.0,16,0.2,-0.1,0.1,0.6000000000000001,9.4,0.6000000000000001,1.2000000000000002,-1.0999999999999999,-1.3
1698673082674.0,16,0.2,-0.1,0.1,0.6000000000000001,9.4,0.6000000000000001,1.2000000000000002,0.1,-1.6
1698673082691.0,16,0.1,-0.1,0.1,0.6000000000000001,9.4,0.5,0.7,1.4,-0.9
1698673082707.0,16,0.1,0.0,0.1,0.5,9.4,0.5,-0.4,1.4,0.8
1698673082724.0,16,0.0,0.0,0.0,0.5,9.4,0.5,-0.9,1.2000000000000002,0.9
1698673082740.0,16,-0.1,0.0,0.1,0.4,9.4,0.5,-1.8,0.8,0.1
1698673082757.0,16,-0.1,0.1,-0.1,0.4,9.5,0.4,-2.7,1.2000000000000002,-0.30000000000000004
1698673082775.0,16,-0.1,0.1,-0.1,0.30000000000000004,9.5,0.4,-3.1,1.0999999999999999,-0.4
1698673082791.0,16,-0.1,0.1,-0.1,0.30000000000000004,9.600000000000001,0.4,-3.3000000000000003,-0.4,-0.2
1698673082808.0,16,-0.1,0.0,-0.1,0.4,9.5,0.4,-2.7,-1.0,-0.9
1698673082824.0,16,0.0,-0.1,-0.1,0.4,9.4,0.4,-1.9,-1.0,-1.0
1698673082841.0,16,-0.1,-0.1,-0.1,0.4,9.4,0.4,-1.7,-1.4,-0.5
1698673082857.0,16,-0.1,0.0,-0.1,0.30000000000000004,9.5,0.4,-1.0999999999999999,-1.7,0.30000000000000004
1698673082874.0,16,-0.1,0.1,-0.1,0.4,9.5,0.4,-0.7,-2.1999999999999997,0.1
1698673082890.0,16,0.0,0.1,-0.1,0.4,9.600000000000001,0.4,-0.5,-2.4000000000000004,-0.2
1698673082907.0,16,0.0,0.2,-0.1,0.4,9.600000000000001,0.4,-0.4,-2.3000000000000003,-0.4
1698673082924.0,16,0.1,0.0,0.0,0.5,9.5,0.5,-0.2,-3.2,-0.30000000000000004
1698673082941.0,16,0.2,-0.1,0.0,0.6000000000000001,9.4,0.5,0.30000000000000004,-2.6,-0.7
1698673082957.0,16,0.2,-0.1,0.1,0.7000000000000001,9.3,0.6000000000000001,1.3,-0.5,-1.5000000000000002
1698673082975.0,16,0.2,-0.1,0.1,0.7000000000000001,9.3,0.6000000000000001,1.5000000000000002,0.30000000000000004,-0.1
1698673082991.0,16,0.1,0.0,0.1,0.6000000000000001,9.4,0.6000000000000001,1.4,0.7,0.9
1698673083007.0,16,0.0,0.1,0.0,0.5,9.5,0.5,0.8,2.0,1.7
1698673083024.0,16,-0.1,0.1,0.0,0.4,9.5,0.5,-0.5,2.0,1.2000000000000002
1698673083041.0,16,-0.1,0.1,0.0,0.4,9.5,0.5,-1.3,1.7,1.0
1698673083058.0,16,-0.1,0.0,0.0,0.30000000000000004,9.5,0.5,-2.7,1.0999999999999999,0.2
1698673083074.0,16,-0.1,0.0,0.0,0.4,9.5,0.5,-3.7000000000000006,0.7,-0.4
1698673083092.0,16,0.0,0.0,0.0,0.4,9.5,0.5,-3.9,0.6000000000000001,-0.7
1698673083107.0,16,0.0,0.0,-0.1,0.5,9.4,0.5,-3.6,0.6000000000000001,-0.5
1698673083124.0,16,0.0,0.0,0.0,0.4,9.4,0.5,-2.4000000000000004,0.1,-0.1
1698673083141.0,16,0.0,0.0,0.0,0.4,9.4,0.5,-1.6,-0.1,0.1
1698673083158.0,16,0.0,0.0,0.0,0.4,9.4,0.6000000000000001,-0.1,-0.1,0.4
1698673083175.0,16,0.0,0.0,0.0,0.5,9.4,0.6000000000000001,1.2000000000000002,-0.2,0.5
1698673083190.0,16,0.0,0.0,0.1,0.5,9.4,0.6000000000000001,1.9,0.2,0.7
1698673083207.0,16,0.0,0.0,0.1,0.5,9.4,0.6000000000000001,2.0,0.30000000000000004,0.7
1698673083224.0,16,0.0,0.0,0.0,0.5,9.5,0.6000000000000001,1.9,0.1,1.0
1698673083241.0,16,0.0,0.0,0.0,0.4,9.5,0.5,0.9,0.4,0.9
1698673083257.0,16,0.0,0.0,0.0,0.4,9.5,0.5,0.0,0.0,0.7
1698673083274.0,16,0.0,0.0,0.0,0.4,9.4,0.5,-1.4,0.4,0.4
1698673083291.0,16,0.0,0.0,0.0,0.5,9.4,0.5,-2.4000000000000004,0.2,0.2
1698673083307.0,16,0.0,0.0,0.0,0.5,9.4,0.5,-2.7,0.30000000000000004,0.2
1698673083323.0,16,0.0,-0.1,-0.1,0.5,9.4,0.5,-2.7,-0.4,0.1
1698673083341.0,16,0.0,-0.1,0.0,0.5,9.4,0.5,-1.3,0.30000000000000004,0.0
1698673083357.0,16,0.1,0.0,0.0,0.5,9.4,0.5,-0.4,0.5,0.0
1698673083374.0,16,0.1,0.0,0.0,0.5,9.4,0.5,1.7,1.0999999999999999,0.5
1698673083390.0,16,0.0,0.0,0.0,0.4,9.4,0.6000000000000001,3.4,1.0999999999999999,1.2000000000000002
1698673083407.0,16,-0.1,0.0,0.0,0.4,9.4,0.5,4.0,0.9,1.3
1698673083424.0,16,-0.1,0.0,0.1,0.4,9.5,0.6000000000000001,4.3999999999999995,0.6000000000000001,1.3
1698673083440.0,16,0.0,0.0,0.0,0.4,9.5,0.5,3.7000000000000006,0.4,0.8
1698673083457.0,16,-0.1,0.0,0.0,0.4,9.5,0.5,3.1,0.30000000000000004,0.7
1698673083475.0,16,0.0,0.0,0.1,0.4,9.5,0.5,2.3000000000000003,-0.1,0.6000000000000001
1698673083490.0,16,0.0,-0.1,0.0,0.5,9.4,0.5,-0.30000000000000004,0.2,0.0
1698673083507.0,16,0.0,0.0,0.0,0.5,9.4,0.5,-1.0999999999999999,-0.1,0.0
1698673083524.0,16,0.0,0.0,0.0,0.5,9.4,0.5,-2.0,0.0,0.0
1698673083540.0,16,0.0,0.0,-0.1,0.5,9.5,0.4,-1.9,0.0,-0.1
1698673083557.0,16,0.0,0.0,0.0,0.5,9.4,0.5,-1.5000000000000002,0.0,-0.1
1698673083574.0,16,0.0,0.0,0.0,0.5,9.4,0.5,-1.0999999999999999,-0.1,0.0
1698673083591.0,16,0.0,0.0,-0.1,0.5,9.4,0.4,0.9,-0.4,0.4
1698673083607.0,16,0.0,0.0,0.0,0.4,9.5,0.5,1.6,-0.5,0.2
1698673083624.0,16,0.0,0.0,0.0,0.5,9.5,0.5,2.9,-0.9,-0.1
1698673083640.0,16,0.0,0.0,0.0,0.5,9.4,0.5,3.6,-0.30000000000000004,0.2
1698673083657.0,16,0.0,0.0,0.0,0.5,9.5,0.5,3.5,-0.4,0.2
1698673083674.0,16,0.0,0.0,0.0,0.5,9.5,0.5,2.8,-0.1,0.2
1698673083690.0,16,0.0,0.0,0.0,0.5,9.4,0.5,2.3000000000000003,-0.2,0.1
1698673083707.0,16,0.0,0.0,0.0,0.5,9.4,0.5,0.30000000000000004,-0.4,-0.1
1698673083724.0,16,0.0,0.0,0.0,0.5,9.4,0.5,-0.1,-0.4,-0.2
1698673083740.0,16,0.0,0.0,0.0,0.5,9.4,0.5,-0.9,0.0,-0.4
1698673083757.0,16,0.0,0.0,0.0,0.5,9.5,0.4,-1.0,0.1,-0.4
1698673083774.0,16,0.0,0.0,0.0,0.5,9.5,0.4,-1.0,0.1,-0.30000000000000004
1698673083790.0,16,0.0,0.0,0.0,0.5,9.5,0.4,-0.4,0.2,-0.2
1698673083807.0,16,0.0,0.0,-0.1,0.5,9.4,0.4,0.0,-0.1,-0.2
1698673083824.0,16,0.0,0.0,0.0,0.5,9.4,0.5,0.6000000000000001,-0.4,-0.1
1698673083840.0,16,0.0,0.0,0.0,0.5,9.4,0.4,1.4,-0.1,-0.2
1698673083857.0,16,0.0,0.0,0.0,0.5,9.4,0.4,1.6,0.0,-0.2
1698673083874.0,16,0.0,0.0,0.0,0.5,9.5,0.5,1.8,-0.1,0.1
1698673083890.0,16,0.0,0.0,0.0,0.5,9.5,0.4,1.6,-0.6000000000000001,0.4
1698673083907.0,16,0.0,0.0,0.0,0.5,9.4,0.5,1.5000000000000002,-0.7,0.1
1698673083924.0,16,0.0,0.0,0.0,0.5,9.5,0.4,0.8,-0.2,-0.2
1698673083941.0,16,0.0,0.0,0.0,0.5,9.5,0.5,-0.2,-0.2,-0.30000000000000004
1698673083957.0,16,0.0,0.0,-0.1,0.5,9.5,0.4,-1.2000000000000002,1.0999999999999999,-0.1
1698673083974.0,16,0.0,0.1,-0.1,0.5,9.5,0.30000000000000004,-2.3000000000000003,0.6000000000000001,-0.2
1698673083990.0,16,0.0,0.30000000000000004,0.0,0.5,9.8,0.5,-4.6000000000000005,0.4,-1.0
1698673084007.0,16,0.0,0.30000000000000004,0.0,0.5,9.8,0.5,-5.0,0.30000000000000004,-1.0999999999999999
1698673084024.0,16,0.0,0.30000000000000004,0.0,0.5,9.8,0.5,-4.800000000000001,0.7,-0.5
1698673084041.0,16,0.0,0.2,0.0,0.5,9.700000000000001,0.5,-4.9,0.9,-0.4
1698673084057.0,16,0.0,0.0,-0.2,0.5,9.5,0.30000000000000004,-7.9,2.5,-0.7
1698673084074.0,16,0.1,0.0,-0.30000000000000004,0.5,9.5,0.30000000000000004,-9.9,2.5,-1.0
1698673084090.0,16,0.0,0.0,-0.30000000000000004,0.5,9.5,0.30000000000000004,-12.4,4.2,-1.3
1698673084107.0,16,0.0,0.1,-0.30000000000000004,0.5,9.600000000000001,0.30000000000000004,-11.5,3.2,-0.5
1698673084124.0,16,0.0,-0.1,-0.2,0.5,9.5,0.30000000000000004,-10.4,2.5,-0.4
1698673084140.0,16,-0.1,-0.1,-0.30000000000000004,0.4,9.4,0.30000000000000004,-6.000000000000001,0.1,0.30000000000000004
1698673084157.0,16,-0.1,-0.2,-0.2,0.4,9.3,0.4,-3.6,-1.0999999999999999,0.7
1698673084174.0,16,-0.1,-0.2,0.0,0.30000000000000004,9.200000000000001,0.6000000000000001,1.7,-1.6,-0.4
1698673084190.0,16,0.0,-0.2,0.1,0.5,9.200000000000001,0.6000000000000001,7.2,-1.2000000000000002,-1.6
1698673084207.0,16,0.1,-0.2,0.2,0.6000000000000001,9.200000000000001,0.8,11.2,-0.6000000000000001,-0.7
1698673084224.0,16,0.1,-0.2,0.30000000000000004,0.5,9.4,0.8,12.8,-0.7,1.5000000000000002
1698673084241.0,16,0.1,0.0,0.4,0.5,9.5,0.9,12.700000000000001,-0.9,2.0
1698673084257.0,16,0.0,0.0,0.5,0.5,9.5,0.9,10.700000000000001,0.1,1.5000000000000002
1698673084274.0,16,0.0,-0.1,0.5,0.4,9.4,0.9,8.600000000000001,0.30000000000000004,1.0
1698673084291.0,16,0.0,-0.1,0.5,0.4,9.4,0.9,2.9,0.2,0.4
1698673084307.0,16,0.0,0.0,0.5,0.5,9.4,0.9,-0.5,0.0,-0.1
1698673084324.0,16,0.0,0.0,0.4,0.5,9.4,0.9,-6.8,0.1,-1.0
1698673084341.0,16,0.0,-0.1,0.2,0.4,9.3,0.8,-11.6,0.0,-1.2000000000000002
1698673084358.0,16,0.0,-0.2,0.2,0.4,9.3,0.7000000000000001,-13.200000000000001,-0.2,-1.4
1698673084375.0,16,0.0,-0.1,0.0,0.4,9.3,0.6000000000000001,-14.3,0.1,-1.6
1698673084391.0,16,0.0,-0.1,0.0,0.5,9.3,0.6000000000000001,-12.9,-0.2,-1.5000000000000002
1698673084407.0,16,0.0,-0.1,-0.1,0.5,9.3,0.5,-9.1,0.1,-1.4
1698673084423.0,16,0.0,0.0,-0.1,0.5,9.4,0.5,-4.300000000000001,-0.7,-0.8
1698673084440.0,16,0.0,0.0,-0.1,0.4,9.4,0.5,-1.5000000000000002,-1.0,-0.5
1698673084457.0,16,0.0,0.0,-0.1,0.4,9.4,0.5,1.3,-1.2000000000000002,-0.4
1698673084474.0,16,0.0,0.0,0.0,0.4,9.4,0.7000000000000001,8.200000000000001,-1.6,-0.1
1698673084490.0,16,0.0,0.0,0.1,0.5,9.4,0.7000000000000001,9.600000000000001,-1.6,0.2
1698673084507.0,16,0.0,0.0,0.1,0.5,9.4,0.7000000000000001,10.5,-1.2000000000000002,0.7
1698673084524.0,16,0.0,0.0,0.2,0.4,9.4,0.7000000000000001,9.1,-0.8,0.6000000000000001
1698673084540.0,16,0.0,0.0,0.2,0.4,9.4,0.7000000000000001,7.400000000000001,-0.6000000000000001,0.5
1698673084557.0,16,0.0,0.0,0.2,0.5,9.5,0.7000000000000001,3.1,-0.5,0.0
1698673084574.0,16,0.0,0.0,0.2,0.5,9.4,0.7000000000000001,0.8,-0.6000000000000001,-0.5
1698673084591.0,16,0.0,0.0,0.1,0.5,9.5,0.7000000000000001,-3.6,-0.2,-0.9
1698673084607.0,16,0.0,0.0,0.1,0.4,9.4,0.6000000000000001,-5.2,-0.1,-1.0
1698673084624.0,16,0.0,0.0,0.0,0.4,9.4,0.6000000000000001,-7.300000000000001,-0.7,-1.0
1698673084640.0,16,0.0,0.0,-0.1,0.4,9.4,0.6000000000000001,-7.2,-0.4,-1.6
1698673084658.0,16,0.0,0.0,-0.1,0.4,9.5,0.6000000000000001,-5.6,-0.5,-1.5000000000000002
1698673084674.0,16,0.0,0.0,-0.1,0.5,9.4,0.5,-4.3999999999999995,-0.6000000000000001,-1.3
1698673084691.0,16,0.0,-0.1,-0.1,0.5,9.4,0.6000000000000001,-1.4,-0.4,-0.7
1698673084707.0,16,0.0,0.0,-0.1,0.5,9.4,0.6000000000000001,1.8,0.2,-0.1
1698673084724.0,16,0.0,0.0,-0.1,0.4,9.4,0.5,4.5,0.30000000000000004,0.4
1698673084741.0,16,0.0,0.0,0.0,0.4,9.4,0.6000000000000001,5.4,0.4,0.6000000000000001
1698673084757.0,16,0.0,0.0,0.0,0.4,9.5,0.6000000000000001,6.8,0.4,0.8
1698673084774.0,16,0.0,0.1,0.0,0.5,9.5,0.6000000000000001,7.0,0.2,0.7
1698673084791.0,16,0.0,0.1,0.1,0.4,9.5,0.6000000000000001,6.9,0.7,0.8
1698673084807.0,16,0.0,0.0,0.0,0.4,9.4,0.6000000000000001,6.1000000000000005,0.4,0.9
1698673084824.0,16,-0.1,0.1,0.1,0.4,9.5,0.6000000000000001,4.5,0.30000000000000004,0.9
1698673084841.0,16,0.0,0.1,0.1,0.4,9.5,0.6000000000000001,2.6,0.7,0.30000000000000004
1698673084857.0,16,0.0,0.0,0.0,0.5,9.5,0.6000000000000001,0.5,0.30000000000000004,0.0
1698673084874.0,16,0.0,0.0,0.0,0.4,9.4,0.6000000000000001,-1.3,0.7,-0.1
1698673084891.0,16,0.0,0.0,0.0,0.5,9.5,0.5,-2.0,0.9,0.1
1698673084907.0,16,0.0,0.0,0.0,0.4,9.5,0.5,-2.0,0.30000000000000004,0.30000000000000004
1698673084924.0,16,-0.1,0.0,-0.1,0.4,9.5,0.5,-1.2000000000000002,-0.4,0.9
1698673084941.0,16,-0.1,0.0,0.0,0.4,9.5,0.5,-0.5,-0.5,0.8
1698673084957.0,16,0.0,0.0,0.0,0.4,9.4,0.5,1.2000000000000002,-0.4,0.4
1698673084974.0,16,0.0,0.0,0.0,0.5,9.4,0.5,2.7,-0.2,0.4
1698673084991.0,16,0.0,0.0,0.0,0.5,9.4,0.5,3.3000000000000003,0.0,0.5
1698673085008.0,16,0.0,0.0,0.0,0.5,9.4,0.5,3.1,0.6000000000000001,0.5
1698673085024.0,16,0.0,0.0,0.0,0.4,9.5,0.5,2.7,0.1,0.8
1698673085041.0,16,0.0,0.1,0.0,0.5,9.5,0.5,2.4000000000000004,0.0,0.9
1698673085058.0,16,0.0,0.1,0.0,0.4,9.5,0.5,1.9,-0.7,0.6000000000000001
1698673085074.0,16,0.0,0.0,0.0,0.5,9.5,0.5,0.8,-0.6000000000000001,0.1
1698673085091.0,16,0.0,0.0,0.0,0.5,9.5,0.5,0.1,-0.4,0.1
1698673085107.0,16,0.0,0.0,0.0,0.5,9.5,0.5,-0.9,0.4,0.2
1698673085124.0,16,0.0,0.0,0.0,0.5,9.5,0.5,-1.4,0.4,0.4
1698673085140.0,16,0.0,0.0,-0.1,0.4,9.4,0.4,-1.4,0.9,0.2
1698673085157.0,16,0.0,0.0,-0.1,0.5,9.5,0.4,-1.0999999999999999,0.4,0.2
1698673085174.0,16,0.0,0.0,-0.1,0.4,9.5,0.5,-0.8,0.1,0.30000000000000004
1698673085190.0,16,0.0,0.0,-0.1,0.4,9.5,0.5,0.2,0.0,0.5
1698673085207.0,16,0.0,0.0,0.0,0.5,9.5,0.5,0.9,-0.2,0.5
1698673085224.0,16,0.0,0.0,0.0,0.5,9.5,0.5,1.4,0.1,0.2
1698673085240.0,16,0.0,0.1,0.0,0.5,9.5,0.5,1.8,0.30000000000000004,0.7
1698673085257.0,16,0.0,0.0,0.0,0.4,9.5,0.5,1.7,0.6000000000000001,0.7
1698673085276.0,16,-0.1,0.0,0.0,0.4,9.5,0.5,1.2000000000000002,0.1,0.5
1698673085291.0,16,0.0,0.0,0.0,0.4,9.5,0.5,0.9,-0.30000000000000004,0.1
1698673085307.0,16,0.0,0.0,0.0,0.5,9.4,0.5,-0.30000000000000004,-0.2,-0.4
1698673085324.0,16,0.0,0.0,0.1,0.5,9.4,0.6000000000000001,-1.6,-0.4,-0.4
1698673085341.0,16,0.0,0.0,0.1,0.5,9.4,0.6000000000000001,-1.9,-0.1,-0.1
1698673085357.0,16,-0.1,0.0,0.0,0.4,9.5,0.5,-2.1,-0.7,0.2
1698673085374.0,16,-0.1,0.1,0.1,0.4,9.600000000000001,0.6000000000000001,-1.2000000000000002,-1.7,0.4
1698673085392.0,16,-0.1,0.1,0.0,0.4,9.5,0.5,-0.5,-1.8,-0.2
1698673085407.0,16,0.0,0.0,0.0,0.4,9.5,0.5,-0.7,-1.6,-0.5
1698673085424.0,16,0.0,0.0,0.0,0.5,9.5,0.5,-1.6,-1.3,-0.4
1698673085440.0,16,0.0,0.1,-0.1,0.5,9.5,0.5,-2.1999999999999997,-1.5000000000000002,0.1
1698673085457.0,16,0.0,0.0,-0.1,0.5,9.5,0.5,-3.0000000000000004,-1.8,0.5
1698673085474.0,16,0.0,0.1,-0.1,0.5,9.600000000000001,0.4,-6.8,-0.4,-1.0
1698673085490.0,16,0.1,0.2,-0.1,0.5,9.700000000000001,0.5,-7.8,-0.7,-1.5000000000000002
1698673085507.0,16,0.0,0.2,-0.1,0.5,9.700000000000001,0.5,-7.6,-0.2,-1.3
1698673085524.0,16,0.1,0.1,-0.2,0.5,9.600000000000001,0.4,-7.400000000000001,-0.6000000000000001,-1.5000000000000002
1698673085541.0,16,0.1,0.0,-0.1,0.5,9.5,0.5,-7.300000000000001,-0.9,-2.1
1698673085557.0,16,0.1,0.0,-0.1,0.6000000000000001,9.5,0.5,-7.1000000000000005,0.0,-2.4000000000000004
1698673085574.0,16,0.2,-0.1,-0.2,0.6000000000000001,9.4,0.5,-7.2,1.0999999999999999,-2.5
1698673085591.0,16,0.2,0.0,-0.2,0.6000000000000001,9.4,0.5,-8.0,1.8,-1.5000000000000002
1698673085607.0,16,0.1,0.1,-0.2,0.6000000000000001,9.600000000000001,0.5,-8.0,2.3000000000000003,-0.2
1698673085625.0,16,0.0,0.2,-0.1,0.4,9.700000000000001,0.6000000000000001,-6.5,2.1999999999999997,0.0
1698673085641.0,16,-0.1,0.2,-0.1,0.4,9.700000000000001,0.6000000000000001,-5.300000000000001,2.0,-0.5
1698673085659.0,16,0.0,0.1,-0.1,0.4,9.600000000000001,0.6000000000000001,-3.6,1.7,-1.5000000000000002
1698673085676.0,16,0.1,0.0,0.0,0.5,9.5,0.7000000000000001,-3.1,3.1,-2.0
1698673085691.0,16,0.1,0.0,0.0,0.5,9.5,0.7000000000000001,-3.1,2.9,-1.7
1698673085708.0,16,0.0,0.0,0.0,0.5,9.5,0.8,-4.2,3.3000000000000003,-0.9
1698673085724.0,16,-0.1,0.0,0.0,0.4,9.5,0.8,-5.7,3.2,-0.2
1698673085741.0,16,-0.1,0.0,0.1,0.4,9.5,0.8,-7.8,3.2,-0.4
1698673085757.0,16,-0.1,0.0,0.0,0.4,9.5,0.8,-8.799999999999999,3.1,-0.9
1698673085775.0,16,-0.1,0.0,0.0,0.30000000000000004,9.600000000000001,0.8,-10.700000000000001,2.3000000000000003,-1.0
1698673085791.0,16,-0.1,0.0,-0.1,0.30000000000000004,9.5,0.8,-11.9,1.8,-1.3
1698673085808.0,16,-0.1,0.1,0.1,0.30000000000000004,9.700000000000001,1.0,-13.8,1.0999999999999999,-2.1
1698673085824.0,16,-0.1,0.2,0.1,0.30000000000000004,9.700000000000001,1.1,-13.5,1.5000000000000002,-2.8
1698673085840.0,16,0.1,0.1,0.0,0.5,9.700000000000001,1.0,-13.700000000000001,2.9,-3.6
1698673085857.0,16,0.1,0.2,0.0,0.5,9.700000000000001,1.0,-14.100000000000001,2.9,-3.6
1698673085878.0,16,0.1,0.1,-0.2,0.5,9.600000000000001,0.9,-16.400000000000002,3.2,-2.7
1698673085890.0,16,0.1,0.5,-0.1,0.5,10.0,1.0,-20.5,2.8,-1.5000000000000002
1698673085908.0,16,0.1,0.6000000000000001,-0.30000000000000004,0.4,10.100000000000001,0.9,-25.6,4.7,-2.1
1698673085925.0,16,0.1,0.6000000000000001,-0.2,0.4,10.100000000000001,0.9,-25.6,4.7,-2.1
1698673085940.0,16,0.1,0.8,-0.2,0.4,10.3,1.1,-31.6,4.800000000000001,-2.9
1698673085957.0,16,0.1,1.0,-0.30000000000000004,0.5,10.5,1.1,-37.0,5.300000000000001,-2.8
1698673085976.0,16,0.2,0.8,-0.6000000000000001,0.5,10.3,0.9,-42.800000000000004,10.0,-4.0
1698673085991.0,16,0.1,0.5,-1.0,0.4,10.0,0.7000000000000001,-54.6,8.600000000000001,-5.2
1698673086007.0,16,0.1,0.7000000000000001,-1.2000000000000002,0.4,10.200000000000001,0.7000000000000001,-67.2,4.800000000000001,-5.300000000000001
1698673086024.0,16,0.2,0.9,-1.4000000000000001,0.5,10.3,0.6000000000000001,-73.10000000000001,3.9,-5.7
1698673086040.0,16,0.30000000000000004,1.1,-1.7000000000000002,0.5,10.5,0.6000000000000001,-85.0,4.0,-7.6
1698673086057.0,16,0.30000000000000004,1.2000000000000002,-1.6,0.5,10.5,0.8,-89.4,4.5,-7.500000000000001
1698673086073.0,16,0.30000000000000004,1.2000000000000002,-1.9000000000000001,0.5,10.5,0.8,-93.80000000000001,5.0,-6.8
1698673086091.0,16,0.30000000000000004,1.1,-2.4000000000000004,0.5,10.3,0.6000000000000001,-100.8,9.8,-5.500000000000001
1698673086107.0,16,0.4,1.3,-2.7,0.6000000000000001,10.4,0.6000000000000001,-107.30000000000001,6.7,-3.1
1698673086124.0,16,0.4,1.6,-1.7000000000000002,0.5,10.600000000000001,1.9000000000000001,-105.2,-3.3000000000000003,-3.4
1698673086141.0,16,0.2,1.9000000000000001,-1.2000000000000002,0.30000000000000004,10.8,2.6,-98.5,-0.5,-2.1999999999999997
1698673086157.0,16,0.1,2.3000000000000003,-0.5,0.2,11.100000000000001,3.4000000000000004,-87.3,3.0000000000000004,0.2
1698673086174.0,16,0.1,3.0,0.7000000000000001,0.30000000000000004,11.700000000000001,4.800000000000001,-58.800000000000004,4.7,5.1
1698673086190.0,16,0.4,2.6,2.2,0.6000000000000001,11.3,6.5,-61.1,13.700000000000001,5.500000000000001
1698673086207.0,16,0.9,0.1,1.5,1.0,8.700000000000001,6.1000000000000005,-105.4,11.5,0.6000000000000001
1698673086224.0,16,0.6000000000000001,-0.4,1.4000000000000001,0.8,8.1,6.2,-115.60000000000001,12.6,-0.6000000000000001
1698673086240.0,16,-0.4,-0.30000000000000004,0.5,-0.2,8.0,5.6000000000000005,-94.0,5.1,6.1000000000000005
1698673086257.0,16,-0.9,-0.1,0.30000000000000004,-1.0,8.1,5.9,-57.5,-2.9,13.4
1698673086274.0,16,-1.4000000000000001,-0.2,0.9,-1.2000000000000002,7.9,6.300000000000001,-38.2,-3.0000000000000004,12.100000000000001
1698673086290.0,16,-0.6000000000000001,-0.8,1.3,-0.4,7.300000000000001,6.7,-12.5,-2.7,2.1
1698673086307.0,16,0.7000000000000001,-0.8,2.1,0.9,7.300000000000001,7.6000000000000005,-13.200000000000001,-3.3000000000000003,-1.7
1698673086324.0,16,1.0,-0.7000000000000001,2.4000000000000004,1.2000000000000002,7.300000000000001,7.800000000000001,-18.5,-2.6,1.5000000000000002
1698673086340.0,16,0.2,-0.2,1.5,0.5,7.800000000000001,7.1000000000000005,-22.4,7.400000000000001,5.0
1698673086357.0,16,0.0,0.1,0.7000000000000001,0.2,8.1,6.300000000000001,-11.3,3.4,5.4
1698673086374.0,16,-0.1,0.4,0.8,0.1,8.4,6.5,-2.5,0.7,5.500000000000001
1698673086390.0,16,-0.2,0.6000000000000001,1.2000000000000002,0.1,8.6,6.800000000000001,13.700000000000001,-6.000000000000001,4.2
1698673086407.0,16,-0.2,0.30000000000000004,1.6,0.1,8.3,7.1000000000000005,18.8,-8.799999999999999,1.5000000000000002
1698673086424.0,16,-0.1,0.0,1.4000000000000001,0.2,8.0,6.9,18.0,-8.5,-0.4
1698673086440.0,16,0.1,-0.4,0.7000000000000001,0.4,7.7,6.2,15.100000000000001,-5.7,-4.9
1698673086457.0,16,0.2,0.0,0.6000000000000001,0.5,8.200000000000001,6.1000000000000005,20.4,-2.6,-7.9
1698673086474.0,16,0.2,0.1,0.5,0.5,8.3,5.9,25.0,-3.0000000000000004,-8.0
1698673086491.0,16,0.2,0.0,0.7000000000000001,0.5,8.200000000000001,6.0,32.6,-7.0,-6.2
1698673086507.0,16,0.1,-0.2,0.6000000000000001,0.30000000000000004,7.7,5.5,35.7,-10.2,-4.6000000000000005
1698673086524.0,16,0.0,-0.9,0.0,0.30000000000000004,7.4,5.1000000000000005,35.7,-10.5,-4.300000000000001
1698673086541.0,16,0.0,-1.2000000000000002,-0.7000000000000001,0.30000000000000004,7.2,4.4,35.199999999999996,-8.5,-5.2
1698673086557.0,16,0.0,-1.1,-0.8,0.30000000000000004,7.4,4.2,36.3,-7.2,-6.2
1698673086574.0,16,0.1,-1.0,-0.7000000000000001,0.30000000000000004,7.5,4.2,42.900000000000006,-5.1,-7.699999999999999
1698673086592.0,16,0.2,-0.8,-0.4,0.4,7.7,4.3,54.0,-5.0,-7.9
1698673086607.0,16,0.2,-1.0,-0.4,0.5,7.6000000000000005,4.1000000000000005,62.8,-6.6000000000000005,-7.0
1698673086624.0,16,0.2,-1.2000000000000002,-0.4,0.4,7.4,4.0,64.60000000000001,-5.7,-6.3
1698673086640.0,16,0.0,-1.8,-0.4,0.30000000000000004,7.0,3.8000000000000003,64.2,-0.6000000000000001,-4.2
1698673086658.0,16,0.0,-1.8,-0.4,0.2,7.0,3.7,62.50000000000001,1.7,-3.3000000000000003
1698673086674.0,16,-0.1,-1.7000000000000002,-0.30000000000000004,0.1,7.1000000000000005,3.6,58.7,4.2,-2.1999999999999997
1698673086691.0,16,-0.1,-1.6,-0.2,0.1,7.4,3.6,53.2,7.2,-0.7
1698673086707.0,16,-0.1,-1.5,0.0,0.1,7.4,3.6,49.2,11.6,-1.3
1698673086725.0,16,-0.2,-1.7000000000000002,0.0,0.0,7.300000000000001,3.5,48.400000000000006,13.3,-2.6
1698673086741.0,16,-0.2,-1.8,-0.1,-0.1,7.2,3.4000000000000004,48.400000000000006,13.3,-2.6
1698673086757.0,16,-0.30000000000000004,-1.9000000000000001,-0.30000000000000004,-0.2,7.2,3.1,46.0,11.5,-0.9
1698673086774.0,16,-0.7000000000000001,-2.1,-0.1,-0.5,7.0,3.0,40.9,7.400000000000001,1.8
1698673086792.0,16,-0.8,-2.3000000000000003,-0.1,-0.7000000000000001,6.800000000000001,2.9000000000000004,39.6,4.9,3.1
1698673086807.0,16,-1.0,-2.6,-0.2,-0.8,6.5,2.8000000000000003,36.5,0.1,4.6000000000000005
1698673086824.0,16,-0.9,-2.7,-0.2,-0.8,6.5,2.7,34.6,-2.4000000000000004,4.1000000000000005
1698673086841.0,16,-0.7000000000000001,-2.7,0.1,-0.5,6.4,2.9000000000000004,31.2,-5.4,0.2
1698673086857.0,16,-0.5,-2.7,0.5,-0.4,6.5,3.2,29.900000000000006,-2.0,-4.1000000000000005
1698673086874.0,16,-0.5,-2.6,0.5,-0.30000000000000004,6.5,3.2,28.6,-3.5,-4.0
1698673086895.0,16,-0.30000000000000004,-2.6,0.6000000000000001,-0.2,6.6000000000000005,3.2,27.2,-3.7000000000000006,-2.9
1698673086908.0,16,0.0,-2.2,0.8,0.1,6.9,3.3000000000000003,22.3,-5.2,-0.7
1698673086924.0,16,-0.1,-1.3,1.2000000000000002,0.0,7.800000000000001,3.7,19.500000000000004,-3.2,1.8
1698673086941.0,16,-0.2,-0.8,1.3,-0.1,8.4,3.7,19.1,-2.1,3.4
1698673086957.0,16,-0.30000000000000004,-0.1,1.4000000000000001,-0.2,9.1,3.8000000000000003,19.200000000000003,-2.6,5.6
1698673086974.0,16,-0.4,0.2,1.4000000000000001,-0.30000000000000004,9.4,3.8000000000000003,18.3,-0.2,5.300000000000001
1698673086993.0,16,-0.4,0.4,1.4000000000000001,-0.30000000000000004,9.600000000000001,3.7,16.700000000000003,2.0,3.9
1698673087007.0,16,-0.2,0.30000000000000004,1.2000000000000002,-0.1,9.5,3.5,11.700000000000001,1.0999999999999999,1.3
1698673087023.0,16,0.0,0.4,1.1,0.1,9.700000000000001,3.4000000000000004,-1.8,1.4,1.3
1698673087041.0,16,0.0,0.5,1.0,0.1,9.700000000000001,3.4000000000000004,-5.9,0.4,2.1999999999999997
1698673087058.0,16,-0.1,0.30000000000000004,1.0,0.0,9.5,3.3000000000000003,-10.8,-2.3000000000000003,4.0
1698673087074.0,16,-0.2,0.2,0.9,0.0,9.4,3.3000000000000003,-12.100000000000001,-2.9,3.4
1698673087090.0,16,-0.2,0.0,1.0,-0.1,9.200000000000001,3.4000000000000004,-14.700000000000001,-6.6000000000000005,-0.7
1698673087107.0,16,-0.2,0.0,1.0,0.0,9.200000000000001,3.5,-15.5,-7.0,-1.2000000000000002
1698673087124.0,16,-0.2,-0.1,1.1,0.0,9.0,3.7,-19.6,-3.6,-2.1
1698673087140.0,16,-0.1,-0.30000000000000004,1.1,0.1,8.8,3.8000000000000003,-24.3,-1.3,-3.2
1698673087157.0,16,0.0,-0.5,1.1,0.2,8.700000000000001,3.8000000000000003,-26.200000000000003,-0.6000000000000001,-3.4
1698673087174.0,16,0.0,-0.4,1.2000000000000002,0.2,8.700000000000001,3.9000000000000004,-28.900000000000002,-1.0999999999999999,-2.5
1698673087191.0,16,0.1,-0.4,1.1,0.2,8.700000000000001,3.9000000000000004,-30.100000000000005,-3.0000000000000004,-1.7
1698673087208.0,16,0.1,-0.7000000000000001,0.9,0.2,8.4,3.8000000000000003,-34.6,-2.0,-0.4
1698673087224.0,16,0.0,-0.9,0.6000000000000001,0.1,8.1,3.7,-39.9,7.0,-0.4
1698673087241.0,16,-0.1,-1.1,0.4,0.1,7.9,3.5,-41.7,8.799999999999999,-0.4
1698673087258.0,16,-0.1,-0.7000000000000001,0.4,0.1,8.0,3.6,-42.300000000000004,9.3,0.30000000000000004
1698673087274.0,16,-0.2,-0.7000000000000001,0.30000000000000004,-0.1,8.200000000000001,3.7,-41.6,8.0,3.2
1698673087291.0,16,-0.4,-0.8,0.0,-0.30000000000000004,8.1,3.5,-42.1,-0.4,5.6
1698673087307.0,16,-0.5,-1.3,-0.1,-0.30000000000000004,7.4,3.5,-47.800000000000004,-9.600000000000001,4.5
1698673087324.0,16,-0.5,-1.6,-0.1,-0.30000000000000004,7.1000000000000005,3.7,-53.9,-9.600000000000001,-2.0
1698673087340.0,16,-0.6000000000000001,-1.6,-0.1,-0.4,7.1000000000000005,3.7,-56.1,-4.9,-6.8
1698673087357.0,16,-0.4,-1.5,-0.30000000000000004,-0.30000000000000004,7.1000000000000005,3.7,-59.80000000000001,2.6,-15.000000000000002
1698673087376.0,16,-0.1,-1.3,-0.5,-0.1,7.2,3.7,-62.7,8.600000000000001,-15.9
1698673087391.0,16,0.1,-1.3,-0.6000000000000001,0.1,7.1000000000000005,3.7,-63.6,10.3,-12.9
1698673087409.0,16,0.5,-1.3,-0.8,0.5,7.0,3.7,-62.8,8.3,-5.500000000000001
1698673087424.0,16,0.7000000000000001,-1.4000000000000001,-0.5,0.7000000000000001,6.800000000000001,4.1000000000000005,-59.80000000000001,3.2,-0.4
1698673087440.0,16,0.6000000000000001,-1.3,-0.6000000000000001,0.5,6.9,4.2,-57.9,2.9,-0.1
1698673087457.0,16,0.0,-1.5,-1.0,-0.1,6.6000000000000005,3.8000000000000003,-58.800000000000004,6.5,-0.9
1698673087474.0,16,-0.5,-1.7000000000000002,-1.3,-0.5,6.2,3.7,-63.0,-2.0,2.8
1698673087490.0,16,-0.6000000000000001,-1.5,-1.3,-0.6000000000000001,6.300000000000001,3.8000000000000003,-63.50000000000001,-11.4,6.000000000000001
1698673087507.0,16,-0.7000000000000001,-0.8,-1.0,-0.7000000000000001,6.9,4.3,-60.00000000000001,-19.200000000000003,10.5
1698673087524.0,16,-0.6000000000000001,-0.30000000000000004,-1.0,-0.5,7.300000000000001,4.4,-55.7,-9.8,5.0
1698673087540.0,16,-0.5,-0.30000000000000004,-0.6000000000000001,-0.4,7.300000000000001,5.0,-53.7,-8.700000000000001,-6.2
1698673087557.0,16,-0.1,-0.4,-0.4,-0.1,7.1000000000000005,5.300000000000001,-52.900000000000006,-12.3,-7.8
1698673087574.0,16,0.4,-0.9,0.1,0.5,6.5,5.800000000000001,-52.1,-16.900000000000002,-5.7
1698673087591.0,16,0.4,-1.1,0.2,0.7000000000000001,6.1000000000000005,6.0,-48.7,-5.2,-1.5000000000000002
1698673087607.0,16,0.8,-1.1,-0.1,0.9,6.1000000000000005,5.800000000000001,-45.800000000000004,0.4,1.3
1698673087624.0,16,0.7000000000000001,-0.2,-0.4,0.8,6.9,5.6000000000000005,-38.6,8.700000000000001,5.9
1698673087640.0,16,0.5,0.5,-0.6000000000000001,0.6000000000000001,7.5,5.5,-33.5,10.8,7.1000000000000005
1698673087657.0,16,0.0,0.5,-0.4,0.2,7.5,5.7,-23.700000000000003,10.4,10.0
1698673087674.0,16,0.0,0.6000000000000001,0.1,0.1,7.5,6.300000000000001,-15.9,-0.2,10.4
1698673087690.0,16,0.0,0.8,0.7000000000000001,0.2,7.7,6.9,-14.200000000000001,-6.2,9.600000000000001
1698673087707.0,16,-0.1,0.9,1.4000000000000001,0.1,7.9,7.6000000000000005,-16.2,-9.700000000000001,5.8
1698673087724.0,16,-0.1,0.7000000000000001,1.3,0.1,7.6000000000000005,7.6000000000000005,-20.8,-5.4,2.3000000000000003
1698673087740.0,16,-0.4,0.30000000000000004,0.7000000000000001,-0.30000000000000004,7.1000000000000005,7.1000000000000005,-28.700000000000003,12.3,-5.2
1698673087757.0,16,-0.30000000000000004,0.5,0.6000000000000001,-0.2,7.300000000000001,7.1000000000000005,-25.700000000000003,12.4,-4.7
1698673087774.0,16,0.2,0.9,0.8,0.4,7.6000000000000005,7.300000000000001,-17.9,6.000000000000001,-2.9
1698673087790.0,16,0.6000000000000001,0.7000000000000001,0.9,0.7000000000000001,7.5,7.4,-16.2,2.9,-3.0000000000000004
1698673087807.0,16,0.6000000000000001,0.30000000000000004,1.0,0.7000000000000001,7.0,7.6000000000000005,-19.1,3.1,-3.0000000000000004
1698673087824.0,16,0.1,0.30000000000000004,0.9,0.2,6.9,7.5,-23.0,3.2,-1.9
1698673087841.0,16,-0.5,0.1,0.8,-0.5,6.7,7.5,-20.900000000000002,6.4,-1.5000000000000002
1698673087858.0,16,-0.6000000000000001,-0.1,0.7000000000000001,-0.5,6.5,7.4,-16.700000000000003,8.200000000000001,-1.6
1698673087875.0,16,-0.4,-0.4,0.5,-0.4,6.2,7.2,-8.600000000000001,9.4,-3.0000000000000004
1698673087891.0,16,-0.2,-0.30000000000000004,0.5,-0.1,6.2,7.2,-5.300000000000001,7.1000000000000005,-4.0
1698673087908.0,16,0.4,-0.1,0.6000000000000001,0.30000000000000004,6.5,7.4,-1.6,1.0,-4.2
1698673087923.0,16,0.1,0.0,0.7000000000000001,0.1,6.6000000000000005,7.4,0.8,2.3000000000000003,-3.3000000000000003
1698673087940.0,16,-0.2,-0.1,0.7000000000000001,-0.2,6.5,7.5,5.0,3.7000000000000006,-2.7
1698673087957.0,16,-0.30000000000000004,-0.2,0.9,-0.30000000000000004,6.4,7.6000000000000005,9.3,5.2,-2.9
1698673087974.0,16,-0.1,-0.30000000000000004,0.7000000000000001,-0.30000000000000004,6.300000000000001,7.5,14.200000000000001,7.2,-3.1
1698673087990.0,16,0.0,-0.30000000000000004,0.6000000000000001,-0.1,6.300000000000001,7.300000000000001,21.0,7.9,-3.4
1698673088007.0,16,0.2,-0.30000000000000004,0.6000000000000001,0.2,6.4,7.300000000000001,25.700000000000003,1.5000000000000002,-2.1
1698673088023.0,16,0.0,0.30000000000000004,0.9,-0.1,7.0,7.5,31.900000000000002,-4.0,1.3
1698673088040.0,16,-0.1,1.1,1.3,-0.2,7.5,7.800000000000001,36.5,-4.300000000000001,2.9
1698673088057.0,16,0.30000000000000004,1.7000000000000002,1.3,0.30000000000000004,8.700000000000001,7.7,49.1,-0.8,1.8
1698673088074.0,16,0.6000000000000001,1.8,1.3,0.5,8.9,7.6000000000000005,51.5,-2.7,0.7
1698673088090.0,16,0.8,1.9000000000000001,1.2000000000000002,0.7000000000000001,9.0,7.4,57.1,-3.3000000000000003,1.4
1698673088107.0,16,0.7000000000000001,1.7000000000000002,1.1,0.6000000000000001,9.0,7.2,60.900000000000006,-0.7,2.7
1698673088124.0,16,0.5,1.4000000000000001,0.9,0.5,8.8,6.800000000000001,69.10000000000001,2.5,5.4
1698673088141.0,16,0.30000000000000004,1.1,0.5,0.30000000000000004,8.700000000000001,6.300000000000001,71.6,2.5,6.8
1698673088157.0,16,0.30000000000000004,1.3,0.6000000000000001,0.30000000000000004,9.0,6.2,71.5,-3.0000000000000004,7.400000000000001
1698673088174.0,16,0.2,1.2000000000000002,0.4,0.2,9.0,5.9,72.2,-8.4,7.500000000000001
1698673088191.0,16,-0.1,1.0,0.1,-0.1,8.4,5.300000000000001,70.10000000000001,-6.1000000000000005,7.500000000000001
1698673088207.0,16,-0.2,0.1,-0.1,-0.1,8.1,5.1000000000000005,68.3,-6.3,8.9
1698673088224.0,16,0.1,-0.2,-0.4,0.2,7.9,4.6000000000000005,69.00000000000001,-6.2,4.6000000000000005
1698673088241.0,16,0.30000000000000004,-0.5,-0.4,0.4,7.7,4.4,71.10000000000001,-2.1,-4.0
1698673088257.0,16,0.2,-0.5,-0.5,0.4,7.800000000000001,4.2,72.0,0.6000000000000001,-5.7
1698673088274.0,16,0.2,-0.30000000000000004,-0.5,0.30000000000000004,8.0,4.1000000000000005,71.7,-0.2,-4.300000000000001
1698673088291.0,16,-0.2,-0.2,-0.4,0.0,8.3,3.9000000000000004,70.8,-4.1000000000000005,2.8
1698673088307.0,16,-0.4,-0.30000000000000004,-0.30000000000000004,-0.30000000000000004,8.3,3.9000000000000004,71.2,-4.800000000000001,5.7
1698673088324.0,16,-0.30000000000000004,-0.4,-0.1,-0.1,8.3,3.9000000000000004,73.7,-7.300000000000001,6.5
1698673088340.0,16,-0.2,-0.4,0.1,-0.1,8.3,3.8000000000000003,75.4,-4.6000000000000005,0.4
1698673088357.0,16,-0.1,-0.2,0.1,0.1,8.700000000000001,3.6,74.7,-5.0,-0.5
1698673088374.0,16,-0.1,-0.1,0.1,0.1,8.8,3.5,72.10000000000001,-2.9,2.1
1698673088391.0,16,-0.2,0.0,0.0,0.0,9.0,3.2,71.2,-5.500000000000001,3.8
1698673088407.0,16,-0.30000000000000004,0.0,0.0,-0.2,8.700000000000001,2.9000000000000004,70.9,-7.8,5.8
1698673088424.0,16,-0.30000000000000004,-0.4,-0.1,-0.1,8.700000000000001,2.8000000000000003,69.80000000000001,-6.5,9.600000000000001
1698673088440.0,16,-0.30000000000000004,0.0,-0.1,0.0,9.1,2.5,68.0,-8.9,8.9
1698673088457.0,16,-0.1,0.2,-0.2,0.2,9.4,2.3000000000000003,65.2,-5.7,7.1000000000000005
1698673088474.0,16,0.0,0.6000000000000001,-0.4,0.30000000000000004,9.9,1.9000000000000001,56.800000000000004,-3.6,1.2000000000000002
1698673088490.0,16,-0.2,0.9,-0.5,0.1,10.100000000000001,1.7000000000000002,43.400000000000006,0.30000000000000004,1.0
1698673088507.0,16,-0.30000000000000004,1.1,-0.30000000000000004,0.0,10.4,1.8,31.3,-1.7,3.6
1698673088524.0,16,-0.2,1.4000000000000001,-0.30000000000000004,0.1,10.700000000000001,1.7000000000000002,26.9,-0.5,4.2
1698673088540.0,16,-0.1,1.8,-0.5,0.30000000000000004,11.200000000000001,1.4000000000000001,20.2,-3.0000000000000004,3.1
1698673088558.0,16,0.1,1.7000000000000002,-0.8,0.5,11.100000000000001,1.1,13.0,-6.3,2.3000000000000003
1698673088573.0,16,0.2,1.5,-1.0,0.5,10.9,0.9,8.600000000000001,-7.400000000000001,1.7
1698673088590.0,16,0.2,0.7000000000000001,-1.2000000000000002,0.5,10.100000000000001,0.7000000000000001,-1.0,-10.9,-0.1
1698673088607.0,16,0.2,0.2,-1.5,0.6000000000000001,9.600000000000001,0.4,-8.700000000000001,-9.8,-0.2
1698673088623.0,16,0.30000000000000004,0.1,-1.4000000000000001,0.7000000000000001,9.5,0.4,-12.100000000000001,-9.600000000000001,-0.1
1698673088641.0,16,0.5,0.2,-1.5,0.8,9.600000000000001,0.4,-14.4,-8.4,1.0999999999999999
1698673088657.0,16,0.5,0.4,-1.6,0.9,9.8,0.30000000000000004,-13.3,-8.200000000000001,2.9
1698673088674.0,16,0.5,0.5,-1.5,0.9,9.9,0.4,-11.2,-9.3,3.1
1698673088690.0,16,0.4,0.8,-1.4000000000000001,0.9,10.200000000000001,0.6000000000000001,-3.8,-6.2,3.2
1698673088707.0,16,0.5,0.7000000000000001,-1.1,1.0,10.100000000000001,0.8,7.0,-1.0999999999999999,1.2000000000000002
1698673088723.0,16,0.6000000000000001,0.8,-1.1,1.1,10.100000000000001,0.8,12.700000000000001,1.2000000000000002,1.6
1698673088740.0,16,0.6000000000000001,0.9,-1.0,1.1,10.3,0.8,19.700000000000003,5.7,5.4
1698673088757.0,16,0.5,1.0,-1.0,1.0,10.4,0.8,21.5,7.500000000000001,7.9
1698673088774.0,16,0.30000000000000004,1.2000000000000002,-0.6000000000000001,0.8,10.700000000000001,1.1,21.900000000000002,5.8,9.3
1698673088790.0,16,0.2,1.3,-0.4,0.8,10.700000000000001,1.2000000000000002,17.599999999999998,12.5,6.7
1698673088807.0,16,0.30000000000000004,1.1,-0.6000000000000001,0.8,10.600000000000001,1.1,4.6000000000000005,16.1,3.2
1698673088827.0,16,0.4,0.9,-0.6000000000000001,0.9,10.4,1.0,-20.5,18.7,1.6
1698673088840.0,16,0.30000000000000004,1.1,-0.6000000000000001,0.8,10.600000000000001,1.2000000000000002,-35.0,15.9,1.8
1698673088858.0,16,0.2,1.2000000000000002,-0.9,0.7000000000000001,10.600000000000001,1.1,-48.9,14.200000000000001,2.3000000000000003
1698673088874.0,16,-0.1,1.0,-1.4000000000000001,0.5,10.4,0.8,-87.9,14.700000000000001,0.4
1698673088891.0,16,-0.1,1.0,-1.4000000000000001,0.5,10.4,0.8,-87.9,14.700000000000001,0.4
1698673088907.0,16,0.1,1.2000000000000002,-2.5,0.6000000000000001,10.4,0.1,-116.80000000000001,15.100000000000001,-6.6000000000000005
1698673088924.0,16,0.1,1.3,-2.0,0.6000000000000001,10.600000000000001,0.9,-124.2,14.800000000000002,-9.3
1698673088941.0,16,-0.1,1.6,-2.6,0.4,10.600000000000001,1.0,-124.50000000000001,16.8,-10.3
1698673088957.0,16,0.1,1.6,-2.8000000000000003,0.5,10.600000000000001,0.8,-119.1,14.500000000000002,-7.6
1698673088975.0,16,0.1,1.6,-2.5,0.4,10.5,1.2000000000000002,-113.9,7.8,-8.5
1698673088990.0,16,0.2,1.9000000000000001,-1.2000000000000002,0.6000000000000001,10.700000000000001,2.8000000000000003,-93.0,3.3000000000000003,-8.799999999999999
1698673089007.0,16,0.6000000000000001,2.4000000000000004,-0.6000000000000001,1.1,11.3,3.9000000000000004,-53.7,14.100000000000001,-12.000000000000002
1698673089023.0,16,0.6000000000000001,2.2,1.2000000000000002,0.8,10.9,5.5,-22.000000000000004,12.8,-9.3
1698673089040.0,16,0.6000000000000001,2.0,2.3000000000000003,0.9,10.600000000000001,6.7,-28.8,4.0,-3.4
1698673089057.0,16,0.5,0.4,2.1,0.7000000000000001,9.0,6.7,-90.10000000000001,-3.0000000000000004,2.0
1698673089074.0,16,-0.1,-0.9,1.0,0.5,8.0,6.1000000000000005,-113.7,19.400000000000002,0.1
1698673089090.0,16,-0.30000000000000004,-0.9,0.6000000000000001,-0.2,7.4,5.800000000000001,-100.8,22.000000000000004,0.6000000000000001
1698673089107.0,16,-0.6000000000000001,-0.30000000000000004,0.2,-0.4,7.9,5.5,-56.400000000000006,0.8,3.5
1698673089124.0,16,-0.2,0.0,1.2000000000000002,0.0,8.1,6.6000000000000005,-19.9,2.0,2.8
1698673089141.0,16,0.2,-0.1,1.7000000000000002,0.4,8.0,7.1000000000000005,-9.8,-4.3999999999999995,2.5
1698673089158.0,16,0.5,-0.4,2.5,0.7000000000000001,7.7,7.9,-14.3,-9.9,4.6000000000000005
1698673089174.0,16,0.30000000000000004,-0.4,2.0,0.5,7.7,7.6000000000000005,-24.1,-0.7,5.9
1698673089190.0,16,-0.1,-0.6000000000000001,1.4000000000000001,0.1,7.4,7.0,-32.1,17.599999999999998,3.1
1698673089207.0,16,-0.2,0.30000000000000004,0.8,0.0,8.200000000000001,6.5,-13.3,2.3000000000000003,-1.2000000000000002
1698673089224.0,16,-0.2,0.4,1.0,0.1,8.4,6.9,3.7000000000000006,-6.8,-0.7
1698673089241.0,16,0.0,0.5,1.5,0.2,8.4,7.1000000000000005,7.500000000000001,-10.3,-0.5
1698673089257.0,16,0.0,0.4,1.6,0.2,8.4,7.300000000000001,8.0,-11.700000000000001,-1.2000000000000002
1698673089274.0,16,0.0,0.1,1.5,0.2,8.1,7.2,4.0,-8.200000000000001,-2.7
1698673089291.0,16,0.0,0.0,1.3,0.2,7.9,7.0,3.0000000000000004,-3.6,-5.1
1698673089307.0,16,0.1,-0.1,0.9,0.30000000000000004,7.800000000000001,6.6000000000000005,7.500000000000001,-3.6,-7.9
1698673089324.0,16,0.1,-0.30000000000000004,0.6000000000000001,0.30000000000000004,7.5,6.0,12.000000000000002,-1.7,-8.4
1698673089340.0,16,0.1,-0.6000000000000001,0.2,0.30000000000000004,7.5,5.800000000000001,13.9,-1.5000000000000002,-7.8
1698673089357.0,16,0.1,-0.6000000000000001,0.2,0.30000000000000004,7.5,5.800000000000001,17.9,-4.6000000000000005,-7.1000000000000005
1698673089373.0,16,0.2,-0.6000000000000001,0.2,0.30000000000000004,7.5,5.800000000000001,21.1,-6.2,-7.500000000000001
1698673089390.0,16,0.1,-0.6000000000000001,0.1,0.2,7.5,5.5,29.1,-4.1000000000000005,-8.4
1698673089408.0,16,0.1,-0.6000000000000001,0.1,0.2,7.5,5.5,29.1,-4.1000000000000005,-8.4
1698673089424.0,16,0.0,-0.9,-0.2,0.2,7.300000000000001,5.1000000000000005,30.799999999999997,-1.0,-8.0
1698673089440.0,16,0.0,-1.3,-0.7000000000000001,0.1,6.9,4.6000000000000005,32.5,0.4,-7.699999999999999
1698673089457.0,16,0.0,-1.4000000000000001,-1.0,0.1,6.9,4.2,33.6,1.3,-7.400000000000001
1698673089474.0,16,-0.2,-1.2000000000000002,-0.6000000000000001,-0.1,7.2,4.4,37.900000000000006,0.7,-5.9
1698673089490.0,16,-0.30000000000000004,-1.1,-0.5,-0.2,7.300000000000001,4.4,42.0,-0.4,-4.1000000000000005
1698673089507.0,16,-0.2,-1.1,-0.6000000000000001,-0.2,7.300000000000001,4.4,45.9,-1.0,-2.0
1698673089524.0,16,-0.2,-1.1,-0.6000000000000001,-0.1,7.4,4.1000000000000005,51.300000000000004,-1.2000000000000002,-0.2
1698673089541.0,16,-0.1,-1.1,-0.5,-0.1,7.4,4.1000000000000005,53.50000000000001,0.4,-1.2000000000000002
1698673089557.0,16,-0.1,-1.0,-0.30000000000000004,-0.1,7.6000000000000005,4.1000000000000005,53.2,4.800000000000001,-2.4000000000000004
1698673089573.0,16,-0.1,-1.0,-0.30000000000000004,-0.1,7.7,4.0,52.50000000000001,6.6000000000000005,-2.7
1698673089590.0,16,-0.30000000000000004,-1.1,-0.5,-0.2,7.6000000000000005,3.7,49.2,7.8,-3.1
1698673089608.0,16,-0.5,-1.5,-0.5,-0.5,7.300000000000001,3.5,43.800000000000004,5.8,-2.1999999999999997
1698673089624.0,16,-0.5,-1.6,-0.6000000000000001,-0.6000000000000001,7.2,3.4000000000000004,41.5,4.9,-1.6
1698673089641.0,16,-0.8,-2.2,-0.8,-0.7000000000000001,6.9,3.2,37.900000000000006,2.3000000000000003,-0.9
1698673089657.0,16,-0.7000000000000001,-2.3000000000000003,-0.9,-0.8,6.6000000000000005,2.9000000000000004,33.800000000000004,-0.4,0.4
1698673089673.0,16,-0.8,-2.6,-0.7000000000000001,-0.8,6.300000000000001,2.9000000000000004,30.100000000000005,-3.1,-0.30000000000000004
1698673089690.0,16,-0.8,-2.8000000000000003,-0.7000000000000001,-0.9,6.1000000000000005,2.9000000000000004,29.600000000000005,-4.3999999999999995,-0.7
1698673089707.0,16,-0.8,-3.3000000000000003,-0.7000000000000001,-0.8,5.6000000000000005,2.8000000000000003,29.800000000000004,-7.400000000000001,-1.0999999999999999
1698673089724.0,16,-0.7000000000000001,-3.5,-0.6000000000000001,-0.8,5.5,2.8000000000000003,30.200000000000003,-9.600000000000001,-1.7
1698673089740.0,16,-0.6000000000000001,-3.6,-0.5,-0.6000000000000001,5.300000000000001,2.9000000000000004,31.4,-13.200000000000001,-3.2
1698673089757.0,16,-0.4,-3.2,0.0,-0.5,5.7,3.2,33.2,-13.100000000000001,-3.9
1698673089774.0,16,-0.1,-2.4000000000000004,0.6000000000000001,-0.2,6.5,3.8000000000000003,37.900000000000006,-14.3,-2.3000000000000003
1698673089791.0,16,0.1,-1.9000000000000001,0.9,0.1,7.7,4.3,40.2,-14.500000000000002,-0.9
1698673089807.0,16,0.30000000000000004,-0.7000000000000001,1.4000000000000001,0.30000000000000004,8.3,4.4,43.0,-11.9,2.9
1698673089824.0,16,0.30000000000000004,0.1,1.7000000000000002,0.30000000000000004,9.1,4.6000000000000005,41.1,-8.4,8.200000000000001
1698673089841.0,16,0.1,0.30000000000000004,1.7000000000000002,0.2,9.3,4.5,37.900000000000006,-5.8,10.3
1698673089858.0,16,0.2,1.1,1.5,0.30000000000000004,10.200000000000001,4.2,26.200000000000003,1.8,10.9
1698673089874.0,16,0.30000000000000004,1.4000000000000001,1.3,0.4,10.5,4.0,14.500000000000002,1.0,5.4
1698673089890.0,16,0.1,1.1,1.3,0.2,10.3,3.9000000000000004,9.4,-2.3000000000000003,3.5
1698673089907.0,16,-0.30000000000000004,0.5,1.0,-0.2,9.700000000000001,3.6,0.1,-0.5,5.7
1698673089924.0,16,-0.4,0.30000000000000004,0.8,-0.30000000000000004,9.4,3.5,-3.6,-0.1,5.6
1698673089940.0,16,-0.4,-0.1,0.6000000000000001,-0.30000000000000004,9.0,3.3000000000000003,-8.600000000000001,-2.6,1.2000000000000002
1698673089957.0,16,-0.2,-0.30000000000000004,0.6000000000000001,-0.1,8.8,3.3000000000000003,-10.9,-1.8,-2.9
1698673089973.0,16,-0.1,-0.2,0.6000000000000001,0.0,8.9,3.4000000000000004,-10.2,0.0,-2.9
1698673089990.0,16,-0.1,-0.1,0.6000000000000001,0.0,9.0,3.4000000000000004,-9.4,-1.0999999999999999,-2.1
1698673090007.0,16,-0.1,0.2,0.7000000000000001,0.0,9.3,3.5,-8.600000000000001,-3.2,-2.4000000000000004
1698673090024.0,16,-0.1,0.1,0.7000000000000001,0.0,9.200000000000001,3.6,-10.4,-2.1999999999999997,-3.4
1698673090040.0,16,-0.1,0.0,0.7000000000000001,0.0,9.1,3.6,-12.100000000000001,-1.3,-3.5
1698673090057.0,16,0.0,0.1,0.6000000000000001,0.1,9.200000000000001,3.5,-16.5,0.6000000000000001,-2.6
1698673090075.0,16,0.1,0.0,0.5,0.1,9.1,3.5,-20.3,1.3,-0.1
1698673090090.0,16,-0.1,-0.2,0.5,0.0,8.8,3.5,-21.3,3.0000000000000004,1.9
1698673090107.0,16,-0.1,-0.30000000000000004,0.4,0.0,8.700000000000001,3.5,-21.200000000000003,2.4000000000000004,2.3000000000000003
1698673090124.0,16,-0.2,-0.4,0.5,-0.1,8.6,3.7,-21.3,0.7,2.6
1698673090140.0,16,-0.2,-0.4,0.6000000000000001,-0.1,8.6,3.9000000000000004,-22.2,-1.6,3.1
1698673090158.0,16,-0.30000000000000004,-0.5,0.7000000000000001,-0.2,8.5,4.0,-23.400000000000002,-3.8,3.4
1698673090174.0,16,-0.4,-0.7000000000000001,0.6000000000000001,-0.2,8.200000000000001,4.0,-29.000000000000004,-7.9,3.8
1698673090191.0,16,-0.5,-1.2000000000000002,0.2,-0.4,7.6000000000000005,3.7,-38.6,-7.9,2.4000000000000004
1698673090207.0,16,-0.6000000000000001,-1.4000000000000001,-0.1,-0.4,7.5,3.5,-43.300000000000004,-7.2,1.4
1698673090224.0,16,-0.6000000000000001,-1.0,-0.1,-0.5,7.7,3.6,-50.2,-8.200000000000001,-1.6
1698673090240.0,16,-0.4,-0.4,-0.1,-0.30000000000000004,8.3,3.8000000000000003,-50.6,-13.0,-5.500000000000001
1698673090257.0,16,-0.2,-0.5,-0.1,-0.1,8.200000000000001,3.8000000000000003,-50.1,-14.3,-7.2
1698673090274.0,16,-0.1,-1.3,-0.30000000000000004,0.1,7.300000000000001,3.7,-52.2,-11.000000000000002,-10.700000000000001
1698673090290.0,16,0.0,-1.7000000000000002,-0.4,0.1,6.800000000000001,3.8000000000000003,-53.400000000000006,-6.2,-12.3
1698673090307.0,16,0.2,-2.4000000000000004,-0.6000000000000001,0.30000000000000004,6.1000000000000005,3.7,-53.8,4.800000000000001,-13.4
1698673090324.0,16,0.8,-1.6,-0.7000000000000001,0.8,6.7,3.8000000000000003,-51.6,7.9,-9.1
1698673090340.0,16,1.2000000000000002,-0.1,-0.4,1.3,8.200000000000001,4.2,-49.7,7.400000000000001,0.30000000000000004
1698673090357.0,16,1.1,0.30000000000000004,-0.30000000000000004,1.1,8.5,4.4,-48.400000000000006,6.8,4.5
1698673090375.0,16,0.4,-0.4,-0.5,0.4,7.7,4.3,-45.9,10.0,5.1
1698673090395.0,16,0.1,-1.0,-1.0,0.2,7.1000000000000005,3.9000000000000004,-46.900000000000006,1.6,3.4
1698673090407.0,16,0.0,-1.3,-0.9,0.1,6.800000000000001,4.1000000000000005,-49.5,1.3,4.5
1698673090424.0,16,-0.1,-1.3,-1.0,0.0,6.800000000000001,4.1000000000000005,-53.300000000000004,2.1,5.9
1698673090441.0,16,0.0,-1.1,-1.1,0.0,6.800000000000001,4.1000000000000005,-53.300000000000004,2.1,5.9
1698673090457.0,16,-0.1,-1.1,-1.1,0.0,6.7,4.3,-55.900000000000006,3.9,2.3000000000000003
1698673090474.0,16,-0.2,-1.2000000000000002,-0.5,-0.2,6.5,5.0,-51.6,-0.1,-1.8
1698673090490.0,16,-0.1,-0.7000000000000001,-0.30000000000000004,0.0,6.800000000000001,5.300000000000001,-43.6,-1.3,-3.5
1698673090507.0,16,0.30000000000000004,-0.2,-0.5,0.4,7.2,5.2,-43.400000000000006,8.0,1.0
1698673090524.0,16,0.4,-0.1,-0.8,0.5,7.300000000000001,4.9,-45.800000000000004,13.700000000000001,3.7000000000000006
1698673090540.0,16,0.5,-0.2,-0.9,0.5,7.1000000000000005,4.9,-50.5,16.900000000000002,5.0
1698673090557.0,16,0.1,-0.6000000000000001,-0.4,0.1,6.6000000000000005,5.6000000000000005,-46.2,7.6,4.300000000000001
1698673090575.0,16,-0.1,-0.6000000000000001,-0.30000000000000004,-0.1,6.5,5.7,-40.9,-1.0999999999999999,4.9
1698673090590.0,16,-0.30000000000000004,-0.5,-0.1,-0.2,6.6000000000000005,6.0,-37.4,-5.7,5.7
1698673090608.0,16,-0.4,-0.30000000000000004,0.1,-0.4,6.7,6.300000000000001,-32.6,4.6000000000000005,6.4
1698673090623.0,16,0.1,-0.30000000000000004,-0.7000000000000001,0.2,6.7,5.5,-32.1,17.7,1.7
1698673090640.0,16,0.4,-0.1,-0.6000000000000001,0.4,6.800000000000001,5.800000000000001,-29.000000000000004,16.900000000000002,-3.3000000000000003
1698673090657.0,16,0.1,0.2,-0.2,0.0,7.0,6.1000000000000005,-17.8,10.5,-0.30000000000000004
1698673090674.0,16,-0.1,0.2,0.0,-0.30000000000000004,7.0,6.5,-13.0,4.0,3.2
1698673090690.0,16,-0.4,0.4,0.4,-0.5,7.2,6.800000000000001,-11.000000000000002,-7.300000000000001,8.600000000000001
1698673090707.0,16,-0.4,0.7000000000000001,1.0,-0.4,7.5,7.4,-14.200000000000001,-6.2,7.6
1698673090724.0,16,-0.4,0.6000000000000001,0.9,-0.4,7.300000000000001,7.300000000000001,-16.3,1.4,4.300000000000001
1698673090740.0,16,-0.2,0.30000000000000004,0.6000000000000001,-0.2,7.0,7.1000000000000005,-17.599999999999998,9.5,-2.3000000000000003
1698673090757.0,16,0.1,0.2,0.6000000000000001,0.1,6.9,7.2,-15.9,7.500000000000001,-3.2
1698673090774.0,16,0.5,0.2,0.9,0.5,6.9,7.4,-10.2,-3.1,-0.6000000000000001
1698673090790.0,16,0.30000000000000004,0.30000000000000004,0.8,0.30000000000000004,7.0,7.4,-6.9,-10.8,6.1000000000000005
1698673090807.0,16,0.1,0.5,0.8,0.1,7.2,7.4,-7.1000000000000005,-12.200000000000001,8.9
1698673090824.0,16,-0.5,0.8,1.1,-0.4,7.4,7.7,-3.9,-9.9,9.600000000000001
1698673090840.0,16,-0.30000000000000004,0.2,1.1,-0.30000000000000004,6.9,7.7,2.7,3.2,4.6000000000000005
1698673090857.0,16,0.1,-0.2,0.9,0.1,6.5,7.6000000000000005,9.8,6.7,-1.8
1698673090874.0,16,0.9,-0.6000000000000001,0.7000000000000001,1.0,6.1000000000000005,7.300000000000001,13.100000000000001,1.0999999999999999,-2.9
1698673090891.0,16,1.0,-0.5,0.7000000000000001,1.0,6.2,7.300000000000001,18.3,-3.9,2.4000000000000004
1698673090907.0,16,0.0,0.30000000000000004,0.6000000000000001,0.1,7.1000000000000005,7.1000000000000005,25.0,-1.4,9.600000000000001
1698673090924.0,16,-0.4,0.4,0.5,-0.30000000000000004,7.300000000000001,7.0,28.6,-1.3,8.799999999999999
1698673090940.0,16,-0.4,-0.1,0.5,-0.30000000000000004,6.800000000000001,6.9,36.0,-1.0999999999999999,4.300000000000001
1698673090957.0,16,0.1,-0.6000000000000001,0.7000000000000001,0.2,6.4,7.0,43.50000000000001,-1.8,-2.1999999999999997
1698673090974.0,16,0.30000000000000004,-0.5,0.9,0.4,6.6000000000000005,7.1000000000000005,48.1,-2.1,-2.8
1698673090990.0,16,0.4,-0.1,0.9,0.5,7.0,7.1000000000000005,52.800000000000004,-1.0999999999999999,-1.3
1698673091007.0,16,0.2,1.2000000000000002,1.0,0.30000000000000004,8.4,7.0,60.1,2.1,1.6
1698673091024.0,16,0.2,1.4000000000000001,0.9,0.30000000000000004,8.8,6.800000000000001,65.10000000000001,3.2,2.0
1698673091041.0,16,0.2,1.4000000000000001,0.9,0.30000000000000004,8.8,6.7,67.3,3.8,2.0
1698673091057.0,16,-0.1,1.0,0.5,0.0,8.6,6.1000000000000005,74.7,5.4,1.7
1698673091075.0,16,-0.1,1.5,1.0,0.0,9.3,6.300000000000001,89.10000000000001,-0.2,-1.2000000000000002
1698673091091.0,16,0.0,1.9000000000000001,1.2000000000000002,0.1,9.8,6.4,92.7,-4.6000000000000005,-3.9
1698673091107.0,16,0.1,2.5,1.3,0.30000000000000004,10.600000000000001,6.2,90.2,-6.2,-6.6000000000000005
1698673091124.0,16,0.30000000000000004,2.6,0.6000000000000001,0.4,10.9,5.300000000000001,79.5,0.7,-3.0000000000000004
1698673091141.0,16,0.30000000000000004,2.1,0.6000000000000001,0.4,10.5,5.2,75.2,2.0,-1.5000000000000002
1698673091157.0,16,0.30000000000000004,0.9,0.0,0.4,9.4,4.4,73.10000000000001,2.8,3.1
1698673091175.0,16,0.2,0.2,-0.1,0.30000000000000004,8.3,4.0,75.80000000000001,0.30000000000000004,4.800000000000001
1698673091190.0,16,0.1,-0.7000000000000001,-0.30000000000000004,0.2,7.9,3.8000000000000003,78.60000000000001,-3.5,4.6000000000000005
1698673091207.0,16,0.0,-1.0,-0.5,0.1,7.6000000000000005,3.1,80.5,-5.1,3.9
1698673091224.0,16,-0.2,-1.2000000000000002,-0.7000000000000001,0.0,7.6000000000000005,3.0,77.80000000000001,-0.2,3.0000000000000004
1698673091240.0,16,-0.30000000000000004,-0.6000000000000001,-0.6000000000000001,-0.1,8.200000000000001,2.9000000000000004,73.9,2.3000000000000003,5.9
1698673091257.0,16,0.2,0.30000000000000004,-0.8,0.4,9.3,2.4000000000000004,68.4,2.3000000000000003,8.9
1698673091273.0,16,0.5,0.6000000000000001,-0.6000000000000001,0.7000000000000001,9.5,2.5,64.60000000000001,2.9,8.0
1698673091290.0,16,0.0,0.6000000000000001,-0.6000000000000001,0.2,9.600000000000001,2.4000000000000004,60.5,3.9,3.9
1698673091307.0,16,-0.5,0.6000000000000001,-0.5,-0.30000000000000004,9.700000000000001,2.2,53.7,1.7,7.2
1698673091324.0,16,-0.5,0.8,-0.4,-0.2,10.3,2.2,50.4,1.4,8.9
1698673091340.0,16,-0.4,1.3,-0.4,-0.2,10.5,2.1,46.4,-1.5000000000000002,7.9
1698673091357.0,16,-0.4,1.3,-0.30000000000000004,-0.1,10.4,2.1,44.9,-2.1,6.8
1698673091374.0,16,-0.30000000000000004,1.0,-0.5,0.0,10.3,1.8,42.7,-1.6,6.1000000000000005
1698673091391.0,16,-0.30000000000000004,0.7000000000000001,-0.9,0.0,10.0,1.3,34.50000000000001,-4.6000000000000005,6.000000000000001
1698673091407.0,16,-0.1,0.6000000000000001,-1.3,0.2,10.0,0.8,22.2,-3.0000000000000004,6.4
1698673091424.0,16,-0.1,0.8,-1.0,0.2,10.100000000000001,1.1,11.9,-9.600000000000001,4.300000000000001
1698673091440.0,16,-0.1,0.9,-1.0,0.30000000000000004,10.3,1.0,9.700000000000001,-12.100000000000001,4.6000000000000005
1698673091457.0,16,0.0,0.9,-1.0,0.4,10.3,1.0,7.0,-12.8,5.6
1698673091474.0,16,0.2,0.7000000000000001,-1.1,0.7000000000000001,10.0,0.8,7.8,-13.100000000000001,4.9
1698673091490.0,16,0.4,0.6000000000000001,-1.4000000000000001,0.8,9.9,0.5,6.8,-11.5,3.5
1698673091507.0,16,0.5,0.7000000000000001,-1.5,1.0,10.100000000000001,0.4,0.8,-6.8,2.4000000000000004
1698673091524.0,16,0.5,1.0,-1.4000000000000001,1.0,10.4,0.5,-1.2000000000000002,-6.2,4.2
1698673091540.0,16,0.5,1.3,-1.3,1.0,10.700000000000001,0.6000000000000001,-3.0000000000000004,-5.500000000000001,8.4
1698673091557.0,16,0.30000000000000004,1.1,-1.4000000000000001,0.8,10.5,0.5,-4.300000000000001,-4.7,11.2
1698673091573.0,16,0.4,1.3,-1.3,1.0,10.700000000000001,0.6000000000000001,-8.3,0.1,9.4
1698673091590.0,16,0.5,1.3,-1.3,1.0,10.700000000000001,0.6000000000000001,-10.8,3.4,7.400000000000001
1698673091607.0,16,0.6000000000000001,1.3,-1.2000000000000002,1.2000000000000002,10.700000000000001,0.8,-16.2,4.9,4.0
1698673091624.0,16,0.7000000000000001,1.3,-1.1,1.3,10.700000000000001,0.9,-24.9,15.000000000000002,2.1
1698673091640.0,16,0.6000000000000001,1.1,-1.3,1.2000000000000002,10.5,0.8,-29.300000000000004,18.400000000000002,0.9
1698673091657.0,16,0.5,1.0,-1.4000000000000001,1.1,10.4,0.8,-42.300000000000004,22.7,2.0
1698673091674.0,16,0.6000000000000001,1.4000000000000001,-1.7000000000000002,1.2000000000000002,10.700000000000001,0.6000000000000001,-55.2,16.900000000000002,4.6000000000000005
1698673091690.0,16,0.4,1.1,-2.3000000000000003,1.0,10.4,0.1,-66.3,20.0,3.8
1698673091707.0,16,0.30000000000000004,1.3,-1.4000000000000001,0.9,10.600000000000001,1.3,-82.8,5.9,0.6000000000000001
1698673091724.0,16,0.1,1.4000000000000001,-1.7000000000000002,0.7000000000000001,10.600000000000001,1.2000000000000002,-86.60000000000001,11.3,-1.3
1698673091741.0,16,-0.1,1.3,-2.8000000000000003,0.5,10.4,0.30000000000000004,-98.4,20.3,-1.6
1698673091757.0,16,0.0,1.3,-2.6,0.5,10.4,0.8,-112.5,7.699999999999999,-2.7
1698673091774.0,16,0.30000000000000004,1.9000000000000001,-1.6,0.8,10.5,1.3,-113.9,1.8,-4.0
1698673091791.0,16,0.2,2.3000000000000003,-1.0,0.8,11.100000000000001,2.9000000000000004,-101.60000000000001,0.30000000000000004,-9.0
1698673091807.0,16,0.5,3.0,0.1,1.0,11.8,4.2,-70.8,5.8,-10.2
1698673091824.0,16,0.6000000000000001,3.1,0.6000000000000001,1.0,11.8,4.800000000000001,-54.7,7.300000000000001,-9.8
1698673091840.0,16,0.7000000000000001,2.5,2.2,1.1,11.200000000000001,6.7,-60.400000000000006,9.5,-3.3000000000000003
1698673091857.0,16,0.7000000000000001,0.2,1.8,1.1,8.700000000000001,6.6000000000000005,-104.5,14.500000000000002,-1.5000000000000002
1698673091874.0,16,0.2,-0.9,1.0,0.5,7.5,6.0,-102.30000000000001,20.2,-4.1000000000000005
1698673091891.0,16,-0.4,-0.9,0.5,-0.1,7.4,5.7,-84.5,11.700000000000001,-1.3
1698673091907.0,16,-1.0,-0.4,0.30000000000000004,-0.6000000000000001,7.7,5.6000000000000005,-45.3,5.7,7.0
1698673091923.0,16,-0.5,0.1,1.1,-0.2,8.200000000000001,6.5,-14.4,1.4,3.5
1698673091940.0,16,0.4,-0.30000000000000004,1.9000000000000001,0.8,7.800000000000001,7.300000000000001,-6.9,-9.600000000000001,-3.0000000000000004
1698673091957.0,16,0.7000000000000001,-0.6000000000000001,2.1,1.0,7.5,7.6000000000000005,-12.5,-9.9,-1.8
1698673091974.0,16,0.30000000000000004,-0.2,1.9000000000000001,0.7000000000000001,7.800000000000001,7.4,-25.0,5.1,3.4
1698673091991.0,16,0.0,0.1,1.0,0.30000000000000004,8.1,6.6000000000000005,-16.6,7.300000000000001,-0.1
1698673092007.0,16,-0.1,0.4,0.9,0.30000000000000004,8.3,6.5,-8.200000000000001,2.6,-1.8
1698673092023.0,16,0.1,0.7000000000000001,1.4000000000000001,0.5,8.700000000000001,7.1000000000000005,7.1000000000000005,-7.500000000000001,-2.3000000000000003
1698673092040.0,16,0.30000000000000004,0.7000000000000001,1.6,0.6000000000000001,8.700000000000001,7.300000000000001,11.8,-11.5,-2.6
1698673092057.0,16,0.2,0.2,1.6,0.6000000000000001,8.3,7.2,11.9,-9.9,-3.4
1698673092074.0,16,0.30000000000000004,-0.2,1.4000000000000001,0.7000000000000001,7.9,7.0,8.600000000000001,-3.0000000000000004,-5.4
1698673092091.0,16,0.30000000000000004,-0.2,1.3,0.7000000000000001,7.9,6.7,12.200000000000001,-1.0,-9.0
1698673092107.0,16,0.4,-0.1,0.9,0.8,8.0,6.5,15.7,-1.3,-10.2
1698673092124.0,16,0.4,0.1,0.7000000000000001,0.7000000000000001,8.200000000000001,6.1000000000000005,21.900000000000002,-0.8,-11.2
1698673092140.0,16,0.30000000000000004,-0.2,0.30000000000000004,0.6000000000000001,8.0,5.7,27.400000000000002,0.8,-8.9
1698673092157.0,16,0.30000000000000004,-0.4,0.1,0.6000000000000001,7.800000000000001,5.5,29.400000000000002,1.4,-7.6
1698673092173.0,16,0.2,-0.8,-0.30000000000000004,0.5,7.5,4.9,32.0,1.7,-6.3
1698673092190.0,16,0.0,-0.8,-0.7000000000000001,0.30000000000000004,7.5,4.5,34.7,3.2,-5.1
1698673092207.0,16,-0.1,-0.7000000000000001,-0.7000000000000001,0.2,7.7,4.5,36.3,3.3000000000000003,-4.2
1698673092223.0,16,-0.2,-0.5,-0.5,0.0,7.9,4.5,40.6,-0.2,-2.3000000000000003
1698673092240.0,16,-0.30000000000000004,-0.5,-0.30000000000000004,-0.1,7.800000000000001,4.6000000000000005,47.0,0.6000000000000001,-1.4
1698673092257.0,16,-0.4,-1.1,-0.6000000000000001,-0.1,7.5,4.2,50.300000000000004,3.2,-1.5000000000000002
1698673092274.0,16,-0.30000000000000004,-1.4000000000000001,-0.8,0.0,6.9,3.7,51.7,4.800000000000001,-2.1
1698673092291.0,16,-0.1,-1.9000000000000001,-1.1,0.1,6.7,3.5,51.2,3.7000000000000006,-2.7
1698673092307.0,16,-0.1,-1.8,-1.1,0.1,6.9,3.3000000000000003,49.2,4.1000000000000005,-2.7
1698673092324.0,16,-0.30000000000000004,-1.4000000000000001,-1.0,-0.1,7.300000000000001,3.2,46.2,0.9,-0.7
1698673092340.0,16,-0.5,-1.5,-0.9,-0.30000000000000004,7.300000000000001,3.2,44.5,-6.000000000000001,3.8
1698673092357.0,16,-0.6000000000000001,-1.7000000000000002,-0.8,-0.4,7.1000000000000005,3.2,44.4,-7.500000000000001,5.0
1698673092375.0,16,-0.7000000000000001,-2.4000000000000004,-0.8,-0.5,6.5,3.0,44.8,-7.2,4.9
1698673092390.0,16,-0.7000000000000001,-2.7,-0.8,-0.5,6.2,3.0,45.7,-6.000000000000001,2.9
1698673092407.0,16,-0.6000000000000001,-3.1,-0.8,-0.4,5.800000000000001,2.9000000000000004,46.300000000000004,-3.2,-0.9
1698673092424.0,16,-0.4,-3.6,-0.7000000000000001,-0.2,5.4,2.8000000000000003,45.9,-0.5,-4.5
1698673092440.0,16,-0.2,-3.9000000000000004,-0.8,0.0,5.1000000000000005,2.6,43.6,-2.3000000000000003,-6.5
1698673092457.0,16,-0.1,-4.0,-0.8,0.0,5.0,2.5,41.300000000000004,-4.9,-7.0
1698673092474.0,16,-0.4,-3.9000000000000004,-0.4,-0.2,5.1000000000000005,2.8000000000000003,37.2,-7.500000000000001,-5.7
1698673092491.0,16,-0.7000000000000001,-3.2,-0.1,-0.5,5.800000000000001,3.0,34.800000000000004,-8.200000000000001,-0.4
1698673092507.0,16,-0.7000000000000001,-2.7,0.2,-0.6000000000000001,6.300000000000001,3.2,34.400000000000006,-8.4,1.7
1698673092524.0,16,-0.6000000000000001,-1.6,0.6000000000000001,-0.4,7.4,3.5,34.800000000000004,-11.6,2.1
1698673092540.0,16,-0.30000000000000004,-0.6000000000000001,1.3,-0.1,8.4,4.1000000000000005,35.9,-12.000000000000002,-1.0
1698673092556.0,16,0.0,-0.30000000000000004,1.5,0.2,8.8,4.2,36.1,-10.600000000000001,-2.1999999999999997
1698673092574.0,16,0.30000000000000004,0.30000000000000004,1.7000000000000002,0.5,9.4,4.4,33.7,-7.300000000000001,-3.4
1698673092590.0,16,0.30000000000000004,0.6000000000000001,1.6,0.5,9.700000000000001,4.2,27.400000000000002,-5.300000000000001,-0.4
1698673092608.0,16,0.2,0.4,1.4000000000000001,0.2,9.5,3.6,17.200000000000003,-4.6000000000000005,4.6000000000000005
1698673092624.0,16,-0.2,0.30000000000000004,1.0,0.1,9.5,3.5,11.700000000000001,-3.2,3.6
1698673092640.0,16,-0.2,0.6000000000000001,1.1,0.0,9.700000000000001,3.6,4.7,-4.9,0.2
1698673092657.0,16,-0.2,0.8,1.2000000000000002,0.1,10.0,3.7,3.3000000000000003,-4.6000000000000005,0.30000000000000004
1698673092674.0,16,0.0,0.7000000000000001,1.1,0.2,9.9,3.6,0.9,-3.2,0.4
1698673092690.0,16,0.1,0.1,1.2000000000000002,0.30000000000000004,9.3,3.7,-4.6000000000000005,-1.3,-0.9
1698673092706.0,16,0.1,-0.2,1.2000000000000002,0.30000000000000004,8.9,3.8000000000000003,-9.9,-2.4000000000000004,0.1
1698673092723.0,16,0.0,-0.2,1.2000000000000002,0.2,9.0,3.7,-12.6,-2.9,0.1
1698673092740.0,16,-0.1,0.2,1.2000000000000002,0.1,9.3,3.8000000000000003,-19.200000000000003,-4.0,-1.0
1698673092756.0,16,-0.1,0.4,1.3,0.1,9.5,4.1000000000000005,-24.8,-4.2,-3.1
1698673092773.0,16,-0.1,0.4,1.3,0.1,9.5,4.0,-27.0,-2.9,-3.8
1698673092790.0,16,-0.2,-0.1,1.2000000000000002,0.0,9.0,4.1000000000000005,-30.7,-0.1,-5.7
1698673092807.0,16,-0.1,-0.5,1.0,0.1,8.6,4.0,-34.6,3.4,-6.8
1698673092823.0,16,0.0,-0.6000000000000001,0.8,0.2,8.4,3.9000000000000004,-37.0,4.300000000000001,-6.9
1698673092840.0,16,0.1,-0.7000000000000001,0.8,0.2,8.200000000000001,4.0,-42.0,5.6,-5.500000000000001
1698673092857.0,16,0.1,-0.7000000000000001,0.8,0.2,8.3,4.0,-45.3,4.300000000000001,-1.6
1698673092874.0,16,0.0,-0.7000000000000001,0.6000000000000001,0.2,8.200000000000001,4.0,-47.300000000000004,2.1999999999999997,0.6000000000000001
1698673092890.0,16,-0.1,-1.1,0.2,0.0,7.7,3.8000000000000003,-52.800000000000004,0.8,4.5
1698673092907.0,16,-0.2,-1.4000000000000001,-0.1,-0.1,7.4,3.6,-56.2,0.4,5.6
1698673092924.0,16,-0.4,-1.7000000000000002,-0.4,-0.30000000000000004,7.0,3.4000000000000004,-61.7,1.0,7.0
1698673092940.0,16,-0.6000000000000001,-1.4000000000000001,-0.8,-0.4,7.2,3.3000000000000003,-64.30000000000001,-2.6,6.6000000000000005
1698673092957.0,16,-0.6000000000000001,-0.9,-0.7000000000000001,-0.4,7.6000000000000005,3.5,-63.10000000000001,-11.6,2.6
1698673092974.0,16,-0.6000000000000001,-0.7000000000000001,-0.6000000000000001,-0.4,7.800000000000001,3.7,-61.8,-12.700000000000001,-1.0
1698673092991.0,16,-0.4,-1.0,-0.7000000000000001,-0.2,7.4,3.8000000000000003,-60.400000000000006,-14.800000000000002,-10.3
1698673093007.0,16,-0.2,-1.8,-0.8,0.0,6.4,3.8000000000000003,-61.199999999999996,-10.600000000000001,-15.6
1698673093024.0,16,-0.1,-2.2,-0.9,0.1,6.0,3.8000000000000003,-62.50000000000001,-5.2,-15.000000000000002
1698673093041.0,16,0.4,-2.3000000000000003,-0.8,0.5,5.7,4.0,-63.300000000000004,-1.8,-12.6
1698673093057.0,16,0.5,-1.1,-0.6000000000000001,0.6000000000000001,6.2,4.2,-63.10000000000001,-1.6,-6.3
1698673093074.0,16,0.4,-0.6000000000000001,-0.4,0.5,7.300000000000001,4.7,-62.50000000000001,4.300000000000001,-3.4
1698673093091.0,16,0.0,-0.8,-0.9,0.1,6.9,4.5,-61.7,14.100000000000001,-4.300000000000001
1698673093107.0,16,0.0,-1.3,-1.4000000000000001,0.1,6.4,4.0,-64.4,11.700000000000001,-2.4000000000000004
1698673093124.0,16,0.0,-2.2,-1.3,0.0,5.4,4.3,-64.10000000000001,6.7,0.2
1698673093140.0,16,-0.2,-1.6,-0.9,0.0,5.4,4.5,-61.1,2.1,2.8
1698673093157.0,16,-0.5,-0.2,-0.5,-0.5,7.2,5.4,-49.8,-9.600000000000001,7.8
1698673093174.0,16,-0.8,0.6000000000000001,-0.1,-0.7000000000000001,7.800000000000001,5.800000000000001,-44.4,-9.4,4.2
1698673093190.0,16,-0.8,0.4,-0.30000000000000004,-0.7000000000000001,7.6000000000000005,5.6000000000000005,-44.8,-2.1,-0.5
1698673093206.0,16,-0.30000000000000004,-0.7000000000000001,-1.0,-0.2,6.300000000000001,5.1000000000000005,-53.9,6.2,-10.700000000000001
1698673093224.0,16,0.0,-1.0,-0.9,0.1,6.0,5.300000000000001,-57.699999999999996,4.5,-13.0
1698673093241.0,16,0.6000000000000001,-1.0,-0.7000000000000001,0.7000000000000001,5.9,5.7,-55.0,2.0,-8.9
1698673093257.0,16,0.7000000000000001,-0.8,-0.5,0.7000000000000001,5.9,5.9,-44.7,-4.300000000000001,-0.5
1698673093274.0,16,0.5,-0.5,-0.2,0.6000000000000001,6.2,6.2,-39.1,-8.5,3.6
1698673093290.0,16,-0.30000000000000004,0.2,0.2,-0.2,6.9,6.7,-31.3,-4.2,6.2
1698673093307.0,16,-0.5,0.2,0.1,-0.30000000000000004,6.6000000000000005,6.6000000000000005,-28.400000000000002,-1.0,3.8
1698673093324.0,16,-0.30000000000000004,-0.2,-0.1,-0.2,6.300000000000001,6.6000000000000005,-28.500000000000004,-2.7,1.6
1698673093340.0,16,-0.1,0.1,-0.1,0.0,6.5,6.6000000000000005,-28.1,-7.1000000000000005,-0.5
1698673093357.0,16,-0.1,0.5,0.2,0.0,7.0,7.0,-24.400000000000002,-6.4,0.1
1698673093374.0,16,-0.2,0.4,0.4,-0.1,6.800000000000001,7.2,-20.8,-4.9,-0.5
1698673093391.0,16,-0.4,0.0,0.5,-0.30000000000000004,6.300000000000001,7.4,-13.4,2.0,-2.3000000000000003
1698673093407.0,16,0.2,-0.4,0.4,0.30000000000000004,6.0,7.2,-7.699999999999999,5.8,-5.6
1698673093424.0,16,0.6000000000000001,-0.4,0.6000000000000001,0.7000000000000001,6.0,7.4,-5.8,5.0,-6.9
1698673093440.0,16,0.9,-0.1,0.8,0.9,6.2,7.6000000000000005,0.9,7.500000000000001,-4.3999999999999995
1698673093457.0,16,0.30000000000000004,0.2,0.7000000000000001,0.30000000000000004,6.5,7.5,8.600000000000001,4.3999999999999995,2.3000000000000003
1698673093474.0,16,-0.1,0.30000000000000004,0.8,-0.1,6.7,7.6000000000000005,12.5,2.8,5.300000000000001
1698673093490.0,16,-0.7000000000000001,0.5,1.1,-0.6000000000000001,6.9,7.9,20.6,6.2,7.400000000000001
1698673093507.0,16,-0.1,0.2,1.0,-0.1,6.7,7.800000000000001,27.8,12.3,1.4
1698673093524.0,16,0.4,-0.1,0.7000000000000001,0.4,6.5,7.4,32.4,11.3,-6.1000000000000005
1698673093540.0,16,0.7000000000000001,-0.2,0.8,0.6000000000000001,6.4,7.4,34.7,9.1,-5.8
1698673093557.0,16,0.4,-0.4,1.0,0.4,6.300000000000001,7.6000000000000005,43.7,7.0,0.0
1698673093574.0,16,0.30000000000000004,-0.2,1.0,0.30000000000000004,6.5,7.5,49.4,5.6,3.4
1698673093591.0,16,-0.1,0.6000000000000001,1.3,-0.1,7.4,7.7,60.400000000000006,4.5,6.5
1698673093607.0,16,-0.1,1.1,1.5,0.0,8.700000000000001,7.7,69.80000000000001,3.3000000000000003,5.7
1698673093624.0,16,0.2,2.1,1.4000000000000001,0.2,9.200000000000001,7.6000000000000005,73.60000000000001,0.4,3.5
1698673093641.0,16,0.6000000000000001,2.5,1.5,0.6000000000000001,9.8,7.4,80.10000000000001,-1.5000000000000002,2.1999999999999997
1698673093657.0,16,0.4,2.1,1.6,0.4,9.600000000000001,7.300000000000001,88.5,5.9,5.9
1698673093674.0,16,0.2,2.6,1.8,0.30000000000000004,9.9,7.4,93.4,4.5,8.1
1698673093692.0,16,0.30000000000000004,3.0,1.6,0.30000000000000004,10.8,7.0,99.2,-0.9,9.200000000000001
1698673093707.0,16,0.30000000000000004,3.3000000000000003,0.7000000000000001,0.4,11.4,5.9,89.2,-0.2,6.6000000000000005
1698673093724.0,16,0.30000000000000004,2.5,0.0,0.4,10.700000000000001,5.0,73.2,4.7,7.9
1698673093740.0,16,0.2,1.1,-0.5,0.30000000000000004,9.4,4.2,66.5,3.6,11.6
1698673093757.0,16,0.2,0.4,-0.8,0.30000000000000004,8.700000000000001,3.9000000000000004,66.7,-2.4000000000000004,11.700000000000001
1698673093775.0,16,-0.2,-1.0,-1.1,-0.1,7.5,3.3000000000000003,69.2,-7.699999999999999,8.1
1698673093790.0,16,-0.4,-1.2000000000000002,-1.3,-0.2,7.300000000000001,3.0,68.9,-6.7,6.6000000000000005
1698673093807.0,16,-0.30000000000000004,-0.6000000000000001,-0.9,-0.1,7.9,3.2,67.3,-5.2,3.9
1698673093823.0,16,-0.1,0.30000000000000004,-0.6000000000000001,0.1,9.0,3.3000000000000003,70.10000000000001,-7.1000000000000005,2.6
1698673093840.0,16,0.1,0.6000000000000001,-0.7000000000000001,0.30000000000000004,9.4,3.1,70.7,-6.5,3.8
1698673093857.0,16,0.4,0.9,-0.8,0.6000000000000001,9.8,2.8000000000000003,67.5,-4.300000000000001,6.7
1698673093874.0,16,0.4,1.0,-0.9,0.5,10.0,2.5,56.400000000000006,4.0,6.7
1698673093890.0,16,-0.1,1.1,-0.7000000000000001,0.1,10.0,2.6,50.0,5.6,7.1000000000000005
1698673093907.0,16,-0.2,1.6,-0.4,0.1,10.600000000000001,2.8000000000000003,45.5,1.4,8.5
1698673093924.0,16,-0.30000000000000004,1.8,-0.4,0.1,10.8,2.6,38.5,-2.1999999999999997,7.400000000000001
1698673093940.0,16,-0.30000000000000004,1.5,-0.5,0.0,10.600000000000001,2.5,32.0,-8.0,5.1
1698673093957.0,16,-0.30000000000000004,0.8,-0.7000000000000001,0.1,10.0,2.2,24.5,-11.9,5.6
1698673093974.0,16,-0.30000000000000004,0.30000000000000004,-0.8,0.1,9.4,2.0,17.5,-12.6,5.0
1698673093991.0,16,-0.1,0.2,-1.1,0.30000000000000004,9.4,1.7000000000000002,8.1,-10.2,4.0
1698673094007.0,16,0.1,0.6000000000000001,-1.0,0.5,9.8,1.8,4.7,-7.2,3.5
1698673094023.0,16,0.4,0.9,-1.0,0.8,10.100000000000001,1.8,-1.8,0.4,3.0000000000000004
1698673094040.0,16,0.30000000000000004,1.0,-1.3,0.7000000000000001,10.200000000000001,1.5,-3.6,1.3,4.0
1698673094057.0,16,0.30000000000000004,1.0,-1.3,0.8,10.3,1.2000000000000002,-8.4,0.4,8.1
1698673094074.0,16,0.4,1.4000000000000001,-1.6,0.8,10.700000000000001,1.5,-14.0,-1.9,8.1
1698673094091.0,16,0.30000000000000004,1.6,-1.4000000000000001,0.8,10.700000000000001,1.4000000000000001,-14.600000000000001,-1.8,6.6000000000000005
1698673094107.0,16,0.5,1.7000000000000002,-1.6,1.0,10.9,1.3,-19.400000000000002,6.7,2.4000000000000004
1698673094123.0,16,0.6000000000000001,1.6,-1.3,1.1,10.700000000000001,1.6,-23.700000000000003,3.5,0.2
1698673094140.0,16,0.8,1.4000000000000001,-1.3,1.3,10.5,1.7000000000000002,-28.900000000000002,5.0,2.1999999999999997
1698673094157.0,16,0.7000000000000001,1.3,-1.3,1.3,10.5,1.7000000000000002,-32.300000000000004,6.6000000000000005,3.2
1698673094173.0,16,0.6000000000000001,1.2000000000000002,-1.4000000000000001,1.2000000000000002,10.3,1.8,-40.9,8.700000000000001,4.6000000000000005
1698673094191.0,16,0.5,1.1,-1.6,1.1,10.100000000000001,1.7000000000000002,-54.6,9.600000000000001,3.8
1698673094207.0,16,0.6000000000000001,1.2000000000000002,-1.8,1.1,10.200000000000001,1.6,-63.0,9.8,2.3000000000000003
1698673094223.0,16,0.4,1.5,-1.8,0.9,10.4,1.9000000000000001,-80.4,15.6,-1.8
1698673094241.0,16,0.30000000000000004,1.6,-2.2,0.8,10.5,1.5,-87.7,17.7,-1.0999999999999999
1698673094257.0,16,0.4,1.8,-1.9000000000000001,0.9,10.600000000000001,2.1,-105.10000000000001,9.8,0.2
1698673094274.0,16,0.2,1.9000000000000001,-2.8000000000000003,0.7000000000000001,10.5,1.6,-107.8,9.4,1.2000000000000002
1698673094291.0,16,0.30000000000000004,2.1,-1.5,0.8,10.5,3.2,-104.9,2.4000000000000004,1.2000000000000002
1698673094307.0,16,0.2,2.0,-1.3,0.7000000000000001,10.4,3.5,-96.4,2.6,1.3
1698673094323.0,16,0.30000000000000004,2.2,0.4,0.8,10.5,5.4,-78.80000000000001,3.6,3.0000000000000004
1698673094340.0,16,0.2,2.5,1.7000000000000002,0.7000000000000001,10.700000000000001,6.800000000000001,-75.0,1.0999999999999999,4.3999999999999995
1698673094357.0,16,0.5,2.5,2.9000000000000004,1.1,10.5,8.3,-82.0,2.1999999999999997,5.0
1698673094374.0,16,0.8,0.9,1.7000000000000002,1.3,8.8,7.300000000000001,-94.1,21.6,-2.4000000000000004
1698673094390.0,16,0.5,0.1,1.2000000000000002,0.5,7.300000000000001,6.9,-79.00000000000001,22.2,-3.6
1698673094407.0,16,-0.4,-0.8,0.8,0.1,6.9,6.9,-64.8,16.6,0.4
1698673094424.0,16,-0.8,-0.9,0.9,-0.4,6.6000000000000005,7.0,-36.5,6.7,8.200000000000001
1698673094440.0,16,-0.7000000000000001,-0.7000000000000001,1.1,-0.30000000000000004,6.9,7.300000000000001,-25.400000000000002,2.1999999999999997,9.200000000000001
1698673094457.0,16,-0.2,-0.2,1.5,0.2,7.300000000000001,7.7,-12.4,-2.6,7.699999999999999
1698673094473.0,16,0.30000000000000004,-0.1,1.5,0.7000000000000001,7.4,7.800000000000001,-12.200000000000001,0.1,6.1000000000000005
1698673094490.0,16,0.2,0.1,1.3,0.7000000000000001,7.5,7.7,-11.8,7.8,1.5000000000000002
1698673094507.0,16,0.2,0.1,1.2000000000000002,0.7000000000000001,7.6000000000000005,7.5,-7.2,6.4,-0.8
1698673094524.0,16,0.30000000000000004,0.6000000000000001,1.2000000000000002,0.7000000000000001,8.1,7.5,5.500000000000001,-2.7,-1.2000000000000002
1698673094541.0,16,0.30000000000000004,0.8,1.4000000000000001,0.7000000000000001,8.200000000000001,7.7,11.4,-6.8,-0.6000000000000001
1698673094556.0,16,0.2,0.7000000000000001,1.5,0.7000000000000001,8.200000000000001,7.800000000000001,19.400000000000002,-9.0,-2.0
1698673094574.0,16,0.1,0.4,1.6,0.6000000000000001,7.9,7.800000000000001,19.3,-7.1000000000000005,-2.1
1698673094591.0,16,0.0,0.1,1.4000000000000001,0.5,7.7,7.7,19.6,-5.4,-2.1
1698673094607.0,16,0.2,-0.1,1.2000000000000002,0.7000000000000001,7.6000000000000005,7.4,22.2,-3.5,-2.6
1698673094624.0,16,0.4,0.0,0.7000000000000001,0.9,7.7,6.800000000000001,26.1,-1.2000000000000002,-5.6
1698673094641.0,16,0.5,0.30000000000000004,0.7000000000000001,1.0,8.0,6.800000000000001,27.900000000000002,-0.5,-7.500000000000001
1698673094657.0,16,0.30000000000000004,0.5,0.7000000000000001,0.8,8.3,6.7,32.6,-2.6,-9.5
1698673094674.0,16,0.1,-0.1,0.2,0.5,7.7,6.1000000000000005,37.300000000000004,-2.1,-8.1
1698673094691.0,16,-0.1,-1.0,-0.7000000000000001,0.30000000000000004,6.9,5.1000000000000005,38.800000000000004,0.30000000000000004,-7.6
1698673094707.0,16,-0.30000000000000004,-1.3,-1.0,0.1,6.7,4.6000000000000005,41.6,0.9,-8.700000000000001
1698673094724.0,16,-0.30000000000000004,-1.1,-0.9,0.1,7.0,4.7,44.8,-0.2,-9.3
1698673094740.0,16,-0.30000000000000004,-0.8,-0.7000000000000001,0.1,7.5,4.7,55.300000000000004,-6.6000000000000005,-11.2
1698673094757.0,16,-0.2,-0.5,-0.8,0.1,7.7,4.6000000000000005,59.300000000000004,-9.5,-12.100000000000001
1698673094773.0,16,-0.2,-1.0,-1.0,0.1,7.300000000000001,4.2,61.8,-10.700000000000001,-12.8
1698673094790.0,16,-0.2,-1.9000000000000001,-1.1,0.1,6.5,3.9000000000000004,60.900000000000006,-8.9,-13.100000000000001
1698673094807.0,16,-0.2,-2.5,-1.1,0.1,6.0,3.7,60.1,-4.6000000000000005,-13.6
1698673094824.0,16,-0.2,-2.6,-1.0,0.1,6.0,3.7,59.80000000000001,-2.3000000000000003,-13.6
1698673094841.0,16,-0.2,-2.6,-1.1,0.1,6.1000000000000005,3.4000000000000004,59.00000000000001,0.4,-13.3
1698673094857.0,16,-0.2,-2.5,-1.0,0.0,6.2,3.4000000000000004,58.1,0.5,-12.9
1698673094874.0,16,-0.2,-2.8000000000000003,-0.9,0.0,5.9,3.4000000000000004,57.9,0.1,-9.8
1698673094890.0,16,0.0,-3.0,-0.9,0.2,5.7,3.1,57.1,1.4,-6.000000000000001
1698673094907.0,16,0.0,-3.1,-1.0,0.1,5.7,3.0,55.800000000000004,0.9,-4.2
1698673094923.0,16,-0.1,-3.0,-0.9,0.0,5.800000000000001,2.9000000000000004,55.0,0.30000000000000004,-3.5
1698673094940.0,16,-0.2,-3.0,-0.8,-0.1,5.800000000000001,3.0,54.3,-0.6000000000000001,-3.0000000000000004
1698673094957.0,16,-0.4,-3.2,-0.5,-0.30000000000000004,5.7,3.0,54.0,-3.4,-3.1
1698673094974.0,16,-0.6000000000000001,-3.8000000000000003,-0.30000000000000004,-0.5,5.2,3.1,54.800000000000004,-7.2,-2.8
1698673094992.0,16,-0.6000000000000001,-4.0,-0.2,-0.5,5.0,3.0,55.1,-7.300000000000001,-1.9
1698673095007.0,16,-0.30000000000000004,-3.4000000000000004,0.1,-0.2,5.6000000000000005,3.1,52.900000000000006,-7.2,-1.2000000000000002
1698673095024.0,16,-0.2,-2.8000000000000003,0.4,-0.1,6.2,3.3000000000000003,51.0,-7.300000000000001,-0.8
1698673095040.0,16,-0.1,-1.5,1.0,0.0,7.5,3.8000000000000003,47.1,-7.6,1.3
1698673095057.0,16,0.1,-0.9,1.3,0.30000000000000004,8.8,4.3,45.1,-7.400000000000001,3.2
1698673095074.0,16,0.0,0.7000000000000001,1.7000000000000002,0.30000000000000004,9.5,4.4,43.1,-6.9,6.7
1698673095090.0,16,-0.1,0.9,1.5,0.1,10.0,4.0,40.9,-9.4,9.0
1698673095106.0,16,0.0,1.4000000000000001,1.6,0.30000000000000004,10.600000000000001,4.0,32.1,-6.3,8.4
1698673095123.0,16,0.1,1.7000000000000002,1.6,0.4,10.9,4.0,28.500000000000004,-4.2,6.2
1698673095140.0,16,-0.2,1.1,1.4000000000000001,0.0,10.4,3.7,20.0,-2.7,3.1
1698673095157.0,16,-0.4,0.4,1.1,-0.1,9.600000000000001,3.4000000000000004,6.9,3.5,3.1
1698673095174.0,16,-0.30000000000000004,0.1,1.0,-0.1,9.3,3.3000000000000003,1.0999999999999999,2.4000000000000004,1.5000000000000002
1698673095190.0,16,-0.30000000000000004,-0.4,0.9,-0.1,8.8,3.2,-7.1000000000000005,-2.3000000000000003,0.9
1698673095208.0,16,-0.4,-0.1,1.0,-0.1,9.1,3.4000000000000004,-9.700000000000001,-4.0,1.3
1698673095224.0,16,-0.5,0.2,1.1,-0.2,9.4,3.5,-8.200000000000001,-5.300000000000001,0.7
1698673095240.0,16,-0.5,0.4,1.2000000000000002,-0.2,9.600000000000001,3.6,-4.7,-8.799999999999999,-2.3000000000000003
1698673095257.0,16,-0.4,0.4,1.2000000000000002,-0.2,9.600000000000001,3.6,-5.2,-8.700000000000001,-4.0
1698673095274.0,16,-0.2,0.4,1.1,0.0,9.600000000000001,3.6,-11.8,-7.2,-6.2
1698673095292.0,16,-0.1,0.4,1.2000000000000002,0.1,9.600000000000001,3.7,-21.400000000000002,-6.7,-6.8
1698673095307.0,16,0.0,0.4,1.1,0.2,9.600000000000001,3.7,-28.200000000000003,-4.9,-6.3
1698673095323.0,16,0.0,0.2,1.1,0.2,9.4,3.8000000000000003,-31.099999999999998,-5.7,-3.5
1698673095340.0,16,0.0,0.1,1.2000000000000002,0.2,9.3,3.9000000000000004,-31.6,-6.9,-2.1
1698673095357.0,16,0.0,0.0,1.1,0.2,9.1,4.0,-32.1,-7.6,-1.0
1698673095374.0,16,-0.1,-0.2,1.0,0.1,8.9,4.0,-34.800000000000004,-6.3,-0.2
1698673095390.0,16,-0.2,-0.4,0.9,0.0,8.6,3.9000000000000004,-40.9,-2.4000000000000004,-0.7
1698673095407.0,16,-0.2,-0.6000000000000001,0.8,0.0,8.5,3.9000000000000004,-44.2,-1.3,-1.0
1698673095423.0,16,-0.2,-0.6000000000000001,0.6000000000000001,0.0,8.4,4.0,-53.9,-6.6000000000000005,-1.2000000000000002
1698673095440.0,16,-0.2,-0.7000000000000001,0.6000000000000001,0.0,8.200000000000001,4.0,-56.6,-6.9,-0.8
1698673095457.0,16,-0.4,-1.1,0.2,-0.2,7.7,3.9000000000000004,-61.0,-3.0000000000000004,-0.30000000000000004
1698673095474.0,16,-0.4,-1.3,0.0,-0.2,7.7,3.9000000000000004,-61.0,-3.0000000000000004,-0.30000000000000004
1698673095490.0,16,-0.4,-1.8,-0.4,-0.2,6.9,3.6,-66.7,-4.0,1.3
1698673095507.0,16,-0.4,-2.0,-0.6000000000000001,-0.1,6.5,3.5,-70.0,-12.6,3.2
1698673095524.0,16,-0.4,-2.0,-0.8,-0.2,6.4,3.5,-71.30000000000001,-16.8,3.7000000000000006
1698673095540.0,16,-0.8,-1.6,-0.9,-0.5,6.800000000000001,3.5,-73.0,-14.4,4.3999999999999995
1698673095557.0,16,-0.9,-0.9,-1.1,-0.6000000000000001,7.4,3.6,-73.30000000000001,-13.0,2.0
1698673095574.0,16,-0.6000000000000001,-0.6000000000000001,-1.0,-0.30000000000000004,7.5,3.8000000000000003,-72.6,-17.7,-1.0
1698673095591.0,16,-0.1,-0.8,-0.8,0.2,7.2,4.1000000000000005,-70.2,-23.900000000000002,-7.6
1698673095607.0,16,-0.1,-2.0,-1.0,0.2,6.0,4.1000000000000005,-70.2,-9.4,-11.2
1698673095624.0,16,-0.1,-2.4000000000000004,-1.3,0.30000000000000004,5.1000000000000005,3.9000000000000004,-69.9,5.300000000000001,-10.600000000000001
1698673095641.0,16,0.2,-2.8000000000000003,-1.4000000000000001,0.5,4.9,4.0,-67.80000000000001,9.9,-9.5
1698673095657.0,16,0.5,-2.6,-1.3,0.7000000000000001,5.1000000000000005,4.2,-64.10000000000001,12.100000000000001,-8.200000000000001
1698673095675.0,16,0.8,-1.2000000000000002,-1.2000000000000002,1.0,6.300000000000001,4.4,-56.0,12.200000000000001,-3.0000000000000004
1698673095690.0,16,0.6000000000000001,0.0,-0.8,0.8,7.4,4.9,-52.0,5.1,5.300000000000001
1698673095707.0,16,0.1,-0.5,-0.7000000000000001,0.30000000000000004,6.800000000000001,5.2,-47.5,0.5,10.2
1698673095724.0,16,-0.2,-0.9,-0.9,0.0,6.300000000000001,5.0,-46.300000000000004,1.4,9.9
1698673095740.0,16,-0.6000000000000001,-0.9,-0.9,-0.30000000000000004,6.300000000000001,5.2,-45.1,0.7,6.2
1698673095757.0,16,-0.6000000000000001,-0.1,-0.8,-0.4,6.9,5.300000000000001,-42.400000000000006,7.8,-2.0
1698673095774.0,16,-0.4,0.1,-0.9,0.0,7.0,5.300000000000001,-39.50000000000001,11.9,-9.1
1698673095790.0,16,0.1,-0.1,-0.9,0.2,6.800000000000001,5.4,-39.400000000000006,11.700000000000001,-9.3
1698673095806.0,16,0.6000000000000001,-0.30000000000000004,-0.1,0.8,6.5,6.300000000000001,-38.6,6.2,-5.0
1698673095823.0,16,1.1,-0.5,0.30000000000000004,1.2000000000000002,6.2,6.7,-34.2,-0.8,-1.7
1698673095840.0,16,1.0,-0.6000000000000001,0.2,1.1,6.1000000000000005,6.7,-33.7,2.8,-0.8
1698673095858.0,16,0.6000000000000001,-0.30000000000000004,-0.6000000000000001,0.7000000000000001,6.4,6.0,-35.199999999999996,7.699999999999999,2.0
1698673095874.0,16,0.2,-0.1,-0.6000000000000001,0.30000000000000004,6.5,6.0,-34.7,6.8,3.7000000000000006
1698673095890.0,16,-0.5,0.1,-0.1,-0.4,6.6000000000000005,6.6000000000000005,-26.8,5.0,8.4
1698673095907.0,16,-0.7000000000000001,0.0,0.6000000000000001,-0.6000000000000001,6.5,7.300000000000001,-14.100000000000001,8.5,10.1
1698673095923.0,16,0.2,-0.2,0.8,0.30000000000000004,6.300000000000001,7.6000000000000005,-10.2,14.0,3.5
1698673095941.0,16,0.7000000000000001,-0.1,0.9,0.8,6.300000000000001,7.6000000000000005,-13.0,13.0,-0.6000000000000001
1698673095957.0,16,1.2000000000000002,-0.2,0.4,1.3,6.2,7.2,-20.2,10.9,-1.0
1698673095975.0,16,0.9,-0.2,0.30000000000000004,0.4,6.4,7.300000000000001,-20.1,10.8,1.7
1698673095990.0,16,-0.1,0.5,0.7000000000000001,-0.1,6.9,7.5,-8.3,4.3999999999999995,11.8
1698673096007.0,16,-0.9,0.9,0.7000000000000001,-0.8,7.2,7.6000000000000005,5.9,9.700000000000001,17.200000000000003
1698673096024.0,16,-0.8,0.6000000000000001,0.8,-0.30000000000000004,6.6000000000000005,7.4,8.700000000000001,13.9,14.100000000000001
1698673096040.0,16,0.2,-0.2,0.7000000000000001,0.30000000000000004,6.2,7.5,6.7,10.1,8.799999999999999
1698673096056.0,16,1.0,-0.2,0.9,1.0,6.2,7.7,8.0,5.8,1.0
1698673096074.0,16,0.9,-0.4,0.7000000000000001,1.0,6.0,7.5,20.3,7.9,3.2
1698673096090.0,16,0.4,-0.4,0.9,0.5,6.1000000000000005,7.7,27.900000000000002,4.1000000000000005,7.300000000000001
1698673096107.0,16,-0.4,0.2,0.9,-0.2,6.7,7.6000000000000005,43.1,2.5,15.5
1698673096123.0,16,-0.5,0.0,0.5,-0.4,6.7,7.0,50.6,9.700000000000001,16.2
1698673096140.0,16,0.30000000000000004,-0.4,0.30000000000000004,0.4,6.4,6.800000000000001,57.9,10.8,10.600000000000001
1698673096156.0,16,0.4,-0.4,0.5,0.6000000000000001,6.4,6.9,63.900000000000006,6.7,6.2
1698673096173.0,16,0.30000000000000004,0.6000000000000001,0.9,0.4,7.7,7.1000000000000005,77.5,0.0,4.300000000000001
1698673096190.0,16,-0.2,2.3000000000000003,0.8,0.0,9.5,6.800000000000001,86.9,3.4,4.9
1698673096208.0,16,-0.30000000000000004,2.5,0.6000000000000001,-0.1,9.8,6.5,88.3,5.1,4.300000000000001
1698673096224.0,16,-0.30000000000000004,2.4000000000000004,0.7000000000000001,-0.1,9.700000000000001,6.7,89.9,4.5,4.6000000000000005
1698673096240.0,16,-0.2,2.3000000000000003,1.5,0.0,9.9,7.0,100.2,-3.5,5.6
1698673096257.0,16,0.0,3.5,2.2,0.2,11.4,7.5,111.30000000000001,-10.700000000000001,2.6
1698673096274.0,16,0.2,4.3,1.6,0.5,12.4,6.6000000000000005,104.4,-8.600000000000001,0.2
1698673096291.0,16,0.2,3.8000000000000003,1.2000000000000002,0.4,12.0,6.0,94.9,-2.1999999999999997,-1.0
1698673096307.0,16,0.0,2.2,0.2,0.2,10.600000000000001,4.800000000000001,79.9,6.1000000000000005,0.5
1698673096324.0,16,0.1,0.5,-1.0,0.30000000000000004,9.0,3.4000000000000004,75.80000000000001,5.500000000000001,8.1
1698673096343.0,16,0.1,-0.8,-1.4000000000000001,0.4,7.800000000000001,2.7,71.0,0.30000000000000004,8.3
1698673096356.0,16,-0.2,-1.3,-1.4000000000000001,0.1,7.300000000000001,2.6,70.39999999999999,-7.400000000000001,3.4
1698673096373.0,16,-0.30000000000000004,-1.2000000000000002,-1.2000000000000002,0.0,7.5,2.7,70.9,-8.600000000000001,1.2000000000000002
