msFromStart,interval,accx,accy,accz,accGx,accGy,accGz,rotRate_alpha,rotRate_beta,rotRate_gamma
1698674840009.0,16,0.0,0.0,0.0,-0.7000000000000001,9.200000000000001,2.2,-0.8,2.6,0.30000000000000004
1698674840026.0,16,-0.1,0.0,0.0,-0.8,9.3,2.2,-0.7,2.0,0.30000000000000004
1698674840043.0,16,0.0,0.0,0.0,-0.8,9.3,2.2,-0.8,1.6,0.2
1698674840060.0,16,0.0,0.0,0.0,-0.8,9.3,2.2,-0.8,1.3,0.1
1698674840076.0,16,0.0,0.0,0.0,-0.7000000000000001,9.3,2.1,-1.0,0.6000000000000001,0.0
1698674840092.0,16,0.0,0.0,0.0,-0.8,9.3,2.2,-1.0,0.30000000000000004,-0.1
1698674840110.0,16,0.0,0.0,0.0,-0.8,9.3,2.2,-0.8,-0.30000000000000004,-0.30000000000000004
1698674840128.0,16,0.0,0.0,0.0,-0.7000000000000001,9.3,2.2,-0.7,-0.6000000000000001,-0.2
1698674840143.0,16,0.0,0.0,0.0,-0.8,9.200000000000001,2.2,-0.6000000000000001,-0.8,-0.4
1698674840159.0,16,0.0,0.0,0.0,-0.7000000000000001,9.200000000000001,2.2,-0.7,-1.0999999999999999,-0.4
1698674840176.0,16,0.0,0.0,0.0,-0.7000000000000001,9.200000000000001,2.2,-0.9,-1.5000000000000002,-0.30000000000000004
1698674840193.0,16,0.0,0.0,0.0,-0.7000000000000001,9.3,2.2,-0.9,-1.5000000000000002,-0.30000000000000004
1698674840209.0,16,0.0,0.0,0.0,-0.7000000000000001,9.3,2.2,-0.8,-1.7,-0.30000000000000004
1698674840226.0,16,0.0,0.0,0.0,-0.7000000000000001,9.3,2.2,-0.4,-2.1,-0.30000000000000004
1698674840242.0,16,0.0,0.0,0.0,-0.7000000000000001,9.3,2.2,-0.2,-2.3000000000000003,-0.30000000000000004
1698674840259.0,16,0.0,0.0,0.0,-0.7000000000000001,9.3,2.2,-0.1,-2.5,-0.30000000000000004
1698674840278.0,16,0.0,0.0,0.0,-0.7000000000000001,9.3,2.2,-0.1,-2.5,-0.4
1698674840292.0,16,0.0,0.0,0.0,-0.7000000000000001,9.3,2.2,0.1,-2.9,-0.30000000000000004
1698674840309.0,16,0.0,0.0,0.0,-0.7000000000000001,9.200000000000001,2.2,0.4,-3.1,-0.4
1698674840326.0,16,0.0,0.0,0.0,-0.7000000000000001,9.3,2.2,0.5,-3.2,-0.4
1698674840343.0,16,0.0,0.0,0.0,-0.7000000000000001,9.3,2.2,0.7,-3.4,-0.5
1698674840360.0,16,0.0,0.0,0.0,-0.7000000000000001,9.200000000000001,2.2,0.8,-3.2,-0.4
1698674840376.0,16,0.0,0.0,0.0,-0.7000000000000001,9.200000000000001,2.2,1.2000000000000002,-3.1,-0.4
1698674840393.0,16,0.0,0.0,0.0,-0.7000000000000001,9.3,2.2,1.3,-3.0000000000000004,-0.30000000000000004
1698674840410.0,16,0.0,0.0,0.0,-0.7000000000000001,9.3,2.2,1.6,-2.9,-0.1
1698674840426.0,16,0.0,0.0,0.0,-0.7000000000000001,9.3,2.2,1.5000000000000002,-2.9,0.0
1698674840443.0,16,0.0,0.1,0.0,-0.7000000000000001,9.3,2.2,1.5000000000000002,-2.9,-0.1
1698674840459.0,16,0.0,0.0,0.0,-0.7000000000000001,9.3,2.2,1.4,-3.0000000000000004,-0.1
1698674840476.0,16,0.1,0.0,0.0,-0.6000000000000001,9.200000000000001,2.2,1.5000000000000002,-2.7,-0.1
1698674840493.0,16,0.1,0.0,0.0,-0.6000000000000001,9.3,2.2,1.6,-2.1999999999999997,0.0
1698674840509.0,16,0.1,0.0,0.0,-0.6000000000000001,9.3,2.2,1.6,-1.5000000000000002,0.2
1698674840526.0,16,0.1,0.1,0.0,-0.6000000000000001,9.3,2.2,1.4,-1.0999999999999999,0.2
1698674840543.0,16,0.0,0.0,0.0,-0.6000000000000001,9.3,2.2,0.9,-0.4,0.5
1698674840560.0,16,0.0,0.1,0.0,-0.7000000000000001,9.3,2.1,0.30000000000000004,-0.5,0.8
1698674840576.0,16,0.0,0.0,0.0,-0.7000000000000001,9.3,2.1,0.1,-0.7,0.8
1698674840593.0,16,0.0,0.0,0.0,-0.6000000000000001,9.3,2.1,0.1,-1.4,0.5
1698674840610.0,16,0.0,0.0,0.0,-0.6000000000000001,9.3,2.1,-0.1,-1.4,0.30000000000000004
1698674840626.0,16,0.0,0.0,0.0,-0.7000000000000001,9.3,2.1,-0.1,-0.5,0.5
1698674840643.0,16,0.0,0.0,0.0,-0.7000000000000001,9.3,2.1,-0.2,-0.4,0.5
1698674840660.0,16,0.0,0.0,0.0,-0.6000000000000001,9.3,2.2,0.0,0.0,0.5
1698674840676.0,16,0.0,0.0,0.0,-0.6000000000000001,9.3,2.2,0.0,0.4,0.6000000000000001
1698674840692.0,16,0.0,0.0,0.0,-0.6000000000000001,9.3,2.1,-0.1,0.5,0.5
1698674840709.0,16,0.0,0.0,0.0,-0.7000000000000001,9.3,2.2,-0.30000000000000004,1.0,0.5
1698674840726.0,16,0.0,0.0,0.0,-0.7000000000000001,9.3,2.1,-0.7,0.7,0.30000000000000004
1698674840743.0,16,0.0,0.0,0.0,-0.7000000000000001,9.3,2.1,-0.9,0.5,0.30000000000000004
1698674840760.0,16,0.0,0.0,0.0,-0.7000000000000001,9.3,2.1,-0.8,0.2,0.30000000000000004
1698674840776.0,16,0.0,0.0,0.0,-0.7000000000000001,9.3,2.2,-0.6000000000000001,0.2,0.2
1698674840793.0,16,0.0,0.0,0.0,-0.7000000000000001,9.3,2.1,-0.2,0.9,0.4
1698674840810.0,16,0.0,0.0,0.0,-0.6000000000000001,9.3,2.2,-0.30000000000000004,1.0999999999999999,0.4
1698674840826.0,16,0.0,0.0,0.0,-0.7000000000000001,9.3,2.2,-0.4,1.3,0.7
1698674840843.0,16,0.0,0.0,0.0,-0.6000000000000001,9.3,2.1,-0.6000000000000001,1.4,0.7
1698674840859.0,16,0.0,0.0,0.0,-0.6000000000000001,9.3,2.1,-0.7,1.3,0.6000000000000001
1698674840876.0,16,0.0,0.0,0.0,-0.7000000000000001,9.3,2.1,-0.6000000000000001,1.0999999999999999,0.4
1698674840892.0,16,0.0,0.0,0.0,-0.7000000000000001,9.3,2.1,-0.5,1.0999999999999999,0.30000000000000004
1698674840909.0,16,0.0,0.0,0.0,-0.7000000000000001,9.3,2.2,-0.2,1.3,0.2
1698674840926.0,16,0.0,0.0,0.0,-0.7000000000000001,9.3,2.2,-0.4,1.2000000000000002,0.30000000000000004
1698674840943.0,16,0.0,0.0,0.0,-0.7000000000000001,9.3,2.2,-0.5,1.2000000000000002,0.30000000000000004
1698674840959.0,16,0.0,0.0,0.0,-0.7000000000000001,9.3,2.2,-0.6000000000000001,0.8,0.30000000000000004
1698674840976.0,16,0.0,0.0,0.0,-0.7000000000000001,9.3,2.2,-0.6000000000000001,0.6000000000000001,0.2
1698674840993.0,16,0.0,0.0,0.0,-0.7000000000000001,9.3,2.1,-0.6000000000000001,0.4,0.2
1698674841010.0,16,0.0,0.0,0.0,-0.7000000000000001,9.3,2.2,-0.6000000000000001,0.30000000000000004,0.1
1698674841026.0,16,0.0,0.0,0.0,-0.7000000000000001,9.3,2.2,-0.7,0.1,-0.1
1698674841042.0,16,0.0,0.0,0.0,-0.7000000000000001,9.3,2.2,-0.7,0.2,-0.2
1698674841060.0,16,0.0,0.0,0.0,-0.7000000000000001,9.3,2.2,-0.7,0.30000000000000004,-0.1
1698674841076.0,16,0.0,0.0,0.0,-0.7000000000000001,9.3,2.2,-0.9,0.2,0.0
1698674841093.0,16,0.0,0.0,0.0,-0.7000000000000001,9.3,2.2,-0.9,0.0,-0.2
1698674841110.0,16,0.0,0.0,0.0,-0.7000000000000001,9.3,2.2,-0.9,-0.2,-0.30000000000000004
1698674841126.0,16,0.0,0.0,0.0,-0.7000000000000001,9.3,2.2,-0.9,-0.1,-0.30000000000000004
1698674841142.0,16,0.0,0.0,0.0,-0.7000000000000001,9.3,2.2,-1.0,-0.1,-0.30000000000000004
1698674841160.0,16,0.0,0.0,0.0,-0.7000000000000001,9.3,2.2,-1.0,-0.30000000000000004,-0.30000000000000004
1698674841176.0,16,0.0,0.0,0.0,-0.6000000000000001,9.3,2.2,-0.9,-0.1,-0.30000000000000004
1698674841192.0,16,0.0,0.0,0.0,-0.6000000000000001,9.3,2.2,-0.8,0.0,-0.4
1698674841210.0,16,0.0,0.0,0.0,-0.6000000000000001,9.3,2.2,-0.9,0.30000000000000004,-0.30000000000000004
1698674841227.0,16,0.0,0.0,0.0,-0.7000000000000001,9.3,2.2,-1.2000000000000002,0.5,0.2
1698674841242.0,16,0.0,0.0,0.0,-0.7000000000000001,9.3,2.2,-1.5000000000000002,0.4,0.2
1698674841259.0,16,0.0,0.0,0.0,-0.7000000000000001,9.3,2.2,-2.1,0.4,0.1
1698674841276.0,16,0.0,0.0,0.0,-0.7000000000000001,9.3,2.2,-2.0,0.5,0.2
1698674841292.0,16,0.0,0.0,0.0,-0.7000000000000001,9.3,2.2,-1.8,0.6000000000000001,0.30000000000000004
1698674841310.0,16,0.0,0.0,0.0,-0.7000000000000001,9.200000000000001,2.2,-1.5000000000000002,0.4,0.2
1698674841326.0,16,0.0,0.0,0.0,-0.7000000000000001,9.200000000000001,2.2,-0.9,0.1,0.2
1698674841342.0,16,0.0,0.0,0.0,-0.7000000000000001,9.3,2.2,-0.7,-0.2,0.0
1698674841359.0,16,0.0,0.0,0.0,-0.7000000000000001,9.3,2.2,-0.9,-0.30000000000000004,0.2
1698674841376.0,16,0.0,0.0,0.0,-0.7000000000000001,9.3,2.2,-1.3,-0.9,0.2
1698674841393.0,16,0.0,0.1,0.0,-0.7000000000000001,9.3,2.2,-1.4,-1.4,-0.1
1698674841410.0,16,0.0,0.1,0.0,-0.7000000000000001,9.3,2.2,-1.8,-1.9,-0.6000000000000001
1698674841426.0,16,0.0,0.0,0.0,-0.7000000000000001,9.3,2.2,-2.3000000000000003,-1.8,-0.6000000000000001
1698674841443.0,16,0.0,0.0,0.0,-0.7000000000000001,9.200000000000001,2.2,-2.4000000000000004,-1.4,-0.2
1698674841459.0,16,0.0,0.0,0.0,-0.7000000000000001,9.200000000000001,2.2,-2.1999999999999997,-1.5000000000000002,-0.30000000000000004
1698674841476.0,16,0.0,-0.1,0.0,-0.6000000000000001,9.200000000000001,2.3000000000000003,-2.0,-1.8,-0.6000000000000001
1698674841492.0,16,0.0,-0.1,0.0,-0.6000000000000001,9.200000000000001,2.3000000000000003,-1.9,-1.4,-0.5
1698674841509.0,16,0.0,-0.1,0.0,-0.7000000000000001,9.200000000000001,2.3000000000000003,-1.6,-1.2000000000000002,-0.5
1698674841526.0,16,0.0,0.0,0.0,-0.6000000000000001,9.3,2.3000000000000003,-1.7,-1.2000000000000002,-0.30000000000000004
1698674841542.0,16,0.0,0.0,0.0,-0.6000000000000001,9.3,2.3000000000000003,-1.8,-1.0999999999999999,-0.4
1698674841561.0,16,0.0,0.0,0.0,-0.6000000000000001,9.3,2.2,-1.8,-1.3,-0.30000000000000004
1698674841576.0,16,0.0,0.0,0.0,-0.7000000000000001,9.200000000000001,2.3000000000000003,-1.9,-1.2000000000000002,-0.30000000000000004
1698674841593.0,16,0.0,0.0,0.0,-0.7000000000000001,9.200000000000001,2.3000000000000003,-1.7,-1.0,-0.1
1698674841609.0,16,0.0,0.0,0.0,-0.7000000000000001,9.200000000000001,2.3000000000000003,-1.6,-1.0999999999999999,0.0
1698674841626.0,16,0.0,0.0,0.0,-0.6000000000000001,9.200000000000001,2.3000000000000003,-1.3,-0.9,0.0
1698674841642.0,16,0.0,0.0,0.0,-0.7000000000000001,9.200000000000001,2.3000000000000003,-1.3,-0.9,0.1
1698674841659.0,16,0.0,0.0,0.0,-0.7000000000000001,9.200000000000001,2.3000000000000003,-1.2000000000000002,-0.9,0.2
1698674841676.0,16,0.0,0.0,0.0,-0.7000000000000001,9.3,2.3000000000000003,-1.3,-1.2000000000000002,0.0
1698674841692.0,16,0.0,0.0,0.0,-0.7000000000000001,9.3,2.3000000000000003,-1.2000000000000002,-0.9,-0.2
1698674841709.0,16,0.0,0.0,0.0,-0.6000000000000001,9.3,2.3000000000000003,-1.0,-0.9,-0.30000000000000004
1698674841726.0,16,0.0,0.0,0.0,-0.6000000000000001,9.200000000000001,2.3000000000000003,-0.9,-0.8,-0.30000000000000004
1698674841743.0,16,0.0,-0.1,0.0,-0.6000000000000001,9.200000000000001,2.3000000000000003,-0.7,-0.6000000000000001,-0.2
1698674841759.0,16,0.0,0.0,0.0,-0.6000000000000001,9.200000000000001,2.3000000000000003,-0.9,-0.4,-0.2
1698674841776.0,16,0.0,0.0,0.0,-0.7000000000000001,9.200000000000001,2.3000000000000003,-0.9,-0.1,0.0
1698674841792.0,16,0.0,0.0,0.0,-0.6000000000000001,9.200000000000001,2.3000000000000003,-0.9,-0.1,-0.1
1698674841810.0,16,0.0,0.0,0.0,-0.6000000000000001,9.3,2.3000000000000003,-0.9,0.2,-0.1
1698674841826.0,16,0.0,0.0,0.0,-0.6000000000000001,9.3,2.3000000000000003,-0.9,0.4,-0.2
1698674841843.0,16,0.0,0.0,0.0,-0.6000000000000001,9.3,2.3000000000000003,-0.9,0.9,0.0
1698674841859.0,16,0.0,0.0,0.0,-0.7000000000000001,9.200000000000001,2.3000000000000003,-1.0999999999999999,1.2000000000000002,0.1
1698674841876.0,16,0.0,0.0,0.0,-0.7000000000000001,9.3,2.3000000000000003,-1.3,1.2000000000000002,0.30000000000000004
1698674841893.0,16,0.0,0.0,0.0,-0.7000000000000001,9.200000000000001,2.3000000000000003,-1.2000000000000002,1.0999999999999999,0.2
1698674841909.0,16,0.0,0.0,0.0,-0.7000000000000001,9.200000000000001,2.3000000000000003,-0.7,1.0999999999999999,0.30000000000000004
1698674841926.0,16,0.0,-0.1,0.0,-0.7000000000000001,9.200000000000001,2.3000000000000003,-0.5,0.7,0.30000000000000004
1698674841942.0,16,0.0,0.0,0.0,-0.7000000000000001,9.200000000000001,2.4000000000000004,-0.30000000000000004,0.4,0.30000000000000004
1698674841959.0,16,0.0,0.0,0.0,-0.7000000000000001,9.200000000000001,2.4000000000000004,-0.1,0.2,0.1
1698674841976.0,16,0.0,0.0,0.0,-0.7000000000000001,9.200000000000001,2.4000000000000004,0.0,0.4,0.0
1698674841992.0,16,0.0,0.0,0.0,-0.7000000000000001,9.200000000000001,2.4000000000000004,-0.1,0.4,0.30000000000000004
1698674842010.0,16,0.0,0.0,0.0,-0.7000000000000001,9.200000000000001,2.4000000000000004,-0.1,0.4,0.30000000000000004
1698674842026.0,16,0.0,0.0,0.0,-0.7000000000000001,9.200000000000001,2.4000000000000004,-0.1,0.4,0.30000000000000004
1698674842043.0,16,0.0,0.0,0.0,-0.7000000000000001,9.200000000000001,2.3000000000000003,0.30000000000000004,-0.30000000000000004,0.1
1698674842059.0,16,0.0,0.0,0.0,-0.7000000000000001,9.200000000000001,2.3000000000000003,0.4,-0.6000000000000001,0.0
1698674842076.0,16,0.0,0.0,0.0,-0.7000000000000001,9.200000000000001,2.4000000000000004,0.5,-0.7,-0.1
1698674842093.0,16,0.0,0.0,0.1,-0.7000000000000001,9.200000000000001,2.4000000000000004,0.9,-0.7,-0.1
1698674842109.0,16,0.0,0.0,0.0,-0.6000000000000001,9.200000000000001,2.4000000000000004,0.8,-0.5,-0.1
1698674842128.0,16,0.0,0.0,0.1,-0.7000000000000001,9.200000000000001,2.4000000000000004,0.7,-0.4,0.1
1698674842142.0,16,0.0,0.0,0.0,-0.7000000000000001,9.3,2.4000000000000004,0.30000000000000004,-0.8,0.30000000000000004
1698674842159.0,16,0.0,0.0,0.0,-0.7000000000000001,9.3,2.4000000000000004,0.1,-1.4,-0.1
1698674842176.0,16,0.0,0.0,0.0,-0.7000000000000001,9.3,2.4000000000000004,-0.30000000000000004,-1.8,-0.6000000000000001
1698674842192.0,16,0.0,0.0,0.0,-0.6000000000000001,9.200000000000001,2.4000000000000004,-0.7,-1.6,-0.6000000000000001
1698674842209.0,16,0.0,0.0,0.0,-0.7000000000000001,9.200000000000001,2.4000000000000004,-0.6000000000000001,-1.0999999999999999,-0.6000000000000001
1698674842226.0,16,0.0,0.0,0.0,-0.6000000000000001,9.200000000000001,2.4000000000000004,-0.2,-0.9,-0.5
1698674842243.0,16,0.0,-0.1,0.0,-0.6000000000000001,9.200000000000001,2.4000000000000004,0.30000000000000004,-0.6000000000000001,-0.5
1698674842259.0,16,0.0,0.0,0.0,-0.6000000000000001,9.200000000000001,2.3000000000000003,0.5,-0.30000000000000004,-0.4
1698674842275.0,16,0.0,0.0,0.0,-0.6000000000000001,9.200000000000001,2.4000000000000004,0.5,0.2,-0.4
1698674842292.0,16,0.0,0.0,0.0,-0.6000000000000001,9.3,2.4000000000000004,0.4,0.4,-0.4
1698674842310.0,16,0.0,0.0,0.0,-0.6000000000000001,9.200000000000001,2.3000000000000003,-0.5,0.30000000000000004,-0.30000000000000004
1698674842326.0,16,0.0,0.0,0.0,-0.6000000000000001,9.200000000000001,2.3000000000000003,-0.5,0.30000000000000004,-0.30000000000000004
1698674842342.0,16,0.0,0.0,0.0,-0.6000000000000001,9.200000000000001,2.3000000000000003,-0.30000000000000004,0.2,-0.2
1698674842359.0,16,0.0,0.0,0.0,-0.6000000000000001,9.200000000000001,2.3000000000000003,0.2,0.7,0.1
1698674842375.0,16,0.0,0.0,0.0,-0.6000000000000001,9.200000000000001,2.4000000000000004,0.30000000000000004,0.6000000000000001,0.1
1698674842392.0,16,0.0,0.0,0.0,-0.6000000000000001,9.200000000000001,2.3000000000000003,0.4,1.0,0.30000000000000004
1698674842409.0,16,0.0,0.0,0.0,-0.7000000000000001,9.200000000000001,2.4000000000000004,0.30000000000000004,1.0999999999999999,0.30000000000000004
1698674842426.0,16,0.0,0.0,0.0,-0.7000000000000001,9.200000000000001,2.4000000000000004,0.2,0.8,0.2
1698674842443.0,16,0.0,0.0,0.0,-0.7000000000000001,9.200000000000001,2.3000000000000003,0.2,0.7,0.2
1698674842460.0,16,0.0,0.0,0.0,-0.7000000000000001,9.200000000000001,2.3000000000000003,0.1,0.6000000000000001,0.2
1698674842476.0,16,0.0,0.0,0.0,-0.7000000000000001,9.200000000000001,2.4000000000000004,0.5,0.7,0.1
1698674842492.0,16,0.0,0.0,0.0,-0.7000000000000001,9.200000000000001,2.4000000000000004,0.8,0.5,-0.1
1698674842510.0,16,0.0,0.0,0.0,-0.6000000000000001,9.200000000000001,2.4000000000000004,0.8,0.7,-0.1
1698674842526.0,16,0.0,0.0,0.0,-0.7000000000000001,9.200000000000001,2.4000000000000004,0.5,1.0999999999999999,0.0
1698674842542.0,16,0.0,0.0,0.0,-0.7000000000000001,9.200000000000001,2.4000000000000004,0.4,1.2000000000000002,0.1
1698674842559.0,16,0.0,0.1,0.0,-0.7000000000000001,9.3,2.3000000000000003,-0.4,2.4000000000000004,0.5
1698674842576.0,16,0.0,0.1,0.0,-0.7000000000000001,9.3,2.3000000000000003,-0.9,2.3000000000000003,0.8
1698674842592.0,16,0.0,0.0,0.0,-0.7000000000000001,9.200000000000001,2.4000000000000004,-0.9,2.6,1.0
1698674842609.0,16,0.0,0.0,0.0,-0.7000000000000001,9.3,2.3000000000000003,-0.2,2.6,1.7
1698674842626.0,16,-0.1,0.1,0.0,-0.7000000000000001,9.3,2.3000000000000003,0.0,1.6,1.4
1698674842643.0,16,0.0,0.0,0.0,-0.7000000000000001,9.200000000000001,2.4000000000000004,0.1,0.0,0.5
1698674842659.0,16,0.0,-0.1,0.0,-0.7000000000000001,9.1,2.4000000000000004,-0.1,-0.9,-0.2
1698674842676.0,16,0.0,-0.1,0.0,-0.7000000000000001,9.200000000000001,2.4000000000000004,0.30000000000000004,0.30000000000000004,0.30000000000000004
1698674842692.0,16,0.0,-0.1,0.1,-0.7000000000000001,9.1,2.4000000000000004,0.9,1.0999999999999999,0.4
1698674842709.0,16,0.0,-0.1,0.0,-0.6000000000000001,9.1,2.4000000000000004,2.1,2.4000000000000004,0.30000000000000004
1698674842725.0,16,0.0,0.0,0.0,-0.7000000000000001,9.200000000000001,2.3000000000000003,2.1,2.4000000000000004,0.30000000000000004
1698674842742.0,16,0.0,0.1,0.0,-0.7000000000000001,9.3,2.3000000000000003,1.6,1.7,0.30000000000000004
1698674842759.0,16,0.0,0.1,0.0,-0.7000000000000001,9.3,2.4000000000000004,0.9,0.4,0.0
1698674842776.0,16,0.0,0.0,0.0,-0.7000000000000001,9.3,2.3000000000000003,0.5,0.0,-0.1
1698674842792.0,16,0.0,0.0,0.0,-0.7000000000000001,9.200000000000001,2.4000000000000004,0.5,0.7,0.0
1698674842809.0,16,0.0,0.0,0.0,-0.7000000000000001,9.200000000000001,2.3000000000000003,0.7,1.0,0.6000000000000001
1698674842826.0,16,0.0,0.0,-0.1,-0.7000000000000001,9.3,2.3000000000000003,0.7,1.0999999999999999,0.6000000000000001
1698674842842.0,16,-0.1,0.0,0.0,-0.7000000000000001,9.3,2.3000000000000003,0.4,1.3,0.7
1698674842859.0,16,-0.1,0.0,0.0,-0.8,9.3,2.3000000000000003,0.6000000000000001,0.8,0.8
1698674842876.0,16,-0.1,0.0,0.0,-0.7000000000000001,9.3,2.3000000000000003,0.5,1.0,0.7
1698674842892.0,16,0.0,0.0,-0.1,-0.7000000000000001,9.3,2.2,-0.2,0.7,0.2
1698674842909.0,16,-0.1,0.1,-0.1,-0.7000000000000001,9.3,2.2,-0.4,-0.30000000000000004,-0.4
1698674842926.0,16,-0.1,0.1,-0.1,-0.8,9.200000000000001,2.3000000000000003,-0.30000000000000004,-0.6000000000000001,-0.4
1698674842942.0,16,-0.1,0.0,0.0,-0.7000000000000001,9.200000000000001,2.3000000000000003,0.5,-0.9,-0.6000000000000001
1698674842959.0,16,0.0,-0.1,0.0,-0.7000000000000001,9.1,2.3000000000000003,0.5,-1.0,-0.7
1698674842976.0,16,0.0,0.0,0.0,-0.7000000000000001,9.200000000000001,2.3000000000000003,0.7,-1.5000000000000002,-0.8
1698674842992.0,16,0.0,0.0,0.0,-0.7000000000000001,9.200000000000001,2.3000000000000003,0.7,-1.6,-0.8
1698674843011.0,16,0.0,0.0,0.0,-0.7000000000000001,9.3,2.3000000000000003,0.7,-1.4,-1.0
1698674843026.0,16,0.0,0.0,0.0,-0.6000000000000001,9.3,2.3000000000000003,0.9,-1.5000000000000002,-1.0
1698674843042.0,16,0.0,0.0,0.0,-0.7000000000000001,9.3,2.3000000000000003,0.7,-1.2000000000000002,-0.8
1698674843059.0,16,0.0,0.0,0.0,-0.7000000000000001,9.3,2.3000000000000003,0.4,-1.0999999999999999,-0.6000000000000001
1698674843076.0,16,0.0,0.0,0.0,-0.7000000000000001,9.3,2.3000000000000003,0.30000000000000004,-1.0999999999999999,-0.5
1698674843092.0,16,0.0,0.0,0.0,-0.7000000000000001,9.3,2.2,0.5,-1.2000000000000002,-0.4
1698674843109.0,16,0.0,0.0,0.0,-0.7000000000000001,9.200000000000001,2.3000000000000003,0.7,-0.9,-0.30000000000000004
1698674843126.0,16,0.0,0.0,0.0,-0.7000000000000001,9.200000000000001,2.3000000000000003,1.0999999999999999,-1.0,-0.4
1698674843142.0,16,0.0,-0.1,0.0,-0.7000000000000001,9.200000000000001,2.3000000000000003,1.2000000000000002,-0.6000000000000001,-0.4
1698674843159.0,16,0.0,0.0,0.0,-0.7000000000000001,9.200000000000001,2.3000000000000003,1.3,-0.30000000000000004,-0.2
1698674843176.0,16,0.0,0.0,0.0,-0.7000000000000001,9.3,2.3000000000000003,1.3,-0.1,-0.2
1698674843192.0,16,0.0,0.0,0.0,-0.7000000000000001,9.3,2.3000000000000003,1.0,-0.1,-0.1
1698674843209.0,16,0.0,0.1,0.0,-0.7000000000000001,9.3,2.2,0.5,-0.30000000000000004,-0.2
1698674843226.0,16,0.0,0.0,0.0,-0.7000000000000001,9.3,2.3000000000000003,0.4,-0.2,-0.30000000000000004
1698674843242.0,16,0.0,0.0,0.0,-0.7000000000000001,9.3,2.3000000000000003,0.7,-0.1,-0.4
1698674843259.0,16,0.0,0.0,0.0,-0.7000000000000001,9.200000000000001,2.3000000000000003,0.8,0.0,-0.4
1698674843276.0,16,0.0,0.0,0.0,-0.7000000000000001,9.200000000000001,2.3000000000000003,0.9,0.1,-0.30000000000000004
1698674843292.0,16,0.0,0.0,0.0,-0.7000000000000001,9.200000000000001,2.3000000000000003,0.7,0.2,-0.30000000000000004
1698674843310.0,16,0.0,0.0,0.0,-0.7000000000000001,9.3,2.3000000000000003,0.5,0.2,-0.30000000000000004
1698674843326.0,16,0.0,0.0,0.0,-0.7000000000000001,9.3,2.3000000000000003,0.4,0.4,-0.30000000000000004
1698674843342.0,16,0.0,0.0,0.0,-0.7000000000000001,9.3,2.3000000000000003,0.4,0.4,-0.1
1698674843359.0,16,0.0,0.0,0.0,-0.7000000000000001,9.3,2.2,0.5,0.4,-0.1
1698674843376.0,16,0.0,0.0,0.0,-0.7000000000000001,9.3,2.3000000000000003,0.30000000000000004,0.4,0.0
1698674843393.0,16,0.0,0.0,0.0,-0.7000000000000001,9.200000000000001,2.3000000000000003,0.30000000000000004,0.4,0.0
1698674843410.0,16,0.0,0.0,0.0,-0.7000000000000001,9.3,2.2,0.2,0.4,0.2
1698674843426.0,16,0.0,0.0,-0.1,-0.7000000000000001,9.3,2.2,0.1,0.1,0.2
1698674843442.0,16,0.0,0.0,0.0,-0.7000000000000001,9.3,2.2,0.1,-0.1,0.2
1698674843459.0,16,0.0,0.0,0.0,-0.7000000000000001,9.200000000000001,2.2,0.1,-0.7,-0.1
1698674843476.0,16,0.0,0.0,0.0,-0.7000000000000001,9.3,2.2,0.30000000000000004,-1.0,-0.1
1698674843492.0,16,0.0,0.0,0.0,-0.7000000000000001,9.3,2.2,0.2,-1.0,-0.1
1698674843509.0,16,0.0,0.0,0.0,-0.7000000000000001,9.3,2.2,0.1,-1.4,-0.30000000000000004
1698674843526.0,16,0.0,0.0,0.0,-0.7000000000000001,9.3,2.2,0.0,-1.5000000000000002,-0.4
1698674843543.0,16,0.0,0.0,0.0,-0.7000000000000001,9.200000000000001,2.2,-0.1,-1.6,-0.4
1698674843559.0,16,0.0,0.0,0.0,-0.7000000000000001,9.200000000000001,2.2,-0.1,-1.7,-0.4
1698674843576.0,16,0.0,0.0,0.0,-0.7000000000000001,9.200000000000001,2.2,0.1,-1.8,-0.5
1698674843593.0,16,0.0,0.0,0.0,-0.7000000000000001,9.3,2.2,0.30000000000000004,-1.8,-0.4
1698674843609.0,16,0.0,0.0,0.0,-0.7000000000000001,9.3,2.3000000000000003,0.4,-1.5000000000000002,-0.30000000000000004
1698674843626.0,16,0.0,0.0,0.0,-0.7000000000000001,9.3,2.2,0.4,-1.5000000000000002,-0.1
1698674843643.0,16,0.0,0.0,0.0,-0.7000000000000001,9.3,2.2,0.1,-1.5000000000000002,0.2
1698674843659.0,16,0.0,0.1,0.0,-0.7000000000000001,9.3,2.2,0.0,-2.0,-0.1
1698674843676.0,16,0.0,0.0,0.0,-0.7000000000000001,9.3,2.3000000000000003,-0.4,-2.4000000000000004,-0.4
1698674843695.0,16,0.0,0.0,0.0,-0.7000000000000001,9.200000000000001,2.2,-0.7,-2.1,-0.5
1698674843710.0,16,0.0,0.0,0.0,-0.7000000000000001,9.200000000000001,2.2,-1.0,-2.0,-0.4
1698674843725.0,16,0.0,0.0,0.0,-0.7000000000000001,9.200000000000001,2.2,-0.7,-1.9,-0.4
1698674843743.0,16,0.0,-0.1,0.0,-0.7000000000000001,9.200000000000001,2.2,-0.30000000000000004,-2.0,-0.30000000000000004
1698674843759.0,16,0.0,0.0,0.0,-0.7000000000000001,9.200000000000001,2.3000000000000003,0.5,-1.6,-0.30000000000000004
1698674843776.0,16,0.0,0.0,0.0,-0.7000000000000001,9.200000000000001,2.3000000000000003,0.8,-1.9,-0.1
1698674843792.0,16,0.0,0.0,0.0,-0.7000000000000001,9.200000000000001,2.3000000000000003,0.5,-2.1999999999999997,-0.1
1698674843809.0,16,0.0,0.0,0.0,-0.6000000000000001,9.200000000000001,2.2,0.4,-2.8,-0.1
1698674843828.0,16,0.0,0.0,0.0,-0.6000000000000001,9.200000000000001,2.2,0.4,-4.0,0.4
1698674843843.0,16,0.0,0.0,0.0,-0.6000000000000001,9.3,2.3000000000000003,0.7,-4.0,0.6000000000000001
1698674843859.0,16,0.1,0.0,0.1,-0.6000000000000001,9.3,2.3000000000000003,1.2000000000000002,-3.4,0.1
1698674843876.0,16,0.1,0.0,0.0,-0.5,9.200000000000001,2.3000000000000003,1.5000000000000002,-3.2,-0.2
1698674843892.0,16,0.1,0.0,0.0,-0.5,9.200000000000001,2.3000000000000003,0.9,-2.4000000000000004,0.30000000000000004
1698674843910.0,16,0.1,0.0,0.0,-0.5,9.200000000000001,2.3000000000000003,0.5,-2.1,0.4
1698674843926.0,16,0.2,0.1,0.0,-0.5,9.4,2.2,0.30000000000000004,-1.0999999999999999,0.4
1698674843942.0,16,0.2,0.2,0.1,-0.5,9.4,2.3000000000000003,0.0,0.7,0.1
1698674843959.0,16,0.1,0.1,0.1,-0.5,9.4,2.3000000000000003,-0.1,1.8,0.0
1698674843976.0,16,0.1,0.0,0.0,-0.5,9.200000000000001,2.3000000000000003,-0.9,2.7,0.2
1698674843992.0,16,0.0,0.0,0.0,-0.6000000000000001,9.200000000000001,2.2,-1.4,3.5,0.5
1698674844009.0,16,-0.1,0.0,0.0,-0.7000000000000001,9.200000000000001,2.3000000000000003,-1.2000000000000002,3.8,0.5
1698674844026.0,16,-0.1,0.0,0.0,-0.7000000000000001,9.200000000000001,2.2,-0.30000000000000004,3.6,0.0
1698674844042.0,16,0.0,-0.1,0.0,-0.7000000000000001,9.200000000000001,2.3000000000000003,0.1,3.6,-0.4
1698674844059.0,16,0.0,0.0,0.0,-0.6000000000000001,9.200000000000001,2.3000000000000003,0.2,3.6,-0.4
1698674844076.0,16,0.0,-0.1,0.0,-0.7000000000000001,9.200000000000001,2.2,-0.4,3.6,-0.5
1698674844092.0,16,-0.1,0.0,0.0,-0.7000000000000001,9.200000000000001,2.2,-0.5,3.4,-0.4
1698674844110.0,16,-0.1,0.0,0.0,-0.7000000000000001,9.200000000000001,2.3000000000000003,-0.2,2.9,-0.30000000000000004
1698674844126.0,16,-0.1,0.0,0.0,-0.7000000000000001,9.3,2.2,0.5,2.8,-0.2
1698674844143.0,16,0.0,0.0,0.0,-0.7000000000000001,9.3,2.2,0.7,2.9,-0.1
1698674844159.0,16,0.0,0.0,0.0,-0.7000000000000001,9.3,2.2,0.7,2.8,-0.1
1698674844176.0,16,0.0,0.0,0.0,-0.7000000000000001,9.200000000000001,2.2,0.30000000000000004,2.1999999999999997,-0.1
1698674844192.0,16,-0.1,0.0,0.0,-0.7000000000000001,9.3,2.2,0.1,2.3000000000000003,-0.1
1698674844209.0,16,-0.1,0.0,0.0,-0.7000000000000001,9.3,2.2,0.2,2.6,-0.1
1698674844226.0,16,0.0,0.0,0.0,-0.7000000000000001,9.3,2.2,0.5,2.7,-0.30000000000000004
1698674844242.0,16,0.0,0.0,0.0,-0.7000000000000001,9.3,2.3000000000000003,0.4,3.0000000000000004,-0.4
1698674844259.0,16,0.0,0.0,0.0,-0.7000000000000001,9.200000000000001,2.2,0.30000000000000004,3.6,-0.6000000000000001
1698674844277.0,16,-0.1,0.0,0.0,-0.8,9.3,2.2,0.4,3.7000000000000006,-0.5
1698674844292.0,16,-0.1,0.0,0.0,-0.8,9.3,2.2,0.5,3.6,-0.4
1698674844309.0,16,0.0,0.0,0.0,-0.7000000000000001,9.200000000000001,2.2,0.7,3.3000000000000003,-0.4
1698674844325.0,16,0.0,-0.1,0.0,-0.7000000000000001,9.200000000000001,2.3000000000000003,0.9,3.2,-0.4
1698674844342.0,16,0.0,-0.1,0.0,-0.7000000000000001,9.200000000000001,2.3000000000000003,1.2000000000000002,3.1,-0.4
1698674844360.0,16,0.0,-0.1,0.0,-0.8,9.200000000000001,2.3000000000000003,1.2000000000000002,3.0000000000000004,-0.4
1698674844376.0,16,0.0,0.0,0.0,-0.7000000000000001,9.200000000000001,2.3000000000000003,1.5000000000000002,2.6,-0.1
1698674844392.0,16,-0.1,0.0,0.1,-0.8,9.200000000000001,2.3000000000000003,1.8,2.6,-0.1
1698674844409.0,16,0.0,0.0,0.1,-0.8,9.200000000000001,2.3000000000000003,1.9,2.9,0.2
1698674844426.0,16,0.0,0.0,0.1,-0.7000000000000001,9.3,2.3000000000000003,1.8,2.4000000000000004,0.2
1698674844443.0,16,-0.1,0.0,0.1,-0.8,9.3,2.3000000000000003,1.6,1.0999999999999999,0.1
1698674844459.0,16,-0.1,0.1,0.1,-0.8,9.3,2.2,0.9,0.4,-0.4
1698674844476.0,16,-0.1,0.0,0.1,-0.8,9.3,2.3000000000000003,0.4,0.4,-0.6000000000000001
1698674844493.0,16,0.0,-0.1,0.0,-0.8,9.200000000000001,2.3000000000000003,0.1,0.1,-0.8
1698674844510.0,16,-0.1,0.0,0.0,-0.8,9.3,2.2,0.2,0.2,-0.9
1698674844525.0,16,0.0,0.0,0.0,-0.8,9.3,2.2,0.9,-0.4,-1.0999999999999999
1698674844542.0,16,0.0,0.0,0.0,-0.8,9.3,2.2,1.6,-0.30000000000000004,-1.0999999999999999
1698674844559.0,16,0.0,0.0,0.0,-0.8,9.3,2.2,2.0,-0.9,-1.2000000000000002
1698674844576.0,16,0.0,0.1,0.0,-0.7000000000000001,9.3,2.2,2.0,-1.0999999999999999,-1.4
1698674844592.0,16,0.1,0.1,0.0,-0.7000000000000001,9.4,2.2,1.3,-0.9,-1.6
1698674844609.0,16,0.1,0.1,0.0,-0.7000000000000001,9.4,2.2,0.9,-0.9,-1.7
1698674844626.0,16,0.1,0.0,0.0,-0.6000000000000001,9.3,2.2,0.30000000000000004,-0.7,-1.4
1698674844642.0,16,0.1,0.0,-0.1,-0.7000000000000001,9.200000000000001,2.1,0.1,-0.9,-0.6000000000000001
1698674844660.0,16,0.0,0.0,-0.1,-0.7000000000000001,9.200000000000001,2.1,0.4,-1.5000000000000002,-0.5
1698674844676.0,16,0.0,0.0,-0.1,-0.7000000000000001,9.3,2.1,0.8,-1.7,-0.7
1698674844692.0,16,0.1,0.0,-0.1,-0.7000000000000001,9.3,2.1,1.5000000000000002,-2.0,-1.0999999999999999
1698674844710.0,16,0.1,0.0,-0.1,-0.7000000000000001,9.3,2.1,1.8,-2.7,-1.4
1698674844726.0,16,0.1,0.0,-0.1,-0.7000000000000001,9.3,2.1,1.8,-3.2,-1.6
1698674844743.0,16,0.1,0.0,-0.1,-0.7000000000000001,9.3,2.1,1.7,-3.7000000000000006,-2.0
1698674844759.0,16,0.1,0.0,0.0,-0.7000000000000001,9.3,2.1,1.8,-3.5,-2.1
1698674844776.0,16,0.1,0.0,-0.1,-0.7000000000000001,9.3,2.1,1.9,-3.2,-2.1999999999999997
1698674844792.0,16,0.1,0.0,0.0,-0.6000000000000001,9.3,2.1,2.3000000000000003,-2.5,-2.1
1698674844809.0,16,0.1,0.0,0.0,-0.6000000000000001,9.3,2.1,2.3000000000000003,-2.0,-1.8
1698674844826.0,16,0.1,0.0,0.0,-0.6000000000000001,9.3,2.1,2.1,-2.0,-1.7
1698674844843.0,16,0.1,0.0,0.0,-0.6000000000000001,9.3,2.1,1.9,-1.8,-1.4
1698674844860.0,16,0.1,0.0,0.0,-0.7000000000000001,9.3,2.1,1.6,-1.4,-1.0
1698674844876.0,16,0.1,0.0,0.0,-0.7000000000000001,9.3,2.1,1.5000000000000002,-1.2000000000000002,-1.0
1698674844892.0,16,0.1,0.0,0.0,-0.7000000000000001,9.3,2.1,1.5000000000000002,-1.0,-1.2000000000000002
1698674844909.0,16,0.1,0.0,0.0,-0.6000000000000001,9.3,2.1,1.5000000000000002,-0.4,-1.4
1698674844925.0,16,0.1,0.0,0.0,-0.6000000000000001,9.3,2.1,1.3,0.4,-1.4
1698674844942.0,16,0.1,0.1,0.0,-0.7000000000000001,9.4,2.1,1.0999999999999999,0.6000000000000001,-1.2000000000000002
1698674844959.0,16,0.1,0.1,0.0,-0.7000000000000001,9.4,2.1,0.8,0.9,-1.0
1698674844976.0,16,0.0,0.1,0.0,-0.7000000000000001,9.4,2.1,0.7,0.9,-0.9
1698674844992.0,16,0.0,0.1,0.0,-0.7000000000000001,9.4,2.1,0.2,0.2,-1.0999999999999999
1698674845009.0,16,0.0,0.1,0.0,-0.7000000000000001,9.4,2.1,-1.0999999999999999,0.2,-1.4
1698674845026.0,16,0.0,0.1,0.0,-0.8,9.4,2.1,-1.7,0.2,-1.7
1698674845043.0,16,0.0,0.1,0.0,-0.8,9.5,2.1,-3.0000000000000004,-0.9,-2.1999999999999997
1698674845059.0,16,0.0,0.1,0.1,-0.8,9.5,2.2,-4.1000000000000005,-2.0,-2.1999999999999997
1698674845076.0,16,0.0,0.1,0.0,-0.8,9.5,2.2,-4.5,-2.1,-2.3000000000000003
1698674845092.0,16,0.0,0.1,0.1,-0.7000000000000001,9.4,2.2,-6.5,-1.0999999999999999,-2.5
1698674845109.0,16,0.0,0.2,0.1,-0.8,9.5,2.3000000000000003,-8.4,0.4,-3.1
1698674845126.0,16,0.0,0.2,0.1,-0.8,9.600000000000001,2.3000000000000003,-9.8,1.0999999999999999,-3.6
1698674845142.0,16,0.0,0.4,0.30000000000000004,-0.8,9.700000000000001,2.5,-13.6,2.4000000000000004,-3.4
1698674845159.0,16,0.0,0.30000000000000004,0.4,-0.8,9.600000000000001,2.6,-15.000000000000002,2.9,-3.6
1698674845176.0,16,0.1,0.1,0.4,-0.7000000000000001,9.4,2.7,-17.599999999999998,5.2,-3.1
1698674845193.0,16,0.1,-0.2,0.2,-0.7000000000000001,9.1,2.6,-21.400000000000002,10.5,-1.5000000000000002
1698674845209.0,16,0.2,-0.2,0.0,-0.7000000000000001,9.1,2.4000000000000004,-23.8,13.8,-0.30000000000000004
1698674845226.0,16,-0.1,-0.1,-0.2,-0.9,9.1,2.3000000000000003,-22.8,15.6,0.9
1698674845243.0,16,-0.2,0.0,-0.30000000000000004,-1.1,9.200000000000001,2.3000000000000003,-21.6,15.9,1.3
1698674845260.0,16,-0.4,-0.1,-0.30000000000000004,-1.5,8.9,2.3000000000000003,-17.3,16.2,1.9
1698674845276.0,16,-0.7000000000000001,-0.5,-0.4,-1.6,8.8,2.3000000000000003,-15.100000000000001,16.6,2.1
1698674845292.0,16,-0.7000000000000001,-0.6000000000000001,-0.5,-1.6,8.6,2.2,-11.4,16.900000000000002,2.1999999999999997
1698674845309.0,16,-0.7000000000000001,-0.5,-0.5,-1.6,8.700000000000001,2.2,-7.2,14.4,1.9
1698674845326.0,16,-0.8,-0.30000000000000004,-0.5,-1.7000000000000002,8.9,2.2,-2.0,11.9,1.6
1698674845343.0,16,-0.9,-0.2,-0.4,-1.8,9.0,2.2,0.5,11.000000000000002,1.2000000000000002
1698674845359.0,16,-0.9,-0.30000000000000004,-0.4,-1.9000000000000001,8.9,2.2,4.3999999999999995,9.3,-0.1
1698674845376.0,16,-0.9,-0.4,-0.5,-1.8,8.8,2.2,5.4,7.400000000000001,-0.30000000000000004
1698674845392.0,16,-0.8,-0.4,-0.2,-1.8,8.8,2.4000000000000004,5.7,3.5,0.5
1698674845409.0,16,-0.7000000000000001,-0.1,0.0,-1.7000000000000002,9.1,2.6,6.6000000000000005,1.3,0.6000000000000001
1698674845425.0,16,-0.5,0.0,0.1,-1.5,9.200000000000001,2.7,5.7,0.30000000000000004,0.5
1698674845442.0,16,-0.5,0.0,0.2,-1.4000000000000001,9.200000000000001,2.8000000000000003,5.300000000000001,0.6000000000000001,0.8
1698674845459.0,16,-0.4,0.2,0.1,-1.3,9.4,2.7,5.2,0.9,1.5000000000000002
1698674845476.0,16,-0.30000000000000004,0.4,0.0,-1.3,9.600000000000001,2.6,4.0,0.8,1.3
1698674845492.0,16,-0.5,0.30000000000000004,-0.1,-1.5,9.5,2.5,1.6,-1.7,1.3
1698674845509.0,16,-0.8,0.1,-0.2,-1.8,9.3,2.4000000000000004,1.8,-3.9,0.4
1698674845528.0,16,-0.8,0.0,-0.1,-1.8,9.200000000000001,2.4000000000000004,3.1,-6.000000000000001,-1.7
1698674845543.0,16,-0.7000000000000001,-0.1,0.0,-1.7000000000000002,9.1,2.5,3.8,-6.8,-2.5
1698674845560.0,16,-0.4,-0.2,0.1,-1.4000000000000001,9.0,2.7,5.0,-7.1000000000000005,-3.0000000000000004
1698674845576.0,16,0.0,-0.2,0.2,-1.0,9.0,2.7,4.6000000000000005,-7.0,-3.1
1698674845592.0,16,0.1,-0.2,0.2,-0.9,9.0,2.7,3.7000000000000006,-6.3,-2.4000000000000004
1698674845609.0,16,0.1,-0.2,0.1,-0.8,9.0,2.6,1.5000000000000002,-4.5,-0.4
1698674845625.0,16,0.1,-0.2,0.0,-0.9,9.1,2.5,0.8,-3.8,1.6
1698674845642.0,16,0.1,-0.1,0.0,-0.9,9.1,2.5,1.3,-3.4,2.1999999999999997
1698674845660.0,16,0.0,0.0,-0.1,-0.9,9.3,2.4000000000000004,3.4,-2.1,2.7
1698674845676.0,16,0.0,0.0,-0.1,-0.9,9.200000000000001,2.4000000000000004,5.300000000000001,-2.3000000000000003,2.8
1698674845693.0,16,0.0,0.0,0.0,-0.9,9.200000000000001,2.4000000000000004,5.6,-2.3000000000000003,3.1
1698674845709.0,16,0.0,-0.1,0.0,-0.9,9.200000000000001,2.4000000000000004,5.2,-1.4,3.5
1698674845725.0,16,0.0,0.0,0.0,-0.9,9.200000000000001,2.4000000000000004,4.2,-0.9,3.2
1698674845742.0,16,0.1,0.0,-0.1,-0.8,9.3,2.4000000000000004,3.4,-1.2000000000000002,3.1
1698674845759.0,16,0.1,0.0,0.0,-0.8,9.3,2.4000000000000004,3.2,-1.5000000000000002,3.3000000000000003
1698674845776.0,16,0.0,0.0,0.0,-0.9,9.200000000000001,2.4000000000000004,3.4,-1.4,3.9
1698674845793.0,16,0.1,0.0,0.0,-0.8,9.3,2.4000000000000004,3.4,-1.7,4.300000000000001
1698674845810.0,16,0.0,0.0,0.0,-0.8,9.3,2.4000000000000004,3.3000000000000003,-2.3000000000000003,4.0
1698674845826.0,16,0.1,0.0,0.0,-0.8,9.3,2.4000000000000004,2.5,-2.3000000000000003,3.3000000000000003
1698674845843.0,16,0.1,-0.1,0.0,-0.7000000000000001,9.200000000000001,2.4000000000000004,1.7,-3.1,3.0000000000000004
1698674845859.0,16,0.1,-0.1,0.0,-0.7000000000000001,9.200000000000001,2.4000000000000004,1.2000000000000002,-3.4,3.0000000000000004
1698674845876.0,16,0.0,-0.1,0.0,-0.8,9.200000000000001,2.4000000000000004,0.6000000000000001,-4.0,3.3000000000000003
1698674845893.0,16,0.0,0.0,0.0,-0.8,9.200000000000001,2.4000000000000004,0.6000000000000001,-4.2,3.4
1698674845910.0,16,0.0,0.0,0.0,-0.8,9.3,2.4000000000000004,1.0,-4.2,3.0000000000000004
1698674845927.0,16,0.0,0.0,0.0,-0.7000000000000001,9.3,2.3000000000000003,1.3,-4.0,2.7
1698674845943.0,16,0.0,0.0,-0.1,-0.7000000000000001,9.200000000000001,2.3000000000000003,1.0,-4.9,2.7
1698674845960.0,16,0.0,0.0,-0.1,-0.7000000000000001,9.3,2.3000000000000003,0.7,-5.4,2.5
1698674845976.0,16,0.1,0.0,-0.1,-0.7000000000000001,9.3,2.3000000000000003,0.2,-6.2,2.3000000000000003
1698674845992.0,16,0.0,0.0,-0.1,-0.7000000000000001,9.3,2.3000000000000003,0.0,-6.4,2.1999999999999997
1698674846009.0,16,0.1,0.0,-0.1,-0.6000000000000001,9.3,2.3000000000000003,-0.4,-5.9,2.1
1698674846026.0,16,0.1,-0.1,0.0,-0.6000000000000001,9.200000000000001,2.3000000000000003,-0.2,-5.6,1.8
1698674846042.0,16,0.1,-0.1,0.0,-0.6000000000000001,9.200000000000001,2.3000000000000003,0.0,-4.800000000000001,1.8
1698674846059.0,16,0.1,0.0,0.0,-0.6000000000000001,9.200000000000001,2.3000000000000003,-0.2,-4.2,2.1
1698674846076.0,16,0.0,0.1,0.0,-0.6000000000000001,9.3,2.3000000000000003,-0.6000000000000001,-3.7000000000000006,2.1
1698674846093.0,16,0.0,0.1,-0.1,-0.6000000000000001,9.3,2.3000000000000003,-1.0,-4.2,2.0
1698674846109.0,16,0.0,0.0,-0.1,-0.6000000000000001,9.3,2.3000000000000003,-1.5000000000000002,-4.300000000000001,1.8
1698674846126.0,16,0.0,0.0,-0.1,-0.6000000000000001,9.3,2.3000000000000003,-2.1,-4.7,1.4
1698674846142.0,16,0.0,0.0,-0.1,-0.6000000000000001,9.200000000000001,2.3000000000000003,-2.3000000000000003,-4.2,1.4
1698674846160.0,16,0.0,0.0,-0.1,-0.6000000000000001,9.200000000000001,2.3000000000000003,-2.0,-4.0,1.4
1698674846176.0,16,0.0,0.0,-0.1,-0.6000000000000001,9.200000000000001,2.2,-1.6,-3.8,1.5000000000000002
1698674846192.0,16,0.0,0.0,-0.1,-0.6000000000000001,9.200000000000001,2.2,-1.5000000000000002,-3.7000000000000006,1.8
1698674846210.0,16,0.0,0.0,-0.1,-0.6000000000000001,9.200000000000001,2.3000000000000003,-1.4,-3.8,1.9
1698674846225.0,16,0.0,0.0,-0.1,-0.6000000000000001,9.3,2.3000000000000003,-1.0,-3.9,1.9
1698674846242.0,16,0.0,0.1,-0.1,-0.6000000000000001,9.3,2.2,-1.0,-4.5,1.6
1698674846259.0,16,0.0,0.0,-0.1,-0.6000000000000001,9.3,2.3000000000000003,-1.3,-4.5,1.5000000000000002
1698674846276.0,16,0.1,0.0,-0.1,-0.5,9.3,2.3000000000000003,-1.5000000000000002,-4.5,1.3
1698674846292.0,16,0.0,0.0,-0.1,-0.5,9.200000000000001,2.3000000000000003,-1.5000000000000002,-4.3999999999999995,1.2000000000000002
1698674846309.0,16,0.0,0.0,-0.1,-0.6000000000000001,9.200000000000001,2.3000000000000003,-1.5000000000000002,-4.2,1.3
1698674846326.0,16,0.0,0.0,0.0,-0.6000000000000001,9.200000000000001,2.3000000000000003,-1.6,-4.300000000000001,1.5000000000000002
1698674846342.0,16,0.0,0.0,-0.1,-0.5,9.200000000000001,2.3000000000000003,-1.9,-4.300000000000001,1.5000000000000002
1698674846359.0,16,0.0,0.0,-0.1,-0.5,9.3,2.3000000000000003,-2.1999999999999997,-4.0,1.5000000000000002
1698674846376.0,16,0.0,0.0,0.0,-0.5,9.200000000000001,2.3000000000000003,-2.6,-4.1000000000000005,1.0999999999999999
1698674846392.0,16,0.0,0.0,-0.1,-0.5,9.200000000000001,2.3000000000000003,-2.6,-3.9,0.8
1698674846409.0,16,0.0,0.0,-0.2,-0.5,9.200000000000001,2.2,-3.5,-4.5,0.4
1698674846426.0,16,0.0,0.0,-0.2,-0.6000000000000001,9.200000000000001,2.2,-5.300000000000001,-6.3,-0.30000000000000004
1698674846442.0,16,-0.1,0.0,-0.1,-0.6000000000000001,9.200000000000001,2.3000000000000003,-6.5,-7.500000000000001,-1.0999999999999999
1698674846459.0,16,-0.1,0.0,-0.1,-0.6000000000000001,9.200000000000001,2.3000000000000003,-6.7,-6.6000000000000005,-0.9
1698674846476.0,16,-0.1,0.0,-0.2,-0.6000000000000001,9.200000000000001,2.2,-7.300000000000001,-3.6,0.4
1698674846492.0,16,-0.1,0.1,-0.2,-0.6000000000000001,9.4,2.2,-7.1000000000000005,-0.6000000000000001,1.9
1698674846509.0,16,0.0,0.2,-0.2,-0.5,9.4,2.2,-7.1000000000000005,1.0999999999999999,2.5
1698674846526.0,16,0.0,0.30000000000000004,-0.2,-0.5,9.5,2.3000000000000003,-7.1000000000000005,4.7,3.5
1698674846543.0,16,0.1,0.1,-0.2,-0.4,9.3,2.2,-8.0,5.8,4.9
1698674846559.0,16,0.0,-0.1,-0.30000000000000004,-0.5,9.1,2.2,-10.3,7.6,6.9
1698674846576.0,16,0.0,-0.2,-0.4,-0.5,9.1,2.0,-11.000000000000002,8.9,7.6
1698674846592.0,16,0.0,-0.1,-0.6000000000000001,-0.5,9.1,1.9000000000000001,-10.9,11.2,7.9
1698674846609.0,16,-0.1,0.1,-0.5,-0.5,9.3,2.0,-9.200000000000001,13.3,8.3
1698674846626.0,16,-0.1,0.2,-0.4,-0.5,9.4,2.1,-7.6,12.6,9.5
1698674846642.0,16,0.0,0.4,-0.1,-0.4,9.600000000000001,2.5,-4.300000000000001,6.4,11.3
1698674846660.0,16,-0.2,0.2,0.4,-0.6000000000000001,9.4,2.9000000000000004,-4.9,-3.7000000000000006,9.9
1698674846676.0,16,-0.30000000000000004,0.0,0.4,-0.7000000000000001,9.200000000000001,3.0,-7.400000000000001,-8.1,7.2
1698674846692.0,16,-0.5,-0.2,0.30000000000000004,-0.8,8.9,2.9000000000000004,-16.6,-10.600000000000001,-0.1
1698674846709.0,16,-0.6000000000000001,0.4,0.0,-1.0,9.600000000000001,2.7,-23.700000000000003,-9.200000000000001,-5.0
1698674846726.0,16,-0.6000000000000001,0.9,-0.30000000000000004,-1.0,10.0,2.4000000000000004,-25.700000000000003,-10.1,-5.1
1698674846742.0,16,-0.4,1.2000000000000002,-0.7000000000000001,-0.8,10.4,2.1,-27.3,-11.1,-1.2000000000000002
1698674846759.0,16,-0.1,1.1,-0.9,-0.5,10.200000000000001,1.9000000000000001,-27.0,-12.6,1.3
1698674846776.0,16,0.6000000000000001,0.5,-0.9,0.30000000000000004,9.600000000000001,2.0,-24.7,-14.4,4.3999999999999995
1698674846792.0,16,0.9,0.0,-1.0,0.6000000000000001,9.1,2.0,-22.3,-15.2,5.4
1698674846809.0,16,0.9,-0.1,-0.7000000000000001,0.6000000000000001,8.9,2.3000000000000003,-24.000000000000004,-12.5,6.3
1698674846826.0,16,0.7000000000000001,-0.1,-0.7000000000000001,0.5,8.9,2.4000000000000004,-25.2,-9.5,6.9
1698674846843.0,16,0.30000000000000004,-0.30000000000000004,-0.9,0.1,8.700000000000001,2.3000000000000003,-27.7,-5.6,6.9
1698674846859.0,16,0.0,-0.5,-1.3,-0.1,8.5,1.9000000000000001,-30.799999999999997,-2.9,5.500000000000001
1698674846876.0,16,-0.1,-0.5,-1.7000000000000002,-0.2,8.4,1.7000000000000002,-33.0,-1.4,4.3999999999999995
1698674846893.0,16,0.0,-0.4,-1.8,-0.2,8.5,1.6,-32.5,-1.7,4.300000000000001
1698674846909.0,16,0.0,-0.30000000000000004,-2.2,-0.1,8.5,1.4000000000000001,-31.3,-1.4,4.300000000000001
1698674846926.0,16,0.0,-0.30000000000000004,-2.4000000000000004,-0.1,8.5,1.1,-28.0,3.1,3.5
1698674846943.0,16,0.0,-0.30000000000000004,-2.5,-0.1,8.5,1.0,-25.700000000000003,5.1,2.7
1698674846959.0,16,0.30000000000000004,-0.1,-2.9000000000000004,0.1,8.700000000000001,0.7000000000000001,-17.9,6.8,-1.7
1698674846976.0,16,0.30000000000000004,0.0,-2.8000000000000003,0.2,8.8,0.8,-15.6,8.3,-3.9
1698674846993.0,16,0.4,0.0,-2.5,0.2,8.8,1.1,-8.799999999999999,10.1,-8.3
1698674847010.0,16,0.4,-0.2,-2.3000000000000003,0.2,8.6,1.3,-5.4,10.1,-8.9
1698674847026.0,16,0.5,-0.4,-2.0,0.30000000000000004,8.4,1.6,0.30000000000000004,11.8,-6.1000000000000005
1698674847042.0,16,0.0,-0.2,-1.6,-0.2,8.6,2.0,2.7,17.3,-1.2000000000000002
1698674847059.0,16,-0.4,0.2,-1.6,-0.7000000000000001,9.0,1.9000000000000001,3.7000000000000006,23.2,2.3000000000000003
1698674847076.0,16,-0.5,0.30000000000000004,-1.7000000000000002,-0.8,9.1,1.9000000000000001,2.0,25.3,4.6000000000000005
1698674847092.0,16,-0.2,0.30000000000000004,-1.9000000000000001,-0.5,9.1,1.7000000000000002,-2.7,20.0,7.500000000000001
1698674847109.0,16,0.4,1.0,-1.8,0.2,9.8,1.8,-8.1,14.3,11.9
1698674847126.0,16,0.7000000000000001,1.9000000000000001,-1.8,0.4,10.700000000000001,1.8,-7.8,13.700000000000001,19.9
1698674847142.0,16,0.9,2.5,-2.0,0.7000000000000001,11.3,1.6,-7.400000000000001,16.6,23.2
1698674847159.0,16,0.9,3.7,-2.1,0.8,12.5,1.4000000000000001,-11.000000000000002,23.5,27.400000000000002
1698674847175.0,16,0.8,4.3,-2.0,0.7000000000000001,13.100000000000001,1.5,-13.6,23.900000000000002,28.200000000000003
1698674847192.0,16,0.5,5.300000000000001,-1.8,0.4,14.200000000000001,1.8,-22.7,29.1,23.3
1698674847209.0,16,-0.4,5.1000000000000005,0.2,-0.4,13.9,3.9000000000000004,-17.8,7.500000000000001,15.6
1698674847226.0,16,-0.9,5.1000000000000005,0.2,-1.0,14.0,3.9000000000000004,-8.3,-14.0,14.900000000000002
1698674847242.0,16,-1.8,2.8000000000000003,1.4000000000000001,-1.7000000000000002,11.700000000000001,5.1000000000000005,-0.9,-26.6,8.1
1698674847259.0,16,-2.6,-0.30000000000000004,3.5,-2.5,8.6,7.2,22.5,-24.6,-5.9
1698674847276.0,16,-2.5,-0.1,3.3000000000000003,-2.0,9.0,6.1000000000000005,36.9,-38.2,-5.0
1698674847292.0,16,-1.5,-0.6000000000000001,1.8,-1.5,8.4,5.4,25.6,-43.7,-8.200000000000001
1698674847309.0,16,-0.2,-2.4000000000000004,1.3,-0.2,6.6000000000000005,4.9,-7.300000000000001,-32.1,-25.8
1698674847326.0,16,1.3,-2.6,1.1,1.3,6.300000000000001,4.800000000000001,-5.1,-31.8,-29.1
1698674847344.0,16,2.0,-2.2,1.0,2.2,7.4,4.800000000000001,9.1,-36.9,-21.8
1698674847359.0,16,2.1,-0.8,1.5,2.1,8.200000000000001,5.1000000000000005,16.5,-36.5,-17.1
1698674847375.0,16,1.1,0.1,1.8,1.1,9.0,5.300000000000001,23.8,-30.000000000000004,-8.3
1698674847392.0,16,0.30000000000000004,-0.4,2.4000000000000004,0.30000000000000004,8.6,5.9,18.0,-25.400000000000002,-13.4
1698674847409.0,16,0.0,-0.6000000000000001,2.3000000000000003,0.0,8.4,5.7,12.9,-21.5,-17.8
1698674847425.0,16,-0.1,-0.7000000000000001,1.9000000000000001,-0.1,8.0,4.800000000000001,-1.6,-7.699999999999999,-16.900000000000002
1698674847442.0,16,0.0,-1.4000000000000001,0.8,-0.1,7.6000000000000005,4.3,-6.5,-4.9,-12.5
1698674847459.0,16,-0.1,-1.8,-0.2,-0.2,7.1000000000000005,3.3000000000000003,-9.200000000000001,-1.6,-5.1
1698674847476.0,16,-0.4,-1.8,-0.7000000000000001,-0.5,7.2,2.9000000000000004,-8.3,-0.9,-3.2
1698674847492.0,16,-0.6000000000000001,-1.7000000000000002,-0.7000000000000001,-0.7000000000000001,7.2,2.9000000000000004,-5.8,0.9,-4.1000000000000005
1698674847509.0,16,-1.1,-1.6,-0.7000000000000001,-1.3,7.300000000000001,2.8000000000000003,2.4000000000000004,4.0,-9.8
1698674847527.0,16,-1.3,-1.5,-0.6000000000000001,-1.5,7.4,2.9000000000000004,5.7,6.4,-13.9
1698674847542.0,16,-1.0,-1.7000000000000002,-0.8,-1.2000000000000002,7.2,2.7,8.200000000000001,9.600000000000001,-22.5
1698674847559.0,16,-0.30000000000000004,-1.9000000000000001,-1.2000000000000002,-0.7000000000000001,6.9,2.3000000000000003,4.0,11.1,-24.3
1698674847577.0,16,0.0,-2.1,-1.4000000000000001,-0.4,6.800000000000001,2.1,0.4,12.100000000000001,-22.2
1698674847593.0,16,0.4,-2.4000000000000004,-1.8,-0.1,6.5,1.7000000000000002,-6.7,13.5,-15.299999999999999
1698674847609.0,16,0.5,-2.8000000000000003,-2.2,0.0,6.0,1.3,-10.0,16.5,-5.4
1698674847629.0,16,0.4,-3.1,-2.7,-0.1,5.6000000000000005,0.8,-9.200000000000001,20.1,3.1
1698674847643.0,16,-0.2,-2.6,-3.1,-0.7000000000000001,6.1000000000000005,0.4,-5.7,22.8,6.3
1698674847660.0,16,-0.6000000000000001,-2.1,-3.2,-1.1,6.6000000000000005,0.2,-3.5,23.1,6.5
1698674847676.0,16,-1.0,-0.4,-2.3000000000000003,-1.6,8.3,1.1,4.7,20.4,6.2
1698674847692.0,16,-1.1,1.2000000000000002,-1.4000000000000001,-1.7000000000000002,9.9,2.0,17.0,16.5,6.000000000000001
1698674847710.0,16,-0.6000000000000001,5.2,0.0,-1.2000000000000002,14.100000000000001,3.2,57.9,12.200000000000001,4.300000000000001
1698674847725.0,16,-0.30000000000000004,6.7,0.4,-0.6000000000000001,16.6,3.4000000000000004,77.80000000000001,18.1,2.6
1698674847742.0,16,-0.4,7.7,0.0,-1.0,16.8,2.8000000000000003,92.7,36.2,-0.5
1698674847759.0,16,-1.3,7.800000000000001,-1.2000000000000002,-2.0,16.900000000000002,1.4000000000000001,38.6,39.50000000000001,0.0
1698674847775.0,16,-1.3,6.300000000000001,-0.5,-2.0,15.5,2.2,-51.400000000000006,22.6,-8.600000000000001
1698674847792.0,16,-0.9,5.6000000000000005,-0.30000000000000004,-1.7000000000000002,14.8,2.6,-73.50000000000001,15.9,-8.9
1698674847809.0,16,-0.6000000000000001,4.6000000000000005,-0.5,-1.3,13.8,2.6,-71.9,12.6,2.4000000000000004
1698674847825.0,16,-1.2000000000000002,0.5,-1.2000000000000002,-1.9000000000000001,9.600000000000001,2.0,-47.2,3.8,19.8
1698674847842.0,16,-1.2000000000000002,-2.0,0.2,-1.9000000000000001,7.1000000000000005,3.4000000000000004,-27.0,-12.6,25.900000000000002
1698674847859.0,16,-0.5,-4.7,3.7,-1.1,4.4,6.9,50.5,-25.5,18.5
1698674847876.0,16,-0.6000000000000001,-3.3000000000000003,4.1000000000000005,-1.2000000000000002,5.800000000000001,7.0,119.7,39.699999999999996,-12.8
1698674847892.0,16,0.5,-2.2,3.9000000000000004,0.9,8.6,6.2,75.3,60.20000000000001,-21.200000000000003
1698674847909.0,16,1.8,1.0,3.5,1.0,10.200000000000001,6.1000000000000005,12.200000000000001,32.9,-16.6
1698674847926.0,16,-0.1,1.3,3.4000000000000004,-0.9,10.5,6.2,-63.800000000000004,24.6,0.30000000000000004
1698674847944.0,16,-1.0,1.1,2.5,-2.3000000000000003,10.5,3.3000000000000003,-63.4,11.1,18.400000000000002
1698674847959.0,16,-1.8,0.9,-1.4000000000000001,-2.5,10.0,1.7000000000000002,-61.50000000000001,-7.699999999999999,21.5
1698674847975.0,16,-1.6,-1.8,-1.3,-2.3000000000000003,7.300000000000001,2.0,-52.1,-31.6,11.5
1698674847992.0,16,-1.3,-2.6,-1.1,-1.6,6.0,2.2,-20.1,-28.200000000000003,-2.6
1698674848009.0,16,-0.6000000000000001,-3.4000000000000004,-1.3,-1.2000000000000002,5.6000000000000005,2.0,-3.4,-20.3,-7.300000000000001
1698674848026.0,16,0.4,-3.9000000000000004,-1.4000000000000001,-0.30000000000000004,5.1000000000000005,2.0,18.6,-11.2,-12.700000000000001
1698674848042.0,16,0.8,-4.1000000000000005,-1.1,0.1,4.9,2.1,23.1,-7.2,-15.8
1698674848059.0,16,1.4000000000000001,-4.4,-1.1,0.7000000000000001,4.6000000000000005,2.1,20.1,1.0999999999999999,-18.6
1698674848075.0,16,2.0,-4.0,-1.2000000000000002,1.2000000000000002,4.9,2.0,-1.3,5.4,-16.3
1698674848093.0,16,2.3000000000000003,-3.6,-1.0,1.5,5.300000000000001,2.2,-15.000000000000002,4.9,-14.3
1698674848109.0,16,2.3000000000000003,-2.8000000000000003,-0.5,1.5,6.1000000000000005,2.7,-32.2,8.200000000000001,-9.700000000000001
1698674848125.0,16,1.8,-2.1,-0.6000000000000001,1.0,6.7,2.7,-29.600000000000005,13.8,-5.6
1698674848142.0,16,1.1,-2.0,-1.4000000000000001,0.2,6.7,2.0,-17.1,15.6,-2.4000000000000004
1698674848159.0,16,0.6000000000000001,-1.5,-2.2,-0.2,7.2,1.2000000000000002,-13.5,25.400000000000002,7.699999999999999
1698674848176.0,16,0.2,-0.7000000000000001,-2.1,-0.6000000000000001,8.0,1.3,-14.4,35.199999999999996,16.3
1698674848192.0,16,-0.2,3.4000000000000004,-1.2000000000000002,-1.0,12.100000000000001,2.3000000000000003,-10.0,49.6,34.1
1698674848209.0,16,-0.4,6.4,-0.8,-1.2000000000000002,15.100000000000001,2.7,0.5,41.4,38.900000000000006
1698674848225.0,16,-0.9,10.100000000000001,-1.0,-1.6,18.900000000000002,2.3000000000000003,23.1,24.8,34.50000000000001
1698674848243.0,16,-1.1,8.6,-2.0,-1.8,17.5,1.2000000000000002,29.1,9.700000000000001,13.5
1698674848259.0,16,-0.8,7.1000000000000005,-1.9000000000000001,-1.5,16.1,1.3,21.6,8.600000000000001,3.0000000000000004
1698674848276.0,16,0.7000000000000001,4.4,0.5,-0.1,13.4,3.7,2.0,17.5,-12.8
1698674848292.0,16,1.2000000000000002,1.3,2.6,0.4,10.4,5.800000000000001,22.2,24.8,-16.6
1698674848309.0,16,1.4000000000000001,-0.1,2.6,0.6000000000000001,9.0,5.7,38.1,-1.2000000000000002,-4.6000000000000005
1698674848325.0,16,1.1,-4.4,5.800000000000001,0.4,4.800000000000001,8.8,64.7,-15.5,15.5
1698674848342.0,16,-1.7000000000000002,-3.6,6.2,-2.3000000000000003,5.6000000000000005,8.9,77.0,-40.2,40.0
1698674848359.0,16,-2.8000000000000003,-0.30000000000000004,5.300000000000001,-3.3000000000000003,8.9,8.0,50.4,-81.9,55.0
1698674848375.0,16,-3.3000000000000003,1.8,2.8000000000000003,-3.6,11.0,5.5,-34.300000000000004,-35.5,70.7
1698674848393.0,16,-1.2000000000000002,1.9000000000000001,3.7,-1.3,11.100000000000001,6.7,-60.7,-15.9,57.400000000000006
1698674848409.0,16,0.30000000000000004,2.1,3.6,0.2,11.3,6.7,-44.3,-50.2,-3.4
1698674848428.0,16,2.5,-1.2000000000000002,0.4,2.3000000000000003,7.9,3.6,-20.3,-46.5,-44.8
1698674848442.0,16,2.4000000000000004,-2.5,-0.1,2.2,6.6000000000000005,3.1,-20.900000000000002,-22.6,-36.9
1698674848459.0,16,2.2,-3.7,-0.6000000000000001,2.0,5.4,2.7,-19.8,-6.8,-25.700000000000003
1698674848476.0,16,1.0,-5.300000000000001,-1.4000000000000001,0.7000000000000001,3.7,1.9000000000000001,-12.200000000000001,-6.6000000000000005,-6.2
1698674848492.0,16,0.5,-5.5,-1.8,-0.1,3.5,1.2000000000000002,-10.9,-3.6,5.2
1698674848509.0,16,-0.2,-5.4,-2.3000000000000003,-0.4,3.6,1.1,-12.4,-6.1000000000000005,10.8
1698674848526.0,16,-1.0,-5.0,-2.3000000000000003,-1.1,3.9000000000000004,1.1,-12.9,-20.3,16.6
1698674848542.0,16,-1.9000000000000001,-4.6000000000000005,-2.5,-2.0,4.2,0.9,-10.700000000000001,-31.2,13.5
1698674848559.0,16,-2.7,-4.2,-2.5,-2.8000000000000003,4.6000000000000005,0.9,-8.0,-29.700000000000003,-0.4
1698674848575.0,16,-2.6,-3.8000000000000003,-2.3000000000000003,-2.7,5.0,1.1,-5.7,-27.900000000000002,-10.5
1698674848592.0,16,-2.1,-3.1,-1.8,-2.2,5.6000000000000005,1.5,-0.30000000000000004,-27.1,-22.1
1698674848609.0,16,-0.7000000000000001,-1.2000000000000002,-2.4000000000000004,-0.8,7.6000000000000005,0.9,16.2,-31.8,-39.1
1698674848625.0,16,0.9,2.0,-1.7000000000000002,0.6000000000000001,10.8,1.6,21.8,-26.400000000000002,-42.7
1698674848642.0,16,1.1,4.3,-1.4000000000000001,0.8,13.100000000000001,1.8,27.1,-22.1,-40.2
1698674848659.0,16,1.8,10.700000000000001,-0.5,1.2000000000000002,17.900000000000002,2.2,36.9,-18.3,-30.000000000000004
1698674848675.0,16,1.6,11.8,-0.5,1.2000000000000002,20.8,2.5,36.7,-1.8,-28.400000000000002
1698674848692.0,16,0.0,10.600000000000001,-0.8,-0.6000000000000001,19.700000000000003,2.1,12.100000000000001,4.7,-16.0
1698674848709.0,16,-1.4000000000000001,5.800000000000001,-0.9,-1.9000000000000001,15.0,2.0,-23.900000000000002,10.0,8.0
1698674848726.0,16,-2.1,4.0,-0.1,-2.6,13.200000000000001,2.9000000000000004,-29.300000000000004,3.6,10.3
1698674848742.0,16,-2.3000000000000003,0.2,2.7,-2.8000000000000003,9.4,5.7,2.1,-13.6,12.9
1698674848759.0,16,-1.8,-1.7000000000000002,3.2,-2.1,5.800000000000001,5.0,60.900000000000006,-24.6,-5.300000000000001
1698674848776.0,16,-1.5,-5.1000000000000005,0.9,-2.0,4.2,3.7,72.10000000000001,-23.0,-19.6
1698674848792.0,16,0.1,-7.0,3.1,-0.5,2.2,5.800000000000001,52.2,-8.1,-38.900000000000006
1698674848809.0,16,0.6000000000000001,-5.1000000000000005,4.6000000000000005,-0.1,4.1000000000000005,7.2,29.500000000000004,6.6000000000000005,-44.00000000000001
1698674848826.0,16,1.6,3.1,5.800000000000001,0.8,12.3,8.5,-26.400000000000002,32.9,-46.6
1698674848843.0,16,0.8,7.9,2.9000000000000004,0.7000000000000001,16.400000000000002,7.4,-47.1,31.099999999999998,-50.7
1698674848859.0,16,-0.1,1.2000000000000002,0.30000000000000004,-1.3,10.3,3.4000000000000004,-68.7,8.0,-31.5
1698674848876.0,16,-0.4,-1.5,-0.9,-1.6,7.6000000000000005,2.3000000000000003,-67.4,2.3000000000000003,-19.700000000000003
1698674848892.0,16,-0.7000000000000001,-3.4000000000000004,-1.9000000000000001,-1.9000000000000001,5.7,1.4000000000000001,-65.89999999999999,-4.1000000000000005,-9.3
1698674848909.0,16,0.6000000000000001,-5.1000000000000005,-3.0,-0.6000000000000001,3.7,0.6000000000000001,-63.800000000000004,-10.0,4.300000000000001
1698674848926.0,16,1.2000000000000002,-5.2,-2.8000000000000003,0.0,3.6,0.9,-57.699999999999996,-6.5,-0.6000000000000001
1698674848943.0,16,2.0,-5.5,-2.2,0.8,3.2,1.6,-39.00000000000001,-0.5,-9.1
1698674848959.0,16,2.5,-5.9,-2.0,1.3,2.8000000000000003,1.8,-10.8,13.100000000000001,-8.600000000000001
1698674848976.0,16,2.9000000000000004,-5.800000000000001,-2.0,1.7000000000000002,2.8000000000000003,1.7000000000000002,2.1,20.8,-5.4
1698674848992.0,16,3.2,-4.9,-1.7000000000000002,2.0,3.7,2.0,21.1,40.3,2.5
1698674849010.0,16,3.3000000000000003,-2.7,-0.9,2.1,5.9,2.7,32.0,63.50000000000001,10.700000000000001
1698674849026.0,16,3.3000000000000003,-1.2000000000000002,-1.1,2.1,7.4,2.4000000000000004,32.7,69.3,14.4
1698674849042.0,16,3.1,2.1,-1.5,1.8,10.700000000000001,1.9000000000000001,16.700000000000003,58.60000000000001,25.700000000000003
1698674849059.0,16,2.0,4.0,-1.3,0.8,12.700000000000001,2.1,1.6,56.2,36.6
1698674849076.0,16,-2.3000000000000003,7.9,-1.1,-3.4000000000000004,16.7,2.3000000000000003,-21.5,75.3,71.6
1698674849092.0,16,-2.8000000000000003,10.0,-1.7000000000000002,-3.8000000000000003,18.900000000000002,1.7000000000000002,-26.8,71.2,82.4
1698674849109.0,16,-2.3000000000000003,8.4,-2.5,-3.1,17.3,1.0,-9.600000000000001,-24.5,45.3
1698674849126.0,16,-2.4000000000000004,6.1000000000000005,-2.5,-3.1,15.0,1.0,-9.200000000000001,-23.0,24.7
1698674849142.0,16,-1.9000000000000001,0.4,0.0,-2.6,9.3,3.5,-5.4,23.2,6.1000000000000005
1698674849159.0,16,-1.0,-1.8,3.5,-1.7000000000000002,7.1000000000000005,6.9,18.5,41.2,6.4
1698674849175.0,16,1.1,-3.8000000000000003,4.2,0.30000000000000004,5.2,7.4,118.2,26.8,5.9
1698674849193.0,16,0.1,-5.9,7.2,-0.6000000000000001,3.3000000000000003,9.9,164.9,-18.6,25.2
1698674849209.0,16,-1.2000000000000002,-4.800000000000001,7.6000000000000005,-1.9000000000000001,4.4,10.200000000000001,141.5,-46.800000000000004,45.800000000000004
1698674849226.0,16,-3.0,4.4,5.4,-3.4000000000000004,13.600000000000001,7.9,11.8,-85.1,75.7
1698674849242.0,16,-3.0,6.0,3.1,-3.1,15.200000000000001,5.9,-80.30000000000001,19.8,90.0
1698674849259.0,16,3.1,4.2,2.3000000000000003,3.2,13.5,5.300000000000001,-68.7,-11.4,36.2
1698674849276.0,16,2.9000000000000004,1.0,0.6000000000000001,3.0,10.200000000000001,3.7,-50.1,-48.7,-3.5
1698674849293.0,16,2.1,-2.7,-1.0,2.3000000000000003,6.5,2.2,-37.7,-25.8,-10.5
1698674849310.0,16,1.5,-3.9000000000000004,-1.4000000000000001,1.6,5.2,1.9000000000000001,-35.4,3.7000000000000006,-3.6
1698674849325.0,16,0.0,-4.6000000000000005,-2.2,0.2,4.4,1.1,-20.4,15.9,18.5
1698674849342.0,16,-0.7000000000000001,-4.1000000000000005,-3.1,-0.5,4.9,0.30000000000000004,-7.8,4.9,29.300000000000004
1698674849360.0,16,-1.3,-4.800000000000001,-3.1,-1.0,4.2,0.2,-3.2,-4.5,33.300000000000004
1698674849376.0,16,-1.8,-5.300000000000001,-3.2,-1.8,3.0,0.0,-0.7,-11.1,32.300000000000004
1698674849394.0,16,-2.8000000000000003,-6.300000000000001,-3.4000000000000004,-2.3000000000000003,2.5,-0.1,1.6,-24.7,23.400000000000002
1698674849410.0,16,-4.0,-6.7,-3.1,-3.5,2.1,0.1,-0.2,-37.2,4.6000000000000005
1698674849425.0,16,-3.4000000000000004,-6.4,-2.4000000000000004,-2.4000000000000004,3.4000000000000004,1.4000000000000001,1.5000000000000002,-42.400000000000006,-9.5
1698674849442.0,16,-3.0,-3.7,-1.8,-2.6,5.1000000000000005,1.3,11.5,-22.3,-44.00000000000001
1698674849459.0,16,-3.0,1.9000000000000001,-2.7,-2.8000000000000003,10.600000000000001,0.4,7.1000000000000005,15.9,-50.4
1698674849476.0,16,-2.1,6.1000000000000005,0.0,-2.0,14.9,3.1,6.5,14.600000000000001,-50.7
1698674849492.0,16,2.2,15.9,0.8,2.1,24.8,3.8000000000000003,54.4,-19.400000000000002,-74.5
1698674849509.0,16,4.6000000000000005,16.1,-2.1,4.3,25.3,0.7000000000000001,55.2,-53.6,-104.60000000000001
1698674849525.0,16,1.9000000000000001,11.4,-3.5,1.5,20.6,-0.8,22.1,-3.4,-95.3
1698674849542.0,16,-3.1,2.2,1.4000000000000001,-3.7,11.4,4.2,-31.099999999999998,62.300000000000004,-3.4
1698674849559.0,16,-2.1,-0.7000000000000001,10.100000000000001,-2.7,8.5,12.9,37.2,11.8,38.1
1698674849575.0,16,-1.5,-1.7000000000000002,11.0,-0.6000000000000001,6.9,10.9,106.80000000000001,-18.7,23.8
1698674849593.0,16,1.8,-2.7,5.300000000000001,1.3,6.7,7.6000000000000005,128.5,-15.299999999999999,-48.400000000000006
1698674849609.0,16,1.3,-1.3,0.6000000000000001,0.5,8.1,2.8000000000000003,4.1000000000000005,69.00000000000001,-81.7
1698674849626.0,16,0.5,2.4000000000000004,6.9,-0.6000000000000001,11.700000000000001,9.200000000000001,-64.30000000000001,51.6,-52.400000000000006
1698674849642.0,16,-2.6,6.7,8.5,-3.8000000000000003,16.0,11.0,-57.3,24.200000000000003,-32.7
1698674849659.0,16,-4.7,5.6000000000000005,-3.8000000000000003,-6.0,14.9,-1.1,-61.1,-9.600000000000001,-9.4
1698674849675.0,16,-1.9000000000000001,-2.5,-1.5,-3.1,6.7,1.5,-93.80000000000001,-55.0,-26.500000000000004
1698674849692.0,16,-0.2,-4.1000000000000005,-1.9000000000000001,-1.5,5.1000000000000005,1.2000000000000002,-92.7,-48.7,-31.7
1698674849709.0,16,2.7,-4.800000000000001,-2.2,1.3,4.2,1.1,-84.7,-21.0,-47.400000000000006
1698674849725.0,16,4.9,-4.800000000000001,-3.0,3.3000000000000003,4.0,0.6000000000000001,-74.8,21.0,-61.199999999999996
1698674849742.0,16,5.1000000000000005,-5.300000000000001,-3.3000000000000003,3.5,3.4000000000000004,0.4,-70.7,28.400000000000002,-61.8
1698674849759.0,16,4.800000000000001,-7.0,-2.9000000000000004,3.0,1.6,0.9,-59.20000000000001,20.6,-40.9
1698674849776.0,16,4.800000000000001,-7.5,-2.8000000000000003,3.2,1.0,1.2000000000000002,-42.7,20.4,1.3
1698674849792.0,16,5.300000000000001,-6.6000000000000005,-2.6,3.5,1.8,1.4000000000000001,-34.50000000000001,30.5,19.3
1698674849809.0,16,4.4,-4.1000000000000005,-2.4000000000000004,2.7,4.2,1.6,-12.5,54.1,32.300000000000004
1698674849825.0,16,3.8000000000000003,-2.7,-2.7,1.7000000000000002,7.4,0.8,5.300000000000001,75.5,50.300000000000004
1698674849842.0,16,3.1,1.3,-3.8000000000000003,1.5,9.700000000000001,0.1,4.300000000000001,90.9,60.7
1698674849859.0,16,0.2,7.2,-1.0,-1.4000000000000001,15.700000000000001,2.8000000000000003,-6.6000000000000005,119.60000000000002,75.80000000000001
1698674849876.0,16,-7.300000000000001,11.5,-1.8,-8.700000000000001,20.1,1.9000000000000001,31.3,81.9,107.6
1698674849892.0,16,-7.7,10.9,-3.1,-9.0,19.700000000000003,0.5,54.0,9.1,125.2
1698674849909.0,16,-3.8000000000000003,7.9,-1.6,-4.7,16.900000000000002,1.7000000000000002,77.0,-69.00000000000001,101.7
1698674849925.0,16,-1.3,-2.4000000000000004,3.7,-2.1,6.7,6.800000000000001,96.2,13.6,20.900000000000002
1698674849942.0,16,-1.1,-6.7,6.800000000000001,-1.9000000000000001,2.4000000000000004,9.700000000000001,125.80000000000001,74.0,-3.0000000000000004
1698674849960.0,16,-0.6000000000000001,-11.700000000000001,10.9,-1.5,-2.5,13.3,202.5,49.2,-0.30000000000000004
1698674849975.0,16,-2.8000000000000003,-0.5,9.200000000000001,-3.5,8.8,11.200000000000001,104.60000000000001,-179.5,48.00000000000001
1698674849993.0,16,-3.9000000000000004,5.2,2.7,-4.5,14.5,4.800000000000001,1.6,-181.0,53.00000000000001
1698674850009.0,16,-6.800000000000001,8.5,3.6,-7.2,17.7,6.0,-142.50000000000003,9.3,109.7
1698674850025.0,16,3.9000000000000004,10.5,5.6000000000000005,3.9000000000000004,19.700000000000003,8.5,-88.9,-3.7000000000000006,85.0
1698674850042.0,16,7.9,7.1000000000000005,0.2,8.0,16.400000000000002,3.1,-37.7,-95.1,19.3
1698674850059.0,16,3.7,-0.8,-0.8,3.8000000000000003,8.4,2.3000000000000003,-26.700000000000003,-82.0,-47.400000000000006
1698674850075.0,16,2.9000000000000004,-4.4,-1.7000000000000002,2.9000000000000004,4.800000000000001,1.4000000000000001,-36.1,43.6,-39.9
1698674850092.0,16,1.5,-5.1000000000000005,-1.8,1.4000000000000001,4.1000000000000005,1.3,-29.300000000000004,47.400000000000006,-27.6
1698674850109.0,16,0.2,-4.5,-2.4000000000000004,0.1,4.6000000000000005,0.8,-5.6,5.500000000000001,14.600000000000001
1698674850126.0,16,-1.3,-4.800000000000001,-3.4000000000000004,-1.3,4.3,-0.2,2.6,-14.700000000000001,31.5
1698674850142.0,16,-2.0,-5.4,-3.3000000000000003,-1.9000000000000001,3.6,-0.2,1.0,-18.900000000000002,33.300000000000004
1698674850159.0,16,-2.7,-6.6000000000000005,-2.0,-2.5,2.4000000000000004,1.1,-0.6000000000000001,-16.1,25.400000000000002
1698674850175.0,16,-3.1,-6.800000000000001,-2.4000000000000004,-3.0,2.2,0.6000000000000001,14.900000000000002,-10.1,5.4
1698674850192.0,16,-3.1,-5.9,-3.8000000000000003,-3.0,3.0,-0.7000000000000001,15.000000000000002,-14.100000000000001,-9.200000000000001
1698674850209.0,16,-3.3000000000000003,-1.8,-3.0,-3.2,7.0,0.0,-8.700000000000001,-16.900000000000002,-33.2
1698674850226.0,16,-2.7,5.0,-0.5,-2.7,13.9,2.6,-9.5,-26.0,-40.6
1698674850243.0,16,-1.0,9.1,0.0,0.8,21.700000000000003,2.3000000000000003,9.9,-41.6,-60.8
1698674850259.0,16,3.1,14.3,-2.4000000000000004,2.8000000000000003,23.3,0.5,12.100000000000001,-53.1,-75.5
1698674850275.0,16,2.5,6.0,-2.3000000000000003,2.1,15.100000000000001,0.6000000000000001,-12.8,-27.5,-64.7
1698674850293.0,16,-0.1,1.1,-1.1,-1.7000000000000002,7.300000000000001,3.6,-11.6,-15.8,0.5
1698674850310.0,16,-0.9,-3.0,2.7,-1.4000000000000001,6.1000000000000005,5.800000000000001,14.4,-37.1,22.5
1698674850325.0,16,-1.4000000000000001,-4.4,6.800000000000001,-1.7000000000000002,4.800000000000001,9.700000000000001,106.00000000000001,-57.699999999999996,15.8
1698674850342.0,16,-0.8,-4.7,9.4,-1.1,4.4,12.0,148.60000000000002,-35.5,-7.300000000000001
1698674850359.0,16,3.1,0.2,11.200000000000001,2.6,9.5,13.4,132.9,23.400000000000002,-92.7
1698674850375.0,16,6.1000000000000005,5.7,-1.5,5.2,15.0,0.7000000000000001,-0.5,8.5,-146.60000000000002
1698674850392.0,16,1.1,3.3000000000000003,3.9000000000000004,-0.2,12.600000000000001,6.300000000000001,-109.30000000000001,101.50000000000001,-116.10000000000001
1698674850408.0,16,-4.7,4.0,6.300000000000001,-6.300000000000001,13.200000000000001,8.9,-97.5,78.80000000000001,-69.10000000000001
1698674850425.0,16,-5.800000000000001,2.9000000000000004,-5.800000000000001,-7.300000000000001,12.0,-3.1,-62.900000000000006,-61.0,41.7
1698674850442.0,16,-3.6,-0.30000000000000004,-4.9,-5.0,8.8,-2.0,-83.60000000000001,-122.7,56.900000000000006
1698674850460.0,16,0.7000000000000001,-2.4000000000000004,-2.0,-0.4,6.6000000000000005,1.2000000000000002,-99.6,-98.4,38.900000000000006
1698674850475.0,16,1.0,-3.0,-1.7000000000000002,-0.1,5.9,1.8,-80.5,-18.400000000000002,-32.5
1698674850492.0,16,2.9000000000000004,-2.5,-2.7,1.6,6.300000000000001,0.9,-53.400000000000006,12.4,-66.9
1698674850510.0,16,3.3000000000000003,-2.8000000000000003,-2.5,1.9000000000000001,6.0,1.2000000000000002,-43.300000000000004,20.6,-73.50000000000001
1698674850526.0,16,3.5,-4.0,-2.0,2.0,4.7,1.7000000000000002,-19.6,18.7,-60.20000000000001
1698674850542.0,16,4.800000000000001,-5.300000000000001,-1.2000000000000002,3.1,3.3000000000000003,2.5,12.3,10.1,-26.3
1698674850558.0,16,5.4,-5.1000000000000005,-2.0,3.8000000000000003,3.5,1.6,39.400000000000006,11.8,1.9
1698674850576.0,16,4.9,-4.3,-2.5,3.3000000000000003,4.3,1.1,39.2,23.2,15.399999999999999
1698674850592.0,16,3.6,-1.4000000000000001,-2.1,2.1,7.2,1.3,20.4,53.2,45.5
1698674850609.0,16,2.4000000000000004,0.6000000000000001,-0.8,1.0,9.200000000000001,2.6,14.0,63.50000000000001,56.6
1698674850626.0,16,-1.5,5.7,-0.9,-2.8000000000000003,14.5,2.4000000000000004,24.3,61.8,74.10000000000001
1698674850642.0,16,-3.0,7.5,-2.6,-4.2,16.3,0.6000000000000001,31.6,25.6,82.2
1698674850658.0,16,-2.4000000000000004,5.5,-0.6000000000000001,-3.4000000000000004,14.4,2.5,40.0,-27.6,74.7
1698674850675.0,16,-3.5,-2.4000000000000004,5.4,-4.4,6.6000000000000005,8.3,72.10000000000001,52.6,41.1
1698674850692.0,16,-4.800000000000001,-5.2,9.700000000000001,-5.6000000000000005,3.9000000000000004,12.200000000000001,169.4,39.400000000000006,47.2
1698674850709.0,16,-4.6000000000000005,1.9000000000000001,8.6,-5.300000000000001,11.200000000000001,10.700000000000001,164.20000000000002,-169.60000000000002,65.5
1698674850725.0,16,-4.9,5.1000000000000005,3.6,-5.4,14.4,5.6000000000000005,78.10000000000001,-162.10000000000002,67.4
1698674850742.0,16,-1.9000000000000001,6.7,2.7,-2.1,16.1,4.9,-108.30000000000001,18.8,79.3
1698674850759.0,16,5.7,8.3,4.6000000000000005,5.6000000000000005,17.6,7.1000000000000005,-136.1,59.5,54.4
1698674850776.0,16,6.800000000000001,4.1000000000000005,0.4,6.7,13.4,3.2,-76.2,-75.80000000000001,-33.400000000000006
1698674850792.0,16,4.0,-0.30000000000000004,-1.9000000000000001,3.9000000000000004,9.0,1.0,-65.89999999999999,-39.9,-41.6
1698674850809.0,16,2.1,-2.0,-2.0,2.0,7.1000000000000005,1.1,-70.7,20.8,-27.400000000000002
1698674850826.0,16,0.1,-4.0,-1.8,-0.1,5.1000000000000005,1.5,-51.6,62.900000000000006,14.900000000000002
1698674850842.0,16,-0.6000000000000001,-4.1000000000000005,-3.2,-0.7000000000000001,4.9,0.1,-19.6,24.3,39.00000000000001
1698674850859.0,16,-1.5,-4.800000000000001,-2.9000000000000004,-1.5,4.1000000000000005,0.4,-2.7,-9.1,42.1
1698674850875.0,16,-1.8,-5.1000000000000005,-2.8000000000000003,-1.7000000000000002,3.8000000000000003,0.5,3.0000000000000004,-4.800000000000001,37.900000000000006
1698674850892.0,16,-2.4000000000000004,-5.7,-2.0,-2.3000000000000003,3.2,1.2000000000000002,9.700000000000001,38.6,22.4
1698674850909.0,16,-2.5,-5.4,-1.9000000000000001,-2.4000000000000004,3.5,1.3,15.8,56.2,14.0
1698674850926.0,16,-2.1,-1.7000000000000002,-1.2000000000000002,-2.1,7.2,1.9000000000000001,36.1,40.3,7.2
1698674850942.0,16,-2.3000000000000003,3.7,-2.6,-2.3000000000000003,12.700000000000001,0.30000000000000004,51.800000000000004,-4.7,14.900000000000002
1698674850960.0,16,-2.3000000000000003,3.7,-2.6,-2.3000000000000003,12.700000000000001,0.30000000000000004,51.800000000000004,-4.7,14.900000000000002
1698674850976.0,16,-2.3000000000000003,8.700000000000001,-1.3,-2.2,17.900000000000002,1.5,5.4,-12.200000000000001,14.200000000000001
1698674850993.0,16,-1.0,2.6,-1.2000000000000002,-1.0,11.8,1.6,-17.599999999999998,-50.4,-8.200000000000001
1698674851010.0,16,-1.0,0.1,-0.4,-0.9,9.200000000000001,2.5,-17.7,-59.5,-10.700000000000001
1698674851025.0,16,-0.1,-3.4000000000000004,2.1,0.0,5.7,5.0,9.0,-41.7,-15.8
1698674851042.0,16,0.9,-4.2,7.5,0.9,5.0,10.200000000000001,82.0,-5.1,-41.9
1698674851059.0,16,1.1,-2.6,10.5,2.4000000000000004,10.600000000000001,15.200000000000001,142.3,20.900000000000002,-87.4
1698674851076.0,16,4.0,7.5,7.2,3.6,16.900000000000002,9.4,121.9,5.1,-111.30000000000001
1698674851092.0,16,4.1000000000000005,7.9,-0.5,3.5,17.3,1.7000000000000002,52.6,-21.700000000000003,-122.8
1698674851109.0,16,0.5,1.8,1.7000000000000002,-0.4,11.100000000000001,4.0,-104.3,62.199999999999996,-81.9
1698674851126.0,16,-6.5,2.0,0.8,-7.6000000000000005,11.200000000000001,3.5,-100.8,52.300000000000004,-4.5
1698674851144.0,16,-5.800000000000001,1.0,-4.6000000000000005,-6.800000000000001,10.100000000000001,-1.6,-96.7,-104.4,31.4
1698674851158.0,16,-0.9,-0.5,-2.2,-1.7000000000000002,8.5,1.2000000000000002,-105.00000000000001,-133.8,12.700000000000001
1698674851175.0,16,0.9,-1.0,-1.5,0.30000000000000004,8.4,2.1,-98.6,-93.3,-21.900000000000002
1698674851192.0,16,2.4000000000000004,-0.9,-2.5,1.5,7.9,1.2000000000000002,-69.7,-0.1,-81.9
1698674851209.0,16,4.0,-1.5,-2.4000000000000004,2.8000000000000003,7.2,1.5,-52.300000000000004,53.400000000000006,-101.4
1698674851226.0,16,3.7,-2.6,-1.3,2.3000000000000003,6.0,2.6,-34.2,48.400000000000006,-93.5
1698674851242.0,16,3.5,-5.300000000000001,-1.8,2.0,3.3000000000000003,2.0,19.0,-7.6,-42.6
1698674851260.0,16,5.5,-4.5,-2.0,4.0,4.1000000000000005,1.7000000000000002,41.7,-18.900000000000002,-0.1
1698674851275.0,16,4.9,-2.8000000000000003,-1.4000000000000001,3.4000000000000004,5.800000000000001,2.3000000000000003,43.7,9.0,12.4
1698674851292.0,16,3.2,0.2,-0.9,1.8,8.9,2.6,51.0,54.7,37.900000000000006
1698674851309.0,16,2.1,1.8,-0.5,0.7000000000000001,10.5,2.9000000000000004,55.7,53.7,47.6
1698674851325.0,16,-0.8,3.3000000000000003,-0.6000000000000001,-2.1,12.200000000000001,2.6,69.00000000000001,35.7,57.1
1698674851342.0,16,-1.4000000000000001,0.7000000000000001,-2.1,-2.5,9.700000000000001,0.9,63.70000000000001,8.5,53.8
1698674851359.0,16,-1.3,-4.3,0.30000000000000004,-2.3000000000000003,4.7,3.0,57.9,21.8,34.300000000000004
1698674851376.0,16,-1.7000000000000002,-6.300000000000001,1.5,-3.9000000000000004,0.8,7.1000000000000005,64.10000000000001,31.099999999999998,29.000000000000004
1698674851393.0,16,-4.5,-9.600000000000001,8.8,-5.4,-0.5,11.200000000000001,104.2,33.800000000000004,37.0
1698674851409.0,16,-5.1000000000000005,-2.7,7.2,-5.9,6.4,9.3,94.60000000000001,-75.80000000000001,50.300000000000004
1698674851425.0,16,-3.2,5.4,-1.3,-3.8000000000000003,14.5,0.9,-35.199999999999996,-75.80000000000001,47.6
1698674851442.0,16,-1.9000000000000001,5.9,-0.1,-2.4000000000000004,15.100000000000001,2.2,-94.60000000000001,14.600000000000001,49.0
1698674851459.0,16,7.300000000000001,6.7,0.2,6.800000000000001,15.8,2.9000000000000004,-105.5,48.9,3.9
1698674851475.0,16,6.9,5.4,-0.8,4.2,12.100000000000001,2.1,-85.5,-24.200000000000003,-30.5
1698674851492.0,16,2.7,1.6,-0.9,2.2,10.600000000000001,2.1,-74.5,-51.7,-27.900000000000002
1698674851509.0,16,1.7000000000000002,1.7000000000000002,-0.6000000000000001,1.3,10.700000000000001,2.6,-67.80000000000001,21.5,20.4
1698674851525.0,16,0.8,2.8000000000000003,-0.7000000000000001,0.30000000000000004,11.8,2.6,-46.5,28.8,34.800000000000004
1698674851542.0,16,-1.7000000000000002,5.1000000000000005,-1.5,-2.0,14.100000000000001,1.9000000000000001,3.5,32.9,49.8
1698674851559.0,16,-2.8000000000000003,6.6000000000000005,-1.5,-3.1,15.600000000000001,1.8,22.4,78.9,56.6
1698674851576.0,16,-2.2,6.300000000000001,-1.3,-2.4000000000000004,15.4,1.9000000000000001,22.3,94.3,47.900000000000006
1698674851592.0,16,-1.1,2.0,-2.1,-1.4000000000000001,11.100000000000001,1.1,20.900000000000002,39.699999999999996,21.1
1698674851609.0,16,-1.6,0.5,-3.1,-1.8,9.700000000000001,0.0,15.9,-5.9,17.1
1698674851625.0,16,-4.1000000000000005,-1.3,-3.8000000000000003,-4.2,7.9,-0.8,-13.700000000000001,-30.7,34.900000000000006
1698674851642.0,16,-6.300000000000001,-1.3,-4.800000000000001,-6.300000000000001,7.800000000000001,-1.7000000000000002,-43.2,-22.8,54.5
1698674851659.0,16,-5.1000000000000005,-2.8000000000000003,-2.9000000000000004,-4.9,6.2,0.4,-65.3,-26.700000000000003,44.7
1698674851675.0,16,-3.4000000000000004,-4.5,-0.7000000000000001,-1.5,2.4000000000000004,4.4,-58.00000000000001,-28.900000000000002,27.3
1698674851692.0,16,-0.2,-8.1,1.1,0.0,0.8,4.5,12.100000000000001,-64.4,-19.1
1698674851710.0,16,2.2,-9.600000000000001,1.5,2.4000000000000004,-0.7000000000000001,4.7,89.8,-94.7,-62.0
1698674851725.0,16,4.1000000000000005,-9.200000000000001,8.8,4.2,-0.30000000000000004,11.600000000000001,161.9,-52.1,-88.4
1698674851742.0,16,3.9000000000000004,-6.7,17.2,3.8000000000000003,2.3000000000000003,19.8,215.6,12.8,-92.2
1698674851759.0,16,9.1,11.0,4.800000000000001,8.6,20.3,6.7,210.5,98.6,-128.4
1698674851780.0,16,5.4,12.5,-3.1,4.4,21.8,-1.2000000000000002,-59.300000000000004,65.10000000000001,-161.2
1698674851792.0,16,-1.7000000000000002,8.8,0.8,-2.9000000000000004,18.1,2.8000000000000003,-143.4,132.0,-139.5
1698674851809.0,16,-8.0,1.4000000000000001,-1.1,-9.5,10.600000000000001,1.4000000000000001,-136.7,73.30000000000001,2.1
1698674851826.0,16,-3.8000000000000003,0.0,-3.8000000000000003,-2.5,8.1,0.7000000000000001,-127.00000000000001,-22.000000000000004,58.9
1698674851842.0,16,0.1,-0.9,-0.9,-1.0,8.1,2.2,-109.10000000000001,-118.80000000000001,77.7
1698674851859.0,16,-1.5,0.9,-1.8,-2.3000000000000003,9.9,1.5,-70.3,-49.5,28.1
1698674851876.0,16,-1.0,-0.2,-2.8000000000000003,-1.9000000000000001,8.700000000000001,0.7000000000000001,-45.7,-3.4,-38.300000000000004
1698674851893.0,16,-0.5,-1.4000000000000001,-2.3000000000000003,-1.5,7.5,1.2000000000000002,-32.9,-3.7000000000000006,-61.7
1698674851910.0,16,0.7000000000000001,-3.2,-2.0,-0.5,5.6000000000000005,1.5,-5.4,5.6,-73.60000000000001
1698674851925.0,16,1.3,-4.1000000000000005,-2.1,1.1,4.1000000000000005,1.5,16.3,11.000000000000002,-57.00000000000001
1698674851943.0,16,4.1000000000000005,-4.800000000000001,-1.8,2.6,4.0,1.6,25.900000000000002,10.8,-47.6
1698674851959.0,16,7.4,-3.6,-1.5,5.800000000000001,5.2,1.8,42.400000000000006,15.6,-42.7
1698674851976.0,16,7.1000000000000005,-1.5,-0.8,5.5,7.2,2.3000000000000003,50.6,47.2,-38.1
1698674851992.0,16,5.5,0.0,-1.2000000000000002,3.8000000000000003,8.8,1.8,48.00000000000001,68.60000000000001,-20.6
1698674852009.0,16,2.3000000000000003,3.6,-1.2000000000000002,0.6000000000000001,12.4,1.6,20.6,90.4,41.2
1698674852026.0,16,0.30000000000000004,4.5,-2.3000000000000003,-1.2000000000000002,13.4,0.5,-11.8,73.50000000000001,69.3
1698674852042.0,16,-1.2000000000000002,4.7,-2.2,-2.7,13.600000000000001,0.7000000000000001,-21.700000000000003,39.8,68.5
1698674852059.0,16,-3.1,3.5,0.6000000000000001,-4.4,12.5,3.5,-9.3,1.2000000000000002,61.599999999999994
1698674852075.0,16,-4.7,-2.2,3.4000000000000004,-5.9,6.800000000000001,6.1000000000000005,43.6,42.900000000000006,54.9
1698674852092.0,16,-4.2,-5.0,4.6000000000000005,-5.300000000000001,4.0,7.300000000000001,80.9,58.60000000000001,58.9
1698674852109.0,16,-3.9000000000000004,-5.7,5.0,-4.9,3.5,7.300000000000001,161.6,35.0,66.0
1698674852125.0,16,-3.4000000000000004,0.8,6.4,-4.2,10.100000000000001,8.200000000000001,152.8,-68.3,81.8
1698674852142.0,16,-2.3000000000000003,7.2,4.5,-2.8000000000000003,16.6,6.1000000000000005,53.8,-74.10000000000001,78.80000000000001
1698674852159.0,16,0.30000000000000004,8.8,3.3000000000000003,0.0,18.3,4.9,-6.6000000000000005,-5.9,67.60000000000001
1698674852175.0,16,5.300000000000001,5.7,1.7000000000000002,5.0,15.100000000000001,3.5,-72.6,10.8,3.1
1698674852192.0,16,2.8000000000000003,2.4000000000000004,1.8,2.5,11.9,3.7,-72.4,-21.900000000000002,-9.1
1698674852209.0,16,0.9,0.1,-0.7000000000000001,0.6000000000000001,9.5,1.4000000000000001,-73.9,18.6,6.5
1698674852225.0,16,-0.8,-1.3,-0.7000000000000001,-1.0,8.1,1.8,-70.10000000000001,42.900000000000006,19.200000000000003
1698674852242.0,16,-1.0,-2.3000000000000003,-0.5,-1.2000000000000002,7.0,2.0,-56.0,32.2,20.6
1698674852259.0,16,-1.1,-3.9000000000000004,-1.2000000000000002,-1.3,5.4,1.4000000000000001,-18.7,1.0999999999999999,19.8
1698674852276.0,16,-0.8,-4.7,-2.3000000000000003,-0.9,4.6000000000000005,0.2,-0.1,-9.5,17.9
1698674852292.0,16,-0.7000000000000001,-5.0,-2.3000000000000003,-0.8,4.2,0.30000000000000004,-0.30000000000000004,-0.1,16.0
1698674852310.0,16,-1.1,-4.5,-1.6,-1.2000000000000002,4.7,1.0,-1.6,24.6,15.100000000000001
1698674852325.0,16,-0.9,-2.1,-2.5,-1.0,7.1000000000000005,0.0,3.8,16.2,17.400000000000002
1698674852342.0,16,-1.0,-0.8,-2.6,-1.0,8.3,-0.1,0.5,1.2000000000000002,17.0
1698674852359.0,16,-2.0,0.8,-1.3,-2.0,9.9,1.3,-2.6,-13.100000000000001,20.7
1698674852376.0,16,-2.6,1.0,-1.4000000000000001,-2.5,10.100000000000001,1.1,3.3000000000000003,-22.4,21.200000000000003
1698674852392.0,16,-1.7000000000000002,0.9,-0.9,-1.6,10.0,1.6,5.6,-23.900000000000002,13.9
1698674852409.0,16,0.2,0.6000000000000001,-0.6000000000000001,0.30000000000000004,9.700000000000001,1.8,20.6,-32.800000000000004,-4.800000000000001
1698674852425.0,16,0.6000000000000001,0.30000000000000004,-1.1,0.8,8.8,1.3,27.900000000000002,-32.2,-2.5
1698674852442.0,16,-0.1,-1.3,-0.4,0.1,7.9,1.9000000000000001,31.5,-35.5,0.7
1698674852459.0,16,-1.5,-1.9000000000000001,1.1,-1.3,7.300000000000001,3.2,48.300000000000004,-46.2,-2.0
1698674852475.0,16,-0.7000000000000001,-0.8,9.5,-0.6000000000000001,8.5,11.4,83.4,-34.0,-36.800000000000004
1698674852492.0,16,0.6000000000000001,9.3,9.3,0.4,18.7,11.0,130.20000000000002,-13.700000000000001,-102.0
1698674852508.0,16,1.7000000000000002,12.100000000000001,1.9000000000000001,1.4000000000000001,21.6,3.4000000000000004,101.2,-67.3,-121.70000000000002
1698674852525.0,16,1.0,2.9000000000000004,1.7000000000000002,0.30000000000000004,12.4,3.2,-33.7,11.6,-111.0
1698674852542.0,16,-1.1,-0.1,2.2,-2.1,9.3,3.9000000000000004,-77.3,72.7,-54.2
1698674852559.0,16,0.7000000000000001,-1.3,-0.5,-1.3,8.5,2.8000000000000003,-71.7,27.5,-27.5
1698674852576.0,16,1.2000000000000002,-1.2000000000000002,-1.0,0.30000000000000004,8.200000000000001,1.0,-59.1,-79.00000000000001,0.6000000000000001
1698674852592.0,16,2.1,-0.8,-0.7000000000000001,1.2000000000000002,8.5,1.4000000000000001,-56.0,-88.7,1.6
1698674852608.0,16,2.5,-0.2,0.7000000000000001,1.6,9.1,3.0,-36.0,-31.0,-18.7
1698674852625.0,16,1.2000000000000002,-0.5,0.5,0.2,8.8,2.9000000000000004,4.7,22.000000000000004,-32.9
1698674852642.0,16,0.4,-1.8,0.4,-0.7000000000000001,7.5,2.7,38.300000000000004,8.799999999999999,-30.200000000000003
1698674852659.0,16,0.5,-2.5,0.4,-0.7000000000000001,6.800000000000001,2.6,46.4,2.4000000000000004,-26.3
1698674852677.0,16,1.0,-4.0,-0.1,-0.2,5.300000000000001,2.0,39.6,19.3,-16.900000000000002
1698674852692.0,16,2.2,-4.800000000000001,-1.2000000000000002,0.9,4.4,0.7000000000000001,4.0,41.6,-10.8
1698674852709.0,16,2.6,-4.9,-1.7000000000000002,1.4000000000000001,4.3,0.30000000000000004,-16.0,41.5,-11.5
1698674852725.0,16,3.2,-4.800000000000001,-2.1,1.9000000000000001,4.3,0.0,-47.6,32.300000000000004,-13.8
1698674852742.0,16,2.7,-3.3000000000000003,-2.1,1.4000000000000001,5.800000000000001,0.2,-65.89999999999999,39.1,-9.700000000000001
1698674852759.0,16,1.9000000000000001,-1.7000000000000002,-2.1,0.5,7.300000000000001,0.2,-68.7,36.2,-4.7
1698674852775.0,16,0.0,1.6,-1.4000000000000001,-1.4000000000000001,10.600000000000001,1.1,-58.60000000000001,17.8,9.4
1698674852792.0,16,-1.0,4.2,-1.4000000000000001,-2.3000000000000003,13.200000000000001,1.2000000000000002,-30.200000000000003,14.500000000000002,21.3
1698674852809.0,16,-1.3,4.7,-1.5,-2.6,13.700000000000001,1.2000000000000002,-15.6,18.2,21.8
1698674852826.0,16,-1.2000000000000002,3.8000000000000003,0.2,-2.5,12.8,2.8000000000000003,15.6,41.800000000000004,6.9
1698674852842.0,16,-0.7000000000000001,2.8000000000000003,2.6,-2.1,11.9,5.0,64.9,69.9,-6.6000000000000005
1698674852858.0,16,-0.2,2.4000000000000004,4.7,-1.7000000000000002,11.5,6.9,95.80000000000001,64.0,-0.4
1698674852876.0,16,-0.30000000000000004,1.0,8.4,-1.7000000000000002,10.200000000000001,10.200000000000001,155.3,25.2,26.3
1698674852892.0,16,-0.8,0.6000000000000001,8.6,-2.1,9.9,10.200000000000001,148.4,-4.2,39.8
1698674852909.0,16,-1.0,0.5,3.1,-2.2,9.9,4.6000000000000005,14.500000000000002,11.4,42.2
1698674852925.0,16,0.30000000000000004,-1.0,1.2000000000000002,-0.8,8.3,3.0,-110.2,78.10000000000001,35.7
1698674852943.0,16,1.3,-0.5,2.1,0.0,10.5,5.4,-111.9,57.9,30.100000000000005
1698674852959.0,16,0.30000000000000004,3.8000000000000003,3.1,-0.7000000000000001,13.0,5.4,-83.60000000000001,30.599999999999998,29.900000000000006
1698674852976.0,16,-1.5,6.4,1.6,-2.3000000000000003,15.700000000000001,4.0,-24.7,-13.9,35.6
1698674852992.0,16,-2.4000000000000004,5.5,2.2,-3.3000000000000003,12.8,4.7,17.0,29.400000000000002,35.6
1698674853009.0,16,-2.0,1.6,2.1,-2.8000000000000003,10.9,4.5,37.0,40.3,28.6
1698674853025.0,16,-1.1,-0.9,2.1,-1.9000000000000001,8.5,4.3,56.1,32.2,9.600000000000001
1698674853042.0,16,-0.30000000000000004,-1.9000000000000001,1.8,-1.1,7.6000000000000005,3.9000000000000004,29.900000000000006,28.900000000000002,-3.1
1698674853058.0,16,-0.30000000000000004,-1.9000000000000001,1.3,-1.1,7.5,3.0,-38.900000000000006,29.1,-2.3000000000000003
1698674853075.0,16,-0.6000000000000001,-2.0,0.7000000000000001,-1.4000000000000001,7.300000000000001,2.9000000000000004,-61.300000000000004,33.800000000000004,1.0999999999999999
1698674853092.0,16,-1.1,-2.0,0.4,-2.4000000000000004,7.5,2.7,-69.60000000000001,29.600000000000005,4.0
1698674853109.0,16,-1.8,-1.8,0.2,-2.7,7.5,2.8000000000000003,-64.50000000000001,9.1,8.5
1698674853125.0,16,-2.1,-2.0,0.30000000000000004,-2.9000000000000004,7.2,3.1,-43.300000000000004,1.8,7.2
1698674853145.0,16,-2.1,-2.7,-0.1,-3.0,6.4,2.8000000000000003,-14.600000000000001,6.5,-0.30000000000000004
1698674853158.0,16,-2.0,-3.1,-0.8,-2.6,6.0,1.6,-2.9,2.4000000000000004,-4.7
1698674853176.0,16,-1.4000000000000001,-2.8000000000000003,-1.0,-2.3000000000000003,6.300000000000001,1.8,4.9,-17.0,-10.3
1698674853192.0,16,-1.2000000000000002,-1.5,-0.30000000000000004,-2.1,7.6000000000000005,2.4000000000000004,7.300000000000001,-27.400000000000002,-4.3999999999999995
1698674853209.0,16,-1.3,-0.7000000000000001,0.1,-2.2,8.4,2.9000000000000004,9.200000000000001,-28.0,-1.9
1698674853225.0,16,-1.1,0.30000000000000004,0.7000000000000001,-2.0,9.5,3.4000000000000004,16.6,-32.800000000000004,-2.5
1698674853242.0,16,-0.30000000000000004,0.30000000000000004,1.0,-1.2000000000000002,9.5,3.6,23.400000000000002,-38.0,-8.4
1698674853259.0,16,0.6000000000000001,0.6000000000000001,1.7000000000000002,-0.30000000000000004,9.8,4.3,20.7,-31.6,-10.600000000000001
1698674853276.0,16,0.8,1.1,1.9000000000000001,-0.1,10.3,4.5,19.700000000000003,-27.2,-11.6
1698674853292.0,16,0.6000000000000001,1.1,0.6000000000000001,-0.4,10.3,3.2,10.1,-17.9,-14.600000000000001
1698674853309.0,16,-0.5,-0.4,0.2,-1.5,8.8,2.8000000000000003,-3.2,-5.4,-18.6
1698674853325.0,16,-0.8,-0.8,0.1,-1.8,8.4,2.7,-4.2,-6.3,-19.8
1698674853342.0,16,-0.8,-0.9,0.1,-1.8,8.3,2.7,0.2,-14.100000000000001,-19.200000000000003
1698674853359.0,16,-0.5,-0.6000000000000001,0.4,-1.6,8.5,3.1,4.0,-18.1,-17.9
1698674853376.0,16,0.1,-0.30000000000000004,1.3,-1.1,8.8,3.9000000000000004,11.2,-15.2,-14.200000000000001
1698674853392.0,16,0.5,-0.4,1.6,-0.6000000000000001,8.700000000000001,4.2,11.8,-8.9,-11.000000000000002
1698674853408.0,16,0.7000000000000001,-0.6000000000000001,0.9,-0.4,8.6,3.5,-2.0,-2.1999999999999997,-10.9
1698674853426.0,16,0.7000000000000001,-0.6000000000000001,0.6000000000000001,-0.4,8.5,3.2,-10.600000000000001,0.7,-10.3
1698674853442.0,16,0.4,-0.5,0.30000000000000004,-0.8,8.6,2.9000000000000004,-16.0,0.8,-8.9
1698674853459.0,16,0.1,-0.1,0.0,-1.1,9.0,2.7,-14.700000000000001,0.6000000000000001,-3.9
1698674853476.0,16,0.1,0.2,0.0,-1.1,9.3,2.7,-10.600000000000001,-0.4,-2.1999999999999997
1698674853492.0,16,0.0,0.4,0.1,-1.2000000000000002,9.5,2.8000000000000003,-1.0,-2.6,2.1
1698674853509.0,16,-0.1,0.2,0.2,-1.3,9.3,2.9000000000000004,4.0,-2.0,1.9
1698674853526.0,16,-0.1,0.1,0.30000000000000004,-1.2000000000000002,9.0,3.0,3.5,-2.5,0.0
1698674853542.0,16,-0.1,-0.2,0.2,-1.3,8.9,2.9000000000000004,-3.0000000000000004,-3.2,-2.9
1698674853559.0,16,0.0,-0.30000000000000004,-0.2,-1.2000000000000002,8.8,2.6,-12.5,-1.5000000000000002,-3.7000000000000006
1698674853575.0,16,0.0,-0.30000000000000004,-0.30000000000000004,-1.2000000000000002,8.8,2.5,-14.200000000000001,-1.8,-3.4
1698674853592.0,16,0.0,0.0,-0.30000000000000004,-1.2000000000000002,9.0,2.5,-11.2,-1.6,-1.5000000000000002
1698674853609.0,16,0.0,0.1,-0.30000000000000004,-1.2000000000000002,9.200000000000001,2.5,-7.500000000000001,-1.7,-0.30000000000000004
1698674853626.0,16,-0.1,0.30000000000000004,-0.2,-1.3,9.4,2.6,0.8,-3.6,1.5000000000000002
1698674853642.0,16,-0.2,0.2,0.0,-1.4000000000000001,9.3,2.8000000000000003,5.2,-6.1000000000000005,0.7
1698674853659.0,16,-0.30000000000000004,0.2,0.1,-1.5,9.3,2.9000000000000004,4.9,-7.9,0.0
1698674853675.0,16,-0.30000000000000004,0.1,0.2,-1.5,9.200000000000001,3.0,-0.5,-10.1,-2.4000000000000004
1698674853692.0,16,-0.1,-0.1,0.0,-1.3,9.0,2.9000000000000004,-8.4,-10.700000000000001,-4.5
1698674853709.0,16,0.1,-0.2,-0.2,-1.1,8.9,2.7,-11.700000000000001,-8.9,-3.8
1698674853725.0,16,0.30000000000000004,0.0,-0.4,-1.0,9.0,2.5,-9.5,-5.8,-2.0
1698674853742.0,16,0.30000000000000004,0.1,-0.4,-0.9,9.1,2.5,-7.400000000000001,-5.1,-1.2000000000000002
1698674853759.0,16,0.30000000000000004,0.2,-0.4,-0.9,9.200000000000001,2.5,-3.2,-5.0,0.30000000000000004
1698674853775.0,16,0.30000000000000004,0.2,-0.4,-0.9,9.3,2.6,-1.8,-4.800000000000001,0.7
1698674853792.0,16,0.1,0.2,-0.2,-1.1,9.3,2.7,-1.3,-4.6000000000000005,0.5
1698674853810.0,16,0.0,0.0,-0.2,-1.2000000000000002,9.1,2.7,-2.4000000000000004,-2.7,0.30000000000000004
1698674853825.0,16,-0.1,-0.1,-0.30000000000000004,-1.3,8.9,2.7,-4.2,-1.8,0.5
1698674853842.0,16,-0.1,-0.1,-0.30000000000000004,-1.3,9.0,2.7,-3.9,-1.7,0.0
1698674853859.0,16,-0.1,0.1,-0.30000000000000004,-1.3,9.1,2.7,-2.8,-1.4,-0.30000000000000004
1698674853875.0,16,-0.1,0.1,-0.30000000000000004,-1.3,9.1,2.7,-1.4,-1.3,-0.4
1698674853892.0,16,-0.1,0.0,-0.2,-1.3,9.0,2.7,1.2000000000000002,-1.6,-0.6000000000000001
1698674853910.0,16,0.0,0.0,-0.30000000000000004,-1.2000000000000002,9.0,2.7,1.3,-2.1999999999999997,-1.3
1698674853929.0,16,-0.1,0.0,-0.30000000000000004,-1.2000000000000002,9.0,2.7,0.7,-2.9,-1.4
1698674853942.0,16,0.0,0.1,-0.2,-1.2000000000000002,9.1,2.7,0.2,-3.7000000000000006,-1.0999999999999999
1698674853959.0,16,-0.1,0.2,-0.2,-1.3,9.3,2.7,1.0,-3.5,-1.3
1698674853976.0,16,0.0,0.1,-0.2,-1.2000000000000002,9.200000000000001,2.7,1.7,-3.6,-2.1
1698674853992.0,16,0.0,0.1,-0.1,-1.2000000000000002,9.1,2.8000000000000003,1.5000000000000002,-3.9,-2.4000000000000004
1698674854009.0,16,0.0,0.0,-0.1,-1.2000000000000002,9.1,2.8000000000000003,0.9,-2.7,-1.8
1698674854025.0,16,0.0,0.0,-0.1,-1.2000000000000002,9.1,2.8000000000000003,0.5,-1.3,-1.4
1698674854042.0,16,0.0,0.0,-0.2,-1.2000000000000002,9.1,2.7,-0.30000000000000004,0.30000000000000004,-1.4
1698674854059.0,16,0.0,0.1,-0.2,-1.2000000000000002,9.200000000000001,2.6,-0.2,-0.1,-1.0999999999999999
1698674854075.0,16,0.1,0.1,-0.2,-1.2000000000000002,9.200000000000001,2.6,0.1,-1.0,-0.9
1698674854092.0,16,0.0,0.1,-0.2,-1.2000000000000002,9.200000000000001,2.6,0.30000000000000004,-1.0,-0.8
1698674854112.0,16,0.0,0.1,-0.2,-1.2000000000000002,9.1,2.6,0.9,0.7,-0.6000000000000001
1698674854125.0,16,0.1,0.0,-0.1,-1.1,9.0,2.7,1.2000000000000002,1.9,-0.9
1698674854142.0,16,0.1,0.0,-0.2,-1.1,9.1,2.6,0.9,3.5,-2.5
1698674854159.0,16,0.2,0.0,-0.2,-1.0,9.1,2.7,0.5,4.5,-3.7000000000000006
1698674854175.0,16,0.30000000000000004,0.1,-0.2,-1.0,9.200000000000001,2.6,0.5,5.4,-2.4000000000000004
1698674854192.0,16,0.30000000000000004,0.1,-0.2,-0.9,9.200000000000001,2.6,0.6000000000000001,8.0,1.3
1698674854209.0,16,0.2,0.1,-0.2,-1.0,9.200000000000001,2.6,1.0999999999999999,9.3,1.3
1698674854225.0,16,0.2,0.1,-0.2,-1.0,9.200000000000001,2.5,1.4,10.700000000000001,1.6
1698674854242.0,16,0.2,0.1,-0.2,-1.0,9.200000000000001,2.5,1.2000000000000002,11.8,2.0
1698674854259.0,16,0.1,0.1,-0.2,-1.0,9.200000000000001,2.6,1.6,12.700000000000001,2.8
1698674854276.0,16,0.1,0.0,-0.1,-1.1,9.200000000000001,2.6,1.3,14.0,3.5
1698674854292.0,16,0.1,0.0,-0.1,-1.0,9.1,2.6,0.4,15.6,3.4
1698674854310.0,16,0.2,0.0,-0.1,-1.0,9.1,2.6,-0.1,16.6,3.2
1698674854326.0,16,0.2,0.0,-0.2,-1.0,9.1,2.5,-0.4,18.7,3.6
1698674854342.0,16,0.1,0.0,-0.2,-1.0,9.1,2.5,-0.1,19.500000000000004,4.1000000000000005
1698674854359.0,16,0.1,0.2,-0.2,-1.1,9.3,2.4000000000000004,0.7,20.2,4.9
1698674854375.0,16,0.0,0.1,-0.2,-1.1,9.3,2.4000000000000004,0.9,19.9,5.4
1698674854392.0,16,0.0,0.2,-0.1,-1.2000000000000002,9.3,2.5,1.3,19.0,5.6
1698674854409.0,16,-0.1,0.0,-0.1,-1.3,9.200000000000001,2.5,1.2000000000000002,18.5,5.0
1698674854426.0,16,0.0,-0.1,-0.1,-1.2000000000000002,9.1,2.5,0.4,17.7,4.0
1698674854442.0,16,0.0,-0.1,-0.1,-1.2000000000000002,9.0,2.5,0.1,17.9,3.8
1698674854459.0,16,0.0,-0.1,-0.1,-1.2000000000000002,9.1,2.4000000000000004,0.1,18.5,4.300000000000001
1698674854475.0,16,0.0,0.0,-0.2,-1.2000000000000002,9.1,2.4000000000000004,1.0999999999999999,17.7,4.7
1698674854492.0,16,0.0,-0.1,-0.2,-1.2000000000000002,9.1,2.3000000000000003,1.6,17.400000000000002,4.9
1698674854509.0,16,0.0,0.1,-0.2,-1.2000000000000002,9.200000000000001,2.3000000000000003,2.5,16.900000000000002,4.7
1698674854525.0,16,-0.1,0.2,-0.1,-1.2000000000000002,9.4,2.3000000000000003,3.3000000000000003,16.5,4.9
1698674854542.0,16,-0.1,0.30000000000000004,-0.1,-1.3,9.5,2.4000000000000004,3.4,16.2,4.300000000000001
1698674854559.0,16,-0.1,0.2,-0.1,-1.3,9.4,2.3000000000000003,3.1,15.7,4.1000000000000005
1698674854575.0,16,-0.1,0.1,-0.2,-1.3,9.3,2.3000000000000003,1.5000000000000002,13.700000000000001,3.2
1698674854592.0,16,-0.1,0.1,-0.2,-1.3,9.3,2.2,-0.4,12.700000000000001,3.1
1698674854609.0,16,-0.1,0.0,-0.2,-1.3,9.200000000000001,2.2,-1.0,12.3,3.3000000000000003
1698674854626.0,16,-0.1,0.0,-0.2,-1.4000000000000001,9.200000000000001,2.2,-0.9,10.9,3.2
1698674854643.0,16,-0.1,0.0,-0.2,-1.4000000000000001,9.200000000000001,2.2,-0.5,10.4,2.8
1698674854659.0,16,-0.1,0.0,-0.2,-1.3,9.200000000000001,2.2,0.2,10.5,2.4000000000000004
1698674854675.0,16,0.0,0.1,-0.1,-1.2000000000000002,9.3,2.2,0.5,10.5,2.5
1698674854692.0,16,0.0,0.1,-0.1,-1.3,9.3,2.2,0.5,10.1,2.9
1698674854709.0,16,-0.1,0.1,-0.1,-1.3,9.3,2.2,0.1,9.8,3.0000000000000004
1698674854725.0,16,-0.1,0.1,-0.1,-1.4000000000000001,9.3,2.2,-1.3,8.0,2.7
1698674854742.0,16,-0.1,0.0,-0.1,-1.4000000000000001,9.200000000000001,2.2,-1.5000000000000002,7.0,2.4000000000000004
1698674854759.0,16,-0.2,-0.1,-0.1,-1.4000000000000001,9.200000000000001,2.2,-1.2000000000000002,6.3,2.5
1698674854775.0,16,-0.2,-0.1,-0.1,-1.4000000000000001,9.1,2.2,-0.2,5.1,2.3000000000000003
1698674854792.0,16,-0.1,-0.1,-0.1,-1.4000000000000001,9.200000000000001,2.2,0.6000000000000001,4.1000000000000005,1.5000000000000002
1698674854810.0,16,-0.1,0.0,-0.1,-1.3,9.200000000000001,2.2,0.9,3.5,1.2000000000000002
1698674854826.0,16,-0.1,0.0,-0.1,-1.3,9.3,2.2,0.9,2.1,0.8
1698674854842.0,16,-0.1,0.1,-0.1,-1.4000000000000001,9.3,2.2,1.0,0.5,0.8
1698674854859.0,16,-0.1,0.1,-0.1,-1.4000000000000001,9.3,2.2,0.8,-0.5,0.7
1698674854876.0,16,-0.1,0.0,0.0,-1.4000000000000001,9.200000000000001,2.2,0.5,-2.4000000000000004,0.2
1698674854892.0,16,-0.1,0.0,-0.1,-1.4000000000000001,9.200000000000001,2.2,0.4,-3.2,-0.2
1698674854909.0,16,0.0,-0.1,0.0,-1.3,9.200000000000001,2.3000000000000003,0.4,-4.2,-0.6000000000000001
1698674854926.0,16,0.0,0.0,0.0,-1.3,9.200000000000001,2.2,1.0,-4.800000000000001,-0.8
1698674854942.0,16,0.1,0.0,0.0,-1.2000000000000002,9.3,2.3000000000000003,1.6,-5.9,-1.2000000000000002
1698674854959.0,16,0.1,0.0,0.0,-1.2000000000000002,9.3,2.3000000000000003,1.6,-6.3,-1.2000000000000002
1698674854975.0,16,0.1,0.0,0.0,-1.2000000000000002,9.3,2.3000000000000003,0.9,-6.7,-1.6
1698674854992.0,16,0.1,0.1,0.0,-1.1,9.3,2.3000000000000003,-0.5,-6.3,-1.8
1698674855010.0,16,0.1,0.1,0.1,-1.1,9.3,2.3000000000000003,-0.9,-5.9,-1.5000000000000002
1698674855025.0,16,0.1,0.1,0.0,-1.1,9.3,2.3000000000000003,-1.0,-4.7,-1.0999999999999999
1698674855042.0,16,0.2,0.1,0.1,-1.1,9.3,2.3000000000000003,-0.9,-3.8,-0.6000000000000001
1698674855059.0,16,0.2,0.1,0.1,-1.1,9.4,2.4000000000000004,-1.0,-3.3000000000000003,-0.6000000000000001
1698674855075.0,16,0.1,0.2,0.30000000000000004,-1.1,9.4,2.6,-1.8,-0.8,-0.7
1698674855092.0,16,0.1,0.4,0.4,-1.1,9.700000000000001,2.8000000000000003,-3.7000000000000006,2.1,-1.2000000000000002
1698674855109.0,16,0.1,0.6000000000000001,0.6000000000000001,-1.1,9.9,3.0,-8.1,5.500000000000001,-1.6
1698674855125.0,16,0.2,0.6000000000000001,0.6000000000000001,-1.1,9.9,3.0,-10.700000000000001,7.300000000000001,-1.6
1698674855142.0,16,0.30000000000000004,0.4,0.7000000000000001,-0.9,9.700000000000001,3.1,-16.400000000000002,11.8,-1.9
1698674855158.0,16,0.4,0.30000000000000004,0.7000000000000001,-0.8,9.600000000000001,3.1,-19.200000000000003,15.299999999999999,-2.0
1698674855175.0,16,0.5,0.2,0.7000000000000001,-0.8,9.4,3.3000000000000003,-23.1,23.700000000000003,-2.3000000000000003
1698674855192.0,16,0.6000000000000001,-0.2,0.7000000000000001,-0.7000000000000001,9.200000000000001,3.3000000000000003,-23.8,27.3,-2.0
1698674855209.0,16,0.6000000000000001,-0.30000000000000004,0.7000000000000001,-0.7000000000000001,8.8,3.3000000000000003,-24.5,36.5,-0.8
1698674855226.0,16,0.6000000000000001,-0.6000000000000001,0.4,-0.7000000000000001,8.5,3.1,-25.0,45.6,2.1999999999999997
1698674855242.0,16,0.6000000000000001,-0.7000000000000001,0.30000000000000004,-0.8,8.5,3.0,-26.400000000000002,51.300000000000004,5.0
1698674855259.0,16,0.6000000000000001,-0.5,0.1,-0.8,8.6,2.9000000000000004,-25.900000000000002,54.2,6.9
1698674855276.0,16,0.7000000000000001,-0.2,-0.1,-0.7000000000000001,8.9,2.8000000000000003,-24.7,59.300000000000004,10.2
1698674855292.0,16,0.7000000000000001,0.0,-0.1,-0.8,9.1,2.8000000000000003,-22.1,66.4,12.200000000000001
1698674855308.0,16,0.5,-0.1,-0.30000000000000004,-1.0,9.0,2.6,-19.3,72.8,14.100000000000001
1698674855325.0,16,0.4,-0.2,-0.30000000000000004,-1.1,8.9,2.6,-18.400000000000002,74.30000000000001,14.800000000000002
1698674855342.0,16,0.30000000000000004,-0.4,-0.4,-1.2000000000000002,8.700000000000001,2.5,-17.200000000000003,76.0,16.1
1698674855359.0,16,0.30000000000000004,-0.30000000000000004,-0.4,-1.2000000000000002,8.700000000000001,2.6,-16.400000000000002,75.60000000000001,18.7
1698674855376.0,16,0.30000000000000004,-0.2,-0.2,-1.2000000000000002,8.8,2.7,-15.399999999999999,75.3,20.2
1698674855392.0,16,0.30000000000000004,-0.1,0.0,-1.2000000000000002,8.9,2.9000000000000004,-12.8,77.3,22.2
1698674855409.0,16,0.30000000000000004,0.0,0.0,-1.2000000000000002,9.0,2.9000000000000004,-12.6,81.0,25.0
1698674855425.0,16,0.2,0.0,0.0,-1.3,9.0,2.9000000000000004,-13.4,83.10000000000001,26.8
1698674855442.0,16,0.1,0.0,-0.1,-1.4000000000000001,9.0,2.8000000000000003,-16.0,87.00000000000001,30.200000000000003
1698674855459.0,16,0.0,0.0,-0.2,-1.5,9.1,2.7,-17.8,88.10000000000001,31.6
1698674855476.0,16,-0.2,0.1,-0.30000000000000004,-1.7000000000000002,9.1,2.7,-19.1,86.0,33.5
1698674855492.0,16,-0.5,0.0,-0.2,-1.9000000000000001,9.1,2.7,-16.1,86.2,34.2
1698674855509.0,16,-0.6000000000000001,0.0,-0.30000000000000004,-2.1,9.1,2.7,-11.700000000000001,89.30000000000001,34.400000000000006
1698674855525.0,16,-0.6000000000000001,0.0,-0.30000000000000004,-2.1,9.0,2.6,-10.0,89.5,34.400000000000006
1698674855542.0,16,-0.8,0.0,-0.30000000000000004,-2.3000000000000003,9.0,2.6,-8.200000000000001,88.3,35.3
1698674855559.0,16,-1.1,-0.1,-0.30000000000000004,-2.5,8.9,2.6,-8.9,86.80000000000001,35.9
1698674855575.0,16,-1.3,-0.2,-0.30000000000000004,-2.7,8.9,2.6,-10.0,85.9,36.1
1698674855592.0,16,-1.3,-0.2,-0.2,-2.8000000000000003,8.9,2.7,-11.8,81.8,35.7
1698674855609.0,16,-1.3,-0.2,-0.1,-2.8000000000000003,8.9,2.8000000000000003,-12.100000000000001,79.10000000000001,35.7
1698674855625.0,16,-1.3,-0.1,0.0,-2.7,8.9,2.8000000000000003,-11.4,75.1,36.1
1698674855642.0,16,-1.3,-0.1,0.0,-2.7,9.0,2.9000000000000004,-11.6,72.4,36.6
1698674855658.0,16,-1.4000000000000001,-0.1,-0.1,-2.8000000000000003,8.9,2.8000000000000003,-12.9,67.60000000000001,36.800000000000004
1698674855675.0,16,-1.6,-0.1,-0.1,-2.8000000000000003,8.9,2.8000000000000003,-13.700000000000001,65.3,37.300000000000004
1698674855692.0,16,-1.7000000000000002,-0.2,-0.1,-3.0,8.9,2.8000000000000003,-14.0,61.0,38.300000000000004
1698674855710.0,16,-1.7000000000000002,-0.2,-0.2,-3.0,8.9,2.7,-13.700000000000001,57.800000000000004,38.7
1698674855725.0,16,-1.6,-0.4,-0.4,-2.9000000000000004,8.700000000000001,2.5,-13.3,49.5,39.50000000000001
1698674855742.0,16,-1.5,-0.5,-0.4,-2.7,8.6,2.5,-12.5,47.1,39.8
1698674855758.0,16,-1.4000000000000001,-0.5,-0.5,-2.5,8.5,2.4000000000000004,-10.3,46.1,38.900000000000006
1698674855776.0,16,-1.4000000000000001,-0.5,-0.6000000000000001,-2.5,8.6,2.4000000000000004,-9.200000000000001,45.5,39.00000000000001
1698674855792.0,16,-1.3,-0.30000000000000004,-0.5,-2.4000000000000004,8.8,2.5,-5.9,45.5,38.5
1698674855809.0,16,-1.4000000000000001,-0.2,-0.30000000000000004,-2.4000000000000004,8.9,2.6,-2.1,48.1,38.900000000000006
1698674855825.0,16,-1.2000000000000002,-0.30000000000000004,-0.30000000000000004,-2.2,8.8,2.7,0.30000000000000004,49.2,39.300000000000004
1698674855842.0,16,-0.9,-0.30000000000000004,-0.4,-1.8,8.8,2.5,3.7000000000000006,47.5,39.300000000000004
1698674855859.0,16,-0.8,-0.30000000000000004,-0.4,-1.6,8.8,2.5,3.8,44.4,40.6
1698674855875.0,16,-0.7000000000000001,0.1,0.1,-1.5,9.200000000000001,2.9000000000000004,4.5,45.5,41.300000000000004
1698674855892.0,16,-0.5,0.5,0.5,-1.2000000000000002,9.600000000000001,3.3000000000000003,5.2,49.2,39.00000000000001
1698674855908.0,16,0.2,1.8,2.2,-0.5,10.9,5.0,9.4,60.8,25.700000000000003
1698674855925.0,16,0.6000000000000001,2.1,2.2,0.0,11.3,5.0,12.000000000000002,73.0,14.4
1698674855942.0,16,1.6,0.1,0.8,0.9,9.3,3.6,6.6000000000000005,77.7,11.5
1698674855958.0,16,1.4000000000000001,-1.8,0.8,0.7000000000000001,7.4,3.6,2.9,91.0,28.3
1698674855976.0,16,1.3,-2.0,0.8,0.6000000000000001,7.2,3.5,7.1000000000000005,99.0,35.8
1698674855992.0,16,1.1,-1.8,0.9,0.5,7.4,3.5,8.5,97.7,37.2
1698674856008.0,16,1.2000000000000002,-0.5,1.0,0.6000000000000001,8.700000000000001,3.7,9.4,98.0,38.5
1698674856026.0,16,1.5,0.0,1.3,0.9,9.200000000000001,3.9000000000000004,11.1,103.0,40.0
1698674856042.0,16,2.0,0.5,1.3,1.5,9.8,3.8000000000000003,19.0,118.2,49.1
1698674856058.0,16,2.2,0.4,1.0,1.8,9.4,3.1,20.5,128.8,58.9
1698674856075.0,16,1.9000000000000001,-0.1,0.1,1.5,9.200000000000001,2.5,13.9,127.2,62.1
1698674856092.0,16,1.7000000000000002,0.0,0.2,1.4000000000000001,9.3,2.6,8.9,127.50000000000001,63.800000000000004
1698674856108.0,16,1.1,0.6000000000000001,0.4,0.9,9.9,2.8000000000000003,4.5,130.6,65.5
1698674856125.0,16,0.7000000000000001,0.9,0.4,0.6000000000000001,10.3,2.7,5.1,137.20000000000002,63.6
1698674856142.0,16,0.5,0.6000000000000001,0.1,0.6000000000000001,9.9,2.4000000000000004,4.6000000000000005,142.0,63.6
1698674856159.0,16,0.4,0.30000000000000004,0.0,0.5,9.700000000000001,2.3000000000000003,2.8,144.60000000000002,64.50000000000001
1698674856175.0,16,0.4,0.0,-0.1,0.4,9.200000000000001,2.1,-1.6,145.7,65.8
1698674856192.0,16,0.2,-0.30000000000000004,-0.2,0.4,9.0,2.1,-3.5,143.8,65.8
1698674856209.0,16,0.1,-0.30000000000000004,-0.2,0.5,9.0,2.1,-4.9,141.70000000000002,63.900000000000006
1698674856225.0,16,-0.1,-0.1,-0.2,0.30000000000000004,9.200000000000001,2.1,-2.6,143.70000000000002,62.50000000000001
1698674856242.0,16,-0.1,-0.1,-0.4,0.30000000000000004,9.200000000000001,2.0,-0.9,144.70000000000002,62.0
1698674856258.0,16,-0.4,0.1,-0.5,0.1,9.4,1.9000000000000001,1.2000000000000002,141.1,61.599999999999994
1698674856275.0,16,-0.8,0.1,-0.7000000000000001,-0.2,9.4,1.8,0.4,141.0,61.7
1698674856292.0,16,-1.0,0.1,-0.7000000000000001,-0.4,9.4,1.7000000000000002,-0.2,138.9,60.900000000000006
1698674856309.0,16,-1.2000000000000002,0.0,-0.8,-0.5,9.3,1.7000000000000002,-0.9,132.2,59.20000000000001
1698674856326.0,16,-1.2000000000000002,-0.30000000000000004,-0.9,-0.5,9.0,1.6,-1.7,129.00000000000003,56.5
1698674856342.0,16,-1.3,-0.4,-1.0,-0.5,8.8,1.5,-1.8,125.80000000000001,55.7
1698674856359.0,16,-1.5,-0.4,-1.1,-0.7000000000000001,8.8,1.4000000000000001,-1.3,117.1,53.8
1698674856375.0,16,-1.8,-0.30000000000000004,-1.4000000000000001,-0.9,8.8,1.2000000000000002,-0.1,107.8,49.2
1698674856392.0,16,-2.3000000000000003,-0.30000000000000004,-1.6,-1.3,8.9,1.0,0.4,97.8,42.5
1698674856409.0,16,-2.4000000000000004,-0.30000000000000004,-1.6,-1.4000000000000001,8.9,1.0,1.0,92.9,39.2
1698674856425.0,16,-2.5,-0.5,-1.7000000000000002,-1.6,8.6,1.0,3.6,84.4,32.4
1698674856442.0,16,-2.4000000000000004,-0.7000000000000001,-1.8,-1.5,8.5,0.8,5.9,79.9,28.8
1698674856458.0,16,-1.9000000000000001,-0.9,-2.0,-1.0,8.3,0.6000000000000001,10.3,70.8,22.4
1698674856475.0,16,-1.7000000000000002,-0.7000000000000001,-1.8,-0.7000000000000001,8.4,0.7000000000000001,16.1,60.599999999999994,19.9
1698674856492.0,16,-1.6,-0.30000000000000004,-1.7000000000000002,-0.7000000000000001,8.8,0.8,20.6,54.800000000000004,20.4
1698674856508.0,16,-1.8,0.5,-1.4000000000000001,-0.9,9.600000000000001,1.0,30.9,46.6,20.5
1698674856525.0,16,-1.9000000000000001,0.8,-1.1,-0.9,10.0,1.2000000000000002,40.5,42.6,18.0
1698674856542.0,16,-1.5,0.8,-1.0,-0.5,10.0,1.2000000000000002,44.1,42.0,12.4
1698674856558.0,16,-1.2000000000000002,1.0,-0.8,-0.2,10.200000000000001,1.3,43.1,40.9,11.1
1698674856575.0,16,-0.8,1.3,-0.8,0.1,10.600000000000001,1.2000000000000002,35.199999999999996,38.300000000000004,10.0
1698674856592.0,16,-0.8,1.3,-0.9,0.2,10.600000000000001,1.1,26.6,38.7,8.700000000000001
1698674856610.0,16,-0.7000000000000001,1.5,-0.6000000000000001,0.30000000000000004,10.8,1.3,3.1,43.1,4.6000000000000005
1698674856625.0,16,-0.4,2.6,-0.2,0.5,11.9,1.8,-15.2,46.300000000000004,-0.30000000000000004
1698674856642.0,16,-0.6000000000000001,3.3000000000000003,0.9,0.2,12.600000000000001,3.0,-19.1,51.6,-4.5
1698674856658.0,16,-0.9,3.2,1.1,-0.1,12.5,3.2,-15.2,53.1,-4.1000000000000005
1698674856675.0,16,-1.6,2.1,2.0,-0.8,11.4,4.2,-6.5,51.6,2.1999999999999997
1698674856692.0,16,-2.0,1.5,3.3000000000000003,-1.4000000000000001,10.4,6.2,0.8,49.6,5.4
1698674856709.0,16,-2.3000000000000003,0.5,3.8000000000000003,-1.5,9.9,6.0,24.400000000000002,37.6,11.2
1698674856726.0,16,-1.5,-1.4000000000000001,3.0,-0.7000000000000001,8.0,5.1000000000000005,12.100000000000001,49.7,10.5
1698674856742.0,16,-0.9,-2.2,2.9000000000000004,0.2,7.0,4.9,-1.0,64.9,6.1000000000000005
1698674856760.0,16,0.0,-2.3000000000000003,2.3000000000000003,0.7000000000000001,7.1000000000000005,4.5,-8.5,81.5,6.4
1698674856775.0,16,0.9,-1.4000000000000001,2.1,1.5,7.9,4.4,-4.6000000000000005,79.6,11.1
1698674856792.0,16,1.1,-0.6000000000000001,2.1,1.5,9.5,4.5,3.4,75.0,21.6
1698674856809.0,16,0.30000000000000004,0.6000000000000001,2.1,1.0,9.9,4.5,4.6000000000000005,80.7,25.2
1698674856825.0,16,-0.8,0.30000000000000004,1.4000000000000001,-0.1,9.700000000000001,3.8000000000000003,-0.7,94.80000000000001,24.3
1698674856842.0,16,-1.1,-0.1,1.0,-0.5,9.200000000000001,3.4000000000000004,-5.500000000000001,94.2,21.3
1698674856859.0,16,-1.6,-0.9,0.4,-0.9,8.4,2.8000000000000003,-10.9,89.30000000000001,18.7
1698674856875.0,16,-1.8,-1.1,0.0,-1.2000000000000002,8.200000000000001,2.5,-10.4,87.9,19.0
1698674856892.0,16,-1.8,-0.8,0.1,-1.3,8.4,2.6,-7.0,83.8,15.6
1698674856910.0,16,-1.8,-0.8,-0.1,-1.3,8.4,2.5,-4.6000000000000005,84.0,13.5
1698674856927.0,16,-1.4000000000000001,-1.1,0.1,-0.9,8.1,2.6,-1.2000000000000002,84.80000000000001,10.1
1698674856942.0,16,-1.2000000000000002,-1.3,0.1,-0.8,7.9,2.7,1.0,84.60000000000001,8.5
1698674856958.0,16,-1.1,-1.5,-0.30000000000000004,-0.7000000000000001,7.7,2.3000000000000003,2.3000000000000003,83.50000000000001,8.600000000000001
1698674856975.0,16,-1.2000000000000002,-1.6,-0.8,-0.9,7.6000000000000005,1.8,-4.0,80.6,10.0
1698674856992.0,16,-1.2000000000000002,-1.4000000000000001,-1.0,-0.9,7.800000000000001,1.6,-11.000000000000002,73.2,11.9
