timestamp,interval,accx,accy,accz,accGx,accGy,accGz,alpha,beta,gamma
1698674845.001,0.01666666753590107,0.6920280324205755,0.08399433424323796,-1.8041385029554367,2.2101472614012656,-3.8519717805057763,-10.657040502166748,-21.063294239869453,10.006362884078435,-2.657048601293449
1698674845.178,0.01666666753590107,-0.27284948434345424,0.15741963593810795,0.40082536445856093,0.9059061992920935,-3.9571667236879464,-8.422501580700278,-6.437452012076548,1.215001007112412,4.06016497097906
1698674845.192,0.01666666753590107,-0.5015176624592393,0.05818038628995418,0.4477180485367775,0.6750153766907752,-4.02824487773478,-8.38898275745809,-12.971280554662915,-0.13978352994358687,1.47509631825379
1698674845.208,0.01666666753590107,-0.5207280474290251,0.0011214052453637122,0.3290694572806358,0.6531682865418493,-4.051887326867878,-8.52335791015625,-15.285425485091398,-1.9321369324613122,-0.19915222790042528
1698674845.225,0.01666666753590107,-0.5199812476497143,-0.14209844042658806,0.24535540128350256,0.6459856815613806,-4.163068066461384,-8.622716694530844,-11.408373616892149,-4.8994026940163975,0.2067319102699279
1698674845.242,0.01666666753590107,-0.6782764243133366,-0.5586392604112624,0.29588556508123875,0.47105924970097834,-4.5649946701601145,-8.580967803081869,1.7906324883315732,-3.789064517537499,3.5512766042253823
1698674845.258,0.01666666753590107,-0.6394201125007123,-0.6233563549935818,0.566519784528017,0.24016850016489624,-4.834941199603676,-8.245929792785644,3.484968273989252,-1.8625509651972225,7.020056902994881
1698674845.275,0.01666666753590107,-0.6636752867046743,-0.6391659185439348,0.6655611735165119,0.12779058667607604,-4.859182199151814,-8.151208605083823,-7.220222853698098,-2.047924433705484,10.235574641113953
1698674845.292,0.01666666753590107,-0.7146818358425051,-0.6937836439162492,0.6671504885345697,-0.007631371661275625,-4.856788289752602,-8.183830187225341,-27.591143378724297,-6.685071128925252,14.8516145576945
1698674845.308,0.01666666753590107,-0.7185586772758513,-0.2725438524603844,0.5238695603251456,-0.06883315159901976,-4.431368874524534,-8.333467206463217,-34.4392242292679,-8.667626169962071,14.262079586089545
1698674845.325,0.01666666753590107,-0.7601993591099977,-0.03347673766613007,0.5507365244626998,-0.14200593983754514,-4.118027439990639,-8.343343872833252,-30.174915149280913,-6.944500923509377,9.569492885707017
1698674845.341,0.01666666753590107,-0.829645089649409,0.32152064933627844,0.6563783346295357,-0.2317885386260226,-3.690662443652749,-8.271966151317953,-16.52176656449187,-2.7700312426662728,-2.26781084808982
1698674845.358,0.01666666753590107,-0.8106888986364007,0.2495715576738119,0.888237125480175,-0.2097918474059552,-3.733908003400266,-8.052747061809898,-8.02869356273229,-0.1310083376857072,-9.155155681407473
1698674845.375,0.01666666753590107,-0.8280447417806833,-0.11612988643348217,1.044879055044055,-0.21458017766103146,-4.0822640526920555,-7.902960404968261,-6.535730750270216,2.3648753067151063,-9.915735665302474
1698674845.392,0.01666666753590107,-0.6853855987314135,-0.5477151308149099,1.2271820800870656,-0.04967961138300597,-4.483442176111042,-7.732523174285888,-13.061671278138864,3.5347347398292577,-5.964443055919771
1698674845.408,0.01666666753590107,-0.4585805841390043,-0.5700844912722707,1.0773147592246533,0.19198519175425172,-4.4675808823734515,-7.898022364044189,-18.556990474879125,6.046439476905774,-1.3807273297514262
1698674845.425,0.01666666753590107,-0.4176030423887074,-0.5499132253810763,0.9274316562712192,0.24780001795664428,-4.403835263171792,-8.065615895733236,-17.654657598723325,6.729575360896586,2.8562066722072657
1698674845.442,0.01666666753590107,-0.30354923157691954,-0.2360717323705554,0.38496670106947417,0.37618900891728696,-4.048895159314573,-8.62451293029785,-8.657821433408518,5.132896125887868,3.261850753240677
1698674845.458,0.01666666753590107,-0.25713987403623756,0.13221534431576729,-0.005315057542920112,0.4297593441285193,-3.6691143364503978,-9.019106706890463,-1.5252074952034695,3.2234113023654913,0.8179268924966628
1698674845.475,0.01666666753590107,-0.25252470839098096,0.19014321714937685,-0.04293137923181057,0.4366426739014685,-3.6137487153202295,-9.055469229125976,2.867686939541588,-2.5928636061155466,-1.8564893857522478
1698674845.492,0.01666666753590107,-0.23247253883481026,0.05132394452393055,-0.0686234543710947,0.40716399289555844,-3.8383544663026927,-9.048136402019859,-0.055938715693875526,-8.692940558573431,-4.753804832139704
1698674845.509,0.01666666753590107,-0.14333528874516485,0.033955461093783376,0.24612287852466105,0.4309564449585974,-3.9655467217594382,-8.6894550658077,-1.5961840462938917,-6.586773180824544,-6.667012962533384
1698674845.524,0.01666666753590107,-0.12608951837923377,-0.06429711560457944,0.43715164633691306,0.43409876157231625,-4.071938765771687,-8.495674368938802,-2.0662803536564818,2.5702565337364507,-7.468259465859818
1698674845.541,0.01666666753590107,-0.03873337955269962,-0.4085442682728171,0.3483879057347774,0.528819401284866,-4.36986723485738,-8.604611128997803,1.2352711943000116,11.365418557201938,-5.372068433167382
1698674845.558,0.01666666753590107,0.00126768184825778,-0.9097381786704063,-0.1802373246848583,0.56458278858345,-4.815637948718667,-9.157820765575766,4.4732932317955125,8.553193180607678,-4.00062365066312
1698674845.575,0.01666666753590107,-0.02398490589521825,-1.059685579031706,-0.4033329633653164,0.5404911709107458,-4.969166130176187,-9.379285003662108,5.612864617922066,1.1140836814650041,-5.421813127779408
1698674845.592,0.01666666753590107,-0.0680402111230418,-1.113218431776762,-0.4646446334183216,0.48692087223213165,-5.041440800531208,-9.433004318889974,1.5961027243540862,-3.1246894556494196,-11.446899298905606
1698674845.608,0.01666666753590107,-0.028020262358523902,-1.0670578613653778,-0.2846387794017792,0.5348049054352566,-5.025130593982339,-9.239373259624838,0.3532555696040612,4.939536458692569,-14.65091798667014
1698674845.625,0.01666666753590107,-0.020077523193135858,-1.0472300020843743,-0.2800695717900991,0.5889737545289099,-5.032013923755287,-9.21992037113607,9.369536536433955,22.219672587109294,-16.277641943177272
1698674845.642,0.01666666753590107,0.04905753396190703,-0.9799363350123167,-0.4732628241598606,0.7785645984925329,-5.067029123035073,-9.357736604198813,27.760429617303064,41.17997207209933,-16.387700196368275
1698674845.658,0.01666666753590107,0.2349289190109819,-0.9421794358089566,-1.0901122814774513,1.079785094860941,-5.096807006183266,-9.93294413757324,32.28069320624711,41.01954117377949,-18.22536088501291
1698674845.676,0.01666666753590107,0.27744368026591837,-0.8671291632607578,-1.3257535134762526,1.230470161847025,-5.087978095300495,-10.1261262840271,27.965538490531255,34.54011295349816,-19.80214079076162
1698674845.692,0.01666666753590107,0.5454015201102942,-0.8555120829641818,-1.4531693485558033,1.619228656414896,-5.1388548805788155,-10.20932479171753,17.127901457100894,25.401342042135898,-20.37084795426627
1698674845.708,0.01666666753590107,1.079439204032719,-0.7563982132613658,-1.350143273845315,2.2300492818970232,-5.064185716302693,-10.084526445659995,9.60138218516816,23.897984962417535,-17.41389343048038
1698674845.725,0.01666666753590107,1.1551906105875969,-0.742820646546781,-1.227942543065548,2.383128477478027,-5.06239035731852,-9.945962024578451,5.40197270890099,29.08742609000982,-14.181608858609392
1698674845.742,0.01666666753590107,1.200487842167914,-0.41213586302399635,-1.168431784954667,2.5435401348389686,-4.742165885272621,-9.864260477447509,5.648688960118782,33.982127479443136,-10.938422451049421
1698674845.758,0.01666666753590107,1.0237287149876355,-0.24001783964782952,-1.2820990806668997,2.45809691696167,-4.576666403253376,-9.96002795933187,1.7970806137948883,37.68620053804358,-6.2041387264444365
1698674845.776,0.01666666753590107,0.8505233347661793,-0.12527706948518752,-1.3853028500318527,2.377591886138916,-4.455609874072671,-10.050559294128417,-6.835652894461938,41.89336484033965,1.3117965270391285
1698674845.792,0.01666666753590107,1.0193886399567127,0.7505225992262363,-1.6555933706074952,2.6625020298279822,-3.544765779986977,-10.317063281902671,-16.678787490868583,36.05875087393713,4.415947390410908
1698674845.808,0.01666666753590107,1.3325580789245663,1.462557939147949,-1.8694459646463393,3.0382420528687537,-2.794931747546792,-10.537479472240806,-18.968022721394032,25.478080925008285,10.763471424327776
1698674845.825,0.01666666753590107,1.373258630364388,1.6264546621456741,-1.7913690377533436,3.1051300617493687,-2.5929209824711084,-10.472836611938476,-22.45939002886194,15.005847059342559,23.889150112726124
1698674845.842,0.01666666753590107,0.9836734757140279,1.6162518325611948,-1.5284475846409797,2.7055976597107945,-2.530971014514565,-10.246583970531821,-39.71001290987504,10.104417079803138,39.10292179078221
1698674845.858,0.01666666753590107,0.8485425362125039,2.6073721171498296,-1.7730103742420673,2.5447372356690465,-1.4528320794254541,-10.537030559429526,-51.49144377527047,5.930832975674607,41.67309806979591
1698674845.875,0.01666666753590107,0.8033496417894959,2.994559709139168,-1.9100550384104251,2.4697686500549314,-0.9659110245302319,-10.7252752494812,-48.03579152697255,7.525546823749654,42.80614449083099
1698674845.892,0.01666666753590107,0.5634307324714959,3.3650559863075613,-1.71862178145051,2.19772763255015,-0.5222355293825268,-10.57234561843872,-12.456841805434957,7.662639819449211,41.29481828789851
1698674845.908,0.01666666753590107,0.24936799792572856,3.2264825051367283,-0.9910106867343187,1.85775085067749,-0.6789061005190015,-9.841514977154135,11.755812533366004,5.21183731788076,38.62047479385294
1698674845.925,0.01666666753590107,0.08388239830136299,2.969214255480468,-0.37491701622009277,1.6605286350525914,-0.9929954308107495,-9.20585502090454,21.718907022826052,1.2962535778091184,38.672903325921965
1698674845.942,0.01666666753590107,-0.2057590116932988,2.257857837733626,0.9655454060882329,1.313967798614502,-1.785027267511189,-7.838765872955322,13.487509667227064,-1.6516231976830043,41.424018146238474
1698674845.958,0.01666666753590107,-0.47932329324260353,1.5247782484784722,1.8598048605978488,0.9900025326050818,-2.546682962909341,-6.93989220264852,-4.332878629725213,-1.9826779844418796,45.492560344234555
1698674845.975,0.01666666753590107,-0.6429241020336747,1.0515250689297915,2.0893296555429695,0.7550712024413049,-2.9879639641359446,-6.7366843367427585,-30.951053450331557,-0.42827412525967645,46.68667548663871
1698674845.992,0.01666666753590107,-0.6783386758945882,0.9973930812478065,2.054132085433602,0.6750152305603027,-2.9738983216434716,-6.809708071899414,-40.07687261548018,3.574621763921663,45.112880373557296
1698674846.008,0.01666666753590107,-0.5421418607272207,0.949592050153017,1.7174626745432615,0.7793126403808593,-2.9477114487245677,-7.183951134380698,-35.63374235283309,8.679717312340287,44.02363254057493
1698674846.03,0.01666666753590107,-0.35861645428240296,0.9834048879057168,1.448070564112067,0.945111251477152,-2.8492501977115867,-7.483974529919028,-16.581071389507798,16.815490312011804,41.01718475851583
1698674846.041,0.01666666753590107,-0.2518985393166542,1.0527701005548238,1.4384966800808905,1.0603320602416992,-2.77697523509562,-7.493551336559653,2.3408496894227633,24.431883774364504,37.37929281787822
1698674846.059,0.01666666753590107,-0.13196619186028838,0.8728387730792164,1.6774860534638165,1.209221475982666,-2.9909570084720847,-7.235576107677817,14.512693740889299,30.504102946518845,33.79918427761893
1698674846.075,0.01666666753590107,0.14077537512928245,0.5694184285789727,1.5424416232019662,1.530942324066162,-3.352930371966958,-7.337479315838217,10.608457719793398,26.86265589241825,31.217915771393123
1698674846.092,0.01666666753590107,0.3045372197009623,0.35213410652577876,1.4000778098374604,1.7114052742004393,-3.5944454644352195,-7.466466930279135,-0.6579330729228463,14.346452059133066,32.10675219374898
1698674846.108,0.01666666753590107,0.7293762046925724,0.05076543385833501,0.926193638908863,2.1169230342589316,-3.8911771249517795,-7.945456899914145,-12.686090274737264,-0.8297687329701725,34.396918037548836
1698674846.125,0.01666666753590107,0.9637405486233532,-0.04646276822835207,0.8776853363275527,2.288407728167623,-3.968240198627114,-8.01249454639852,-6.732523441297093,-3.8281579590257127,37.162782651377995
1698674846.142,0.01666666753590107,1.054806282557547,0.08759732717126607,0.9540098665952682,2.346167989349365,-3.851672213037312,-7.933336254009604,11.649068629469753,8.995937995438952,36.65362961479398
1698674846.159,0.01666666753590107,1.1902842819310724,0.18217559927105903,0.7241700143516063,2.485929365130514,-3.8462852593019603,-8.122478185161947,33.54712980667795,24.43934917112733,37.27929543333465
1698674846.175,0.01666666753590107,1.3142109597206115,0.1524801337093115,0.3378314404070377,2.6212019050598143,-3.939659124048054,-8.47786807861328,39.08823688406668,23.27929959720861,38.42619347800652
1698674846.191,0.01666666753590107,1.6469107363276183,-0.04459668209552765,-0.617583616811037,2.9457657214842734,-4.2778404008060695,-9.367612686046957,40.498677777863485,6.076374488490647,42.103505855438854
1698674846.208,0.01666666753590107,1.7852010166428982,-0.28308833508938547,-1.2966717958986758,3.005770546722412,-4.645649630847573,-9.994295555114746,32.971034086038635,-12.19745427264632,46.43812490274195
1698674846.225,0.01666666753590107,1.4954267740488052,-0.43832069011628627,-1.3550737159848212,2.640056023937836,-4.890306820733845,-10.017638436779379,36.86070729005042,-6.934046038324203,48.38484151431689
1698674846.242,0.01666666753590107,1.2329600789666175,-0.4484241509795189,-1.3061767063468694,2.318185757446289,-5.006425893512368,-9.92112276687622,45.41424539521119,2.61560002520205,46.41453342934872
1698674846.258,0.01666666753590107,0.6878069075942039,-0.6683326840564608,-1.3873247112482785,1.74133264882192,-5.338471443994343,-9.945962024578451,45.48345911716551,13.707808027395716,43.54270526073599
1698674846.275,0.01666666753590107,0.30335400126576423,-0.8326452943786978,-1.3478537016034124,1.3528734294615685,-5.644630273547769,-9.828048177337646,43.24488169216676,19.755770636486403,38.92579449503627
1698674846.292,0.01666666753590107,0.10869045714773237,-0.9878998612374067,-1.4281950662970542,1.1583446176391095,-5.889437393298745,-9.85692765034139,32.211431672968594,15.360472188596914,35.44202577302
1698674846.308,0.01666666753590107,-0.3363081763625145,-1.3373013279289006,-1.3817635699898003,0.7139207883421331,-6.303932971191406,-9.772232766613364,13.919636099219908,10.822573904989543,30.85747985870238
1698674846.325,0.01666666753590107,-0.9744825265858322,-1.3863532358676194,-1.1188105526953935,0.07167633913569152,-6.376956706348061,-9.495553421783447,5.8671026149633345,13.615664506624013,25.046119271329168
1698674846.342,0.01666666753590107,-1.316795130994916,-1.1820815401226281,-1.015542485922575,-0.2572271139282733,-6.184372525787353,-9.383623909649252,0.6369374449401973,22.19525636837379,15.923831313981443
1698674846.358,0.01666666753590107,-1.628713254727423,-0.3243868524223566,-1.238630525818467,-0.5044285084046423,-5.3197670357853175,-9.60239408634603,-5.0449395110773825,26.443652815141938,-0.5550824302143547
1698674846.375,0.01666666753590107,-1.283370123516023,0.7080927397757768,-1.9671043748438357,-0.10504589010030031,-4.27739148799479,-10.32933414993286,0.4129765825921106,11.88852140139206,-9.820600521674304
1698674846.392,0.01666666753590107,-1.1559491738699377,0.9776718972116708,-2.1738655493170023,0.037409327874705196,-4.021211910358071,-10.525957961273193,17.829076724463356,-15.953706561411078,-17.55907763902546
1698674846.408,0.01666666753590107,-1.424894563446939,1.084672720772028,-1.5049766926825046,-0.2795231899537146,-3.9933793160587547,-9.815927531433104,40.84589385941567,-41.085619838904776,-29.1671275674347
1698674846.425,0.01666666753590107,-1.8275953663885591,1.0499813466191292,-0.3506926755458116,-0.7356186062134802,-4.107403170123696,-8.619874164581299,40.63116978738339,-50.272258423517776,-37.94797778326807
1698674846.442,0.01666666753590107,-1.888771427363157,0.9419301372230052,-0.027837270474433896,-0.845302823638916,-4.279785105133056,-8.262838842010497,29.120060733864143,-41.73963094250101,-41.15670503269168
1698674846.458,0.01666666753590107,-1.7903718434095381,0.5459475366204977,0.5516928022742271,-0.745494761126861,-4.714482928577065,-7.658452560424804,8.50221520996364,-7.989251781596405,-40.079850577958304
1698674846.475,0.01666666753590107,-1.3186995033115148,0.3943389250487089,-0.035660511445999146,-0.21173720932006834,-4.849904959979653,-8.24802471923828,-11.641034619458525,12.651922253414275,-39.28286995465537
1698674846.491,0.01666666753590107,-1.1104855727467686,0.35321897915303707,-0.702553225827217,0.08334814529418945,-4.838083004760742,-8.936357112011313,-23.485742064872245,14.65205862826153,-40.12488884534537
1698674846.509,0.01666666753590107,-0.5290063386917114,0.27794191211163993,-1.9294483056664467,0.7478885974608361,-4.828207507434487,-10.203937253460287,-19.694490179253048,-12.24077389368348,-41.46894371550423
1698674846.525,0.01666666753590107,0.12942469068393112,0.24373510660529135,-2.315934179127216,1.3980641319274902,-4.811447511291504,-10.622923128509521,-13.28330835538484,-46.64812589896316,-39.977209910205936
1698674846.541,0.01666666753590107,0.2976163343966007,0.055196986564993854,-2.052747353076935,1.4749778602600097,-4.9633302636295555,-10.395324333190917,-8.753993058243235,-83.24261632082859,-37.214736485299696
1698674846.558,0.01666666753590107,0.16487930429428815,-0.14416823243796825,-0.6616197424143553,1.1200374641418456,-5.131822205463052,-9.050980101013183,-1.348775918257518,-106.53984516460848,-37.88505808063392
1698674846.575,0.01666666753590107,-0.3684938513047993,-0.054260582497715946,1.4652023161768912,0.41838674011230464,-5.037999427905678,-6.943932417950034,7.170220746331727,-88.77997362436298,-40.830583990391084
1698674846.592,0.01666666753590107,-0.6048951809559017,-0.020374679508805275,2.313142502582073,0.08304887008666992,-5.0210903786808245,-6.094589963531494,16.761374723217795,-51.58989412196703,-45.87615401330623
1698674846.608,0.01666666753590107,-0.9635673840135336,0.01473813492655754,2.5494489204913378,-0.26815058593749996,-5.0579012292057275,-5.814468369293213,45.508225383095976,-3.5447463030486155,-51.75114805808186
1698674846.625,0.01666666753590107,-0.6583904051043092,0.16735913841128347,1.6284516811817884,0.12823942642211913,-5.027674433246254,-6.6518398154109715,78.52958771803385,20.9096986533615,-53.00741450683855
1698674846.642,0.01666666753590107,-0.6016300416801125,0.2931377276778221,0.9328975204616784,0.31109657821655273,-5.092617153277993,-7.211484453472495,110.85471471992648,27.54637661135674,-50.81857793447042
1698674846.658,0.01666666753590107,-0.12419270831458269,0.43144437460601326,-0.3419482280761003,0.9389759635925292,-5.291036615863442,-8.234556750378012,138.39662609511333,11.95527625524518,-43.22181614333962
1698674846.675,0.01666666753590107,0.12390826535001397,0.5015110135227442,-0.8453501699119805,1.252017903723195,-5.484966950336099,-8.530390293011068,131.0930091929703,-9.894668800581215,-39.41195711487402
1698674846.692,0.01666666753590107,0.1537641821704805,0.7125006193459034,-1.0915063661843538,1.2990040382385253,-5.4982846970707175,-8.593836637005209,106.34638688655703,-33.798627617201575,-36.948038088778205
1698674846.708,0.01666666753590107,0.10108999208137393,0.7248427990466356,-1.131566573894024,1.2039842329163104,-5.691915171813965,-8.464998660168051,65.34311522338052,-58.82045532074759,-37.58084145500155
1698674846.725,0.01666666753590107,-0.02200330362394452,0.7316489719301462,-0.8825053038299083,1.027262222876027,-5.7710740487247705,-8.147766940197348,39.48561387488344,-61.87865886124246,-38.421781175802685
1698674846.742,0.01666666753590107,0.10802344460636376,0.9105115011304616,-0.7077414421200752,1.1148002210754901,-5.63714839335978,-7.9385735701411955,19.388229619511556,-47.47101684488254,-35.1585899979374
1698674846.758,0.01666666753590107,0.3630108167838305,1.1811392908364533,-0.674934566539526,1.3585598776001482,-5.370344545856118,-7.90385764606893,-6.043546891792274,-13.546653982797498,-24.889562797816012
1698674846.775,0.01666666753590107,0.6946966671079396,1.7947826455891132,-1.0946107619404792,1.7298107725281267,-4.721964224243163,-8.349328792461753,-21.595519655469772,14.235023499239832,-22.014852289373536
1698674846.792,0.01666666753590107,0.8769461353328079,2.152399567440152,-1.3378373345017431,2.000205922522023,-4.307318424224853,-8.630348796844482,-29.39707954622152,39.22452306367053,-20.98079750752675
1698674846.808,0.01666666753590107,1.4501289579465984,3.0109838974565264,-1.8890075742065906,2.7503393032349646,-3.3614597153812644,-9.228748989757895,-29.92452382940283,62.28493900364233,-21.080178467497728
1698674846.825,0.01666666753590107,2.600228382875025,3.892726400220394,-2.604260707131028,4.064905652264505,-2.4106629656136036,-9.97259810256958,-30.27840959067953,68.88848200642654,-23.463033393429246
1698674846.842,0.01666666753590107,3.263607828438282,4.056459164828062,-2.956453850367665,4.896142541150003,-2.178275182452798,-10.347888628277182,-29.466696249336874,67.50036217083735,-17.972553385715937
1698674846.858,0.01666666753590107,4.343907740953564,4.055445019349456,-3.3365450543552635,6.1406786377504465,-2.1176719529300927,-10.741585163769125,-3.389815841444747,39.19678225035653,2.3075162318389855
1698674846.875,0.01666666753590107,4.366996355596185,3.5360949822753667,-2.457706456339359,6.186916657312214,-2.6752210800170895,-9.82505542526245,40.209029945730755,5.852390387491127,22.920356080851516
1698674846.892,0.01666666753590107,3.702285076907277,3.1990064691901203,-1.1446627868324517,5.461622899627685,-3.1197944007873533,-8.434921501812338,50.64726995989733,-11.01133898930754,42.534859622281836
1698674846.908,0.01666666753590107,2.1199526112131775,2.8857524206787346,0.8714888197749853,3.7397429931640622,-3.535637301635742,-6.361243588909506,0.8327029395489277,-6.061076572297112,58.97750186033369
1698674846.925,0.01666666753590107,1.018795788630098,2.6757208462327715,1.7473031015336513,2.5377041221618653,-3.7144548226505516,-5.534795687866211,-53.31135109471495,8.05617397508419,66.71810743538495
1698674846.943,0.01666666753590107,0.7399339851945638,2.6478151866972444,1.8935820425152778,2.176628730420023,-3.6194343597412106,-5.511002724346518,-90.93113487326933,21.128339838882777,72.68284333566538
1698674846.958,0.01666666753590107,0.30732495072335003,2.869718400722742,1.445181856933236,1.6638206623353062,-3.154510324859619,-6.173149705505371,-101.55556242911587,29.21811151449426,76.17832241701365
1698674846.976,0.01666666753590107,-0.019588059175759554,3.3601948100119827,0.8793313499689102,1.2770073104858397,-2.4914666871219873,-6.88258100040853,-88.96001741088452,22.735676303430832,74.06633230299732
1698674846.991,0.01666666753590107,-0.2062004718504846,3.4656928277939554,0.8251368184447287,1.0155904167175291,-2.2477064460754392,-7.051072942242026,-67.06307296960561,9.249836617455836,70.47701325264227
1698674847.008,0.01666666753590107,-0.8019386790130287,2.869520247802138,1.4804559994101523,0.29284079055786133,-2.717568521881103,-6.504296553581953,-45.91810162009386,-4.081482418265493,64.4690764058615
1698674847.025,0.01666666753590107,-1.211548749886453,2.339073647174239,2.537443425399065,-0.2114378610473126,-3.170821408191323,-5.513097650799155,-43.64988800428642,3.9552122841926436,63.26054273411944
1698674847.041,0.01666666753590107,-1.2872078019827604,1.8716466895610093,3.122165806093812,-0.341024172033742,-3.562871930041909,-4.98592495727539,-41.24890575629769,30.430634016711604,61.35877218237777
1698674847.058,0.01666666753590107,-1.3293265496574342,1.5141075091212988,3.3900597869217393,-0.34745851593017574,-3.8417964234501123,-4.7659570952266455,-23.751344216031946,71.79634625310027,56.491029549598494
1698674847.075,0.01666666753590107,-0.9798525291863829,1.5499387009590864,2.5274773271799087,0.10010748385004699,-3.7924154296875,-5.625026578411459,-1.337908446957793,85.88788028448282,48.99664546393702
1698674847.092,0.01666666753590107,-0.7771836655281483,1.5271441008269786,1.8530664922535418,0.419434203338623,-3.844040402984619,-6.264128784069419,14.801347780497792,79.32466271855836,40.467436492599845
1698674847.108,0.01666666753590107,-0.20054463804587722,1.272857205069065,0.4602858536869287,1.106569787542522,-4.1624692237854,-7.596950920757651,15.834074090551013,46.72049175321945,35.27241851555024
1698674847.125,0.01666666753590107,0.6706923989251256,0.5317670355767011,-0.505399837654829,2.0058919322691855,-4.939238609424233,-8.533831957897544,6.860495146246921,31.032984984520443,36.72565054449718
1698674847.142,0.01666666753590107,0.906906608506292,-0.037785833036899565,-0.6819447375625372,2.2556370929442346,-5.528211633300781,-8.694842604064942,-0.34521718400289664,36.891808556436075,38.86075401866482
1698674847.158,0.01666666753590107,1.0272096889711917,-0.9823948340803385,-1.1789683765381573,2.447322717230022,-6.483498680225014,-9.172185975536703,-2.276155845151695,69.36097400264052,40.469898775795635
1698674847.175,0.01666666753590107,0.888930952963233,-1.525983240354061,-2.1447820781737565,2.4129062144957483,-7.04793172160685,-10.104428246960044,10.14446504022786,82.14597480806968,37.63262794928858
1698674847.192,0.01666666753590107,0.6089376612797379,-2.1675293320327995,-2.8405075038075447,2.2925975810728967,-7.760954319000244,-10.717643147167562,25.254621041027562,76.35790175067162,31.512576962376645
1698674847.208,0.01666666753590107,0.20997984425872562,-2.814491603541374,-3.00228621173799,1.9865885352537034,-8.467243808746337,-10.816403965649009,16.809148481367448,54.93752351344661,28.72544996966124
1698674847.225,0.01666666753590107,-0.5306953146919607,-4.294495767530798,-2.8124785101532934,1.2924198375426232,-9.968857746997475,-10.600177628216146,-9.027379063735813,34.06222510783987,30.53503345817525
1698674847.242,0.01666666753590107,-1.9256721481285988,-5.152925783768296,-1.4426578914135693,-0.07915829238891602,-10.781838263702392,-9.25777868488729,-35.75303843687653,34.77636578179431,35.66937886482763
1698674847.258,0.01666666753590107,-2.6390783380120992,-4.9632794102251525,-0.8200000400781631,-0.7624035911560059,-10.526406874084472,-8.674940218243002,-42.73834120294027,46.06317825315951,36.203926544745755
1698674847.275,0.01666666753590107,-4.188417611773312,-3.8981221217840907,-0.205818340665102,-2.2524951416566967,-9.39020913325846,-8.096292189025878,-39.48121523305795,56.63474014483015,31.479105620348996
1698674847.292,0.01666666753590107,-4.833696752500534,-3.0675884127318858,-0.18178747673630713,-2.8055557251527903,-8.495974813190102,-8.093149799346923,-32.60506913521477,65.14852313392686,14.911207958202862
1698674847.308,0.01666666753590107,-5.331572624391317,-1.0603022496253252,-1.0309054747492075,-3.112911071014404,-6.426337115588784,-8.933664219665527,-4.299696290076822,64.55013026074204,-18.704700145869822
1698674847.325,0.01666666753590107,-4.837244215849042,-0.3949275385916233,-2.70612299875915,-2.4631851800113913,-5.762394483184814,-10.562618589672446,25.588788046170436,39.81054987936304,-39.28966940797411
1698674847.342,0.01666666753590107,-3.893065715177357,-1.3071832530409098,-4.457627643635869,-1.412728909356892,-6.741024411773681,-12.235267724499106,52.42127840811932,-29.94953256704883,-48.994162690173724
1698674847.359,0.01666666753590107,-3.1531700161665674,-1.7203659947693346,-4.853871525523067,-0.7212532501220703,-7.221212066760659,-12.599635874176025,47.71326657926997,-86.9273804346454,-49.754171499499385
1698674847.375,0.01666666753590107,-1.6857962011694907,-1.7749936570137739,-4.969874570706486,0.5371987052366137,-7.336732296863198,-12.734907683452963,31.305523192782292,-120.03649020985043,-43.42887332802856
1698674847.392,0.01666666753590107,-2.274846381935477,-1.9130799391895532,-2.8760861821889874,-0.20829569056406616,-7.52003836146891,-10.651803186035156,42.09447976045068,-95.73904846401388,-51.01085800489003
1698674847.408,0.01666666753590107,-2.68687644649744,-1.2966764720737933,-2.0526134975641965,-0.6992566684998571,-6.9719152343749995,-9.79931717289388,54.718380309021335,-70.19891527039601,-72.00202373957686
1698674847.425,0.01666666753590107,-3.0411417198330164,-0.508609447351098,-1.6482330709725617,-1.002721436663717,-6.269965819659829,-9.317783363994955,58.3329573989271,-38.012748467167306,-111.75959867173728
1698674847.442,0.01666666753590107,-2.1057953449144957,-0.17791618826091288,-2.0817945838630196,0.017058540698140858,-5.989395312610268,-9.690380997356772,55.60317667448312,-58.32495924740901,-119.14009618317796
1698674847.459,0.01666666753590107,-1.5042342037521301,-0.10738660800755023,-2.4054057757377625,0.6455364764891565,-5.965752571216226,-9.970352369469405,57.58823455296393,-83.70759510895554,-98.47211450944862
1698674847.475,0.01666666753590107,0.21615034958720206,0.21432196511626242,-2.054401550024748,2.264465857696533,-5.784840708270669,-9.536703178295493,96.33600699747298,-101.08177269695959,-47.356904874419136
1698674847.492,0.01666666753590107,1.138190960469842,1.6403116303235292,-0.8809761945664882,3.057245736285299,-4.558710183063149,-8.233509287151694,128.63306192187687,-92.87974686233895,-31.618468800173936
1698674847.508,0.01666666753590107,1.1770135892085731,2.5839368810266254,-0.5334545502722263,2.9789852695189416,-3.860351486316323,-7.7024460159301755,143.97357117507713,-86.59363690123106,-34.48195047762091
1698674847.525,0.01666666753590107,1.0180573913529514,4.039660590240359,0.03631985213756561,2.7052982383728024,-2.7373206855773926,-6.848164936065674,148.07955305500863,-89.39623427241655,-51.49859156823688
1698674847.542,0.01666666753590107,1.4219674239538609,3.673209204548597,-0.06759235775768757,3.041683571624756,-3.3340760338932274,-6.734290719604492,137.11668962578796,-104.43161848482482,-61.8638441809327
1698674847.558,0.01666666753590107,2.240869878053665,3.4269530550330876,-0.6438672281026839,3.774758046313375,-3.76682739944458,-7.1297817372977725,107.28920570901808,-113.66614352570879,-44.79943274726166
1698674847.575,0.01666666753590107,2.483772625488043,2.0737170758694408,-0.9964029011666774,3.822642371777445,-5.308693853107094,-7.311292735180258,74.44462916036765,-116.35921198336395,-7.577846435998088
1698674847.591,0.01666666753590107,2.4009879592955112,2.6769723075985907,-1.2239596109092234,3.55344424954839,-4.801871289172769,-7.461678526958822,44.05684433541412,-117.95027722976174,-2.5079459985988937
1698674847.608,0.01666666753590107,2.551336926195025,3.915436244678497,-1.2483540474534034,3.529053174005076,-3.602525310516357,-7.4688617164611815,7.307336793919733,-115.72262469234042,-16.63182481768287
1698674847.625,0.01666666753590107,2.798650475808978,4.987891288912296,-0.46405894248485563,3.6276644279479977,-2.4895208137512204,-6.75464143371582,-31.177122466575224,-84.37955594969057,-38.81967384590178
1698674847.642,0.01666666753590107,3.2752994352757927,5.297687305924296,0.9969605350494384,4.078223325933888,-2.105401669421792,-5.384259673961997,-42.619314911369045,-44.02998461650304,-45.165288415058804
1698674847.658,0.01666666753590107,3.48602220685631,5.1926919769674535,1.6627876660257577,4.339341090625152,-2.1187188316345216,-4.816833880504966,-48.547328299576904,10.568128867839057,-37.95110942500252
1698674847.675,0.01666666753590107,4.068481611055136,4.8227772990792985,1.993036688479781,5.092317439679056,-2.3508067550659177,-4.614673477825522,-61.72390043502831,73.0179119257787,-18.628656234745485
1698674847.692,0.01666666753590107,5.836688384407759,5.526264006364345,-0.3920645503759384,7.0189015150208025,-1.528398484802246,-7.100602989086508,-65.83749114569521,75.26339808712292,-4.1304254194236885
1698674847.709,0.01666666753590107,6.344516910514235,5.8005970803290605,-1.7331974192917345,7.62433533289805,-1.149815347290039,-8.532036891174316,-50.15550658494016,35.82225898902003,5.585569474451402
1698674847.725,0.01666666753590107,6.802821234995126,5.785263317596912,-2.660134570044279,8.083124226025491,-1.0904098031193017,-9.534458614239096,-13.553998143702554,-9.92988781726274,16.060699767212036
1698674847.742,0.01666666753590107,5.148098217481374,4.280194270455837,-0.14485621470212937,6.365733374609425,-2.596811560168862,-7.0292258520931,3.8398614881685296,-4.889962518809793,33.54690099534075
1698674847.758,0.01666666753590107,4.186123363356292,3.6153333541631696,1.4393489129960537,5.3591212871827185,-3.2731735291630026,-5.441271600994467,-9.766777777240959,49.59162324253683,55.806432858898944
1698674847.775,0.01666666753590107,2.5683845071077345,2.78784851128757,3.300349705380201,3.8180034599304196,-4.056526384845376,-3.6107547942012546,-52.004189491357906,146.38319361236591,77.47966469919783
1698674847.791,0.01666666753590107,2.186682506922632,3.643826458197832,1.8205828572779892,3.5996824883058665,-3.1009406472355128,-5.156660878643393,-86.46041406146998,183.61269696665119,82.0750432935391
1698674847.808,0.01666666753590107,2.2469087198264894,4.0334816093444825,0.17741291491389274,3.8524201087951657,-2.5598504875183106,-6.902183526501059,-111.82777762003235,173.51017782566365,80.44598853497769
1698674847.825,0.01666666753590107,2.585933607801795,4.69711152253747,-3.0370892295718193,4.359093035125732,-1.6437690773010254,-10.304792998394369,-121.2159545964849,94.4922520725414,75.89088073598283
1698674847.842,0.01666666753590107,2.021379716519266,4.175350917190313,-3.441742043364048,3.8015433235168454,-1.9813520959049462,-10.864438220977783,-104.40060942599297,48.7934131851833,77.82129710110353
1698674847.858,0.01666666753590107,1.5952506917171179,3.2747020539045333,-2.085028158956766,3.3327287109375,-2.740163800048828,-9.633069795116782,-80.08126326348818,48.26757741155152,89.46181774882702
1698674847.875,0.01666666753590107,0.2914142648860812,1.9861872609764337,0.7554360902309417,2.0168154773436484,-3.8971623368412254,-6.898293533325195,-65.74516747868415,99.79040249096361,101.2643504836632
1698674847.892,0.01666666753590107,-0.4567644015625119,2.1503508182168005,1.9700147093325853,1.3651437129698694,-3.6526544922977684,-5.722590296062827,-59.04841971448594,147.90747326905932,99.4506415608905
1698674847.908,0.01666666753590107,-0.7336283091790974,2.5225971539229155,1.8237118029534816,1.274762600298971,-3.225887461853027,-5.863399281200766,-38.88673605826755,173.8659213983946,86.9920691562746
1698674847.925,0.01666666753590107,-0.7409767722457646,2.9595243438541887,0.6101110889732837,1.577030413763225,-2.794034506446123,-6.985532256317138,-1.8135885406885746,162.32128977642893,67.91895714431074
1698674847.942,0.01666666753590107,-1.2311810865953563,1.7143045027732848,-1.1632044056952,1.260397244207561,-4.082562158855795,-8.670451090130209,0.7403785254859249,104.41183825698847,57.70701837281962
1698674847.958,0.01666666753590107,-1.7870576042950153,0.6524439177900553,-1.59301328805387,0.7659946013852953,-5.154865811920166,-9.071479868206382,-31.540502190798243,49.072931846776896,54.73113568729633
1698674847.975,0.01666666753590107,-2.036431301309168,-2.119558789590001,-1.2687100222617387,0.5008367675229907,-7.816769145202636,-8.83669846790731,-87.51374534470183,41.796584474895155,64.3390159436861
1698674847.992,0.01666666753590107,-3.1970728707790372,-4.2828602747946976,-0.8508107734054327,-0.6314709801271557,-9.841965059009194,-8.511386317333578,-87.28260491299942,86.80242212378002,65.17587121136359
1698674848.008,0.01666666753590107,-3.744131875772774,-4.52899893541038,-1.219274083441496,-1.0462661254882812,-9.987262587738037,-8.906878504070638,-51.302356818287834,125.7424029217224,52.757979413444275
1698674848.025,0.01666666753590107,-4.116577241182327,-4.189560644328594,-3.7092403028726575,-1.1596920136600732,-9.62095031825602,-11.32023377750814,-5.35539722206385,115.98826440954055,34.02374382205602
1698674848.041,0.01666666753590107,-4.5927661819219585,-4.734268994542956,-5.63742779482305,-1.4915879265382885,-10.177602204242348,-13.182174481090902,-12.461880777495134,69.89061419163998,29.815152010223414
1698674848.058,0.01666666753590107,-5.0995677030682565,-5.204653048396111,-5.838738302674889,-1.961300072479248,-10.621128061786294,-13.387477273449301,-40.63854639168701,11.332875267127767,31.02034230436675
1698674848.075,0.01666666753590107,-6.526181053131818,-5.338767504331469,-4.347977182349562,-3.4700969079717994,-10.639083989715575,-12.012008419689536,-57.38849933106525,-30.61238193543106,7.7346633104733495
1698674848.092,0.01666666753590107,-7.178568272298574,-3.70623293775022,-2.1895780822336675,-4.163068066461384,-8.900744531360267,-9.941622534069419,-31.78422041585722,-23.28361798431135,-33.93331894763423
1698674848.109,0.01666666753590107,-7.095457442891598,-2.88393338855803,-1.4429419690519572,-4.02540205552429,-8.016236655536293,-9.214982330211997,14.749404191859846,3.838775488090498,-74.53449395927751
1698674848.125,0.01666666753590107,-5.609451992660761,-2.00693311188519,-1.4121242214620113,-2.3337480682373046,-7.144148700824379,-9.096469932556152,56.34130838789723,26.90757804658942,-94.59013551353685
1698674848.142,0.01666666753590107,-3.225356131455302,-2.316646711310744,-3.4426579891651867,0.21921850498616693,-7.500285613250732,-11.021257845196127,68.63224745971351,16.225022165811495,-81.48182770374514
1698674848.158,0.01666666753590107,-2.256525127825141,-2.59133283649683,-4.699798569664359,1.275061729376018,-7.847744713702798,-12.18768355102539,70.12969130315794,-31.216676092058766,-60.836945729788795
1698674848.175,0.01666666753590107,-0.971386533331871,-1.7825953641891479,-6.4279971577554935,2.4670751731872556,-7.130231819152832,-13.894599697113037,52.78157088683749,-120.41144027452745,-58.56361288719843
1698674848.192,0.01666666753590107,-0.5274076713234186,-1.2380419122755526,-5.668278860160708,2.709038886205852,-6.6054527427673335,-13.210605625805258,33.79597408870902,-173.93918200743215,-67.63151546327992
1698674848.208,0.01666666753590107,-0.31406361132860183,-1.349064830958843,-4.5875615990161895,2.6445453712463376,-6.7087032738834615,-12.248586055755615,19.37523859971019,-203.77053864146143,-76.12432977162469
1698674848.225,0.01666666753590107,-0.07934095547944307,-1.7037983063280582,-1.6521745020747183,2.518101303808391,-7.023241516986489,-9.470563357433676,9.309570036842182,-146.27628749147686,-77.45970688644306
1698674848.242,0.01666666753590107,0.6499824961125851,-2.155753554043174,0.22163725656569003,3.1534625693723557,-7.465270998492836,-7.634061046490073,35.62857872982056,-42.56852562470083,-66.35683823961547
1698674848.258,0.01666666753590107,1.0503922655075788,-2.0016040258169174,-0.47615620751380916,3.6318542808532714,-7.3934443641662595,-8.250119061169027,88.4671031490522,15.994120790730044,-66.58945399217859
1698674848.275,0.01666666753590107,2.88631093134433,0.02258300320804119,-4.714525014153122,5.562329006958008,-5.62457883464396,-12.272228212627768,142.6021511520086,-61.19416462338046,-64.01166546733491
1698674848.292,0.01666666753590107,3.980467227515578,1.0113339283168314,-6.486238918843865,6.5391632843017575,-4.884770521655678,-13.89295368347168,150.98164579183367,-146.61917664818986,-53.3872788926234
1698674848.309,0.01666666753590107,4.236328825244307,1.8239345057934522,-5.373991377925872,6.542604949188232,-4.32841791087687,-12.65410337742269,149.6457290920709,-189.0286954690128,-47.51326839508824
1698674848.325,0.01666666753590107,3.9069495713621376,3.646577218210697,-1.4078788389772177,5.873126456097513,-2.842815196228027,-8.492531979259848,147.8396904717361,-155.64188386253338,-51.26941823101545
1698674848.342,0.01666666753590107,3.558158345523476,4.789534954690933,1.2850287043780089,5.389198299407958,-1.9451386267513036,-5.604226951488852,150.49167534153364,-80.54695239128883,-45.73646639949571
1698674848.358,0.01666666753590107,3.323493265080452,4.735562541484833,1.6897031454801559,5.156212404223531,-2.2524954339176415,-4.941930917248129,157.7220999365308,-7.840959836978965,-39.78556846247372
1698674848.375,0.01666666753590107,3.487594278478622,5.337566311848163,-0.14763210915625094,5.454589932250976,-1.9538181922912596,-6.40359103077352,127.76905665224858,28.22749332067417,-40.86550333252278
1698674848.391,0.01666666753590107,4.9421536200881,6.695954851469397,-2.5654887856662274,7.030273753710836,-0.7371154206424951,-8.611943371582031,74.6061972851843,19.103560995283765,-41.28647862692193
1698674848.409,0.01666666753590107,5.416378567278385,6.9712734293401235,-3.4934944424331187,7.588123178918659,-0.5177466935306787,-9.440636421203612,28.249742661895485,-6.54633461895666,-32.36832111820379
1698674848.425,0.01666666753590107,5.97525397453308,7.501866160440445,-3.2097675171792504,8.1685668593809,0.0025438392639160153,-9.13597367542684,5.323069936722179,-29.09207061864543,-14.23401006992173
1698674848.442,0.01666666753590107,5.044136323225498,8.23017926594615,-0.9956208108782768,7.207594314166158,0.732924983215332,-6.935402490013837,1.9211215448773742,-30.04927040440394,-5.895006925930598
1698674848.458,0.01666666753590107,3.650991235260665,8.142613795217871,1.6130015985935926,5.805190983990579,0.6576572685241698,-4.345625066265463,-7.716019455360153,1.6323464828545242,-13.891654521737657
1698674848.475,0.01666666753590107,3.1428891529098153,7.736461098256707,2.2699755610287187,5.363161210223287,0.2952349922180176,-3.7190918348014352,-18.21536661070989,30.430688658224966,-17.51640261709122
1698674848.492,0.01666666753590107,2.591875272810459,6.758927732732892,2.072598300972581,4.906467389678955,-0.6498766976505518,-3.9209535467952485,-1.323078825609226,45.1666339623253,-10.63580323590919
1698674848.511,0.01666666753590107,2.3302562805987894,6.086331253752112,1.7755577206373214,4.715529953411966,-1.3409025672912598,-4.1672576271057125,23.373911377591625,45.054588124085825,15.785002596459055
1698674848.525,0.01666666753590107,0.9008240737222134,3.1469302449941634,2.041923761245608,3.2775124351501463,-4.340986885070801,-3.827729319652915,-11.52010355888251,53.5716120379437,64.91605764552547
1698674848.54,0.01666666753590107,-0.38897754414603114,2.118542306023836,1.566267319947481,1.9339162448607383,-5.346252307128906,-4.354153825157881,-77.417038694698,61.95915264061106,78.68137501195905
1698674848.558,0.01666666753590107,0.0519426609441638,3.3886054964601993,0.14028408448100088,2.3211783633910117,-3.895366685596108,-6.0212663686454295,-143.53059242626676,75.8317586185272,74.01687490321726
1698674848.575,0.01666666753590107,0.540060086017102,3.682747432744503,-0.6440437537133693,2.8061538371764123,-3.3951281762272116,-7.04239396122396,-152.23707554241705,78.55235273853751,67.39701457850587
1698674848.592,0.01666666753590107,1.3578276908680795,4.305763011476397,-1.938401427450776,3.626467034856975,-2.570774617114663,-8.551788470348715,-125.79159394412484,63.102362383131116,66.0931178055721
1698674848.608,0.01666666753590107,0.9098577133968472,3.2361277008384466,-0.9240075270414352,3.130568162127584,-3.455581768146157,-7.740154107555747,-82.74740028524597,40.79096547811042,77.42588378967315
1698674848.625,0.01666666753590107,0.2547211955219507,2.3205922340661287,0.48142976400256154,2.40377817453593,-4.278887864032387,-6.446686660656333,-77.85147287685665,46.450955413097816,92.42819622612024
1698674848.642,0.01666666753590107,-0.7634152524165809,1.2190011117190123,2.6201164479106662,1.315014823449403,-5.270236404418945,-4.432563929527998,-107.91428413129015,62.27500790858913,107.37016394125024
1698674848.658,0.01666666753590107,-1.1593588361829519,1.7310814500510692,2.269063122358918,0.8675985343381762,-4.487333046069741,-5.037998843383789,-162.36847272321538,85.08584532119407,97.61796520279267
1698674848.675,0.01666666753590107,-1.0597662430524826,2.2188749038666487,1.6535352690339087,1.0136448356077075,-3.7357033623844385,-5.857413777050375,-148.9568088916267,103.77383028661758,73.00679237780993
1698674848.692,0.01666666753590107,-0.6176837161846459,2.252763144943118,-0.06399696361422538,1.583016064044088,-3.499126310840249,-7.695711739239096,-84.23088322202689,116.3863961362606,52.958800635420985
1698674848.708,0.01666666753590107,-0.29223142648786304,0.9370616544038057,-0.8601976104319096,2.117820713751018,-4.771943768420815,-8.460808807262778,17.119539598009506,112.68138734174386,44.13308632202438
1698674848.725,0.01666666753590107,-0.5043658184319735,-0.26218787814080713,-0.6875105549961328,2.0584142927974463,-6.05897621383667,-8.170810546654462,32.52792556363406,108.61593580434722,45.258797119890865
1698674848.742,0.01666666753590107,-1.761568942773342,-2.8583371750086544,-0.6552069527626038,0.9841662276670337,-8.7142960770756,-8.026710703277587,-24.456352927066078,107.25987687672205,40.526128308137764
1698674848.758,0.01666666753590107,-3.4709912264630196,-4.194784516456723,-1.0248995123326778,-0.5487213852480054,-9.9914530251652,-8.375366320037841,-56.14275478872496,129.1978092832102,24.645880431250177
1698674848.775,0.01666666753590107,-3.9200758871778842,-4.240457303351164,-2.0009324101656674,-0.765396635492146,-9.94596319362223,-9.326612567138671,-45.380213977671595,128.3372464289236,5.6884479181642496
1698674848.792,0.01666666753590107,-4.131263061399758,-4.663130927002429,-5.713026933425665,-0.7318778122499585,-10.295815911212562,-12.9854016166687,-15.307193297976228,55.82595012445226,-2.989850208932555
1698674848.81,0.01666666753590107,-4.7308480801835655,-5.490314741104841,-7.293326870378851,-1.2844894829347728,-11.091438465881348,-14.567968329510093,-16.488208137552302,-11.634115637829302,-3.7300849802807923
1698674848.826,0.01666666753590107,-5.446604194194078,-5.587630036953091,-6.760859577578306,-2.072481104333699,-11.146205828857422,-14.101697556194662,-21.84232000339172,-70.11960311375384,-7.465972206261511
1698674848.842,0.01666666753590107,-6.9577826641261575,-4.4820495527088635,-4.412255300992727,-3.8025910790041086,-9.975591439166665,-11.897984565624594,-10.669406912852008,-111.48944419949576,-22.45036051877918
1698674848.858,0.01666666753590107,-7.316531804877519,-2.2767624446898695,-2.311738481003046,-4.326921242578328,-7.752724835315346,-9.877876914867759,25.34812120812316,-101.17385730734969,-43.664193835503006
1698674848.875,0.01666666753590107,-6.9122577612698075,-1.4002858996301888,-1.588048943644762,-4.004900827026367,-6.933608592334389,-9.144503603363036,76.24758736538675,-60.90183935709309,-67.36355348176198
1698674848.892,0.01666666753590107,-4.4110330657213925,0.1447398948460817,-2.509348965293169,-1.4627078690126538,-5.589563635364175,-9.898227628979086,136.69758921831598,-34.26022546168937,-82.42851924346559
1698674848.908,0.01666666753590107,-0.966192471820116,-0.6839806273043155,-4.814787469369173,2.023100402832031,-6.629245706287026,-12.018143561443686,142.44591740493374,-54.79487842772547,-73.02526120932563
1698674848.925,0.01666666753590107,0.5963172491595149,-1.260327978363633,-6.221718213841319,3.5309982436582446,-7.394342774310708,-13.287968266949056,111.52408691896606,-114.65569450247106,-49.33756752616904
1698674848.942,0.01666666753590107,2.0607935891494154,-2.281825573298335,-6.899138167455792,4.672134317669272,-8.596680335998535,-13.932905754631756,71.52451838451209,-198.23152843214788,-14.558401366815023
1698674848.959,0.01666666753590107,1.9716674449756741,-1.126303538799286,-4.473063697698712,4.196586597442627,-7.542184726825356,-11.548131848034261,47.71055840926406,-229.23191292375986,-1.4824179608789263
1698674848.975,0.01666666753590107,1.7406996116153894,-0.29167116225659845,-2.775533219593763,3.5410242553710933,-6.782623665618896,-9.902716757091879,36.20867352621891,-225.2767962622156,-4.312650597611397
1698674848.992,0.01666666753590107,1.0362027043744921,0.9575292728930711,0.5548696787446737,2.3864203586302697,-5.580884654346108,-6.628196489495038,6.246612684684984,-158.44107296932302,-32.52304880856667
1698674849.009,0.01666666753590107,0.41305750791355966,1.413612998715043,1.2949953871190547,1.6042647499084473,-5.106683088031411,-5.932531854137778,-3.221237381218723,-88.76423686851527,-50.77977562979557
1698674849.025,0.01666666753590107,0.8075002586629241,1.5004372956871985,0.44572599793672557,1.9779097734313458,-5.019892693328857,-6.785167504882812,27.039790018353358,-40.599607483228766,-61.95479497992059
1698674849.042,0.01666666753590107,2.4779423118993638,2.7351427570164204,-2.181613386964798,3.7002386657714843,-3.905242767444253,-9.293691709789632,94.25745065944388,-44.483690177404895,-62.054700156910364
1698674849.059,0.01666666753590107,4.194306085290014,3.540971063879132,-3.0232261239141223,5.4125416925292456,-3.2941222091674804,-9.949104414257407,136.49133116575993,-72.63236140750982,-54.265726597251664
1698674849.075,0.01666666753590107,4.504133666484058,4.0847587921172375,-2.6339620179116725,5.66288547668457,-2.9888620820194483,-9.326611982616782,147.0784658887382,-101.54950405132206,-52.8789181579831
1698674849.092,0.01666666753590107,4.3559059295222164,5.23764404837191,-0.5808347256064414,5.4064066969055675,-2.1254525238037107,-6.972364147186279,120.87982732705025,-105.33893398398016,-54.26798055967777
1698674849.108,0.01666666753590107,3.835065653890371,5.29437774298489,1.4538707748234272,4.838382133837789,-2.2207716773986816,-4.765957679748535,83.64887597266095,-73.63889223454875,-51.53151649513093
1698674849.125,0.01666666753590107,3.533790796986222,4.95949930716455,1.8167776197761296,4.55422039736323,-2.6405051559448243,-4.2962440725028515,46.27897807998607,-23.986343704615404,-43.489156577643094
1698674849.142,0.01666666753590107,3.7143262278348206,5.258519078618288,0.5576105018854141,4.839130467987061,-2.3801357254028317,-5.4885570837825535,13.079612477541195,21.32188007920426,-31.669562030260217
1698674849.158,0.01666666753590107,4.671798509843647,6.480777146306633,-1.9720880084753036,5.888688766888529,-1.1578957778930663,-8.00037390049398,1.1799695004679456,22.097903974586306,-21.98061084351697
1698674849.175,0.01666666753590107,4.9116357322275634,6.746704795497656,-2.8391759629428384,6.190058754730225,-0.8809165733337402,-8.868720330590008,-7.57659565760633,15.173763844992736,-10.339703436331737
1698674849.192,0.01666666753590107,4.899564770683646,6.4211787099123,-2.8732705402463674,6.218938812255859,-1.1755530151367186,-8.932915447124838,-18.88822562132077,19.00137795020579,4.742555510576693
1698674849.208,0.01666666753590107,4.86238625589013,6.85057725790441,-2.0645482655078173,6.196792446899414,-0.7196072364807129,-8.154051719555259,-12.909343545495593,16.86269033427118,9.4418204284202
1698674849.225,0.01666666753590107,4.53465973765105,6.737720694053173,-1.175397532314062,5.87357522277832,-0.8303390632629394,-7.266551091656089,5.245932768443817,16.770802091819704,12.995979372475327
1698674849.242,0.01666666753590107,2.9977941610157486,4.8509530077278615,1.5989070222675799,4.337844495391845,-2.7383681488037106,-4.465485371398925,-1.1530295268341226,46.810445344588516,36.00861728542924
1698674849.258,0.01666666753590107,1.0593003791064024,2.102358063942194,3.2932530251175165,2.41470215800181,-5.47105065318644,-2.787598335918784,-43.90310702248089,85.52769025860219,53.34058771945719
1698674849.275,0.01666666753590107,0.655623278478533,1.713532349357009,3.154560593742132,2.062904151562601,-5.753566449084878,-3.044825376781821,-115.64114053554216,115.98573723954765,59.23866780362747
1698674849.291,0.01666666753590107,0.645444852682948,1.4956073913127184,1.064448263388872,2.168248878479004,-5.64388150100708,-5.483768680462241,-196.9754703041609,110.14923131074504,53.313304528817575
1698674849.308,0.01666666753590107,0.8256888993695378,1.3212638008415698,-1.936020085272193,2.4245779475890097,-5.474342095947265,-8.82323108356893,-210.3804951918763,77.70426863986454,48.470973614845335
1698674849.325,0.01666666753590107,0.8496434831917286,1.0447475376188755,-2.75726223436594,2.470367054339498,-5.405659020343423,-9.963918537029624,-183.0459551900802,40.96547681140425,52.63462961212843
1698674849.342,0.01666666753590107,0.6467839923322201,0.5276338812947273,-2.8933704944670198,2.212242333984375,-5.569512196460366,-10.41298098591268,-116.95216802596943,29.13108124408996,70.58061356197301
1698674849.358,0.01666666753590107,-0.28707711246460677,-0.008116670960187911,-0.7959656690180301,1.2460323265075683,-5.942109829822182,-8.451531275829673,-81.17800722908464,59.75165599143045,76.55230259482852
1698674849.375,0.01666666753590107,-1.0911337334796785,0.013542203140258788,0.14236848953962325,0.5000888717651367,-5.805341059985756,-7.589319402965903,-62.86197387529251,108.41004658200634,66.6567108649357
1698674849.392,0.01666666753590107,-2.5798078183978794,0.3551999238371849,0.2768237217366695,-0.7579144630432129,-5.364208819580078,-7.478139247894287,-30.80917676089205,124.20678515100677,30.733952472468115
1698674849.409,0.01666666753590107,-2.5849720692932605,0.509383354333043,-1.1466536683887243,-0.5596452225834131,-5.181800580596923,-8.871863304790853,-5.323153179652689,100.39537283631915,7.551411896362846
1698674849.425,0.01666666753590107,-2.541569857679307,0.10210428369045257,-1.4138625895619392,-0.3474586620606482,-5.602731744495034,-9.082702688488364,18.25046866040188,69.11288104141815,-4.803403104571398
1698674849.441,0.01666666753590107,-1.7936263151608407,-1.1752432185351849,-0.6335492477059363,0.557399781744182,-6.946178151050209,-8.205825745934247,30.175721111602975,43.9250148542437,-2.3408857613593175
1698674849.458,0.01666666753590107,-1.645517382273078,-2.779378789106011,0.5752969652235508,0.7799108985349535,-8.599972947803138,-6.935253436931967,17.408349024421618,33.50736444533013,6.375681488770246
1698674849.475,0.01666666753590107,-1.7272183448821306,-3.5235996578395365,0.7849602908790111,0.7353188926145434,-9.361327906689047,-6.700172761425375,-7.99529564523822,22.845449396223984,18.327837628225197
1698674849.492,0.01666666753590107,-2.9944410511955617,-4.767214401811361,0.4268856883883476,-0.5355529838562011,-10.577583519092201,-7.080701772308349,-22.275176411852108,10.829260660186986,26.962929899623205
1698674849.508,0.01666666753590107,-4.064889139521122,-4.262831047722697,-0.9295920491755009,-1.6350900962829589,-10.049960743713378,-8.464549747356772,-15.563277580527517,-5.644996815985567,19.060677652579837
1698674849.526,0.01666666753590107,-4.340358231778443,-3.8428830496430395,-1.8314082026749847,-1.9651909424379468,-9.613168578338623,-9.396641796654462,-8.712035206171848,-35.49460798434534,1.9418451925928393
1698674849.541,0.01666666753590107,-4.431995189729332,-3.0682296332448717,-3.0816379808723924,-2.191592490796,-8.808417545318603,-10.710610179790853,-7.540916456929475,-81.89394765788538,-21.96065303076219
1698674849.558,0.01666666753590107,-4.051646211588382,-2.2292747173279523,-3.1333032861799,-1.9556139896668492,-7.9475524108886715,-10.819546939849852,7.275535433144154,-105.20991171055861,-38.475681613637846
1698674849.575,0.01666666753590107,-3.694199970129132,-1.7354238631695509,-2.808148956516385,-1.7452235187806189,-7.479485401806235,-10.513836730846762,45.42501318843771,-104.20574412897251,-52.746555922057425
1698674849.592,0.01666666753590107,-3.340210591125488,-1.1518541596412657,-1.4327034836322068,-1.4793174968995153,-7.046884258380532,-9.045593147277831,92.02809740491922,-42.980430427882204,-62.70311050538719
1698674849.608,0.01666666753590107,-2.975956423217058,-1.7601351105779408,-2.243421316102147,-1.0444706203736365,-7.812579292297363,-9.713873516625165,97.65913075292035,10.507059292696328,-61.985455699104776
1698674849.625,0.01666666753590107,-2.532347563564777,-2.0338386544674636,-4.252700114330649,-0.47958881231099365,-8.238447912597655,-11.564292709240316,93.49684762366043,0.10850206395772181,-61.28896081887107
1698674849.642,0.01666666753590107,-0.8261787287130952,-1.7644570654302834,-8.662101779457926,1.2421417488098143,-8.14612151107788,-15.815197756847738,83.51475837811857,-97.39513028112101,-56.85863033072858
1698674849.658,0.01666666753590107,0.42461540536880493,-0.3757382694751024,-8.810036086431145,2.348263061932474,-6.86941406032145,-15.902436479839682,80.70629387443604,-153.51445752099283,-54.656696870626945
1698674849.675,0.01666666753590107,0.6665507690757513,0.21544950784146785,-7.304137018206715,2.3823802894592285,-6.400150534930825,-14.336927869305013,81.55868099228613,-167.20909608989513,-54.83622156277156
1698674849.692,0.01666666753590107,0.3203068896323442,1.1877291906207799,-3.6584435970932243,1.7947534194946289,-5.606172824859619,-10.575038510784506,93.82423225095748,-136.34963206123885,-61.77399987259035
1698674849.709,0.01666666753590107,0.3501030390895903,1.7999439738750456,-0.8516074767410755,1.7280150482177734,-5.143044441223144,-7.638850034332275,99.76327297958032,-103.30903591359821,-69.55176850691565
1698674849.725,0.01666666753590107,0.8681611366569996,2.1631413262069223,-0.27375030564069747,2.222417691040039,-4.924274849048256,-6.9149027228206394,92.31423451981857,-74.64958264679223,-71.90772614789566
1698674849.742,0.01666666753590107,2.7648902450263497,2.683466930314898,-0.8219944287657738,4.121318882751464,-4.559457786560058,-7.292737672314048,73.00735245332186,-80.9801981205319,-59.80531395755007
1698674849.758,0.01666666753590107,4.20331269082725,3.6612171534597873,-1.9216063599944113,5.4924479537412525,-3.674052085113525,-8.301444174736737,62.17851782618436,-125.3574261393438,-48.89753941908014
1698674849.775,0.01666666753590107,4.252956427179277,4.312561585575342,-1.9184855976253747,5.386654533209279,-3.1138088966369626,-8.221987191662192,70.20002859123073,-163.30756909257877,-43.75139827573115
1698674849.792,0.01666666753590107,4.0766757311657065,6.138319215142727,-0.1967734489440918,4.982333873980864,-1.4547767837524412,-6.336403746685385,98.83303536557044,-141.3691654030379,-47.17918676730999
1698674849.808,0.01666666753590107,3.3590433018893,6.653661185619234,2.4388263993024824,4.181922331469878,-1.087865379333496,-3.5245635344356296,102.97734143693488,-74.73949525702626,-43.08598417131558
1698674849.825,0.01666666753590107,3.159623430089652,5.644032307654619,3.4440129109054802,4.041262983935699,-2.262521153369546,-2.2900533034175634,69.57301722542357,45.19842849291171,-21.619464591152546
1698674849.842,0.01666666753590107,2.9724975149348376,4.828584524053335,2.80530467300117,3.9953241665162142,-3.1316157714843746,-2.8302444684684276,4.175641271729173,98.88149555773168,-5.1474721764634985
1698674849.858,0.01666666753590107,4.233514352345466,5.653883255061507,-1.4034686213195322,5.394286124066263,-2.2569839775085447,-7.081599597930908,-67.71549263912523,84.10981128879925,8.523028503911963
1698674849.875,0.01666666753590107,5.241719919508696,6.994259168130159,-5.361656212487817,6.446687391308695,-0.7305307815551757,-11.281627275738119,-107.88284477054057,-3.1367801711408116,23.64017776464811
1698674849.892,0.01666666753590107,5.623156108364462,7.686973721510172,-5.8595122106343505,6.712144646508992,0.10624269866943359,-11.984624738201498,-78.16184350293119,-68.48052846768002,31.710386070929385
1698674849.908,0.01666666753590107,5.130300694984197,8.21152951053381,-3.222141261062026,6.020968189416453,0.6952163070678711,-9.457694523510336,-5.840322723888184,-90.2455068240051,32.932750875740716
1698674849.925,0.01666666753590107,3.423714511503279,6.478744763696193,2.648260007855296,4.069095359039307,-1.149216796875,-3.481018991741538,93.10658427486423,-47.104218610979935,33.90506245503788
1698674849.942,0.01666666753590107,2.331979597260058,4.504118761175871,5.502859749901295,2.8830678943024948,-3.2831986640930175,-0.43215281513631343,86.52256195272791,38.434218950281284,50.25051793138962
1698674849.959,0.01666666753590107,-0.013740465658716857,0.8617629600524902,7.726841621518135,0.5418378728119656,-7.002142030334472,1.8941139574348926,-5.1750511996715405,119.2786397403025,66.43474337728864
1698674849.975,0.01666666753590107,0.012567220628261565,1.0809990006953478,3.5189702444732185,0.6839935598511249,-6.634183162689209,-2.497301384624839,-142.00375827882377,143.53423974728355,48.82102422490307
1698674849.992,0.01666666753590107,0.7595266474802047,1.197904547676444,0.5932108075767755,1.5780782423157245,-6.262034442138671,-5.719447906383872,-170.71855656847438,123.08659314598967,24.09076363664656
1698674850.008,0.01666666753590107,2.617416249041259,1.4343804769337176,-4.49783573538363,3.6121021902222186,-5.717203926849365,-11.13378532322347,-92.18194741597377,71.0050210264301,14.653407590622608
1698674850.025,0.01666666753590107,3.3980440636739133,0.2220686337202787,-5.192670934179425,4.458452550152689,-6.848314573669433,-11.905017533001303,-9.10597148919421,50.6849043022241,27.236246749450437
1698674850.042,0.01666666753590107,3.1167776833146807,-0.8702227453619241,-3.850377204790711,4.206013912609964,-7.978976892200112,-10.517428033336996,33.720415121015755,60.00109449991931,42.77442509232545
1698674850.058,0.01666666753590107,2.380126665313542,-2.4600030428439377,-0.6122416712611913,3.525461944580078,-9.641151394763588,-7.191732874298095,-3.0126303839184283,101.1165246994566,58.990820729215216
1698674850.075,0.01666666753590107,1.6812269935578106,-3.0518033991008995,0.49974692645967006,2.9076082786560056,-10.193463205718993,-6.108056763347983,-65.23218612107034,132.1521393068075,69.00749122252485
1698674850.092,0.01666666753590107,1.247347062367946,-2.786664269939065,0.26327742694318296,2.600402278137207,-9.802759422302245,-6.453420352825522,-98.3983211456558,165.4211301501042,73.24914798012948
1698674850.108,0.01666666753590107,0.726048667705059,-0.5603197608441114,-1.4141244553685188,2.3526025524415073,-7.398233352008462,-8.252812538036704,-71.8384748599009,201.09436124162372,58.914035742565936
1698674850.125,0.01666666753590107,-0.06211348795518279,1.6512158861756323,-2.708276961922645,1.8534112140379846,-5.121347573199868,-9.537152091106773,-24.882647231281375,219.7615824319704,40.047994575669364
1698674850.142,0.01666666753590107,-0.5377376344189048,2.2086194673120976,-2.9205221207648515,1.717091064751893,-4.575169734954834,-9.633667761009931,15.225511065692046,220.67936861112332,23.83682061840007
1698674850.158,0.01666666753590107,-1.249102819994092,1.2596668841063976,-2.570224582016468,1.418714121246338,-5.58582269527018,-9.06579363926351,10.986080949756833,176.92617399564048,26.595783326072926
1698674850.175,0.01666666753590107,-2.8836615858793255,-1.0894289753884077,-1.8436206185162067,-0.026186872918903824,-7.946505532184243,-8.245629933056234,-27.431533810652148,113.12653809071027,39.04832125855713
1698674850.192,0.01666666753590107,-3.774264855968952,-1.9735721095532177,-1.589462902095914,-0.8719386093690991,-8.77834097148478,-8.027009393963217,-76.95838466174246,40.50022140061591,54.906644228208975
1698674850.208,0.01666666753590107,-4.63508030603826,-1.783382130652666,-1.1971867547959087,-1.882740622766316,-8.42100637370646,-7.870788320159912,-113.31042044354535,-39.04581116403715,65.6466898112309
1698674850.225,0.01666666753590107,-6.174543205690384,0.003226560831069946,-0.7466448810100555,-3.6272158073976635,-6.493374762073159,-7.636904745483398,-81.80114587763241,-77.93105141087646,48.435080970756914
1698674850.242,0.01666666753590107,-6.65035045363605,1.009242508995533,-0.5004612122088671,-4.3222824768617745,-5.425560237121582,-7.5249752333492035,-7.36200221294193,-97.19981419161533,18.377906329935975
1698674850.258,0.01666666753590107,-7.934831461003422,0.0706844785541296,1.3006377769201993,-5.821800758007914,-6.452822971454262,-5.710020737347007,69.93326189281754,-65.34334061962312,-12.058558107005881
1698674850.274,0.01666666753590107,-8.019228823089598,-2.3733476726979017,2.9991958445072173,-5.941062074334919,-9.032126347461343,-3.8937195029109715,84.34510447551702,-8.646251092954516,-24.025369697985564
1698674850.292,0.01666666753590107,-7.104958261686563,-3.32224706441164,2.2966437877237795,-4.947917444311827,-10.087519782257079,-4.467130800518393,44.26961838843835,36.84132662828051,-34.88565905379827
1698674850.308,0.01666666753590107,-3.5796763498485085,-4.395791072925925,-3.5685745255976915,-1.2565072510316968,-11.139023808398843,-10.299256991577147,-22.177858169010474,-6.378908326266253,-50.18088756789593
1698674850.325,0.01666666753590107,0.7138939734004438,-2.9318104074984785,-10.960628312188387,3.036595746966451,-9.602544892993569,-17.763329720196126,-15.903933265381903,-100.57568300021832,-53.442606839995086
1698674850.342,0.01666666753590107,2.2893930859431624,-1.9696932222932575,-12.342653163462877,4.451868057195842,-8.616732359424233,-19.220949033898115,26.506388102668506,-168.39488523170104,-47.00404364151794
1698674850.358,0.01666666753590107,2.4911241572946308,-1.2743068193554878,-9.406917691475153,4.317643565014749,-8.02521491176188,-16.281468530163167,83.30530379703096,-187.03020943862373,-39.19590115595359
1698674850.375,0.01666666753590107,0.9620265843123197,-0.4819330373495817,-3.69871657077074,2.5435398425780233,-7.373094234576821,-10.494383842357992,102.42342675562519,-163.85748128303484,-37.485392976445205
1698674850.392,0.01666666753590107,0.2403499942116439,-0.010005261185765266,-0.8707967458575964,1.6377834270201623,-7.06139852142334,-7.541285732159018,94.91946674474737,-126.37808862777548,-42.555145284116776
1698674850.408,0.01666666753590107,-0.7905863140672444,0.6578197656095027,2.6917969517648217,0.4993406837463379,-6.533627277484536,-3.8495764098018403,44.64088015096357,-80.258144672424,-57.89049774449367
1698674850.425,0.01666666753590107,-0.3723660165630281,1.2650439009696244,1.6884230425417421,0.9078511958800256,-5.944204171752929,-4.835238721245527,12.249245889575235,-71.6288153731382,-63.337320890579555
1698674850.442,0.01666666753590107,0.27638430740609765,1.5302695393711327,0.6574392418593168,1.5478513732910155,-5.659593449401855,-5.889287171173096,1.1298463706872184,-82.36906244674063,-61.85381063304195
1698674850.458,0.01666666753590107,1.5059519674554467,2.1674895845443007,-1.192486614280939,2.6993125150267034,-4.99864415359497,-7.779807488030195,16.083265004682467,-106.41948357105451,-47.91220949922493
1698674850.475,0.01666666753590107,2.7413991870626804,3.5869366962403055,-1.5832827521562576,3.8338651920594273,-3.6100071907043456,-8.154500632366538,44.84937167537821,-105.461098747475,-40.97652464238675
1698674850.492,0.01666666753590107,3.0108927120417355,4.405034702089429,-1.1412322278618812,4.0143279960632325,-2.8763340194702147,-7.633163805389404,67.36564351964802,-84.2526100537767,-39.05475188166069
1698674850.508,0.01666666753590107,3.2334383156239985,5.717600817212462,0.00044774376749992365,4.204966303253173,-1.7088614349365234,-6.329969329723715,73.72336801420347,-33.7637492562049,-40.19900322802918
1698674850.524,0.01666666753590107,2.9279750671193003,5.33964253360033,1.147263909241557,3.951031581933796,-2.187553298407793,-5.054758255004883,59.9345206460792,4.308472229386642,-34.64721714987313
1698674850.541,0.01666666753590107,2.787070512652397,4.992098092952371,1.2171394095003605,3.8976107381958514,-2.59830735168457,-4.892101595196127,26.685923040096878,29.372074223670104,-23.98091028913066
1698674850.558,0.01666666753590107,2.9372569824665784,5.2126165746212,0.6590811638474464,4.142268074212596,-2.3789386245727537,-5.430796968731284,-17.334589811574652,40.12277831689183,-14.294230140286441
1698674850.575,0.01666666753590107,3.200924870032072,6.0590019327998155,-0.4943628953337669,4.519504546356201,-1.439364695087075,-6.675481972283125,-61.41433577127582,42.03460973728093,-5.283875749943707
1698674850.592,0.01666666753590107,3.1297894328400493,6.203189454460143,-0.8670768485516309,4.522946211242676,-1.177199028778076,-7.172578676494956,-80.45870634721226,42.49098248705367,0.5808332038806548
1698674850.608,0.01666666753590107,2.7978733539566396,6.499360266223549,-1.6767916414588688,4.260781275586038,-0.7026981872558593,-8.169913890075684,-75.32718522378167,35.63989293818069,12.029096086021031
1698674850.626,0.01666666753590107,2.346211243969202,6.007993045574426,-1.0476455971479415,3.8449382286071776,-1.0905594407230614,-7.6457327795833345,-51.15604050588782,39.30422795619,17.889035540092312
1698674850.642,0.01666666753590107,1.9912575499780476,5.529306442800164,-0.2643015092939138,3.528005929974466,-1.5056541535526513,-6.921487361907959,-33.71661412074264,49.085420847674264,22.43687431026299
1698674850.658,0.01666666753590107,0.8609361538395285,3.7516578873634336,1.4933166500270365,2.4877251625061034,-3.2118215270996093,-5.217413161247968,-48.8085591296678,91.25005006599557,32.850754454754714
1698674850.675,0.01666666753590107,0.10515767991170287,2.3456465958237644,2.102057619690895,1.8637363548278807,-4.513219766998291,-4.682758587536216,-90.23509078552084,131.4317319342896,40.33560701142943
1698674850.692,0.01666666753590107,-0.02512289694920182,2.1586054363429543,1.2865098828464745,1.9113211128234862,-4.518905995941162,-5.629515706524253,-132.80230501390102,142.2594259198357,38.73543370777343
1698674850.708,0.01666666753590107,0.426787050319463,2.0651514920979737,-1.859161301997304,2.6042928558349607,-4.265420479694009,-9.025241848644614,-162.59437439982437,107.9934665143381,26.622175177025856
1698674850.725,0.01666666753590107,0.956073667257279,1.518838629296422,-3.965539122974872,3.261650849151611,-4.519654768481851,-11.340584491619467,-155.46338369876426,67.75512822687882,22.349225907738802
1698674850.745,0.01666666753590107,0.8719849327288568,0.5032113876998424,-3.734565882787108,3.244592162322998,-5.26664510192871,-11.300930526623128,-136.75563216588273,46.471111301338524,33.313650035184814
1698674850.758,0.01666666753590107,0.7227060792788863,-1.3360440213441849,-2.2960358849585054,3.1082723052978514,-6.795643306189775,-10.085274633678793,-127.63373694441229,28.688338136805978,57.72007769451268
1698674850.775,0.01666666753590107,0.003156856595724821,-2.343663313052058,-1.1612521025836466,2.3410801646910606,-7.573758261218667,-9.120561586761474,-136.2457312235846,17.86125545319058,75.85683907315948
1698674850.792,0.01666666753590107,-1.033485262109339,-2.678347687605023,-0.4261269789755344,1.2434884872436522,-7.668927777209878,-8.55508049763143,-133.06103257966112,28.44408886453903,81.26285183895453
1698674850.808,0.01666666753590107,-4.175023292671144,-2.6037375600397583,0.7316489719301462,-1.883937431335449,-7.326706285150348,-7.5517603644222016,-85.93059628755208,68.37504985632752,54.111132095577595
1698674850.825,0.01666666753590107,-6.052524261218309,-1.724184676274657,-0.09474164596796035,-3.6221281288698313,-6.343437590844929,-8.396913550457358,-27.905134005058954,96.30878186344131,14.936981677035906
1698674850.842,0.01666666753590107,-6.208022281444072,-1.644853365406394,-0.9927496393561362,-3.553744036212563,-6.255600317437946,-9.230843916210532,19.585664775207235,102.51516302636763,-21.614471722869265
1698674850.858,0.01666666753590107,-5.035548527622223,-2.5010724275961516,-2.911531589579582,-2.0657479966863987,-7.183203530883788,-11.00030858066976,51.29307459120579,74.20650144514433,-40.245376797398976
1698674850.875,0.01666666753590107,-3.0071719379529354,-4.8468514176279305,-3.8908383945167064,0.11761515655517578,-9.620650750787556,-11.866860528564452,58.45229446410556,31.621726800408034,-21.69000336980585
1698674850.892,0.01666666753590107,-2.076132028056681,-5.518081868952512,-4.3302445417821405,1.0634744499206543,-10.39322999126017,-12.238859611511229,45.56261417945679,-32.18162131233608,-0.9087754520904141
1698674850.908,0.01666666753590107,-0.6108224521130323,-4.658230295479298,-4.792682605066895,2.315641625921428,-9.632023500934242,-12.721589936718344,26.420416511585554,-113.09238031467103,3.7837907577246024
1698674850.925,0.01666666753590107,-0.31781244246810675,-2.844680990099907,-3.176522834703326,2.3434742202207444,-7.873631434631347,-11.163862481579184,30.74104903901576,-138.11660199952115,-6.755454947661764
1698674850.942,0.01666666753590107,-0.3477306108698249,-1.8689818542659282,-1.9057827679187058,2.0596119781494138,-6.967277053180337,-9.929652110290526,47.3798508949358,-106.19636861162687,-22.523469156107705
1698674850.958,0.01666666753590107,-0.30990619938820596,0.2551297763228416,-0.14722586644291877,1.920748135729879,-4.984278943634033,-8.131157166180014,62.54410370150929,-78.22568528110331,-48.68049991291923
1698674850.976,0.01666666753590107,-0.05940685934498906,0.9756985513120889,-1.1907266188710928,2.0907363074705003,-4.344428549957275,-9.14330591801107,46.17122501563995,-68.94082174603635,-49.994208252595726
1698674850.991,0.01666666753590107,0.9634262219771742,1.1834575046509503,-1.7121347575187682,3.0140007610596715,-4.209755875617265,-9.641749360656737,51.698531695810665,-90.12095149430075,-33.809890599142925
1698674851.008,0.01666666753590107,1.1347120323128999,1.5760580615997313,-2.1712299401164055,2.9222727638244628,-3.991882940021157,-10.043525742229818,86.81819986076275,-118.59399523827875,-2.251343048557508
1698674851.025,0.01666666753590107,0.22889935652315616,1.426156838467717,-0.7549719798505306,1.7787420497618616,-4.340388919177651,-8.534131817626953,104.97277437276495,-107.55700376599594,3.6297144966538086
1698674851.042,0.01666666753590107,0.2921573383383453,2.3635335501700636,-0.10094751487076283,1.6573859531126915,-3.604471183887124,-7.761851560100912,87.64914701480816,-68.63070383696109,-1.2131504527341617
1698674851.058,0.01666666753590107,-0.4375291013471782,2.8588310960054395,0.38978900665938854,0.8629599147520959,-3.247884189605713,-7.172428454369306,20.63319552028646,4.51688990238088,-18.993162940181556
1698674851.075,0.01666666753590107,-0.5813549500882625,2.878845710030198,-0.9745540574520826,0.8063970466613769,-3.2222967438846823,-8.525751527294515,-12.338872485637788,31.721143618872155,-36.63143833018061
1698674851.092,0.01666666753590107,0.6280816299498081,3.232115542587638,-3.6670986127138137,2.179770973968506,-2.7697920455932614,-11.265766274261473,-41.98655935646989,9.61719407309674,-56.00086102381253
1698674851.108,0.01666666753590107,1.3104305643990635,3.140029964086413,-4.391721631529927,2.930053773089498,-2.7459996665954587,-12.06647650745809,-47.90308436649379,-27.896114740259954,-51.016991514764705
1698674851.125,0.01666666753590107,1.3767653233110904,2.2916046245127917,-3.564005902507901,2.9756932422362268,-3.4835634155273434,-11.32681783207357,-41.613610537219685,-56.16218326181906,-35.01577074239243
1698674851.142,0.01666666753590107,0.8370517126441002,2.3633032485455274,-1.4654104059696196,2.302922721862793,-3.306393077197671,-9.331550023540855,-21.683210746676274,-70.83844637295182,-15.346405414001271
1698674851.158,0.01666666753590107,0.5265690285421908,2.7182150030910965,-0.4991618200480938,1.8929156875610351,-2.9331968934208152,-8.39631500004232,10.993410596509902,-35.052185895952356,-5.3211830969639635
1698674851.175,0.01666666753590107,0.02126008404120803,3.6680841166198253,0.4238222091645002,1.3639467582702636,-2.046594091144204,-7.4317515907287595,52.13066751931362,1.8727106581442048,-5.142111331738684
1698674851.192,0.01666666753590107,-0.19608312859237192,3.735872289210558,-0.6651964318573474,1.1751041023254394,-2.13832194224894,-8.397212825664877,58.06251605874044,-5.36624356246583,-13.431923026440561
1698674851.208,0.01666666753590107,-0.0231555423989892,3.5791549563229084,-1.426526256301999,1.3263877197265623,-2.3784902962833643,-9.09826499927938,30.834813875941695,-47.747079430756116,-24.566901246330026
1698674851.225,0.01666666753590107,0.1016750984929502,2.958886045950651,-1.671440928080678,1.3597570514954627,-3.021183219909668,-9.341276467785239,4.154119772541286,-85.25149106894523,-32.57994769944746
1698674851.242,0.01666666753590107,0.06501512768082321,2.8107775514543056,-0.351231020206213,1.1502644062317906,-3.146580116382241,-8.065017929840087,-4.383165043715786,-89.00058873455438,-34.273749236246
1698674851.258,0.01666666753590107,0.19170666707381606,2.8814222825199365,0.3115472445935011,1.1707646848816424,-3.069067253112793,-7.421725286754965,8.412561293144407,-62.009620908388285,-27.74790817300714
1698674851.276,0.01666666753590107,0.5204821829091757,2.496778237533569,1.2974889575004578,1.4411598348755388,-3.480869938659668,-6.421996456035972,23.26196116200053,-32.28446005557437,-17.121344475497683
1698674851.292,0.01666666753590107,0.6304681597601622,1.3634580979704856,0.8273954110264777,1.499668064880371,-4.665550847625732,-6.8580404333919285,10.698217504544766,-31.15007491746197,-7.016364758861666
1698674851.308,0.01666666753590107,0.5040717308562249,0.8595552208751439,0.15733634156882761,1.3007997625488787,-5.156512410083413,-7.54607472000122,-23.35156812126922,-52.50026271568135,-6.593871028032656
1698674851.325,0.01666666753590107,1.137468418348953,1.3899346014857292,-1.2135042678683996,1.8182465963501482,-4.543746422687173,-8.991572803276776,-53.339682719392165,-70.00598291691067,-6.025435364547516
1698674851.342,0.01666666753590107,1.4401809799060226,2.015021141272783,-1.733465130317211,1.942445917068608,-3.755305303955078,-9.64683645466268,-58.01886431975489,-60.09556967651893,-3.9048246980249903
1698674851.358,0.01666666753590107,1.529244434107095,2.553123809611797,-1.6721633971363306,1.9470846462525426,-3.1200936759948728,-9.660304423522948,-30.842767631230174,-24.750139853835837,-3.5725934111815802
1698674851.375,0.01666666753590107,1.5084531366214156,2.1644442254990337,-1.4456079733908176,1.912368685647659,-3.488651678577065,-9.44871626728475,13.402017896933307,7.73351071605091,2.292237952439313
1698674851.392,0.01666666753590107,1.2981146881833672,0.97683427734375,-1.256823769634962,1.7429789547242223,-4.7658080421447755,-9.193733205956221,39.10780196094419,24.778510752100775,9.630684550481162
1698674851.408,0.01666666753590107,1.5923744056284426,1.1270990730911492,-1.7741496074050664,2.05736756022349,-4.6722851243168115,-9.668534491729735,11.151090636141523,3.8914405154595273,6.5444716848605395
1698674851.425,0.01666666753590107,1.5688924077540636,1.3780179537206887,-2.2936837688744065,1.9840450978485866,-4.377199769702553,-10.223091451263427,-42.34235074052503,-29.086879674876222,5.867554261222201
1698674851.442,0.01666666753590107,1.6707181667640805,2.3292256223767995,-2.36061327880919,2.0026001607147976,-3.311331118121743,-10.375871444702147,-63.06635362582681,-41.71520618602904,4.523498964176514
1698674851.458,0.01666666753590107,1.588580274042487,2.8170716831624505,-2.3116087171435353,1.8414405527970752,-2.703053674316406,-10.41313062351644,-42.39799970678771,-23.949745843495183,-2.3879837576679632
1698674851.474,0.01666666753590107,0.8180466409880668,3.093371088764071,-0.2999930004000664,1.0901100529877468,-2.3918074584960936,-8.424596507152915,13.828471003046808,27.03495424442099,-11.43083127888315
1698674851.491,0.01666666753590107,1.0608087378427387,1.7846803537696598,-0.06602759265899658,1.4303859274048358,-3.745578859710693,-8.156146646007896,25.721628395338012,48.80534211056872,-7.67982542917461
1698674851.508,0.01666666753590107,1.667765162177384,1.4784545964598654,-0.23733108478188514,2.1532852277008816,-4.086602958679199,-8.297404543957114,4.220464815044204,50.475203834326365,-1.245260879569684
1698674851.524,0.01666666753590107,2.454818041421473,1.1351315728992224,-0.9352326854109764,3.040336833190918,-4.377050132098794,-9.024943157958983,-40.85568835068547,25.737802283292602,11.189392629459663
1698674851.541,0.01666666753590107,2.8203227939128874,1.2821838363409042,-2.002472040823102,3.4189201168335974,-4.123264756122231,-10.162937134552001,-57.65309402932237,9.244332338758452,20.30778481765954
1698674851.558,0.01666666753590107,2.5609952736392616,1.725705017709732,-2.7203689662545916,3.13505761903394,-3.5672108360290524,-10.95601526543498,-46.12340003107152,-2.2457051542844857,24.959983755706137
1698674851.574,0.01666666753590107,1.3730952564962207,2.0176187565505503,-3.562008006688952,1.8936640217103062,-3.21122356120646,-11.842020101818441,-13.509641187685197,-12.007404258990716,30.140852995890057
1698674851.591,0.01666666753590107,-0.04423752992693335,1.6903543028652668,-2.2919793030440805,0.41419699680488553,-3.566163957324624,-10.558129461559652,24.010575508243317,0.028224769569299216,25.972395375620447
1698674851.608,0.01666666753590107,-0.5388667115140706,2.245443177318573,-1.7390800475895405,-0.09905994755849241,-3.0802900733947753,-9.961824195098876,35.67886941267936,16.44217437009371,21.217186939606304
1698674851.624,0.01666666753590107,-1.1333009964711964,2.070855841219425,-0.15757190389037132,-0.6697778048308566,-3.328389804950356,-8.3309233671993,30.69382511109429,24.097325740891648,11.505638071994069
1698674851.641,0.01666666753590107,-1.095841765040159,1.9133704465687273,-0.019987726017832753,-0.5888238611968234,-3.5392286041259764,-8.155249404907225,7.161108847092107,14.682353932325123,11.306754916194345
1698674851.657,0.01666666753590107,-0.7177157967109232,2.0674013168513774,-0.024957915645837783,-0.20260920589286832,-3.393631800189614,-8.154051719555259,2.597548048669118,13.584009141141943,13.377862079159911
1698674851.674,0.01666666753590107,-0.09554185643494129,2.401692892694473,0.538306081956625,0.4679168600220233,-3.090466014972329,-7.566574487194418,22.034857913452502,37.153329669566695,11.279748348216115
1698674851.691,0.01666666753590107,0.6940525239855051,1.9321487967967985,0.18579378976821898,1.322946127905324,-3.6251211732059714,-7.869740272411704,37.33628311667466,38.18996797046704,16.00701789543032
1698674851.708,0.01666666753590107,0.9827110604226589,1.628325424453616,-0.29066520008444785,1.6511013198852538,-4.012532344818115,-8.284685347637534,37.663257932621505,25.614450774429464,21.19802996653171
1698674851.724,0.01666666753590107,0.7558557769477366,2.118130802613497,-0.15668109253048895,1.4296377393860369,-3.607763211169839,-8.08955849685669,17.373740455897163,5.541832784988048,14.92020502488706
1698674851.741,0.01666666753590107,-0.1263368076711893,2.9834850651562212,-0.2375549566656351,0.5328595800537616,-2.7539304595947263,-8.163329835510254,-7.394692352083258,-3.6731634643983755,4.570260573668537
1698674851.758,0.01666666753590107,-0.35195319700092076,3.116580114915967,-0.15915362012386322,0.30092122116088865,-2.584391639056802,-8.111704277691244,-24.55840449100253,0.07434017913281546,-1.686941785716023
1698674851.775,0.01666666753590107,-0.3815926945917308,3.213019796973467,-1.035984385448694,0.2926912260193378,-2.424129765430093,-9.032125762939453,-15.543160965874536,8.088607128357996,-6.476751639900332
1698674851.791,0.01666666753590107,-0.13393676128089427,2.901020132437348,-1.9763146862596273,0.5746084715027362,-2.7183172944217917,-9.982024687084555,0.7185046312255474,14.244199004616096,-7.319478308943077
1698674851.808,0.01666666753590107,-0.04082483540661633,2.550419811350107,-2.0747399891763925,0.7170633972167968,-3.0832828254699707,-10.065821160668134,14.216073993161277,22.151964921866956,-8.755492284766055
1698674851.825,0.01666666753590107,0.12420432568714022,2.099049085524678,-1.4486410574764013,0.9790789144653826,-3.5838206100463865,-9.394996367534995,21.404730273836513,30.900615918405595,-10.22289097982524
1698674851.841,0.01666666753590107,0.2317693590015173,1.6902917590230702,-1.0982996795862912,1.163282731628418,-4.030040528979897,-9.009080987438558,17.32205812199497,28.675231003788724,-9.59744884997988
1698674851.858,0.01666666753590107,0.20816329635605216,1.5513813009828328,-0.8376309738367795,1.2119149528503417,-4.196736235046386,-8.719382586559652,12.294870699457274,28.24396090676307,-8.196700848388971
1698674851.875,0.01666666753590107,0.18957345443740486,1.5498843404233456,-0.5165530998319388,1.2785037595886737,-4.22022933883667,-8.370876607403158,6.774786090560193,20.115844549151134,-6.934469936939567
1698674851.892,0.01666666753590107,0.05399462503790855,1.5140940651178358,-0.7911661597818136,1.1821372158326209,-4.266018445587158,-8.632592776378988,6.298983160146057,9.591529637290417,-5.924544078996318
1698674851.908,0.01666666753590107,0.0011667056918144225,1.2972896355360746,-0.6283768135040998,1.1528081724304706,-4.493617825427651,-8.458414605602622,5.944425905896579,6.128098230414684,-4.867270922839718
1698674851.925,0.01666666753590107,0.22436295520253477,1.08282270899117,0.08681319105625152,1.405695649719238,-4.718373506274819,-7.7311758513301605,2.7213044596839904,9.066649236368802,-3.2562625912825487
1698674851.942,0.01666666753590107,0.5139943552598357,0.8445376844853162,0.5987801321417093,1.7163433881897479,-4.956296711730957,-7.216272856792807,-1.131875577200947,7.220823910345059,-2.186392645305741
1698674851.958,0.01666666753590107,0.5509314625129104,0.693610625436902,0.8419435763388872,1.768716622570902,-5.098751710510253,-6.977002912902831,-6.776463755775077,6.000982433545223,-0.33717199489298855
1698674851.975,0.01666666753590107,0.30362346585690975,0.6222767430633306,1.0176561170756817,1.5420155067443846,-5.139902636066079,-6.8203317572444675,-13.325474528225913,10.590694959083134,-0.7760151442021721
1698674851.992,0.01666666753590107,-0.014811638554185628,0.8299737370818853,0.25267887603938577,1.253963119506836,-4.906018476867676,-7.5996449821472165,-10.184842557280037,15.712607713898798,-2.787276403103497
1698674852.008,0.01666666753590107,0.02530132225602865,0.8886638264596461,-0.3834901987761259,1.3347674255371094,-4.832098085132241,-8.240242979320882,-2.4470151616736793,19.12396789297647,-3.239814001657277
1698674852.025,0.01666666753590107,0.44393750708475704,0.9514479071527719,-1.0342664756149054,1.81794710194692,-4.773888472747802,-8.876651708111167,6.323587635970559,23.72440765749271,-0.7574756629172303
1698674852.058,0.01666666753590107,0.7319640292286872,0.8538350896626711,-0.8119593569636344,2.1285947673521934,-4.8989855094909665,-8.630198574718833,12.348414259908296,3.062008596192801,5.685242851896221
1698674852.1,0.01666666753590107,-0.5092335705988109,1.7238035680025814,-0.38343408467471596,0.7845499565124511,-3.737348791503906,-8.425344695171713,-44.31322231609972,-11.928612904272741,-8.695646167258403
1698674852.108,0.01666666753590107,-0.5044505741059779,1.6941028417438269,-0.3625789281725883,0.7845501026429236,-3.737349376025796,-8.425344695171713,-37.2422723929386,-14.606234889119916,-10.388496600215015
1698674852.124,0.01666666753590107,-0.03573927577063441,1.4770254404395817,-2.234131509709358,1.2256817585267126,-3.89446827545166,-10.341304573711753,-0.24584310758194153,-12.802762712365777,-6.199728131787901
1698674852.148,0.01666666753590107,0.31650296730473637,0.7062994266182184,-1.566149831047654,1.570895710400492,-4.681712293353677,-9.663446228680014,15.619712018544748,-0.6756872425357953,-1.846929468791757
1698674852.166,0.01666666753590107,0.21965777318626642,0.40940322318971156,-0.5701198548465967,1.488145969390869,-5.0394952194213865,-8.624362708172201,13.708284433090325,8.196364461572347,1.2814049599969222
1698674852.175,0.01666666753590107,0.2571082367889583,0.29377602558135985,-0.057389528173208235,1.5370774658203123,-5.166687182617188,-8.10197783344686,2.4643580791933997,8.943266991654399,0.3111900620119658
1698674852.193,0.01666666753590107,0.5177209745675325,-0.2254243738889694,0.12742811003923415,1.8124106567382812,-5.666476779174804,-7.9279493002742525,-21.02125613307532,5.376817122187833,1.6653085489021826
1698674852.22,0.01666666753590107,0.7242837038591504,-0.2697130129486322,-0.415726580992341,2.020855984906107,-5.64343317271769,-8.51587544544637,-41.83637374190507,0.3483301227584093,4.17679770813302
1698674852.236,0.01666666753590107,0.3375105378895998,1.2037088500410318,-4.44076594068408,1.5459060844421386,-4.031836180225015,-12.644376933178306,-21.75332434605375,-56.48173366213811,8.514283300453407
