ts,interval,accx,accy,accz,accGx,accGy,accGz,alpha,beta,gamma
1698414815012.0,16,0.0,0.0,0.0,-0.9,9.5,-0.5,-0.7,0.8,0.1
1698414815029.0,16,-0.1,-0.1,0.0,-0.9,9.4,-0.4,-0.8,1.2000000000000002,0.1
1698414815046.0,16,-0.1,0.0,0.0,-0.9,9.5,-0.4,-0.4,1.0,0.2
1698414815063.0,16,-0.1,0.0,0.0,-0.9,9.5,-0.4,-0.6000000000000001,0.4,0.2
1698414815079.0,16,0.0,0.0,0.0,-0.8,9.5,-0.5,-0.2,0.30000000000000004,0.30000000000000004
1698414815095.0,16,0.0,0.0,0.0,-0.8,9.5,-0.4,-0.4,0.30000000000000004,0.5
1698414815113.0,16,0.0,0.0,0.1,-0.8,9.5,-0.4,-0.5,0.2,0.7
1698414815128.0,16,0.0,0.0,0.0,-0.8,9.5,-0.4,-0.4,0.30000000000000004,0.8
1698414815146.0,16,0.0,0.0,0.0,-0.8,9.5,-0.4,-0.6000000000000001,0.4,0.9
1698414815162.0,16,0.0,-0.1,0.0,-0.8,9.5,-0.4,-0.4,0.4,0.7
1698414815178.0,16,0.0,0.0,0.0,-0.8,9.5,-0.4,-0.2,0.2,0.8
1698414815195.0,16,0.0,0.0,0.0,-0.8,9.5,-0.4,0.0,0.5,0.9
1698414815212.0,16,0.0,0.0,0.0,-0.8,9.5,-0.4,-0.2,0.30000000000000004,0.9
1698414815229.0,16,0.0,0.1,0.1,-0.8,9.600000000000001,-0.30000000000000004,-0.6000000000000001,-0.1,0.7
1698414815246.0,16,0.0,0.0,0.0,-0.8,9.5,-0.4,-0.2,-0.2,0.9
1698414815262.0,16,0.0,0.0,0.0,-0.8,9.5,-0.4,-0.1,0.2,0.9
1698414815279.0,16,0.0,0.0,-0.1,-0.8,9.5,-0.5,0.1,0.5,0.8
1698414815298.0,16,0.0,0.0,-0.1,-0.8,9.5,-0.5,0.4,0.4,0.8
1698414815314.0,16,0.0,0.0,-0.1,-0.8,9.5,-0.5,0.4,0.4,0.9
1698414815329.0,16,0.0,0.0,0.0,-0.8,9.5,-0.4,0.5,0.2,1.0
1698414815345.0,16,0.0,0.0,0.0,-0.8,9.5,-0.4,0.5,0.30000000000000004,0.8
1698414815365.0,16,0.0,0.1,0.0,-0.8,9.600000000000001,-0.4,0.5,0.4,0.7
1698414815379.0,16,0.0,0.0,0.0,-0.8,9.5,-0.5,0.4,0.5,0.6000000000000001
1698414815399.0,16,0.0,0.0,0.0,-0.8,9.5,-0.4,0.2,-0.1,0.6000000000000001
1698414815412.0,16,0.0,0.0,0.0,-0.8,9.5,-0.5,0.1,-0.1,0.6000000000000001
1698414815428.0,16,0.0,0.0,0.0,-0.8,9.5,-0.5,-0.1,-0.2,0.6000000000000001
1698414815446.0,16,0.0,0.0,0.0,-0.8,9.5,-0.5,-0.1,-0.30000000000000004,0.7
1698414815462.0,16,0.0,0.0,0.0,-0.8,9.5,-0.4,-0.1,-0.30000000000000004,0.7
1698414815478.0,16,0.0,0.0,0.0,-0.8,9.5,-0.4,-0.1,-0.6000000000000001,0.6000000000000001
1698414815497.0,16,0.0,0.0,0.0,-0.8,9.5,-0.4,-0.2,-0.9,0.7
1698414815513.0,16,0.0,0.0,0.0,-0.8,9.5,-0.4,-0.2,-1.2000000000000002,0.9
1698414815529.0,16,0.0,0.0,0.1,-0.8,9.5,-0.4,-0.1,-0.9,0.7
1698414815545.0,16,0.0,0.0,0.1,-0.8,9.5,-0.4,0.1,-0.6000000000000001,0.6000000000000001
1698414815562.0,16,0.0,0.0,0.0,-0.8,9.5,-0.4,0.5,-0.5,0.7
1698414815578.0,16,0.0,0.0,0.0,-0.8,9.5,-0.4,0.6000000000000001,-0.5,0.6000000000000001
1698414815595.0,16,0.0,0.0,0.0,-0.7000000000000001,9.5,-0.4,0.7,-0.4,0.7
1698414815612.0,16,0.0,0.0,0.0,-0.7000000000000001,9.5,-0.4,0.7,-0.4,0.5
1698414815628.0,16,0.0,0.0,0.0,-0.7000000000000001,9.5,-0.5,0.7,-0.1,0.4
1698414815646.0,16,0.0,0.0,-0.1,-0.7000000000000001,9.5,-0.5,0.7,0.1,0.4
1698414815662.0,16,0.0,0.0,-0.1,-0.7000000000000001,9.5,-0.5,0.5,0.1,0.4
1698414815678.0,16,0.0,0.1,0.0,-0.7000000000000001,9.600000000000001,-0.5,0.2,0.4,0.4
1698414815694.0,16,0.0,0.0,0.0,-0.8,9.600000000000001,-0.5,-0.1,0.4,0.2
1698414815711.0,16,0.0,0.0,0.0,-0.8,9.5,-0.5,-0.1,0.4,0.2
1698414815728.0,16,0.0,0.0,0.0,-0.8,9.5,-0.5,-0.2,0.5,0.0
1698414815744.0,16,-0.1,0.0,0.0,-0.8,9.5,-0.5,-0.4,0.2,0.1
1698414815763.0,16,0.0,0.0,0.0,-0.8,9.5,-0.5,-0.6000000000000001,-0.7,0.30000000000000004
1698414815778.0,16,0.0,-0.1,0.0,-0.8,9.4,-0.5,-0.7,-1.0,0.6000000000000001
1698414815795.0,16,0.0,0.0,0.0,-0.7000000000000001,9.4,-0.5,-0.7,-0.9,0.7
1698414815812.0,16,0.0,0.0,0.0,-0.7000000000000001,9.5,-0.5,-0.8,-0.4,0.5
1698414815828.0,16,0.0,0.0,-0.1,-0.7000000000000001,9.5,-0.5,-0.8,0.1,0.5
1698414815846.0,16,0.0,0.0,-0.1,-0.8,9.5,-0.5,-1.4,0.6000000000000001,0.6000000000000001
1698414815863.0,16,0.0,0.0,0.0,-0.7000000000000001,9.5,-0.4,-1.5000000000000002,0.8,0.4
1698414815879.0,16,0.0,0.1,0.0,-0.8,9.600000000000001,-0.5,-1.6,1.0,0.4
1698414815897.0,16,0.0,0.1,0.0,-0.8,9.5,-0.4,-1.7,0.7,0.4
1698414815912.0,16,0.0,0.0,0.0,-0.8,9.600000000000001,-0.4,-1.5000000000000002,-0.4,0.1
1698414815928.0,16,0.0,0.0,0.1,-0.7000000000000001,9.5,-0.4,-1.6,-0.30000000000000004,0.0
1698414815945.0,16,0.0,-0.1,0.1,-0.7000000000000001,9.4,-0.4,-1.3,0.5,-0.2
1698414815963.0,16,0.0,-0.1,0.0,-0.7000000000000001,9.4,-0.4,-1.2000000000000002,0.7,-0.2
1698414815982.0,16,0.0,-0.1,0.0,-0.7000000000000001,9.4,-0.4,-1.2000000000000002,1.0,-0.2
1698414815996.0,16,0.0,-0.1,0.0,-0.7000000000000001,9.4,-0.4,-1.2000000000000002,1.2000000000000002,-0.2
1698414816012.0,16,0.0,0.0,0.0,-0.7000000000000001,9.5,-0.4,-0.7,1.0,-0.1
1698414816028.0,16,0.0,0.0,0.0,-0.7000000000000001,9.5,-0.4,-0.2,0.5,-0.2
1698414816045.0,16,0.0,0.0,0.0,-0.7000000000000001,9.5,-0.4,-0.1,0.4,-0.5
1698414816062.0,16,0.0,0.0,0.1,-0.8,9.5,-0.30000000000000004,0.0,0.5,-0.7
1698414816079.0,16,0.0,0.0,0.1,-0.8,9.5,-0.4,0.5,0.7,-0.2
1698414816095.0,16,0.0,0.0,0.1,-0.7000000000000001,9.5,-0.4,0.1,0.8,-0.2
1698414816112.0,16,0.0,0.0,0.1,-0.7000000000000001,9.5,-0.30000000000000004,0.0,1.0999999999999999,-0.2
1698414816128.0,16,-0.1,0.0,0.1,-0.8,9.5,-0.30000000000000004,-0.2,1.6,0.0
1698414816146.0,16,-0.1,0.0,0.1,-0.8,9.5,-0.4,0.0,1.3,0.1
1698414816162.0,16,-0.1,0.0,0.1,-0.8,9.5,-0.30000000000000004,-0.30000000000000004,0.5,0.1
1698414816179.0,16,0.0,0.0,0.0,-0.8,9.5,-0.4,-0.1,0.1,0.1
1698414816195.0,16,0.0,0.0,0.0,-0.8,9.5,-0.4,-0.2,0.5,0.1
1698414816211.0,16,-0.1,0.0,-0.1,-0.8,9.5,-0.5,-0.4,0.7,0.2
1698414816228.0,16,-0.1,0.0,-0.2,-0.8,9.5,-0.6000000000000001,-0.7,0.8,0.2
1698414816245.0,16,0.0,0.0,-0.1,-0.8,9.5,-0.5,-1.0,0.5,0.4
1698414816262.0,16,0.0,0.0,0.0,-0.7000000000000001,9.5,-0.4,-1.0,0.1,0.5
1698414816278.0,16,0.0,0.0,0.1,-0.8,9.5,-0.30000000000000004,-0.8,-0.1,0.4
1698414816295.0,16,0.0,0.0,0.0,-0.7000000000000001,9.5,-0.4,-1.2000000000000002,0.30000000000000004,0.2
1698414816311.0,16,0.0,0.0,0.0,-0.7000000000000001,9.5,-0.4,-1.3,0.4,0.2
1698414816328.0,16,0.0,0.1,0.0,-0.8,9.600000000000001,-0.30000000000000004,-1.7,0.8,0.2
1698414816345.0,16,0.0,0.1,0.1,-0.8,9.600000000000001,-0.30000000000000004,-2.1,0.8,0.1
1698414816361.0,16,0.0,0.0,0.0,-0.8,9.5,-0.4,-2.3000000000000003,0.4,-0.1
1698414816378.0,16,0.0,0.0,0.0,-0.8,9.5,-0.4,-2.3000000000000003,0.1,-0.1
1698414816395.0,16,0.1,-0.1,0.0,-0.7000000000000001,9.4,-0.4,-2.0,-0.4,-0.2
1698414816411.0,16,0.1,-0.1,0.0,-0.7000000000000001,9.4,-0.4,-1.5000000000000002,0.1,-0.5
1698414816428.0,16,0.1,-0.1,0.0,-0.7000000000000001,9.4,-0.4,-1.2000000000000002,0.1,-0.6000000000000001
1698414816444.0,16,0.0,-0.1,0.0,-0.7000000000000001,9.4,-0.4,-1.0999999999999999,0.30000000000000004,-0.4
1698414816461.0,16,0.0,0.0,0.0,-0.7000000000000001,9.5,-0.30000000000000004,-0.8,0.1,-0.4
1698414816478.0,16,0.0,0.0,0.0,-0.7000000000000001,9.5,-0.30000000000000004,-0.8,0.1,-0.2
1698414816494.0,16,0.0,0.0,0.0,-0.7000000000000001,9.5,-0.30000000000000004,-0.9,0.5,-0.1
1698414816511.0,16,0.0,0.0,0.0,-0.8,9.5,-0.30000000000000004,-1.0,1.0,0.2
1698414816528.0,16,0.0,0.0,0.0,-0.8,9.5,-0.30000000000000004,-1.2000000000000002,1.0,0.30000000000000004
1698414816545.0,16,0.0,0.0,0.0,-0.8,9.5,-0.4,-1.5000000000000002,0.9,0.2
1698414816561.0,16,0.0,0.0,0.0,-0.8,9.5,-0.30000000000000004,-1.6,0.5,0.1
1698414816579.0,16,-0.1,0.0,0.0,-0.8,9.5,-0.30000000000000004,-1.7,0.5,-0.1
1698414816595.0,16,0.0,-0.1,0.0,-0.8,9.4,-0.30000000000000004,-1.2000000000000002,0.5,0.0
1698414816611.0,16,0.0,0.0,0.0,-0.8,9.5,-0.30000000000000004,-0.9,-0.1,-0.2
1698414816628.0,16,0.0,0.0,0.0,-0.8,9.5,-0.30000000000000004,-0.6000000000000001,-0.30000000000000004,-0.2
1698414816645.0,16,0.0,0.0,0.1,-0.8,9.5,-0.2,-0.30000000000000004,-0.30000000000000004,-0.2
1698414816661.0,16,0.0,0.0,0.1,-0.8,9.5,-0.2,-0.2,-0.4,0.0
1698414816678.0,16,0.0,0.0,0.1,-0.8,9.5,-0.2,0.0,-0.4,0.1
1698414816695.0,16,0.0,0.0,0.0,-0.8,9.5,-0.30000000000000004,-0.2,-0.30000000000000004,0.1
1698414816711.0,16,0.0,0.0,0.0,-0.8,9.5,-0.30000000000000004,-0.4,-0.8,0.1
1698414816728.0,16,0.0,0.0,0.0,-0.8,9.5,-0.30000000000000004,-0.4,-0.7,0.1
1698414816744.0,16,0.0,0.0,-0.1,-0.8,9.5,-0.30000000000000004,-0.5,-0.5,0.2
1698414816761.0,16,0.0,0.0,-0.1,-0.8,9.5,-0.4,-0.5,-0.6000000000000001,0.1
1698414816778.0,16,0.0,0.1,0.0,-0.8,9.600000000000001,-0.30000000000000004,-0.4,-1.4,0.1
1698414816794.0,16,0.0,0.0,0.0,-0.8,9.5,-0.30000000000000004,-0.4,-1.4,0.0
1698414816811.0,16,0.0,0.0,0.0,-0.8,9.5,-0.30000000000000004,-0.2,-1.0999999999999999,0.0
1698414816828.0,16,0.0,0.0,0.0,-0.8,9.5,-0.2,-0.1,-0.8,0.0
1698414816844.0,16,0.0,-0.1,0.0,-0.8,9.4,-0.30000000000000004,0.1,-0.7,0.1
1698414816862.0,16,0.0,0.0,0.0,-0.8,9.5,-0.30000000000000004,0.1,-0.7,0.2
1698414816878.0,16,0.0,0.0,0.0,-0.8,9.5,-0.2,0.2,-0.9,0.1
1698414816896.0,16,0.1,0.0,0.0,-0.7000000000000001,9.5,-0.30000000000000004,0.30000000000000004,-0.30000000000000004,0.1
1698414816913.0,16,0.0,0.0,0.0,-0.7000000000000001,9.5,-0.30000000000000004,0.2,-0.30000000000000004,0.1
1698414816929.0,16,0.0,0.0,0.0,-0.7000000000000001,9.5,-0.30000000000000004,0.4,0.1,0.0
1698414816947.0,16,0.0,0.0,0.0,-0.7000000000000001,9.5,-0.30000000000000004,0.2,0.2,-0.1
1698414816961.0,16,0.0,0.0,0.0,-0.8,9.5,-0.2,0.4,0.0,-0.2
1698414816980.0,16,0.0,0.0,0.0,-0.8,9.5,-0.30000000000000004,0.4,0.1,-0.1
1698414816997.0,16,0.0,0.0,0.0,-0.8,9.5,-0.30000000000000004,0.5,0.30000000000000004,-0.2
1698414817012.0,16,0.0,0.0,0.0,-0.8,9.5,-0.30000000000000004,0.7,0.6000000000000001,-0.1
1698414817028.0,16,0.0,0.0,0.0,-0.8,9.5,-0.30000000000000004,0.5,0.0,0.0
1698414817045.0,16,0.0,0.0,0.0,-0.8,9.5,-0.30000000000000004,0.6000000000000001,-0.1,0.0
1698414817062.0,16,0.0,0.0,0.0,-0.7000000000000001,9.5,-0.30000000000000004,0.7,-0.1,-0.1
1698414817078.0,16,0.0,0.0,0.0,-0.8,9.5,-0.30000000000000004,0.7,0.0,0.0
1698414817096.0,16,0.0,0.0,0.0,-0.8,9.5,-0.30000000000000004,0.5,0.0,0.1
1698414817113.0,16,0.0,0.0,0.0,-0.8,9.5,-0.30000000000000004,0.6000000000000001,-0.30000000000000004,0.1
1698414817129.0,16,0.0,0.0,0.0,-0.8,9.5,-0.30000000000000004,0.6000000000000001,-0.30000000000000004,0.2
1698414817146.0,16,0.0,0.0,0.0,-0.7000000000000001,9.5,-0.30000000000000004,0.7,-0.1,0.0
1698414817165.0,16,0.0,0.0,0.0,-0.8,9.5,-0.30000000000000004,0.7,0.1,0.1
1698414817178.0,16,0.0,0.0,0.0,-0.8,9.5,-0.30000000000000004,0.8,0.2,0.1
1698414817195.0,16,0.0,0.0,0.0,-0.8,9.5,-0.30000000000000004,0.7,0.1,0.1
1698414817212.0,16,0.0,0.0,0.0,-0.7000000000000001,9.5,-0.30000000000000004,1.0,-0.4,0.1
1698414817228.0,16,0.0,0.0,0.0,-0.8,9.5,-0.30000000000000004,1.0,-0.4,0.1
1698414817246.0,16,0.0,0.0,0.0,-0.8,9.5,-0.30000000000000004,0.9,-0.30000000000000004,0.0
1698414817262.0,16,0.0,0.0,0.0,-0.7000000000000001,9.5,-0.30000000000000004,0.9,-0.1,0.1
1698414817280.0,16,0.0,0.0,0.0,-0.8,9.5,-0.30000000000000004,0.8,0.1,-0.1
1698414817296.0,16,0.0,0.0,0.0,-0.8,9.5,-0.30000000000000004,0.7,0.0,0.1
1698414817312.0,16,0.0,0.0,0.0,-0.8,9.5,-0.30000000000000004,0.8,-0.1,0.1
1698414817329.0,16,0.0,0.0,0.0,-0.8,9.5,-0.30000000000000004,0.7,-0.1,0.0
1698414817345.0,16,0.0,0.0,0.0,-0.8,9.5,-0.4,1.0,-0.1,-0.1
1698414817363.0,16,0.0,0.0,0.0,-0.8,9.5,-0.30000000000000004,1.0,0.1,-0.1
1698414817378.0,16,0.0,0.0,0.0,-0.8,9.5,-0.4,0.9,0.0,-0.1
1698414817394.0,16,0.0,0.0,0.0,-0.8,9.5,-0.30000000000000004,0.9,0.1,-0.1
1698414817412.0,16,0.0,0.0,0.0,-0.8,9.5,-0.4,0.9,0.1,-0.1
1698414817428.0,16,0.0,0.0,0.0,-0.8,9.5,-0.4,0.7,-0.1,-0.2
1698414817445.0,16,0.0,0.0,0.0,-0.8,9.5,-0.4,0.8,-0.1,-0.2
1698414817463.0,16,0.0,0.0,0.0,-0.8,9.5,-0.4,0.5,-0.30000000000000004,-0.2
1698414817478.0,16,0.0,0.0,0.0,-0.8,9.5,-0.4,0.7,-0.4,-0.2
1698414817496.0,16,0.0,0.0,0.0,-0.8,9.5,-0.4,0.5,-0.30000000000000004,-0.1
1698414817512.0,16,0.0,0.0,0.0,-0.7000000000000001,9.5,-0.4,0.9,-0.4,-0.1
1698414817528.0,16,0.0,0.0,0.0,-0.7000000000000001,9.5,-0.4,0.8,0.1,-0.2
1698414817544.0,16,0.0,0.0,0.0,-0.8,9.5,-0.4,0.7,-0.2,-0.2
1698414817562.0,16,0.0,0.0,0.0,-0.8,9.5,-0.4,0.7,-0.1,-0.30000000000000004
1698414817578.0,16,0.0,0.0,0.0,-0.8,9.5,-0.4,1.0999999999999999,0.1,-0.1
1698414817594.0,16,0.0,0.0,0.0,-0.8,9.5,-0.4,1.5000000000000002,-0.2,-0.2
1698414817611.0,16,0.0,0.0,0.1,-0.8,9.5,-0.30000000000000004,2.3000000000000003,-1.2000000000000002,-0.4
1698414817628.0,16,0.0,0.0,0.1,-0.8,9.5,-0.30000000000000004,3.1,-1.5000000000000002,-0.7
1698414817645.0,16,0.0,0.0,0.1,-0.7000000000000001,9.5,-0.30000000000000004,3.2,-0.9,-0.9
1698414817662.0,16,0.1,0.0,0.1,-0.7000000000000001,9.5,-0.30000000000000004,3.2,-0.7,-0.9
1698414817678.0,16,0.0,-0.1,0.1,-0.8,9.4,-0.30000000000000004,3.4,-0.2,-0.8
1698414817694.0,16,0.0,0.0,0.1,-0.7000000000000001,9.5,-0.30000000000000004,3.6,0.2,-0.9
1698414817711.0,16,0.1,0.0,0.0,-0.7000000000000001,9.5,-0.4,3.7000000000000006,0.2,-0.8
1698414817728.0,16,0.0,0.0,0.0,-0.8,9.5,-0.5,3.6,0.5,-1.0999999999999999
1698414817745.0,16,0.0,0.0,-0.1,-0.8,9.5,-0.5,3.4,0.7,-1.0
1698414817761.0,16,0.0,0.0,-0.1,-0.8,9.5,-0.5,3.5,1.0,-1.0
1698414817778.0,16,-0.1,0.0,-0.1,-0.9,9.5,-0.5,3.1,0.5,-0.7
1698414817795.0,16,0.0,0.0,-0.1,-0.8,9.5,-0.5,3.0000000000000004,0.4,-0.7
1698414817812.0,16,0.0,0.0,-0.1,-0.8,9.5,-0.5,2.7,0.2,-0.5
1698414817828.0,16,0.0,0.1,-0.1,-0.8,9.600000000000001,-0.6000000000000001,2.3000000000000003,0.30000000000000004,-0.5
1698414817845.0,16,0.0,0.0,-0.1,-0.8,9.5,-0.6000000000000001,2.1,0.30000000000000004,-0.5
1698414817861.0,16,-0.1,0.1,-0.1,-0.9,9.600000000000001,-0.6000000000000001,1.6,0.1,-0.2
1698414817878.0,16,0.0,0.0,-0.1,-0.9,9.600000000000001,-0.6000000000000001,1.3,-0.30000000000000004,0.0
1698414817895.0,16,0.0,0.0,-0.1,-0.8,9.5,-0.6000000000000001,1.0,-0.2,0.1
1698414817912.0,16,0.0,0.0,0.0,-0.8,9.5,-0.6000000000000001,0.7,-0.1,0.1
1698414817928.0,16,0.0,0.0,0.0,-0.8,9.5,-0.6000000000000001,0.4,-0.2,0.4
1698414817944.0,16,0.0,0.0,0.0,-0.8,9.5,-0.5,0.1,-0.4,0.4
1698414817961.0,16,0.0,0.0,0.0,-0.8,9.5,-0.5,-0.1,-0.1,0.4
1698414817978.0,16,0.0,0.0,0.0,-0.8,9.5,-0.5,-0.4,-0.4,0.6000000000000001
1698414817994.0,16,0.0,0.0,0.0,-0.8,9.5,-0.5,-0.2,-0.4,0.7
1698414818012.0,16,0.0,0.0,0.0,-0.8,9.5,-0.6000000000000001,-0.4,-0.30000000000000004,0.6000000000000001
1698414818028.0,16,0.0,0.0,0.0,-0.8,9.5,-0.5,-0.6000000000000001,0.1,0.6000000000000001
1698414818045.0,16,0.0,0.0,0.0,-0.8,9.5,-0.5,-0.7,-0.2,0.7
1698414818061.0,16,0.0,0.0,0.0,-0.8,9.5,-0.5,-0.7,-0.1,0.7
1698414818078.0,16,0.0,0.0,0.0,-0.8,9.5,-0.5,-0.9,-0.1,0.7
1698414818094.0,16,0.0,0.0,0.0,-0.8,9.5,-0.5,-1.2000000000000002,0.30000000000000004,0.8
1698414818112.0,16,0.0,0.0,0.0,-0.8,9.5,-0.5,-1.4,0.4,0.9
1698414818129.0,16,0.0,0.0,0.0,-0.8,9.5,-0.5,-1.5000000000000002,0.4,0.9
1698414818145.0,16,0.0,0.0,0.0,-0.8,9.5,-0.5,-1.5000000000000002,0.2,0.9
1698414818162.0,16,0.0,0.0,0.0,-0.8,9.5,-0.5,-1.4,0.2,0.9
1698414818178.0,16,0.0,0.0,0.0,-0.8,9.5,-0.5,-1.3,0.1,0.9
1698414818194.0,16,0.0,0.0,0.0,-0.8,9.5,-0.5,-1.2000000000000002,0.2,1.0
1698414818211.0,16,0.0,0.0,0.0,-0.8,9.5,-0.5,-1.2000000000000002,0.2,0.9
1698414818228.0,16,0.0,0.0,0.0,-0.8,9.5,-0.5,-1.2000000000000002,0.0,0.8
1698414818245.0,16,0.0,0.0,0.0,-0.8,9.5,-0.5,-1.2000000000000002,-0.1,0.9
1698414818262.0,16,0.0,0.0,0.0,-0.8,9.5,-0.4,-1.2000000000000002,-0.4,1.0
1698414818278.0,16,0.1,0.0,0.0,-0.7000000000000001,9.5,-0.4,-1.0,-0.30000000000000004,1.0
1698414818295.0,16,0.0,0.0,0.1,-0.7000000000000001,9.5,-0.4,-0.9,0.1,0.6000000000000001
1698414818312.0,16,0.0,0.0,0.0,-0.7000000000000001,9.5,-0.4,-0.8,0.30000000000000004,0.6000000000000001
1698414818329.0,16,0.0,0.0,0.0,-0.8,9.5,-0.5,-0.7,0.1,0.6000000000000001
1698414818345.0,16,0.0,0.0,0.0,-0.8,9.5,-0.4,-0.6000000000000001,0.4,0.7
1698414818361.0,16,0.0,0.0,0.0,-0.8,9.5,-0.4,-0.6000000000000001,0.2,0.6000000000000001
1698414818378.0,16,0.0,0.0,0.0,-0.8,9.5,-0.4,-0.6000000000000001,-0.4,0.6000000000000001
1698414818395.0,16,0.0,0.0,0.0,-0.7000000000000001,9.5,-0.4,-0.6000000000000001,-0.4,0.6000000000000001
1698414818411.0,16,0.0,0.0,0.0,-0.7000000000000001,9.5,-0.4,-0.2,0.1,0.4
1698414818428.0,16,0.0,0.0,0.1,-0.7000000000000001,9.5,-0.4,-0.1,0.2,0.30000000000000004
1698414818444.0,16,0.0,0.0,0.0,-0.7000000000000001,9.5,-0.4,0.1,0.2,0.2
1698414818461.0,16,0.0,0.0,0.0,-0.7000000000000001,9.5,-0.5,0.30000000000000004,0.2,0.30000000000000004
1698414818478.0,16,0.0,0.0,0.0,-0.7000000000000001,9.5,-0.5,0.1,0.4,0.4
1698414818494.0,16,0.0,0.0,0.0,-0.7000000000000001,9.5,-0.5,-0.2,0.8,0.2
1698414818511.0,16,0.0,0.0,0.0,-0.7000000000000001,9.5,-0.5,-0.30000000000000004,0.6000000000000001,0.1
1698414818528.0,16,0.0,0.0,0.0,-0.8,9.5,-0.5,-0.30000000000000004,0.4,0.1
1698414818545.0,16,0.0,0.0,0.0,-0.8,9.5,-0.5,-0.4,0.30000000000000004,0.0
1698414818561.0,16,0.0,0.0,0.0,-0.8,9.5,-0.5,-0.4,-0.4,0.2
1698414818578.0,16,0.0,0.0,0.0,-0.8,9.5,-0.5,-0.2,-0.4,0.1
1698414818594.0,16,0.0,0.0,0.0,-0.7000000000000001,9.5,-0.4,0.1,-0.1,0.1
1698414818611.0,16,0.0,0.0,0.0,-0.7000000000000001,9.5,-0.5,-0.1,0.2,0.1
1698414818628.0,16,0.0,0.0,0.0,-0.8,9.5,-0.4,-0.1,0.30000000000000004,0.2
1698414818644.0,16,0.0,0.0,0.0,-0.8,9.5,-0.4,0.0,0.2,0.4
1698414818661.0,16,0.0,0.0,0.0,-0.7000000000000001,9.5,-0.4,0.0,0.0,0.6000000000000001
1698414818678.0,16,0.0,0.0,0.0,-0.7000000000000001,9.5,-0.4,0.0,0.0,0.4
1698414818696.0,16,0.0,0.0,0.0,-0.7000000000000001,9.5,-0.4,0.1,0.1,0.2
1698414818711.0,16,0.0,0.0,0.0,-0.7000000000000001,9.5,-0.5,0.2,0.1,0.1
1698414818728.0,16,0.0,0.0,0.0,-0.8,9.5,-0.4,0.30000000000000004,0.1,0.1
1698414818744.0,16,0.0,0.0,0.0,-0.7000000000000001,9.5,-0.4,0.5,-0.30000000000000004,0.1
1698414818761.0,16,0.0,0.0,0.0,-0.7000000000000001,9.5,-0.4,0.7,-0.2,0.1
1698414818778.0,16,0.0,0.0,0.0,-0.7000000000000001,9.5,-0.4,0.7,-0.1,0.1
1698414818795.0,16,0.0,0.0,0.0,-0.7000000000000001,9.5,-0.5,0.7,-0.1,0.1
1698414818812.0,16,0.0,0.0,0.0,-0.7000000000000001,9.5,-0.4,0.6000000000000001,-0.30000000000000004,0.2
1698414818829.0,16,0.0,0.0,0.0,-0.7000000000000001,9.5,-0.5,0.7,-0.30000000000000004,0.1
1698414818845.0,16,0.0,0.0,0.0,-0.7000000000000001,9.5,-0.5,0.5,-0.30000000000000004,0.1
1698414818861.0,16,0.0,0.0,0.0,-0.7000000000000001,9.5,-0.5,0.5,-0.1,0.0
1698414818878.0,16,0.0,0.0,0.0,-0.7000000000000001,9.5,-0.5,0.4,-0.1,0.0
1698414818895.0,16,0.0,0.0,0.0,-0.8,9.5,-0.5,0.4,-0.30000000000000004,0.1
1698414818912.0,16,0.0,0.0,0.0,-0.7000000000000001,9.5,-0.5,0.4,-0.1,0.0
1698414818928.0,16,0.0,0.0,0.0,-0.7000000000000001,9.5,-0.5,0.30000000000000004,0.1,-0.1
1698414818945.0,16,0.0,0.0,0.0,-0.7000000000000001,9.5,-0.5,0.30000000000000004,0.1,-0.1
1698414818962.0,16,0.0,0.0,0.0,-0.7000000000000001,9.5,-0.5,0.2,0.1,-0.2
1698414818980.0,16,0.0,0.0,0.0,-0.8,9.5,-0.5,0.1,0.1,-0.1
1698414818995.0,16,0.0,0.0,-0.1,-0.8,9.5,-0.5,-0.1,-0.1,0.0
1698414819011.0,16,0.0,0.0,-0.1,-0.8,9.5,-0.6000000000000001,-0.6000000000000001,-0.4,0.1
1698414819028.0,16,0.0,0.0,0.0,-0.7000000000000001,9.5,-0.5,-0.8,-0.4,0.1
1698414819045.0,16,0.0,0.0,0.0,-0.8,9.5,-0.4,-0.30000000000000004,-0.9,0.2
1698414819062.0,16,0.0,0.0,0.1,-0.7000000000000001,9.5,-0.4,0.0,-0.5,0.1
1698414819078.0,16,0.0,0.0,0.1,-0.7000000000000001,9.5,-0.4,0.2,-0.7,-0.1
1698414819095.0,16,0.0,-0.1,0.1,-0.7000000000000001,9.5,-0.30000000000000004,0.9,-1.0,-0.30000000000000004
1698414819112.0,16,0.0,0.0,0.0,-0.7000000000000001,9.5,-0.4,1.2000000000000002,-0.7,-0.4
1698414819129.0,16,0.0,0.0,0.1,-0.8,9.5,-0.4,1.3,-0.7,-0.30000000000000004
1698414819145.0,16,0.0,0.0,0.1,-0.7000000000000001,9.5,-0.4,1.6,-1.4,-0.4
1698414819162.0,16,0.0,0.0,0.0,-0.8,9.5,-0.4,2.0,-1.3,-0.4
1698414819179.0,16,0.0,0.0,0.0,-0.8,9.5,-0.4,2.3000000000000003,-1.2000000000000002,-0.5
1698414819195.0,16,0.0,0.0,0.0,-0.7000000000000001,9.5,-0.5,2.3000000000000003,-0.8,-0.6000000000000001
1698414819212.0,16,0.0,0.0,0.0,-0.7000000000000001,9.5,-0.5,2.4000000000000004,-0.9,-0.8
1698414819229.0,16,0.0,0.0,0.0,-0.7000000000000001,9.5,-0.5,2.4000000000000004,-0.7,-0.8
1698414819245.0,16,0.0,0.0,0.0,-0.7000000000000001,9.5,-0.5,2.4000000000000004,-0.30000000000000004,-0.8
1698414819263.0,16,0.1,0.0,0.0,-0.7000000000000001,9.5,-0.6000000000000001,2.3000000000000003,0.30000000000000004,-0.9
1698414819279.0,16,0.0,0.1,-0.1,-0.7000000000000001,9.600000000000001,-0.6000000000000001,1.7,0.7,-1.0
1698414819295.0,16,0.0,0.1,-0.1,-0.8,9.600000000000001,-0.6000000000000001,1.3,0.7,-1.0
1698414819312.0,16,0.0,0.1,-0.1,-0.8,9.600000000000001,-0.6000000000000001,0.9,0.7,-0.9
1698414819328.0,16,0.0,0.0,-0.1,-0.8,9.5,-0.6000000000000001,0.4,0.6000000000000001,-0.5
1698414819345.0,16,0.0,0.0,-0.1,-0.8,9.5,-0.6000000000000001,0.2,0.4,-0.4
1698414819362.0,16,0.0,0.0,0.0,-0.8,9.5,-0.6000000000000001,-0.1,0.6000000000000001,-0.4
1698414819378.0,16,0.0,0.0,-0.1,-0.8,9.5,-0.6000000000000001,-0.2,0.5,-0.2
1698414819395.0,16,-0.1,0.0,-0.1,-0.9,9.5,-0.6000000000000001,-0.6000000000000001,0.5,-0.2
1698414819412.0,16,0.0,0.0,0.0,-0.8,9.5,-0.6000000000000001,-0.9,-0.1,0.2
1698414819429.0,16,0.0,0.0,0.0,-0.8,9.5,-0.6000000000000001,-1.0,-0.4,0.2
1698414819445.0,16,0.0,0.0,0.0,-0.8,9.5,-0.5,-1.0999999999999999,-0.6000000000000001,0.4
1698414819462.0,16,0.0,0.0,0.0,-0.8,9.5,-0.5,-1.0,-0.6000000000000001,0.30000000000000004
1698414819478.0,16,0.0,0.0,0.0,-0.8,9.5,-0.5,-1.0,-0.4,0.2
1698414819495.0,16,0.0,0.0,0.0,-0.8,9.5,-0.5,-1.0999999999999999,-0.5,0.30000000000000004
1698414819512.0,16,0.0,0.0,0.1,-0.8,9.5,-0.5,-0.9,-0.4,0.5
1698414819528.0,16,0.0,0.0,0.0,-0.8,9.5,-0.5,-0.7,-0.1,0.4
1698414819546.0,16,0.0,0.0,0.0,-0.8,9.5,-0.5,-0.7,0.0,0.4
1698414819563.0,16,0.0,0.0,0.0,-0.8,9.5,-0.5,-0.5,0.1,0.5
1698414819579.0,16,0.0,0.0,0.0,-0.8,9.5,-0.5,-0.4,0.2,0.5
1698414819595.0,16,0.0,0.0,0.1,-0.8,9.5,-0.5,-0.5,0.2,0.4
1698414819612.0,16,0.0,0.0,0.0,-0.8,9.5,-0.5,-0.4,0.1,0.4
1698414819628.0,16,0.0,0.0,0.0,-0.7000000000000001,9.5,-0.5,-0.30000000000000004,0.1,0.5
1698414819644.0,16,0.0,0.0,0.0,-0.8,9.5,-0.5,-0.1,0.30000000000000004,0.4
1698414819661.0,16,0.0,0.0,0.0,-0.8,9.5,-0.5,-0.1,0.4,0.4
1698414819678.0,16,0.0,0.0,0.0,-0.7000000000000001,9.5,-0.5,0.1,0.4,0.2
1698414819696.0,16,0.0,0.0,0.0,-0.8,9.5,-0.5,0.0,0.4,0.5
1698414819711.0,16,0.0,0.0,0.0,-0.8,9.5,-0.5,0.0,0.30000000000000004,0.5
1698414819728.0,16,0.0,0.0,0.0,-0.8,9.5,-0.5,0.1,0.2,0.6000000000000001
1698414819745.0,16,0.0,0.0,0.0,-0.8,9.5,-0.5,0.1,0.2,0.4
1698414819762.0,16,0.0,0.0,0.0,-0.8,9.5,-0.5,0.1,0.1,0.5
1698414819779.0,16,0.0,0.0,0.0,-0.8,9.5,-0.5,0.2,0.1,0.4
1698414819795.0,16,0.0,0.0,0.0,-0.8,9.5,-0.5,0.1,0.0,0.5
1698414819811.0,16,0.0,0.0,0.0,-0.8,9.5,-0.5,0.1,-0.30000000000000004,0.5
1698414819828.0,16,0.0,0.0,0.0,-0.7000000000000001,9.5,-0.5,0.1,-0.2,0.4
1698414819846.0,16,0.0,0.0,0.0,-0.7000000000000001,9.5,-0.5,-0.1,0.30000000000000004,0.1
1698414819863.0,16,0.0,0.0,0.0,-0.7000000000000001,9.5,-0.5,-0.1,0.2,0.2
1698414819878.0,16,0.0,0.0,0.0,-0.7000000000000001,9.5,-0.5,-0.1,-0.1,0.2
1698414819895.0,16,0.0,0.0,0.0,-0.8,9.5,-0.5,0.1,0.0,0.2
1698414819912.0,16,0.0,0.0,0.0,-0.8,9.5,-0.5,-0.1,0.1,0.1
1698414819928.0,16,0.0,0.0,0.0,-0.8,9.5,-0.5,-0.2,-0.30000000000000004,0.1
1698414819945.0,16,0.0,0.0,0.0,-0.8,9.5,-0.5,-0.2,-0.4,0.2
1698414819962.0,16,-0.1,0.0,0.0,-0.8,9.5,-0.5,-0.1,-0.1,0.2
1698414819978.0,16,0.0,-0.1,0.0,-0.8,9.4,-0.5,0.0,0.1,0.30000000000000004
1698414819994.0,16,0.0,0.0,0.0,-0.7000000000000001,9.5,-0.5,0.1,0.0,0.4
1698414820011.0,16,0.0,0.0,0.0,-0.7000000000000001,9.5,-0.5,0.1,-0.1,0.2
1698414820028.0,16,0.0,0.0,0.0,-0.7000000000000001,9.5,-0.5,0.1,0.2,0.1
1698414820045.0,16,0.0,0.0,0.0,-0.7000000000000001,9.5,-0.5,0.1,0.30000000000000004,0.1
1698414820062.0,16,0.0,0.0,0.0,-0.8,9.5,-0.5,0.1,0.30000000000000004,0.1
1698414820078.0,16,0.0,0.0,0.0,-0.8,9.5,-0.5,0.0,0.2,0.2
1698414820095.0,16,0.0,0.0,0.0,-0.8,9.5,-0.5,-0.1,0.1,0.2
1698414820111.0,16,0.0,0.0,0.0,-0.8,9.5,-0.5,-0.1,0.2,0.2
1698414820127.0,16,0.0,0.0,0.0,-0.7000000000000001,9.5,-0.5,0.0,0.1,0.1
1698414820144.0,16,0.0,0.0,0.0,-0.7000000000000001,9.5,-0.5,0.1,0.2,0.2
1698414820161.0,16,0.0,0.0,0.0,-0.7000000000000001,9.5,-0.5,0.0,0.30000000000000004,0.1
1698414820178.0,16,0.0,0.0,0.0,-0.8,9.5,-0.5,-0.1,-0.1,0.1
1698414820194.0,16,0.0,0.0,0.0,-0.8,9.5,-0.5,-0.2,-0.30000000000000004,0.2
1698414820211.0,16,0.0,0.0,0.0,-0.7000000000000001,9.5,-0.5,-0.2,-0.30000000000000004,0.1
1698414820228.0,16,0.0,0.0,0.0,-0.7000000000000001,9.5,-0.5,-0.2,-0.1,0.1
1698414820244.0,16,0.0,0.0,0.0,-0.7000000000000001,9.5,-0.5,-0.2,0.0,0.1
1698414820261.0,16,0.0,0.0,0.0,-0.7000000000000001,9.5,-0.5,-0.2,-0.2,0.1
1698414820278.0,16,0.0,0.0,0.0,-0.7000000000000001,9.5,-0.5,-0.1,0.0,0.0
1698414820294.0,16,0.0,0.0,0.0,-0.7000000000000001,9.5,-0.5,0.0,-0.1,-0.1
1698414820311.0,16,0.0,0.0,0.0,-0.7000000000000001,9.5,-0.5,0.1,-0.1,0.1
1698414820328.0,16,0.0,0.0,0.0,-0.7000000000000001,9.5,-0.5,0.1,-0.2,-0.1
1698414820344.0,16,0.0,0.0,0.0,-0.7000000000000001,9.5,-0.5,-0.1,-0.1,0.1
1698414820361.0,16,0.0,0.0,0.0,-0.7000000000000001,9.5,-0.5,0.0,0.0,0.1
1698414820378.0,16,0.0,0.0,0.0,-0.7000000000000001,9.5,-0.5,-0.2,0.1,0.1
1698414820394.0,16,0.0,0.0,0.0,-0.7000000000000001,9.5,-0.5,-0.1,-0.1,-0.1
1698414820411.0,16,0.0,0.0,0.0,-0.8,9.5,-0.5,0.0,-0.1,-0.2
1698414820428.0,16,0.0,0.0,0.0,-0.7000000000000001,9.5,-0.5,0.2,0.0,-0.1
1698414820444.0,16,0.0,0.0,0.0,-0.7000000000000001,9.5,-0.5,0.1,0.1,-0.2
1698414820461.0,16,0.0,0.0,0.0,-0.7000000000000001,9.5,-0.5,0.2,0.1,-0.1
1698414820478.0,16,0.0,0.0,0.0,-0.8,9.5,-0.5,0.2,0.0,-0.1
1698414820495.0,16,0.0,0.0,0.0,-0.7000000000000001,9.5,-0.5,0.2,0.2,-0.2
1698414820512.0,16,0.0,0.0,0.0,-0.7000000000000001,9.5,-0.5,0.1,0.30000000000000004,-0.2
1698414820528.0,16,0.0,0.0,0.0,-0.8,9.5,-0.5,0.1,0.2,-0.2
1698414820545.0,16,0.0,0.0,0.0,-0.8,9.5,-0.5,-0.1,0.2,-0.2
1698414820561.0,16,0.0,0.0,0.0,-0.8,9.5,-0.5,-0.1,0.1,0.0
1698414820579.0,16,0.0,0.0,0.0,-0.7000000000000001,9.5,-0.5,-0.1,0.2,-0.1
1698414820595.0,16,0.0,0.0,0.0,-0.7000000000000001,9.5,-0.5,0.0,0.2,-0.2
1698414820612.0,16,0.0,0.0,0.0,-0.8,9.5,-0.5,0.0,0.1,-0.2
1698414820628.0,16,0.0,0.0,0.0,-0.8,9.5,-0.5,0.1,-0.1,0.1
1698414820644.0,16,0.0,0.0,0.0,-0.8,9.5,-0.5,0.2,-0.1,0.1
1698414820662.0,16,0.0,0.0,0.0,-0.7000000000000001,9.5,-0.5,0.0,0.4,-0.1
1698414820678.0,16,0.0,0.0,0.0,-0.8,9.5,-0.5,0.1,0.30000000000000004,-0.1
1698414820694.0,16,0.0,0.0,0.0,-0.8,9.5,-0.5,-0.1,-0.1,0.1
1698414820711.0,16,0.0,0.0,0.0,-0.8,9.5,-0.5,-0.2,0.1,0.1
1698414820728.0,16,0.0,0.0,0.0,-0.8,9.5,-0.5,-0.1,0.30000000000000004,0.1
1698414820744.0,16,0.0,0.0,0.0,-0.8,9.5,-0.5,-0.2,-0.30000000000000004,-0.1
1698414820761.0,16,0.0,0.0,0.0,-0.8,9.5,-0.5,-0.2,-0.6000000000000001,0.2
1698414820778.0,16,0.0,0.0,0.0,-0.8,9.5,-0.5,-0.1,-0.5,0.1
1698414820795.0,16,0.0,-0.1,0.0,-0.8,9.4,-0.5,0.0,-0.30000000000000004,0.2
1698414820811.0,16,0.0,0.0,0.0,-0.8,9.5,-0.5,-0.1,0.0,0.30000000000000004
1698414820828.0,16,0.0,0.0,0.0,-0.7000000000000001,9.5,-0.5,0.1,-0.30000000000000004,0.2
1698414820845.0,16,0.0,0.0,0.0,-0.7000000000000001,9.5,-0.5,0.0,0.0,0.2
1698414820862.0,16,0.0,0.0,0.0,-0.7000000000000001,9.5,-0.5,0.0,0.2,0.30000000000000004
1698414820877.0,16,0.0,0.1,0.0,-0.7000000000000001,9.5,-0.5,0.1,0.4,0.1
1698414820894.0,16,0.0,0.0,0.0,-0.7000000000000001,9.5,-0.5,-0.2,0.2,0.1
1698414820912.0,16,0.0,0.0,0.0,-0.8,9.5,-0.5,-0.5,0.2,0.1
1698414820928.0,16,0.0,0.0,0.0,-0.8,9.5,-0.5,-0.6000000000000001,0.5,0.1
1698414820946.0,16,0.0,0.0,0.0,-0.8,9.5,-0.5,-1.0,0.6000000000000001,0.2
1698414820962.0,16,0.0,0.0,0.0,-0.8,9.5,-0.5,-1.2000000000000002,0.8,0.2
1698414820978.0,16,0.0,0.0,0.0,-0.7000000000000001,9.5,-0.5,-1.5000000000000002,1.2000000000000002,0.1
1698414820995.0,16,0.0,0.0,0.0,-0.8,9.5,-0.5,-1.5000000000000002,0.7,0.1
1698414821012.0,16,0.0,0.0,0.0,-0.7000000000000001,9.5,-0.5,-1.2000000000000002,0.2,0.0
1698414821028.0,16,0.0,0.0,0.0,-0.8,9.5,-0.5,-1.0,-0.2,0.0
1698414821045.0,16,0.0,0.0,0.0,-0.7000000000000001,9.5,-0.5,-0.7,0.0,-0.2
1698414821061.0,16,0.0,0.0,0.0,-0.8,9.5,-0.4,-0.8,0.2,0.0
1698414821078.0,16,0.0,0.0,0.0,-0.8,9.5,-0.4,-0.7,0.2,0.0
1698414821095.0,16,0.0,0.0,0.0,-0.7000000000000001,9.5,-0.4,-0.4,0.0,0.2
1698414821111.0,16,0.0,0.0,0.0,-0.7000000000000001,9.5,-0.5,-0.2,-0.1,0.2
1698414821128.0,16,0.0,0.0,0.0,-0.7000000000000001,9.5,-0.5,-0.2,-0.1,0.1
1698414821145.0,16,0.0,0.0,0.0,-0.8,9.5,-0.5,0.1,-0.30000000000000004,-0.1
1698414821161.0,16,0.0,0.0,0.0,-0.7000000000000001,9.5,-0.5,0.0,-0.4,0.0
1698414821179.0,16,0.0,0.0,0.0,-0.8,9.5,-0.5,0.1,-0.6000000000000001,0.1
1698414821195.0,16,0.0,0.0,0.0,-0.8,9.5,-0.4,0.1,-0.6000000000000001,0.0
1698414821211.0,16,0.0,0.0,0.0,-0.8,9.5,-0.4,0.1,-0.6000000000000001,0.2
1698414821228.0,16,0.0,0.0,0.0,-0.8,9.5,-0.5,0.30000000000000004,-0.4,0.0
1698414821245.0,16,0.0,0.0,0.0,-0.7000000000000001,9.5,-0.4,0.2,-0.5,0.0
1698414821261.0,16,0.0,0.0,0.0,-0.7000000000000001,9.5,-0.4,0.30000000000000004,-0.30000000000000004,-0.1
1698414821278.0,16,0.0,0.0,0.0,-0.7000000000000001,9.5,-0.4,0.4,-0.2,-0.2
1698414821295.0,16,0.0,0.0,0.0,-0.7000000000000001,9.600000000000001,-0.5,0.2,0.0,-0.2
1698414821312.0,16,0.0,0.0,0.0,-0.8,9.5,-0.5,0.2,-0.2,-0.30000000000000004
1698414821328.0,16,0.0,0.0,0.0,-0.8,9.5,-0.5,0.2,0.1,-0.2
1698414821346.0,16,0.0,0.0,-0.1,-0.7000000000000001,9.5,-0.5,0.0,0.2,-0.2
1698414821361.0,16,0.0,0.0,0.0,-0.8,9.5,-0.4,-0.1,0.30000000000000004,-0.2
1698414821378.0,16,0.0,0.0,0.0,-0.8,9.5,-0.5,0.0,0.30000000000000004,-0.2
1698414821397.0,16,0.0,0.0,0.0,-0.8,9.5,-0.4,0.0,0.2,-0.1
1698414821411.0,16,0.0,0.0,0.0,-0.8,9.5,-0.5,-0.1,0.30000000000000004,0.0
1698414821428.0,16,0.0,0.0,0.0,-0.8,9.5,-0.5,-0.1,0.30000000000000004,0.1
1698414821446.0,16,0.0,0.0,0.0,-0.8,9.5,-0.5,-0.2,0.4,0.1
1698414821463.0,16,0.0,0.0,0.0,-0.8,9.5,-0.4,-0.1,0.2,0.1
1698414821480.0,16,0.0,0.0,0.0,-0.8,9.5,-0.5,-0.1,0.1,0.2
1698414821497.0,16,0.0,0.0,0.0,-0.8,9.5,-0.4,0.2,0.0,0.30000000000000004
1698414821512.0,16,0.0,0.0,0.0,-0.8,9.5,-0.5,0.30000000000000004,-0.2,0.30000000000000004
1698414821528.0,16,0.0,0.0,0.0,-0.8,9.5,-0.5,0.30000000000000004,-0.30000000000000004,0.4
1698414821545.0,16,0.0,0.0,0.0,-0.8,9.5,-0.5,0.4,-0.30000000000000004,0.5
1698414821561.0,16,0.0,0.0,0.0,-0.7000000000000001,9.5,-0.4,0.5,-0.30000000000000004,0.4
1698414821579.0,16,0.0,0.0,0.0,-0.7000000000000001,9.5,-0.5,0.4,-0.1,0.2
1698414821595.0,16,0.0,0.0,0.0,-0.7000000000000001,9.5,-0.5,0.4,-0.1,0.2
1698414821611.0,16,0.0,0.0,0.0,-0.8,9.5,-0.4,0.30000000000000004,0.0,0.1
1698414821627.0,16,0.0,0.0,-0.1,-0.8,9.5,-0.6000000000000001,0.2,0.2,0.1
1698414821644.0,16,0.0,0.0,-0.1,-0.8,9.5,-0.5,0.2,0.1,0.1
1698414821661.0,16,0.0,0.0,0.0,-0.7000000000000001,9.5,-0.5,0.1,-0.5,0.2
1698414821678.0,16,0.0,0.0,0.0,-0.8,9.5,-0.5,0.30000000000000004,-0.2,0.1
1698414821695.0,16,0.0,0.0,0.0,-0.8,9.5,-0.5,0.5,-0.1,0.1
1698414821712.0,16,0.0,0.0,0.0,-0.8,9.5,-0.5,0.4,-0.1,0.2
1698414821728.0,16,0.0,0.0,0.0,-0.7000000000000001,9.5,-0.5,0.5,-0.4,0.30000000000000004
1698414821745.0,16,0.0,0.0,0.0,-0.7000000000000001,9.5,-0.5,0.5,-0.30000000000000004,0.2
1698414821761.0,16,0.0,0.0,0.0,-0.7000000000000001,9.5,-0.5,0.6000000000000001,0.0,0.1
1698414821779.0,16,0.0,0.0,0.0,-0.7000000000000001,9.600000000000001,-0.5,0.8,0.2,-0.1
1698414821795.0,16,0.0,0.0,0.0,-0.8,9.5,-0.5,0.8,0.1,0.0
1698414821812.0,16,0.0,0.0,0.0,-0.8,9.5,-0.5,0.7,0.1,0.1
1698414821828.0,16,0.0,0.0,0.0,-0.8,9.5,-0.5,0.5,0.0,0.0
1698414821845.0,16,0.0,0.0,0.0,-0.8,9.5,-0.5,0.5,0.2,0.1
1698414821861.0,16,0.0,0.0,0.0,-0.7000000000000001,9.5,-0.5,0.5,0.2,0.1
1698414821878.0,16,0.0,0.0,0.0,-0.7000000000000001,9.5,-0.5,0.7,0.1,0.2
1698414821894.0,16,0.0,0.0,0.0,-0.8,9.5,-0.5,0.9,0.2,0.2
1698414821912.0,16,0.0,0.0,0.0,-0.7000000000000001,9.5,-0.5,0.7,0.0,0.1
1698414821928.0,16,0.0,0.0,0.0,-0.8,9.5,-0.5,0.7,-0.1,0.1
1698414821945.0,16,0.0,0.0,0.0,-0.8,9.5,-0.5,0.6000000000000001,-0.1,0.1
1698414821961.0,16,0.0,0.0,0.0,-0.7000000000000001,9.5,-0.5,0.5,-0.2,0.2
1698414821984.0,16,0.0,0.0,0.0,-0.7000000000000001,9.5,-0.5,0.5,-0.2,0.30000000000000004
1698414821994.0,16,0.0,0.0,0.0,-0.7000000000000001,9.5,-0.5,0.4,-0.30000000000000004,0.2
1698414822011.0,16,0.0,0.0,0.0,-0.7000000000000001,9.5,-0.5,0.4,0.1,0.2
1698414822029.0,16,0.0,0.0,0.0,-0.8,9.5,-0.5,0.5,0.30000000000000004,0.2
1698414822044.0,16,0.0,0.0,0.0,-0.8,9.5,-0.5,0.5,0.2,0.2
1698414822061.0,16,0.0,0.0,0.0,-0.8,9.5,-0.5,0.4,0.30000000000000004,0.2
1698414822078.0,16,0.0,0.0,0.0,-0.7000000000000001,9.5,-0.5,0.2,0.2,0.4
1698414822095.0,16,0.0,0.0,0.0,-0.8,9.5,-0.6000000000000001,0.1,0.4,0.4
1698414822111.0,16,0.0,0.0,0.0,-0.8,9.5,-0.6000000000000001,0.0,0.1,0.4
1698414822128.0,16,0.0,0.0,0.0,-0.8,9.5,-0.6000000000000001,0.0,0.1,0.4
1698414822144.0,16,0.0,0.0,0.0,-0.7000000000000001,9.5,-0.5,-0.1,-0.1,0.5
1698414822161.0,16,0.0,0.0,0.0,-0.7000000000000001,9.5,-0.5,-0.2,-0.1,0.6000000000000001
1698414822177.0,16,0.0,0.0,0.0,-0.7000000000000001,9.5,-0.5,-0.1,-0.1,0.5
1698414822194.0,16,0.0,0.0,0.0,-0.7000000000000001,9.5,-0.5,-0.1,0.0,0.6000000000000001
1698414822211.0,16,0.0,0.0,0.0,-0.7000000000000001,9.5,-0.5,0.0,-0.1,0.4
1698414822228.0,16,0.0,0.0,0.0,-0.7000000000000001,9.5,-0.5,0.1,0.1,0.5
1698414822244.0,16,0.0,0.0,0.0,-0.7000000000000001,9.5,-0.5,0.0,-0.1,0.5
1698414822262.0,16,0.0,0.0,0.0,-0.7000000000000001,9.5,-0.5,0.0,-0.1,0.4
1698414822278.0,16,0.0,0.0,0.0,-0.7000000000000001,9.5,-0.5,0.1,-0.1,0.2
1698414822294.0,16,0.0,0.0,0.0,-0.7000000000000001,9.5,-0.5,0.2,0.1,0.1
1698414822312.0,16,0.0,0.0,0.0,-0.7000000000000001,9.5,-0.5,0.2,0.1,0.2
1698414822328.0,16,0.0,0.0,0.0,-0.7000000000000001,9.5,-0.5,0.2,0.1,0.30000000000000004
1698414822345.0,16,0.0,0.0,0.0,-0.7000000000000001,9.5,-0.5,0.2,0.4,0.1
1698414822362.0,16,0.0,0.0,0.0,-0.7000000000000001,9.5,-0.5,0.30000000000000004,0.4,0.0
1698414822378.0,16,0.0,0.0,0.0,-0.8,9.5,-0.5,0.4,0.4,0.1
1698414822395.0,16,0.0,0.0,0.0,-0.8,9.5,-0.5,0.4,0.5,0.1
1698414822411.0,16,0.0,0.0,0.0,-0.7000000000000001,9.5,-0.5,0.30000000000000004,0.2,0.1
1698414822428.0,16,0.0,0.0,0.0,-0.8,9.5,-0.5,0.30000000000000004,0.2,0.1
1698414822445.0,16,-0.1,0.0,0.0,-0.8,9.5,-0.5,0.30000000000000004,0.1,0.2
1698414822462.0,16,0.0,0.0,0.0,-0.7000000000000001,9.5,-0.5,0.4,0.0,0.30000000000000004
1698414822478.0,16,0.0,0.0,0.0,-0.7000000000000001,9.5,-0.5,0.30000000000000004,-0.2,0.2
1698414822494.0,16,0.0,0.0,0.0,-0.7000000000000001,9.5,-0.5,0.2,0.1,0.1
1698414822511.0,16,0.0,0.0,0.0,-0.7000000000000001,9.5,-0.5,0.2,0.0,0.2
1698414822528.0,16,0.0,0.0,0.0,-0.7000000000000001,9.5,-0.5,0.2,-0.30000000000000004,0.1
1698414822544.0,16,0.0,0.0,0.0,-0.7000000000000001,9.5,-0.5,0.2,-0.1,0.1
1698414822561.0,16,0.0,0.0,-0.1,-0.7000000000000001,9.5,-0.6000000000000001,0.1,-0.1,0.0
1698414822578.0,16,0.0,0.0,0.0,-0.7000000000000001,9.5,-0.5,0.0,-0.8,-0.1
1698414822594.0,16,0.0,0.0,0.0,-0.7000000000000001,9.5,-0.5,0.1,-0.6000000000000001,-0.1
1698414822611.0,16,0.0,0.0,0.0,-0.7000000000000001,9.5,-0.5,0.2,-0.4,-0.1
1698414822628.0,16,0.0,0.0,0.0,-0.7000000000000001,9.5,-0.5,0.2,0.0,-0.2
1698414822644.0,16,0.0,0.0,0.0,-0.7000000000000001,9.5,-0.5,0.1,0.2,0.0
1698414822661.0,16,0.0,0.0,0.0,-0.8,9.5,-0.5,-0.2,0.2,0.0
1698414822679.0,16,0.0,0.0,0.0,-0.7000000000000001,9.5,-0.6000000000000001,-0.4,0.0,0.0
1698414822695.0,16,0.0,0.0,0.0,-0.7000000000000001,9.600000000000001,-0.5,-0.7,0.7,-0.1
1698414822711.0,16,0.0,0.0,0.0,-0.7000000000000001,9.5,-0.5,-0.7,0.8,-0.2
1698414822728.0,16,0.0,0.0,0.0,-0.7000000000000001,9.5,-0.5,-0.6000000000000001,0.1,-0.30000000000000004
1698414822745.0,16,0.0,0.0,0.0,-0.7000000000000001,9.5,-0.5,-0.2,-0.1,-0.30000000000000004
1698414822762.0,16,0.0,0.0,0.0,-0.7000000000000001,9.5,-0.5,0.1,0.0,-0.2
1698414822778.0,16,0.0,0.0,0.0,-0.7000000000000001,9.5,-0.5,0.2,-0.1,-0.2
1698414822794.0,16,0.0,0.0,0.0,-0.7000000000000001,9.5,-0.5,0.2,0.2,-0.2
1698414822811.0,16,0.0,0.0,0.0,-0.7000000000000001,9.5,-0.5,0.2,0.30000000000000004,-0.2
1698414822828.0,16,0.0,0.0,0.0,-0.7000000000000001,9.5,-0.5,0.2,0.4,-0.5
1698414822845.0,16,0.0,0.0,0.0,-0.7000000000000001,9.5,-0.6000000000000001,0.2,0.0,-0.4
1698414822862.0,16,0.0,0.0,0.0,-0.8,9.5,-0.5,0.0,-0.1,-0.4
1698414822879.0,16,0.0,0.0,0.0,-0.8,9.5,-0.5,0.1,-0.1,-0.30000000000000004
1698414822895.0,16,0.0,0.0,0.0,-0.8,9.5,-0.5,0.2,-0.5,-0.2
1698414822914.0,16,0.0,0.0,0.0,-0.8,9.5,-0.5,0.30000000000000004,-0.4,-0.1
1698414822929.0,16,0.0,0.0,0.0,-0.8,9.5,-0.5,0.2,-0.4,-0.1
1698414822945.0,16,0.0,0.0,0.1,-0.7000000000000001,9.5,-0.5,0.4,-0.5,-0.2
1698414822961.0,16,0.0,0.0,0.0,-0.7000000000000001,9.5,-0.5,0.5,-0.4,-0.2
1698414822978.0,16,0.0,0.1,0.0,-0.7000000000000001,9.600000000000001,-0.5,0.5,-0.4,-0.2
1698414822994.0,16,0.0,0.0,0.0,-0.8,9.5,-0.5,0.2,-0.30000000000000004,-0.4
1698414823013.0,16,0.0,0.0,0.0,-0.8,9.5,-0.5,0.30000000000000004,-0.1,-0.1
1698414823028.0,16,0.0,0.0,0.0,-0.7000000000000001,9.5,-0.5,0.30000000000000004,-0.1,-0.30000000000000004
1698414823045.0,16,0.0,0.0,-0.1,-0.7000000000000001,9.5,-0.6000000000000001,0.1,-0.1,-0.4
1698414823061.0,16,0.0,0.0,0.0,-0.8,9.5,-0.5,0.1,-0.2,-0.4
1698414823078.0,16,0.0,0.0,0.0,-0.7000000000000001,9.5,-0.5,0.1,0.1,-0.4
1698414823094.0,16,0.0,0.0,0.0,-0.7000000000000001,9.5,-0.6000000000000001,0.30000000000000004,0.2,-0.4
1698414823111.0,16,0.0,0.0,0.0,-0.7000000000000001,9.5,-0.5,0.4,-0.1,-0.4
1698414823128.0,16,0.0,0.0,0.0,-0.7000000000000001,9.5,-0.5,0.30000000000000004,-0.1,-0.5
1698414823144.0,16,0.0,0.0,0.0,-0.7000000000000001,9.5,-0.5,0.2,-0.30000000000000004,-0.5
1698414823161.0,16,0.0,0.0,0.0,-0.8,9.5,-0.5,0.30000000000000004,-0.1,-0.5
1698414823178.0,16,0.0,0.0,0.0,-0.7000000000000001,9.5,-0.5,0.4,0.1,-0.4
1698414823195.0,16,0.0,0.0,0.0,-0.7000000000000001,9.5,-0.6000000000000001,0.2,0.1,-0.5
1698414823211.0,16,0.0,0.0,-0.1,-0.8,9.5,-0.6000000000000001,0.2,0.2,-0.5
1698414823228.0,16,0.0,0.0,0.0,-0.8,9.5,-0.6000000000000001,0.1,0.1,-0.5
1698414823244.0,16,0.0,0.0,0.0,-0.8,9.5,-0.5,0.1,-0.30000000000000004,-0.2
1698414823264.0,16,0.0,0.0,0.0,-0.8,9.5,-0.6000000000000001,-0.1,-0.1,-0.2
1698414823278.0,16,0.0,0.0,0.0,-0.8,9.5,-0.5,-0.1,-0.2,-0.1
1698414823295.0,16,0.0,0.0,0.0,-0.8,9.5,-0.5,-0.1,-0.1,-0.30000000000000004
1698414823311.0,16,0.0,0.0,0.0,-0.8,9.5,-0.5,-0.1,0.1,-0.1
1698414823328.0,16,0.0,0.0,0.0,-0.8,9.5,-0.6000000000000001,-0.2,0.0,-0.1
1698414823344.0,16,0.0,0.0,0.0,-0.8,9.5,-0.5,-0.2,0.0,0.0
1698414823362.0,16,0.0,0.0,0.1,-0.8,9.5,-0.5,-0.4,0.0,-0.1
1698414823378.0,16,0.0,0.0,0.0,-0.8,9.5,-0.5,-0.5,0.1,-0.30000000000000004
1698414823395.0,16,0.0,0.1,0.0,-0.8,9.600000000000001,-0.6000000000000001,-0.7,-0.2,-0.30000000000000004
1698414823412.0,16,0.0,0.0,-0.2,-0.7000000000000001,9.5,-0.7000000000000001,-1.6,-0.30000000000000004,-0.7
1698414823428.0,16,0.0,0.0,-0.2,-0.7000000000000001,9.5,-0.8,-2.9,-0.5,-0.9
1698414823444.0,16,-0.1,0.1,0.1,-0.8,9.600000000000001,-0.4,-5.1,-1.8,-1.2000000000000002
1698414823462.0,16,0.0,0.2,0.1,-0.8,9.700000000000001,-0.4,-5.1,-2.8,-0.5
1698414823478.0,16,0.0,0.2,0.0,-0.8,9.700000000000001,-0.5,-4.800000000000001,-3.1,-0.4
1698414823495.0,16,0.1,0.0,-0.2,-0.7000000000000001,9.5,-0.6000000000000001,-3.8,-2.6,-1.0
1698414823511.0,16,0.1,0.0,-0.2,-0.7000000000000001,9.5,-0.7000000000000001,-3.1,-1.5000000000000002,-0.4
1698414823528.0,16,0.1,0.0,-0.30000000000000004,-0.7000000000000001,9.5,-0.8,-2.6,-1.0,-0.9
1698414823545.0,16,0.0,0.0,-0.1,-0.8,9.5,-0.6000000000000001,-2.0,-0.4,-1.0999999999999999
1698414823562.0,16,0.0,-0.1,0.0,-0.8,9.5,-0.5,-1.6,0.2,-0.9
1698414823578.0,16,0.0,-0.1,0.0,-0.8,9.4,-0.5,-1.4,0.1,-0.5
1698414823595.0,16,0.0,-0.1,0.1,-0.8,9.4,-0.4,-1.5000000000000002,0.2,-0.1
1698414823612.0,16,0.0,0.0,0.2,-0.8,9.5,-0.30000000000000004,-1.9,0.7,0.0
1698414823628.0,16,0.0,0.0,0.2,-0.8,9.5,-0.30000000000000004,-2.1,1.0,-0.1
1698414823644.0,16,-0.1,0.0,0.30000000000000004,-0.8,9.5,-0.2,-2.4000000000000004,1.2000000000000002,-0.1
1698414823662.0,16,0.0,0.0,0.2,-0.8,9.5,-0.2,-2.6,0.8,-0.1
1698414823679.0,16,0.0,0.0,0.2,-0.8,9.5,-0.2,-2.4000000000000004,0.6000000000000001,-0.1
1698414823695.0,16,0.0,0.0,0.1,-0.8,9.5,-0.30000000000000004,-2.3000000000000003,0.7,-0.2
1698414823712.0,16,0.0,-0.1,0.1,-0.8,9.4,-0.30000000000000004,-2.0,0.8,-0.30000000000000004
1698414823728.0,16,0.0,-0.1,0.1,-0.8,9.4,-0.30000000000000004,-1.5000000000000002,1.0,-0.30000000000000004
1698414823745.0,16,0.0,-0.1,0.0,-0.8,9.4,-0.4,-1.0,0.8,-0.30000000000000004
1698414823762.0,16,0.0,-0.1,0.0,-0.8,9.4,-0.30000000000000004,-0.5,0.7,-0.4
1698414823778.0,16,0.0,-0.1,0.1,-0.8,9.5,-0.30000000000000004,0.0,0.30000000000000004,-0.1
1698414823795.0,16,0.0,0.0,0.0,-0.8,9.5,-0.4,0.2,0.2,0.1
1698414823812.0,16,0.0,0.0,0.1,-0.8,9.5,-0.30000000000000004,0.4,0.1,0.2
1698414823828.0,16,0.0,0.0,0.0,-0.8,9.5,-0.30000000000000004,0.4,0.2,0.2
1698414823847.0,16,0.0,0.0,0.0,-0.8,9.5,-0.30000000000000004,0.5,0.1,0.2
1698414823861.0,16,0.0,0.0,0.0,-0.8,9.5,-0.4,0.5,0.1,0.2
1698414823878.0,16,0.0,0.0,0.0,-0.8,9.5,-0.4,0.5,0.1,0.2
1698414823895.0,16,0.0,0.0,0.0,-0.8,9.5,-0.4,0.6000000000000001,0.0,0.2
1698414823912.0,16,0.0,0.0,0.0,-0.8,9.5,-0.4,0.9,0.1,0.2
1698414823928.0,16,0.0,0.0,0.0,-0.8,9.5,-0.4,1.0999999999999999,0.2,0.2
1698414823945.0,16,0.0,0.0,0.0,-0.8,9.5,-0.4,1.0999999999999999,0.30000000000000004,0.2
1698414823962.0,16,0.0,0.0,0.0,-0.8,9.5,-0.4,1.2000000000000002,0.2,0.2
1698414823978.0,16,-0.1,0.0,0.0,-0.9,9.5,-0.4,1.2000000000000002,0.1,0.2
1698414823995.0,16,0.0,0.0,0.0,-0.8,9.5,-0.4,1.0999999999999999,0.1,0.30000000000000004
1698414824012.0,16,0.0,0.0,0.0,-0.8,9.5,-0.4,1.2000000000000002,0.2,0.30000000000000004
1698414824028.0,16,0.1,0.0,0.0,-0.7000000000000001,9.5,-0.4,1.2000000000000002,0.30000000000000004,0.1
1698414824044.0,16,0.0,0.0,0.0,-0.7000000000000001,9.5,-0.4,1.2000000000000002,0.30000000000000004,-0.1
1698414824061.0,16,0.0,0.1,0.0,-0.8,9.600000000000001,-0.4,1.2000000000000002,0.1,-0.1
1698414824078.0,16,0.0,0.0,-0.1,-0.8,9.5,-0.5,0.9,0.2,0.2
1698414824094.0,16,0.0,0.0,0.0,-0.8,9.5,-0.5,1.0,0.0,0.2
1698414824111.0,16,0.0,0.0,0.0,-0.8,9.5,-0.4,0.9,-0.1,0.2
1698414824128.0,16,0.0,0.0,0.0,-0.8,9.5,-0.4,1.2000000000000002,0.4,0.2
1698414824145.0,16,0.0,0.0,0.0,-0.8,9.5,-0.5,1.2000000000000002,0.4,0.1
1698414824161.0,16,0.0,0.0,0.0,-0.8,9.5,-0.4,1.3,0.2,0.2
1698414824178.0,16,0.0,0.0,0.0,-0.8,9.5,-0.5,1.3,0.1,0.30000000000000004
1698414824195.0,16,0.0,0.0,0.0,-0.8,9.5,-0.5,1.3,0.1,0.2
1698414824212.0,16,0.0,0.0,0.0,-0.8,9.5,-0.4,1.0999999999999999,0.4,0.4
1698414824228.0,16,0.0,0.0,0.0,-0.8,9.5,-0.5,1.0,0.2,0.2
1698414824245.0,16,0.0,0.0,0.0,-0.8,9.5,-0.5,0.9,0.30000000000000004,0.30000000000000004
1698414824262.0,16,0.0,0.0,0.0,-0.8,9.5,-0.5,0.5,0.2,0.2
1698414824278.0,16,0.0,0.0,0.0,-0.8,9.5,-0.4,0.6000000000000001,0.2,0.1
1698414824295.0,16,0.0,0.0,0.0,-0.8,9.5,-0.5,0.9,0.2,0.30000000000000004
1698414824312.0,16,0.0,0.0,0.0,-0.8,9.5,-0.5,1.0,0.2,0.2
1698414824328.0,16,0.0,0.0,0.0,-0.8,9.5,-0.5,1.0,-0.2,0.30000000000000004
1698414824345.0,16,0.0,0.0,0.0,-0.8,9.5,-0.5,1.0999999999999999,-0.1,0.4
1698414824362.0,16,0.0,0.0,0.0,-0.8,9.5,-0.5,0.9,-0.2,0.30000000000000004
1698414824378.0,16,0.0,0.0,0.0,-0.8,9.5,-0.5,0.5,0.1,0.4
1698414824394.0,16,0.0,0.0,0.0,-0.8,9.5,-0.5,0.4,-0.1,0.4
1698414824412.0,16,0.0,0.0,0.0,-0.8,9.5,-0.4,0.30000000000000004,0.2,0.30000000000000004
1698414824428.0,16,0.0,0.0,0.0,-0.8,9.5,-0.4,0.4,0.2,0.2
1698414824444.0,16,0.0,0.0,0.0,-0.8,9.5,-0.5,0.4,0.2,0.2
1698414824461.0,16,0.0,0.0,0.0,-0.8,9.5,-0.5,0.30000000000000004,0.2,0.2
1698414824479.0,16,0.0,0.0,0.0,-0.8,9.5,-0.5,0.2,0.30000000000000004,0.2
1698414824496.0,16,0.0,0.0,0.0,-0.8,9.5,-0.5,0.2,0.2,0.30000000000000004
1698414824511.0,16,0.0,0.0,0.0,-0.8,9.5,-0.5,0.30000000000000004,0.1,0.4
1698414824528.0,16,0.0,0.0,0.0,-0.8,9.5,-0.5,0.30000000000000004,0.0,0.30000000000000004
1698414824545.0,16,0.0,0.0,0.0,-0.8,9.5,-0.5,0.2,0.1,0.2
1698414824562.0,16,0.0,0.0,0.0,-0.8,9.5,-0.4,0.30000000000000004,0.1,0.2
1698414824579.0,16,0.0,0.0,0.0,-0.8,9.5,-0.5,0.2,0.0,0.1
1698414824595.0,16,0.0,0.0,0.0,-0.8,9.5,-0.5,0.1,0.2,0.30000000000000004
1698414824612.0,16,0.0,0.0,0.0,-0.8,9.5,-0.5,0.1,0.2,0.30000000000000004
1698414824628.0,16,0.0,0.0,0.0,-0.8,9.5,-0.5,-0.1,0.4,0.30000000000000004
1698414824645.0,16,0.0,0.0,0.0,-0.8,9.5,-0.5,0.1,0.4,0.30000000000000004
1698414824662.0,16,0.0,0.0,0.0,-0.8,9.5,-0.5,-0.1,0.1,0.4
1698414824679.0,16,0.0,0.0,0.0,-0.7000000000000001,9.5,-0.5,-0.1,0.1,0.4
1698414824695.0,16,0.0,0.0,0.0,-0.7000000000000001,9.5,-0.5,0.0,0.30000000000000004,0.2
1698414824711.0,16,0.0,0.0,0.0,-0.7000000000000001,9.5,-0.4,-0.1,0.4,0.0
1698414824728.0,16,0.0,0.0,0.0,-0.8,9.5,-0.5,-0.1,0.1,0.0
1698414824744.0,16,0.0,0.0,0.0,-0.8,9.5,-0.5,-0.1,0.2,0.1
1698414824761.0,16,0.0,0.0,0.0,-0.8,9.5,-0.5,-0.1,0.30000000000000004,0.1
1698414824779.0,16,0.0,0.0,0.0,-0.8,9.5,-0.5,-0.30000000000000004,-0.1,0.2
1698414824796.0,16,0.0,0.0,0.0,-0.8,9.5,-0.5,-0.30000000000000004,-0.5,0.1
1698414824811.0,16,0.0,0.0,0.0,-0.8,9.5,-0.5,-0.30000000000000004,-0.30000000000000004,0.1
1698414824828.0,16,0.0,0.0,0.0,-0.8,9.5,-0.5,-0.2,-0.1,0.1
1698414824845.0,16,0.0,0.0,0.0,-0.8,9.5,-0.4,-0.1,-0.2,0.1
1698414824861.0,16,0.0,0.0,0.0,-0.8,9.5,-0.4,0.0,-0.4,0.2
1698414824878.0,16,0.0,0.0,0.0,-0.8,9.5,-0.4,0.1,-0.30000000000000004,0.2
1698414824894.0,16,0.0,0.0,0.0,-0.7000000000000001,9.5,-0.4,0.2,-0.1,0.1
1698414824911.0,16,0.0,0.0,0.0,-0.7000000000000001,9.5,-0.5,0.2,0.1,0.0
1698414824928.0,16,0.0,0.0,0.0,-0.7000000000000001,9.5,-0.5,0.2,0.2,-0.2
1698414824945.0,16,0.0,0.0,0.0,-0.8,9.5,-0.4,0.1,0.2,-0.1
1698414824961.0,16,0.0,0.0,0.0,-0.8,9.5,-0.5,0.2,0.1,0.1
1698414824978.0,16,0.0,0.0,0.0,-0.8,9.5,-0.5,0.2,0.0,0.1
1698414824994.0,16,0.0,0.0,0.0,-0.8,9.5,-0.4,0.2,0.0,0.0
1698414825011.0,16,0.0,0.0,0.0,-0.7000000000000001,9.5,-0.5,0.2,0.1,-0.1
1698414825028.0,16,0.0,0.0,0.0,-0.8,9.5,-0.5,0.2,0.1,0.0
1698414825044.0,16,0.0,0.0,0.0,-0.8,9.5,-0.5,0.2,-0.30000000000000004,0.1
1698414825062.0,16,0.0,0.0,0.0,-0.8,9.5,-0.5,0.2,-0.30000000000000004,0.1
1698414825077.0,16,0.0,0.0,0.0,-0.8,9.5,-0.5,0.2,-0.30000000000000004,0.2
1698414825094.0,16,0.0,0.0,0.0,-0.7000000000000001,9.5,-0.5,0.1,0.0,0.0
1698414825111.0,16,0.0,0.0,0.0,-0.8,9.5,-0.5,0.1,0.1,0.0
1698414825127.0,16,0.0,0.0,0.0,-0.8,9.5,-0.5,0.0,0.1,0.1
1698414825144.0,16,0.0,0.0,0.0,-0.8,9.5,-0.5,0.1,-0.1,0.1
1698414825162.0,16,0.0,0.0,0.0,-0.8,9.5,-0.5,0.1,0.1,0.0
1698414825178.0,16,0.0,0.0,0.0,-0.8,9.5,-0.5,0.1,0.1,0.1
1698414825195.0,16,0.0,0.0,0.0,-0.8,9.5,-0.5,0.1,0.2,0.2
1698414825211.0,16,0.0,0.0,0.0,-0.8,9.5,-0.5,0.1,0.1,0.1
1698414825228.0,16,0.0,0.0,0.0,-0.8,9.5,-0.5,0.1,0.2,0.0
1698414825244.0,16,0.0,0.0,0.0,-0.8,9.5,-0.5,0.1,0.0,0.0
1698414825261.0,16,0.0,0.0,0.0,-0.8,9.5,-0.5,0.1,0.1,0.1
1698414825278.0,16,0.0,0.0,0.0,-0.8,9.5,-0.5,0.1,-0.1,0.2
1698414825294.0,16,0.0,0.0,0.0,-0.7000000000000001,9.5,-0.5,-0.1,-0.2,0.2
1698414825311.0,16,0.0,0.0,0.0,-0.7000000000000001,9.5,-0.5,0.0,-0.1,0.2
1698414825328.0,16,0.0,0.0,0.0,-0.8,9.5,-0.5,0.1,-0.1,0.1
1698414825344.0,16,0.0,0.0,0.0,-0.8,9.5,-0.5,-0.1,-0.1,0.2
1698414825361.0,16,0.0,0.0,0.0,-0.8,9.5,-0.4,0.0,-0.1,0.1
1698414825378.0,16,0.0,0.0,0.0,-0.7000000000000001,9.5,-0.5,-0.1,0.1,0.1
1698414825394.0,16,0.0,-0.1,0.0,-0.8,9.4,-0.4,0.0,0.1,0.0
1698414825412.0,16,0.0,0.0,0.0,-0.8,9.5,-0.5,0.0,-0.1,0.1
1698414825428.0,16,0.0,0.0,0.0,-0.8,9.5,-0.5,0.1,0.0,0.2
1698414825444.0,16,0.0,0.0,0.0,-0.8,9.5,-0.5,0.1,0.1,0.1
1698414825461.0,16,0.0,0.0,0.0,-0.8,9.5,-0.5,-0.2,-0.4,0.0
1698414825478.0,16,0.0,0.0,0.0,-0.8,9.5,-0.4,-0.1,-0.4,-0.1
1698414825496.0,16,0.0,0.0,0.0,-0.8,9.5,-0.5,0.1,-0.4,0.1
1698414825511.0,16,0.0,0.0,0.0,-0.8,9.5,-0.5,0.1,-0.4,0.2
1698414825529.0,16,0.0,0.0,0.0,-0.8,9.5,-0.5,0.1,-0.2,0.2
1698414825545.0,16,0.0,0.0,0.0,-0.8,9.5,-0.5,0.1,-0.30000000000000004,0.2
1698414825561.0,16,0.0,0.0,0.0,-0.7000000000000001,9.5,-0.4,0.0,0.0,0.2
1698414825578.0,16,0.0,0.0,0.0,-0.7000000000000001,9.5,-0.5,0.0,0.1,0.2
1698414825595.0,16,0.0,0.0,0.0,-0.7000000000000001,9.5,-0.4,0.1,0.2,0.1
1698414825611.0,16,0.0,0.0,0.0,-0.8,9.5,-0.5,0.1,0.2,0.2
1698414825628.0,16,0.0,0.0,0.0,-0.8,9.5,-0.4,0.2,0.2,0.2
1698414825645.0,16,0.0,0.0,0.0,-0.8,9.5,-0.4,0.2,0.1,0.1
1698414825662.0,16,0.0,0.0,0.0,-0.8,9.5,-0.5,0.4,0.0,0.2
1698414825677.0,16,0.0,0.0,0.0,-0.7000000000000001,9.5,-0.4,0.4,0.1,0.2
1698414825694.0,16,0.0,0.0,0.0,-0.7000000000000001,9.5,-0.5,0.5,0.4,0.1
1698414825711.0,16,0.0,0.0,0.0,-0.7000000000000001,9.5,-0.5,0.4,0.2,-0.1
1698414825728.0,16,0.0,0.0,0.0,-0.8,9.5,-0.5,0.4,0.2,-0.1
1698414825744.0,16,0.0,0.0,0.0,-0.8,9.5,-0.5,0.4,0.2,-0.1
1698414825761.0,16,0.0,0.0,0.0,-0.7000000000000001,9.5,-0.5,0.4,0.1,-0.1
1698414825777.0,16,0.0,0.0,0.0,-0.8,9.5,-0.5,0.4,0.2,-0.2
1698414825795.0,16,0.0,0.0,0.0,-0.8,9.5,-0.5,0.2,0.30000000000000004,-0.2
1698414825812.0,16,0.0,-0.1,0.1,-0.8,9.4,-0.4,0.1,-0.1,-0.1
1698414825828.0,16,0.0,0.0,0.0,-0.7000000000000001,9.5,-0.4,0.7,-0.1,-0.30000000000000004
1698414825844.0,16,0.0,0.0,0.0,-0.8,9.5,-0.5,0.9,0.1,-0.30000000000000004
1698414825862.0,16,0.0,0.0,0.0,-0.7000000000000001,9.5,-0.5,1.2000000000000002,0.0,-0.4
1698414825882.0,16,0.0,0.0,0.0,-0.8,9.5,-0.5,1.2000000000000002,-0.2,-0.7
1698414825894.0,16,0.0,0.0,0.0,-0.8,9.5,-0.5,1.3,-0.2,-0.6000000000000001
1698414825911.0,16,0.0,0.0,0.1,-0.8,9.5,-0.4,1.3,-0.2,-0.6000000000000001
1698414825927.0,16,0.0,0.0,0.0,-0.8,9.5,-0.5,1.4,-0.1,-0.5
1698414825945.0,16,0.0,0.0,0.0,-0.8,9.5,-0.5,1.3,-0.1,-0.5
1698414825961.0,16,0.0,0.0,0.0,-0.8,9.5,-0.5,1.3,0.1,-0.4
1698414825978.0,16,-0.1,0.0,0.0,-0.8,9.5,-0.5,1.2000000000000002,-0.1,-0.2
1698414825995.0,16,0.0,0.0,0.0,-0.8,9.5,-0.6000000000000001,1.2000000000000002,-0.30000000000000004,-0.1
1698414826012.0,16,0.0,0.0,0.0,-0.8,9.5,-0.5,1.4,-0.2,0.0
1698414826028.0,16,0.0,0.0,0.0,-0.8,9.5,-0.5,1.4,-0.30000000000000004,-0.2
1698414826044.0,16,0.0,0.0,0.0,-0.8,9.5,-0.6000000000000001,1.3,-0.1,-0.2
1698414826061.0,16,0.0,0.0,0.0,-0.8,9.5,-0.6000000000000001,1.0999999999999999,-0.1,-0.2
1698414826079.0,16,0.1,0.0,0.0,-0.7000000000000001,9.5,-0.6000000000000001,0.7,0.1,-0.4
1698414826096.0,16,0.0,0.0,-0.1,-0.7000000000000001,9.5,-0.6000000000000001,0.4,0.4,-0.5
1698414826114.0,16,0.0,0.0,0.0,-0.8,9.5,-0.5,0.2,0.2,-0.4
1698414826128.0,16,0.0,0.1,0.0,-0.8,9.600000000000001,-0.6000000000000001,0.1,0.1,-0.4
1698414826145.0,16,0.0,0.0,0.0,-0.8,9.5,-0.6000000000000001,0.0,0.1,-0.2
1698414826163.0,16,0.0,0.0,-0.1,-0.8,9.5,-0.6000000000000001,-0.2,0.0,-0.30000000000000004
1698414826179.0,16,0.0,0.0,0.0,-0.8,9.5,-0.6000000000000001,-0.6000000000000001,-0.4,-0.2
1698414826196.0,16,0.0,0.0,0.0,-0.8,9.5,-0.6000000000000001,-0.6000000000000001,-0.30000000000000004,-0.1
1698414826213.0,16,0.0,0.0,0.0,-0.8,9.5,-0.6000000000000001,-0.7,-0.2,0.0
1698414826227.0,16,0.0,0.0,0.0,-0.8,9.5,-0.6000000000000001,-0.7,-0.2,0.0
1698414826245.0,16,0.0,0.0,0.0,-0.8,9.5,-0.5,-0.5,-0.2,0.1
1698414826262.0,16,0.0,0.0,0.0,-0.8,9.5,-0.5,-0.4,-0.30000000000000004,0.1
1698414826278.0,16,0.0,0.0,0.1,-0.8,9.5,-0.5,-0.4,0.1,0.0
1698414826295.0,16,0.0,0.0,0.0,-0.8,9.5,-0.5,-0.5,0.2,0.0
1698414826312.0,16,0.0,0.0,0.1,-0.8,9.5,-0.5,-0.4,0.30000000000000004,-0.1
1698414826328.0,16,0.0,0.0,0.0,-0.8,9.5,-0.5,-0.4,0.1,-0.2
1698414826345.0,16,0.0,0.0,0.0,-0.8,9.5,-0.5,-0.2,0.2,-0.2
1698414826362.0,16,0.0,0.0,0.0,-0.8,9.5,-0.5,-0.2,0.2,-0.1
1698414826379.0,16,0.0,0.0,0.0,-0.8,9.5,-0.5,-0.2,0.1,0.1
1698414826395.0,16,0.0,0.0,0.0,-0.8,9.5,-0.5,-0.2,0.2,-0.1
1698414826412.0,16,0.0,0.0,0.0,-0.8,9.5,-0.5,-0.1,0.2,-0.2
1698414826428.0,16,0.0,0.0,0.0,-0.8,9.5,-0.5,-0.4,0.1,-0.1
1698414826444.0,16,0.0,0.1,0.0,-0.8,9.600000000000001,-0.5,-0.6000000000000001,-0.1,-0.2
1698414826462.0,16,0.0,0.0,0.0,-0.8,9.5,-0.5,-0.7,0.2,-0.1
1698414826478.0,16,0.0,0.0,0.0,-0.8,9.5,-0.6000000000000001,-0.8,0.4,0.0
1698414826495.0,16,0.0,0.0,-0.1,-0.8,9.5,-0.6000000000000001,-1.3,0.5,0.0
1698414826512.0,16,0.0,0.0,0.0,-0.8,9.5,-0.5,-1.4,0.5,0.2
1698414826528.0,16,0.0,0.0,0.0,-0.8,9.5,-0.5,-1.4,0.6000000000000001,0.4
1698414826547.0,16,0.0,0.0,0.0,-0.8,9.5,-0.5,-1.5000000000000002,0.2,0.4
1698414826562.0,16,0.0,0.0,0.0,-0.8,9.5,-0.5,-1.4,0.2,0.5
1698414826578.0,16,0.0,0.0,0.0,-0.8,9.5,-0.5,-1.5000000000000002,0.30000000000000004,0.6000000000000001
1698414826595.0,16,0.0,0.0,0.0,-0.8,9.5,-0.5,-1.3,0.1,0.7
1698414826612.0,16,0.0,0.0,0.0,-0.8,9.5,-0.5,-1.2000000000000002,-0.30000000000000004,0.9
1698414826628.0,16,0.0,0.0,0.1,-0.8,9.5,-0.4,-1.0,-0.4,0.9
1698414826644.0,16,0.0,0.0,0.1,-0.8,9.5,-0.4,-0.7,-0.4,0.7
1698414826663.0,16,0.0,0.0,0.1,-0.8,9.5,-0.4,-0.6000000000000001,-0.2,0.7
1698414826678.0,16,0.0,0.0,0.1,-0.8,9.5,-0.4,-0.6000000000000001,-0.2,0.5
1698414826695.0,16,0.0,0.0,0.1,-0.7000000000000001,9.5,-0.4,-0.5,-0.30000000000000004,0.6000000000000001
1698414826712.0,16,0.0,0.0,0.0,-0.8,9.5,-0.4,-0.30000000000000004,-0.30000000000000004,0.6000000000000001
1698414826728.0,16,0.0,0.0,0.0,-0.7000000000000001,9.5,-0.4,-0.1,-0.2,0.5
1698414826744.0,16,0.0,0.0,0.0,-0.8,9.5,-0.4,0.2,0.1,0.2
1698414826761.0,16,0.0,0.0,0.0,-0.8,9.5,-0.5,0.30000000000000004,0.1,0.2
1698414826779.0,16,0.0,0.0,0.0,-0.8,9.5,-0.4,0.30000000000000004,0.1,0.2
1698414826795.0,16,0.0,0.0,0.0,-0.8,9.5,-0.4,0.30000000000000004,-0.1,0.2
1698414826811.0,16,0.0,0.0,0.0,-0.7000000000000001,9.5,-0.4,0.2,0.1,0.1
1698414826828.0,16,0.0,0.0,0.0,-0.7000000000000001,9.5,-0.5,0.2,0.4,0.0
1698414826844.0,16,0.0,0.0,0.0,-0.8,9.5,-0.5,0.1,0.5,0.0
1698414826862.0,16,0.0,0.0,0.0,-0.8,9.5,-0.5,0.1,0.4,0.1
1698414826878.0,16,0.1,0.0,0.0,-0.7000000000000001,9.5,-0.5,-0.1,0.5,0.1
1698414826895.0,16,0.0,0.0,-0.1,-0.7000000000000001,9.5,-0.5,-0.1,0.6000000000000001,-0.30000000000000004
1698414826911.0,16,0.0,0.0,-0.1,-0.8,9.5,-0.5,-0.6000000000000001,0.4,-0.8
1698414826928.0,16,0.0,0.1,0.0,-0.8,9.600000000000001,-0.5,-0.9,0.1,-0.6000000000000001
1698414826945.0,16,0.0,0.1,-0.1,-0.8,9.600000000000001,-0.6000000000000001,-1.4,0.30000000000000004,-0.30000000000000004
1698414826961.0,16,0.0,0.1,-0.2,-0.8,9.600000000000001,-0.6000000000000001,-1.8,0.1,-0.5
1698414826979.0,16,0.0,0.0,-0.30000000000000004,-0.7000000000000001,9.5,-0.8,-4.0,-0.9,-1.0999999999999999
1698414826994.0,16,-0.1,0.1,-0.1,-0.8,9.600000000000001,-0.5,-7.8,-2.6,-1.0999999999999999
1698414827011.0,16,-0.1,0.1,0.1,-0.9,9.600000000000001,-0.30000000000000004,-9.1,-3.0000000000000004,-0.30000000000000004
1698414827029.0,16,-0.1,0.30000000000000004,0.1,-0.9,9.8,-0.30000000000000004,-10.0,-3.2,0.6000000000000001
1698414827045.0,16,-0.1,0.1,-0.2,-0.9,9.600000000000001,-0.6000000000000001,-11.700000000000001,-3.9,1.3
1698414827062.0,16,-0.1,0.0,-0.30000000000000004,-0.9,9.600000000000001,-0.6000000000000001,-13.100000000000001,-4.7,2.0
1698414827082.0,16,0.0,0.2,-0.2,-0.8,9.700000000000001,-0.5,-16.2,-4.3999999999999995,3.1
1698414827095.0,16,0.0,0.30000000000000004,-0.4,-0.7000000000000001,9.8,-0.7000000000000001,-19.400000000000002,-1.8,2.6
1698414827111.0,16,0.0,0.2,-0.4,-0.8,9.700000000000001,-0.6000000000000001,-21.700000000000003,-1.4,2.1
1698414827128.0,16,-0.1,0.30000000000000004,-0.4,-0.9,9.9,-0.5,-26.1,-2.8,2.1
1698414827144.0,16,-0.1,0.5,-0.2,-0.9,10.0,-0.30000000000000004,-30.799999999999997,-4.300000000000001,1.8
1698414827161.0,16,-0.1,0.30000000000000004,-0.30000000000000004,-0.9,9.9,-0.2,-34.50000000000001,-6.5,1.0
1698414827177.0,16,-0.1,0.30000000000000004,-0.30000000000000004,-0.9,9.9,-0.2,-36.1,-6.1000000000000005,1.8
1698414827195.0,16,-0.1,0.4,-0.5,-0.8,9.9,-0.2,-39.2,-3.9,3.3000000000000003
1698414827211.0,16,-0.1,0.30000000000000004,-0.5,-0.8,9.9,-0.2,-41.300000000000004,-3.9,3.8
1698414827229.0,16,0.0,0.2,-0.4,-0.8,9.8,0.0,-44.4,-4.1000000000000005,4.1000000000000005
1698414827245.0,16,0.0,0.30000000000000004,-0.6000000000000001,-0.7000000000000001,9.9,0.0,-47.300000000000004,-3.5,4.300000000000001
1698414827261.0,16,-0.1,0.4,-0.8,-0.9,10.0,-0.1,-53.00000000000001,-2.9,5.4
1698414827278.0,16,-0.30000000000000004,0.5,-1.0,-1.0,10.100000000000001,-0.1,-56.0,-2.8,6.6000000000000005
1698414827294.0,16,-0.30000000000000004,0.6000000000000001,-0.8,-1.0,10.200000000000001,0.2,-62.50000000000001,-3.7000000000000006,9.5
1698414827311.0,16,-0.1,1.0,-0.7000000000000001,-0.7000000000000001,10.600000000000001,0.5,-70.39999999999999,-5.500000000000001,10.5
1698414827328.0,16,0.0,1.2000000000000002,-1.0,-0.6000000000000001,10.700000000000001,0.30000000000000004,-75.80000000000001,-5.300000000000001,10.5
1698414827344.0,16,0.0,1.4000000000000001,-2.2,-0.6000000000000001,10.9,-0.6000000000000001,-90.10000000000001,-3.1,10.3
1698414827361.0,16,-0.1,1.3,-3.0,-0.7000000000000001,10.8,-1.1,-110.50000000000001,7.6,11.6
1698414827378.0,16,-0.30000000000000004,0.9,-2.4000000000000004,-0.8,10.3,-0.30000000000000004,-105.80000000000001,11.1,13.100000000000001
1698414827395.0,16,-0.5,1.3,-3.8000000000000003,-1.0,10.600000000000001,-1.4000000000000001,-88.5,11.000000000000002,16.2
1698414827412.0,16,-0.5,1.2000000000000002,-3.0,-1.0,10.5,-0.4,-99.7,2.9,15.8
1698414827430.0,16,-0.30000000000000004,1.1,-3.7,-1.0,10.3,-0.6000000000000001,-96.3,1.8,15.399999999999999
1698414827444.0,16,-0.1,1.5,-4.3,-0.5,10.700000000000001,-1.3,-88.9,0.2,11.4
1698414827461.0,16,0.4,2.6,-3.8000000000000003,0.0,11.700000000000001,-0.5,-98.2,-2.1999999999999997,8.200000000000001
1698414827478.0,16,0.30000000000000004,2.6,-0.1,0.2,12.0,1.1,-105.80000000000001,-1.8,6.1000000000000005
1698414827494.0,16,0.1,2.4000000000000004,1.1,-0.2,11.3,4.9,-106.80000000000001,-13.6,0.9
1698414827511.0,16,-0.7000000000000001,2.6,3.4000000000000004,-1.0,11.4,7.6000000000000005,-108.2,-8.0,0.4
1698414827528.0,16,-0.5,2.7,3.6,-0.8,11.4,7.9,-99.0,-5.2,7.9
1698414827545.0,16,0.9,2.9000000000000004,4.2,0.6000000000000001,11.5,8.8,-91.2,4.6000000000000005,11.9
1698414827562.0,16,1.3,2.5,4.4,1.1,11.100000000000001,9.200000000000001,-84.4,10.600000000000001,10.600000000000001
1698414827578.0,16,-0.30000000000000004,2.6,5.0,0.0,10.700000000000001,9.8,-69.10000000000001,15.7,10.8
1698414827594.0,16,-0.4,2.9000000000000004,5.1000000000000005,-0.7000000000000001,11.3,10.3,-55.300000000000004,19.200000000000003,13.700000000000001
1698414827611.0,16,0.2,2.8000000000000003,4.9,0.0,11.100000000000001,10.3,-41.2,15.100000000000001,10.9
1698414827628.0,16,0.4,2.4000000000000004,4.800000000000001,0.1,10.700000000000001,10.3,-33.6,12.100000000000001,9.600000000000001
1698414827644.0,16,0.0,1.9000000000000001,4.6000000000000005,-0.2,10.200000000000001,10.200000000000001,-17.3,6.000000000000001,8.4
1698414827661.0,16,-0.1,1.3,4.2,-0.30000000000000004,9.600000000000001,9.9,1.8,2.1,6.2
1698414827678.0,16,-0.2,0.8,3.6,-0.4,9.1,9.3,12.000000000000002,0.30000000000000004,4.800000000000001
1698414827694.0,16,0.30000000000000004,-0.1,2.6,0.1,8.3,8.200000000000001,29.800000000000004,-2.9,2.9
1698414827711.0,16,0.5,-0.8,1.7000000000000002,0.30000000000000004,7.7,7.2,46.7,-4.1000000000000005,-0.9
1698414827728.0,16,0.2,-1.5,1.0,0.0,7.0,6.300000000000001,61.50000000000001,-4.1000000000000005,-3.9
1698414827745.0,16,-0.1,-2.0,0.7000000000000001,-0.30000000000000004,6.6000000000000005,6.0,68.7,-3.9,-5.2
1698414827761.0,16,-0.30000000000000004,-3.0,0.2,-0.5,5.7,5.2,83.7,-6.3,-6.2
1698414827777.0,16,-0.2,-3.1,0.1,-0.4,5.6000000000000005,5.0,91.10000000000001,-7.6,-6.6000000000000005
1698414827794.0,16,-0.1,-3.7,-0.7000000000000001,-0.30000000000000004,5.2,3.8000000000000003,105.7,-7.8,-6.8
1698414827812.0,16,0.0,-4.2,-1.4000000000000001,-0.2,4.800000000000001,2.8000000000000003,117.1,-7.500000000000001,-7.1000000000000005
1698414827828.0,16,0.1,-4.6000000000000005,-2.1,-0.1,4.6000000000000005,1.7000000000000002,124.0,-6.2,-6.8
1698414827845.0,16,0.0,-4.9,-2.0,-0.2,4.3,1.6,125.2,-4.2,-6.4
1698414827862.0,16,0.2,-5.7,-1.8,0.0,3.6,1.4000000000000001,126.20000000000002,-1.2000000000000002,-5.500000000000001
1698414827877.0,16,0.4,-6.300000000000001,-1.3,0.1,3.1,1.4000000000000001,125.2,1.5000000000000002,-5.9
1698414827894.0,16,0.30000000000000004,-6.5,-1.0,0.0,2.9000000000000004,1.5,124.8,2.1,-6.7
1698414827911.0,16,-0.1,-6.9,-0.8,-0.4,2.6,1.3,122.7,0.9,-7.8
1698414827928.0,16,-0.1,-6.9,-0.4,-0.5,2.6,1.3,116.5,-2.3000000000000003,-8.700000000000001
1698414827944.0,16,-0.1,-6.800000000000001,-0.1,-0.5,2.7,1.4000000000000001,111.30000000000001,-3.1,-9.4
1698414827961.0,16,0.0,-6.300000000000001,0.4,-0.30000000000000004,3.2,1.6,96.2,-4.2,-10.700000000000001
1698414827978.0,16,0.1,-5.800000000000001,0.7000000000000001,-0.30000000000000004,3.7,1.7000000000000002,87.3,-4.6000000000000005,-11.4
1698414827995.0,16,0.6000000000000001,-4.6000000000000005,1.5,0.1,4.800000000000001,2.3000000000000003,67.80000000000001,0.4,-9.8
1698414828012.0,16,1.0,-3.7,2.4000000000000004,0.6000000000000001,5.800000000000001,3.0,46.900000000000006,-0.2,-9.200000000000001
1698414828028.0,16,1.1,-2.7,2.8000000000000003,0.7000000000000001,6.7,3.4000000000000004,36.4,1.8,-7.0
1698414828045.0,16,1.2000000000000002,-0.8,3.4000000000000004,0.7000000000000001,8.6,4.0,17.3,8.200000000000001,-3.7000000000000006
1698414828062.0,16,0.5,1.0,3.9000000000000004,0.0,10.5,4.4,5.1,14.600000000000001,-1.2000000000000002
1698414828079.0,16,0.0,1.7000000000000002,3.9000000000000004,-0.5,11.200000000000001,4.4,2.5,15.7,-0.1
1698414828094.0,16,-0.9,1.5,3.7,-1.3,10.9,4.3,-3.6,12.8,0.7
1698414828112.0,16,-0.7000000000000001,1.2000000000000002,3.3000000000000003,-1.2000000000000002,10.700000000000001,4.0,-20.6,5.9,1.5000000000000002
1698414828127.0,16,0.0,0.6000000000000001,3.1,-0.4,10.0,3.9000000000000004,-38.5,-1.8,-0.30000000000000004
1698414828145.0,16,0.4,-0.4,2.4000000000000004,-0.1,9.1,3.3000000000000003,-45.2,-3.7000000000000006,-2.5
1698414828162.0,16,0.8,-1.9000000000000001,1.1,0.30000000000000004,7.6000000000000005,2.2,-58.60000000000001,-7.400000000000001,-6.8
1698414828178.0,16,0.9,-2.3000000000000003,0.6000000000000001,0.30000000000000004,6.7,1.4000000000000001,-66.2,-6.5,-8.600000000000001
1698414828195.0,16,0.6000000000000001,-2.8000000000000003,0.1,0.1,6.5,1.6,-81.8,1.4,-9.4
1698414828211.0,16,0.30000000000000004,-2.8000000000000003,0.4,-0.30000000000000004,6.4,2.2,-98.10000000000001,8.200000000000001,-4.800000000000001
1698414828228.0,16,-0.30000000000000004,-3.6,0.7000000000000001,-0.8,5.6000000000000005,2.8000000000000003,-106.9,9.9,0.30000000000000004
1698414828244.0,16,-0.5,-4.4,0.0,-1.0,4.7,2.2,-106.9,9.3,3.1
1698414828261.0,16,-0.7000000000000001,-5.9,-1.7000000000000002,-1.2000000000000002,3.1,0.9,-106.3,-9.1,7.2
1698414828278.0,16,-0.6000000000000001,-5.9,-2.1,-1.1,2.9000000000000004,0.9,-114.00000000000001,-5.2,9.0
1698414828296.0,16,-0.4,-5.4,-1.3,-0.9,3.3000000000000003,1.8,-116.00000000000001,-7.6,10.1
1698414828312.0,16,-0.1,-3.8000000000000003,-1.4000000000000001,-0.5,4.800000000000001,2.0,-111.30000000000001,-16.700000000000003,13.100000000000001
1698414828328.0,16,0.1,-4.1000000000000005,-1.4000000000000001,-0.30000000000000004,4.3,2.3000000000000003,-102.10000000000001,-11.9,16.6
1698414828344.0,16,0.2,-4.4,-1.4000000000000001,-0.1,3.9000000000000004,2.5,-96.5,-8.3,18.3
1698414828361.0,16,0.2,-3.4000000000000004,-2.0,-0.1,4.800000000000001,2.1,-87.7,-7.9,21.200000000000003
1698414828378.0,16,0.1,-1.6,-1.4000000000000001,-0.1,6.4,2.9000000000000004,-78.7,-9.4,22.000000000000004
1698414828395.0,16,0.0,-0.9,-0.9,-0.2,7.0,3.5,-73.60000000000001,-7.0,19.3
1698414828412.0,16,-0.2,-0.7000000000000001,0.0,-0.4,7.1000000000000005,4.6000000000000005,-61.599999999999994,0.5,11.1
1698414828428.0,16,-0.1,-0.7000000000000001,1.3,-0.30000000000000004,7.1000000000000005,6.1000000000000005,-46.4,9.3,6.7
1698414828444.0,16,-0.2,-0.30000000000000004,2.0,-0.4,7.4,6.800000000000001,-37.800000000000004,12.700000000000001,5.4
1698414828462.0,16,-0.2,1.0,1.9000000000000001,-0.30000000000000004,8.700000000000001,6.800000000000001,-18.6,21.1,4.3999999999999995
1698414828478.0,16,0.1,2.4000000000000004,2.7,-0.1,10.100000000000001,7.6000000000000005,-8.9,27.5,4.300000000000001
1698414828495.0,16,0.4,2.7,2.5,0.6000000000000001,10.200000000000001,7.6000000000000005,1.2000000000000002,19.8,3.7000000000000006
1698414828512.0,16,0.5,2.3000000000000003,3.0,0.30000000000000004,10.100000000000001,7.9,5.6,13.200000000000001,0.7
1698414828528.0,16,0.5,2.4000000000000004,3.4000000000000004,0.30000000000000004,10.200000000000001,8.4,16.1,12.000000000000002,-6.6000000000000005
1698414828544.0,16,0.8,2.8000000000000003,4.1000000000000005,0.5,10.600000000000001,9.0,19.700000000000003,10.2,-8.200000000000001
1698414828561.0,16,0.8,2.4000000000000004,3.4000000000000004,0.5,10.200000000000001,8.3,25.2,3.9,-7.500000000000001
1698414828579.0,16,-0.1,0.1,2.4000000000000004,-0.4,8.0,7.2,27.5,2.0,-9.8
1698414828595.0,16,-0.2,0.2,2.4000000000000004,-0.5,8.200000000000001,7.2,34.7,-1.3,-9.5
1698414828612.0,16,-0.7000000000000001,4.5,0.7000000000000001,-1.0,12.5,5.4,39.8,7.6,-7.1000000000000005
1698414828628.0,16,-0.4,8.700000000000001,4.6000000000000005,-1.0,15.100000000000001,8.0,43.300000000000004,0.7,-4.800000000000001
1698414828646.0,16,-0.1,10.100000000000001,4.3,-0.5,18.400000000000002,8.8,36.1,-5.9,-1.3
1698414828663.0,16,0.0,9.5,3.6,-0.4,17.900000000000002,8.0,37.900000000000006,-9.5,-1.4
1698414828678.0,16,0.0,6.2,0.1,-0.4,14.8,4.4,44.00000000000001,-8.9,-5.2
1698414828695.0,16,0.1,4.9,-1.5,-0.2,13.5,2.8000000000000003,45.800000000000004,-6.8,-9.0
1698414828711.0,16,-0.4,-0.2,-3.4000000000000004,-0.8,8.5,0.7000000000000001,55.2,-9.0,-20.1
1698414828728.0,16,-0.7000000000000001,-0.5,-4.5,-1.1,8.3,-0.6000000000000001,64.0,-11.1,-15.100000000000001
1698414828744.0,16,-0.5,-1.1,-4.9,-1.0,7.7,-1.1,68.3,-10.9,-11.8
1698414828762.0,16,-0.6000000000000001,-0.7000000000000001,-4.6000000000000005,-1.0,8.200000000000001,-1.1,69.5,-9.0,-10.2
1698414828778.0,16,-0.30000000000000004,-0.7000000000000001,-3.2,-0.8,8.200000000000001,0.1,63.300000000000004,-9.700000000000001,-4.1000000000000005
1698414828795.0,16,-0.1,0.1,-2.6,-0.6000000000000001,9.0,0.6000000000000001,63.2,-9.700000000000001,-2.7
1698414828812.0,16,0.0,1.2000000000000002,-1.6,-0.5,10.3,1.4000000000000001,55.0,-7.500000000000001,-1.8
1698414828828.0,16,-0.30000000000000004,2.4000000000000004,-1.3,-0.7000000000000001,11.5,1.5,39.699999999999996,-7.9,-0.30000000000000004
1698414828844.0,16,-0.30000000000000004,2.8000000000000003,-2.1,-0.8,12.0,0.6000000000000001,20.4,-6.5,-0.9
1698414828863.0,16,-0.30000000000000004,3.0,-1.7000000000000002,-0.8,12.100000000000001,1.0,10.3,-6.9,-0.30000000000000004
1698414828878.0,16,-0.30000000000000004,2.8000000000000003,-1.9000000000000001,-0.7000000000000001,12.0,0.8,-1.8,-5.7,1.0
1698414828894.0,16,-0.30000000000000004,2.7,-2.0,-0.8,11.9,0.7000000000000001,-10.600000000000001,-4.2,2.3000000000000003
1698414828911.0,16,-0.5,2.0,-2.0,-0.9,11.200000000000001,0.8,-24.1,-3.4,5.300000000000001
1698414828928.0,16,-0.6000000000000001,1.4000000000000001,-2.7,-1.0,10.600000000000001,0.2,-34.300000000000004,-1.0,8.0
1698414828944.0,16,-0.30000000000000004,0.7000000000000001,-2.8000000000000003,-0.8,9.9,0.1,-42.0,0.0,8.9
1698414828961.0,16,-0.30000000000000004,0.6000000000000001,-2.7,-0.7000000000000001,9.8,0.30000000000000004,-46.800000000000004,1.2000000000000002,9.600000000000001
1698414828978.0,16,-0.30000000000000004,0.8,-2.8000000000000003,-0.6000000000000001,9.8,0.4,-56.5,2.9,11.2
1698414828994.0,16,-0.2,0.9,-3.0,-0.6000000000000001,10.0,0.30000000000000004,-59.5,6.000000000000001,11.1
1698414829011.0,16,0.0,1.2000000000000002,-2.8000000000000003,-0.30000000000000004,10.200000000000001,0.7000000000000001,-73.60000000000001,10.0,10.2
1698414829028.0,16,0.0,1.3,-3.1,-0.30000000000000004,10.200000000000001,0.6000000000000001,-81.6,9.700000000000001,9.5
1698414829044.0,16,-0.30000000000000004,1.6,-2.1,-0.6000000000000001,10.4,1.8,-73.50000000000001,4.7,8.5
1698414829061.0,16,-0.4,1.7000000000000002,-1.8,-0.6000000000000001,10.5,2.2,-68.5,-0.7,8.5
1698414829078.0,16,-0.2,1.6,-1.8,-0.4,10.3,2.4000000000000004,-63.4,-6.2,6.000000000000001
1698414829094.0,16,-0.1,1.9000000000000001,-0.8,-0.30000000000000004,10.5,3.5,-59.80000000000001,-20.4,5.6
1698414829111.0,16,0.30000000000000004,2.3000000000000003,0.8,0.1,10.9,5.2,-63.50000000000001,-22.7,4.6000000000000005
1698414829128.0,16,1.2000000000000002,2.7,3.1,1.1,11.200000000000001,7.800000000000001,-73.10000000000001,-8.1,0.4
1698414829144.0,16,1.0,2.1,4.2,1.1,10.9,8.6,-74.2,0.30000000000000004,1.3
1698414829162.0,16,0.8,1.9000000000000001,4.2,0.7000000000000001,10.200000000000001,9.200000000000001,-64.10000000000001,5.2,8.799999999999999
1698414829180.0,16,0.5,1.9000000000000001,4.9,0.4,10.100000000000001,10.100000000000001,-53.300000000000004,3.5,8.1
1698414829194.0,16,0.7000000000000001,2.1,4.3,0.6000000000000001,10.3,9.700000000000001,-42.5,8.5,3.1
1698414829211.0,16,0.7000000000000001,1.9000000000000001,4.3,0.6000000000000001,10.100000000000001,9.8,-37.4,9.8,2.1
1698414829228.0,16,0.1,1.2000000000000002,4.3,0.0,9.3,9.9,-27.2,9.0,1.7
1698414829244.0,16,-0.2,0.9,4.3,-0.30000000000000004,9.0,10.0,-16.6,4.6000000000000005,2.6
1698414829261.0,16,-0.1,0.9,3.8000000000000003,-0.30000000000000004,9.0,9.0,-3.5,2.1999999999999997,1.3
1698414829278.0,16,-0.2,0.7000000000000001,3.2,-0.30000000000000004,8.8,8.9,2.9,1.5000000000000002,0.4
1698414829294.0,16,-0.1,0.4,2.4000000000000004,-0.2,8.6,8.1,16.700000000000003,0.7,-1.3
1698414829311.0,16,0.0,0.1,2.3000000000000003,-0.1,8.3,8.0,23.3,0.8,-1.9
1698414829328.0,16,0.0,-0.30000000000000004,1.7000000000000002,-0.1,7.9,7.300000000000001,36.3,0.9,-2.7
1698414829344.0,16,0.1,-0.7000000000000001,0.9,-0.1,7.6000000000000005,6.4,50.2,-1.7,-3.0000000000000004
1698414829361.0,16,0.1,-0.8,0.7000000000000001,-0.1,7.5,6.1000000000000005,56.5,-2.0,-4.1000000000000005
1698414829377.0,16,0.0,-1.1,0.1,-0.2,7.4,5.300000000000001,68.5,-2.8,-6.3
1698414829394.0,16,0.0,-1.3,-0.30000000000000004,-0.2,7.2,4.7,78.9,-3.1,-7.400000000000001
1698414829411.0,16,-0.1,-1.6,-0.7000000000000001,-0.30000000000000004,7.1000000000000005,4.0,87.10000000000001,-2.5,-7.6
1698414829428.0,16,0.0,-1.7000000000000002,-0.5,-0.30000000000000004,7.0,4.0,90.0,-4.2,-7.2
1698414829444.0,16,-0.2,-1.7000000000000002,-0.5,-0.4,7.2,3.8000000000000003,96.10000000000001,-3.9,-6.7
1698414829461.0,16,-0.2,-1.8,-0.30000000000000004,-0.5,7.300000000000001,3.7,102.30000000000001,0.6000000000000001,-7.6
1698414829478.0,16,-0.2,-1.8,-0.4,-0.4,7.300000000000001,3.4000000000000004,105.9,0.7,-7.500000000000001
1698414829494.0,16,0.0,-2.1,-0.5,-0.30000000000000004,7.1000000000000005,2.9000000000000004,111.30000000000001,3.3000000000000003,-7.6
1698414829511.0,16,0.1,-2.7,-0.6000000000000001,-0.2,6.7,2.4000000000000004,114.9,8.0,-9.1
1698414829528.0,16,0.0,-2.8000000000000003,-0.30000000000000004,-0.30000000000000004,6.6000000000000005,2.6,115.60000000000001,7.8,-9.0
1698414829544.0,16,0.0,-3.4000000000000004,-0.1,-0.4,6.0,2.4000000000000004,119.0,7.6,-8.200000000000001
1698414829561.0,16,0.0,-3.5,-0.1,-0.4,6.0,2.0,119.0,9.1,-8.799999999999999
1698414829578.0,16,0.1,-3.8000000000000003,0.1,-0.30000000000000004,5.800000000000001,2.0,115.7,8.799999999999999,-7.9
1698414829596.0,16,0.2,-4.1000000000000005,0.4,-0.30000000000000004,5.4,1.9000000000000001,113.5,8.4,-10.5
1698414829611.0,16,0.2,-4.3,0.6000000000000001,-0.30000000000000004,5.2,1.9000000000000001,111.9,8.3,-11.000000000000002
1698414829628.0,16,0.2,-4.7,0.5,-0.30000000000000004,4.9,1.5,107.5,10.600000000000001,-12.000000000000002
1698414829644.0,16,-0.1,-4.6000000000000005,0.9,-0.7000000000000001,5.0,1.5,99.4,9.3,-11.8
1698414829664.0,16,-0.4,-4.6000000000000005,0.9,-1.0,5.0,1.3,87.5,6.1000000000000005,-9.8
1698414829677.0,16,-0.4,-4.2,1.0,-1.1,5.4,1.2000000000000002,79.3,5.0,-8.9
1698414829694.0,16,0.0,-3.4000000000000004,1.6,-0.7000000000000001,6.1000000000000005,1.6,61.8,-1.2000000000000002,-7.2
1698414829712.0,16,0.4,-2.8000000000000003,2.2,-0.30000000000000004,6.7,2.1,41.7,-0.5,-4.6000000000000005
1698414829728.0,16,0.7000000000000001,-2.3000000000000003,2.5,0.1,7.1000000000000005,2.3000000000000003,30.4,0.9,-3.4
1698414829745.0,16,0.7000000000000001,-0.2,2.7,0.0,9.200000000000001,2.5,8.1,1.0,-0.4
1698414829761.0,16,0.8,0.8,3.2,0.1,10.3,3.0,-10.1,2.4000000000000004,3.5
1698414829777.0,16,0.5,0.9,3.3000000000000003,-0.1,10.4,3.2,-18.2,3.1,2.9
1698414829794.0,16,0.1,0.6000000000000001,3.5,-0.6000000000000001,10.0,3.6,-31.0,4.3999999999999995,2.3000000000000003
1698414829811.0,16,-0.5,-0.5,3.2,-1.1,9.0,3.4000000000000004,-36.2,4.1000000000000005,2.1999999999999997
1698414829828.0,16,-0.6000000000000001,-1.0,2.8000000000000003,-1.0,8.1,2.8000000000000003,-45.5,0.7,1.8
1698414829845.0,16,-0.2,-1.9000000000000001,2.1,-0.8,7.6000000000000005,2.6,-55.900000000000006,-9.0,1.0999999999999999
1698414829861.0,16,0.6000000000000001,-3.2,1.3,0.0,6.2,2.0,-66.0,-16.5,-0.9
1698414829879.0,16,1.1,-4.9,0.6000000000000001,0.5,4.5,1.5,-73.10000000000001,-13.6,-3.2
1698414829894.0,16,0.9,-5.4,0.5,0.30000000000000004,4.0,1.5,-76.1,-9.700000000000001,-3.4
1698414829912.0,16,0.1,-5.6000000000000005,-0.1,-0.5,3.7,1.2000000000000002,-79.3,-4.300000000000001,2.1
1698414829928.0,16,-0.4,-5.6000000000000005,-0.7000000000000001,-0.8,3.6,0.9,-79.7,-6.7,6.3
1698414829944.0,16,-0.1,-5.6000000000000005,-0.7000000000000001,-0.7000000000000001,3.5,1.0,-80.9,-13.9,10.8
1698414829962.0,16,0.1,-5.4,-1.1,-0.4,3.6,0.9,-80.0,-9.3,9.3
1698414829978.0,16,0.0,-5.6000000000000005,-1.5,-0.5,3.4000000000000004,0.7000000000000001,-78.5,0.6000000000000001,11.9
1698414829995.0,16,0.0,-5.300000000000001,-1.2000000000000002,-0.4,3.6,1.1,-78.4,-2.6,15.000000000000002
1698414830013.0,16,-0.4,-3.6,-1.4000000000000001,-0.8,5.2,1.1,-74.2,-2.1999999999999997,21.0
1698414830028.0,16,-0.4,-2.6,-1.5,-0.8,6.1000000000000005,1.1,-71.0,-7.300000000000001,23.1
1698414830045.0,16,-0.2,-1.4000000000000001,0.1,-0.5,7.300000000000001,2.9000000000000004,-65.5,-15.100000000000001,24.5
1698414830062.0,16,0.1,0.1,0.0,-0.1,8.700000000000001,3.0,-56.300000000000004,-6.7,23.1
1698414830079.0,16,0.7000000000000001,1.2000000000000002,1.1,0.30000000000000004,9.3,3.5,-53.50000000000001,-6.4,20.900000000000002
1698414830094.0,16,0.6000000000000001,1.4000000000000001,1.0,0.5,10.0,4.3,-44.00000000000001,10.600000000000001,12.8
1698414830112.0,16,0.2,1.8,1.6,0.1,10.4,4.9,-33.0,14.900000000000002,8.1
1698414830128.0,16,-0.1,2.2,1.6,-0.4,11.0,4.800000000000001,-27.2,15.9,5.500000000000001
1698414830144.0,16,-0.30000000000000004,2.6,1.3,-0.4,11.100000000000001,4.800000000000001,-17.200000000000003,19.0,1.4
1698414830161.0,16,0.1,2.4000000000000004,1.9000000000000001,-0.1,10.9,5.4,-11.5,12.6,-0.7
1698414830179.0,16,0.30000000000000004,1.8,2.0,0.2,10.3,5.6000000000000005,-4.2,9.8,-4.5
1698414830194.0,16,0.2,1.2000000000000002,1.9000000000000001,0.0,9.700000000000001,5.5,0.5,10.700000000000001,-5.4
1698414830212.0,16,0.4,0.4,1.0,0.2,9.0,4.6000000000000005,7.9,12.9,-4.9
1698414830228.0,16,0.30000000000000004,-0.8,0.30000000000000004,0.1,7.7,3.8000000000000003,17.9,12.100000000000001,-5.9
1698414830244.0,16,0.2,-1.4000000000000001,0.30000000000000004,-0.1,7.1000000000000005,3.7,19.1,12.6,-6.000000000000001
1698414830261.0,16,-0.1,1.1,1.3,-0.4,9.700000000000001,4.7,22.8,11.3,-4.0
1698414830279.0,16,0.5,9.3,3.5,0.2,18.0,6.9,30.799999999999997,7.699999999999999,-7.0
1698414830294.0,16,1.1,13.9,4.5,0.8,22.700000000000003,7.800000000000001,35.0,6.3,-9.5
1698414830311.0,16,0.7000000000000001,17.900000000000002,3.1,0.4,26.8,6.300000000000001,40.8,-0.7,-10.2
1698414830328.0,16,-0.6000000000000001,9.1,-1.7000000000000002,-1.0,18.2,1.3,51.0,-6.5,-12.6
1698414830344.0,16,-1.1,4.1000000000000005,-3.4000000000000004,-1.5,13.3,-0.4,55.2,-7.9,-14.0
1698414830361.0,16,-1.1,0.8,-3.1,-1.5,10.0,-0.30000000000000004,59.00000000000001,-5.7,-13.4
1698414830378.0,16,-1.0,-0.30000000000000004,-7.1000000000000005,-1.5,9.0,-4.9,159.8,-1.7,-14.800000000000002
1698414830395.0,16,-0.9,-0.4,-6.4,-1.4000000000000001,8.9,-4.3,84.7,-1.3,-7.300000000000001
1698414830411.0,16,0.1,-1.8,-3.2,-0.4,7.6000000000000005,-1.3,56.300000000000004,-8.4,8.700000000000001
1698414830428.0,16,-0.5,-2.4000000000000004,-3.2,-1.0,7.0,-1.6,73.2,-1.4,-5.500000000000001
1698414830444.0,16,-0.8,-1.8,-3.7,-1.3,7.6000000000000005,-2.3000000000000003,75.1,3.1,-5.300000000000001
1698414830461.0,16,-0.2,-0.9,-3.2,-0.8,8.5,-2.0,46.4,-1.5000000000000002,-3.8
1698414830477.0,16,0.2,-0.6000000000000001,-1.5,-0.30000000000000004,8.8,-0.30000000000000004,12.000000000000002,-3.5,1.6
1698414830494.0,16,0.2,0.30000000000000004,-0.8,-0.30000000000000004,9.8,0.4,4.800000000000001,-3.7000000000000006,1.4
1698414830511.0,16,-0.4,5.5,-1.9000000000000001,-0.9,15.0,-0.7000000000000001,0.5,-0.1,0.2
1698414830528.0,16,0.0,1.1,-1.8,-0.5,10.600000000000001,-0.6000000000000001,-19.700000000000003,-2.0,1.7
1698414830544.0,16,0.0,0.5,-2.0,-0.5,10.0,-0.8,-29.400000000000002,-1.5000000000000002,2.3000000000000003
1698414830561.0,16,-0.2,2.6,-1.8,-0.7000000000000001,12.0,-0.4,-62.0,-5.7,1.5000000000000002
1698414830578.0,16,-0.5,6.0,-2.2,-1.0,15.5,-0.6000000000000001,-82.50000000000001,-7.400000000000001,2.4000000000000004
1698414830595.0,16,-0.4,3.5,-2.6,-0.9,13.0,-0.8,-92.30000000000001,-8.5,6.8
1698414830611.0,16,-0.2,-1.3,-1.6,-0.7000000000000001,8.1,0.5,-108.8,-8.3,9.0
1698414830628.0,16,-0.5,0.6000000000000001,-2.1,-0.9,9.9,0.30000000000000004,-118.80000000000001,-12.100000000000001,10.4
1698414830645.0,16,-0.30000000000000004,-0.8,-2.6,-0.7000000000000001,8.5,0.2,-111.10000000000001,-7.500000000000001,10.9
1698414830661.0,16,-0.2,-0.5,-2.9000000000000004,-0.6000000000000001,8.700000000000001,0.0,-66.5,-0.4,9.5
1698414830677.0,16,-0.1,0.5,-2.7,-0.5,9.700000000000001,0.4,-93.3,-2.9,9.700000000000001
1698414830696.0,16,-0.1,0.8,-2.6,-0.5,9.700000000000001,0.8,-88.4,-2.6,9.700000000000001
1698414830711.0,16,0.0,1.3,-2.5,-0.30000000000000004,10.3,1.0,-70.5,0.30000000000000004,8.200000000000001
1698414830728.0,16,0.0,1.5,-1.2000000000000002,-0.30000000000000004,10.4,2.4000000000000004,-74.89999999999999,-6.7,6.000000000000001
1698414830745.0,16,0.2,1.8,-0.4,0.0,10.600000000000001,3.4000000000000004,-64.9,-3.2,3.2
1698414830761.0,16,0.30000000000000004,1.7000000000000002,0.0,0.0,10.5,4.0,-68.7,-7.0,2.9
1698414830778.0,16,0.4,1.7000000000000002,1.1,0.2,10.4,5.2,-67.3,-9.0,2.7
1698414830794.0,16,0.4,1.6,2.0,0.2,10.200000000000001,6.4,-71.0,-10.1,2.0
1698414830811.0,16,0.4,1.5,2.8000000000000003,0.2,10.100000000000001,7.300000000000001,-73.10000000000001,-9.3,2.5
1698414830828.0,16,0.7000000000000001,1.4000000000000001,4.1000000000000005,0.6000000000000001,9.8,8.9,-67.60000000000001,-4.6000000000000005,3.8
1698414830844.0,16,1.1,1.6,4.6000000000000005,0.9,10.0,9.600000000000001,-56.1,2.1,-0.2
1698414830861.0,16,0.9,1.6,4.1000000000000005,0.8,10.0,9.200000000000001,-48.7,3.8,-2.1999999999999997
1698414830878.0,16,0.0,1.8,3.8000000000000003,-0.1,10.100000000000001,9.0,-35.8,3.8,-1.9
1698414830894.0,16,-0.2,1.7000000000000002,3.7,-0.4,10.0,9.0,-30.299999999999997,4.0,-2.4000000000000004
1698414830912.0,16,0.1,1.5,3.8000000000000003,-0.1,9.8,9.200000000000001,-19.700000000000003,3.1,-2.6
1698414830928.0,16,0.2,1.5,3.4000000000000004,0.1,9.700000000000001,8.8,-8.799999999999999,1.9,-2.0
1698414830944.0,16,0.1,1.1,3.1,-0.1,9.3,8.5,2.8,2.6,-4.2
1698414830961.0,16,0.1,0.8,2.9000000000000004,-0.1,9.1,8.3,9.4,3.5,-4.9
1698414830978.0,16,0.4,0.4,2.1,0.2,8.700000000000001,7.5,21.700000000000003,4.9,-4.300000000000001
1698414830994.0,16,0.1,0.1,1.6,-0.2,8.5,7.0,32.5,7.8,-5.1
1698414831011.0,16,-0.1,-0.1,1.1,-0.30000000000000004,8.200000000000001,6.4,38.1,8.799999999999999,-5.4
1698414831028.0,16,-0.4,-0.8,0.7000000000000001,-0.7000000000000001,7.6000000000000005,5.800000000000001,48.9,9.5,-5.2
1698414831044.0,16,-0.30000000000000004,-1.5,0.30000000000000004,-0.6000000000000001,7.0,5.300000000000001,60.5,8.700000000000001,-4.9
1698414831061.0,16,-0.30000000000000004,-1.6,0.0,-0.6000000000000001,7.0,5.0,66.3,8.0,-4.9
1698414831078.0,16,-0.2,-1.8,-0.4,-0.6000000000000001,6.9,4.3,77.9,7.400000000000001,-4.300000000000001
1698414831095.0,16,-0.2,-2.1,-0.30000000000000004,-0.6000000000000001,6.7,4.1000000000000005,89.4,7.400000000000001,-3.5
1698414831111.0,16,-0.1,-2.1,-0.7000000000000001,-0.5,6.800000000000001,3.6,94.80000000000001,8.3,-3.4
1698414831128.0,16,0.0,-2.0,-0.7000000000000001,-0.5,7.0,3.2,101.50000000000001,11.5,-4.2
1698414831144.0,16,0.1,-2.1,-0.8,-0.30000000000000004,7.1000000000000005,2.8000000000000003,108.10000000000001,13.700000000000001,-6.3
1698414831161.0,16,0.2,-1.9000000000000001,-0.6000000000000001,-0.30000000000000004,7.300000000000001,2.8000000000000003,110.50000000000001,12.9,-7.6
1698414831178.0,16,0.1,-1.8,-0.1,-0.4,7.5,3.0,115.90000000000002,12.000000000000002,-9.200000000000001
1698414831196.0,16,-0.2,-1.7000000000000002,-0.30000000000000004,-0.7000000000000001,7.7,2.3000000000000003,121.19999999999999,8.4,-9.8
1698414831211.0,16,-0.2,-1.8,-0.5,-0.8,7.7,2.0,122.60000000000001,7.2,-9.600000000000001
1698414831227.0,16,0.0,-2.3000000000000003,-0.6000000000000001,-0.7000000000000001,7.2,1.4000000000000001,122.10000000000001,9.3,-10.5
1698414831244.0,16,0.2,-3.3000000000000003,-0.4,-0.5,6.300000000000001,1.3,119.60000000000002,9.8,-14.200000000000001
1698414831262.0,16,0.2,-3.5,-0.1,-0.5,6.1000000000000005,1.3,117.4,9.600000000000001,-15.8
1698414831279.0,16,-0.1,-3.9000000000000004,0.0,-0.9,5.7,1.0,114.3,7.9,-16.0
1698414831295.0,16,-0.2,-4.3,-0.30000000000000004,-1.1,5.300000000000001,0.4,107.5,4.3999999999999995,-9.9
1698414831312.0,16,-0.30000000000000004,-4.5,0.0,-1.1,5.1000000000000005,0.5,101.7,3.5,-6.9
1698414831328.0,16,-0.30000000000000004,-4.9,0.6000000000000001,-1.2000000000000002,4.7,0.8,87.2,-0.6000000000000001,-3.8
1698414831344.0,16,0.1,-4.7,1.1,-0.7000000000000001,4.800000000000001,1.0,68.7,1.0,-1.7
1698414831362.0,16,0.30000000000000004,-4.2,1.4000000000000001,-0.5,5.300000000000001,1.2000000000000002,59.300000000000004,1.2000000000000002,-0.5
1698414831378.0,16,0.5,-3.0,1.9000000000000001,-0.30000000000000004,6.5,1.7000000000000002,40.5,-0.8,2.6
1698414831395.0,16,0.5,-1.4000000000000001,2.3000000000000003,-0.30000000000000004,8.0,2.0,23.6,-5.4,5.500000000000001
1698414831411.0,16,0.5,-0.2,2.7,-0.30000000000000004,9.200000000000001,2.4000000000000004,7.0,-6.2,6.8
1698414831429.0,16,0.6000000000000001,0.6000000000000001,2.8000000000000003,-0.2,10.0,2.5,0.7,-4.300000000000001,7.400000000000001
1698414831444.0,16,0.8,0.8,3.1,0.0,10.200000000000001,2.8000000000000003,-9.9,-2.3000000000000003,5.8
1698414831461.0,16,0.8,0.7000000000000001,2.9000000000000004,0.0,10.200000000000001,2.6,-14.0,-0.2,4.5
1698414831478.0,16,0.4,-0.30000000000000004,2.4000000000000004,-0.4,9.200000000000001,2.3000000000000003,-25.1,4.9,1.3
1698414831494.0,16,0.2,-1.3,2.0,-0.5,8.200000000000001,2.0,-39.6,5.2,1.5000000000000002
1698414831513.0,16,0.2,-1.9000000000000001,1.7000000000000002,-0.6000000000000001,7.6000000000000005,1.8,-47.400000000000006,3.2,1.0999999999999999
1698414831528.0,16,0.30000000000000004,-3.4000000000000004,1.3,-0.5,6.1000000000000005,1.6,-60.400000000000006,-0.1,-0.8
1698414831544.0,16,0.2,-3.9000000000000004,0.9,-0.6000000000000001,5.5,1.4000000000000001,-72.5,3.3000000000000003,-0.9
1698414831562.0,16,-0.2,-3.7,0.9,-1.0,5.7,1.7000000000000002,-83.2,8.1,3.5
1698414831578.0,16,-0.6000000000000001,-3.4000000000000004,0.6000000000000001,-1.3,5.9,1.5,-86.0,4.7,5.9
1698414831595.0,16,-0.6000000000000001,-3.6,-0.2,-1.3,5.6000000000000005,1.0,-86.7,-6.4,7.300000000000001
1698414831612.0,16,-0.30000000000000004,-4.0,-0.2,-1.0,5.2,1.1,-88.7,-14.800000000000002,6.2
1698414831629.0,16,0.30000000000000004,-4.3,-0.5,-0.4,4.800000000000001,1.2000000000000002,-93.80000000000001,-17.8,2.3000000000000003
1698414831645.0,16,0.4,-3.9000000000000004,-1.2000000000000002,-0.2,5.1000000000000005,0.8,-97.7,-13.4,1.3
1698414831664.0,16,0.2,-3.5,-1.0,-0.5,5.4,1.3,-103.5,-11.1,6.8
1698414831680.0,16,0.1,-2.9000000000000004,-1.0,-0.6000000000000001,6.0,1.4000000000000001,-106.00000000000001,-9.1,11.1
1698414831695.0,16,-0.2,-1.3,-0.7000000000000001,-0.8,7.5,2.1,-108.0,-14.0,15.8
1698414831714.0,16,-0.4,-0.6000000000000001,-0.1,-0.8,8.1,3.0,-107.2,-15.8,17.599999999999998
1698414831729.0,16,-0.2,-0.5,0.5,-0.7000000000000001,8.1,3.7,-105.7,-18.6,18.1
1698414831745.0,16,-0.2,-0.5,-0.2,-0.6000000000000001,8.0,3.3000000000000003,-99.10000000000001,-16.5,16.700000000000003
1698414831761.0,16,0.1,-0.30000000000000004,0.5,-0.2,8.1,4.3,-92.10000000000001,-19.0,14.900000000000002
1698414831779.0,16,-0.1,0.1,0.1,-0.4,8.3,4.1000000000000005,-77.80000000000001,-3.7000000000000006,12.4
1698414831794.0,16,-0.30000000000000004,0.2,0.1,-0.5,8.4,4.3,-70.2,-1.4,12.100000000000001
1698414831811.0,16,-0.4,0.1,1.2000000000000002,-0.6000000000000001,8.3,5.5,-54.3,0.30000000000000004,10.3
1698414831829.0,16,-0.4,0.2,0.9,-0.6000000000000001,8.3,5.300000000000001,-44.4,2.6,8.9
1698414831845.0,16,-0.2,0.8,1.6,-0.4,8.8,6.1000000000000005,-27.0,0.2,6.8
1698414831861.0,16,-0.2,1.8,1.6,-0.30000000000000004,9.8,6.2,-10.1,-6.4,4.6000000000000005
1698414831880.0,16,-0.1,2.3000000000000003,2.2,-0.2,10.3,6.800000000000001,3.4,-2.0,1.2000000000000002
1698414831894.0,16,0.1,2.3000000000000003,2.1,0.0,10.4,6.6000000000000005,7.500000000000001,2.5,-1.0999999999999999
1698414831913.0,16,0.30000000000000004,2.3000000000000003,2.4000000000000004,0.1,10.4,7.0,11.6,4.800000000000001,-2.7
1698414831928.0,16,0.6000000000000001,1.8,1.7000000000000002,0.30000000000000004,10.0,6.300000000000001,22.000000000000004,14.600000000000001,-2.1
1698414831944.0,16,0.6000000000000001,1.7000000000000002,2.1,0.4,9.9,6.5,30.7,12.3,-1.9
1698414831962.0,16,0.6000000000000001,1.9000000000000001,2.7,0.30000000000000004,10.100000000000001,7.1000000000000005,39.6,7.1000000000000005,-4.6000000000000005
1698414831978.0,16,0.30000000000000004,2.4000000000000004,2.7,0.1,10.700000000000001,7.0,43.2,6.8,-6.4
1698414831995.0,16,0.5,3.0,1.9000000000000001,0.2,11.4,6.0,47.300000000000004,4.0,-7.0
1698414832013.0,16,0.6000000000000001,3.0,1.4000000000000001,0.30000000000000004,11.5,5.5,44.5,3.7000000000000006,-6.8
1698414832028.0,16,0.7000000000000001,3.3000000000000003,1.1,0.4,11.9,5.1000000000000005,42.900000000000006,3.5,-5.8
1698414832044.0,16,0.5,4.3,1.0,0.2,12.9,4.9,41.4,1.9,-2.7
1698414832060.0,16,0.1,4.2,0.5,-0.2,12.9,4.2,41.300000000000004,1.0999999999999999,-0.1
1698414832079.0,16,-0.1,3.1,-0.5,-0.4,11.9,3.1,38.5,1.0,-0.1
1698414832094.0,16,-0.2,2.4000000000000004,-0.7000000000000001,-0.5,11.3,2.8000000000000003,39.2,-0.30000000000000004,0.1
1698414832111.0,16,-0.1,1.8,-1.4000000000000001,-0.5,10.700000000000001,2.1,41.9,-1.8,-0.4
1698414832128.0,16,-0.2,1.3,-1.6,-0.5,10.200000000000001,1.7000000000000002,41.7,-2.0,-1.0999999999999999
1698414832144.0,16,-0.30000000000000004,0.6000000000000001,-2.3000000000000003,-0.7000000000000001,9.5,0.9,41.5,-3.1,-5.8
1698414832163.0,16,-0.6000000000000001,0.4,-3.2,-0.9,9.4,-0.1,37.2,-1.9,-6.5
1698414832178.0,16,-0.5,0.6000000000000001,-2.7,-0.9,9.600000000000001,0.30000000000000004,36.4,-4.800000000000001,-6.2
1698414832195.0,16,-0.5,0.7000000000000001,-2.4000000000000004,-0.9,9.8,0.5,36.5,-7.6,-5.8
1698414832211.0,16,-0.4,0.9,-2.4000000000000004,-0.8,10.100000000000001,0.4,29.200000000000003,-9.8,-5.500000000000001
1698414832229.0,16,-0.30000000000000004,1.2000000000000002,-2.3000000000000003,-0.7000000000000001,10.4,0.4,27.5,-9.9,-5.2
1698414832245.0,16,0.0,1.8,-2.4000000000000004,-0.4,11.0,0.2,19.3,-8.4,-3.8
1698414832264.0,16,0.1,2.1,-1.7000000000000002,-0.30000000000000004,11.3,0.8,8.4,-6.7,-1.8
1698414832279.0,16,0.0,1.9000000000000001,-1.9000000000000001,-0.4,11.200000000000001,0.6000000000000001,-1.5000000000000002,-5.4,-0.6000000000000001
1698414832295.0,16,-0.1,1.8,-2.1,-0.4,11.100000000000001,0.5,-7.1000000000000005,-5.1,-0.1
1698414832311.0,16,-0.2,1.7000000000000002,-2.0,-0.6000000000000001,11.0,0.6000000000000001,-15.2,-4.2,1.3
1698414832329.0,16,-0.30000000000000004,1.6,-2.3000000000000003,-0.7000000000000001,10.8,0.30000000000000004,-20.6,-4.2,1.9
1698414832345.0,16,-0.4,1.1,-1.9000000000000001,-0.7000000000000001,10.4,0.7000000000000001,-31.3,-3.2,1.9
1698414832362.0,16,-0.4,1.0,-2.0,-0.8,10.200000000000001,0.8,-36.0,-1.8,4.7
1698414832380.0,16,-0.4,1.1,-2.0,-0.8,10.200000000000001,0.9,-45.0,-2.0,6.000000000000001
1698414832397.0,16,-0.30000000000000004,1.0,-2.0,-0.7000000000000001,10.100000000000001,0.9,-50.7,-1.9,6.7
1698414832411.0,16,-0.30000000000000004,1.1,-2.3000000000000003,-0.6000000000000001,10.200000000000001,0.8,-58.800000000000004,-0.4,7.1000000000000005
1698414832428.0,16,-0.1,1.5,-2.3000000000000003,-0.4,10.5,0.9,-59.5,0.8,7.6
1698414832445.0,16,-0.1,1.6,-2.6,-0.4,10.600000000000001,0.8,-57.5,-2.0,9.1
1698414832461.0,16,0.2,1.4000000000000001,-2.3000000000000003,-0.1,10.3,1.3,-69.00000000000001,-3.1,7.500000000000001
1698414832478.0,16,-0.1,1.2000000000000002,-2.3000000000000003,-0.30000000000000004,10.100000000000001,1.5,-64.9,-8.1,6.2
1698414832495.0,16,0.0,1.3,-2.2,-0.2,10.100000000000001,1.6,-66.2,-7.1000000000000005,4.0
1698414832512.0,16,0.4,1.6,-0.9,0.2,10.4,3.1,-66.2,-6.4,1.7
1698414832528.0,16,0.5,1.8,-0.1,0.30000000000000004,10.5,4.1000000000000005,-66.1,-10.4,0.7
1698414832545.0,16,0.5,2.5,1.3,0.4,11.100000000000001,5.6000000000000005,-69.00000000000001,-10.8,1.0
1698414832562.0,16,0.5,2.8000000000000003,2.3000000000000003,0.30000000000000004,11.3,7.9,-75.2,-5.2,-0.8
1698414832578.0,16,0.6000000000000001,2.4000000000000004,4.0,0.4,11.0,8.5,-72.4,-3.1,0.5
1698414832596.0,16,0.8,2.4000000000000004,4.2,0.6000000000000001,10.8,9.1,-63.6,4.1000000000000005,4.300000000000001
1698414832612.0,16,0.7000000000000001,2.3000000000000003,4.1000000000000005,0.6000000000000001,10.600000000000001,9.1,-58.00000000000001,7.1000000000000005,4.6000000000000005
1698414832629.0,16,0.1,2.0,4.1000000000000005,0.0,10.3,9.4,-39.699999999999996,14.900000000000002,2.4000000000000004
1698414832645.0,16,-0.1,2.1,3.8000000000000003,-0.2,10.3,9.1,-33.300000000000004,14.3,2.4000000000000004
1698414832662.0,16,0.1,2.0,3.8000000000000003,-0.1,10.200000000000001,9.200000000000001,-21.200000000000003,14.100000000000001,1.0
1698414832678.0,16,0.1,2.0,3.3000000000000003,-0.1,10.200000000000001,8.8,-9.200000000000001,12.700000000000001,-1.5000000000000002
1698414832695.0,16,0.0,1.8,3.3000000000000003,-0.2,10.0,8.8,-3.3000000000000003,11.6,-2.3000000000000003
1698414832711.0,16,-0.2,1.1,2.9000000000000004,-0.4,9.3,8.4,12.000000000000002,10.8,-3.7000000000000006
1698414832727.0,16,0.1,0.6000000000000001,2.5,-0.2,8.8,8.0,29.200000000000003,13.4,-5.1
1698414832745.0,16,0.0,0.4,2.1,-0.30000000000000004,8.700000000000001,7.5,38.1,14.100000000000001,-6.000000000000001
1698414832761.0,16,-0.2,0.1,1.5,-0.6000000000000001,8.5,6.800000000000001,54.2,16.2,-7.1000000000000005
1698414832778.0,16,-0.4,-0.4,0.4,-0.8,8.1,5.5,69.5,18.400000000000002,-6.2
1698414832796.0,16,-0.30000000000000004,-1.4000000000000001,0.2,-0.8,7.800000000000001,5.300000000000001,76.0,17.5,-5.2
1698414832812.0,16,-0.2,-1.4000000000000001,0.1,-0.7000000000000001,7.300000000000001,4.800000000000001,88.7,15.8,-4.300000000000001
1698414832827.0,16,0.1,-1.2000000000000002,-0.1,-0.4,7.7,4.4,94.4,15.000000000000002,-4.7
1698414832845.0,16,0.2,-1.4000000000000001,-0.5,-0.30000000000000004,7.6000000000000005,3.7,106.7,15.6,-6.3
1698414832862.0,16,0.30000000000000004,-2.0,-1.0,-0.2,7.1000000000000005,2.9000000000000004,114.5,14.900000000000002,-6.5
1698414832878.0,16,0.0,-2.9000000000000004,-1.2000000000000002,-0.6000000000000001,6.300000000000001,2.3000000000000003,118.50000000000001,16.2,-6.8
1698414832894.0,16,-0.2,-3.3000000000000003,-0.9,-0.8,6.300000000000001,2.2,118.60000000000001,16.700000000000003,-6.8
1698414832911.0,16,-0.1,-3.7,-0.6000000000000001,-0.8,5.7,2.3000000000000003,119.1,16.1,-6.3
1698414832928.0,16,0.1,-3.9000000000000004,-0.6000000000000001,-0.7000000000000001,5.6000000000000005,1.9000000000000001,118.80000000000001,17.0,-4.800000000000001
1698414832944.0,16,0.0,-4.0,-0.6000000000000001,-0.7000000000000001,5.5,1.7000000000000002,118.00000000000001,15.399999999999999,-4.0
1698414832962.0,16,0.0,-4.2,-0.2,-0.7000000000000001,5.300000000000001,1.7000000000000002,113.0,13.6,-3.7000000000000006
1698414832979.0,16,0.1,-4.5,-0.1,-0.7000000000000001,5.1000000000000005,1.5,106.7,10.8,-2.9
1698414832995.0,16,0.0,-4.6000000000000005,0.0,-0.8,5.0,1.4000000000000001,102.30000000000001,9.700000000000001,-2.9
1698414833011.0,16,0.1,-4.5,0.4,-0.7000000000000001,5.0,1.5,91.60000000000001,7.9,-2.7
1698414833028.0,16,0.0,-4.4,1.0,-0.8,5.2,1.8,80.9,2.9,-2.9
1698414833044.0,16,-0.1,-4.2,1.2000000000000002,-0.9,5.4,1.8,70.10000000000001,1.9,-1.7
1698414833061.0,16,-0.2,-4.3,1.4000000000000001,-1.0,5.2,1.9000000000000001,65.2,-1.2000000000000002,-1.0
1698414833077.0,16,-0.1,-3.8000000000000003,1.6,-0.9,5.7,1.9000000000000001,53.7,-3.3000000000000003,1.2000000000000002
1698414833095.0,16,0.1,-3.3000000000000003,2.1,-0.8,5.9,2.0,46.900000000000006,-6.2,1.5000000000000002
1698414833114.0,16,0.2,-3.0,2.3000000000000003,-0.6000000000000001,6.5,2.5,31.4,-12.100000000000001,1.5000000000000002
1698414833128.0,16,0.6000000000000001,-0.8,2.9000000000000004,-0.2,8.700000000000001,3.0,15.9,-12.200000000000001,2.6
1698414833144.0,16,0.8,0.2,3.2,0.1,9.700000000000001,3.3000000000000003,1.5000000000000002,-9.3,3.1
1698414833162.0,16,0.8,0.6000000000000001,3.3000000000000003,0.1,10.100000000000001,3.5,-5.300000000000001,-9.3,2.7
1698414833178.0,16,0.5,0.8,3.2,-0.2,10.3,3.4000000000000004,-19.400000000000002,-6.5,0.9
1698414833197.0,16,-0.1,0.0,2.6,-0.8,9.4,3.0,-33.400000000000006,-3.4,0.4
1698414833212.0,16,-0.30000000000000004,-0.7000000000000001,2.4000000000000004,-1.1,8.8,2.8000000000000003,-40.0,-3.3000000000000003,0.8
1698414833228.0,16,-0.5,-1.7000000000000002,1.3,-1.2000000000000002,7.800000000000001,1.9000000000000001,-52.0,-6.5,2.4000000000000004
1698414833244.0,16,-0.30000000000000004,-2.9000000000000004,0.2,-1.0,6.5,1.0,-68.0,-8.5,3.6
1698414833262.0,16,0.0,-3.5,0.2,-0.8,5.800000000000001,1.1,-75.60000000000001,-11.000000000000002,4.0
1698414833279.0,16,0.1,-4.5,0.6000000000000001,-0.6000000000000001,4.800000000000001,1.8,-85.80000000000001,-12.000000000000002,3.2
1698414833295.0,16,0.1,-4.7,0.4,-0.6000000000000001,4.6000000000000005,1.8,-86.9,-12.4,3.2
1698414833312.0,16,0.1,-4.9,-0.7000000000000001,-0.6000000000000001,4.3,0.9,-88.00000000000001,-19.400000000000002,4.800000000000001
1698414833327.0,16,0.1,-5.1000000000000005,-0.9,-0.5,4.0,1.0,-91.7,-25.1,5.1
1698414833345.0,16,0.1,-5.0,-1.2000000000000002,-0.5,4.0,1.0,-93.80000000000001,-20.5,4.1000000000000005
1698414833361.0,16,0.1,-4.800000000000001,-1.6,-0.5,4.2,0.8,-94.5,-16.5,4.800000000000001
1698414833377.0,16,0.2,-4.2,-1.1,-0.4,4.6000000000000005,1.6,-96.5,-17.0,8.3
1698414833394.0,16,-0.4,-3.4000000000000004,-1.1,-0.9,5.300000000000001,1.9000000000000001,-95.0,-5.6,11.4
1698414833410.0,16,-0.30000000000000004,-2.4000000000000004,-0.6000000000000001,-0.7000000000000001,6.1000000000000005,2.6,-92.2,-9.200000000000001,12.9
1698414833427.0,16,-0.2,-2.1,-0.4,-0.7000000000000001,6.4,3.0,-85.9,-22.6,14.0
1698414833444.0,16,-0.5,-1.6,-0.9,-0.9,6.800000000000001,2.6,-76.4,-6.4,14.200000000000001
1698414833461.0,16,-0.30000000000000004,-1.2000000000000002,-1.4000000000000001,-0.7000000000000001,7.2,2.2,-72.6,-5.7,15.000000000000002
1698414833479.0,16,0.0,-1.0,-0.7000000000000001,-0.30000000000000004,7.300000000000001,3.2,-65.89999999999999,-11.2,13.700000000000001
1698414833495.0,16,0.0,-0.8,0.9,-0.2,7.4,4.9,-54.800000000000004,-5.300000000000001,9.600000000000001
1698414833511.0,16,-0.1,-0.2,0.6000000000000001,-0.4,7.9,4.7,-47.6,-2.8,9.1
1698414833528.0,16,-0.1,0.8,0.7000000000000001,-0.30000000000000004,8.9,4.9,-35.0,-1.0999999999999999,8.9
1698414833545.0,16,-0.1,1.0,1.6,-0.30000000000000004,9.1,5.9,-22.1,1.5000000000000002,6.5
1698414833562.0,16,-0.1,1.4000000000000001,2.1,-0.30000000000000004,9.5,6.4,-16.2,1.0,5.9
1698414833577.0,16,-0.2,2.6,2.6,-0.4,10.700000000000001,6.9,-3.7000000000000006,2.4000000000000004,7.699999999999999
1698414833595.0,16,0.0,3.4000000000000004,3.2,-0.1,11.5,7.6000000000000005,5.500000000000001,-5.1,8.700000000000001
1698414833611.0,16,0.1,4.3,3.0,-0.1,12.5,7.4,13.4,-4.0,8.0
1698414833628.0,16,0.6000000000000001,4.2,2.8000000000000003,0.5,12.4,7.2,17.1,-2.1,6.3
1698414833645.0,16,1.7000000000000002,4.7,3.4000000000000004,1.6,12.9,7.7,19.8,0.6000000000000001,1.5000000000000002
1698414833662.0,16,1.8,5.4,2.9000000000000004,1.7000000000000002,13.700000000000001,7.300000000000001,20.900000000000002,2.6,-1.3
1698414833679.0,16,0.7000000000000001,5.7,3.4000000000000004,0.6000000000000001,14.100000000000001,7.7,24.7,1.6,-7.500000000000001
1698414833694.0,16,0.4,5.5,2.8000000000000003,0.30000000000000004,13.9,7.0,24.000000000000004,4.1000000000000005,-9.600000000000001
1698414833711.0,16,0.7000000000000001,5.1000000000000005,1.7000000000000002,0.5,13.700000000000001,5.9,31.7,3.8,-10.0
1698414833727.0,16,0.6000000000000001,4.6000000000000005,0.7000000000000001,0.4,13.200000000000001,4.800000000000001,36.3,3.2,-9.8
1698414833745.0,16,0.0,3.5,-1.0,-0.2,12.200000000000001,2.9000000000000004,45.7,2.1999999999999997,-9.600000000000001
1698414833761.0,16,0.1,2.5,-2.6,-0.1,12.0,1.8,48.50000000000001,2.1999999999999997,-7.8
1698414833779.0,16,0.30000000000000004,1.9000000000000001,-2.9000000000000004,0.1,10.700000000000001,0.8,44.7,4.9,-4.800000000000001
1698414833794.0,16,0.2,0.4,-3.4000000000000004,0.0,9.3,0.2,37.2,6.6000000000000005,-4.1000000000000005
1698414833811.0,16,0.1,0.4,-3.1,-0.2,9.3,0.4,32.2,5.8,-3.2
1698414833828.0,16,-0.7000000000000001,0.6000000000000001,-3.3000000000000003,-1.0,9.5,0.1,28.700000000000003,3.2,-3.4
1698414833845.0,16,-0.5,1.0,-2.8000000000000003,-0.8,9.9,0.5,20.5,3.0000000000000004,-2.1
1698414833861.0,16,-0.6000000000000001,1.7000000000000002,-2.4000000000000004,-0.9,10.600000000000001,0.8,14.700000000000001,-1.4,-0.9
1698414833878.0,16,-0.5,2.1,-2.7,-0.8,11.100000000000001,0.5,10.600000000000001,-0.8,0.1
1698414833894.0,16,-0.4,2.2,-3.0,-0.7000000000000001,11.200000000000001,0.2,4.0,1.5000000000000002,0.7
1698414833913.0,16,-0.6000000000000001,2.6,-2.3000000000000003,-0.9,11.700000000000001,0.8,-4.9,1.3,1.0
1698414833927.0,16,-0.7000000000000001,2.6,-2.5,-1.0,11.600000000000001,0.7000000000000001,-10.600000000000001,0.1,1.0
1698414833944.0,16,-0.6000000000000001,2.1,-2.7,-0.9,11.200000000000001,0.5,-24.8,-0.4,2.0
1698414833963.0,16,-0.6000000000000001,1.8,-2.8000000000000003,-0.9,10.8,0.4,-25.5,-1.6,4.6000000000000005
1698414833978.0,16,-0.5,1.8,-2.9000000000000004,-0.8,10.8,0.4,-31.6,-1.8,5.4
1698414833995.0,16,-0.30000000000000004,1.3,-2.3000000000000003,-0.6000000000000001,10.3,1.1,-47.5,-3.7000000000000006,5.1
1698414834011.0,16,-0.1,1.1,-2.1,-0.4,10.0,1.5,-48.9,-6.5,4.7
1698414834028.0,16,0.0,0.8,-2.1,-0.30000000000000004,9.700000000000001,1.5,-51.2,-4.6000000000000005,4.300000000000001
1698414834044.0,16,-0.2,0.5,-2.6,-0.5,9.3,1.2000000000000002,-54.1,-6.2,4.6000000000000005
1698414834061.0,16,-0.1,1.1,-2.1,-0.4,9.9,1.8,-47.5,-3.5,5.500000000000001
1698414834077.0,16,-0.2,1.5,-1.9000000000000001,-0.30000000000000004,10.200000000000001,2.2,-48.2,-7.500000000000001,5.4
1698414834094.0,16,-0.2,1.5,-1.6,-0.4,10.200000000000001,2.5,-52.2,-10.8,4.800000000000001
1698414834111.0,16,0.5,2.0,-0.30000000000000004,0.30000000000000004,10.600000000000001,3.9000000000000004,-47.5,-9.4,3.2
1698414834128.0,16,0.6000000000000001,2.4000000000000004,0.6000000000000001,0.5,11.0,4.9,-50.7,-10.3,2.4000000000000004
1698414834144.0,16,0.0,2.5,2.4000000000000004,-0.1,11.0,6.9,-55.4,-15.8,4.1000000000000005
1698414834161.0,16,0.30000000000000004,2.3000000000000003,2.3000000000000003,0.2,10.700000000000001,7.0,-62.7,-12.4,6.000000000000001
1698414834178.0,16,0.4,1.9000000000000001,3.6,0.4,10.3,8.4,-63.2,-13.4,5.4
1698414834195.0,16,1.2000000000000002,1.9000000000000001,4.2,1.1,10.3,9.3,-54.3,-6.8,1.8
1698414834212.0,16,1.0,2.4000000000000004,4.1000000000000005,1.0,10.700000000000001,9.200000000000001,-48.800000000000004,-2.9,0.0
1698414834228.0,16,0.6000000000000001,2.2,4.0,0.30000000000000004,10.100000000000001,9.3,-36.9,3.6,-1.3
1698414834244.0,16,-0.1,1.8,4.0,-0.1,10.0,9.4,-25.1,5.300000000000001,-1.5000000000000002
1698414834261.0,16,-0.1,1.9000000000000001,4.1000000000000005,-0.1,10.100000000000001,9.5,-18.8,6.6000000000000005,-1.0
1698414834277.0,16,0.30000000000000004,2.3000000000000003,3.7,0.30000000000000004,10.5,9.1,-5.1,6.2,-0.5
1698414834294.0,16,0.30000000000000004,2.0,3.4000000000000004,0.2,10.200000000000001,8.9,9.0,6.8,-1.3
1698414834311.0,16,0.0,1.3,2.8000000000000003,-0.1,9.600000000000001,8.3,24.8,9.4,-4.2
1698414834327.0,16,0.0,0.8,2.4000000000000004,-0.1,9.200000000000001,7.800000000000001,41.9,12.700000000000001,-5.6
1698414834344.0,16,0.0,0.7000000000000001,2.0,-0.1,9.200000000000001,7.300000000000001,50.4,15.9,-6.2
1698414834361.0,16,0.1,0.5,1.6,-0.1,9.0,6.7,67.7,17.599999999999998,-7.2
1698414834377.0,16,0.0,-0.2,0.5,-0.30000000000000004,8.5,5.4,85.2,19.9,-8.799999999999999
1698414834395.0,16,-0.1,-0.7000000000000001,0.30000000000000004,-0.4,8.0,5.0,92.50000000000001,19.9,-9.3
1698414834412.0,16,-0.2,-1.4000000000000001,-0.7000000000000001,-0.6000000000000001,7.5,3.7,105.5,19.200000000000003,-9.3
1698414834429.0,16,-0.6000000000000001,-1.4000000000000001,-1.3,-1.0,7.7,2.8000000000000003,112.5,16.2,-10.0
1698414834446.0,16,-0.7000000000000001,-1.6,-1.2000000000000002,-1.1,7.5,2.6,114.9,15.6,-8.4
1698414834463.0,16,-0.4,-2.2,-0.9,-0.8,7.1000000000000005,2.6,119.1,15.2,-6.000000000000001
1698414834478.0,16,0.0,-3.1,-0.7000000000000001,-0.5,6.300000000000001,2.4000000000000004,123.00000000000001,12.700000000000001,-6.4
1698414834496.0,16,0.30000000000000004,-3.2,-0.6000000000000001,-0.4,6.2,2.3000000000000003,124.3,10.700000000000001,-7.0
1698414834512.0,16,0.4,-3.2,-0.5,-0.2,6.300000000000001,2.0,126.0,9.600000000000001,-8.1
1698414834528.0,16,0.30000000000000004,-3.4000000000000004,-0.4,-0.5,5.9,1.6,127.69999999999999,7.6,-9.0
1698414834545.0,16,0.0,-4.0,-0.5,-0.6000000000000001,5.6000000000000005,1.4000000000000001,127.69999999999999,7.1000000000000005,-9.4
1698414834563.0,16,0.0,-4.2,-0.7000000000000001,-0.6000000000000001,5.4,0.9,127.00000000000001,5.2,-9.4
1698414834579.0,16,-0.1,-4.800000000000001,-0.4,-0.8,4.800000000000001,0.8,121.6,2.1999999999999997,-9.8
1698414834595.0,16,-0.2,-5.1000000000000005,0.0,-0.9,4.5,0.8,114.6,3.4,-11.000000000000002
1698414834613.0,16,0.0,-5.300000000000001,0.2,-0.7000000000000001,4.3,0.7000000000000001,105.5,-0.4,-10.600000000000001
1698414834628.0,16,0.1,-5.4,0.30000000000000004,-0.6000000000000001,4.2,0.6000000000000001,99.5,-0.4,-10.600000000000001
1698414834645.0,16,0.2,-5.4,0.6000000000000001,-0.6000000000000001,4.1000000000000005,0.6000000000000001,83.30000000000001,0.9,-9.3
1698414834661.0,16,0.1,-4.800000000000001,1.0,-0.7000000000000001,4.7,0.8,61.8,3.5,-5.1
1698414834677.0,16,0.0,-4.0,1.2000000000000002,-0.8,5.4,0.9,50.800000000000004,4.0,-2.4000000000000004
1698414834695.0,16,0.1,-2.3000000000000003,1.6,-0.7000000000000001,7.2,1.2000000000000002,27.2,4.6000000000000005,1.0
1698414834712.0,16,0.5,-0.2,2.7,-0.2,9.3,2.3000000000000003,0.9,1.5000000000000002,5.7
1698414834729.0,16,0.6000000000000001,1.6,3.7,-0.2,11.100000000000001,3.4000000000000004,-16.8,-5.0,7.8
1698414834745.0,16,0.5,0.4,4.0,0.1,10.9,3.6,-19.0,-8.4,6.8
1698414834761.0,16,0.2,-0.6000000000000001,4.0,-0.5,8.9,3.8000000000000003,-26.1,-10.700000000000001,3.8
1698414834779.0,16,0.30000000000000004,-1.2000000000000002,3.7,-0.4,8.3,3.7,-36.5,-10.9,5.300000000000001
1698414834795.0,16,0.5,-1.1,3.3000000000000003,0.1,8.200000000000001,2.9000000000000004,-44.4,-12.200000000000001,5.300000000000001
1698414834812.0,16,0.9,-1.7000000000000002,2.6,0.2,7.800000000000001,2.8000000000000003,-49.7,-12.5,4.5
1698414834828.0,16,0.8,-3.2,1.5,0.1,6.300000000000001,1.9000000000000001,-54.9,-13.3,2.4000000000000004
1698414834845.0,16,0.5,-3.8000000000000003,0.6000000000000001,-0.2,5.6000000000000005,1.1,-60.7,-9.4,2.1
1698414834862.0,16,-0.30000000000000004,-4.3,-0.8,-0.9,5.1000000000000005,0.0,-75.7,-1.7,5.6
1698414834880.0,16,-0.4,-4.2,-0.6000000000000001,-1.0,5.1000000000000005,0.30000000000000004,-83.7,-0.6000000000000001,8.700000000000001
1698414834895.0,16,0.2,-2.9000000000000004,0.30000000000000004,-0.6000000000000001,5.9,1.4000000000000001,-93.2,-10.3,16.2
1698414834911.0,16,0.30000000000000004,-2.9000000000000004,-0.1,-0.2,6.300000000000001,1.4000000000000001,-94.5,-11.700000000000001,15.8
1698414834928.0,16,0.8,-3.9000000000000004,-0.8,0.30000000000000004,5.2,1.0,-97.7,-4.3999999999999995,9.600000000000001
1698414834945.0,16,0.7000000000000001,-4.0,-0.4,0.2,5.1000000000000005,1.5,-100.50000000000001,-4.5,7.699999999999999
1698414834962.0,16,-0.2,-3.2,-1.2000000000000002,-0.6000000000000001,5.800000000000001,1.0,-102.2,3.5,8.600000000000001
1698414834977.0,16,-0.7000000000000001,-2.7,-0.9,-1.1,6.2,1.7000000000000002,-104.2,6.2,14.200000000000001
1698414834994.0,16,-0.9,-2.2,-0.5,-1.2000000000000002,6.6000000000000005,2.4000000000000004,-101.30000000000001,8.0,19.500000000000004
1698414835011.0,16,-0.5,-2.4000000000000004,-0.6000000000000001,-0.8,6.300000000000001,2.4000000000000004,-96.5,4.3999999999999995,21.1
1698414835028.0,16,0.30000000000000004,-2.1,-0.30000000000000004,0.1,6.5,3.0,-90.4,-13.8,22.900000000000002
1698414835045.0,16,0.4,-1.2000000000000002,-0.7000000000000001,0.2,7.300000000000001,2.8000000000000003,-81.8,-8.600000000000001,19.8
1698414835061.0,16,0.5,-1.0,-0.8,0.4,7.4,2.9000000000000004,-76.7,-8.600000000000001,17.8
1698414835077.0,16,0.30000000000000004,-0.8,0.1,0.2,7.6000000000000005,3.9000000000000004,-64.50000000000001,3.4,12.5
1698414835094.0,16,-0.5,-0.30000000000000004,0.0,-0.5,7.9,4.0,-50.0,16.1,11.2
1698414835111.0,16,-0.8,0.0,0.30000000000000004,-0.9,8.200000000000001,4.4,-42.2,13.0,11.4
1698414835127.0,16,-1.0,0.5,0.7000000000000001,-1.1,8.6,4.9,-25.900000000000002,3.7000000000000006,11.000000000000002
1698414835144.0,16,0.0,0.9,1.5,-0.1,9.1,5.7,-9.9,-4.300000000000001,9.5
1698414835161.0,16,0.4,1.3,1.6,0.30000000000000004,9.4,5.9,-2.8,-5.4,7.6
1698414835177.0,16,0.7000000000000001,2.4000000000000004,2.4000000000000004,0.7000000000000001,10.600000000000001,6.6000000000000005,8.1,0.1,2.3000000000000003
1698414835196.0,16,0.6000000000000001,3.1,2.4000000000000004,0.6000000000000001,11.3,6.6000000000000005,18.1,6.9,-3.2
1698414835212.0,16,0.5,3.2,2.7,0.5,11.4,6.9,20.6,9.4,-6.000000000000001
1698414835227.0,16,-0.1,3.2,2.7,-0.2,11.5,6.800000000000001,23.6,11.4,-11.3
1698414835244.0,16,-0.4,3.3000000000000003,2.7,-0.5,11.700000000000001,6.800000000000001,23.5,9.0,-12.9
1698414835261.0,16,-0.2,3.7,2.5,-0.30000000000000004,12.100000000000001,6.6000000000000005,23.400000000000002,8.0,-12.6
1698414835278.0,16,0.4,4.1000000000000005,2.1,0.2,12.600000000000001,6.1000000000000005,24.8,3.4,-13.5
1698414835295.0,16,0.5,5.1000000000000005,2.4000000000000004,0.30000000000000004,13.600000000000001,6.300000000000001,20.8,-2.6,-12.100000000000001
1698414835311.0,16,0.5,5.800000000000001,2.0,0.30000000000000004,14.4,6.0,21.5,-3.4,-10.700000000000001
1698414835328.0,16,0.7000000000000001,5.9,1.1,0.5,14.600000000000001,5.0,24.5,-5.0,-5.1
1698414835344.0,16,0.5,5.5,-0.5,0.2,14.200000000000001,3.3000000000000003,26.400000000000002,-4.9,-3.2
1698414835361.0,16,0.4,5.0,-1.1,0.2,13.700000000000001,2.7,26.200000000000003,-2.1,-4.5
1698414835377.0,16,0.1,2.1,-1.9000000000000001,-0.2,11.0,1.7000000000000002,35.6,-0.8,-4.0
1698414835395.0,16,-0.4,0.7000000000000001,-3.8000000000000003,-0.6000000000000001,9.600000000000001,-0.30000000000000004,35.6,1.2000000000000002,-6.000000000000001
1698414835413.0,16,-0.9,0.0,-4.3,-1.2000000000000002,8.9,-1.0,32.0,-0.7,-5.7
1698414835428.0,16,-0.8,0.30000000000000004,-3.9000000000000004,-1.1,9.3,-0.6000000000000001,32.5,-2.5,-4.300000000000001
1698414835444.0,16,-0.7000000000000001,0.4,-2.8000000000000003,-1.0,9.4,0.4,26.200000000000003,-4.800000000000001,-3.2
1698414835461.0,16,-0.6000000000000001,0.8,-2.1,-1.0,9.9,1.0,23.400000000000002,-7.500000000000001,-2.5
1698414835478.0,16,-0.4,1.7000000000000002,-2.4000000000000004,-0.7000000000000001,10.700000000000001,0.6000000000000001,15.5,-8.1,-1.9
1698414835494.0,16,-0.1,2.5,-2.3000000000000003,-0.4,11.600000000000001,0.8,1.2000000000000002,-4.6000000000000005,-1.2000000000000002
1698414835511.0,16,-0.2,2.5,-2.4000000000000004,-0.5,11.600000000000001,0.6000000000000001,-6.8,-3.2,-0.8
1698414835527.0,16,-0.30000000000000004,2.5,-2.1,-0.6000000000000001,11.5,0.9,-14.900000000000002,-2.6,0.2
1698414835544.0,16,-0.4,2.2,-2.4000000000000004,-0.7000000000000001,11.200000000000001,0.7000000000000001,-26.400000000000002,-0.6000000000000001,2.0
1698414835561.0,16,-0.4,1.9000000000000001,-2.6,-0.7000000000000001,11.0,0.5,-30.100000000000005,0.1,3.2
1698414835577.0,16,-0.6000000000000001,1.7000000000000002,-3.2,-0.9,10.700000000000001,0.0,-37.800000000000004,1.8,6.9
1698414835594.0,16,-0.7000000000000001,1.4000000000000001,-2.6,-1.0,10.4,0.7000000000000001,-52.6,-0.8,9.700000000000001
1698414835611.0,16,-0.2,0.9,-2.4000000000000004,-0.4,9.9,1.1,-54.2,-5.0,8.799999999999999
1698414835628.0,16,-0.1,0.8,-2.4000000000000004,-0.4,9.700000000000001,1.2000000000000002,-55.1,-3.7000000000000006,7.6
1698414835644.0,16,-0.30000000000000004,0.9,-3.2,-0.5,9.8,0.5,-48.300000000000004,-3.9,7.400000000000001
1698414835661.0,16,-0.2,1.2000000000000002,-2.9000000000000004,-0.4,10.0,0.8,-48.7,-8.4,6.7
1698414835678.0,16,0.0,1.8,-1.5,-0.2,10.600000000000001,2.4000000000000004,-46.900000000000006,-12.000000000000002,2.0
1698414835694.0,16,0.7000000000000001,2.3000000000000003,0.0,0.5,11.0,4.0,-49.7,-6.000000000000001,-1.0999999999999999
1698414835711.0,16,0.6000000000000001,2.4000000000000004,0.7000000000000001,0.5,11.100000000000001,4.800000000000001,-49.9,-11.1,-1.9
1698414835727.0,16,-0.2,3.2,2.0,-0.30000000000000004,11.9,6.300000000000001,-57.699999999999996,-10.1,-1.6
1698414835746.0,16,-0.1,3.0,3.5,-0.30000000000000004,11.600000000000001,7.9,-66.9,-15.5,0.7
1698414835761.0,16,1.3,2.2,4.2,1.2000000000000002,10.8,8.9,-57.400000000000006,-2.9,4.0
1698414835778.0,16,1.2000000000000002,2.2,3.9000000000000004,1.1,10.700000000000001,8.700000000000001,-45.2,5.7,0.7
1698414835797.0,16,1.0,2.1,3.7,0.9,10.600000000000001,8.6,-37.5,11.6,-2.1999999999999997
1698414835812.0,16,0.5,2.0,3.9000000000000004,0.4,10.5,8.9,-22.900000000000002,16.900000000000002,-3.5
1698414835828.0,16,-0.30000000000000004,2.2,3.8000000000000003,-0.5,10.600000000000001,8.9,-8.700000000000001,14.500000000000002,-2.3000000000000003
1698414835845.0,16,-0.30000000000000004,2.2,3.3000000000000003,-0.5,10.600000000000001,8.4,4.2,9.3,-2.7
1698414835863.0,16,-0.30000000000000004,1.6,3.0,-0.5,10.100000000000001,8.1,17.400000000000002,6.000000000000001,-1.6
1698414835879.0,16,-0.1,1.2000000000000002,2.8000000000000003,-0.30000000000000004,9.700000000000001,7.800000000000001,24.8,6.4,-1.9
1698414835894.0,16,0.30000000000000004,0.7000000000000001,2.1,0.0,9.3,7.0,39.9,10.3,-5.500000000000001
1698414835912.0,16,0.30000000000000004,0.5,1.8,0.0,9.200000000000001,6.6000000000000005,55.900000000000006,9.3,-6.8
1698414835928.0,16,0.1,0.5,1.8,-0.2,9.3,6.5,64.0,9.9,-6.8
1698414835944.0,16,-0.1,0.2,1.0,-0.4,9.0,5.5,80.6,8.1,-7.400000000000001
1698414835961.0,16,-0.2,-0.4,0.5,-0.6000000000000001,8.6,4.7,94.80000000000001,7.1000000000000005,-7.8
1698414835977.0,16,-0.2,-0.6000000000000001,0.2,-0.6000000000000001,8.5,4.2,101.30000000000001,6.6000000000000005,-7.300000000000001
1698414835994.0,16,-0.2,-0.8,-0.1,-0.6000000000000001,8.4,3.6,112.2,4.9,-7.300000000000001
1698414836011.0,16,0.0,-1.3,-0.5,-0.5,8.3,3.2,116.69999999999999,5.9,-7.1000000000000005
1698414836029.0,16,0.1,-1.8,-0.5,-0.4,7.6000000000000005,2.6,121.9,3.0000000000000004,-7.0
1698414836044.0,16,0.0,-1.9000000000000001,-0.4,-0.5,7.7,2.3000000000000003,123.30000000000001,1.9,-7.1000000000000005
1698414836061.0,16,0.0,-2.9000000000000004,-0.30000000000000004,-0.5,6.7,2.0,123.70000000000002,2.7,-7.6
1698414836078.0,16,0.1,-3.4000000000000004,-0.30000000000000004,-0.5,6.300000000000001,1.8,123.4,2.0,-8.200000000000001
1698414836094.0,16,0.30000000000000004,-4.0,0.1,-0.2,5.6000000000000005,1.8,120.9,2.1,-9.8
1698414836111.0,16,0.5,-4.4,0.0,-0.1,5.4,1.6,120.10000000000001,4.3999999999999995,-11.6
1698414836129.0,16,0.5,-4.800000000000001,0.0,-0.1,4.9,1.1,117.20000000000002,6.9,-14.900000000000002
1698414836144.0,16,0.2,-4.9,0.2,-0.4,4.800000000000001,0.9,111.4,8.3,-16.5
1698414836161.0,16,-0.1,-4.9,0.1,-0.8,4.7,0.4,105.00000000000001,7.9,-16.2
1698414836178.0,16,-0.2,-4.9,0.2,-1.0,4.7,0.4,100.10000000000001,8.700000000000001,-15.100000000000001
1698414836194.0,16,-0.30000000000000004,-5.1000000000000005,0.5,-1.1,4.5,0.30000000000000004,88.8,7.9,-12.000000000000002
1698414836211.0,16,-0.2,-5.1000000000000005,0.9,-1.0,4.4,0.5,74.0,6.3,-7.9
1698414836227.0,16,-0.1,-4.9,1.1,-0.9,4.6000000000000005,0.6000000000000001,65.89999999999999,4.6000000000000005,-5.6
1698414836244.0,16,0.30000000000000004,-4.3,1.5,-0.6000000000000001,5.2,0.9,47.6,4.1000000000000005,-1.2000000000000002
1698414836261.0,16,0.30000000000000004,-2.9000000000000004,2.0,-0.5,6.5,1.3,26.700000000000003,3.2,3.9
1698414836279.0,16,0.30000000000000004,-2.0,2.4000000000000004,-0.5,7.4,1.6,15.000000000000002,0.8,6.8
1698414836294.0,16,0.1,-0.30000000000000004,3.0,-0.7000000000000001,9.1,2.3000000000000003,-4.800000000000001,-7.9,10.0
1698414836311.0,16,0.2,0.8,3.1,-0.6000000000000001,10.200000000000001,2.4000000000000004,-14.3,-14.600000000000001,8.9
1698414836328.0,16,0.30000000000000004,0.5,3.1,-0.5,10.0,2.5,-16.900000000000002,-15.100000000000001,7.300000000000001
1698414836345.0,16,0.2,-0.7000000000000001,2.7,-0.5,8.700000000000001,2.2,-20.0,-15.8,4.9
1698414836361.0,16,0.1,-1.1,2.2,-0.6000000000000001,8.3,1.7000000000000002,-23.900000000000002,-14.800000000000002,3.8
1698414836379.0,16,0.30000000000000004,-1.9000000000000001,1.4000000000000001,-0.5,7.800000000000001,1.1,-37.5,-13.3,2.9
1698414836394.0,16,0.4,-2.1,1.3,-0.4,7.300000000000001,1.2000000000000002,-51.0,-17.599999999999998,1.3
1698414836410.0,16,0.0,-2.0,0.9,-0.7000000000000001,7.4,1.0,-61.900000000000006,-13.100000000000001,-0.9
1698414836428.0,16,0.0,-2.1,0.4,-0.7000000000000001,7.300000000000001,0.6000000000000001,-67.60000000000001,-7.6,-0.2
1698414836445.0,16,0.2,-2.6,0.30000000000000004,-0.5,6.800000000000001,0.7000000000000001,-74.0,-11.1,3.3000000000000003
1698414836461.0,16,0.5,-3.3000000000000003,-0.7000000000000001,-0.2,6.0,0.0,-79.6,-8.700000000000001,6.5
1698414836478.0,16,0.7000000000000001,-3.8000000000000003,-0.7000000000000001,0.0,5.5,0.0,-84.80000000000001,-11.1,7.300000000000001
1698414836494.0,16,0.7000000000000001,-4.3,0.1,0.1,4.9,1.1,-92.10000000000001,-10.1,8.600000000000001
1698414836511.0,16,0.0,-4.5,-1.4000000000000001,-0.6000000000000001,4.7,0.0,-95.2,1.0,12.5
1698414836528.0,16,-0.30000000000000004,-4.3,-1.2000000000000002,-0.9,4.6000000000000005,0.0,-98.5,2.3000000000000003,15.8
1698414836545.0,16,-0.4,-4.2,-0.8,-0.9,4.9,1.1,-104.7,-2.0,21.700000000000003
1698414836561.0,16,0.0,-3.6,-0.4,-0.5,5.300000000000001,1.8,-104.9,-9.0,22.900000000000002
1698414836578.0,16,0.0,-3.1,-0.1,-0.4,5.7,2.2,-103.7,-14.4,22.2
1698414836595.0,16,0.5,-2.5,0.1,0.2,6.2,2.7,-94.2,-10.600000000000001,22.000000000000004
1698414836611.0,16,0.9,-1.8,0.1,0.6000000000000001,6.800000000000001,3.0,-86.9,-8.0,20.6
1698414836628.0,16,0.8,-1.4000000000000001,0.2,0.6000000000000001,7.2,3.2,-79.8,-1.0,18.0
1698414836645.0,16,0.9,-0.8,-0.2,0.7000000000000001,7.800000000000001,3.0,-63.10000000000001,11.8,7.2
1698414836661.0,16,-0.2,-0.4,0.1,-0.4,8.1,3.5,-47.400000000000006,19.500000000000004,-3.6
1698414836679.0,16,-0.9,-0.30000000000000004,0.1,-1.7000000000000002,8.4,3.5,-31.0,20.900000000000002,-7.9
1698414836695.0,16,-1.7000000000000002,0.30000000000000004,0.7000000000000001,-2.0,8.8,4.2,-24.000000000000004,14.800000000000002,-9.0
1698414836712.0,16,-1.1,0.9,1.3,-1.4000000000000001,9.3,4.9,-8.3,12.3,-7.9
1698414836728.0,16,-0.4,1.1,2.1,-0.7000000000000001,9.600000000000001,5.6000000000000005,0.0,13.8,-6.000000000000001
1698414836745.0,16,0.6000000000000001,1.9000000000000001,2.2,0.30000000000000004,10.4,5.7,16.400000000000002,17.3,-5.1
1698414836761.0,16,0.30000000000000004,3.1,2.6,-0.1,11.600000000000001,6.1000000000000005,29.700000000000003,17.599999999999998,-6.3
1698414836779.0,16,-0.30000000000000004,4.2,3.5,-0.8,12.8,6.9,38.7,11.2,-7.0
1698414836795.0,16,-0.2,5.0,4.4,-0.7000000000000001,13.600000000000001,7.7,40.2,8.5,-6.6000000000000005
1698414836814.0,16,0.2,7.2,4.3,-0.30000000000000004,16.0,7.5,42.7,6.9,-5.6
1698414836827.0,16,0.7000000000000001,7.300000000000001,3.7,0.2,16.2,6.9,44.7,7.1000000000000005,-6.000000000000001
1698414836844.0,16,0.6000000000000001,7.5,3.1,0.1,16.400000000000002,6.2,40.7,6.5,-5.6
1698414836861.0,16,-0.5,8.200000000000001,0.8,-1.0,17.2,3.8000000000000003,27.5,4.0,-1.7
1698414836878.0,16,-1.1,5.6000000000000005,-0.9,-1.6,14.700000000000001,2.1,6.000000000000001,2.3000000000000003,1.2000000000000002
1698414836895.0,16,-0.8,3.6,-0.6000000000000001,-1.4000000000000001,12.700000000000001,2.4000000000000004,5.8,-0.1,-1.2000000000000002
1698414836911.0,16,-0.4,0.6000000000000001,-2.0,-1.0,9.700000000000001,0.9,17.5,0.4,-2.8
1698414836927.0,16,0.0,-0.4,-2.6,-0.6000000000000001,8.700000000000001,0.1,27.2,3.0000000000000004,-3.7000000000000006
1698414836945.0,16,0.0,-0.30000000000000004,-3.2,-0.6000000000000001,8.9,-0.5,33.400000000000006,3.2,-5.4
1698414836961.0,16,-0.30000000000000004,-0.7000000000000001,-4.5,-0.9,8.5,-1.9000000000000001,38.6,2.0,-6.6000000000000005
1698414836978.0,16,-0.30000000000000004,-0.2,-4.3,-0.9,9.1,-2.7,35.199999999999996,2.4000000000000004,-7.400000000000001
1698414836994.0,16,-0.1,0.0,-2.9000000000000004,-0.8,9.200000000000001,-0.6000000000000001,31.8,0.9,-7.1000000000000005
1698414837012.0,16,-0.2,1.4000000000000001,-2.2,-0.9,10.600000000000001,0.0,37.4,0.2,-5.1
1698414837028.0,16,0.7000000000000001,1.0,-2.2,0.1,10.3,-0.2,70.7,12.200000000000001,1.7
1698414837045.0,16,0.5,2.0,-2.5,-0.1,11.3,-0.6000000000000001,64.9,8.799999999999999,-1.0
1698414837062.0,16,0.0,3.1,-3.2,-0.7000000000000001,12.5,-1.5,19.700000000000003,11.000000000000002,-1.9
1698414837078.0,16,-0.1,2.7,-2.7,-0.8,12.100000000000001,-1.0,6.2,4.0,-1.0999999999999999
1698414837095.0,16,-0.30000000000000004,2.4000000000000004,-3.1,-1.1,10.8,0.1,-12.5,2.9,-4.6000000000000005
1698414837111.0,16,-0.6000000000000001,3.4000000000000004,-3.1,-1.4000000000000001,12.8,-1.2000000000000002,-36.9,-1.5000000000000002,2.8
1698414837127.0,16,-0.5,0.8,-2.7,-1.2000000000000002,10.200000000000001,-0.6000000000000001,-66.3,-4.5,8.700000000000001
1698414837144.0,16,-0.4,0.7000000000000001,-2.4000000000000004,-1.1,10.0,-0.30000000000000004,-77.9,-7.2,9.200000000000001
1698414837160.0,16,-0.1,0.9,-2.5,-0.7000000000000001,10.100000000000001,-0.1,-84.80000000000001,-6.9,9.700000000000001
1698414837178.0,16,-0.2,0.5,-2.2,-0.8,9.700000000000001,0.30000000000000004,-53.8,8.799999999999999,9.0
1698414837194.0,16,-0.4,0.9,-2.9000000000000004,-1.0,10.100000000000001,-0.30000000000000004,-44.7,12.6,9.5
1698414837211.0,16,-0.9,0.8,-3.2,-1.5,9.9,-0.4,-71.0,1.9,10.3
1698414837227.0,16,-0.6000000000000001,1.3,-2.2,-1.1,10.4,0.8,-69.00000000000001,-5.500000000000001,7.6
1698414837244.0,16,-0.2,1.5,-1.9000000000000001,-0.8,10.600000000000001,1.3,-60.1,-3.7000000000000006,6.6000000000000005
1698414837261.0,16,0.0,1.5,-2.2,-0.5,10.600000000000001,1.1,-61.8,-8.600000000000001,5.300000000000001
1698414837277.0,16,-0.4,1.0,-1.5,-0.9,10.0,2.0,-67.3,-12.200000000000001,3.0000000000000004
1698414837294.0,16,-0.2,1.5,-1.2000000000000002,-0.7000000000000001,10.4,2.4000000000000004,-56.2,-10.3,4.1000000000000005
1698414837310.0,16,-0.30000000000000004,1.6,-0.8,-0.8,10.5,2.9000000000000004,-59.00000000000001,-14.4,4.7
1698414837327.0,16,-0.2,2.1,1.1,-0.6000000000000001,10.9,5.0,-60.400000000000006,-26.6,4.5
1698414837344.0,16,0.7000000000000001,2.0,3.1,0.30000000000000004,10.700000000000001,7.300000000000001,-77.2,-25.3,2.0
1698414837361.0,16,1.3,1.8,4.7,0.9,10.5,9.0,-74.8,-15.5,1.6
1698414837377.0,16,1.3,1.7000000000000002,3.9000000000000004,1.0,10.3,8.4,-59.7,-3.1,1.8
1698414837394.0,16,0.7000000000000001,1.5,4.1000000000000005,0.4,10.0,8.8,-53.50000000000001,-1.5000000000000002,0.2
1698414837413.0,16,-0.4,1.9000000000000001,3.7,-0.8,10.4,8.5,-43.2,4.9,-4.2
1698414837429.0,16,0.0,2.2,3.7,-0.4,10.600000000000001,8.6,-31.900000000000002,9.600000000000001,-3.7000000000000006
1698414837444.0,16,0.30000000000000004,1.5,3.5,-0.1,9.9,8.5,-19.8,9.3,-4.800000000000001
1698414837461.0,16,0.1,1.3,3.2,-0.30000000000000004,9.700000000000001,8.3,-13.6,6.5,-6.000000000000001
1698414837478.0,16,0.1,1.2000000000000002,2.9000000000000004,-0.30000000000000004,9.700000000000001,7.9,-1.0,2.7,-6.7
