ts,interval,accx,accy,accz,accGx,accGy,accGz,alpha,beta,gamma
1698413646006.0,16,0.0,0.0,0.0,-0.4,9.5,-0.6000000000000001,-0.7,-0.2,-0.9
1698413646023.0,16,0.0,0.0,0.0,-0.4,9.5,-0.5,-0.9,-0.4,-0.7
1698413646039.0,16,0.0,0.0,0.0,-0.4,9.5,-0.5,-0.6000000000000001,-0.4,-0.8
1698413646055.0,16,0.0,0.0,0.0,-0.4,9.5,-0.5,-0.4,-0.4,-0.7
1698413646072.0,16,0.0,0.0,0.0,-0.4,9.5,-0.6000000000000001,-0.6000000000000001,-0.7,-0.6000000000000001
1698413646089.0,16,0.0,0.0,0.0,-0.4,9.5,-0.6000000000000001,-0.6000000000000001,-0.6000000000000001,-0.7
1698413646106.0,16,0.0,0.0,0.0,-0.4,9.5,-0.6000000000000001,0.0,-1.0999999999999999,-0.8
1698413646122.0,16,0.0,0.0,0.0,-0.4,9.5,-0.6000000000000001,0.1,-1.0,-0.8
1698413646139.0,16,0.0,0.0,0.0,-0.4,9.5,-0.5,0.5,-0.7,-0.8
1698413646156.0,16,0.0,0.0,0.0,-0.4,9.5,-0.6000000000000001,0.4,-0.6000000000000001,-0.8
1698413646172.0,16,0.0,0.0,0.0,-0.4,9.5,-0.6000000000000001,-0.2,-0.4,-0.6000000000000001
1698413646189.0,16,0.0,0.0,0.0,-0.4,9.5,-0.6000000000000001,0.0,-0.30000000000000004,-0.6000000000000001
1698413646205.0,16,0.0,0.0,0.0,-0.4,9.5,-0.6000000000000001,0.2,-0.2,-0.6000000000000001
1698413646222.0,16,0.0,0.0,0.0,-0.4,9.5,-0.6000000000000001,0.2,-0.30000000000000004,-0.4
1698413646240.0,16,0.0,0.0,0.0,-0.4,9.5,-0.5,0.2,-0.4,-0.5
1698413646256.0,16,0.0,0.0,0.0,-0.4,9.5,-0.6000000000000001,0.2,-0.4,-0.4
1698413646273.0,16,0.0,0.0,0.0,-0.4,9.5,-0.6000000000000001,0.30000000000000004,-0.2,-0.5
1698413646289.0,16,0.0,0.0,0.0,-0.4,9.5,-0.6000000000000001,0.2,0.1,-0.6000000000000001
1698413646307.0,16,0.0,0.0,0.0,-0.4,9.5,-0.5,0.4,-0.1,-0.30000000000000004
1698413646322.0,16,0.0,0.0,0.0,-0.4,9.5,-0.6000000000000001,0.2,-0.2,-0.30000000000000004
1698413646339.0,16,0.0,0.0,0.0,-0.4,9.5,-0.6000000000000001,0.2,-0.2,-0.30000000000000004
1698413646357.0,16,0.0,0.0,0.0,-0.4,9.5,-0.6000000000000001,0.4,-0.2,-0.2
1698413646372.0,16,0.0,0.0,0.0,-0.4,9.5,-0.6000000000000001,0.4,-0.1,-0.2
1698413646389.0,16,0.0,0.0,0.0,-0.4,9.5,-0.5,0.7,0.2,-0.2
1698413646405.0,16,0.0,0.0,0.0,-0.4,9.5,-0.6000000000000001,0.7,0.2,0.0
1698413646422.0,16,0.0,0.0,0.0,-0.4,9.5,-0.6000000000000001,0.2,0.2,0.0
1698413646439.0,16,0.0,0.0,0.0,-0.5,9.5,-0.6000000000000001,0.1,0.1,0.0
1698413646456.0,16,0.0,0.0,-0.1,-0.4,9.5,-0.6000000000000001,-0.1,-0.1,0.1
1698413646472.0,16,0.0,0.0,0.0,-0.4,9.5,-0.5,-0.30000000000000004,-0.2,0.2
1698413646488.0,16,0.0,0.0,0.0,-0.4,9.5,-0.6000000000000001,0.1,0.2,0.1
1698413646505.0,16,0.0,0.0,0.0,-0.4,9.600000000000001,-0.6000000000000001,0.0,0.30000000000000004,0.2
1698413646522.0,16,0.0,0.0,0.0,-0.4,9.5,-0.6000000000000001,-0.2,0.0,0.2
1698413646538.0,16,0.0,0.0,0.0,-0.4,9.5,-0.6000000000000001,-0.30000000000000004,-0.1,0.2
1698413646555.0,16,0.0,0.0,0.0,-0.4,9.5,-0.6000000000000001,-0.1,0.0,0.30000000000000004
1698413646572.0,16,0.0,0.0,0.0,-0.4,9.5,-0.6000000000000001,-0.1,0.4,0.30000000000000004
1698413646588.0,16,0.0,0.0,0.0,-0.4,9.5,-0.6000000000000001,-0.2,0.0,0.1
1698413646606.0,16,0.0,0.0,0.0,-0.4,9.5,-0.6000000000000001,-0.5,-0.1,0.0
1698413646623.0,16,0.0,0.0,0.0,-0.4,9.5,-0.6000000000000001,-0.6000000000000001,-0.1,0.2
1698413646638.0,16,0.0,0.0,0.0,-0.4,9.5,-0.6000000000000001,-0.4,-0.1,0.30000000000000004
1698413646656.0,16,0.0,0.0,0.0,-0.4,9.5,-0.6000000000000001,-0.30000000000000004,-0.4,0.2
1698413646672.0,16,0.0,0.0,0.0,-0.4,9.5,-0.6000000000000001,0.0,-0.2,0.2
1698413646688.0,16,0.0,0.0,0.0,-0.4,9.5,-0.6000000000000001,0.5,-0.1,0.2
1698413646706.0,16,0.0,0.0,0.1,-0.4,9.5,-0.5,0.7,0.1,0.2
1698413646722.0,16,0.0,0.0,0.0,-0.4,9.5,-0.6000000000000001,0.5,0.2,0.30000000000000004
1698413646740.0,16,0.0,0.0,0.0,-0.4,9.5,-0.5,0.1,0.2,0.2
1698413646755.0,16,0.0,0.0,0.0,-0.4,9.5,-0.6000000000000001,0.4,0.1,0.0
1698413646772.0,16,0.0,0.0,0.0,-0.4,9.5,-0.6000000000000001,0.8,0.4,0.0
1698413646789.0,16,0.0,0.0,0.0,-0.4,9.5,-0.6000000000000001,0.7,0.6000000000000001,0.1
1698413646805.0,16,0.0,0.0,0.0,-0.4,9.5,-0.6000000000000001,0.5,0.9,0.1
1698413646822.0,16,0.0,0.0,0.0,-0.4,9.5,-0.6000000000000001,-0.2,0.4,0.30000000000000004
1698413646838.0,16,0.0,0.0,0.0,-0.4,9.600000000000001,-0.6000000000000001,0.1,-0.1,0.30000000000000004
1698413646855.0,16,0.0,0.0,0.0,-0.4,9.600000000000001,-0.6000000000000001,0.2,-0.30000000000000004,0.30000000000000004
1698413646872.0,16,0.0,-0.1,0.0,-0.4,9.4,-0.6000000000000001,0.2,-0.1,0.0
1698413646889.0,16,0.0,-0.1,0.0,-0.4,9.4,-0.6000000000000001,0.1,-0.1,0.0
1698413646905.0,16,0.0,0.0,0.0,-0.4,9.5,-0.6000000000000001,0.7,0.0,0.0
1698413646922.0,16,0.0,0.0,0.0,-0.4,9.5,-0.6000000000000001,1.5000000000000002,-0.1,0.0
1698413646939.0,16,0.0,0.0,0.0,-0.4,9.4,-0.6000000000000001,1.6,-0.1,-0.1
1698413646956.0,16,0.0,-0.1,0.0,-0.4,9.4,-0.6000000000000001,1.4,-0.1,-0.1
1698413646972.0,16,0.0,0.0,0.0,-0.4,9.5,-0.6000000000000001,1.9,0.0,-0.2
1698413646990.0,16,0.0,0.0,0.0,-0.4,9.5,-0.6000000000000001,2.1999999999999997,-0.2,-0.30000000000000004
1698413647018.0,16,0.0,0.1,0.0,-0.4,9.600000000000001,-0.6000000000000001,3.1,-0.30000000000000004,-0.5
1698413647022.0,16,0.0,0.1,0.0,-0.4,9.600000000000001,-0.6000000000000001,3.1,-0.30000000000000004,-0.5
1698413647039.0,16,0.1,0.0,0.1,-0.30000000000000004,9.5,-0.6000000000000001,2.8,-0.7,-1.2000000000000002
1698413647056.0,16,0.1,0.0,0.1,-0.4,9.600000000000001,-0.6000000000000001,2.8,-0.30000000000000004,-1.2000000000000002
1698413647072.0,16,0.0,0.1,0.0,-0.4,9.600000000000001,-0.6000000000000001,2.8,-0.2,-0.5
1698413647089.0,16,0.0,0.1,0.0,-0.4,9.600000000000001,-0.7000000000000001,2.1999999999999997,-0.5,-0.6000000000000001
1698413647105.0,16,0.0,0.1,-0.1,-0.4,9.600000000000001,-0.7000000000000001,0.7,-1.2000000000000002,-0.8
1698413647123.0,16,-0.1,0.0,-0.1,-0.5,9.5,-0.7000000000000001,-0.2,-1.3,-0.7
1698413647138.0,16,0.0,0.0,-0.1,-0.4,9.5,-0.8,-0.4,0.2,-0.4
1698413647155.0,16,0.0,0.0,-0.2,-0.5,9.5,-0.8,-0.7,0.2,-0.30000000000000004
1698413647172.0,16,0.0,0.0,-0.1,-0.5,9.5,-0.8,-1.7,-0.2,-0.1
1698413647189.0,16,0.0,0.0,-0.1,-0.4,9.5,-0.8,-2.0,-0.30000000000000004,0.0
1698413647207.0,16,0.0,0.0,-0.1,-0.4,9.5,-0.8,-1.7,-0.2,0.0
1698413647222.0,16,0.0,0.0,-0.1,-0.4,9.5,-0.8,-1.2000000000000002,0.1,0.1
1698413647238.0,16,0.0,0.0,-0.1,-0.4,9.5,-0.8,-1.5000000000000002,-0.2,0.30000000000000004
1698413647255.0,16,0.0,0.0,0.0,-0.4,9.5,-0.7000000000000001,-1.0,-0.1,0.0
1698413647273.0,16,0.0,0.0,0.0,-0.4,9.5,-0.7000000000000001,-0.7,-0.30000000000000004,0.0
1698413647289.0,16,0.0,0.0,0.1,-0.4,9.5,-0.6000000000000001,-0.6000000000000001,-0.4,-0.1
1698413647306.0,16,0.0,0.0,0.1,-0.4,9.5,-0.6000000000000001,-0.9,0.2,0.30000000000000004
1698413647325.0,16,0.0,0.1,0.1,-0.4,9.600000000000001,-0.5,-1.0,0.1,0.30000000000000004
1698413647339.0,16,0.0,0.0,0.1,-0.4,9.5,-0.5,-1.0,-0.4,0.2
1698413647355.0,16,0.1,0.0,0.2,-0.30000000000000004,9.5,-0.5,-0.9,0.1,0.0
1698413647372.0,16,0.0,0.0,0.1,-0.4,9.5,-0.5,-1.0,0.7,-0.1
1698413647389.0,16,0.0,0.0,0.1,-0.4,9.5,-0.5,-1.2000000000000002,1.2000000000000002,0.0
1698413647406.0,16,0.0,0.0,0.1,-0.4,9.5,-0.6000000000000001,-1.6,0.9,0.2
1698413647422.0,16,0.0,0.0,0.1,-0.4,9.5,-0.6000000000000001,-1.7,0.7,0.2
1698413647439.0,16,0.0,-0.1,0.1,-0.4,9.4,-0.5,-1.0,0.4,0.1
1698413647455.0,16,0.0,0.0,0.1,-0.4,9.5,-0.5,-0.5,0.30000000000000004,-0.1
1698413647472.0,16,0.0,0.0,0.0,-0.4,9.5,-0.6000000000000001,-0.4,0.30000000000000004,-0.1
1698413647488.0,16,0.0,-0.1,0.0,-0.4,9.4,-0.6000000000000001,-0.4,0.2,0.2
1698413647505.0,16,0.0,-0.1,-0.1,-0.4,9.4,-0.7000000000000001,-0.7,0.30000000000000004,0.0
1698413647522.0,16,0.0,0.0,0.0,-0.4,9.5,-0.6000000000000001,-0.4,-0.2,0.1
1698413647539.0,16,0.0,0.0,0.0,-0.4,9.5,-0.6000000000000001,0.5,-0.1,-0.1
1698413647555.0,16,0.1,0.0,0.0,-0.4,9.5,-0.6000000000000001,1.3,0.30000000000000004,-0.30000000000000004
1698413647572.0,16,0.0,0.0,0.0,-0.4,9.5,-0.6000000000000001,1.0,0.4,-0.1
1698413647589.0,16,0.0,0.0,-0.1,-0.4,9.5,-0.7000000000000001,-0.1,-0.1,-0.1
1698413647605.0,16,0.0,0.0,-0.1,-0.4,9.5,-0.7000000000000001,-0.30000000000000004,-0.6000000000000001,0.0
1698413647622.0,16,0.0,0.0,0.0,-0.4,9.5,-0.6000000000000001,0.0,-0.5,-0.1
1698413647639.0,16,0.0,0.1,0.0,-0.4,9.600000000000001,-0.6000000000000001,0.2,0.0,-0.1
1698413647656.0,16,0.0,0.0,-0.1,-0.4,9.5,-0.7000000000000001,-0.5,0.0,-0.30000000000000004
1698413647672.0,16,0.0,0.0,0.0,-0.4,9.5,-0.6000000000000001,-0.7,-0.1,-0.30000000000000004
1698413647689.0,16,0.0,0.0,0.0,-0.4,9.5,-0.6000000000000001,-0.30000000000000004,0.1,-0.2
1698413647710.0,16,0.0,0.0,0.0,-0.4,9.5,-0.6000000000000001,0.0,-0.5,-0.30000000000000004
1698413647723.0,16,0.0,0.0,0.0,-0.4,9.5,-0.6000000000000001,0.2,-0.1,-0.4
1698413647739.0,16,0.0,0.0,0.0,-0.4,9.5,-0.6000000000000001,0.2,0.30000000000000004,-0.4
1698413647755.0,16,0.0,0.0,0.0,-0.4,9.5,-0.6000000000000001,-0.1,-0.1,-0.30000000000000004
1698413647772.0,16,0.0,0.0,0.0,-0.4,9.5,-0.6000000000000001,0.5,-0.4,-0.2
1698413647788.0,16,0.0,0.0,0.0,-0.4,9.5,-0.6000000000000001,0.6000000000000001,-0.2,-0.30000000000000004
1698413647805.0,16,0.0,0.0,0.0,-0.4,9.5,-0.6000000000000001,0.30000000000000004,-0.1,-0.4
1698413647822.0,16,0.0,0.0,0.0,-0.4,9.5,-0.6000000000000001,-0.1,0.0,-0.30000000000000004
1698413647840.0,16,0.0,0.0,0.0,-0.4,9.5,-0.6000000000000001,-0.1,0.1,-0.30000000000000004
1698413647855.0,16,0.0,0.0,0.0,-0.4,9.5,-0.6000000000000001,0.5,0.4,-0.2
1698413647873.0,16,0.0,0.0,0.0,-0.4,9.5,-0.6000000000000001,0.4,0.6000000000000001,-0.2
1698413647889.0,16,0.0,0.0,0.0,-0.5,9.5,-0.6000000000000001,-0.1,0.4,-0.30000000000000004
1698413647905.0,16,0.0,0.0,0.0,-0.4,9.5,-0.6000000000000001,0.0,-0.1,-0.30000000000000004
1698413647924.0,16,0.0,0.0,0.0,-0.4,9.5,-0.6000000000000001,0.2,-0.30000000000000004,-0.30000000000000004
1698413647939.0,16,0.0,0.0,0.0,-0.4,9.5,-0.6000000000000001,0.2,0.0,-0.5
1698413647957.0,16,0.0,0.0,0.0,-0.4,9.5,-0.7000000000000001,0.2,-0.2,-0.30000000000000004
1698413647972.0,16,0.0,0.0,0.0,-0.4,9.5,-0.6000000000000001,0.5,-0.5,-0.2
1698413647991.0,16,0.0,0.0,0.0,-0.4,9.5,-0.6000000000000001,0.6000000000000001,-0.4,-0.30000000000000004
1698413648005.0,16,0.0,0.0,0.0,-0.4,9.5,-0.6000000000000001,0.5,-0.7,-0.1
1698413648022.0,16,0.0,0.0,0.0,-0.4,9.5,-0.7000000000000001,0.4,-0.5,-0.1
1698413648039.0,16,0.0,0.0,0.0,-0.4,9.5,-0.6000000000000001,0.30000000000000004,-0.30000000000000004,-0.1
1698413648055.0,16,0.0,0.0,0.0,-0.4,9.5,-0.6000000000000001,0.4,0.0,-0.2
1698413648074.0,16,0.0,0.1,0.0,-0.4,9.600000000000001,-0.7000000000000001,0.0,-0.1,-0.2
1698413648088.0,16,0.0,0.0,0.0,-0.4,9.5,-0.7000000000000001,-0.2,-0.4,-0.30000000000000004
1698413648105.0,16,0.0,0.0,0.0,-0.4,9.600000000000001,-0.7000000000000001,-0.4,-0.4,-0.2
1698413648121.0,16,0.0,0.0,0.0,-0.4,9.5,-0.6000000000000001,-0.4,-0.4,-0.30000000000000004
1698413648138.0,16,0.0,0.0,0.0,-0.4,9.5,-0.7000000000000001,-0.30000000000000004,-0.1,-0.1
1698413648155.0,16,0.0,-0.1,0.0,-0.4,9.4,-0.6000000000000001,-0.5,0.0,0.0
1698413648171.0,16,0.0,0.0,0.1,-0.4,9.5,-0.6000000000000001,0.2,0.2,-0.1
1698413648188.0,16,0.0,0.0,0.0,-0.4,9.5,-0.6000000000000001,0.4,0.5,-0.2
1698413648206.0,16,0.0,0.0,0.0,-0.4,9.5,-0.6000000000000001,0.0,0.6000000000000001,0.1
1698413648222.0,16,0.0,0.0,0.0,-0.5,9.5,-0.7000000000000001,-0.1,0.5,0.1
1698413648239.0,16,0.0,0.0,0.0,-0.5,9.5,-0.7000000000000001,-0.5,0.2,-0.1
1698413648255.0,16,0.0,0.0,0.0,-0.4,9.5,-0.6000000000000001,-0.1,0.1,0.0
1698413648272.0,16,0.0,0.0,0.0,-0.4,9.5,-0.6000000000000001,0.5,0.1,0.0
1698413648289.0,16,0.0,0.0,0.0,-0.4,9.5,-0.6000000000000001,0.4,0.4,-0.2
1698413648305.0,16,0.0,0.0,0.0,-0.4,9.5,-0.6000000000000001,0.1,0.1,0.0
1698413648322.0,16,0.0,0.1,0.0,-0.4,9.600000000000001,-0.6000000000000001,-0.1,0.2,0.1
1698413648339.0,16,0.0,0.0,0.0,-0.4,9.5,-0.6000000000000001,0.1,0.1,0.2
1698413648355.0,16,0.0,0.0,0.0,-0.4,9.5,-0.6000000000000001,0.0,0.0,0.2
1698413648372.0,16,0.0,0.0,0.0,-0.4,9.5,-0.6000000000000001,-0.1,-0.2,0.1
1698413648390.0,16,0.0,0.0,0.0,-0.4,9.5,-0.7000000000000001,-0.2,0.2,-0.1
1698413648405.0,16,0.0,0.0,-0.1,-0.4,9.5,-0.7000000000000001,-0.30000000000000004,0.1,-0.1
1698413648422.0,16,0.0,0.0,-0.1,-0.4,9.5,-0.7000000000000001,-0.1,0.1,-0.1
1698413648438.0,16,0.0,0.0,0.0,-0.5,9.5,-0.7000000000000001,0.0,-0.5,0.2
1698413648455.0,16,0.0,0.0,0.0,-0.4,9.5,-0.6000000000000001,0.2,-0.5,0.1
1698413648472.0,16,0.0,0.0,0.0,-0.4,9.5,-0.7000000000000001,0.4,-0.4,0.0
1698413648488.0,16,0.0,0.0,0.0,-0.4,9.5,-0.6000000000000001,0.2,-0.1,0.2
1698413648505.0,16,0.0,0.0,0.0,-0.4,9.5,-0.6000000000000001,0.4,0.2,0.2
1698413648522.0,16,0.0,0.0,0.0,-0.4,9.5,-0.7000000000000001,0.4,0.2,0.1
1698413648540.0,16,0.0,0.0,0.0,-0.4,9.5,-0.6000000000000001,0.4,0.4,0.0
1698413648555.0,16,0.0,0.0,0.0,-0.4,9.5,-0.6000000000000001,0.2,0.5,-0.1
1698413648572.0,16,0.0,0.0,0.0,-0.4,9.600000000000001,-0.6000000000000001,0.1,0.5,-0.1
1698413648589.0,16,0.0,0.0,0.0,-0.4,9.5,-0.6000000000000001,-0.1,0.30000000000000004,-0.2
1698413648606.0,16,0.0,0.0,0.0,-0.4,9.5,-0.6000000000000001,-0.30000000000000004,-0.30000000000000004,-0.1
1698413648623.0,16,0.0,0.0,0.0,-0.4,9.5,-0.6000000000000001,-0.2,-0.5,-0.1
1698413648638.0,16,0.0,0.0,0.0,-0.4,9.5,-0.7000000000000001,0.2,-0.4,-0.1
1698413648655.0,16,0.0,0.0,0.0,-0.4,9.5,-0.6000000000000001,-0.30000000000000004,0.1,-0.2
1698413648672.0,16,0.0,0.0,0.0,-0.4,9.5,-0.6000000000000001,-0.4,0.2,-0.1
1698413648688.0,16,0.0,0.0,0.0,-0.5,9.5,-0.7000000000000001,-0.30000000000000004,0.4,-0.1
1698413648705.0,16,0.0,0.0,0.0,-0.5,9.5,-0.6000000000000001,-0.2,0.2,0.0
1698413648721.0,16,0.0,0.0,0.0,-0.4,9.5,-0.7000000000000001,0.2,-0.1,-0.4
1698413648738.0,16,0.0,0.0,0.0,-0.4,9.600000000000001,-0.7000000000000001,-0.30000000000000004,0.2,-0.30000000000000004
1698413648756.0,16,0.0,0.0,0.0,-0.4,9.5,-0.7000000000000001,-0.2,0.0,-0.4
1698413648771.0,16,0.0,0.0,0.0,-0.4,9.5,-0.6000000000000001,-0.1,-0.5,-0.1
1698413648789.0,16,0.0,0.0,0.0,-0.4,9.5,-0.7000000000000001,-0.1,-0.5,-0.1
1698413648806.0,16,0.0,0.0,0.0,-0.4,9.5,-0.6000000000000001,0.1,0.1,-0.1
1698413648822.0,16,0.0,0.0,0.0,-0.4,9.5,-0.6000000000000001,0.0,0.5,-0.1
1698413648839.0,16,-0.1,0.0,0.0,-0.5,9.5,-0.6000000000000001,-0.30000000000000004,0.30000000000000004,-0.1
1698413648855.0,16,-0.1,0.0,0.0,-0.5,9.5,-0.6000000000000001,-0.1,0.1,-0.1
1698413648872.0,16,0.0,0.0,0.0,-0.4,9.5,-0.6000000000000001,0.2,-0.4,-0.30000000000000004
1698413648888.0,16,0.0,0.0,0.0,-0.4,9.5,-0.6000000000000001,0.30000000000000004,-0.30000000000000004,-0.2
1698413648905.0,16,0.0,0.0,0.0,-0.4,9.5,-0.6000000000000001,0.0,-0.1,-0.1
1698413648922.0,16,0.0,0.0,0.0,-0.4,9.5,-0.6000000000000001,-0.2,0.0,-0.30000000000000004
1698413648938.0,16,0.0,0.0,0.0,-0.4,9.5,-0.6000000000000001,0.0,0.0,0.0
1698413648955.0,16,0.0,0.0,0.0,-0.4,9.5,-0.6000000000000001,0.1,0.1,0.0
1698413648972.0,16,0.0,0.0,0.0,-0.4,9.5,-0.6000000000000001,0.1,-0.2,-0.30000000000000004
1698413648989.0,16,0.0,0.0,0.0,-0.4,9.5,-0.6000000000000001,0.0,-0.2,-0.30000000000000004
1698413649005.0,16,0.0,0.0,0.0,-0.4,9.5,-0.7000000000000001,-0.30000000000000004,-0.2,-0.30000000000000004
1698413649022.0,16,0.0,0.0,0.0,-0.4,9.5,-0.6000000000000001,-0.4,-0.7,-0.1
1698413649038.0,16,0.0,0.0,0.0,-0.4,9.5,-0.7000000000000001,0.4,-0.30000000000000004,0.0
1698413649055.0,16,0.0,0.0,0.0,-0.4,9.5,-0.6000000000000001,0.2,-0.30000000000000004,-0.1
1698413649072.0,16,0.0,0.0,0.0,-0.4,9.5,-0.6000000000000001,0.1,-0.30000000000000004,-0.1
1698413649088.0,16,0.0,0.0,0.0,-0.4,9.5,-0.6000000000000001,0.1,-0.1,-0.1
1698413649105.0,16,0.0,0.0,0.0,-0.4,9.5,-0.6000000000000001,0.4,0.1,0.0
1698413649125.0,16,0.0,0.0,0.0,-0.5,9.5,-0.6000000000000001,0.30000000000000004,0.1,0.0
1698413649139.0,16,0.0,0.0,0.0,-0.4,9.5,-0.6000000000000001,0.0,0.1,-0.1
1698413649156.0,16,0.0,0.0,0.0,-0.5,9.5,-0.7000000000000001,-0.2,0.1,-0.2
1698413649172.0,16,0.0,0.0,0.0,-0.5,9.5,-0.7000000000000001,-0.2,0.0,-0.1
1698413649188.0,16,0.0,0.0,0.0,-0.5,9.5,-0.7000000000000001,0.1,-0.30000000000000004,0.0
1698413649205.0,16,0.0,0.0,0.0,-0.4,9.5,-0.7000000000000001,0.2,-0.4,0.0
1698413649222.0,16,0.0,0.0,0.0,-0.4,9.5,-0.6000000000000001,0.1,-0.30000000000000004,0.1
1698413649239.0,16,0.0,0.0,0.0,-0.4,9.5,-0.6000000000000001,0.2,0.1,0.2
1698413649255.0,16,0.0,0.0,0.1,-0.5,9.5,-0.6000000000000001,0.30000000000000004,0.2,0.1
1698413649272.0,16,0.0,0.0,0.0,-0.4,9.5,-0.6000000000000001,0.5,0.30000000000000004,0.1
1698413649290.0,16,0.0,0.0,0.0,-0.5,9.5,-0.7000000000000001,0.5,0.1,0.2
1698413649306.0,16,0.0,0.0,0.0,-0.4,9.5,-0.6000000000000001,0.1,0.1,0.2
1698413649321.0,16,0.0,0.0,0.0,-0.4,9.5,-0.7000000000000001,0.4,-0.2,0.0
1698413649338.0,16,0.0,0.0,0.0,-0.4,9.5,-0.6000000000000001,0.2,-0.2,0.1
1698413649355.0,16,0.0,0.0,0.0,-0.4,9.5,-0.6000000000000001,0.4,0.1,0.1
1698413649372.0,16,0.0,0.0,0.0,-0.4,9.5,-0.6000000000000001,0.1,-0.1,0.2
1698413649388.0,16,0.0,0.0,0.0,-0.4,9.5,-0.6000000000000001,0.1,-0.2,0.2
1698413649405.0,16,0.0,0.0,0.0,-0.4,9.5,-0.7000000000000001,0.1,0.1,0.2
1698413649422.0,16,0.0,0.0,0.0,-0.4,9.5,-0.6000000000000001,-0.1,-0.1,0.2
1698413649439.0,16,0.0,0.0,0.0,-0.4,9.5,-0.7000000000000001,-0.2,0.1,0.1
1698413649455.0,16,0.0,0.0,0.0,-0.4,9.5,-0.7000000000000001,-0.1,0.2,0.1
1698413649472.0,16,0.0,0.0,0.0,-0.4,9.5,-0.7000000000000001,-0.1,0.1,0.2
1698413649489.0,16,0.0,0.0,0.0,-0.4,9.5,-0.6000000000000001,0.0,-0.2,0.2
1698413649505.0,16,0.0,0.0,0.0,-0.4,9.5,-0.7000000000000001,-0.1,-0.2,0.1
1698413649522.0,16,0.0,0.0,0.0,-0.4,9.5,-0.7000000000000001,-0.1,-0.2,0.1
1698413649539.0,16,0.0,0.0,0.0,-0.4,9.5,-0.7000000000000001,-0.1,-0.1,0.2
1698413649555.0,16,0.0,0.0,0.0,-0.4,9.5,-0.7000000000000001,-0.1,-0.4,0.2
1698413649572.0,16,0.0,0.0,0.0,-0.4,9.5,-0.7000000000000001,0.0,0.0,0.2
1698413649590.0,16,0.0,0.0,0.0,-0.5,9.5,-0.7000000000000001,0.1,-0.1,0.2
1698413649605.0,16,0.0,0.0,0.0,-0.4,9.5,-0.6000000000000001,0.0,-0.4,0.2
1698413649622.0,16,0.0,0.0,0.0,-0.4,9.5,-0.6000000000000001,-0.1,-0.4,0.2
1698413649639.0,16,0.0,0.0,0.0,-0.4,9.5,-0.6000000000000001,-0.2,0.1,0.1
1698413649655.0,16,0.0,0.0,0.0,-0.4,9.5,-0.7000000000000001,-0.30000000000000004,0.4,0.1
1698413649672.0,16,0.0,0.0,0.0,-0.4,9.5,-0.7000000000000001,-0.6000000000000001,0.0,0.1
1698413649688.0,16,0.0,0.0,0.0,-0.4,9.5,-0.7000000000000001,-0.6000000000000001,0.2,0.2
1698413649705.0,16,0.0,0.0,-0.1,-0.5,9.5,-0.7000000000000001,-0.4,0.0,0.30000000000000004
1698413649721.0,16,0.0,0.0,0.0,-0.4,9.5,-0.6000000000000001,-0.4,-0.2,0.2
1698413649738.0,16,0.0,0.0,0.0,-0.4,9.5,-0.6000000000000001,0.0,-0.2,0.2
1698413649755.0,16,0.0,0.0,0.0,-0.4,9.5,-0.6000000000000001,0.0,-0.2,0.1
1698413649773.0,16,0.0,0.0,0.0,-0.4,9.5,-0.6000000000000001,0.1,-0.1,0.0
1698413649789.0,16,0.0,0.0,0.0,-0.4,9.5,-0.6000000000000001,0.2,-0.1,0.0
1698413649806.0,16,0.0,0.0,0.0,-0.4,9.5,-0.6000000000000001,0.2,0.2,0.2
1698413649821.0,16,0.0,0.0,0.0,-0.4,9.5,-0.6000000000000001,0.0,0.2,0.0
1698413649839.0,16,0.0,0.1,0.0,-0.4,9.600000000000001,-0.6000000000000001,-0.30000000000000004,0.5,0.1
1698413649855.0,16,0.0,0.0,0.0,-0.4,9.5,-0.6000000000000001,-0.1,0.7,0.1
1698413649872.0,16,0.0,0.0,0.0,-0.4,9.5,-0.6000000000000001,0.1,0.9,0.2
1698413649889.0,16,0.0,0.0,0.0,-0.5,9.5,-0.7000000000000001,-0.1,0.4,0.1
1698413649905.0,16,0.0,0.0,0.0,-0.4,9.5,-0.7000000000000001,-0.2,0.1,0.30000000000000004
1698413649922.0,16,0.0,0.0,-0.1,-0.4,9.5,-0.7000000000000001,-0.2,0.1,0.2
1698413649940.0,16,0.0,0.0,0.0,-0.4,9.5,-0.7000000000000001,-0.30000000000000004,0.2,0.2
1698413649955.0,16,0.0,0.0,0.0,-0.4,9.5,-0.7000000000000001,-0.1,0.1,0.0
1698413649971.0,16,0.0,0.0,0.0,-0.4,9.5,-0.6000000000000001,0.1,0.1,0.0
1698413649989.0,16,0.0,0.0,0.0,-0.4,9.5,-0.6000000000000001,0.2,0.2,0.0
1698413650005.0,16,0.0,0.0,0.0,-0.4,9.5,-0.6000000000000001,0.2,0.4,0.0
1698413650022.0,16,0.0,0.0,0.0,-0.4,9.5,-0.6000000000000001,0.1,0.30000000000000004,0.0
1698413650038.0,16,0.0,0.0,0.0,-0.4,9.5,-0.6000000000000001,0.4,0.2,0.0
1698413650055.0,16,0.0,0.0,0.0,-0.4,9.5,-0.6000000000000001,0.4,0.2,0.0
1698413650072.0,16,0.0,0.0,0.0,-0.4,9.5,-0.6000000000000001,0.0,0.2,0.0
1698413650089.0,16,0.0,0.0,0.0,-0.4,9.5,-0.6000000000000001,0.1,-0.1,-0.1
1698413650106.0,16,0.0,0.0,0.0,-0.4,9.600000000000001,-0.6000000000000001,0.30000000000000004,0.0,-0.1
1698413650121.0,16,0.0,0.0,0.0,-0.4,9.5,-0.6000000000000001,0.5,0.1,-0.2
1698413650138.0,16,0.0,0.0,0.0,-0.4,9.5,-0.7000000000000001,0.4,0.1,-0.1
1698413650155.0,16,0.0,0.0,0.0,-0.4,9.5,-0.6000000000000001,-0.1,-0.4,0.30000000000000004
1698413650172.0,16,0.0,0.0,0.0,-0.4,9.5,-0.7000000000000001,0.1,-0.5,0.2
1698413650188.0,16,0.0,-0.1,0.0,-0.4,9.4,-0.7000000000000001,0.2,-0.2,0.2
1698413650205.0,16,0.0,0.0,0.0,-0.4,9.5,-0.7000000000000001,0.1,0.1,0.0
1698413650222.0,16,0.0,0.0,0.0,-0.4,9.5,-0.7000000000000001,0.4,0.2,0.0
1698413650239.0,16,0.0,0.0,0.0,-0.4,9.5,-0.6000000000000001,0.6000000000000001,0.1,0.0
1698413650255.0,16,0.0,0.0,0.0,-0.4,9.5,-0.7000000000000001,0.6000000000000001,0.1,0.2
1698413650272.0,16,0.0,0.0,0.0,-0.4,9.5,-0.6000000000000001,-0.1,-0.5,0.2
1698413650288.0,16,0.0,0.0,0.0,-0.4,9.5,-0.7000000000000001,0.1,-0.30000000000000004,0.2
1698413650307.0,16,0.0,0.0,0.0,-0.4,9.5,-0.7000000000000001,0.1,-0.5,0.4
1698413650321.0,16,0.0,0.0,0.0,-0.4,9.5,-0.6000000000000001,0.2,-0.30000000000000004,0.0
1698413650338.0,16,0.0,0.0,0.0,-0.4,9.5,-0.6000000000000001,0.4,0.0,0.2
1698413650355.0,16,0.0,0.0,0.0,-0.4,9.5,-0.7000000000000001,0.2,0.1,0.2
1698413650372.0,16,0.0,0.0,0.0,-0.4,9.5,-0.6000000000000001,0.0,-0.4,0.2
1698413650389.0,16,0.0,0.0,0.0,-0.4,9.5,-0.7000000000000001,-0.1,-0.2,0.1
1698413650405.0,16,0.0,0.0,0.0,-0.4,9.5,-0.7000000000000001,0.2,0.0,0.1
1698413650421.0,16,0.0,0.0,0.0,-0.4,9.5,-0.6000000000000001,0.8,0.4,0.1
1698413650438.0,16,0.0,0.0,0.0,-0.4,9.5,-0.7000000000000001,0.9,0.5,0.1
1698413650455.0,16,0.0,0.0,0.0,-0.4,9.5,-0.7000000000000001,0.7,0.7,0.1
1698413650472.0,16,0.0,0.0,0.0,-0.4,9.5,-0.7000000000000001,0.9,0.1,0.0
1698413650489.0,16,0.0,0.0,0.0,-0.4,9.5,-0.6000000000000001,0.9,0.1,0.0
1698413650505.0,16,0.0,0.0,0.0,-0.4,9.5,-0.7000000000000001,0.7,0.5,0.30000000000000004
1698413650522.0,16,0.0,-0.1,0.0,-0.4,9.4,-0.7000000000000001,0.5,0.2,0.4
1698413650539.0,16,0.0,-0.1,0.0,-0.4,9.5,-0.7000000000000001,0.8,-0.6000000000000001,0.5
1698413650555.0,16,0.0,0.0,0.0,-0.4,9.5,-0.7000000000000001,1.8,-0.7,0.30000000000000004
1698413650571.0,16,0.0,0.0,0.0,-0.4,9.5,-0.7000000000000001,1.5000000000000002,-0.5,-0.1
1698413650588.0,16,0.0,0.0,0.0,-0.4,9.5,-0.7000000000000001,1.0,-0.9,-0.4
1698413650605.0,16,0.0,0.0,0.0,-0.4,9.5,-0.6000000000000001,1.0999999999999999,-1.3,-0.2
1698413650622.0,16,0.0,0.0,0.1,-0.4,9.5,-0.6000000000000001,1.6,-1.5000000000000002,0.0
1698413650640.0,16,0.0,0.1,0.0,-0.4,9.600000000000001,-0.6000000000000001,1.5000000000000002,-1.6,-0.1
1698413650655.0,16,0.0,0.0,0.0,-0.4,9.600000000000001,-0.7000000000000001,0.5,-1.8,-0.30000000000000004
1698413650672.0,16,0.1,0.0,0.0,-0.30000000000000004,9.5,-0.7000000000000001,0.5,-1.6,-0.2
1698413650688.0,16,0.1,0.0,-0.1,-0.30000000000000004,9.5,-0.8,0.5,-1.4,-0.2
1698413650705.0,16,0.0,0.0,-0.1,-0.4,9.5,-0.8,0.6000000000000001,-1.4,-0.1
1698413650722.0,16,0.0,0.0,-0.1,-0.4,9.5,-0.8,0.30000000000000004,-0.8,0.2
1698413650739.0,16,0.0,0.0,-0.1,-0.4,9.600000000000001,-0.9,0.30000000000000004,-0.5,0.0
1698413650755.0,16,0.0,0.0,-0.2,-0.4,9.5,-0.9,0.2,-0.5,-0.1
1698413650771.0,16,0.0,0.0,-0.1,-0.4,9.5,-0.8,0.2,-1.0,0.1
1698413650789.0,16,0.0,0.0,-0.1,-0.4,9.5,-0.8,0.2,-0.7,0.1
1698413650805.0,16,0.0,0.0,-0.1,-0.4,9.5,-0.8,0.0,-0.8,0.2
1698413650821.0,16,0.0,0.0,0.0,-0.4,9.5,-0.8,0.0,-0.4,-0.1
1698413650839.0,16,0.0,0.0,0.0,-0.4,9.5,-0.7000000000000001,0.5,0.1,-0.2
1698413650855.0,16,0.0,0.0,0.1,-0.4,9.5,-0.7000000000000001,0.5,0.4,0.0
1698413650872.0,16,0.0,0.0,0.1,-0.4,9.5,-0.7000000000000001,-0.1,0.5,0.1
1698413650890.0,16,0.0,0.0,0.1,-0.4,9.5,-0.7000000000000001,-0.4,0.6000000000000001,0.2
1698413650906.0,16,0.0,0.0,0.1,-0.4,9.5,-0.7000000000000001,-0.4,0.9,0.1
1698413650922.0,16,0.0,-0.1,0.0,-0.4,9.5,-0.7000000000000001,-0.5,0.9,0.0
1698413650939.0,16,0.0,0.0,0.0,-0.4,9.5,-0.7000000000000001,-0.7,0.5,0.1
1698413650955.0,16,0.0,0.0,0.1,-0.4,9.5,-0.7000000000000001,-1.0,0.9,-0.1
1698413650971.0,16,0.0,-0.1,0.0,-0.4,9.5,-0.7000000000000001,-1.0,1.0,-0.2
1698413650988.0,16,0.0,0.0,0.0,-0.4,9.5,-0.7000000000000001,-0.9,0.9,-0.2
1698413651005.0,16,0.0,0.0,0.0,-0.5,9.5,-0.7000000000000001,-0.9,0.9,-0.1
1698413651021.0,16,0.0,0.0,0.0,-0.4,9.5,-0.7000000000000001,-1.0,0.5,-0.30000000000000004
1698413651038.0,16,-0.1,0.0,0.0,-0.5,9.5,-0.7000000000000001,-1.2000000000000002,0.4,-0.1
1698413651055.0,16,0.0,0.0,0.0,-0.4,9.5,-0.7000000000000001,-1.0,0.5,0.0
1698413651072.0,16,0.0,0.0,0.0,-0.4,9.5,-0.7000000000000001,-1.0,0.4,-0.30000000000000004
1698413651089.0,16,0.0,0.0,0.0,-0.4,9.5,-0.7000000000000001,-1.2000000000000002,0.1,-0.1
1698413651105.0,16,0.0,0.0,0.0,-0.4,9.5,-0.7000000000000001,-0.8,-0.2,-0.2
1698413651123.0,16,0.0,0.0,0.0,-0.4,9.5,-0.7000000000000001,-0.5,0.0,-0.1
1698413651139.0,16,0.0,0.0,0.0,-0.4,9.5,-0.7000000000000001,-0.30000000000000004,-0.5,-0.2
1698413651156.0,16,0.0,0.0,0.0,-0.4,9.5,-0.7000000000000001,-0.2,-0.5,-0.1
1698413651171.0,16,0.0,0.0,0.0,-0.4,9.5,-0.7000000000000001,-0.1,-0.4,-0.2
1698413651188.0,16,0.0,0.0,0.0,-0.4,9.5,-0.7000000000000001,-0.4,-0.2,-0.2
1698413651205.0,16,0.0,0.0,0.0,-0.4,9.5,-0.7000000000000001,-0.30000000000000004,-0.2,-0.2
1698413651221.0,16,0.0,0.0,0.0,-0.4,9.5,-0.7000000000000001,-0.30000000000000004,-0.1,-0.2
1698413651238.0,16,0.0,0.0,0.0,-0.4,9.5,-0.7000000000000001,-0.2,-0.9,-0.30000000000000004
1698413651255.0,16,0.0,0.0,0.0,-0.4,9.5,-0.7000000000000001,-0.1,-0.7,-0.4
1698413651272.0,16,0.0,0.0,0.0,-0.4,9.5,-0.7000000000000001,0.1,-0.5,-0.30000000000000004
1698413651288.0,16,0.0,0.0,0.0,-0.4,9.5,-0.7000000000000001,-0.1,-0.2,-0.1
1698413651305.0,16,0.0,0.0,0.0,-0.4,9.5,-0.7000000000000001,0.0,0.1,-0.1
1698413651321.0,16,0.0,0.0,0.0,-0.5,9.5,-0.7000000000000001,-0.1,-0.2,0.0
1698413651338.0,16,0.0,0.0,0.0,-0.4,9.5,-0.7000000000000001,-0.1,-0.5,-0.2
1698413651355.0,16,0.0,0.0,0.0,-0.4,9.5,-0.7000000000000001,-0.1,-0.1,-0.2
1698413651372.0,16,0.0,0.0,0.0,-0.4,9.5,-0.7000000000000001,0.0,-0.2,-0.2
1698413651389.0,16,0.0,0.0,-0.1,-0.4,9.5,-0.7000000000000001,0.2,-0.4,-0.2
1698413651405.0,16,0.0,0.0,0.0,-0.4,9.5,-0.7000000000000001,0.2,-0.4,-0.2
1698413651422.0,16,0.0,0.0,0.0,-0.4,9.5,-0.7000000000000001,0.4,-0.2,0.0
1698413651438.0,16,0.1,0.0,0.0,-0.4,9.5,-0.7000000000000001,0.1,-0.2,-0.1
1698413651455.0,16,0.0,0.0,0.0,-0.4,9.5,-0.7000000000000001,0.30000000000000004,0.1,-0.30000000000000004
1698413651471.0,16,0.0,0.0,0.0,-0.4,9.5,-0.7000000000000001,0.4,0.7,-0.1
1698413651489.0,16,-0.1,0.0,0.0,-0.5,9.5,-0.7000000000000001,0.30000000000000004,0.2,-0.1
1698413651505.0,16,0.0,0.0,0.0,-0.4,9.5,-0.7000000000000001,0.2,-0.2,-0.1
1698413651522.0,16,0.0,0.0,0.0,-0.4,9.5,-0.7000000000000001,0.2,-0.2,-0.2
1698413651539.0,16,0.0,0.0,0.0,-0.4,9.5,-0.7000000000000001,-0.1,-0.1,-0.30000000000000004
1698413651555.0,16,0.0,0.0,0.0,-0.4,9.5,-0.7000000000000001,0.0,-0.2,-0.2
1698413651572.0,16,0.0,0.0,0.0,-0.4,9.5,-0.7000000000000001,0.4,-0.4,-0.30000000000000004
1698413651589.0,16,0.0,0.0,0.0,-0.4,9.5,-0.7000000000000001,0.6000000000000001,-0.2,-0.2
1698413651605.0,16,0.0,0.0,0.0,-0.4,9.5,-0.7000000000000001,0.2,-0.2,-0.1
1698413651622.0,16,0.0,0.0,0.0,-0.4,9.5,-0.7000000000000001,0.1,0.0,-0.1
1698413651638.0,16,0.0,0.0,0.0,-0.4,9.5,-0.7000000000000001,0.4,-0.1,-0.30000000000000004
1698413651655.0,16,0.0,0.0,0.0,-0.4,9.5,-0.7000000000000001,0.1,-0.2,-0.2
1698413651671.0,16,0.0,0.0,0.0,-0.4,9.5,-0.7000000000000001,0.0,-0.4,-0.2
1698413651689.0,16,0.0,0.0,0.0,-0.4,9.5,-0.7000000000000001,0.6000000000000001,0.0,-0.4
1698413651705.0,16,0.0,0.0,0.0,-0.4,9.5,-0.7000000000000001,0.30000000000000004,-0.2,-0.2
1698413651722.0,16,0.0,0.0,0.0,-0.4,9.5,-0.7000000000000001,0.30000000000000004,-0.5,-0.1
1698413651738.0,16,0.0,0.0,0.0,-0.4,9.5,-0.7000000000000001,0.1,-0.4,-0.1
1698413651755.0,16,0.0,0.0,0.0,-0.4,9.5,-0.7000000000000001,-0.1,0.30000000000000004,-0.1
1698413651772.0,16,0.0,0.0,0.0,-0.4,9.5,-0.7000000000000001,-0.1,0.4,-0.1
1698413651789.0,16,0.0,0.0,0.0,-0.5,9.5,-0.7000000000000001,-0.2,-0.1,-0.1
1698413651805.0,16,0.0,0.0,0.0,-0.5,9.5,-0.7000000000000001,-0.30000000000000004,-0.5,-0.2
1698413651822.0,16,0.0,0.0,0.0,-0.5,9.5,-0.7000000000000001,-0.1,-0.5,-0.30000000000000004
1698413651839.0,16,0.0,0.0,-0.1,-0.4,9.5,-0.8,-0.1,-0.5,-0.2
1698413651855.0,16,0.0,0.0,0.0,-0.4,9.5,-0.7000000000000001,-0.1,-0.30000000000000004,-0.1
1698413651871.0,16,0.0,0.0,0.0,-0.4,9.5,-0.7000000000000001,0.4,-0.2,-0.1
1698413651888.0,16,0.0,0.0,0.0,-0.4,9.5,-0.7000000000000001,0.5,-0.1,0.1
1698413651905.0,16,0.0,-0.1,0.0,-0.4,9.4,-0.7000000000000001,-0.2,-0.4,0.0
1698413651921.0,16,0.0,0.0,0.0,-0.4,9.5,-0.7000000000000001,-0.1,-0.1,-0.1
1698413651938.0,16,0.0,0.0,0.0,-0.4,9.5,-0.7000000000000001,0.1,-0.2,-0.1
1698413651955.0,16,0.0,0.0,0.0,-0.4,9.5,-0.7000000000000001,0.2,0.1,-0.30000000000000004
1698413651972.0,16,0.0,0.0,0.0,-0.4,9.5,-0.7000000000000001,0.0,0.1,-0.30000000000000004
1698413651988.0,16,0.0,0.0,0.0,-0.4,9.5,-0.7000000000000001,-0.30000000000000004,-0.2,0.0
1698413652005.0,16,0.0,0.0,0.0,-0.4,9.5,-0.7000000000000001,-0.1,0.0,0.0
1698413652022.0,16,0.0,0.0,0.0,-0.4,9.5,-0.7000000000000001,0.2,0.2,0.2
1698413652038.0,16,0.0,-0.1,-0.1,-0.4,9.5,-0.8,-0.2,0.5,0.1
1698413652055.0,16,0.0,0.0,0.0,-0.5,9.5,-0.7000000000000001,-0.2,0.5,0.0
1698413652072.0,16,0.0,0.0,0.0,-0.4,9.600000000000001,-0.7000000000000001,0.1,0.30000000000000004,0.0
1698413652090.0,16,0.0,0.0,0.0,-0.5,9.5,-0.7000000000000001,-0.1,0.1,0.0
1698413652105.0,16,0.0,0.0,0.0,-0.4,9.5,-0.7000000000000001,-0.2,0.2,0.1
1698413652121.0,16,0.0,0.0,0.0,-0.4,9.5,-0.7000000000000001,-0.30000000000000004,0.0,-0.1
1698413652138.0,16,0.0,0.0,0.0,-0.4,9.5,-0.7000000000000001,-0.30000000000000004,0.1,-0.1
1698413652155.0,16,0.0,0.0,0.0,-0.4,9.5,-0.7000000000000001,-0.4,0.4,0.0
1698413652172.0,16,0.0,0.0,0.0,-0.4,9.5,-0.7000000000000001,-0.2,0.7,0.1
1698413652188.0,16,0.0,-0.1,0.0,-0.4,9.4,-0.7000000000000001,-0.2,0.9,0.0
1698413652205.0,16,0.0,0.0,0.0,-0.4,9.5,-0.7000000000000001,-0.30000000000000004,0.2,0.1
1698413652222.0,16,0.0,0.0,0.0,-0.4,9.5,-0.7000000000000001,-0.4,0.30000000000000004,0.0
1698413652238.0,16,0.0,0.0,0.0,-0.4,9.5,-0.7000000000000001,-0.4,0.1,0.0
1698413652255.0,16,0.0,0.0,0.0,-0.4,9.5,-0.7000000000000001,-0.30000000000000004,-0.4,-0.1
1698413652272.0,16,0.0,0.0,0.0,-0.4,9.5,-0.7000000000000001,-0.30000000000000004,-0.30000000000000004,-0.1
1698413652288.0,16,0.0,0.0,0.0,-0.4,9.5,-0.6000000000000001,-0.4,-0.2,-0.1
1698413652305.0,16,0.0,0.1,0.0,-0.4,9.600000000000001,-0.6000000000000001,-0.30000000000000004,0.2,-0.2
1698413652321.0,16,0.0,0.0,0.0,-0.5,9.5,-0.7000000000000001,-0.4,-0.1,-0.1
1698413652338.0,16,0.0,-0.1,0.0,-0.4,9.5,-0.7000000000000001,-0.8,-0.2,0.0
1698413652355.0,16,0.0,-0.1,-0.1,-0.4,9.4,-0.7000000000000001,-1.0,0.0,-0.1
1698413652371.0,16,0.0,0.0,0.0,-0.4,9.5,-0.7000000000000001,-0.9,0.1,-0.30000000000000004
1698413652388.0,16,0.0,0.0,0.0,-0.4,9.5,-0.7000000000000001,-0.1,0.30000000000000004,-0.1
1698413652407.0,16,0.0,0.0,0.0,-0.4,9.5,-0.7000000000000001,-0.30000000000000004,-0.1,-0.2
1698413652422.0,16,0.0,0.0,0.0,-0.5,9.5,-0.7000000000000001,-0.4,-0.2,-0.1
1698413652438.0,16,0.0,0.0,0.0,-0.4,9.5,-0.7000000000000001,0.2,-0.1,-0.2
1698413652455.0,16,0.0,0.0,0.0,-0.4,9.5,-0.7000000000000001,0.2,-0.2,-0.30000000000000004
1698413652471.0,16,0.0,0.0,0.0,-0.4,9.5,-0.7000000000000001,0.4,0.5,-0.30000000000000004
1698413652488.0,16,0.0,0.0,0.0,-0.4,9.600000000000001,-0.7000000000000001,0.30000000000000004,0.4,-0.30000000000000004
1698413652505.0,16,0.0,0.0,0.1,-0.4,9.5,-0.6000000000000001,-0.30000000000000004,0.30000000000000004,-0.1
1698413652522.0,16,0.0,0.0,0.0,-0.4,9.5,-0.6000000000000001,-0.30000000000000004,0.9,-0.2
1698413652538.0,16,0.0,0.0,0.0,-0.4,9.5,-0.6000000000000001,-0.2,0.4,-0.30000000000000004
1698413652555.0,16,0.0,0.0,-0.1,-0.5,9.5,-0.7000000000000001,-0.4,-0.2,-0.2
1698413652571.0,16,0.0,0.0,0.0,-0.4,9.5,-0.7000000000000001,-0.30000000000000004,-0.6000000000000001,-0.30000000000000004
1698413652588.0,16,0.0,0.0,0.0,-0.4,9.5,-0.7000000000000001,-0.2,-0.5,-0.4
1698413652605.0,16,0.0,0.0,0.1,-0.5,9.5,-0.6000000000000001,0.0,-0.2,-0.1
1698413652621.0,16,0.0,0.0,0.0,-0.4,9.5,-0.7000000000000001,0.7,-0.9,-0.1
1698413652638.0,16,0.0,-0.1,-0.1,-0.4,9.4,-0.8,1.0,-1.4,-0.1
1698413652655.0,16,0.0,0.0,0.0,-0.4,9.5,-0.7000000000000001,1.8,-1.2000000000000002,-0.1
1698413652671.0,16,0.0,0.0,0.0,-0.4,9.5,-0.7000000000000001,2.1999999999999997,-0.9,-0.5
1698413652688.0,16,0.0,-0.1,0.1,-0.4,9.4,-0.6000000000000001,1.3,-0.2,-0.8
1698413652704.0,16,0.0,0.0,0.1,-0.5,9.5,-0.6000000000000001,1.5000000000000002,0.1,-0.9
1698413652721.0,16,0.0,0.0,0.0,-0.4,9.5,-0.7000000000000001,2.1,-0.7,-0.8
1698413652738.0,16,0.0,0.0,0.1,-0.5,9.5,-0.6000000000000001,2.1999999999999997,-0.9,-0.9
1698413652754.0,16,0.0,0.0,0.1,-0.5,9.5,-0.6000000000000001,2.4000000000000004,-0.9,-0.8
1698413652771.0,16,0.0,-0.1,-0.1,-0.5,9.4,-0.8,2.0,-1.7,-0.5
1698413652788.0,16,-0.1,0.1,0.1,-0.6000000000000001,9.600000000000001,-0.6000000000000001,1.9,-2.4000000000000004,0.0
1698413652804.0,16,-0.1,0.1,0.0,-0.6000000000000001,9.600000000000001,-0.7000000000000001,3.0000000000000004,-3.0000000000000004,0.1
1698413652821.0,16,-0.1,0.0,0.1,-0.6000000000000001,9.5,-0.7000000000000001,3.0000000000000004,-4.5,0.2
1698413652838.0,16,0.0,0.0,0.0,-0.5,9.4,-0.7000000000000001,2.7,-5.7,0.30000000000000004
1698413652855.0,16,0.1,-0.1,0.1,-0.4,9.4,-0.7000000000000001,3.2,-6.1000000000000005,0.1
1698413652871.0,16,0.1,-0.1,0.0,-0.30000000000000004,9.4,-0.8,4.1000000000000005,-6.1000000000000005,-0.4
1698413652888.0,16,0.1,-0.1,0.1,-0.4,9.4,-0.6000000000000001,4.6000000000000005,-6.9,-1.0
1698413652904.0,16,0.1,-0.1,0.0,-0.4,9.3,-0.7000000000000001,5.1,-5.7,-1.0999999999999999
1698413652921.0,16,0.2,-0.2,0.0,-0.30000000000000004,9.3,-0.8,5.500000000000001,-7.6,-1.5000000000000002
1698413652938.0,16,0.1,-0.1,0.0,-0.30000000000000004,9.4,-0.7000000000000001,6.4,-7.500000000000001,-1.7
1698413652955.0,16,0.1,0.0,0.1,-0.4,9.4,-0.7000000000000001,7.6,-5.7,-1.0999999999999999
1698413652972.0,16,0.1,0.0,0.0,-0.4,9.4,-0.8,8.0,-5.1,-1.3
1698413652988.0,16,0.0,0.0,0.0,-0.4,9.4,-0.9,7.300000000000001,-3.9,-1.2000000000000002
1698413653006.0,16,0.1,0.0,0.0,-0.4,9.4,-0.9,6.6000000000000005,-4.6000000000000005,-1.3
1698413653022.0,16,0.0,0.1,0.0,-0.4,9.600000000000001,-0.9,9.3,-5.1,-0.8
1698413653038.0,16,0.1,0.0,0.0,-0.4,9.5,-1.0,9.4,-5.7,0.2
1698413653055.0,16,0.1,0.0,0.0,-0.4,9.5,-1.0,9.0,-6.4,0.8
1698413653071.0,16,0.1,0.1,0.0,-0.4,9.5,-0.9,9.1,-5.9,1.3
1698413653088.0,16,0.0,0.0,0.1,-0.4,9.4,-0.9,10.9,-3.8,2.1999999999999997
1698413653106.0,16,-0.1,-0.1,0.0,-0.6000000000000001,9.3,-1.0,9.600000000000001,-1.9,3.4
1698413653121.0,16,-0.2,-0.1,0.0,-0.6000000000000001,9.3,-1.0,8.700000000000001,-1.7,3.9
1698413653138.0,16,-0.2,-0.2,0.0,-0.6000000000000001,9.200000000000001,-1.1,9.200000000000001,-2.0,3.9
1698413653155.0,16,-0.2,-0.30000000000000004,0.0,-0.6000000000000001,9.1,-1.0,9.8,-1.5000000000000002,4.300000000000001
1698413653171.0,16,-0.1,-0.2,0.1,-0.6000000000000001,9.200000000000001,-1.0,12.5,-0.1,5.300000000000001
1698413653188.0,16,-0.1,-0.2,0.1,-0.5,9.200000000000001,-1.1,12.000000000000002,3.3000000000000003,5.300000000000001
1698413653204.0,16,0.0,-0.1,0.0,-0.5,9.3,-1.1,10.5,5.4,6.9
1698413653222.0,16,0.0,0.0,0.1,-0.4,9.4,-1.1,10.700000000000001,6.2,6.9
1698413653238.0,16,0.0,0.30000000000000004,0.0,-0.4,9.700000000000001,-1.2000000000000002,13.200000000000001,9.600000000000001,7.1000000000000005
1698413653255.0,16,0.1,0.2,-0.2,-0.30000000000000004,9.600000000000001,-1.5,13.0,10.4,7.400000000000001
1698413653271.0,16,-0.2,0.30000000000000004,-0.1,-0.5,9.700000000000001,-1.4000000000000001,13.4,15.100000000000001,9.600000000000001
1698413653288.0,16,-0.2,0.5,-0.1,-0.5,9.9,-1.5,19.200000000000003,18.8,10.2
1698413653306.0,16,-0.1,0.1,0.0,-0.4,9.700000000000001,-1.4000000000000001,14.600000000000001,19.6,9.4
1698413653322.0,16,-0.1,0.0,0.1,-0.30000000000000004,9.4,-1.3,10.3,20.5,9.600000000000001
1698413653339.0,16,-0.2,0.1,0.0,-0.4,9.4,-1.4000000000000001,5.6,20.7,8.799999999999999
1698413653355.0,16,-0.2,0.0,-0.2,-0.30000000000000004,9.4,-1.7000000000000002,4.7,19.500000000000004,8.4
1698413653371.0,16,-0.2,-0.1,-0.2,-0.30000000000000004,9.200000000000001,-1.7000000000000002,5.1,18.5,8.200000000000001
1698413653388.0,16,-0.30000000000000004,-0.1,-0.4,-0.4,9.3,-1.9000000000000001,6.000000000000001,15.7,9.700000000000001
1698413653405.0,16,-0.30000000000000004,-0.1,-0.4,-0.4,9.200000000000001,-1.8,4.9,12.8,10.4
1698413653422.0,16,-0.4,-0.30000000000000004,-0.2,-0.5,9.0,-1.7000000000000002,3.9,10.4,10.4
1698413653438.0,16,-0.5,-0.5,-0.4,-0.5,8.9,-2.0,6.2,8.1,10.5
1698413653455.0,16,-0.4,-0.6000000000000001,-0.5,-0.2,8.700000000000001,-2.1,6.6000000000000005,5.1,9.9
1698413653472.0,16,-0.1,-0.4,-0.4,-0.1,8.9,-2.0,8.4,-0.30000000000000004,7.6
1698413653488.0,16,0.2,0.2,-0.4,0.2,9.5,-2.0,12.3,-5.300000000000001,6.6000000000000005
1698413653505.0,16,0.30000000000000004,0.30000000000000004,-0.4,0.5,9.700000000000001,-1.9000000000000001,13.8,-7.0,6.8
1698413653521.0,16,0.5,0.4,0.0,0.6000000000000001,9.700000000000001,-1.7000000000000002,15.299999999999999,-11.2,7.699999999999999
1698413653538.0,16,0.4,0.4,-0.4,0.5,9.700000000000001,-2.1,14.100000000000001,-13.0,10.3
1698413653555.0,16,0.5,0.30000000000000004,-0.2,0.7000000000000001,9.600000000000001,-2.0,7.400000000000001,-13.9,10.3
1698413653571.0,16,0.4,0.4,-0.4,0.6000000000000001,9.700000000000001,-2.2,7.300000000000001,-12.5,10.8
1698413653588.0,16,0.30000000000000004,0.4,-0.6000000000000001,0.5,9.700000000000001,-2.4000000000000004,8.0,-14.900000000000002,11.6
1698413653605.0,16,0.30000000000000004,0.4,-0.5,0.5,9.5,-2.3000000000000003,7.300000000000001,-17.8,11.000000000000002
1698413653622.0,16,0.1,0.2,-0.2,0.30000000000000004,9.5,-2.1,6.4,-18.6,11.6
1698413653638.0,16,0.1,0.4,-0.2,0.30000000000000004,9.700000000000001,-2.1,5.7,-20.1,11.5
1698413653655.0,16,0.0,0.30000000000000004,-0.30000000000000004,0.2,9.600000000000001,-2.1,4.0,-20.5,9.600000000000001
1698413653671.0,16,0.0,0.2,0.0,0.2,9.5,-1.9000000000000001,2.6,-21.200000000000003,7.500000000000001
1698413653688.0,16,-0.30000000000000004,0.4,0.2,0.0,9.600000000000001,-1.7000000000000002,1.4,-18.900000000000002,9.0
1698413653704.0,16,-0.2,0.30000000000000004,0.0,0.2,9.600000000000001,-2.0,-3.9,-17.200000000000003,7.8
1698413653722.0,16,-0.1,0.2,0.4,0.30000000000000004,9.5,-1.6,-6.2,-13.700000000000001,6.9
1698413653738.0,16,0.0,0.2,0.30000000000000004,0.30000000000000004,9.5,-1.6,-4.7,-3.7000000000000006,7.400000000000001
1698413653755.0,16,0.1,0.1,0.2,0.5,9.4,-1.7000000000000002,-6.2,1.4,6.9
1698413653771.0,16,0.2,-0.1,0.0,0.6000000000000001,9.200000000000001,-1.9000000000000001,-12.3,11.5,5.7
1698413653788.0,16,0.1,-0.1,-0.4,0.5,9.200000000000001,-2.2,-11.3,18.3,5.300000000000001
1698413653805.0,16,0.1,0.1,-0.6000000000000001,0.5,9.4,-2.4000000000000004,-12.9,18.7,4.3999999999999995
1698413653822.0,16,0.0,0.0,-0.5,0.4,9.3,-2.2,-14.500000000000002,19.1,3.4
1698413653838.0,16,0.2,-0.1,-0.5,0.6000000000000001,9.3,-2.2,-12.8,17.8,1.8
1698413653855.0,16,0.0,0.0,-0.5,0.5,9.4,-2.2,-16.2,20.4,0.5
1698413653872.0,16,0.30000000000000004,0.0,-0.30000000000000004,0.7000000000000001,9.3,-2.0,-17.599999999999998,19.200000000000003,-0.1
1698413653888.0,16,0.2,0.2,0.0,0.7000000000000001,9.5,-1.6,-17.599999999999998,21.400000000000002,-2.1
1698413653905.0,16,0.1,0.1,0.2,0.6000000000000001,9.5,-1.3,-15.8,19.500000000000004,-2.6
1698413653922.0,16,0.0,0.1,0.6000000000000001,0.5,9.5,-0.9,-13.0,17.599999999999998,-3.3000000000000003
1698413653938.0,16,-0.30000000000000004,-0.1,0.7000000000000001,0.1,9.3,-0.7000000000000001,-2.1,8.0,-3.4
1698413653955.0,16,-0.30000000000000004,-0.2,0.9,0.1,9.200000000000001,-0.6000000000000001,8.5,1.0,-3.9
1698413653972.0,16,-0.2,-0.30000000000000004,1.1,0.30000000000000004,9.1,-0.4,11.9,0.6000000000000001,-4.3999999999999995
1698413653989.0,16,0.4,-0.4,0.6000000000000001,0.9,9.0,-0.9,23.1,-0.1,-4.800000000000001
1698413654005.0,16,0.8,-0.6000000000000001,0.4,1.2000000000000002,8.700000000000001,-1.2000000000000002,27.7,-0.8,-5.6
1698413654021.0,16,0.6000000000000001,-0.4,0.0,0.9,9.1,-1.9000000000000001,30.000000000000004,-1.8,-3.4
1698413654038.0,16,0.4,-0.2,-0.4,0.8,9.1,-2.2,27.400000000000002,-3.3000000000000003,-2.1999999999999997
1698413654055.0,16,0.2,-0.2,-0.5,0.6000000000000001,9.0,-2.4000000000000004,22.4,-1.0,-3.1
1698413654072.0,16,0.2,-0.2,-0.7000000000000001,0.6000000000000001,9.1,-2.6,21.0,-0.1,-3.5
1698413654089.0,16,0.2,-0.1,-0.7000000000000001,0.6000000000000001,9.200000000000001,-2.7,17.9,2.1999999999999997,-4.800000000000001
1698413654106.0,16,0.1,0.0,-0.8,0.5,9.3,-2.9000000000000004,14.600000000000001,1.3,-5.8
1698413654122.0,16,0.1,-0.1,-0.8,0.4,9.200000000000001,-2.9000000000000004,13.0,3.1,-6.6000000000000005
1698413654139.0,16,0.2,-0.2,-0.8,0.6000000000000001,9.0,-2.9000000000000004,8.799999999999999,2.3000000000000003,-8.4
1698413654155.0,16,0.4,-0.2,-0.7000000000000001,0.7000000000000001,9.1,-2.8000000000000003,6.5,1.3,-12.3
1698413654171.0,16,0.8,-0.2,-0.6000000000000001,1.0,9.1,-2.8000000000000003,2.4000000000000004,-2.6,-17.599999999999998
1698413654188.0,16,1.1,-0.4,-0.5,1.3,8.9,-2.6,0.0,-4.0,-20.1
1698413654205.0,16,0.5,-0.30000000000000004,-0.1,0.7000000000000001,8.9,-2.2,-3.0000000000000004,-3.7000000000000006,-20.7
1698413654221.0,16,0.1,0.2,-0.2,0.2,9.5,-2.3000000000000003,-7.9,-8.600000000000001,-17.0
1698413654239.0,16,0.1,0.1,0.30000000000000004,0.2,9.3,-1.8,-7.300000000000001,-9.3,-16.3
1698413654255.0,16,-0.6000000000000001,0.5,0.0,-0.6000000000000001,9.8,-2.1,-6.7,-12.9,-15.2
1698413654271.0,16,-0.30000000000000004,0.30000000000000004,0.2,-0.4,9.5,-1.9000000000000001,-6.5,-14.600000000000001,-16.900000000000002
1698413654288.0,16,-0.5,0.30000000000000004,0.30000000000000004,-0.6000000000000001,9.5,-1.7000000000000002,-5.1,-13.100000000000001,-15.9
1698413654306.0,16,-0.8,0.4,0.30000000000000004,-0.9,9.700000000000001,-1.7000000000000002,-3.1,-15.5,-14.500000000000002
1698413654321.0,16,-0.2,0.1,0.2,-0.4,9.4,-1.8,-2.1,-14.500000000000002,-14.700000000000001
1698413654338.0,16,-0.1,0.0,0.30000000000000004,-0.4,9.3,-1.7000000000000002,-1.7,-13.3,-14.200000000000001
1698413654355.0,16,-0.1,0.0,0.2,-0.4,9.3,-1.8,-0.5,-13.100000000000001,-13.4
1698413654371.0,16,-0.2,-0.2,-0.1,-0.5,9.1,-2.1,0.1,-9.3,-11.700000000000001
1698413654388.0,16,-0.2,-0.1,0.0,-0.6000000000000001,9.200000000000001,-2.0,-0.2,-9.8,-10.2
1698413654405.0,16,-0.30000000000000004,-0.1,0.1,-0.7000000000000001,9.200000000000001,-1.9000000000000001,-1.5000000000000002,-8.4,-8.1
1698413654422.0,16,-0.1,0.1,0.30000000000000004,-0.5,9.3,-1.7000000000000002,3.5,-10.4,-5.500000000000001
1698413654438.0,16,0.0,0.1,0.0,-0.5,9.4,-2.0,4.800000000000001,-9.3,-5.0
1698413654455.0,16,-0.2,0.0,-0.1,-0.6000000000000001,9.3,-2.2,1.3,-6.3,-5.1
1698413654471.0,16,-0.2,0.0,-0.1,-0.7000000000000001,9.200000000000001,-2.1,0.1,-7.400000000000001,-4.800000000000001
1698413654488.0,16,-0.2,-0.1,-0.2,-0.6000000000000001,9.200000000000001,-2.2,0.30000000000000004,-9.3,-3.0000000000000004
1698413654505.0,16,-0.1,-0.1,-0.1,-0.6000000000000001,9.200000000000001,-2.2,-1.3,-6.5,-2.0
1698413654521.0,16,0.1,0.1,-0.30000000000000004,-0.4,9.3,-2.3000000000000003,-2.5,-5.4,-1.9
1698413654538.0,16,0.1,0.1,-0.1,-0.4,9.4,-2.1,-1.4,-7.300000000000001,-2.3000000000000003
1698413654555.0,16,0.0,0.2,-0.4,-0.5,9.4,-2.4000000000000004,-0.30000000000000004,-6.7,-1.7
1698413654572.0,16,0.0,0.1,-0.1,-0.6000000000000001,9.4,-2.1,-2.6,-7.2,-2.1
1698413654588.0,16,0.0,0.0,-0.1,-0.6000000000000001,9.3,-2.1,-2.5,-4.300000000000001,-2.3000000000000003
1698413654605.0,16,0.2,0.1,-0.30000000000000004,-0.4,9.4,-2.3000000000000003,-2.3000000000000003,-8.0,-4.0
1698413654622.0,16,0.1,0.1,0.0,-0.4,9.3,-2.0,-2.0,-3.5,-3.9
1698413654638.0,16,0.1,0.1,-0.2,-0.5,9.3,-2.2,-5.1,0.4,-3.7000000000000006
1698413654656.0,16,0.0,0.1,-0.4,-0.6000000000000001,9.4,-2.4000000000000004,-4.7,1.6,-5.300000000000001
1698413654672.0,16,0.2,0.30000000000000004,0.5,-0.6000000000000001,9.4,-2.1,-5.4,0.7,-6.4
1698413654689.0,16,0.30000000000000004,0.4,0.2,-0.30000000000000004,9.700000000000001,-1.8,-4.9,5.2,-9.5
1698413654705.0,16,0.4,0.7000000000000001,-0.5,-0.2,10.0,-2.5,-8.600000000000001,11.2,-13.0
1698413654722.0,16,0.0,0.2,-0.4,-0.6000000000000001,9.600000000000001,-2.3000000000000003,-8.700000000000001,5.300000000000001,-13.200000000000001
1698413654739.0,16,-0.1,0.0,-0.30000000000000004,-0.8,9.3,-2.2,-8.200000000000001,1.8,-12.000000000000002
1698413654755.0,16,0.0,0.0,-0.6000000000000001,-0.8,9.3,-2.5,-11.9,2.4000000000000004,-10.600000000000001
1698413654772.0,16,0.1,0.0,-0.4,-0.7000000000000001,9.3,-2.3000000000000003,-14.500000000000002,-1.4,-7.6
1698413654789.0,16,0.0,-0.2,-0.5,-0.8,9.1,-2.3000000000000003,-14.4,-0.2,-4.0
1698413654805.0,16,0.0,-0.4,-0.30000000000000004,-0.8,8.9,-2.1,-14.500000000000002,-1.4,-2.3000000000000003
1698413654821.0,16,0.1,-0.1,0.1,-0.7000000000000001,9.200000000000001,-1.7000000000000002,-12.3,-0.2,0.0
1698413654838.0,16,0.0,0.0,0.30000000000000004,-0.7000000000000001,9.200000000000001,-1.8,-10.9,3.4,2.4000000000000004
1698413654855.0,16,0.0,-0.5,-0.5,-0.7000000000000001,8.9,-2.2,-11.1,2.8,4.1000000000000005
1698413654872.0,16,-0.2,-0.5,-0.1,-0.9,8.9,-1.8,-2.6,-1.7,3.6
1698413654888.0,16,-0.30000000000000004,-0.4,-0.1,-1.1,8.9,-1.8,2.1,-0.6000000000000001,1.5000000000000002
1698413654905.0,16,-0.1,-0.6000000000000001,0.4,-0.8,8.700000000000001,-1.3,1.6,1.9,-0.30000000000000004
1698413654922.0,16,-0.1,-0.5,0.0,-0.8,8.9,-1.7000000000000002,1.3,5.9,-0.6000000000000001
1698413654939.0,16,-0.2,-0.5,0.0,-1.0,9.0,-1.7000000000000002,1.7,4.9,-0.4
1698413654955.0,16,-0.30000000000000004,0.0,0.1,-1.1,9.3,-1.6,5.1,1.5000000000000002,-0.1
1698413654972.0,16,-0.2,0.7000000000000001,0.1,-1.0,10.0,-1.6,5.9,-2.4000000000000004,1.0999999999999999
1698413654989.0,16,-0.1,0.9,0.30000000000000004,-0.8,10.200000000000001,-1.4000000000000001,5.9,-4.1000000000000005,0.9
1698413655006.0,16,0.30000000000000004,0.9,0.5,-0.4,10.3,-1.2000000000000002,6.000000000000001,-3.5,0.4
1698413655021.0,16,0.4,0.7000000000000001,0.6000000000000001,-0.4,10.0,-1.2000000000000002,1.8,-3.3000000000000003,0.5
1698413655039.0,16,0.4,0.6000000000000001,0.7000000000000001,-0.4,9.9,-1.1,-1.2000000000000002,-5.4,0.30000000000000004
1698413655055.0,16,0.30000000000000004,0.30000000000000004,0.7000000000000001,-0.4,9.700000000000001,-1.1,-2.5,-3.5,0.0
1698413655071.0,16,0.0,0.0,0.8,-0.8,9.3,-0.9,-6.7,-4.2,0.7
1698413655089.0,16,-0.1,-0.1,0.8,-0.9,9.200000000000001,-0.9,-7.500000000000001,-4.6000000000000005,0.7
1698413655105.0,16,-0.2,-0.2,0.6000000000000001,-1.0,9.200000000000001,-1.0,-8.3,-2.4000000000000004,-1.0999999999999999
1698413655121.0,16,-0.4,-0.30000000000000004,0.30000000000000004,-1.1,9.1,-1.3,-9.600000000000001,-4.7,-3.3000000000000003
1698413655138.0,16,-0.4,-0.6000000000000001,-0.1,-1.2000000000000002,8.700000000000001,-1.7000000000000002,-7.500000000000001,-5.300000000000001,-4.6000000000000005
1698413655155.0,16,-0.2,-0.7000000000000001,-0.1,-1.0,8.6,-1.7000000000000002,-7.0,-9.5,-4.9
1698413655171.0,16,0.0,-0.7000000000000001,0.1,-0.8,8.700000000000001,-1.4000000000000001,-1.8,-7.1000000000000005,-4.300000000000001
1698413655190.0,16,0.4,-0.1,0.0,-0.5,9.200000000000001,-1.6,3.5,-6.3,-3.9
1698413655205.0,16,0.4,-0.1,0.1,-0.5,9.3,-1.5,3.6,-4.0,-3.7000000000000006
1698413655221.0,16,0.0,0.0,-0.4,-0.8,9.3,-2.0,3.1,5.9,-1.8
1698413655238.0,16,-0.2,0.30000000000000004,-0.6000000000000001,-1.0,9.700000000000001,-2.2,10.8,7.6,-0.5
1698413655255.0,16,-0.30000000000000004,0.4,-0.30000000000000004,-1.1,9.700000000000001,-1.9000000000000001,12.000000000000002,8.799999999999999,0.2
1698413655271.0,16,-0.30000000000000004,0.5,-0.5,-1.1,9.8,-2.2,3.6,8.600000000000001,0.8
1698413655289.0,16,-0.1,0.30000000000000004,-0.4,-0.9,9.600000000000001,-2.1,5.7,3.1,0.2
1698413655305.0,16,0.0,0.1,-0.6000000000000001,-0.9,9.5,-2.3000000000000003,5.7,2.6,0.0
1698413655322.0,16,0.0,0.2,-0.5,-0.9,9.600000000000001,-2.2,-1.2000000000000002,0.30000000000000004,-0.9
1698413655339.0,16,-0.1,0.4,-0.7000000000000001,-0.9,9.700000000000001,-2.4000000000000004,-3.6,-3.7000000000000006,-2.1
1698413655356.0,16,-0.1,0.5,-0.5,-1.0,9.9,-2.2,-5.7,-5.2,-2.1
1698413655372.0,16,0.0,0.7000000000000001,-0.6000000000000001,-0.8,10.100000000000001,-2.3000000000000003,-9.1,-5.4,-2.5
1698413655388.0,16,0.1,1.0,-0.30000000000000004,-0.8,10.4,-1.9000000000000001,-14.200000000000001,-2.4000000000000004,-1.9
1698413655405.0,16,0.1,1.1,-0.30000000000000004,-0.7000000000000001,10.4,-1.9000000000000001,-17.599999999999998,0.2,-0.30000000000000004
1698413655422.0,16,0.0,0.30000000000000004,-0.30000000000000004,-0.9,9.700000000000001,-1.9000000000000001,-20.6,0.2,2.0
1698413655439.0,16,-0.1,0.1,-0.2,-1.0,9.5,-1.6,-19.6,-2.1,3.0000000000000004
1698413655455.0,16,0.0,0.1,-0.30000000000000004,-0.8,9.5,-1.7000000000000002,-20.0,-2.9,3.8
1698413655471.0,16,0.1,-0.30000000000000004,0.0,-0.7000000000000001,9.1,-1.4000000000000001,-19.700000000000003,-1.8,4.7
1698413655488.0,16,0.1,-0.1,-0.1,-0.7000000000000001,9.3,-1.4000000000000001,-18.400000000000002,-4.5,8.5
1698413655505.0,16,0.2,-0.2,0.0,-0.6000000000000001,9.200000000000001,-1.3,-16.400000000000002,-7.1000000000000005,9.9
1698413655522.0,16,0.30000000000000004,-0.2,0.2,-0.5,9.200000000000001,-1.0,-18.1,-7.9,8.1
1698413655538.0,16,0.5,-0.1,0.0,-0.2,9.4,-1.2000000000000002,-17.1,-6.5,6.5
1698413655555.0,16,0.6000000000000001,0.1,-0.30000000000000004,-0.1,9.600000000000001,-1.5,-16.400000000000002,-4.3999999999999995,6.4
1698413655571.0,16,0.30000000000000004,0.4,-0.4,-0.4,9.9,-1.5,-20.7,2.5,11.8
1698413655590.0,16,-0.30000000000000004,0.30000000000000004,-0.5,-1.0,9.700000000000001,-1.6,-19.1,-0.4,17.200000000000003
1698413655605.0,16,-0.7000000000000001,0.2,-0.6000000000000001,-1.4000000000000001,9.700000000000001,-1.6,-22.3,-0.5,18.7
1698413655622.0,16,-1.1,-0.9,-0.30000000000000004,-1.7000000000000002,8.6,-1.2000000000000002,-21.700000000000003,0.30000000000000004,19.8
1698413655638.0,16,-0.4,-0.7000000000000001,-0.4,-0.9,8.8,-1.3,-7.500000000000001,8.799999999999999,12.8
1698413655656.0,16,-0.1,-0.8,-0.1,-0.5,8.700000000000001,-0.9,2.4000000000000004,14.0,5.7
1698413655671.0,16,0.0,-0.7000000000000001,0.0,-0.5,8.8,-0.9,3.7000000000000006,16.1,6.5
1698413655688.0,16,-0.1,-0.7000000000000001,0.0,-0.7000000000000001,8.700000000000001,-0.9,2.7,17.8,8.3
1698413655705.0,16,-0.4,-0.9,0.2,-0.8,8.6,-0.7000000000000001,5.500000000000001,13.6,8.9
1698413655721.0,16,-0.6000000000000001,-0.6000000000000001,0.0,-1.0,8.9,-1.0,8.4,15.000000000000002,7.9
1698413655738.0,16,-0.7000000000000001,-0.30000000000000004,0.4,-1.1,9.1,-0.5,7.6,7.9,8.700000000000001
1698413655756.0,16,-0.5,-0.30000000000000004,0.6000000000000001,-0.6000000000000001,9.200000000000001,-0.4,8.200000000000001,7.1000000000000005,8.3
1698413655771.0,16,-0.2,-0.1,0.8,-0.6000000000000001,9.4,-0.2,6.000000000000001,5.7,8.5
1698413655788.0,16,0.1,0.1,1.0,-0.2,9.600000000000001,0.0,4.3999999999999995,8.5,8.0
1698413655805.0,16,0.30000000000000004,0.2,0.8,0.0,9.700000000000001,-0.2,1.6,7.699999999999999,6.4
1698413655821.0,16,0.4,0.2,1.0,0.1,9.700000000000001,0.0,1.0999999999999999,6.6000000000000005,6.000000000000001
1698413655838.0,16,0.2,0.4,0.8,-0.1,9.8,-0.2,-1.4,8.200000000000001,6.5
1698413655855.0,16,0.30000000000000004,0.4,0.9,0.0,9.9,-0.1,-6.1000000000000005,2.4000000000000004,8.9
1698413655871.0,16,0.4,0.30000000000000004,0.9,0.2,9.8,0.0,-7.500000000000001,3.8,9.700000000000001
1698413655890.0,16,0.5,0.2,1.0,0.4,9.700000000000001,0.0,-8.600000000000001,6.8,10.700000000000001
1698413655905.0,16,0.4,0.30000000000000004,0.5,0.30000000000000004,9.8,-0.4,-10.2,4.300000000000001,11.4
1698413655922.0,16,0.2,0.4,0.6000000000000001,0.2,9.8,-0.30000000000000004,-10.0,4.9,12.200000000000001
1698413655938.0,16,0.2,0.0,0.5,0.2,9.5,-0.30000000000000004,-10.5,3.5,12.6
1698413655955.0,16,0.6000000000000001,0.0,0.1,0.6000000000000001,9.5,-0.7000000000000001,-14.800000000000002,10.1,11.4
1698413655971.0,16,0.7000000000000001,0.0,-0.1,0.7000000000000001,9.5,-0.9,-16.6,14.800000000000002,10.700000000000001
1698413655990.0,16,0.2,0.4,-0.6000000000000001,0.30000000000000004,9.9,-1.3,-15.299999999999999,12.5,11.5
1698413656005.0,16,-0.1,-0.1,-0.1,0.0,9.4,-0.8,-20.900000000000002,7.8,14.3
1698413656021.0,16,-0.1,0.30000000000000004,-0.1,0.1,9.8,-0.7000000000000001,-18.2,10.9,15.100000000000001
1698413656038.0,16,0.1,0.9,-0.4,0.30000000000000004,10.4,-1.0,-16.5,12.5,14.3
1698413656055.0,16,0.0,0.0,-1.4000000000000001,0.30000000000000004,9.5,-2.0,0.2,14.800000000000002,10.700000000000001
1698413656072.0,16,0.0,0.1,-0.4,0.30000000000000004,9.600000000000001,-1.0,6.5,14.0,9.700000000000001
1698413656088.0,16,-0.1,0.4,-1.2000000000000002,0.2,10.0,-1.7000000000000002,-10.9,21.8,11.3
1698413656105.0,16,-0.2,0.30000000000000004,-1.7000000000000002,0.2,9.9,-2.2,-11.3,14.500000000000002,10.5
1698413656121.0,16,-0.2,0.0,-1.8,0.1,9.600000000000001,-2.3000000000000003,-19.400000000000002,10.600000000000001,10.9
1698413656138.0,16,-0.6000000000000001,0.8,-1.5,-0.2,10.3,-1.9000000000000001,-27.7,4.2,14.200000000000001
1698413656155.0,16,-0.6000000000000001,0.5,-1.2000000000000002,-0.2,10.100000000000001,-1.5,-37.2,-9.700000000000001,16.5
1698413656171.0,16,-0.5,0.5,-1.4000000000000001,0.0,10.100000000000001,-1.7000000000000002,-41.800000000000004,-11.6,17.7
1698413656189.0,16,0.2,0.7000000000000001,-1.2000000000000002,0.7000000000000001,10.3,-1.3,-49.0,-19.700000000000003,19.400000000000002
1698413656205.0,16,0.30000000000000004,0.6000000000000001,-1.2000000000000002,1.0,10.100000000000001,-1.1,-55.4,-14.500000000000002,23.2
1698413656222.0,16,0.0,0.5,-0.5,0.6000000000000001,10.100000000000001,-0.30000000000000004,-59.5,-11.8,26.700000000000003
1698413656239.0,16,0.1,0.4,-1.6,0.9,10.0,-1.2000000000000002,-65.89999999999999,-0.4,28.700000000000003
1698413656255.0,16,0.2,0.7000000000000001,-1.2000000000000002,1.0,10.3,-0.7000000000000001,-63.50000000000001,17.0,28.700000000000003
1698413656271.0,16,0.1,1.3,-0.7000000000000001,0.9,10.8,-0.1,-53.2,17.9,30.5
1698413656290.0,16,-0.4,1.2000000000000002,-0.30000000000000004,0.6000000000000001,10.700000000000001,0.5,-60.20000000000001,26.6,27.3
1698413656305.0,16,-0.2,1.0,-0.9,0.8,10.5,0.2,-69.2,29.200000000000003,24.5
1698413656322.0,16,-0.5,0.7000000000000001,-1.0,0.4,10.200000000000001,0.7000000000000001,-71.4,32.7,22.5
1698413656339.0,16,-0.9,0.8,-0.6000000000000001,0.2,10.200000000000001,0.8,-71.2,41.0,18.1
1698413656355.0,16,-0.8,0.4,-1.5,0.4,9.8,0.2,-80.8,38.6,13.200000000000001
1698413656371.0,16,-0.6000000000000001,-0.30000000000000004,-1.1,0.4,8.4,0.4,-80.2,32.4,6.3
1698413656389.0,16,-1.1,-1.1,-1.2000000000000002,0.0,8.3,0.9,-76.9,27.5,5.300000000000001
1698413656405.0,16,-0.8,-0.5,-0.2,0.30000000000000004,8.8,2.1,-67.2,21.8,1.0999999999999999
1698413656421.0,16,0.4,0.9,1.0,1.5,10.100000000000001,3.6,-67.5,15.5,-0.30000000000000004
1698413656438.0,16,0.7000000000000001,1.3,1.5,1.8,10.5,4.2,-63.6,15.100000000000001,0.2
1698413656455.0,16,0.4,1.8,0.9,1.4000000000000001,10.9,3.8000000000000003,-64.0,23.900000000000002,-0.1
1698413656472.0,16,0.4,2.1,0.6000000000000001,1.4000000000000001,11.200000000000001,3.6,-63.800000000000004,23.1,-1.2000000000000002
1698413656489.0,16,0.6000000000000001,3.0,0.30000000000000004,1.6,12.100000000000001,3.5,-58.1,18.900000000000002,-8.5
1698413656505.0,16,0.8,3.5,-0.4,1.8,12.5,2.9000000000000004,-64.60000000000001,21.400000000000002,-15.399999999999999
1698413656522.0,16,1.1,2.4000000000000004,-0.30000000000000004,1.9000000000000001,11.4,3.2,-61.900000000000006,26.400000000000002,-19.700000000000003
1698413656539.0,16,1.3,1.9000000000000001,-0.7000000000000001,2.1,10.8,3.0,-62.300000000000004,29.200000000000003,-19.200000000000003
1698413656555.0,16,0.7000000000000001,-0.8,-0.1,1.4000000000000001,8.1,3.8000000000000003,-57.00000000000001,32.1,-20.7
1698413656571.0,16,-0.1,-1.7000000000000002,-0.2,0.6000000000000001,7.1000000000000005,3.7,-55.1,37.1,-18.6
1698413656590.0,16,-0.8,-1.4000000000000001,-0.1,-0.2,7.4,4.0,-49.3,36.3,-19.400000000000002
1698413656605.0,16,-0.5,-1.2000000000000002,-0.1,0.0,7.5,4.1000000000000005,-41.800000000000004,29.400000000000002,-17.3
1698413656622.0,16,0.2,-2.3000000000000003,0.1,0.6000000000000001,6.4,4.5,-35.7,25.5,-10.600000000000001
1698413656639.0,16,0.2,-2.3000000000000003,0.0,0.6000000000000001,6.300000000000001,4.4,-32.4,22.8,-9.200000000000001
1698413656655.0,16,-0.6000000000000001,-2.5,0.4,-0.30000000000000004,6.0,4.9,-22.7,15.000000000000002,-1.7
1698413656672.0,16,-1.4000000000000001,-2.5,0.8,-1.1,6.0,5.300000000000001,-23.3,6.2,4.6000000000000005
1698413656689.0,16,-1.5,-2.5,0.9,-1.2000000000000002,5.9,5.5,-20.7,3.9,6.4
1698413656707.0,16,-1.2000000000000002,-1.7000000000000002,1.1,-0.9,6.7,5.800000000000001,-14.200000000000001,-3.9,8.600000000000001
1698413656721.0,16,-0.1,-2.2,1.5,0.2,6.1000000000000005,6.2,-11.1,-17.3,8.700000000000001
1698413656739.0,16,-0.4,-2.2,1.6,-0.30000000000000004,6.4,6.300000000000001,-6.9,-16.700000000000003,10.0
1698413656755.0,16,-0.7000000000000001,-1.4000000000000001,1.5,-0.30000000000000004,6.9,6.300000000000001,-3.9,-20.6,12.9
1698413656771.0,16,0.4,-1.2000000000000002,1.3,1.0,7.2,6.0,-3.2,-23.3,13.8
1698413656789.0,16,0.7000000000000001,-1.2000000000000002,0.4,1.2000000000000002,7.1000000000000005,5.2,-7.0,-24.200000000000003,14.100000000000001
1698413656805.0,16,0.9,-1.1,1.2000000000000002,1.6,7.2,6.0,-10.0,-27.900000000000002,15.100000000000001
1698413656822.0,16,0.8,-0.5,1.1,1.6,7.800000000000001,6.0,-13.100000000000001,-19.0,18.5
1698413656839.0,16,1.2000000000000002,-0.5,1.1,2.0,7.7,5.9,-14.800000000000002,-18.8,19.700000000000003
1698413656855.0,16,1.0,-1.0,1.1,1.9000000000000001,7.2,6.0,-19.400000000000002,-15.000000000000002,19.9
1698413656872.0,16,1.1,-1.1,0.5,2.1,7.0,5.5,-21.6,-5.2,21.3
1698413656888.0,16,1.1,-1.1,0.5,2.1,7.0,5.5,-22.7,-2.3000000000000003,20.2
1698413656905.0,16,1.4000000000000001,-1.2000000000000002,0.4,2.5,6.800000000000001,5.5,-20.2,-7.500000000000001,17.400000000000002
1698413656922.0,16,-0.2,-0.7000000000000001,0.7000000000000001,1.0,7.2,5.800000000000001,-15.8,-6.5,22.900000000000002
1698413656938.0,16,0.30000000000000004,-0.6000000000000001,1.2000000000000002,1.5,7.4,6.300000000000001,-14.800000000000002,-5.6,23.700000000000003
1698413656956.0,16,1.5,-0.5,-0.1,2.7,7.4,5.1000000000000005,-14.800000000000002,5.9,22.6
1698413656972.0,16,1.1,-0.5,0.5,2.4000000000000004,7.4,5.800000000000001,-10.0,2.0,21.400000000000002
1698413656988.0,16,0.6000000000000001,-0.2,0.4,2.0,7.6000000000000005,5.7,-9.5,4.2,22.4
1698413657006.0,16,1.8,-0.9,0.6000000000000001,3.3000000000000003,6.9,5.800000000000001,-8.1,8.4,25.900000000000002
1698413657022.0,16,2.0,-1.0,-0.1,3.5,6.800000000000001,5.2,-9.8,17.9,30.200000000000003
1698413657038.0,16,1.8,-0.7000000000000001,0.2,3.3000000000000003,7.1000000000000005,5.5,-7.2,18.400000000000002,30.000000000000004
1698413657055.0,16,1.2000000000000002,0.2,0.6000000000000001,2.8000000000000003,8.0,6.0,-3.7000000000000006,25.3,31.3
1698413657071.0,16,1.5,0.1,0.5,3.1,7.800000000000001,5.9,-3.1,37.7,37.5
1698413657088.0,16,1.1,0.1,0.30000000000000004,2.8000000000000003,7.800000000000001,5.7,-2.7,42.800000000000004,41.800000000000004
1698413657105.0,16,0.4,0.7000000000000001,0.4,2.1,8.5,5.800000000000001,3.0000000000000004,45.4,42.1
1698413657121.0,16,-0.1,1.1,0.8,1.6,8.8,6.300000000000001,8.4,44.3,44.4
1698413657138.0,16,-0.5,0.7000000000000001,0.6000000000000001,2.1,8.1,6.300000000000001,9.200000000000001,44.9,44.8
1698413657155.0,16,1.2000000000000002,0.2,0.6000000000000001,3.0,7.9,6.1000000000000005,10.8,45.6,44.00000000000001
1698413657171.0,16,0.1,-0.1,0.2,1.9000000000000001,7.6000000000000005,5.7,12.700000000000001,44.6,44.6
1698413657189.0,16,-0.5,-0.2,-0.1,1.4000000000000001,7.5,5.4,18.5,39.1,45.1
1698413657206.0,16,0.7000000000000001,0.1,0.2,2.6,7.800000000000001,5.7,21.0,35.199999999999996,45.1
1698413657222.0,16,-0.1,-0.5,0.30000000000000004,1.8,7.2,5.6000000000000005,25.1,32.5,46.1
1698413657238.0,16,-0.2,-0.2,0.5,1.8,7.5,5.9,27.900000000000002,29.200000000000003,46.5
1698413657256.0,16,0.1,0.5,0.0,2.1,8.200000000000001,5.300000000000001,28.0,36.9,43.300000000000004
1698413657272.0,16,0.4,-1.1,0.0,2.5,6.7,5.2,34.300000000000004,30.9,36.800000000000004
1698413657289.0,16,0.1,-0.8,-0.1,1.6,7.7,5.7,33.7,25.6,32.9
1698413657306.0,16,-1.1,0.30000000000000004,0.7000000000000001,1.1,8.1,5.9,31.8,21.1,23.8
1698413657322.0,16,-1.8,-0.1,1.0,0.4,7.800000000000001,6.0,35.1,7.300000000000001,21.8
1698413657338.0,16,-1.6,0.2,0.5,0.6000000000000001,8.1,5.5,36.1,0.6000000000000001,20.7
1698413657355.0,16,-1.7000000000000002,0.2,0.2,0.5,8.1,5.1000000000000005,35.4,-1.8,19.6
1698413657371.0,16,-0.8,0.30000000000000004,0.1,1.5,8.3,4.800000000000001,40.6,-14.200000000000001,17.9
1698413657388.0,16,-0.8,0.30000000000000004,0.1,1.5,8.200000000000001,4.6000000000000005,40.6,-14.200000000000001,17.9
1698413657405.0,16,-1.1,-1.0,0.0,1.2000000000000002,7.1000000000000005,4.6000000000000005,45.5,-21.700000000000003,7.300000000000001
1698413657421.0,16,-1.2000000000000002,-1.3,0.4,1.1,6.800000000000001,4.9,43.50000000000001,-31.900000000000002,4.0
1698413657438.0,16,-0.8,-0.6000000000000001,-0.7000000000000001,1.6,7.6000000000000005,3.6,48.1,-36.7,3.1
1698413657455.0,16,-1.3,0.0,-0.4,1.2000000000000002,8.200000000000001,3.8000000000000003,49.3,-36.4,7.6
1698413657471.0,16,-1.9000000000000001,-0.7000000000000001,0.0,0.6000000000000001,7.6000000000000005,4.0,51.7,-49.7,10.600000000000001
1698413657488.0,16,-1.3,-1.3,-0.5,1.4000000000000001,7.1000000000000005,3.3000000000000003,56.1,-56.6,1.4
1698413657505.0,16,-1.1,-1.4000000000000001,-1.0,1.6,7.0,2.7,59.300000000000004,-56.0,-3.1
1698413657521.0,16,-0.8,-1.2000000000000002,-1.1,1.9000000000000001,7.2,2.4000000000000004,69.80000000000001,-60.1,-5.6
1698413657538.0,16,-1.1,-1.0,-1.1,1.2000000000000002,7.9,2.0,71.9,-59.60000000000001,-7.699999999999999
1698413657555.0,16,-1.6,-0.4,-1.0,1.2000000000000002,8.200000000000001,2.0,69.5,-66.7,-8.3
1698413657572.0,16,-0.8,-0.1,-0.4,2.0,8.6,2.4000000000000004,72.2,-67.9,-14.700000000000001
1698413657588.0,16,-0.7000000000000001,-0.4,-0.7000000000000001,2.1,8.4,1.7000000000000002,71.30000000000001,-69.2,-22.2
1698413657606.0,16,-0.1,-0.5,-1.1,2.7,8.200000000000001,1.2000000000000002,68.7,-72.8,-24.400000000000002
1698413657622.0,16,-0.6000000000000001,-0.1,-1.0,2.1,8.700000000000001,1.0,69.10000000000001,-62.0,-26.3
1698413657638.0,16,-0.9,-0.4,-1.0,1.8,8.5,0.8,67.80000000000001,-61.50000000000001,-30.7
1698413657655.0,16,-0.9,-0.4,-1.1,1.8,8.6,0.5,61.7,-50.5,-33.5
1698413657672.0,16,-1.0,0.30000000000000004,0.1,1.5,9.4,1.5,62.199999999999996,-44.9,-38.800000000000004
1698413657688.0,16,-0.8,0.30000000000000004,0.7000000000000001,1.6,9.4,1.8,54.2,-51.0,-45.2
1698413657705.0,16,-0.2,0.6000000000000001,0.6000000000000001,2.2,9.700000000000001,1.7000000000000002,51.7,-49.4,-44.3
1698413657721.0,16,0.9,0.2,0.0,3.1,9.4,0.8,52.1,-42.400000000000006,-46.4
1698413657738.0,16,1.3,-0.1,0.8,3.4000000000000004,9.200000000000001,1.5,45.9,-35.5,-37.300000000000004
1698413657755.0,16,1.9000000000000001,-0.1,1.0,4.0,9.1,1.6,39.2,-28.900000000000002,-38.5
1698413657772.0,16,0.6000000000000001,-0.30000000000000004,1.1,2.5,9.0,1.6,27.0,-29.1,-40.1
1698413657788.0,16,0.7000000000000001,0.30000000000000004,0.9,2.6,9.600000000000001,1.3,19.9,-32.7,-46.4
1698413657805.0,16,0.4,0.4,1.3,2.2,9.700000000000001,1.7000000000000002,16.5,-26.400000000000002,-48.800000000000004
1698413657821.0,16,-0.2,0.2,1.2000000000000002,1.3,9.5,1.5,7.699999999999999,-30.000000000000004,-49.6
1698413657838.0,16,-0.8,-1.4000000000000001,0.2,0.7000000000000001,8.0,0.6000000000000001,-3.6,-21.5,-55.900000000000006
1698413657855.0,16,0.30000000000000004,-2.5,0.2,1.6,6.9,0.6000000000000001,-6.000000000000001,-36.1,-49.4
1698413657871.0,16,-0.30000000000000004,-2.0,0.6000000000000001,0.9,7.4,1.0,-8.3,-45.1,-49.1
1698413657888.0,16,0.4,-2.0,-0.2,1.4000000000000001,7.4,0.2,-10.4,-45.5,-54.0
1698413657904.0,16,0.30000000000000004,-2.2,-0.1,1.2000000000000002,7.2,0.30000000000000004,-7.9,-39.8,-50.800000000000004
1698413657922.0,16,0.5,-2.1,-0.8,1.3,7.300000000000001,-0.4,-15.399999999999999,-33.400000000000006,-43.900000000000006
1698413657938.0,16,0.30000000000000004,-2.5,0.8,1.0,6.800000000000001,1.3,-16.2,-27.2,-46.0
1698413657955.0,16,0.4,-2.2,0.8,1.3,8.0,0.9,-15.7,-29.900000000000006,-46.5
1698413657973.0,16,0.5,-0.9,-0.2,1.0,8.4,0.30000000000000004,-10.700000000000001,-26.9,-46.1
1698413657988.0,16,1.3,0.0,-1.7000000000000002,1.6,9.4,-1.2000000000000002,-7.2,-20.8,-39.300000000000004
1698413658005.0,16,2.9000000000000004,0.30000000000000004,-1.1,3.2,9.600000000000001,-0.5,-5.1,-11.5,-39.6
1698413658022.0,16,1.8,0.8,0.1,2.0,10.200000000000001,0.7000000000000001,-10.0,2.4000000000000004,-37.900000000000006
1698413658038.0,16,0.30000000000000004,0.2,-0.6000000000000001,0.30000000000000004,9.600000000000001,0.0,-15.000000000000002,0.7,-36.800000000000004
1698413658055.0,16,-0.6000000000000001,1.8,-1.3,-0.7000000000000001,11.100000000000001,-0.6000000000000001,-7.2,-1.6,-34.7
1698413658071.0,16,-0.1,2.4000000000000004,-1.9000000000000001,-0.2,11.700000000000001,-1.3,-6.9,-4.300000000000001,-36.7
1698413658088.0,16,0.30000000000000004,2.2,-1.6,0.1,11.700000000000001,-0.9,-3.6,-2.7,-37.1
1698413658104.0,16,0.6000000000000001,1.8,-1.0,-0.1,11.200000000000001,-0.5,-5.8,2.7,-34.7
1698413658134.0,16,1.0,2.8000000000000003,-1.1,0.5,12.3,-0.5,-7.300000000000001,0.4,-31.900000000000002
1698413658138.0,16,0.4,2.8000000000000003,-1.4000000000000001,-0.1,12.200000000000001,-0.7000000000000001,-6.8,-3.2,-32.4
1698413658160.0,16,-0.2,1.6,-2.4000000000000004,-0.8,11.100000000000001,-1.7000000000000002,-8.700000000000001,-13.5,-26.0
1698413658176.0,16,-0.4,1.0,-0.5,-1.1,10.4,0.2,-15.000000000000002,-11.5,-22.6
1698413658188.0,16,-0.4,1.0,-0.30000000000000004,-1.1,10.4,0.4,-18.3,-12.100000000000001,-21.6
1698413658204.0,16,0.0,1.0,-0.4,-0.7000000000000001,10.5,0.4,-13.3,-14.100000000000001,-22.4
1698413658222.0,16,-0.30000000000000004,1.2000000000000002,-1.4000000000000001,-1.1,10.700000000000001,-0.6000000000000001,-10.600000000000001,-14.100000000000001,-21.1
1698413658238.0,16,0.30000000000000004,0.6000000000000001,-1.7000000000000002,-0.6000000000000001,10.0,-0.9,-7.9,-21.0,-15.8
1698413658254.0,16,0.5,0.5,-2.0,-0.4,9.9,-1.1,-9.9,-25.0,-13.9
1698413658271.0,16,0.6000000000000001,0.30000000000000004,-1.3,-0.4,9.8,-0.4,-12.200000000000001,-22.8,-12.200000000000001
1698413658290.0,16,0.9,-0.5,-1.0,0.0,8.9,-0.1,-13.9,-24.200000000000003,-11.6
1698413658307.0,16,0.5,-0.9,-0.5,-0.4,8.5,0.4,-6.4,-16.5,-11.2
1698413658321.0,16,0.7000000000000001,-1.0,-1.1,-0.2,8.4,-0.2,-5.500000000000001,-10.3,-10.0
1698413658339.0,16,0.8,-0.7000000000000001,-1.7000000000000002,-0.2,8.700000000000001,-0.8,-4.6000000000000005,-4.9,-10.0
1698413658355.0,16,0.4,-0.7000000000000001,-1.5,-0.6000000000000001,8.700000000000001,-0.5,-4.9,-3.4,-7.8
1698413658371.0,16,0.30000000000000004,-0.9,-1.4000000000000001,-0.8,8.5,-0.4,-6.7,-4.2,-6.2
1698413658388.0,16,0.5,-1.5,-1.4000000000000001,-0.5,7.9,-0.4,-7.500000000000001,-7.9,-5.1
1698413658404.0,16,0.6000000000000001,-0.9,-1.3,-0.5,8.5,-0.4,-4.6000000000000005,-9.0,-4.0
1698413658421.0,16,0.8,-1.4000000000000001,-1.4000000000000001,0.0,7.4,-0.7000000000000001,2.1999999999999997,-3.3000000000000003,-5.4
1698413658445.0,16,1.5,-2.1,-1.7000000000000002,0.4,7.2,-0.8,2.1999999999999997,-0.1,-6.2
1698413658454.0,16,1.3,-1.4000000000000001,-1.1,0.2,7.9,-0.2,-1.8,10.8,-7.500000000000001
1698413658471.0,16,1.1,-1.8,-1.2000000000000002,0.0,7.5,-0.30000000000000004,-3.9,9.8,-9.8
1698413658488.0,16,1.1,-1.5,-1.4000000000000001,-0.1,7.800000000000001,-0.5,-3.1,12.6,-12.000000000000002
1698413658504.0,16,1.8,-2.0,-1.6,0.6000000000000001,7.300000000000001,-0.7000000000000001,0.7,27.0,-3.6
1698413658522.0,16,2.3000000000000003,-2.5,-2.1,1.2000000000000002,6.7,-1.2000000000000002,6.8,38.400000000000006,-8.9
1698413658538.0,16,2.6,-2.5,-2.0,1.5,6.800000000000001,-1.1,9.3,44.3,-12.8
1698413658555.0,16,-2.7,3.8000000000000003,10.600000000000001,-3.9000000000000004,13.100000000000001,11.4,-2.8,82.0,-5.2
1698413658571.0,16,-6.2,9.9,-4.0,-7.5,19.200000000000003,-3.0,-79.2,-11.5,-2.0
1698413658588.0,16,-1.4000000000000001,0.2,-0.6000000000000001,-2.7,9.5,0.5,-54.4,-24.8,-2.3000000000000003
1698413658605.0,16,0.8,-2.2,0.30000000000000004,-0.4,7.1000000000000005,1.4000000000000001,13.4,2.0,13.4
1698413658621.0,16,2.5,3.6,0.30000000000000004,1.2000000000000002,12.9,1.4000000000000001,-17.3,53.400000000000006,-32.300000000000004
1698413658638.0,16,1.4000000000000001,3.8000000000000003,0.5,0.0,13.100000000000001,1.7000000000000002,-17.7,52.7,-41.9
1698413658655.0,16,2.1,-0.4,2.0,0.6000000000000001,8.8,3.3000000000000003,-18.3,31.7,-11.5
1698413658671.0,16,1.0,1.0,1.4000000000000001,-0.4,10.200000000000001,2.7,-16.700000000000003,25.2,3.2
1698413658688.0,16,-0.1,2.4000000000000004,1.2000000000000002,-1.5,11.600000000000001,2.5,-16.6,29.000000000000004,5.4
1698413658705.0,16,-1.7000000000000002,1.1,1.4000000000000001,-3.2,10.4,2.7,-13.3,48.50000000000001,9.700000000000001
1698413658721.0,16,-2.5,-0.7000000000000001,1.6,-3.9000000000000004,8.6,2.9000000000000004,-10.8,52.1,1.3
1698413658738.0,16,-1.9000000000000001,-1.6,1.6,-3.4000000000000004,7.6000000000000005,3.0,-8.200000000000001,55.0,-17.7
1698413658754.0,16,-0.7000000000000001,-0.1,1.7000000000000002,-2.4000000000000004,9.1,3.0,-1.8,55.2,-18.0
1698413658771.0,16,-0.5,-0.30000000000000004,1.2000000000000002,-2.1,9.0,2.6,5.2,52.900000000000006,-6.2
1698413658788.0,16,-0.6000000000000001,-0.5,1.1,-2.3000000000000003,8.8,2.4000000000000004,9.4,53.6,-2.1999999999999997
1698413658805.0,16,-0.9,-0.2,0.9,-2.7,9.1,2.1,15.6,55.4,-4.1000000000000005
1698413658821.0,16,-1.0,0.0,0.8,-3.0,9.5,1.9000000000000001,18.0,55.2,-6.1000000000000005
1698413658838.0,16,-1.4000000000000001,0.4,0.7000000000000001,-3.2,9.700000000000001,1.8,22.8,57.699999999999996,-6.7
1698413658855.0,16,-1.4000000000000001,0.30000000000000004,0.6000000000000001,-3.3000000000000003,9.600000000000001,1.6,25.400000000000002,56.7,-6.6000000000000005
1698413658871.0,16,-1.2000000000000002,0.1,0.5,-3.1,9.4,1.4000000000000001,28.400000000000002,56.5,-6.3
1698413658888.0,16,-1.2000000000000002,0.2,0.4,-3.1,9.5,1.2000000000000002,30.200000000000003,55.5,-4.9
1698413658905.0,16,-1.0,0.2,0.2,-3.0,9.5,0.8,33.1,53.50000000000001,-2.1
1698413658922.0,16,-1.2000000000000002,-0.1,0.1,-3.2,9.1,0.6000000000000001,32.9,52.0,-1.5000000000000002
1698413658938.0,16,-1.2000000000000002,-0.5,0.1,-3.2,8.8,0.5,32.4,50.7,-2.9
1698413658955.0,16,-1.7000000000000002,0.1,0.30000000000000004,-3.7,9.4,0.6000000000000001,29.700000000000003,50.7,-1.9
1698413658971.0,16,-1.4000000000000001,0.2,0.2,-3.5,9.5,0.4,28.700000000000003,52.1,-1.8
1698413658988.0,16,-1.4000000000000001,0.0,0.1,-3.4000000000000004,9.3,0.1,28.500000000000004,49.5,-2.6
1698413659005.0,16,-1.5,0.0,0.2,-3.6,9.3,0.2,26.500000000000004,45.2,-3.3000000000000003
1698413659021.0,16,-1.6,-0.1,0.2,-3.7,9.200000000000001,0.1,21.700000000000003,43.50000000000001,-1.0999999999999999
1698413659038.0,16,-1.6,-0.2,0.1,-3.8000000000000003,9.0,0.0,19.400000000000002,41.300000000000004,0.4
1698413659055.0,16,-1.7000000000000002,-0.30000000000000004,0.5,-3.9000000000000004,9.0,0.30000000000000004,18.7,36.9,2.1
1698413659071.0,16,-2.0,-0.4,0.5,-4.1000000000000005,8.9,0.2,18.5,34.2,3.7000000000000006
1698413659088.0,16,-1.8,-0.6000000000000001,0.6000000000000001,-3.9000000000000004,8.700000000000001,0.30000000000000004,18.1,30.4,3.8
1698413659105.0,16,-1.5,-0.7000000000000001,0.7000000000000001,-3.6,8.5,0.2,17.5,23.700000000000003,2.8
1698413659122.0,16,-1.5,-0.7000000000000001,1.0,-3.7,8.5,0.4,17.0,20.3,2.6
1698413659138.0,16,-1.5,-0.8,0.7000000000000001,-3.6,8.5,0.2,17.9,14.200000000000001,4.6000000000000005
1698413659155.0,16,-1.1,-0.7000000000000001,0.8,-3.2,8.6,0.2,17.7,9.5,5.8
1698413659171.0,16,-1.1,-0.7000000000000001,0.7000000000000001,-3.2,8.6,0.1,16.8,1.8,6.3
1698413659189.0,16,-1.0,-0.7000000000000001,0.7000000000000001,-3.1,8.5,0.0,17.3,-1.7,6.6000000000000005
1698413659206.0,16,-1.4000000000000001,-0.6000000000000001,0.4,-3.5,8.700000000000001,-0.30000000000000004,16.8,-5.300000000000001,8.600000000000001
1698413659221.0,16,-1.4000000000000001,-0.4,0.5,-3.5,8.8,-0.30000000000000004,15.399999999999999,-10.700000000000001,13.3
1698413659239.0,16,-1.2000000000000002,-0.4,0.5,-3.2,8.9,-0.2,16.1,-11.2,14.0
1698413659255.0,16,-1.1,-0.2,0.4,-3.1,9.0,-0.4,17.3,-15.299999999999999,14.600000000000001
1698413659274.0,16,-1.0,-0.4,0.5,-3.0,8.8,-0.4,16.900000000000002,-17.8,16.3
1698413659288.0,16,-0.7000000000000001,-0.5,0.7000000000000001,-2.7,8.8,-0.2,16.3,-21.6,18.5
1698413659306.0,16,-0.7000000000000001,-0.5,0.7000000000000001,-2.6,8.8,-0.2,16.6,-21.900000000000002,19.3
1698413659321.0,16,-0.6000000000000001,-0.5,0.8,-2.5,8.8,-0.1,15.8,-19.0,21.0
1698413659338.0,16,-0.7000000000000001,-0.4,0.8,-2.5,8.9,-0.2,15.8,-15.9,22.000000000000004
1698413659355.0,16,-0.7000000000000001,-0.1,0.7000000000000001,-2.5,9.200000000000001,-0.2,17.3,-16.1,23.8
1698413659371.0,16,-0.8,-0.1,0.8,-2.5,9.200000000000001,-0.2,17.9,-15.100000000000001,23.400000000000002
1698413659388.0,16,-1.2000000000000002,-0.2,0.8,-3.2,9.1,-0.4,17.0,-13.9,23.1
1698413659405.0,16,-1.7000000000000002,-0.2,0.5,-3.3000000000000003,9.1,-0.6000000000000001,14.600000000000001,-15.100000000000001,23.6
1698413659422.0,16,-1.3,0.2,0.30000000000000004,-2.9000000000000004,9.5,-0.8,10.9,-18.1,22.3
1698413659438.0,16,-1.0,0.30000000000000004,0.1,-2.6,9.600000000000001,-1.0,10.2,-17.0,21.6
1698413659457.0,16,-0.7000000000000001,0.30000000000000004,0.6000000000000001,-2.2,9.600000000000001,-0.6000000000000001,10.5,-18.900000000000002,21.1
1698413659472.0,16,-0.4,0.30000000000000004,0.6000000000000001,-1.8,9.600000000000001,-0.6000000000000001,10.5,-14.800000000000002,23.1
1698413659489.0,16,-0.30000000000000004,0.4,0.5,-1.6,9.9,-0.8,9.4,-12.100000000000001,24.200000000000003
1698413659505.0,16,-0.1,0.8,0.4,-1.4000000000000001,10.100000000000001,-0.8,8.3,-8.1,23.700000000000003
1698413659522.0,16,0.1,1.0,0.7000000000000001,-1.1,10.3,-0.5,5.0,-1.2000000000000002,18.8
1698413659539.0,16,0.4,0.9,0.7000000000000001,-0.8,10.3,-0.5,2.4000000000000004,-1.5000000000000002,17.1
1698413659555.0,16,0.8,0.4,0.5,-0.4,9.700000000000001,-0.6000000000000001,0.6000000000000001,-7.500000000000001,15.399999999999999
1698413659571.0,16,0.7000000000000001,0.1,0.5,-0.4,9.5,-0.7000000000000001,0.30000000000000004,-9.4,11.8
1698413659588.0,16,0.6000000000000001,0.2,0.30000000000000004,-0.7000000000000001,9.600000000000001,-0.9,0.2,-6.2,10.0
1698413659605.0,16,0.2,0.30000000000000004,0.2,-0.8,9.700000000000001,-1.0,-0.7,2.4000000000000004,7.699999999999999
1698413659621.0,16,0.1,0.2,0.2,-0.9,9.600000000000001,-1.0,0.5,5.1,7.500000000000001
1698413659638.0,16,0.2,0.30000000000000004,0.1,-0.9,9.700000000000001,-1.2000000000000002,2.1999999999999997,5.2,7.699999999999999
1698413659656.0,16,0.1,0.4,0.2,-0.9,9.8,-1.0,2.4000000000000004,6.2,8.799999999999999
1698413659672.0,16,0.30000000000000004,0.30000000000000004,0.2,-0.6000000000000001,9.700000000000001,-1.0,-1.2000000000000002,3.0000000000000004,10.2
1698413659689.0,16,0.5,0.2,0.2,-0.4,9.600000000000001,-1.0,-3.6,0.5,10.8
1698413659705.0,16,0.6000000000000001,0.1,0.1,-0.30000000000000004,9.5,-1.1,-7.8,-4.3999999999999995,10.9
1698413659721.0,16,0.6000000000000001,0.2,-0.1,-0.2,9.600000000000001,-1.3,-8.1,-12.3,9.0
1698413659738.0,16,0.6000000000000001,0.2,-0.2,-0.30000000000000004,9.600000000000001,-1.2000000000000002,-7.500000000000001,-14.600000000000001,8.200000000000001
1698413659755.0,16,0.6000000000000001,0.2,0.0,-0.2,9.600000000000001,-1.1,-7.9,-14.800000000000002,9.4
1698413659771.0,16,0.9,0.1,0.0,0.1,9.600000000000001,-1.0,-9.4,-13.100000000000001,10.5
1698413659790.0,16,1.1,0.0,0.0,0.30000000000000004,9.4,-1.0,-11.700000000000001,-8.3,10.2
1698413659805.0,16,1.1,0.0,-0.1,0.30000000000000004,9.4,-1.1,-12.3,-6.8,9.4
1698413659822.0,16,1.2000000000000002,-0.1,-0.30000000000000004,0.5,9.4,-1.3,-13.6,-10.1,9.4
1698413659838.0,16,1.2000000000000002,0.0,-0.30000000000000004,0.6000000000000001,9.700000000000001,-1.4000000000000001,-15.8,-13.0,9.4
1698413659856.0,16,1.5,0.7000000000000001,-0.6000000000000001,0.9,10.200000000000001,-1.5,-16.0,-15.9,8.799999999999999
1698413659871.0,16,1.8,1.5,-0.8,1.2000000000000002,11.0,-1.6,-13.6,-19.3,5.500000000000001
1698413659889.0,16,1.6,1.5,-0.9,1.0,11.0,-1.6,-12.3,-19.6,2.1
1698413659905.0,16,1.3,1.0,-0.7000000000000001,0.7000000000000001,10.5,-1.5,-14.900000000000002,-12.4,1.3
1698413659922.0,16,0.9,-0.1,-0.6000000000000001,0.30000000000000004,9.5,-1.4000000000000001,-19.3,6.2,-0.8
1698413659938.0,16,0.8,-0.6000000000000001,-1.0,0.30000000000000004,8.9,-1.7000000000000002,-18.400000000000002,5.4,1.7
1698413659955.0,16,0.9,-0.7000000000000001,-0.9,0.30000000000000004,8.9,-1.6,-17.9,5.9,3.1
1698413659971.0,16,1.1,-0.30000000000000004,-0.7000000000000001,0.6000000000000001,9.200000000000001,-1.3,-16.400000000000002,8.799999999999999,3.0000000000000004
1698413659989.0,16,1.4000000000000001,0.30000000000000004,-0.6000000000000001,0.9,9.8,-1.1,-14.500000000000002,9.0,-0.4
1698413660005.0,16,1.3,0.4,-0.4,0.8,9.9,-1.0,-14.200000000000001,9.5,-1.9
1698413660021.0,16,1.0,0.0,-0.4,0.5,9.5,-0.9,-13.3,7.8,-4.6000000000000005
1698413660038.0,16,0.6000000000000001,-0.5,-0.6000000000000001,0.1,9.1,-1.1,-13.3,6.000000000000001,-6.8
1698413660054.0,16,0.4,-0.5,-0.6000000000000001,-0.1,9.0,-1.0,-13.6,5.6,-7.8
1698413660071.0,16,0.1,-0.4,-0.6000000000000001,-0.5,9.1,-1.0,-12.6,8.1,-8.4
1698413660088.0,16,0.2,0.1,-0.7000000000000001,-0.4,9.600000000000001,-1.1,-12.8,8.4,-10.5
1698413660104.0,16,0.2,0.2,-0.7000000000000001,-0.4,9.700000000000001,-1.1,-13.200000000000001,8.1,-12.5
1698413660121.0,16,0.1,0.30000000000000004,-0.8,-0.5,9.8,-1.1,-16.900000000000002,5.500000000000001,-15.6
1698413660138.0,16,0.1,-0.2,-0.1,-0.7000000000000001,9.3,-0.30000000000000004,-21.0,0.6000000000000001,-18.5
1698413660155.0,16,0.1,-0.4,-0.1,-0.7000000000000001,9.1,-0.30000000000000004,-18.5,0.4,-18.900000000000002
1698413660174.0,16,0.4,-0.4,0.0,-0.5,9.1,-0.2,-14.600000000000001,7.0,-18.8
1698413660188.0,16,0.30000000000000004,-0.30000000000000004,-0.2,-0.6000000000000001,9.200000000000001,-0.30000000000000004,-13.5,10.1,-18.0
1698413660204.0,16,0.0,-0.30000000000000004,-0.30000000000000004,-0.9,9.200000000000001,-0.4,-11.3,13.100000000000001,-15.8
1698413660221.0,16,-0.1,-0.30000000000000004,-0.30000000000000004,-1.0,9.200000000000001,-0.4,-9.700000000000001,12.6,-15.2
1698413660238.0,16,-0.30000000000000004,-0.4,-0.30000000000000004,-1.3,9.1,-0.30000000000000004,-5.6,10.5,-14.100000000000001
1698413660254.0,16,-0.4,-0.2,-0.30000000000000004,-1.5,9.3,-0.30000000000000004,-3.0000000000000004,8.700000000000001,-12.8
1698413660271.0,16,-0.5,0.0,-0.2,-1.5,9.5,-0.2,-2.1,7.1000000000000005,-12.000000000000002
1698413660288.0,16,-0.30000000000000004,0.1,-0.2,-1.4000000000000001,9.600000000000001,-0.30000000000000004,0.4,5.500000000000001,-8.700000000000001
1698413660305.0,16,-0.2,0.1,-0.2,-1.4000000000000001,9.600000000000001,-0.30000000000000004,0.7,3.2,-7.0
1698413660322.0,16,-0.30000000000000004,0.1,-0.1,-1.4000000000000001,9.600000000000001,-0.2,2.1999999999999997,-0.4,-4.2
1698413660338.0,16,-0.2,0.0,-0.1,-1.3,9.4,-0.2,3.1,-2.5,-2.0
1698413660355.0,16,0.0,0.2,-0.2,-1.2000000000000002,9.700000000000001,-0.2,3.5,-2.9,-0.5
1698413660371.0,16,0.1,0.1,-0.2,-1.0,9.600000000000001,-0.30000000000000004,3.7000000000000006,-1.7,0.30000000000000004
1698413660389.0,16,0.2,0.1,-0.1,-1.0,9.600000000000001,-0.2,3.0000000000000004,0.5,1.0999999999999999
1698413660407.0,16,0.1,0.1,-0.2,-1.1,9.5,-0.30000000000000004,2.6,1.0999999999999999,2.1
1698413660422.0,16,0.0,0.0,-0.1,-1.2000000000000002,9.5,-0.2,2.3000000000000003,1.2000000000000002,2.5
1698413660438.0,16,-0.2,0.0,-0.1,-1.3,9.4,-0.2,2.3000000000000003,1.6,3.0000000000000004
1698413660454.0,16,-0.2,0.0,-0.1,-1.3,9.5,-0.30000000000000004,2.1999999999999997,1.0,2.7
1698413660472.0,16,-0.2,0.1,-0.1,-1.4000000000000001,9.600000000000001,-0.2,2.1,-0.7,2.1999999999999997
1698413660488.0,16,-0.2,0.1,0.0,-1.4000000000000001,9.600000000000001,-0.1,2.1,-0.6000000000000001,1.9
1698413660504.0,16,-0.2,0.1,0.0,-1.3,9.600000000000001,-0.2,2.1999999999999997,-1.0999999999999999,1.7
1698413660522.0,16,-0.1,0.0,0.0,-1.3,9.5,-0.2,2.1999999999999997,-2.0,1.3
1698413660538.0,16,-0.1,0.0,0.0,-1.3,9.5,-0.1,1.9,-3.8,0.7
1698413660555.0,16,-0.2,0.0,0.1,-1.3,9.5,-0.1,1.2000000000000002,-4.5,0.0
1698413660572.0,16,-0.2,0.0,0.1,-1.3,9.4,0.0,0.9,-4.6000000000000005,0.1
1698413660588.0,16,-0.1,-0.1,0.1,-1.2000000000000002,9.4,-0.1,1.3,-4.6000000000000005,0.4
1698413660605.0,16,0.0,-0.1,0.0,-1.1,9.4,-0.2,1.4,-4.7,0.5
1698413660622.0,16,0.1,0.0,0.0,-1.1,9.5,-0.2,1.3,-4.5,0.4
1698413660638.0,16,0.1,0.1,-0.1,-1.1,9.600000000000001,-0.2,1.0999999999999999,-3.7000000000000006,0.30000000000000004
1698413660655.0,16,0.1,0.1,-0.1,-1.1,9.600000000000001,-0.2,1.8,-4.0,0.8
1698413660672.0,16,0.1,0.1,0.0,-1.1,9.600000000000001,-0.2,1.8,-3.5,0.7
1698413660688.0,16,0.1,0.1,0.0,-1.1,9.600000000000001,-0.2,2.0,-2.4000000000000004,0.7
1698413660706.0,16,0.1,-0.1,-0.1,-1.0,9.4,-0.30000000000000004,1.8,-1.3,0.8
1698413660722.0,16,0.1,-0.1,0.0,-1.0,9.4,-0.2,1.4,-0.9,1.0
1698413660738.0,16,0.1,0.0,0.0,-1.1,9.5,-0.1,0.5,-0.1,1.6
1698413660755.0,16,0.1,0.0,0.0,-1.0,9.5,-0.1,0.2,-0.1,1.9
1698413660771.0,16,0.1,0.1,0.0,-1.0,9.600000000000001,-0.2,0.2,-0.2,1.6
1698413660789.0,16,0.0,0.1,0.0,-1.1,9.600000000000001,-0.1,0.5,0.1,0.7
1698413660805.0,16,0.0,0.0,0.0,-1.1,9.5,-0.1,0.9,0.6000000000000001,0.30000000000000004
1698413660822.0,16,0.0,0.0,0.0,-1.1,9.5,-0.2,1.7,-0.1,0.8
1698413660839.0,16,0.0,0.0,0.0,-1.0,9.5,-0.2,1.8,-0.1,0.8
1698413660855.0,16,0.0,0.0,0.0,-1.1,9.5,-0.2,1.6,0.4,0.7
1698413660871.0,16,0.0,0.0,0.0,-1.0,9.5,-0.2,1.7,0.2,0.8
1698413660888.0,16,0.1,0.0,0.0,-1.0,9.5,-0.2,1.3,-0.2,1.0
1698413660904.0,16,0.1,0.0,0.0,-1.0,9.5,-0.2,1.3,-0.1,0.8
1698413660921.0,16,0.1,0.1,0.0,-1.0,9.600000000000001,-0.2,1.4,0.0,0.30000000000000004
1698413660939.0,16,0.0,0.0,0.1,-1.0,9.600000000000001,-0.2,1.3,-0.1,0.30000000000000004
1698413660955.0,16,0.1,0.1,0.0,-1.0,9.600000000000001,-0.2,1.2000000000000002,-0.9,0.4
1698413660971.0,16,0.1,0.0,0.0,-1.0,9.5,-0.2,0.6000000000000001,-0.5,0.4
1698413660988.0,16,0.0,0.0,0.0,-1.0,9.5,-0.2,0.5,-0.1,0.4
1698413661005.0,16,0.0,0.0,0.0,-1.0,9.5,-0.2,0.5,-0.1,0.2
1698413661022.0,16,0.0,0.0,0.0,-1.1,9.5,-0.2,0.5,-0.1,0.2
1698413661040.0,16,0.0,0.0,0.0,-1.0,9.5,-0.2,0.4,-0.30000000000000004,0.30000000000000004
1698413661054.0,16,0.0,0.0,0.0,-1.0,9.5,-0.2,0.4,-0.7,0.4
1698413661072.0,16,0.0,0.0,0.0,-1.0,9.600000000000001,-0.2,0.4,-1.0999999999999999,0.30000000000000004
1698413661089.0,16,0.0,0.0,-0.1,-1.0,9.5,-0.30000000000000004,0.2,-1.2000000000000002,0.4
1698413661104.0,16,0.0,0.0,0.0,-1.0,9.5,-0.2,0.0,-2.0,0.30000000000000004
1698413661122.0,16,0.0,0.0,0.0,-1.0,9.5,-0.2,0.1,-2.1,0.5
1698413661138.0,16,0.0,0.0,0.0,-1.0,9.5,-0.2,0.0,-1.7,0.7
1698413661155.0,16,0.1,0.1,0.0,-1.0,9.600000000000001,-0.2,-0.30000000000000004,-1.3,0.9
1698413661171.0,16,0.0,0.0,0.0,-1.0,9.600000000000001,-0.30000000000000004,-0.8,-1.0,1.0
1698413661188.0,16,0.0,0.1,-0.1,-1.0,9.600000000000001,-0.30000000000000004,-1.0,-1.3,1.0
1698413661205.0,16,0.0,0.0,0.1,-1.0,9.600000000000001,-0.1,-0.8,-0.9,0.7
1698413661221.0,16,0.0,0.0,0.0,-1.0,9.5,-0.2,-0.6000000000000001,-0.6000000000000001,0.8
1698413661238.0,16,0.0,0.0,0.0,-1.0,9.5,-0.2,-0.4,-0.1,0.7
1698413661255.0,16,0.0,0.0,0.0,-1.0,9.5,-0.2,-0.4,-0.6000000000000001,0.8
1698413661271.0,16,0.0,0.0,0.0,-1.0,9.5,-0.2,-0.2,-1.0,1.2000000000000002
1698413661288.0,16,0.0,0.0,0.0,-1.0,9.600000000000001,-0.2,-0.30000000000000004,-1.0,1.3
1698413661305.0,16,0.0,0.0,0.0,-1.0,9.600000000000001,-0.2,-0.6000000000000001,-1.0999999999999999,1.0999999999999999
1698413661323.0,16,0.0,0.0,0.0,-1.0,9.5,-0.2,-0.4,-0.7,0.8
1698413661338.0,16,0.0,0.0,0.0,-0.9,9.5,-0.2,-0.30000000000000004,-0.5,0.6000000000000001
1698413661355.0,16,0.0,0.0,0.0,-1.0,9.5,-0.2,-0.4,-0.1,0.5
1698413661371.0,16,0.0,-0.1,0.0,-1.0,9.5,-0.2,-0.8,0.0,0.7
1698413661388.0,16,0.0,-0.1,0.0,-1.0,9.5,-0.2,-0.5,-0.2,0.7
1698413661404.0,16,0.0,0.0,0.0,-1.0,9.5,-0.2,-0.2,-0.1,0.5
1698413661421.0,16,0.0,0.0,0.0,-1.0,9.5,-0.2,0.30000000000000004,-0.5,0.7
1698413661439.0,16,0.0,0.0,0.0,-1.0,9.5,-0.2,0.4,-0.9,0.7
1698413661455.0,16,0.0,0.0,0.0,-1.0,9.5,-0.2,0.4,-1.5000000000000002,0.9
1698413661471.0,16,0.0,0.0,0.0,-1.0,9.5,-0.2,0.8,-1.5000000000000002,1.0
1698413661489.0,16,0.0,0.0,0.0,-1.0,9.5,-0.2,0.8,-1.9,1.0
1698413661505.0,16,0.0,0.0,0.0,-1.0,9.5,-0.2,0.8,-2.0,0.8
1698413661522.0,16,0.0,0.0,0.0,-1.0,9.5,-0.2,0.7,-1.5000000000000002,0.8
1698413661538.0,16,0.0,0.0,0.1,-1.0,9.5,-0.1,0.8,-1.4,0.8
1698413661554.0,16,0.0,0.0,0.0,-0.9,9.600000000000001,-0.2,0.9,-1.5000000000000002,0.2
1698413661571.0,16,0.0,0.0,0.0,-1.0,9.5,-0.2,1.0,-1.5000000000000002,-0.2
1698413661590.0,16,-0.1,-0.1,-0.1,-1.0,9.5,-0.30000000000000004,0.8,-1.9,0.0
1698413661607.0,16,-0.1,-0.1,0.0,-1.1,9.4,-0.2,0.8,-2.3000000000000003,0.2
1698413661621.0,16,-0.1,0.0,0.0,-1.0,9.600000000000001,-0.2,1.0,-2.4000000000000004,0.2
1698413661638.0,16,0.0,0.1,0.0,-1.0,9.600000000000001,-0.30000000000000004,0.5,-2.7,0.30000000000000004
1698413661657.0,16,0.0,0.1,0.1,-0.9,9.600000000000001,-0.2,0.4,-2.9,0.5
1698413661671.0,16,0.0,0.0,0.0,-1.0,9.5,-0.2,0.6000000000000001,-2.8,0.30000000000000004
1698413661689.0,16,0.0,0.0,0.0,-1.0,9.5,-0.2,0.4,-2.6,0.1
1698413661706.0,16,-0.1,0.0,-0.1,-1.0,9.5,-0.30000000000000004,0.2,-2.4000000000000004,-0.1
1698413661722.0,16,-0.1,0.0,-0.1,-1.0,9.5,-0.30000000000000004,0.0,-2.6,-0.1
1698413661738.0,16,-0.1,0.0,0.0,-1.1,9.5,-0.2,-0.1,-2.7,-0.2
1698413661756.0,16,-0.1,0.0,0.0,-1.1,9.5,-0.2,0.0,-2.6,0.0
1698413661772.0,16,0.0,0.0,0.0,-1.0,9.5,-0.2,0.1,-2.3000000000000003,0.2
1698413661789.0,16,0.1,0.1,0.1,-0.9,9.600000000000001,-0.1,0.0,-1.9,0.2
1698413661805.0,16,0.1,0.0,0.1,-0.9,9.600000000000001,-0.1,0.0,-1.0,-0.1
1698413661822.0,16,0.1,0.0,0.0,-0.9,9.5,-0.2,-0.1,-0.2,-0.2
1698413661839.0,16,0.0,0.0,0.0,-0.9,9.5,-0.2,-0.1,-0.1,-0.30000000000000004
1698413661856.0,16,-0.1,-0.1,0.0,-1.1,9.5,-0.2,0.0,0.2,-0.6000000000000001
1698413661871.0,16,-0.1,0.0,-0.1,-1.1,9.5,-0.30000000000000004,0.2,0.2,-0.4
1698413661888.0,16,0.0,0.0,-0.1,-1.0,9.600000000000001,-0.30000000000000004,0.5,-0.1,-0.2
1698413661904.0,16,0.0,0.0,-0.1,-1.0,9.600000000000001,-0.30000000000000004,0.6000000000000001,-0.4,-0.30000000000000004
1698413661921.0,16,0.0,0.0,-0.1,-1.0,9.5,-0.30000000000000004,0.8,-1.0,-0.1
1698413661939.0,16,0.0,0.0,-0.1,-1.0,9.5,-0.30000000000000004,1.0,-1.3,-0.30000000000000004
1698413661956.0,16,0.0,0.0,-0.1,-1.0,9.5,-0.30000000000000004,1.0,-1.4,-0.4
1698413661971.0,16,0.0,0.0,-0.1,-1.0,9.5,-0.30000000000000004,0.9,-0.5,-0.9
1698413661988.0,16,0.0,0.0,-0.1,-1.0,9.5,-0.30000000000000004,0.7,-0.2,-0.9
1698413662005.0,16,0.0,0.0,-0.1,-1.0,9.600000000000001,-0.30000000000000004,0.4,-0.7,-0.7
1698413662021.0,16,0.0,0.1,0.0,-1.0,9.600000000000001,-0.30000000000000004,0.6000000000000001,-1.0,-0.5
1698413662038.0,16,0.0,0.1,0.0,-1.0,9.5,-0.30000000000000004,0.7,-0.7,-0.4
1698413662055.0,16,0.0,0.0,0.0,-1.0,9.5,-0.30000000000000004,0.7,-0.6000000000000001,-0.30000000000000004
1698413662072.0,16,0.0,0.0,-0.1,-1.0,9.5,-0.30000000000000004,0.6000000000000001,-0.5,-0.1
1698413662089.0,16,0.0,0.0,0.0,-1.0,9.5,-0.30000000000000004,0.5,-0.2,0.0
1698413662104.0,16,0.0,0.0,0.0,-1.0,9.5,-0.30000000000000004,0.5,0.6000000000000001,-0.4
1698413662121.0,16,0.0,0.0,-0.1,-1.0,9.5,-0.4,0.5,0.2,-0.6000000000000001
1698413662138.0,16,0.0,0.0,0.0,-1.0,9.5,-0.30000000000000004,0.2,0.4,-0.5
1698413662155.0,16,0.0,0.0,0.0,-1.0,9.5,-0.30000000000000004,0.4,0.5,-0.4
1698413662171.0,16,0.0,0.0,0.0,-1.0,9.5,-0.2,0.5,0.7,-0.2
1698413662188.0,16,0.1,0.0,0.1,-0.9,9.5,-0.2,0.6000000000000001,0.7,-0.2
1698413662204.0,16,0.1,0.0,0.1,-0.9,9.5,-0.2,0.7,0.5,-0.30000000000000004
1698413662221.0,16,0.0,0.0,0.0,-1.0,9.5,-0.30000000000000004,0.6000000000000001,0.9,-0.30000000000000004
1698413662238.0,16,0.0,0.0,0.0,-1.0,9.5,-0.30000000000000004,0.4,0.9,-0.4
1698413662254.0,16,0.0,0.0,0.0,-1.0,9.5,-0.30000000000000004,0.4,1.3,-0.6000000000000001
1698413662271.0,16,0.0,0.0,0.0,-1.0,9.5,-0.2,0.4,1.4,-0.6000000000000001
1698413662288.0,16,0.0,0.0,0.0,-1.0,9.5,-0.30000000000000004,0.7,1.5000000000000002,-0.6000000000000001
1698413662305.0,16,0.0,0.0,0.0,-1.0,9.5,-0.30000000000000004,0.7,1.2000000000000002,-0.7
1698413662321.0,16,0.0,0.0,0.0,-1.1,9.5,-0.30000000000000004,1.0,0.5,-0.4
1698413662338.0,16,0.0,0.0,0.0,-1.0,9.5,-0.30000000000000004,1.0,-0.2,-0.30000000000000004
1698413662355.0,16,0.0,0.0,0.0,-1.0,9.5,-0.30000000000000004,1.0,-0.4,-0.30000000000000004
1698413662371.0,16,0.0,0.0,0.0,-1.0,9.5,-0.30000000000000004,0.7,-0.9,-0.30000000000000004
1698413662388.0,16,0.0,0.0,0.0,-1.0,9.5,-0.30000000000000004,0.7,-0.9,-0.2
1698413662405.0,16,0.0,0.0,0.0,-1.0,9.5,-0.30000000000000004,0.7,-0.7,-0.30000000000000004
1698413662421.0,16,0.0,0.0,0.0,-1.0,9.5,-0.30000000000000004,0.8,-0.9,-0.30000000000000004
1698413662438.0,16,0.0,0.0,0.0,-1.0,9.5,-0.30000000000000004,0.5,-1.2000000000000002,-0.30000000000000004
1698413662455.0,16,0.0,0.0,0.0,-1.0,9.5,-0.30000000000000004,0.2,-1.5000000000000002,-0.1
1698413662471.0,16,0.0,0.0,0.0,-1.0,9.5,-0.30000000000000004,0.2,-1.7,0.0
1698413662488.0,16,0.0,0.0,0.0,-1.0,9.5,-0.30000000000000004,0.1,-1.5000000000000002,0.1
1698413662504.0,16,0.0,0.0,0.0,-1.0,9.5,-0.4,0.1,-1.7,0.30000000000000004
1698413662522.0,16,0.0,0.0,0.0,-1.0,9.5,-0.30000000000000004,0.2,-1.8,0.30000000000000004
1698413662538.0,16,0.0,0.0,0.0,-1.0,9.5,-0.30000000000000004,0.2,-1.5000000000000002,0.1
1698413662554.0,16,0.0,0.0,0.0,-1.0,9.5,-0.30000000000000004,0.0,-1.5000000000000002,0.0
1698413662572.0,16,0.0,0.0,0.0,-1.0,9.5,-0.30000000000000004,0.2,-2.3000000000000003,-0.1
1698413662588.0,16,0.0,0.0,0.0,-1.0,9.5,-0.30000000000000004,0.1,-1.8,-0.30000000000000004
1698413662605.0,16,0.0,0.0,0.0,-1.0,9.5,-0.30000000000000004,0.2,-1.0,-0.4
1698413662622.0,16,0.0,0.0,0.0,-1.0,9.5,-0.30000000000000004,0.4,-0.6000000000000001,-0.6000000000000001
1698413662638.0,16,0.0,0.0,0.0,-1.0,9.5,-0.30000000000000004,0.0,-1.2000000000000002,-0.6000000000000001
1698413662654.0,16,0.0,0.0,0.0,-1.0,9.600000000000001,-0.30000000000000004,0.4,-1.9,-0.7
1698413662671.0,16,0.0,0.0,0.0,-1.0,9.5,-0.30000000000000004,0.5,-1.7,-0.9
1698413662689.0,16,0.1,0.0,0.0,-1.0,9.5,-0.30000000000000004,0.7,-0.4,-1.0
1698413662704.0,16,0.2,-0.1,0.1,-0.9,9.4,-0.2,1.0,0.8,-1.9
1698413662722.0,16,0.2,0.0,0.1,-0.8,9.5,-0.2,0.8,1.4,-2.1999999999999997
1698413662738.0,16,0.1,0.0,0.1,-0.9,9.5,-0.2,1.0,2.4000000000000004,-3.0000000000000004
1698413662755.0,16,0.1,0.0,0.1,-0.9,9.5,-0.2,1.3,3.5,-3.3000000000000003
1698413662772.0,16,0.1,0.0,0.2,-0.9,9.5,-0.1,1.5000000000000002,4.300000000000001,-3.4
1698413662791.0,16,0.1,0.0,0.1,-0.9,9.5,-0.2,2.1999999999999997,6.7,-3.6
1698413662804.0,16,0.2,-0.1,0.1,-0.9,9.4,-0.2,2.9,8.3,-4.3999999999999995
1698413662821.0,16,0.2,-0.1,0.0,-0.9,9.4,-0.30000000000000004,2.9,10.600000000000001,-5.0
1698413662838.0,16,0.2,0.0,0.1,-0.9,9.5,-0.30000000000000004,2.6,12.000000000000002,-5.2
1698413662854.0,16,0.2,0.0,0.1,-0.8,9.5,-0.30000000000000004,2.8,14.800000000000002,-5.2
1698413662871.0,16,0.2,0.1,0.0,-0.9,9.600000000000001,-0.4,2.4000000000000004,16.2,-4.800000000000001
1698413662888.0,16,0.1,0.2,0.0,-1.0,9.700000000000001,-0.4,2.1999999999999997,16.700000000000003,-4.5
1698413662904.0,16,0.0,0.1,-0.1,-1.1,9.600000000000001,-0.5,1.2000000000000002,18.0,-4.0
1698413662921.0,16,0.0,0.1,-0.1,-1.1,9.600000000000001,-0.5,0.8,18.0,-3.6
1698413662938.0,16,-0.1,0.1,-0.2,-1.2000000000000002,9.600000000000001,-0.6000000000000001,-0.1,17.9,-3.1
1698413662954.0,16,-0.2,0.0,-0.2,-1.3,9.5,-0.7000000000000001,-0.6000000000000001,18.1,-2.8
1698413662971.0,16,-0.2,0.0,-0.30000000000000004,-1.3,9.5,-0.7000000000000001,-0.5,17.8,-2.4000000000000004
1698413662988.0,16,-0.2,0.0,-0.30000000000000004,-1.3,9.5,-0.7000000000000001,-0.2,17.1,-2.1999999999999997
1698413663004.0,16,-0.2,-0.1,-0.30000000000000004,-1.3,9.4,-0.7000000000000001,0.2,15.5,-1.4
1698413663021.0,16,-0.2,-0.1,-0.2,-1.3,9.4,-0.7000000000000001,0.2,14.800000000000002,-1.0999999999999999
1698413663038.0,16,-0.30000000000000004,-0.1,-0.2,-1.4000000000000001,9.4,-0.7000000000000001,0.6000000000000001,13.700000000000001,-0.4
1698413663054.0,16,-0.30000000000000004,-0.1,-0.2,-1.4000000000000001,9.5,-0.7000000000000001,1.0,12.000000000000002,-0.1
1698413663072.0,16,-0.30000000000000004,0.0,-0.2,-1.4000000000000001,9.5,-0.7000000000000001,1.0999999999999999,11.000000000000002,0.0
1698413663088.0,16,-0.30000000000000004,0.0,-0.1,-1.4000000000000001,9.5,-0.6000000000000001,1.5000000000000002,8.600000000000001,0.2
1698413663104.0,16,-0.2,-0.1,-0.1,-1.4000000000000001,9.4,-0.6000000000000001,2.1,6.000000000000001,0.9
1698413663121.0,16,-0.30000000000000004,0.0,-0.1,-1.5,9.5,-0.6000000000000001,2.0,4.5,1.0999999999999999
1698413663138.0,16,-0.2,-0.1,0.0,-1.4000000000000001,9.4,-0.6000000000000001,3.1,4.2,2.4000000000000004
1698413663154.0,16,-0.2,0.0,-0.1,-1.4000000000000001,9.5,-0.6000000000000001,3.3000000000000003,1.6,2.9
1698413663171.0,16,-0.2,0.1,-0.1,-1.4000000000000001,9.5,-0.7000000000000001,2.5,-1.2000000000000002,2.7
1698413663188.0,16,-0.2,0.1,-0.1,-1.4000000000000001,9.600000000000001,-0.6000000000000001,2.1999999999999997,-2.1,2.4000000000000004
1698413663204.0,16,-0.2,0.0,-0.1,-1.4000000000000001,9.5,-0.6000000000000001,1.9,-4.300000000000001,1.8
1698413663222.0,16,-0.1,0.0,-0.1,-1.3,9.5,-0.7000000000000001,1.0999999999999999,-6.000000000000001,1.2000000000000002
1698413663238.0,16,-0.1,0.0,-0.1,-1.3,9.5,-0.7000000000000001,0.7,-6.000000000000001,0.8
1698413663255.0,16,-0.1,0.1,0.0,-1.3,9.600000000000001,-0.6000000000000001,-0.2,-5.6,0.30000000000000004
1698413663271.0,16,0.0,0.1,0.1,-1.2000000000000002,9.600000000000001,-0.5,-0.2,-5.8,0.2
1698413663288.0,16,0.0,0.0,0.1,-1.2000000000000002,9.5,-0.5,0.0,-7.1000000000000005,-0.1
1698413663305.0,16,0.1,-0.1,0.1,-1.1,9.4,-0.4,-0.30000000000000004,-6.9,-1.0999999999999999
1698413663322.0,16,0.1,0.0,0.2,-1.1,9.5,-0.4,-0.30000000000000004,-6.3,-1.7
1698413663338.0,16,0.1,-0.1,0.1,-1.1,9.4,-0.4,0.2,-4.300000000000001,-1.3
1698413663354.0,16,0.1,0.0,0.1,-1.1,9.5,-0.4,-0.2,-4.5,-1.2000000000000002
1698413663372.0,16,0.1,0.0,0.1,-1.1,9.5,-0.4,-0.2,-5.4,-1.9
1698413663389.0,16,0.0,0.0,0.1,-1.2000000000000002,9.4,-0.4,-0.4,-5.8,-2.1999999999999997
1698413663404.0,16,0.0,0.0,0.1,-1.2000000000000002,9.5,-0.4,-0.5,-5.7,-2.4000000000000004
1698413663421.0,16,0.1,0.0,0.1,-1.1,9.5,-0.4,-0.5,-5.4,-2.7
1698413663441.0,16,0.2,0.0,0.1,-1.1,9.5,-0.4,-0.30000000000000004,-5.7,-2.8
1698413663454.0,16,0.2,0.0,0.0,-1.0,9.5,-0.5,0.2,-5.8,-3.2
1698413663471.0,16,0.30000000000000004,0.0,0.0,-0.9,9.5,-0.5,0.5,-5.0,-3.3000000000000003
1698413663488.0,16,0.30000000000000004,0.1,0.0,-0.9,9.600000000000001,-0.4,0.8,-4.300000000000001,-3.3000000000000003
1698413663504.0,16,0.30000000000000004,0.0,0.1,-0.9,9.5,-0.4,0.8,-2.6,-3.1
1698413663521.0,16,0.2,0.0,0.1,-1.0,9.5,-0.4,0.8,0.2,-2.6
1698413663538.0,16,0.2,0.0,0.1,-1.0,9.5,-0.4,0.8,1.8,-1.5000000000000002
1698413663554.0,16,0.2,0.0,0.1,-1.0,9.5,-0.4,1.0,2.3000000000000003,-0.8
1698413663571.0,16,0.1,0.1,0.2,-1.0,9.600000000000001,-0.30000000000000004,1.0999999999999999,3.7000000000000006,-0.1
1698413663589.0,16,0.1,0.0,0.1,-1.1,9.5,-0.4,1.2000000000000002,4.800000000000001,0.0
1698413663604.0,16,0.1,0.0,0.1,-1.1,9.5,-0.4,1.3,7.0,-0.4
1698413663622.0,16,0.1,-0.1,0.1,-1.1,9.4,-0.4,1.5000000000000002,7.6,-0.7
1698413663638.0,16,0.0,-0.1,0.0,-1.2000000000000002,9.4,-0.5,1.8,8.5,-1.0
1698413663655.0,16,-0.2,0.0,0.0,-1.4000000000000001,9.5,-0.5,1.6,8.4,-1.2000000000000002
1698413663672.0,16,-0.2,0.0,0.1,-1.4000000000000001,9.5,-0.4,1.4,8.4,-1.4
1698413663689.0,16,-0.2,0.0,0.0,-1.5,9.5,-0.5,1.0,8.600000000000001,-1.5000000000000002
1698413663705.0,16,-0.30000000000000004,0.0,0.0,-1.5,9.5,-0.5,0.6000000000000001,8.1,-1.2000000000000002
1698413663721.0,16,-0.30000000000000004,0.0,0.0,-1.5,9.5,-0.5,0.4,6.9,-0.9
1698413663737.0,16,-0.30000000000000004,0.0,0.0,-1.5,9.5,-0.5,0.2,5.7,-0.9
1698413663755.0,16,-0.2,-0.1,0.0,-1.5,9.4,-0.5,0.30000000000000004,5.0,-1.0999999999999999
1698413663772.0,16,-0.1,0.0,0.0,-1.4000000000000001,9.5,-0.6000000000000001,0.2,3.5,-1.6
1698413663789.0,16,0.0,0.0,0.0,-1.3,9.5,-0.6000000000000001,0.0,2.9,-2.5
1698413663805.0,16,0.0,0.0,0.0,-1.3,9.5,-0.6000000000000001,0.0,2.9,-2.8
1698413663821.0,16,0.0,0.0,-0.1,-1.3,9.5,-0.6000000000000001,0.4,2.3000000000000003,-2.7
1698413663838.0,16,0.0,0.0,0.0,-1.3,9.5,-0.6000000000000001,0.6000000000000001,2.3000000000000003,-2.8
1698413663856.0,16,0.0,0.0,0.0,-1.3,9.5,-0.6000000000000001,1.0999999999999999,2.6,-2.9
1698413663871.0,16,0.0,0.0,-0.1,-1.3,9.5,-0.7000000000000001,1.4,2.3000000000000003,-3.0000000000000004
1698413663890.0,16,0.0,0.0,-0.1,-1.3,9.5,-0.6000000000000001,1.6,0.5,-2.1999999999999997
1698413663904.0,16,0.0,0.0,-0.1,-1.3,9.5,-0.7000000000000001,1.5000000000000002,-0.1,-1.6
1698413663921.0,16,-0.1,0.1,-0.1,-1.4000000000000001,9.5,-0.6000000000000001,1.0999999999999999,-1.4,-0.4
1698413663938.0,16,-0.1,0.1,0.0,-1.4000000000000001,9.600000000000001,-0.6000000000000001,1.0,-1.6,0.2
1698413663954.0,16,0.0,0.1,-0.1,-1.3,9.600000000000001,-0.6000000000000001,0.6000000000000001,-2.0,0.5
1698413663971.0,16,0.0,0.0,-0.1,-1.3,9.5,-0.7000000000000001,0.4,-2.3000000000000003,0.30000000000000004
1698413663988.0,16,-0.1,0.0,-0.1,-1.4000000000000001,9.5,-0.7000000000000001,-1.0,-5.7,0.0
1698413664004.0,16,-0.1,0.1,-0.1,-1.5,9.600000000000001,-0.7000000000000001,-1.0,-5.6,0.2
1698413664021.0,16,-0.1,-0.1,-0.1,-1.4000000000000001,9.4,-0.7000000000000001,0.6000000000000001,-4.300000000000001,0.6000000000000001
1698413664038.0,16,0.0,-0.1,-0.2,-1.4000000000000001,9.4,-0.8,0.8,-5.4,0.5
1698413664055.0,16,-0.1,0.0,-0.2,-1.4000000000000001,9.4,-0.8,0.0,-7.1000000000000005,0.7
1698413664071.0,16,-0.1,0.0,-0.1,-1.4000000000000001,9.5,-0.7000000000000001,0.0,-7.1000000000000005,1.5000000000000002
1698413664089.0,16,-0.1,0.0,-0.1,-1.5,9.5,-0.7000000000000001,0.8,-6.6000000000000005,1.9
1698413664104.0,16,-0.1,0.0,-0.1,-1.5,9.5,-0.7000000000000001,1.3,-6.3,1.7
1698413664121.0,16,0.0,-0.1,-0.1,-1.4000000000000001,9.4,-0.7000000000000001,2.4000000000000004,-6.2,1.6
1698413664138.0,16,0.0,-0.1,0.0,-1.3,9.4,-0.7000000000000001,3.3000000000000003,-6.3,1.6
1698413664155.0,16,0.0,-0.1,0.0,-1.3,9.4,-0.7000000000000001,3.2,-5.7,1.7
1698413664171.0,16,0.1,-0.1,0.1,-1.2000000000000002,9.4,-0.6000000000000001,2.8,-4.800000000000001,1.7
1698413664188.0,16,0.1,0.0,0.1,-1.2000000000000002,9.5,-0.5,2.8,-4.5,1.4
1698413664204.0,16,0.1,0.1,0.1,-1.2000000000000002,9.5,-0.5,2.9,-3.4,0.30000000000000004
1698413664221.0,16,0.1,0.1,0.1,-1.2000000000000002,9.600000000000001,-0.5,2.7,-2.3000000000000003,-0.4
1698413664238.0,16,0.1,0.0,0.1,-1.2000000000000002,9.5,-0.6000000000000001,2.1999999999999997,-2.4000000000000004,-1.0999999999999999
1698413664254.0,16,0.1,0.0,0.1,-1.2000000000000002,9.5,-0.6000000000000001,2.0,-2.5,-1.4
1698413664271.0,16,0.0,0.1,0.1,-1.3,9.600000000000001,-0.6000000000000001,1.3,-1.7,-1.5000000000000002
1698413664288.0,16,0.0,0.1,0.1,-1.3,9.600000000000001,-0.5,0.6000000000000001,-1.3,-0.5
1698413664305.0,16,0.1,0.1,0.1,-1.2000000000000002,9.600000000000001,-0.5,0.5,-1.5000000000000002,-0.30000000000000004
1698413664321.0,16,0.2,0.1,0.1,-1.1,9.600000000000001,-0.6000000000000001,0.1,-2.0,-0.8
1698413664338.0,16,0.2,0.0,0.0,-1.1,9.5,-0.6000000000000001,-0.30000000000000004,-1.0,-0.9
1698413664354.0,16,0.2,0.0,0.0,-1.1,9.5,-0.6000000000000001,-0.9,-0.30000000000000004,-0.6000000000000001
1698413664371.0,16,0.1,0.1,0.0,-1.2000000000000002,9.600000000000001,-0.6000000000000001,-2.0,1.2000000000000002,0.5
1698413664388.0,16,0.1,0.1,0.0,-1.2000000000000002,9.600000000000001,-0.6000000000000001,-2.4000000000000004,0.8,1.6
1698413664405.0,16,0.1,0.1,-0.1,-1.2000000000000002,9.600000000000001,-0.7000000000000001,-2.5,0.6000000000000001,2.1
1698413664421.0,16,0.0,0.1,-0.1,-1.2000000000000002,9.600000000000001,-0.7000000000000001,-2.7,1.2000000000000002,2.1999999999999997
1698413664438.0,16,0.1,0.0,-0.2,-1.2000000000000002,9.600000000000001,-0.8,-3.9,2.0,2.8
1698413664455.0,16,0.1,0.0,-0.2,-1.2000000000000002,9.5,-0.8,-4.1000000000000005,2.4000000000000004,3.0000000000000004
1698413664471.0,16,0.0,0.0,-0.1,-1.3,9.5,-0.8,-3.4,2.7,2.8
1698413664488.0,16,-0.1,0.0,-0.2,-1.3,9.5,-0.8,-3.5,1.6,3.0000000000000004
1698413664505.0,16,-0.1,0.0,-0.2,-1.3,9.5,-0.8,-3.7000000000000006,0.9,3.4
1698413664522.0,16,-0.2,0.0,-0.2,-1.4000000000000001,9.5,-0.8,-3.3000000000000003,-0.5,3.6
1698413664538.0,16,-0.2,-0.1,-0.2,-1.4000000000000001,9.5,-0.8,-2.9,-1.2000000000000002,3.9
1698413664555.0,16,-0.1,-0.1,-0.30000000000000004,-1.3,9.4,-0.9,-3.0000000000000004,-1.7,4.7
1698413664572.0,16,0.0,-0.1,-0.2,-1.2000000000000002,9.4,-0.8,-2.9,-2.3000000000000003,4.7
1698413664588.0,16,0.0,0.0,0.0,-1.2000000000000002,9.5,-0.6000000000000001,-2.0,-2.4000000000000004,4.1000000000000005
1698413664605.0,16,0.0,-0.1,0.0,-1.2000000000000002,9.4,-0.6000000000000001,-1.0999999999999999,-2.5,4.0
1698413664621.0,16,0.0,-0.2,0.0,-1.1,9.4,-0.6000000000000001,-0.30000000000000004,-3.0000000000000004,3.8
1698413664638.0,16,0.0,-0.1,0.0,-1.2000000000000002,9.4,-0.6000000000000001,0.1,-2.5,3.9
1698413664655.0,16,0.0,-0.1,0.1,-1.2000000000000002,9.4,-0.5,0.30000000000000004,-2.4000000000000004,3.9
1698413664672.0,16,0.0,0.0,0.1,-1.2000000000000002,9.5,-0.5,0.5,-2.1,4.1000000000000005
1698413664688.0,16,0.0,0.0,0.0,-1.2000000000000002,9.5,-0.6000000000000001,0.1,-2.6,3.8
1698413664705.0,16,-0.1,0.0,0.1,-1.2000000000000002,9.5,-0.5,-0.2,-3.4,3.5
1698413664722.0,16,-0.1,0.0,0.1,-1.2000000000000002,9.5,-0.5,-0.2,-3.5,3.0000000000000004
1698413664738.0,16,0.0,0.0,0.1,-1.1,9.5,-0.4,0.0,-3.3000000000000003,3.0000000000000004
1698413664754.0,16,0.0,0.0,0.2,-1.1,9.5,-0.4,-0.1,-2.5,2.8
1698413664771.0,16,0.0,0.1,0.2,-1.1,9.600000000000001,-0.30000000000000004,-0.1,-1.8,2.7
1698413664788.0,16,0.0,0.1,0.2,-1.1,9.600000000000001,-0.4,-0.5,-1.0,2.3000000000000003
1698413664804.0,16,0.0,0.1,0.2,-1.0,9.600000000000001,-0.4,-0.7,-0.5,2.1
1698413664821.0,16,0.0,0.1,0.2,-1.1,9.600000000000001,-0.30000000000000004,-1.4,0.8,1.2000000000000002
1698413664838.0,16,-0.1,0.0,0.1,-1.2000000000000002,9.600000000000001,-0.4,-1.3,1.8,0.2
1698413664854.0,16,-0.1,0.0,0.1,-1.2000000000000002,9.4,-0.4,-1.0999999999999999,1.9,0.2
1698413664871.0,16,-0.1,-0.1,0.1,-1.2000000000000002,9.4,-0.4,-1.4,1.9,0.30000000000000004
1698413664888.0,16,-0.1,0.0,0.0,-1.1,9.5,-0.4,-1.7,3.0000000000000004,-0.1
1698413664905.0,16,0.0,0.0,0.0,-1.1,9.5,-0.5,-1.4,3.4,-0.6000000000000001
1698413664921.0,16,0.0,-0.1,0.0,-1.1,9.5,-0.5,-1.4,3.2,-0.8
1698413664938.0,16,0.0,0.0,0.0,-1.1,9.5,-0.5,-1.0,2.6,-1.9
1698413664955.0,16,0.0,0.0,0.0,-1.1,9.5,-0.5,-0.4,3.5,-2.3000000000000003
1698413664971.0,16,0.0,0.0,-0.1,-1.1,9.5,-0.5,-0.30000000000000004,3.8,-2.3000000000000003
1698413664988.0,16,0.0,0.0,-0.1,-1.1,9.5,-0.5,-0.1,3.2,-2.0
1698413665005.0,16,0.0,0.0,-0.1,-1.1,9.5,-0.6000000000000001,0.0,2.9,-2.0
1698413665022.0,16,0.0,0.0,-0.1,-1.1,9.5,-0.6000000000000001,-0.4,2.0,-2.1
1698413665038.0,16,0.0,0.0,-0.1,-1.1,9.5,-0.6000000000000001,-0.1,1.3,-1.9
1698413665055.0,16,0.1,0.0,-0.1,-1.0,9.5,-0.6000000000000001,-0.1,1.4,-1.5000000000000002
1698413665071.0,16,0.1,-0.1,-0.1,-1.1,9.4,-0.6000000000000001,0.0,1.3,-1.4
1698413665088.0,16,0.1,-0.1,-0.1,-1.1,9.4,-0.6000000000000001,0.5,1.8,-1.2000000000000002
1698413665105.0,16,0.0,-0.1,-0.1,-1.1,9.4,-0.7000000000000001,0.7,1.5000000000000002,-0.9
1698413665121.0,16,0.0,0.0,-0.1,-1.1,9.4,-0.6000000000000001,1.0,0.7,-0.6000000000000001
1698413665138.0,16,0.0,0.0,-0.1,-1.2000000000000002,9.5,-0.6000000000000001,1.5000000000000002,-0.8,-0.1
1698413665154.0,16,0.0,0.0,-0.1,-1.2000000000000002,9.5,-0.6000000000000001,1.9,-1.0,0.0
1698413665171.0,16,0.0,0.0,-0.1,-1.2000000000000002,9.5,-0.7000000000000001,2.1999999999999997,-1.5000000000000002,0.2
1698413665188.0,16,0.0,0.0,-0.1,-1.1,9.5,-0.7000000000000001,2.4000000000000004,-2.6,0.9
1698413665205.0,16,0.0,0.0,-0.1,-1.1,9.5,-0.6000000000000001,2.7,-3.9,1.5000000000000002
1698413665221.0,16,0.0,0.0,0.0,-1.1,9.5,-0.6000000000000001,2.8,-4.3999999999999995,1.6
1698413665238.0,16,-0.1,0.0,0.1,-1.2000000000000002,9.5,-0.5,3.2,-5.0,2.1999999999999997
1698413665254.0,16,0.0,0.0,0.1,-1.2000000000000002,9.5,-0.5,3.7000000000000006,-5.7,2.8
1698413665271.0,16,0.0,0.0,0.0,-1.1,9.5,-0.5,3.2,-6.1000000000000005,3.9
1698413665289.0,16,0.0,0.0,0.1,-1.1,9.5,-0.5,3.0000000000000004,-6.4,4.2
1698413665304.0,16,0.1,0.1,0.1,-1.0,9.600000000000001,-0.5,2.7,-6.8,4.6000000000000005
1698413665321.0,16,0.1,0.1,0.1,-1.0,9.600000000000001,-0.6000000000000001,2.4000000000000004,-7.0,4.3999999999999995
1698413665339.0,16,0.1,0.1,0.1,-1.0,9.600000000000001,-0.5,1.7,-6.2,4.6000000000000005
1698413665355.0,16,0.0,0.0,0.1,-1.0,9.5,-0.5,1.5000000000000002,-6.1000000000000005,4.7
1698413665371.0,16,0.1,0.1,0.0,-1.0,9.600000000000001,-0.6000000000000001,1.0999999999999999,-5.8,5.0
1698413665388.0,16,0.1,0.0,0.1,-0.9,9.600000000000001,-0.5,0.5,-5.500000000000001,4.9
1698413665405.0,16,0.1,0.0,0.2,-0.9,9.5,-0.4,0.2,-5.0,2.9
1698413665421.0,16,0.2,0.0,0.2,-0.8,9.5,-0.4,0.4,-3.6,2.7
1698413665438.0,16,0.2,0.0,0.2,-0.7000000000000001,9.5,-0.4,0.5,-1.6,2.7
1698413665454.0,16,0.2,0.0,0.2,-0.8,9.5,-0.4,0.8,0.0,2.0
1698413665472.0,16,0.1,0.0,0.1,-0.8,9.5,-0.4,0.9,1.0999999999999999,1.7
1698413665488.0,16,0.1,0.0,0.1,-0.8,9.5,-0.4,1.0,2.5,1.0999999999999999
1698413665505.0,16,0.1,0.0,0.1,-0.8,9.5,-0.5,0.9,3.8,0.5
1698413665521.0,16,0.1,0.0,0.0,-0.8,9.5,-0.5,0.7,5.300000000000001,0.1
1698413665539.0,16,0.1,0.0,0.0,-0.8,9.5,-0.5,1.0,6.2,-0.1
1698413665555.0,16,0.1,0.0,0.1,-0.8,9.5,-0.5,1.3,7.699999999999999,-0.2
1698413665571.0,16,0.1,0.0,0.1,-0.8,9.5,-0.5,1.7,9.1,-0.4
1698413665589.0,16,0.1,0.0,0.0,-0.8,9.5,-0.5,2.1,9.9,-0.7
1698413665604.0,16,0.0,0.0,0.0,-0.8,9.5,-0.6000000000000001,2.1,10.4,-1.2000000000000002
1698413665622.0,16,0.0,0.0,0.0,-0.9,9.5,-0.6000000000000001,2.0,10.700000000000001,-1.7
1698413665638.0,16,0.0,0.0,0.0,-0.9,9.600000000000001,-0.6000000000000001,2.0,10.8,-2.0
1698413665654.0,16,-0.1,0.0,0.0,-1.0,9.5,-0.6000000000000001,2.1999999999999997,10.600000000000001,-1.8
1698413665671.0,16,-0.1,0.0,0.0,-1.0,9.5,-0.7000000000000001,2.1,10.9,-1.4
1698413665688.0,16,-0.1,0.0,0.0,-1.0,9.5,-0.7000000000000001,2.1,10.600000000000001,-1.4
1698413665704.0,16,-0.1,0.0,-0.1,-1.0,9.5,-0.7000000000000001,1.9,9.1,-1.4
1698413665721.0,16,-0.1,0.1,-0.1,-1.0,9.600000000000001,-0.8,1.7,7.400000000000001,-1.6
1698413665737.0,16,-0.2,0.0,-0.2,-1.1,9.5,-0.8,1.8,6.5,-1.4
1698413665755.0,16,-0.2,-0.1,-0.2,-1.1,9.4,-0.9,1.8,5.6,-1.0999999999999999
1698413665771.0,16,-0.2,-0.1,-0.2,-1.1,9.4,-0.9,1.9,3.7000000000000006,-0.30000000000000004
1698413665788.0,16,-0.2,-0.1,-0.2,-1.2000000000000002,9.4,-0.9,1.8,2.7,-0.1
1698413665804.0,16,-0.2,-0.1,-0.1,-1.1,9.4,-0.9,1.7,1.0999999999999999,0.2
1698413665821.0,16,-0.1,0.0,-0.1,-1.1,9.5,-0.8,2.1,-0.6000000000000001,0.8
1698413665838.0,16,0.0,0.0,-0.1,-1.0,9.5,-0.8,2.1,-1.4,1.0999999999999999
1698413665854.0,16,0.0,0.1,0.0,-1.0,9.600000000000001,-0.8,1.7,-1.8,1.4
1698413665872.0,16,0.0,0.1,0.0,-1.0,9.600000000000001,-0.8,1.7,-1.6,1.2000000000000002
1698413665888.0,16,0.0,0.0,0.0,-0.9,9.5,-0.8,1.5000000000000002,-1.8,0.5
1698413665905.0,16,0.0,0.0,0.0,-1.0,9.5,-0.7000000000000001,1.5000000000000002,-2.1,0.0
1698413665922.0,16,0.0,-0.1,0.0,-1.0,9.4,-0.8,1.4,-2.4000000000000004,-0.2
1698413665938.0,16,-0.1,0.0,0.0,-1.1,9.5,-0.8,1.0999999999999999,-3.2,0.0
1698413665955.0,16,-0.1,0.0,-0.1,-1.0,9.5,-0.9,1.0,-3.4,0.0
1698413665971.0,16,-0.1,0.0,-0.1,-1.1,9.5,-0.9,0.8,-3.5,0.2
1698413665988.0,16,-0.1,0.0,-0.1,-1.1,9.5,-0.9,0.9,-3.9,0.5
