timestamp,interval,accx,accy,accz,accGx,accGy,accGz,alpha,beta,gamma
1698415574.016,16,0.2,0.0,-0.5,-0.2,9.5,-0.2,4.5,-4.800000000000001,-0.30000000000000004
1698415574.033,16,0.0,0.7000000000000001,-0.30000000000000004,-0.30000000000000004,10.200000000000001,-0.1,2.1,-7.699999999999999,-2.1999999999999997
1698415574.049,16,0.1,0.8,-0.4,-0.2,10.3,-0.1,-2.5,-4.300000000000001,-1.9
1698415574.066,16,0.1,0.30000000000000004,0.1,-0.2,9.8,0.30000000000000004,-7.699999999999999,4.6000000000000005,0.2
1698415574.083,16,0.30000000000000004,-0.1,0.30000000000000004,-0.1,9.4,0.7000000000000001,-6.9,7.1000000000000005,0.7
1698415574.1,16,0.1,-0.1,0.1,-0.30000000000000004,9.4,0.4,-3.8,7.300000000000001,-1.3
1698415574.117,16,-0.1,0.0,0.0,-0.4,9.4,0.30000000000000004,-0.7,3.5,-2.4000000000000004
1698415574.132,16,0.0,-0.2,0.1,-0.30000000000000004,9.3,0.5,0.2,3.0000000000000004,-2.0
1698415574.149,16,-0.2,-0.2,-0.2,-0.5,9.3,0.2,-0.5,1.4,-1.0999999999999999
1698415574.165,16,-0.2,-0.30000000000000004,-0.1,-0.5,9.200000000000001,0.2,-1.6,1.3,-0.5
1698415574.183,16,-0.1,-0.2,0.2,-0.5,9.3,0.5,-0.1,-1.4,-0.4
1698415574.202,16,-0.1,-0.2,0.1,-0.5,9.4,0.5,0.6000000000000001,-1.6,-0.2
1698415574.216,16,-0.1,-0.1,0.2,-0.4,9.4,0.6000000000000001,1.0999999999999999,-2.7,-0.5
1698415574.232,16,0.0,-0.1,0.1,-0.30000000000000004,9.4,0.5,3.4,-6.4,-0.7
1698415574.249,16,0.1,0.0,0.0,-0.30000000000000004,9.5,0.30000000000000004,3.4,-6.9,-1.4
1698415574.265,16,0.1,0.2,-0.1,-0.2,9.700000000000001,0.30000000000000004,3.3000000000000003,-5.6,-1.3
1698415574.282,16,0.1,0.2,-0.1,-0.30000000000000004,9.700000000000001,0.2,2.9,-5.500000000000001,-1.0999999999999999
1698415574.301,16,0.0,0.1,0.0,-0.4,9.600000000000001,0.2,2.6,-6.1000000000000005,-0.30000000000000004
1698415574.318,16,-0.1,0.0,0.0,-0.4,9.5,0.30000000000000004,3.2,-5.500000000000001,0.30000000000000004
1698415574.332,16,0.0,-0.1,0.0,-0.4,9.4,0.30000000000000004,3.6,-5.0,0.6000000000000001
1698415574.349,16,0.0,-0.1,0.0,-0.4,9.4,0.30000000000000004,3.9,-4.3999999999999995,0.6000000000000001
1698415574.366,16,0.0,0.0,0.0,-0.30000000000000004,9.5,0.30000000000000004,3.9,-3.9,0.4
1698415574.382,16,0.0,0.0,0.0,-0.30000000000000004,9.5,0.30000000000000004,3.9,-3.3000000000000003,0.2
1698415574.399,16,0.0,0.1,0.0,-0.30000000000000004,9.600000000000001,0.30000000000000004,3.4,-2.5,-0.30000000000000004
1698415574.416,16,-0.1,0.1,-0.1,-0.4,9.600000000000001,0.1,2.6,-1.8,-0.2
1698415574.432,16,0.0,0.1,-0.1,-0.4,9.700000000000001,0.1,1.4,-2.0,0.0
1698415574.45,16,0.0,0.1,-0.1,-0.4,9.600000000000001,0.2,1.0999999999999999,-2.0,0.30000000000000004
1698415574.465,16,0.0,0.0,-0.1,-0.4,9.600000000000001,0.1,0.8,-1.9,0.30000000000000004
1698415574.484,16,0.0,0.0,-0.2,-0.4,9.5,0.0,0.2,-2.0,0.4
1698415574.499,16,0.0,0.0,-0.1,-0.30000000000000004,9.5,0.1,-0.1,-1.7,0.4
1698415574.517,16,0.0,0.0,-0.1,-0.30000000000000004,9.600000000000001,0.1,-0.2,-1.6,0.4
1698415574.532,16,0.0,0.0,0.0,-0.30000000000000004,9.5,0.2,-0.5,-1.3,0.4
1698415574.549,16,0.0,0.0,-0.1,-0.30000000000000004,9.5,0.1,-0.6000000000000001,-1.4,0.4
1698415574.566,16,0.0,0.0,0.0,-0.30000000000000004,9.5,0.2,-0.7,-1.7,0.4
1698415574.582,16,0.0,0.0,0.0,-0.30000000000000004,9.600000000000001,0.2,-1.0,-1.0999999999999999,0.30000000000000004
1698415574.599,16,0.1,0.0,0.1,-0.30000000000000004,9.5,0.2,-0.9,-1.0,0.2
1698415574.615,16,0.1,0.0,0.0,-0.30000000000000004,9.5,0.30000000000000004,-1.0,-0.4,0.0
1698415574.632,16,0.0,-0.1,0.1,-0.30000000000000004,9.5,0.30000000000000004,-0.8,-0.1,0.0
1698415574.649,16,0.0,-0.1,0.1,-0.30000000000000004,9.5,0.30000000000000004,-0.7,0.2,-0.2
1698415574.665,16,0.0,0.0,0.1,-0.30000000000000004,9.5,0.30000000000000004,-0.5,0.6000000000000001,-0.7
1698415574.682,16,0.0,0.0,0.0,-0.30000000000000004,9.5,0.2,-0.5,1.0999999999999999,-0.9
1698415574.701,16,0.0,0.0,0.0,-0.30000000000000004,9.5,0.2,-0.4,1.0999999999999999,-0.9
1698415574.716,16,0.0,0.0,0.0,-0.30000000000000004,9.5,0.30000000000000004,-0.5,1.0,-1.2000000000000002
1698415574.732,16,0.0,0.0,0.0,-0.4,9.5,0.2,-0.5,1.0999999999999999,-1.2000000000000002
1698415574.749,16,0.0,0.0,0.0,-0.4,9.600000000000001,0.2,-0.6000000000000001,1.3,-1.0
1698415574.765,16,0.0,0.0,-0.1,-0.4,9.600000000000001,0.2,-1.0,1.4,-1.0
1698415574.782,16,0.0,0.0,-0.1,-0.4,9.5,0.2,-1.4,1.0,-1.2000000000000002
1698415574.799,16,0.0,0.0,-0.1,-0.4,9.600000000000001,0.2,-1.4,0.8,-1.0999999999999999
1698415574.815,16,0.0,0.1,-0.1,-0.4,9.600000000000001,0.1,-1.9,0.6000000000000001,-1.0
1698415574.832,16,0.0,0.0,0.0,-0.4,9.5,0.2,-2.1,0.4,-1.0
1698415574.848,16,0.0,0.0,0.0,-0.4,9.5,0.2,-2.1999999999999997,0.2,-0.9
1698415574.866,16,0.0,0.0,0.0,-0.4,9.5,0.2,-2.3000000000000003,0.0,-0.8
1698415574.882,16,0.0,0.0,0.0,-0.4,9.5,0.2,-2.3000000000000003,0.2,-0.7
1698415574.899,16,0.0,0.0,0.0,-0.4,9.5,0.30000000000000004,-2.1999999999999997,0.2,-0.5
1698415574.915,16,0.0,0.0,0.0,-0.4,9.5,0.30000000000000004,-2.1999999999999997,0.0,-0.5
1698415574.932,16,0.0,0.0,0.1,-0.4,9.5,0.30000000000000004,-2.1,0.2,-0.30000000000000004
1698415574.949,16,0.0,0.0,0.1,-0.4,9.5,0.30000000000000004,-1.8,0.1,-0.4
1698415574.965,16,0.0,0.0,0.1,-0.4,9.5,0.30000000000000004,-1.4,0.2,-0.4
1698415574.982,16,0.0,-0.1,0.1,-0.4,9.5,0.30000000000000004,-1.3,0.30000000000000004,-0.2
1698415574.999,16,0.0,0.0,0.1,-0.4,9.5,0.4,-1.0999999999999999,0.30000000000000004,-0.2
1698415575.016,16,0.0,0.0,0.0,-0.4,9.5,0.30000000000000004,-0.7,0.2,-0.1
1698415575.033,16,0.0,0.0,0.0,-0.4,9.5,0.30000000000000004,-0.7,0.30000000000000004,0.1
1698415575.049,16,0.0,0.0,0.0,-0.4,9.5,0.30000000000000004,-0.6000000000000001,0.30000000000000004,0.1
1698415575.066,16,0.0,0.0,0.0,-0.4,9.5,0.30000000000000004,-0.2,0.2,0.1
1698415575.082,16,0.0,0.0,0.0,-0.4,9.5,0.30000000000000004,0.2,0.0,0.1
1698415575.101,16,0.0,0.0,0.0,-0.4,9.5,0.30000000000000004,0.5,0.2,0.1
1698415575.116,16,0.0,0.0,0.0,-0.4,9.5,0.30000000000000004,0.5,0.1,0.1
1698415575.132,16,0.0,0.0,0.0,-0.4,9.5,0.30000000000000004,0.4,0.1,0.2
1698415575.148,16,0.0,0.0,0.0,-0.4,9.5,0.30000000000000004,0.5,-0.1,0.2
1698415575.166,16,0.0,0.0,0.0,-0.4,9.5,0.30000000000000004,0.5,-0.1,0.2
1698415575.182,16,0.0,0.0,0.0,-0.4,9.5,0.30000000000000004,0.7,-0.30000000000000004,0.4
1698415575.199,16,0.0,0.0,0.0,-0.4,9.5,0.30000000000000004,0.8,-0.30000000000000004,0.2
1698415575.216,16,0.0,0.0,0.0,-0.4,9.5,0.30000000000000004,0.9,0.0,0.1
1698415575.232,16,0.0,0.0,0.0,-0.4,9.5,0.30000000000000004,0.8,-0.30000000000000004,0.1
1698415575.25,16,0.0,0.0,0.0,-0.4,9.5,0.30000000000000004,0.7,-0.30000000000000004,0.1
1698415575.266,16,0.0,0.0,0.0,-0.30000000000000004,9.600000000000001,0.30000000000000004,0.6000000000000001,-0.30000000000000004,0.2
1698415575.282,16,0.0,0.0,-0.1,-0.4,9.5,0.2,0.4,-0.2,0.1
1698415575.298,16,0.0,0.0,0.0,-0.4,9.600000000000001,0.2,0.30000000000000004,-0.4,0.1
1698415575.315,16,0.0,0.0,0.0,-0.4,9.5,0.30000000000000004,0.30000000000000004,-0.4,0.1
1698415575.333,16,0.0,0.0,0.0,-0.4,9.5,0.2,0.4,-0.30000000000000004,0.2
1698415575.349,16,0.0,0.0,0.0,-0.4,9.5,0.2,0.4,-0.5,0.2
1698415575.366,16,0.0,0.0,0.0,-0.4,9.5,0.30000000000000004,0.5,-0.5,0.4
1698415575.382,16,0.0,0.0,0.0,-0.30000000000000004,9.5,0.30000000000000004,0.30000000000000004,-0.30000000000000004,0.4
1698415575.399,16,0.0,0.0,0.0,-0.4,9.5,0.30000000000000004,0.30000000000000004,-0.30000000000000004,0.4
1698415575.418,16,0.0,0.0,0.0,-0.30000000000000004,9.5,0.30000000000000004,0.2,0.1,0.4
1698415575.432,16,0.0,0.0,0.0,-0.4,9.600000000000001,0.30000000000000004,0.1,0.1,0.30000000000000004
1698415575.449,16,0.0,0.0,0.0,-0.30000000000000004,9.5,0.30000000000000004,0.1,0.0,0.2
1698415575.465,16,0.0,0.0,0.0,-0.4,9.5,0.30000000000000004,0.2,-0.1,0.2
1698415575.483,16,0.0,0.0,0.0,-0.4,9.5,0.2,0.1,-0.1,0.4
1698415575.499,16,0.0,0.0,0.0,-0.30000000000000004,9.5,0.30000000000000004,0.1,0.0,0.2
1698415575.516,16,0.0,0.0,0.0,-0.4,9.5,0.30000000000000004,0.30000000000000004,0.2,0.2
1698415575.532,16,0.0,0.0,0.0,-0.4,9.5,0.2,0.1,0.5,0.2
1698415575.549,16,0.0,0.0,0.0,-0.4,9.5,0.2,0.1,0.30000000000000004,0.4
1698415575.566,16,0.0,0.0,0.0,-0.4,9.5,0.30000000000000004,0.1,-0.1,0.4
1698415575.583,16,0.0,0.0,0.0,-0.30000000000000004,9.5,0.2,0.0,0.1,0.2
1698415575.599,16,0.0,0.0,0.0,-0.4,9.5,0.30000000000000004,-0.2,0.2,0.2
1698415575.616,16,0.0,0.0,0.0,-0.4,9.5,0.30000000000000004,-0.30000000000000004,0.2,0.2
1698415575.632,16,0.0,0.0,0.0,-0.4,9.5,0.30000000000000004,-0.30000000000000004,0.1,0.30000000000000004
1698415575.649,16,0.0,0.0,0.0,-0.4,9.5,0.2,-0.30000000000000004,0.0,0.2
1698415575.666,16,0.0,0.0,0.0,-0.30000000000000004,9.5,0.2,-0.2,-0.1,0.2
1698415575.682,16,0.0,0.0,0.0,-0.30000000000000004,9.5,0.2,-0.30000000000000004,-0.2,0.2
1698415575.699,16,0.0,0.0,0.0,-0.30000000000000004,9.5,0.30000000000000004,-0.4,-0.1,0.1
1698415575.716,16,0.0,0.0,0.0,-0.4,9.5,0.30000000000000004,-0.4,0.0,0.0
1698415575.733,16,0.0,0.0,0.0,-0.4,9.5,0.30000000000000004,-0.30000000000000004,0.0,-0.1
1698415575.749,16,0.0,0.0,0.0,-0.4,9.5,0.30000000000000004,-0.30000000000000004,0.30000000000000004,-0.1
1698415575.765,16,0.0,0.0,0.0,-0.4,9.5,0.30000000000000004,-0.2,0.2,-0.1
1698415575.782,16,0.0,0.0,0.0,-0.30000000000000004,9.5,0.30000000000000004,-0.2,0.6000000000000001,-0.30000000000000004
1698415575.799,16,0.0,0.0,0.0,-0.4,9.5,0.30000000000000004,-0.2,0.6000000000000001,-0.1
1698415575.816,16,0.0,0.0,0.0,-0.4,9.5,0.30000000000000004,-0.2,0.5,-0.2
1698415575.833,16,0.0,0.0,-0.1,-0.4,9.5,0.2,-0.4,0.30000000000000004,-0.1
1698415575.849,16,0.0,0.0,0.0,-0.4,9.5,0.30000000000000004,-0.7,0.2,0.1
1698415575.866,16,0.0,0.0,0.0,-0.4,9.5,0.30000000000000004,-0.5,0.2,0.1
1698415575.882,16,0.0,0.0,0.0,-0.30000000000000004,9.5,0.30000000000000004,-0.30000000000000004,0.4,0.1
1698415575.899,16,0.0,0.0,0.0,-0.4,9.5,0.30000000000000004,-0.6000000000000001,0.5,0.2
1698415575.916,16,0.0,0.0,0.1,-0.4,9.5,0.30000000000000004,-0.5,0.5,0.2
1698415575.932,16,0.0,0.0,0.0,-0.30000000000000004,9.5,0.30000000000000004,-0.1,0.30000000000000004,0.1
1698415575.949,16,0.0,0.0,0.0,-0.30000000000000004,9.5,0.30000000000000004,0.0,1.0,-0.1
1698415575.966,16,0.1,0.0,0.0,-0.30000000000000004,9.5,0.30000000000000004,-0.1,0.9,-0.1
1698415575.982,16,0.0,0.0,0.0,-0.30000000000000004,9.5,0.30000000000000004,0.1,0.6000000000000001,-0.2
1698415575.999,16,0.0,0.0,0.0,-0.30000000000000004,9.5,0.30000000000000004,0.30000000000000004,0.6000000000000001,-0.1
1698415576.016,16,0.0,0.0,0.0,-0.30000000000000004,9.5,0.30000000000000004,0.2,0.5,-0.2
1698415576.032,16,0.0,0.0,0.0,-0.4,9.5,0.30000000000000004,0.30000000000000004,0.2,-0.2
1698415576.049,16,0.0,0.0,0.0,-0.4,9.5,0.30000000000000004,0.8,0.1,0.0
1698415576.065,16,-0.1,-0.1,0.0,-0.4,9.4,0.30000000000000004,1.0999999999999999,-0.1,0.1
1698415576.083,16,-0.1,-0.1,0.1,-0.4,9.4,0.30000000000000004,1.8,-0.5,0.2
1698415576.099,16,0.0,0.0,0.1,-0.4,9.5,0.4,2.5,-0.8,0.2
1698415576.116,16,0.0,0.0,0.1,-0.4,9.5,0.4,2.7,-1.0999999999999999,0.2
1698415576.133,16,0.0,0.0,0.1,-0.30000000000000004,9.5,0.4,3.1,-0.6000000000000001,0.1
1698415576.149,16,0.0,0.0,0.1,-0.30000000000000004,9.5,0.4,3.3000000000000003,-0.5,-0.1
1698415576.165,16,0.0,0.0,0.1,-0.30000000000000004,9.5,0.4,3.2,-0.5,-0.1
1698415576.183,16,0.0,0.0,0.0,-0.30000000000000004,9.5,0.30000000000000004,3.6,0.0,0.1
1698415576.199,16,0.0,0.0,-0.1,-0.4,9.5,0.1,3.4,-0.30000000000000004,0.4
1698415576.216,16,0.0,0.0,-0.1,-0.4,9.600000000000001,0.1,3.0000000000000004,-0.6000000000000001,0.5
1698415576.233,16,0.0,0.1,-0.2,-0.4,9.600000000000001,0.0,2.4000000000000004,-0.6000000000000001,0.6000000000000001
1698415576.249,16,0.0,0.1,-0.2,-0.30000000000000004,9.600000000000001,0.0,1.5000000000000002,-0.4,0.4
1698415576.265,16,0.0,0.1,-0.30000000000000004,-0.30000000000000004,9.600000000000001,-0.1,1.0,-0.6000000000000001,0.5
1698415576.283,16,0.0,0.2,-0.2,-0.4,9.700000000000001,0.0,0.2,-0.8,0.5
1698415576.299,16,0.0,0.1,-0.2,-0.4,9.600000000000001,-0.1,-0.30000000000000004,-0.4,0.6000000000000001
1698415576.316,16,0.0,0.1,-0.2,-0.4,9.600000000000001,0.0,-0.6000000000000001,-0.30000000000000004,0.7
1698415576.332,16,0.0,0.0,-0.1,-0.4,9.600000000000001,0.1,-0.9,-0.30000000000000004,0.7
1698415576.349,16,0.0,0.0,0.0,-0.4,9.5,0.2,-1.2000000000000002,-0.6000000000000001,0.8
1698415576.366,16,0.0,0.0,0.1,-0.30000000000000004,9.5,0.30000000000000004,-1.2000000000000002,-0.7,0.7
1698415576.382,16,0.0,0.0,0.1,-0.4,9.5,0.30000000000000004,-1.2000000000000002,-0.5,0.6000000000000001
1698415576.399,16,0.0,0.0,0.1,-0.30000000000000004,9.5,0.30000000000000004,-1.3,-0.4,0.4
1698415576.416,16,0.0,0.0,0.1,-0.30000000000000004,9.5,0.30000000000000004,-1.4,-0.2,0.2
1698415576.433,16,0.0,0.0,0.1,-0.30000000000000004,9.5,0.30000000000000004,-1.4,-0.2,0.1
1698415576.449,16,0.0,0.0,0.0,-0.30000000000000004,9.5,0.2,-1.6,0.2,0.1
1698415576.465,16,0.0,0.0,0.0,-0.30000000000000004,9.5,0.2,-1.9,0.30000000000000004,0.1
1698415576.482,16,0.0,0.0,0.0,-0.30000000000000004,9.5,0.2,-1.9,0.5,0.0
1698415576.499,16,0.0,0.0,0.0,-0.30000000000000004,9.5,0.2,-1.4,0.5,-0.1
1698415576.515,16,0.0,0.0,0.0,-0.30000000000000004,9.5,0.2,-1.0999999999999999,0.5,-0.1
1698415576.533,16,0.0,0.0,0.0,-0.30000000000000004,9.5,0.2,-1.0,0.6000000000000001,-0.2
1698415576.549,16,0.0,0.0,0.0,-0.30000000000000004,9.5,0.2,-1.0,0.8,-0.2
1698415576.565,16,0.0,0.0,0.0,-0.4,9.5,0.30000000000000004,-1.0999999999999999,1.0,-0.2
1698415576.583,16,0.0,0.0,0.0,-0.4,9.5,0.30000000000000004,-1.3,1.2000000000000002,-0.2
1698415576.599,16,0.0,0.0,0.1,-0.30000000000000004,9.5,0.30000000000000004,-1.3,1.3,-0.1
1698415576.617,16,0.0,0.0,0.0,-0.30000000000000004,9.5,0.30000000000000004,-1.0,1.0,-0.1
1698415576.632,16,0.0,0.0,0.0,-0.4,9.5,0.30000000000000004,-1.0,1.0999999999999999,-0.1
1698415576.649,16,0.0,0.0,0.0,-0.4,9.5,0.30000000000000004,-1.0,0.7,0.0
1698415576.665,16,0.0,0.0,0.0,-0.4,9.5,0.30000000000000004,-1.2000000000000002,0.8,0.2
1698415576.682,16,0.0,0.0,0.0,-0.30000000000000004,9.5,0.30000000000000004,-1.2000000000000002,0.9,0.30000000000000004
1698415576.702,16,0.0,0.0,0.0,-0.4,9.5,0.2,-1.3,1.0999999999999999,0.1
1698415576.716,16,0.0,0.0,0.0,-0.4,9.5,0.30000000000000004,-1.3,0.6000000000000001,0.30000000000000004
1698415576.733,16,0.0,0.0,0.0,-0.4,9.5,0.30000000000000004,-1.0,0.30000000000000004,0.4
1698415576.75,16,0.0,0.0,0.0,-0.30000000000000004,9.5,0.2,-0.7,-0.30000000000000004,0.4
1698415576.765,16,0.0,0.0,0.0,-0.30000000000000004,9.5,0.30000000000000004,-0.8,-0.30000000000000004,0.2
1698415576.782,16,0.0,0.0,0.0,-0.30000000000000004,9.5,0.30000000000000004,-0.8,-0.7,0.1
1698415576.799,16,0.0,0.0,0.0,-0.30000000000000004,9.5,0.30000000000000004,-0.6000000000000001,-0.5,0.0
1698415576.817,16,0.0,0.0,0.0,-0.30000000000000004,9.5,0.30000000000000004,-0.5,-0.6000000000000001,0.1
1698415576.832,16,0.0,0.0,0.0,-0.30000000000000004,9.5,0.30000000000000004,-0.4,-0.7,0.0
1698415576.849,16,0.0,0.0,0.0,-0.30000000000000004,9.5,0.30000000000000004,-0.2,-0.9,0.2
1698415576.866,16,0.0,0.0,0.0,-0.30000000000000004,9.5,0.30000000000000004,0.1,-0.8,0.1
1698415576.882,16,0.0,0.0,0.0,-0.30000000000000004,9.5,0.30000000000000004,0.30000000000000004,-0.6000000000000001,0.1
1698415576.899,16,0.0,0.0,0.1,-0.30000000000000004,9.5,0.4,0.4,-0.6000000000000001,-0.1
1698415576.916,16,0.0,0.0,0.0,-0.30000000000000004,9.5,0.30000000000000004,0.8,-0.5,-0.2
1698415576.933,16,0.0,0.0,0.1,-0.30000000000000004,9.5,0.30000000000000004,0.8,-0.4,-0.2
1698415576.949,16,0.0,0.0,0.0,-0.30000000000000004,9.5,0.30000000000000004,1.0,-0.30000000000000004,-0.30000000000000004
1698415576.965,16,0.0,0.0,0.0,-0.30000000000000004,9.5,0.30000000000000004,1.0999999999999999,-0.30000000000000004,-0.4
1698415576.983,16,0.0,0.0,0.0,-0.30000000000000004,9.5,0.30000000000000004,1.2000000000000002,0.0,-0.2
1698415576.999,16,0.0,0.0,0.0,-0.30000000000000004,9.5,0.30000000000000004,1.2000000000000002,0.30000000000000004,-0.2
1698415577.016,16,0.0,0.0,0.0,-0.4,9.600000000000001,0.2,1.0,0.30000000000000004,-0.2
1698415577.032,16,0.0,0.1,0.0,-0.4,9.600000000000001,0.2,1.0,0.1,-0.30000000000000004
1698415577.049,16,0.0,0.0,-0.1,-0.4,9.5,0.2,1.0,-0.1,-0.2
1698415577.065,16,0.0,0.0,-0.1,-0.4,9.600000000000001,0.2,0.8,-0.2,-0.1
1698415577.082,16,0.0,0.0,-0.1,-0.4,9.5,0.2,0.7,-0.30000000000000004,0.1
1698415577.1,16,0.0,0.0,0.0,-0.30000000000000004,9.5,0.2,0.5,-0.30000000000000004,0.2
1698415577.116,16,0.0,0.0,0.0,-0.4,9.5,0.2,0.30000000000000004,-0.1,0.30000000000000004
1698415577.132,16,0.0,0.0,0.0,-0.30000000000000004,9.5,0.2,0.0,-0.1,0.4
1698415577.149,16,0.0,0.0,0.0,-0.30000000000000004,9.5,0.2,0.0,-0.1,0.5
1698415577.166,16,0.0,0.0,0.0,-0.30000000000000004,9.5,0.2,-0.1,-0.1,0.6000000000000001
1698415577.182,16,0.0,0.0,0.0,-0.30000000000000004,9.5,0.30000000000000004,0.0,-0.30000000000000004,0.7
1698415577.199,16,0.0,0.0,0.0,-0.30000000000000004,9.5,0.30000000000000004,0.0,-0.30000000000000004,0.7
1698415577.216,16,0.0,0.0,0.0,-0.30000000000000004,9.5,0.30000000000000004,0.1,-0.4,0.6000000000000001
1698415577.233,16,0.0,0.0,0.0,-0.30000000000000004,9.5,0.30000000000000004,0.0,-0.4,0.7
1698415577.249,16,0.0,0.0,0.0,-0.30000000000000004,9.5,0.30000000000000004,0.0,-0.4,0.7
1698415577.265,16,0.0,0.0,0.0,-0.30000000000000004,9.5,0.30000000000000004,0.0,-0.4,0.8
1698415577.282,16,0.0,0.0,0.0,-0.30000000000000004,9.5,0.30000000000000004,0.0,-0.5,0.7
1698415577.299,16,0.0,0.0,0.0,-0.30000000000000004,9.5,0.30000000000000004,0.0,-0.5,0.7
1698415577.316,16,0.0,0.0,0.0,-0.30000000000000004,9.5,0.30000000000000004,0.1,-0.4,0.5
1698415577.332,16,0.0,0.0,0.0,-0.30000000000000004,9.5,0.30000000000000004,0.2,-0.30000000000000004,0.5
1698415577.348,16,0.0,0.0,0.0,-0.30000000000000004,9.5,0.30000000000000004,0.5,-0.7,0.4
1698415577.365,16,0.0,0.0,0.0,-0.30000000000000004,9.5,0.30000000000000004,0.4,-0.6000000000000001,0.4
1698415577.382,16,0.0,0.0,0.0,-0.30000000000000004,9.5,0.30000000000000004,0.5,-0.5,0.5
1698415577.4,16,0.0,0.0,0.0,-0.30000000000000004,9.5,0.30000000000000004,0.4,-0.5,0.4
1698415577.417,16,0.0,0.0,0.0,-0.30000000000000004,9.5,0.2,0.6000000000000001,-0.30000000000000004,0.4
1698415577.432,16,0.0,0.0,0.0,-0.30000000000000004,9.5,0.30000000000000004,0.6000000000000001,-0.30000000000000004,0.4
1698415577.448,16,0.0,0.0,0.0,-0.30000000000000004,9.5,0.30000000000000004,0.7,-0.1,0.4
1698415577.467,16,0.0,0.0,0.0,-0.30000000000000004,9.5,0.30000000000000004,0.8,-0.1,0.4
1698415577.483,16,0.0,-0.1,0.0,-0.30000000000000004,9.5,0.2,0.9,-0.1,0.30000000000000004
1698415577.499,16,0.0,0.0,0.0,-0.30000000000000004,9.5,0.30000000000000004,1.0999999999999999,-0.4,0.4
1698415577.518,16,0.0,0.0,0.0,-0.30000000000000004,9.5,0.2,1.4,-0.9,0.6000000000000001
1698415577.533,16,0.0,0.0,0.0,-0.30000000000000004,9.5,0.2,1.5000000000000002,-0.9,0.4
1698415577.548,16,0.0,0.0,0.0,-0.30000000000000004,9.5,0.2,1.7,-1.0999999999999999,0.4
1698415577.565,16,0.0,0.0,0.0,-0.30000000000000004,9.5,0.30000000000000004,1.5000000000000002,-1.0999999999999999,0.4
1698415577.582,16,0.0,0.0,0.0,-0.30000000000000004,9.5,0.2,1.8,-1.0,0.30000000000000004
1698415577.599,16,0.0,0.0,0.0,-0.30000000000000004,9.5,0.2,1.8,-0.9,0.30000000000000004
1698415577.616,16,0.0,0.0,0.0,-0.30000000000000004,9.5,0.2,1.8,-0.9,0.4
1698415577.632,16,0.0,0.0,0.0,-0.30000000000000004,9.5,0.2,1.9,-0.7,0.4
1698415577.649,16,0.0,0.0,0.0,-0.30000000000000004,9.5,0.2,2.1999999999999997,-0.4,0.30000000000000004
1698415577.665,16,0.0,0.0,0.0,-0.2,9.5,0.2,2.3000000000000003,0.0,0.4
1698415577.682,16,0.0,0.0,0.0,-0.2,9.5,0.2,2.5,0.30000000000000004,0.2
1698415577.699,16,0.0,0.0,0.0,-0.2,9.5,0.2,2.6,0.8,0.2
1698415577.716,16,0.0,0.0,0.0,-0.30000000000000004,9.5,0.2,2.7,0.8,0.4
1698415577.733,16,0.0,0.0,0.0,-0.30000000000000004,9.5,0.2,2.6,0.6000000000000001,0.4
1698415577.749,16,0.0,0.0,0.0,-0.30000000000000004,9.600000000000001,0.1,2.5,0.6000000000000001,0.5
1698415577.766,16,0.0,0.0,0.0,-0.30000000000000004,9.5,0.1,2.3000000000000003,1.0,0.5
1698415577.782,16,-0.1,0.0,-0.1,-0.30000000000000004,9.5,0.1,2.3000000000000003,0.6000000000000001,0.30000000000000004
1698415577.8,16,0.0,0.0,-0.1,-0.30000000000000004,9.5,0.0,2.1,0.5,0.4
1698415577.817,16,-0.1,0.1,0.0,-0.4,9.600000000000001,0.1,1.8,0.0,0.4
1698415577.832,16,0.0,0.1,-0.1,-0.30000000000000004,9.600000000000001,0.1,1.5000000000000002,0.0,0.6000000000000001
1698415577.848,16,0.0,0.0,-0.1,-0.30000000000000004,9.600000000000001,0.0,1.0,0.0,0.6000000000000001
1698415577.865,16,0.0,0.0,-0.1,-0.30000000000000004,9.5,0.0,0.8,-0.1,0.6000000000000001
1698415577.882,16,0.0,0.0,0.0,-0.30000000000000004,9.600000000000001,0.1,0.5,-0.1,0.5
1698415577.898,16,0.0,0.0,0.0,-0.30000000000000004,9.5,0.1,0.30000000000000004,-0.30000000000000004,0.5
1698415577.916,16,0.0,0.0,0.0,-0.2,9.600000000000001,0.1,0.2,-0.1,0.5
1698415577.932,16,0.0,0.0,0.0,-0.2,9.5,0.1,0.30000000000000004,-0.30000000000000004,0.5
1698415577.948,16,0.0,0.0,0.0,-0.2,9.5,0.1,0.0,-0.1,0.6000000000000001
1698415577.965,16,0.0,0.0,0.0,-0.2,9.5,0.1,0.0,-0.1,0.4
1698415577.982,16,0.0,0.0,0.0,-0.2,9.5,0.1,0.0,-0.1,0.4
1698415577.998,16,0.0,0.0,0.0,-0.2,9.5,0.1,-0.2,0.0,0.2
1698415578.016,16,0.0,0.0,0.0,-0.30000000000000004,9.5,0.1,-0.30000000000000004,0.1,0.30000000000000004
1698415578.032,16,0.0,0.0,0.0,-0.30000000000000004,9.5,0.1,-0.4,0.0,0.2
1698415578.049,16,0.0,0.0,0.0,-0.30000000000000004,9.5,0.1,-0.4,0.2,0.2
1698415578.065,16,0.0,0.0,0.0,-0.2,9.600000000000001,0.1,-0.30000000000000004,0.1,0.2
1698415578.082,16,0.0,0.0,0.0,-0.2,9.5,0.1,-0.4,0.0,0.1
1698415578.099,16,0.0,0.0,-0.1,-0.2,9.5,0.0,-0.2,0.0,0.0
1698415578.117,16,0.0,0.0,0.0,-0.30000000000000004,9.5,0.1,-0.4,0.0,-0.1
1698415578.132,16,0.0,0.0,0.0,-0.30000000000000004,9.600000000000001,0.1,-0.7,0.2,-0.2
1698415578.149,16,0.0,0.0,0.0,-0.30000000000000004,9.5,0.1,-0.9,0.2,-0.2
1698415578.165,16,0.0,0.0,0.0,-0.30000000000000004,9.5,0.1,-1.0,0.30000000000000004,-0.2
1698415578.182,16,0.0,0.0,0.0,-0.2,9.5,0.1,-1.0,0.2,-0.1
1698415578.199,16,0.0,0.0,0.0,-0.30000000000000004,9.5,0.1,-1.0999999999999999,0.2,-0.30000000000000004
1698415578.216,16,0.0,0.0,0.0,-0.30000000000000004,9.5,0.1,-1.0999999999999999,0.2,-0.2
1698415578.232,16,0.0,0.0,0.0,-0.30000000000000004,9.5,0.1,-1.0999999999999999,0.2,-0.2
1698415578.248,16,0.0,0.0,0.0,-0.2,9.5,0.1,-0.8,0.0,-0.1
1698415578.265,16,0.0,0.0,0.0,-0.2,9.5,0.2,-0.9,0.30000000000000004,-0.1
1698415578.282,16,0.0,0.0,0.0,-0.2,9.5,0.1,-0.9,0.5,-0.30000000000000004
1698415578.298,16,0.0,0.0,0.0,-0.30000000000000004,9.5,0.1,-1.0999999999999999,0.1,-0.1
1698415578.315,16,0.0,0.0,0.0,-0.30000000000000004,9.5,0.2,-1.0999999999999999,0.0,-0.2
1698415578.333,16,0.0,0.0,0.0,-0.2,9.5,0.1,-1.0999999999999999,0.0,-0.1
1698415578.349,16,0.0,0.0,0.0,-0.30000000000000004,9.5,0.1,-1.0999999999999999,-0.30000000000000004,-0.4
1698415578.365,16,0.0,0.0,0.0,-0.30000000000000004,9.5,0.2,-1.0,-0.30000000000000004,-0.30000000000000004
1698415578.383,16,0.0,0.0,0.0,-0.30000000000000004,9.5,0.1,-1.0,-0.5,-0.4
1698415578.401,16,0.0,-0.1,0.0,-0.30000000000000004,9.5,0.2,-0.9,-0.30000000000000004,-0.2
1698415578.418,16,0.0,0.0,0.0,-0.30000000000000004,9.5,0.1,-0.8,-0.5,-0.1
1698415578.432,16,0.0,0.0,0.0,-0.30000000000000004,9.5,0.1,-0.8,-0.5,-0.1
1698415578.448,16,0.0,0.0,0.0,-0.30000000000000004,9.5,0.2,-0.7,-0.30000000000000004,-0.2
1698415578.465,16,0.0,0.0,0.0,-0.2,9.5,0.2,-0.6000000000000001,0.0,-0.4
1698415578.483,16,0.0,0.0,0.0,-0.30000000000000004,9.5,0.2,-0.7,0.0,-0.4
1698415578.498,16,0.0,0.0,0.0,-0.2,9.5,0.2,-0.7,0.0,-0.5
1698415578.516,16,0.0,0.0,0.0,-0.30000000000000004,9.5,0.2,-0.7,0.1,-0.7
1698415578.533,16,0.0,0.0,0.0,-0.30000000000000004,9.5,0.2,-0.5,0.1,-0.5
1698415578.548,16,0.0,0.0,0.0,-0.30000000000000004,9.5,0.2,-0.7,0.30000000000000004,-0.4
1698415578.565,16,0.0,0.0,0.0,-0.30000000000000004,9.5,0.2,-0.6000000000000001,0.4,-0.4
1698415578.583,16,0.0,0.0,0.0,-0.30000000000000004,9.5,0.1,-0.5,0.7,-0.7
1698415578.599,16,0.0,0.0,0.0,-0.30000000000000004,9.5,0.1,-0.8,0.30000000000000004,-0.7
1698415578.615,16,0.0,0.0,0.0,-0.30000000000000004,9.5,0.2,-0.7,0.2,-0.7
1698415578.632,16,0.0,0.0,0.0,-0.30000000000000004,9.5,0.2,-0.6000000000000001,0.2,-0.5
1698415578.648,16,0.0,0.0,0.0,-0.30000000000000004,9.5,0.2,-0.7,0.0,-0.7
1698415578.665,16,0.0,0.0,0.0,-0.30000000000000004,9.5,0.2,-0.8,0.30000000000000004,-0.6000000000000001
1698415578.683,16,0.0,0.0,0.0,-0.30000000000000004,9.5,0.2,-0.8,0.30000000000000004,-0.6000000000000001
1698415578.7,16,0.0,0.0,0.0,-0.30000000000000004,9.5,0.2,-0.8,0.4,-0.4
1698415578.716,16,0.0,0.0,0.0,-0.30000000000000004,9.5,0.2,-0.8,0.30000000000000004,-0.4
1698415578.732,16,0.0,0.0,0.0,-0.30000000000000004,9.5,0.2,-0.8,0.30000000000000004,-0.4
1698415578.748,16,0.0,0.0,0.0,-0.30000000000000004,9.5,0.2,-0.7,0.5,-0.4
1698415578.765,16,0.0,0.0,0.0,-0.30000000000000004,9.5,0.2,-0.5,-0.1,-0.30000000000000004
1698415578.782,16,0.0,0.0,0.0,-0.30000000000000004,9.5,0.2,-0.7,-0.1,-0.30000000000000004
1698415578.799,16,0.0,0.0,0.0,-0.30000000000000004,9.5,0.2,-0.30000000000000004,-0.1,-0.4
1698415578.817,16,0.0,0.0,0.0,-0.30000000000000004,9.5,0.2,-0.5,-0.4,-0.2
1698415578.832,16,0.0,0.0,0.1,-0.30000000000000004,9.5,0.30000000000000004,-0.30000000000000004,-0.1,-0.30000000000000004
1698415578.849,16,0.0,0.0,0.0,-0.30000000000000004,9.5,0.2,-0.2,-0.1,-0.2
1698415578.866,16,0.0,0.0,0.0,-0.30000000000000004,9.5,0.2,-0.1,-0.1,-0.2
1698415578.882,16,0.0,0.0,0.0,-0.30000000000000004,9.5,0.2,-0.2,-0.1,-0.30000000000000004
1698415578.899,16,0.0,0.0,0.0,-0.30000000000000004,9.5,0.2,-0.30000000000000004,0.1,-0.30000000000000004
1698415578.915,16,0.0,0.0,0.0,-0.30000000000000004,9.5,0.2,-0.2,0.1,-0.2
1698415578.932,16,0.0,0.0,0.0,-0.30000000000000004,9.5,0.2,-0.1,0.0,-0.2
1698415578.949,16,0.0,0.0,0.0,-0.30000000000000004,9.5,0.2,0.1,0.0,-0.4
1698415578.965,16,0.0,0.0,0.0,-0.30000000000000004,9.5,0.2,0.2,-0.1,-0.30000000000000004
1698415578.982,16,0.0,0.0,0.0,-0.30000000000000004,9.5,0.2,0.4,0.0,-0.2
1698415578.998,16,0.0,0.0,0.0,-0.30000000000000004,9.5,0.2,0.30000000000000004,0.0,-0.2
1698415579.015,16,0.0,0.0,0.0,-0.30000000000000004,9.5,0.2,0.30000000000000004,-0.1,-0.1
1698415579.032,16,0.0,0.0,0.1,-0.30000000000000004,9.5,0.4,0.5,-0.4,-0.2
1698415579.049,16,-0.1,0.0,0.1,-0.4,9.5,0.30000000000000004,0.9,-0.1,-0.2
1698415579.065,16,0.0,0.0,0.0,-0.30000000000000004,9.5,0.2,0.8,-0.5,0.0
1698415579.083,16,0.0,0.0,0.0,-0.30000000000000004,9.5,0.2,0.5,-0.30000000000000004,-0.1
1698415579.098,16,0.0,0.0,0.0,-0.30000000000000004,9.5,0.2,0.5,-0.30000000000000004,-0.1
1698415579.115,16,0.0,0.0,0.0,-0.30000000000000004,9.5,0.2,0.8,-0.1,-0.2
1698415579.132,16,0.0,0.0,0.0,-0.30000000000000004,9.5,0.2,1.0999999999999999,0.1,0.0
1698415579.153,16,0.0,0.0,0.0,-0.30000000000000004,9.5,0.2,0.9,0.0,0.0
1698415579.165,16,0.0,0.0,0.0,-0.30000000000000004,9.5,0.1,0.9,-0.30000000000000004,0.1
1698415579.182,16,0.0,0.0,0.0,-0.30000000000000004,9.5,0.2,0.9,-0.5,0.1
1698415579.198,16,0.0,0.0,0.0,-0.30000000000000004,9.5,0.2,0.9,-0.5,0.1
1698415579.215,16,0.0,0.0,-0.1,-0.4,9.5,0.1,0.9,-0.6000000000000001,0.2
1698415579.232,16,0.0,0.0,0.0,-0.30000000000000004,9.5,0.2,0.9,-0.9,0.2
1698415579.249,16,0.0,0.0,0.0,-0.30000000000000004,9.5,0.2,0.9,-0.8,0.2
1698415579.265,16,0.0,0.0,0.0,-0.30000000000000004,9.5,0.2,0.9,-0.4,0.2
1698415579.282,16,0.0,0.0,0.0,-0.30000000000000004,9.5,0.2,1.0999999999999999,-0.1,0.0
1698415579.298,16,0.0,0.0,0.0,-0.30000000000000004,9.5,0.2,1.0999999999999999,-0.1,0.0
1698415579.315,16,0.0,0.0,0.0,-0.30000000000000004,9.5,0.2,1.3,-0.30000000000000004,0.2
1698415579.332,16,0.0,0.0,0.0,-0.30000000000000004,9.5,0.1,1.4,-0.6000000000000001,0.4
1698415579.349,16,0.0,0.0,0.0,-0.30000000000000004,9.5,0.2,1.4,-0.6000000000000001,0.30000000000000004
1698415579.365,16,0.0,0.0,0.0,-0.30000000000000004,9.5,0.2,1.5000000000000002,-0.7,0.5
1698415579.383,16,0.0,0.0,0.0,-0.30000000000000004,9.5,0.1,1.8,-0.2,0.4
1698415579.399,16,0.0,0.0,0.0,-0.30000000000000004,9.5,0.1,1.8,-0.1,0.30000000000000004
1698415579.415,16,0.0,0.0,0.0,-0.30000000000000004,9.5,0.1,1.8,-0.1,0.4
1698415579.432,16,0.0,0.0,0.0,-0.30000000000000004,9.5,0.2,1.8,0.0,0.6000000000000001
1698415579.449,16,0.0,0.0,0.0,-0.30000000000000004,9.5,0.1,1.8,-0.1,0.5
1698415579.466,16,0.0,0.0,0.0,-0.30000000000000004,9.5,0.1,1.8,-0.1,0.6000000000000001
1698415579.483,16,0.0,0.0,0.0,-0.30000000000000004,9.5,0.1,1.7,-0.1,0.5
1698415579.5,16,0.0,0.0,0.0,-0.30000000000000004,9.5,0.1,1.4,-0.1,0.6000000000000001
1698415579.516,16,0.0,0.1,0.0,-0.30000000000000004,9.600000000000001,0.1,1.4,-0.1,0.4
1698415579.532,16,0.0,0.0,-0.1,-0.30000000000000004,9.5,0.0,0.9,0.30000000000000004,0.4
1698415579.55,16,0.0,0.0,-0.1,-0.30000000000000004,9.600000000000001,0.0,0.0,0.2,0.2
1698415579.566,16,0.0,0.1,-0.1,-0.30000000000000004,9.600000000000001,0.0,-0.30000000000000004,-0.30000000000000004,0.1
1698415579.583,16,0.0,0.0,-0.1,-0.30000000000000004,9.600000000000001,0.0,-1.3,-0.30000000000000004,-0.4
1698415579.599,16,0.0,0.1,0.0,-0.2,9.600000000000001,0.1,-1.9,-0.6000000000000001,-0.2
1698415579.615,16,0.0,0.1,-0.1,-0.30000000000000004,9.600000000000001,0.0,-2.1999999999999997,-0.6000000000000001,-0.4
1698415579.632,16,0.0,0.1,-0.1,-0.30000000000000004,9.600000000000001,0.0,-2.6,-0.5,-0.4
1698415579.648,16,0.0,0.1,-0.1,-0.30000000000000004,9.600000000000001,0.0,-3.4,-0.4,-0.2
1698415579.665,16,0.0,0.0,-0.1,-0.30000000000000004,9.600000000000001,0.0,-3.8,-0.30000000000000004,-0.2
1698415579.682,16,0.0,0.1,-0.1,-0.30000000000000004,9.600000000000001,0.0,-4.800000000000001,-0.1,-0.4
1698415579.699,16,0.0,0.1,-0.1,-0.30000000000000004,9.600000000000001,0.0,-5.2,0.2,-0.30000000000000004
1698415579.716,16,0.0,0.1,-0.1,-0.30000000000000004,9.600000000000001,0.1,-6.000000000000001,0.6000000000000001,-0.2
1698415579.732,16,0.0,0.1,0.0,-0.30000000000000004,9.600000000000001,0.1,-7.1000000000000005,0.6000000000000001,0.2
1698415579.75,16,-0.1,0.1,-0.1,-0.4,9.600000000000001,0.1,-7.699999999999999,0.7,0.5
1698415579.766,16,-0.1,0.0,-0.1,-0.4,9.600000000000001,0.1,-8.5,0.0,0.7
1698415579.782,16,0.0,0.0,0.0,-0.30000000000000004,9.600000000000001,0.2,-8.799999999999999,-0.8,0.7
1698415579.799,16,0.0,0.1,0.0,-0.30000000000000004,9.600000000000001,0.2,-8.9,-1.0,0.4
1698415579.815,16,0.0,0.0,-0.1,-0.30000000000000004,9.600000000000001,0.2,-9.1,-0.8,0.2
1698415579.832,16,0.0,0.0,-0.1,-0.30000000000000004,9.5,0.2,-9.8,0.0,0.2
1698415579.849,16,-0.1,0.0,-0.1,-0.4,9.600000000000001,0.2,-10.3,-0.1,0.2
1698415579.866,16,-0.1,0.0,-0.1,-0.4,9.600000000000001,0.30000000000000004,-11.6,-0.5,0.4
1698415579.882,16,0.0,0.1,0.0,-0.30000000000000004,9.600000000000001,0.4,-13.700000000000001,-1.0999999999999999,0.1
1698415579.899,16,0.0,0.1,0.0,-0.30000000000000004,9.600000000000001,0.4,-15.9,-1.9,-0.1
1698415579.916,16,0.0,0.1,0.0,-0.30000000000000004,9.600000000000001,0.5,-17.400000000000002,-1.9,-0.1
1698415579.932,16,0.0,0.2,-0.1,-0.30000000000000004,9.700000000000001,0.4,-21.200000000000003,-1.7,0.1
1698415579.948,16,0.0,0.1,-0.2,-0.30000000000000004,9.700000000000001,0.4,-26.6,-0.5,0.5
1698415579.965,16,0.0,0.1,-0.2,-0.30000000000000004,9.600000000000001,0.4,-28.6,0.1,1.0
1698415579.982,16,0.0,0.2,-0.2,-0.30000000000000004,9.700000000000001,0.5,-32.9,1.5000000000000002,2.4000000000000004
1698415580.0,16,0.0,0.2,-0.30000000000000004,-0.30000000000000004,9.8,0.5,-36.3,2.7,4.2
1698415580.015,16,0.0,0.2,-0.4,-0.30000000000000004,9.700000000000001,0.5,-37.7,2.5,4.6000000000000005
1698415580.032,16,0.0,0.2,-0.5,-0.30000000000000004,9.700000000000001,0.5,-38.900000000000006,4.300000000000001,4.3999999999999995
1698415580.048,16,0.0,0.1,-0.5,-0.30000000000000004,9.700000000000001,0.6000000000000001,-29.200000000000003,-0.6000000000000001,4.300000000000001
1698415580.065,16,0.0,0.2,-0.5,-0.30000000000000004,9.9,0.6000000000000001,-31.0,-0.8,3.1
1698415580.081,16,0.0,0.30000000000000004,-0.5,-0.2,9.9,0.7000000000000001,-34.400000000000006,-0.8,3.2
1698415580.098,16,-0.1,0.1,-0.5,-0.30000000000000004,9.700000000000001,0.8,-34.300000000000004,-0.8,3.5
1698415580.115,16,-0.1,0.1,-0.5,-0.30000000000000004,9.600000000000001,0.9,-34.300000000000004,-0.5,3.4
1698415580.133,16,0.0,0.1,-0.4,-0.2,9.600000000000001,1.1,-37.1,-0.4,3.6
1698415580.148,16,0.0,0.0,-0.30000000000000004,-0.2,9.600000000000001,1.3,-37.1,-0.8,3.1
1698415580.166,16,0.0,0.1,-0.2,-0.2,9.600000000000001,1.4000000000000001,-37.800000000000004,-0.6000000000000001,3.1
1698415580.183,16,0.0,0.0,-0.2,-0.2,9.5,1.5,-39.699999999999996,0.0,3.4
1698415580.199,16,0.0,0.0,-0.1,-0.2,9.5,1.8,-41.4,0.0,3.9
1698415580.215,16,0.0,0.0,0.0,-0.2,9.4,1.9000000000000001,-42.6,-0.5,4.300000000000001
1698415580.234,16,0.0,-0.1,0.0,-0.2,9.4,2.1,-43.400000000000006,-0.5,4.3999999999999995
1698415580.249,16,0.0,-0.2,0.0,-0.1,9.200000000000001,2.2,-44.5,-0.8,4.800000000000001
1698415580.265,16,0.0,-0.30000000000000004,0.0,-0.1,9.200000000000001,2.3000000000000003,-44.8,-0.8,4.9
1698415580.282,16,0.0,-0.4,0.0,-0.1,9.0,2.4000000000000004,-46.300000000000004,-0.5,5.300000000000001
1698415580.298,16,0.0,-0.2,0.0,-0.1,9.0,2.6,-48.2,0.0,5.7
1698415580.315,16,-0.1,-0.30000000000000004,0.0,-0.1,8.9,2.7,-50.1,0.1,6.3
1698415580.331,16,0.0,-0.2,0.0,-0.1,9.0,2.8000000000000003,-51.5,0.1,6.6000000000000005
1698415580.348,16,0.0,-0.2,0.0,0.0,8.9,3.0,-53.400000000000006,-0.1,6.7
1698415580.365,16,0.0,-0.1,-0.1,0.0,9.0,3.1,-56.6,-0.2,6.7
1698415580.381,16,0.1,-0.1,-0.1,0.1,9.0,3.2,-57.1,0.30000000000000004,7.0
1698415580.398,16,0.0,-0.2,0.0,0.0,8.8,3.4000000000000004,-60.00000000000001,0.5,7.300000000000001
1698415580.415,16,0.0,0.0,-0.2,0.1,8.9,3.5,-63.10000000000001,2.5,7.6
1698415580.431,16,-0.1,-0.2,-0.1,0.0,8.700000000000001,3.7,-65.2,3.1,7.699999999999999
1698415580.448,16,0.0,-0.1,0.0,0.0,8.700000000000001,3.9000000000000004,-67.4,4.7,8.1
1698415580.465,16,-0.1,0.1,-0.1,0.0,8.8,4.1000000000000005,-69.7,6.3,8.1
1698415580.482,16,-0.1,0.1,0.0,0.0,8.700000000000001,4.2,-70.5,6.2,8.600000000000001
1698415580.499,16,-0.1,0.0,0.0,0.0,8.5,4.5,-75.0,5.7,8.5
1698415580.515,16,-0.1,-0.30000000000000004,-0.2,0.1,8.1,4.6000000000000005,-77.3,5.300000000000001,6.7
1698415580.532,16,0.0,-0.1,-0.2,0.1,8.200000000000001,4.6000000000000005,-78.00000000000001,4.800000000000001,6.000000000000001
1698415580.548,16,0.0,0.2,-0.30000000000000004,0.2,8.4,4.7,-77.7,4.9,4.9
1698415580.565,16,0.0,0.6000000000000001,-0.30000000000000004,0.2,8.700000000000001,5.0,-80.30000000000001,4.800000000000001,5.0
1698415580.582,16,0.0,0.0,-0.1,0.1,8.0,5.300000000000001,-79.10000000000001,4.800000000000001,4.3999999999999995
1698415580.598,16,-0.1,0.30000000000000004,0.1,0.1,8.1,5.7,-80.9,3.5,4.0
1698415580.616,16,0.0,0.7000000000000001,0.2,0.1,8.4,6.0,-79.10000000000001,3.1,3.5
1698415580.633,16,0.0,0.2,0.2,0.1,7.9,6.2,-79.00000000000001,3.7000000000000006,3.1
1698415580.649,16,0.1,0.1,0.4,0.30000000000000004,7.5,6.5,-79.8,4.7,2.9
1698415580.665,16,0.1,0.30000000000000004,0.6000000000000001,0.2,7.6000000000000005,6.9,-76.80000000000001,5.500000000000001,4.0
1698415580.682,16,0.1,0.6000000000000001,0.8,0.2,7.7,7.300000000000001,-76.2,5.2,4.0
1698415580.699,16,0.0,0.8,0.9,0.2,7.1000000000000005,7.6000000000000005,-73.60000000000001,4.2,3.7000000000000006
1698415580.715,16,0.30000000000000004,0.5,1.2000000000000002,0.4,7.4,8.0,-72.10000000000001,5.8,4.1000000000000005
1698415580.732,16,0.30000000000000004,0.4,1.3,0.4,7.2,8.200000000000001,-69.9,6.000000000000001,2.9
1698415580.749,16,0.2,0.1,1.3,0.30000000000000004,6.7,8.4,-66.3,7.400000000000001,0.5
1698415580.765,16,0.1,-0.30000000000000004,1.5,0.2,6.2,8.700000000000001,-60.00000000000001,7.8,1.8
1698415580.783,16,0.1,0.2,1.4000000000000001,0.2,6.6000000000000005,8.700000000000001,-58.1,6.9,1.0999999999999999
1698415580.799,16,0.0,-0.2,1.7000000000000002,0.0,6.1000000000000005,9.1,-52.7,4.3999999999999995,-0.2
1698415580.816,16,-0.1,-0.30000000000000004,1.7000000000000002,0.0,5.800000000000001,9.200000000000001,-48.50000000000001,4.2,-0.4
1698415580.832,16,-0.1,-0.30000000000000004,1.6,0.0,5.7,9.200000000000001,-45.7,3.7000000000000006,-0.6000000000000001
1698415580.849,16,0.1,-0.2,1.4000000000000001,0.2,5.7,9.1,-39.6,2.4000000000000004,-0.2
1698415580.865,16,0.1,-0.9,1.3,0.2,4.9,9.1,-34.800000000000004,3.0000000000000004,-1.6
1698415580.883,16,0.2,-1.0,1.1,0.2,4.800000000000001,9.0,-33.7,3.4,-0.1
1698415580.898,16,-0.1,-0.6000000000000001,1.0,-0.1,5.1000000000000005,8.8,-29.300000000000004,2.5,-0.9
1698415580.915,16,-0.1,-0.7000000000000001,1.1,0.0,4.9,9.0,-26.3,2.0,-0.5
1698415580.932,16,-0.1,-0.7000000000000001,1.0,-0.1,4.9,8.9,-22.000000000000004,0.6000000000000001,-0.9
1698415580.949,16,-0.30000000000000004,-0.7000000000000001,0.8,-0.30000000000000004,4.800000000000001,8.8,-19.9,0.7,-0.6000000000000001
1698415580.965,16,-0.30000000000000004,-0.8,0.7000000000000001,-0.2,4.7,8.8,-16.2,0.0,0.0
1698415580.982,16,-0.2,-0.8,0.7000000000000001,-0.2,4.6000000000000005,8.8,-14.500000000000002,-0.4,0.2
1698415581.001,16,-0.1,-0.8,0.7000000000000001,-0.1,4.6000000000000005,8.8,-10.8,-0.1,0.4
1698415581.015,16,-0.2,-0.8,0.5,-0.2,4.6000000000000005,8.700000000000001,-6.5,-1.5000000000000002,0.0
1698415581.032,16,-0.30000000000000004,-0.8,0.4,-0.30000000000000004,4.6000000000000005,8.5,-2.7,-2.1999999999999997,-0.5
1698415581.048,16,-0.2,-0.7000000000000001,0.4,-0.2,4.6000000000000005,8.6,-1.6,-2.3000000000000003,-0.8
1698415581.065,16,0.0,-0.7000000000000001,0.6000000000000001,0.0,4.6000000000000005,8.700000000000001,1.3,-1.9,-1.7
1698415581.082,16,0.1,-0.7000000000000001,0.5,0.1,4.7,8.6,3.4,-2.3000000000000003,-2.1
1698415581.098,16,0.1,-0.7000000000000001,0.4,0.1,4.7,8.6,4.7,-2.3000000000000003,-2.3000000000000003
1698415581.115,16,0.1,-0.7000000000000001,0.30000000000000004,0.1,4.7,8.4,6.3,-1.9,-3.0000000000000004
1698415581.132,16,0.1,-0.8,0.4,0.2,4.6000000000000005,8.5,7.500000000000001,-1.0999999999999999,-2.7
1698415581.149,16,0.2,-0.8,0.4,0.2,4.6000000000000005,8.5,8.200000000000001,-0.8,-2.3000000000000003
1698415581.165,16,0.0,-0.7000000000000001,0.4,0.1,4.7,8.5,10.2,-0.6000000000000001,-1.3
1698415581.183,16,0.0,-0.7000000000000001,0.30000000000000004,0.1,4.7,8.4,11.000000000000002,-0.6000000000000001,-0.6000000000000001
1698415581.199,16,0.1,-0.7000000000000001,0.30000000000000004,0.2,4.7,8.4,11.5,-1.0999999999999999,-0.4
1698415581.215,16,0.2,-0.7000000000000001,0.2,0.2,4.7,8.3,12.700000000000001,-0.6000000000000001,0.2
1698415581.233,16,0.2,-0.5,0.30000000000000004,0.30000000000000004,4.9,8.4,13.3,-0.1,0.4
1698415581.248,16,0.2,-0.5,0.30000000000000004,0.2,4.9,8.4,13.9,-0.2,0.8
1698415581.265,16,0.1,-0.4,0.30000000000000004,0.2,5.0,8.4,14.600000000000001,0.1,0.9
1698415581.282,16,0.1,-0.4,0.2,0.2,5.0,8.3,15.399999999999999,-0.30000000000000004,0.4
1698415581.298,16,0.1,-0.4,0.2,0.2,5.1000000000000005,8.200000000000001,15.9,-0.5,0.7
1698415581.317,16,0.2,-0.4,0.30000000000000004,0.30000000000000004,5.1000000000000005,8.3,17.0,-0.6000000000000001,1.2000000000000002
1698415581.332,16,0.2,-0.30000000000000004,0.2,0.30000000000000004,5.2,8.200000000000001,19.0,0.30000000000000004,0.7
1698415581.349,16,0.2,-0.2,0.1,0.30000000000000004,5.300000000000001,8.1,19.9,1.0999999999999999,0.4
1698415581.365,16,0.2,-0.4,0.2,0.30000000000000004,5.2,8.1,21.8,1.7,0.4
1698415581.383,16,0.2,-0.30000000000000004,0.1,0.30000000000000004,5.4,8.0,24.200000000000003,2.1999999999999997,0.30000000000000004
1698415581.399,16,0.30000000000000004,-0.2,0.1,0.4,5.5,8.0,25.3,3.0000000000000004,0.30000000000000004
1698415581.416,16,0.2,-0.2,0.1,0.30000000000000004,5.6000000000000005,7.9,27.6,3.8,-0.1
1698415581.432,16,0.0,-0.30000000000000004,0.0,0.1,5.6000000000000005,7.800000000000001,29.900000000000006,4.300000000000001,-0.4
1698415581.448,16,0.0,-0.30000000000000004,0.0,0.1,5.6000000000000005,7.7,30.9,4.0,-0.5
1698415581.465,16,0.0,-0.30000000000000004,-0.2,0.0,5.7,7.5,33.5,4.0,-0.4
1698415581.482,16,-0.1,-0.30000000000000004,-0.2,0.0,5.7,7.4,35.9,3.4,-0.2
1698415581.5,16,-0.1,-0.4,-0.30000000000000004,-0.1,5.7,7.2,37.2,2.5,-0.2
1698415581.515,16,-0.1,-0.5,-0.4,-0.1,5.7,7.1000000000000005,39.50000000000001,2.4000000000000004,-0.5
1698415581.532,16,-0.1,-0.6000000000000001,-0.6000000000000001,-0.1,5.7,6.800000000000001,42.2,1.6,-1.3
1698415581.548,16,-0.2,-0.7000000000000001,-0.6000000000000001,-0.1,5.7,6.7,44.3,0.0,-1.8
1698415581.565,16,-0.2,-0.8,-0.7000000000000001,-0.2,5.7,6.5,45.1,-0.8,-1.8
1698415581.582,16,-0.2,-0.8,-0.6000000000000001,-0.2,5.800000000000001,6.5,46.0,-2.8,-2.1
1698415581.598,16,-0.2,-0.8,-0.7000000000000001,-0.1,5.9,6.4,46.4,-3.4,-2.6
1698415581.615,16,-0.1,-0.7000000000000001,-0.6000000000000001,-0.1,6.0,6.4,47.0,-4.300000000000001,-3.3000000000000003
1698415581.632,16,-0.1,-0.7000000000000001,-0.6000000000000001,-0.1,6.1000000000000005,6.2,47.1,-5.300000000000001,-3.2
1698415581.649,16,-0.1,-0.7000000000000001,-0.4,-0.1,6.2,6.300000000000001,46.7,-5.8,-3.3000000000000003
1698415581.665,16,-0.1,-0.7000000000000001,-0.4,-0.1,6.300000000000001,6.2,46.6,-5.1,-3.6
1698415581.682,16,0.0,-0.6000000000000001,-0.30000000000000004,0.1,6.5,6.2,45.800000000000004,-4.7,-3.5
1698415581.7,16,0.0,-0.5,-0.4,0.1,6.6000000000000005,6.1000000000000005,45.3,-4.300000000000001,-3.9
1698415581.717,16,0.0,-0.4,-0.30000000000000004,0.1,6.800000000000001,6.0,44.00000000000001,-3.2,-4.5
1698415581.732,16,0.0,-0.30000000000000004,-0.2,0.0,7.0,6.0,42.6,-3.9,-3.7000000000000006
1698415581.748,16,-0.1,-0.30000000000000004,-0.1,-0.1,7.1000000000000005,6.0,42.1,-3.2,-3.4
1698415581.765,16,-0.1,-0.30000000000000004,-0.2,-0.1,7.2,5.9,41.800000000000004,-2.7,-3.4
1698415581.782,16,-0.1,-0.1,-0.2,-0.1,7.4,5.800000000000001,40.9,-2.0,-3.4
1698415581.798,16,0.0,-0.1,-0.1,0.0,7.5,5.800000000000001,40.3,-1.2000000000000002,-3.5
1698415581.816,16,0.0,-0.1,0.0,0.0,7.6000000000000005,5.800000000000001,40.5,-0.8,-3.5
1698415581.832,16,0.0,-0.1,-0.1,0.0,7.6000000000000005,5.7,40.8,0.8,-3.2
1698415581.849,16,-0.1,-0.1,-0.1,-0.1,7.7,5.5,41.1,1.4,-2.9
1698415581.865,16,-0.1,-0.2,-0.2,-0.1,7.7,5.4,41.2,1.7,-2.3000000000000003
1698415581.882,16,-0.1,-0.30000000000000004,-0.2,-0.1,7.7,5.2,41.800000000000004,1.9,-1.5000000000000002
1698415581.899,16,-0.2,-0.30000000000000004,-0.2,-0.2,7.7,5.2,42.0,2.1999999999999997,-1.6
1698415581.917,16,-0.30000000000000004,-0.4,-0.2,-0.30000000000000004,7.7,5.0,42.7,2.8,-1.2000000000000002
1698415581.932,16,-0.1,-0.4,-0.30000000000000004,-0.2,7.7,4.800000000000001,43.800000000000004,3.1,-1.2000000000000002
1698415581.949,16,-0.2,-0.30000000000000004,-0.2,-0.2,7.9,4.800000000000001,44.6,2.0,-0.7
1698415581.966,16,-0.2,-0.30000000000000004,-0.2,-0.30000000000000004,8.0,4.7,45.1,2.4000000000000004,-0.6000000000000001
1698415581.982,16,-0.2,-0.2,-0.30000000000000004,-0.30000000000000004,8.1,4.5,46.1,1.3,0.30000000000000004
1698415581.999,16,-0.2,-0.7000000000000001,-0.2,-0.30000000000000004,7.7,4.4,46.300000000000004,0.0,-0.7
1698415582.015,16,-0.30000000000000004,-0.30000000000000004,-0.30000000000000004,-0.30000000000000004,8.1,4.3,46.5,0.6000000000000001,-1.0
1698415582.032,16,-0.2,-0.1,-0.5,-0.2,8.4,4.0,47.2,-1.0,-0.7
1698415582.048,16,-0.1,-0.2,-0.4,-0.2,8.4,3.9000000000000004,47.6,-3.8,-0.5
1698415582.066,16,-0.1,-0.30000000000000004,-0.30000000000000004,-0.2,8.3,3.9000000000000004,47.900000000000006,-5.500000000000001,-1.0
1698415582.083,16,-0.2,-0.6000000000000001,-0.4,-0.2,8.1,3.6,47.7,-8.0,-2.8
1698415582.099,16,0.1,0.1,-0.4,0.0,8.8,3.5,47.5,-11.6,-2.6
1698415582.116,16,0.1,0.0,-0.4,0.1,8.700000000000001,3.3000000000000003,48.7,-12.100000000000001,-2.9
1698415582.133,16,0.2,-0.30000000000000004,-0.4,0.2,8.6,3.3000000000000003,48.50000000000001,-11.8,-3.1
1698415582.148,16,0.30000000000000004,-0.30000000000000004,-0.4,0.2,8.6,3.2,48.2,-9.4,-4.1000000000000005
1698415582.166,16,0.30000000000000004,-0.2,-0.30000000000000004,0.2,8.700000000000001,3.1,48.2,-7.699999999999999,-4.300000000000001
1698415582.182,16,0.30000000000000004,-0.1,-0.30000000000000004,0.30000000000000004,8.8,3.0,49.4,-4.1000000000000005,-4.3999999999999995
1698415582.198,16,0.2,-0.30000000000000004,-0.4,0.30000000000000004,8.8,2.9000000000000004,50.300000000000004,-0.6000000000000001,-5.2
1698415582.215,16,0.2,-0.2,-0.5,0.2,8.9,2.5,50.9,0.5,-5.2
1698415582.233,16,0.2,-0.2,-0.5,0.1,8.9,2.4000000000000004,51.400000000000006,0.8,-4.9
1698415582.248,16,0.0,-0.30000000000000004,-0.5,-0.1,8.9,2.2,50.4,-0.8,-5.4
1698415582.265,16,-0.1,-0.2,-0.4,-0.2,9.0,2.1,49.9,-3.9,-4.7
1698415582.282,16,0.0,-0.30000000000000004,-0.4,-0.1,8.9,2.1,49.1,-5.6,-4.300000000000001
1698415582.299,16,0.1,-0.4,-0.2,0.0,8.9,2.1,48.1,-7.1000000000000005,-4.3999999999999995
1698415582.315,16,0.2,-0.5,-0.30000000000000004,0.1,8.8,2.0,47.5,-8.200000000000001,-4.300000000000001
1698415582.333,16,0.4,-0.30000000000000004,-0.2,0.2,9.0,1.9000000000000001,46.300000000000004,-9.0,-4.300000000000001
1698415582.349,16,0.4,-0.2,-0.2,0.30000000000000004,9.1,1.7000000000000002,45.0,-10.1,-3.7000000000000006
1698415582.365,16,0.5,-0.30000000000000004,-0.1,0.30000000000000004,9.1,1.8,43.800000000000004,-10.5,-4.0
1698415582.383,16,0.5,-0.8,-0.1,0.30000000000000004,8.6,1.7000000000000002,41.800000000000004,-8.9,-4.6000000000000005
1698415582.399,16,0.5,-0.8,0.0,0.5,9.3,1.5,36.800000000000004,-9.700000000000001,-5.4
1698415582.415,16,0.6000000000000001,0.30000000000000004,0.0,0.5,9.700000000000001,1.5,36.9,-8.9,-5.6
1698415582.432,16,0.5,0.2,-0.1,0.4,9.600000000000001,1.3,39.9,-7.1000000000000005,-5.2
1698415582.448,16,0.5,-0.30000000000000004,-0.1,0.30000000000000004,9.200000000000001,1.2000000000000002,39.00000000000001,-6.6000000000000005,-6.000000000000001
1698415582.465,16,0.5,-0.2,-0.2,0.30000000000000004,9.200000000000001,1.0,35.7,-4.1000000000000005,-5.6
1698415582.482,16,0.4,-0.2,-0.1,0.30000000000000004,9.3,1.0,33.7,-1.8,-5.7
1698415582.498,16,0.30000000000000004,-0.4,0.0,0.0,9.1,1.0,26.6,5.2,-6.7
1698415582.522,16,0.30000000000000004,0.6000000000000001,-0.1,0.0,10.100000000000001,0.9,26.0,7.699999999999999,-6.000000000000001
1698415582.532,16,0.2,0.30000000000000004,0.0,0.0,9.8,0.9,25.3,7.500000000000001,-5.8
1698415582.548,16,0.0,-0.2,0.2,-0.2,9.200000000000001,1.0,21.400000000000002,12.4,-5.2
1698415582.565,16,0.0,-0.2,0.2,-0.30000000000000004,9.3,1.0,18.400000000000002,16.900000000000002,-5.1
1698415582.582,16,0.1,0.30000000000000004,0.30000000000000004,-0.2,9.8,1.0,15.299999999999999,18.8,-6.6000000000000005
1698415582.598,16,0.0,0.2,0.2,-0.30000000000000004,9.700000000000001,0.9,14.0,17.8,-6.8
1698415582.616,16,0.0,0.5,0.30000000000000004,-0.4,10.0,0.9,10.5,18.5,-7.400000000000001
1698415582.632,16,0.0,0.6000000000000001,0.30000000000000004,-0.4,10.200000000000001,1.0,10.0,17.9,-7.400000000000001
1698415582.649,16,-0.1,0.30000000000000004,0.2,-0.5,9.8,0.8,10.1,18.2,-7.400000000000001
1698415582.665,16,-0.30000000000000004,0.1,-0.2,-0.7000000000000001,9.700000000000001,0.4,8.600000000000001,18.3,-6.7
1698415582.682,16,-0.30000000000000004,0.1,-0.30000000000000004,-0.8,9.600000000000001,0.30000000000000004,7.500000000000001,18.5,-6.3
1698415582.7,16,-0.4,-0.1,-0.6000000000000001,-0.9,9.5,-0.1,4.800000000000001,22.1,-5.2
1698415582.715,16,-0.5,0.1,-0.8,-1.0,9.600000000000001,-0.30000000000000004,2.1,22.900000000000002,-4.300000000000001
1698415582.732,16,-0.6000000000000001,0.1,-0.9,-1.1,9.700000000000001,-0.4,1.0999999999999999,24.000000000000004,-4.6000000000000005
1698415582.749,16,-0.7000000000000001,0.4,-1.1,-1.2000000000000002,9.9,-0.6000000000000001,0.0,23.5,-4.0
1698415582.765,16,-0.8,0.5,-1.1,-1.3,10.0,-0.6000000000000001,0.6000000000000001,19.0,-4.7
1698415582.782,16,-0.8,0.4,-1.2000000000000002,-1.3,9.9,-0.7000000000000001,1.4,17.200000000000003,-5.6
1698415582.799,16,-0.6000000000000001,0.4,-1.0,-1.2000000000000002,9.9,-0.6000000000000001,0.9,12.200000000000001,-7.6
1698415582.815,16,-0.30000000000000004,0.5,-0.8,-0.9,10.0,-0.30000000000000004,1.0999999999999999,11.000000000000002,-9.3
1698415582.832,16,-0.30000000000000004,0.30000000000000004,-0.9,-0.9,9.9,-0.4,1.0999999999999999,11.5,-9.700000000000001
1698415582.849,16,-0.1,0.0,-0.8,-0.8,9.5,-0.4,-0.2,14.900000000000002,-9.600000000000001
1698415582.866,16,-0.2,-0.2,-0.7000000000000001,-0.9,9.3,-0.30000000000000004,-1.3,17.9,-9.0
1698415582.882,16,-0.30000000000000004,-0.6000000000000001,-0.8,-1.1,9.0,-0.30000000000000004,-3.5,22.000000000000004,-7.6
1698415582.899,16,-0.4,-0.1,-0.9,-1.2000000000000002,9.5,-0.4,-5.500000000000001,21.700000000000003,-5.6
1698415582.917,16,-0.7000000000000001,-0.2,-0.7000000000000001,-1.5,9.3,-0.30000000000000004,-4.7,16.6,-5.300000000000001
1698415582.931,16,-0.8,-0.30000000000000004,-1.0,-1.6,9.3,-0.7000000000000001,-4.3999999999999995,15.2,-5.0
1698415582.948,16,-0.9,-0.2,-1.1,-1.7000000000000002,9.3,-0.7000000000000001,-5.7,9.4,-3.4
1698415582.965,16,-0.8,-0.2,-1.1,-1.7000000000000002,9.3,-0.7000000000000001,-7.400000000000001,5.300000000000001,-1.3
1698415582.983,16,-0.5,-0.1,-1.0,-1.4000000000000001,9.4,-0.5,-8.700000000000001,3.1,0.2
1698415583.0,16,-0.4,-0.1,-0.9,-1.2000000000000002,9.4,-0.5,-8.799999999999999,2.8,0.9
1698415583.015,16,-0.30000000000000004,-0.2,-0.9,-1.1,9.3,-0.4,-8.5,2.0,2.1
1698415583.032,16,-0.2,-0.2,-0.9,-1.1,9.3,-0.30000000000000004,-8.4,1.9,2.4000000000000004
1698415583.049,16,-0.2,-0.2,-0.9,-1.0,9.3,-0.30000000000000004,-7.699999999999999,2.1999999999999997,2.7
1698415583.065,16,-0.30000000000000004,-0.1,-1.0,-1.1,9.4,-0.4,-6.9,2.1,2.6
1698415583.082,16,-0.30000000000000004,-0.1,-1.0,-1.1,9.4,-0.4,-6.1000000000000005,2.1,1.8
1698415583.098,16,-0.5,-0.1,-1.1,-1.3,9.3,-0.5,-6.000000000000001,1.7,1.6
1698415583.115,16,-0.8,-0.1,-1.2000000000000002,-1.7000000000000002,9.4,-0.6000000000000001,-5.4,0.8,1.0
1698415583.131,16,-1.2000000000000002,-0.2,-1.3,-1.8,9.4,-0.7000000000000001,-5.0,-1.4,1.3
1698415583.148,16,-1.2000000000000002,0.0,-1.3,-2.0,9.5,-0.8,-4.6000000000000005,-3.6,1.6
1698415583.165,16,-1.0,0.0,-1.4000000000000001,-1.8,9.5,-0.9,-1.3,-12.700000000000001,1.5000000000000002
1698415583.182,16,-0.6000000000000001,-0.4,-1.6,-1.4000000000000001,9.1,-1.0,1.2000000000000002,-19.6,3.8
1698415583.198,16,-0.5,-0.4,-1.7000000000000002,-1.4000000000000001,9.1,-1.1,2.0,-22.000000000000004,4.300000000000001
1698415583.215,16,-0.5,0.30000000000000004,-1.3,-1.3,9.8,-0.7000000000000001,-0.8,-24.400000000000002,5.300000000000001
1698415583.232,16,-0.2,0.9,-0.4,-1.0,10.4,0.1,-2.9,-24.200000000000003,5.300000000000001
1698415583.248,16,0.8,1.8,-0.2,0.1,11.3,0.4,-0.7,-11.5,7.1000000000000005
1698415583.265,16,0.7000000000000001,0.7000000000000001,-1.0,0.0,10.200000000000001,-0.4,8.9,-2.7,6.5
1698415583.282,16,0.4,0.4,-0.9,-0.30000000000000004,9.9,-0.4,6.5,-2.1,8.200000000000001
1698415583.299,16,0.4,1.2000000000000002,-0.2,-0.2,10.700000000000001,0.30000000000000004,3.2,-3.7000000000000006,10.700000000000001
1698415583.316,16,0.4,1.3,-0.7000000000000001,-0.2,10.8,-0.30000000000000004,7.0,-6.4,11.9
1698415583.332,16,-0.5,0.6000000000000001,-0.9,-1.1,10.200000000000001,-0.5,10.0,-14.900000000000002,8.9
1698415583.349,16,-0.9,0.5,-0.9,-1.5,10.100000000000001,-0.5,10.8,-19.3,7.0
1698415583.366,16,-1.1,0.9,-0.8,-1.7000000000000002,10.4,-0.4,9.9,-24.200000000000003,6.7
1698415583.382,16,-0.7000000000000001,1.0,-0.5,-1.3,10.600000000000001,-0.1,9.1,-25.8,7.300000000000001
1698415583.4,16,-0.1,1.0,0.1,-0.6000000000000001,10.5,0.5,8.3,-29.900000000000006,5.9
1698415583.415,16,0.1,0.8,0.30000000000000004,-0.4,10.3,0.7000000000000001,8.5,-40.1,6.2
1698415583.432,16,0.1,0.0,0.9,-0.4,9.600000000000001,1.2000000000000002,6.6000000000000005,-46.1,4.300000000000001
1698415583.449,16,0.0,-0.4,1.0,-0.5,9.200000000000001,1.4000000000000001,6.3,-45.800000000000004,3.2
1698415583.465,16,-0.30000000000000004,-0.9,1.2000000000000002,-0.8,8.700000000000001,1.5,4.800000000000001,-42.5,-0.8
1698415583.482,16,-0.6000000000000001,-1.2000000000000002,1.4000000000000001,-1.1,8.4,1.8,2.9,-38.2,-2.9
1698415583.499,16,-0.5,-1.2000000000000002,1.4000000000000001,-0.9,8.4,1.7000000000000002,2.8,-35.1,-1.3
1698415583.515,16,0.6000000000000001,-0.9,1.3,0.2,8.700000000000001,1.7000000000000002,2.0,-29.400000000000002,4.9
1698415583.532,16,1.5,-0.6000000000000001,1.2000000000000002,1.0,9.0,1.5,3.0000000000000004,-24.000000000000004,10.9
1698415583.549,16,1.5,-0.5,1.1,1.1,9.0,1.5,4.2,-22.2,13.3
1698415583.565,16,1.2000000000000002,-0.5,0.8,0.8,9.1,1.1,6.5,-17.0,16.2
1698415583.582,16,0.6000000000000001,-0.2,0.8,0.30000000000000004,9.4,1.1,7.2,-10.600000000000001,17.5
1698415583.6,16,0.30000000000000004,0.0,0.6000000000000001,0.1,9.5,0.9,8.0,-8.600000000000001,17.3
1698415583.615,16,0.0,-0.1,0.5,-0.1,9.4,0.8,7.2,-7.400000000000001,16.400000000000002
1698415583.632,16,0.30000000000000004,-0.5,0.5,0.1,9.1,0.7000000000000001,6.9,-9.4,13.9
1698415583.649,16,0.30000000000000004,-0.6000000000000001,0.30000000000000004,0.2,8.9,0.6000000000000001,6.5,-10.5,12.700000000000001
1698415583.665,16,0.4,-0.9,0.30000000000000004,0.4,8.700000000000001,0.5,6.1000000000000005,-12.6,11.2
1698415583.682,16,0.6000000000000001,-0.8,0.1,0.5,8.8,0.30000000000000004,5.500000000000001,-11.5,9.5
1698415583.7,16,0.7000000000000001,-0.5,0.1,0.7000000000000001,9.0,0.30000000000000004,5.1,-8.5,8.1
1698415583.715,16,0.7000000000000001,-0.30000000000000004,0.0,0.7000000000000001,9.200000000000001,0.2,5.2,-6.3,7.300000000000001
1698415583.732,16,0.6000000000000001,-0.30000000000000004,0.0,0.7000000000000001,9.3,0.1,4.5,-2.1999999999999997,6.4
1698415583.749,16,0.6000000000000001,-0.30000000000000004,0.0,0.6000000000000001,9.200000000000001,0.2,4.0,-0.9,6.000000000000001
1698415583.765,16,0.30000000000000004,-0.4,-0.2,0.4,9.200000000000001,0.0,2.8,1.0999999999999999,4.800000000000001
1698415583.782,16,0.30000000000000004,-0.4,-0.1,0.4,9.1,0.1,0.9,3.0000000000000004,4.2
1698415583.799,16,0.30000000000000004,-0.5,-0.1,0.4,9.0,0.1,0.4,3.6,3.9
1698415583.816,16,0.30000000000000004,-0.6000000000000001,-0.1,0.4,8.9,0.0,0.30000000000000004,3.5,3.1
1698415583.832,16,0.4,-0.5,-0.2,0.6000000000000001,9.0,-0.1,0.2,1.9,1.5000000000000002
1698415583.848,16,0.9,0.0,-0.5,1.0,9.5,-0.30000000000000004,0.5,1.8,0.1
1698415583.865,16,0.9,-0.1,-0.4,1.1,9.4,-0.30000000000000004,3.1,4.7,-3.9
1698415583.882,16,0.5,-0.4,-0.8,0.6000000000000001,9.1,-0.6000000000000001,3.8,10.9,-7.0
1698415583.898,16,0.1,-0.5,-0.8,0.2,9.0,-0.7000000000000001,1.0999999999999999,15.000000000000002,-7.8
1698415583.916,16,0.0,-0.5,-0.7000000000000001,0.1,9.0,-0.6000000000000001,0.5,16.0,-8.200000000000001
1698415583.932,16,-0.1,-0.6000000000000001,-0.7000000000000001,0.0,8.9,-0.6000000000000001,0.9,17.200000000000003,-8.799999999999999
1698415583.948,16,0.0,-0.6000000000000001,-0.7000000000000001,0.0,8.9,-0.6000000000000001,1.2000000000000002,15.2,-9.5
1698415583.965,16,0.1,-0.4,-0.8,0.1,9.200000000000001,-0.7000000000000001,1.4,13.4,-9.600000000000001
1698415583.983,16,0.30000000000000004,-0.1,-0.9,0.2,9.4,-0.8,1.0999999999999999,10.700000000000001,-10.700000000000001
1698415583.999,16,0.5,0.2,-0.8,0.4,9.8,-0.7000000000000001,0.1,9.1,-11.700000000000001
1698415584.015,16,0.6000000000000001,0.4,-0.7000000000000001,0.5,9.9,-0.6000000000000001,-0.8,8.5,-12.000000000000002
1698415584.032,16,0.6000000000000001,0.5,-0.6000000000000001,0.5,10.0,-0.6000000000000001,-0.5,8.600000000000001,-12.8
1698415584.049,16,0.6000000000000001,0.4,-0.6000000000000001,0.5,9.9,-0.6000000000000001,0.9,11.8,-12.100000000000001
1698415584.066,16,0.6000000000000001,0.4,-0.9,0.5,9.9,-0.9,2.3000000000000003,14.3,-11.700000000000001
1698415584.081,16,0.6000000000000001,0.5,-1.4000000000000001,0.4,10.0,-1.4000000000000001,4.0,24.000000000000004,-11.000000000000002
1698415584.098,16,0.6000000000000001,0.5,-1.6,0.4,10.0,-1.6,4.6000000000000005,29.200000000000003,-10.700000000000001
1698415584.115,16,0.7000000000000001,0.30000000000000004,-1.9000000000000001,0.5,9.8,-1.9000000000000001,6.2,37.800000000000004,-9.3
1698415584.132,16,0.4,1.0,-1.9000000000000001,0.1,10.600000000000001,-2.0,0.1,43.7,-6.4
1698415584.148,16,-1.1,2.8000000000000003,0.1,-1.4000000000000001,12.3,0.1,-13.200000000000001,38.7,-0.9
1698415584.165,16,-2.0,2.7,0.4,-2.2,12.3,0.4,-7.699999999999999,22.1,-0.7
1698415584.182,16,-1.3,0.9,0.2,-1.6,10.5,0.2,2.1,-6.000000000000001,0.30000000000000004
1698415584.199,16,0.8,0.9,-0.5,0.5,10.5,-0.6000000000000001,-1.4,10.0,-1.0
1698415584.215,16,1.3,0.7000000000000001,-0.7000000000000001,1.0,10.3,-0.7000000000000001,-3.3000000000000003,10.0,-4.1000000000000005
1698415584.233,16,1.0,0.5,-0.1,0.6000000000000001,10.100000000000001,-0.1,-2.6,14.900000000000002,-8.4
1698415584.249,16,0.6000000000000001,0.2,-0.4,-0.1,9.4,-0.7000000000000001,1.3,21.6,-6.000000000000001
1698415584.265,16,0.1,-0.5,-0.8,-0.30000000000000004,9.1,-0.8,2.1,21.900000000000002,-3.5
1698415584.283,16,0.1,-0.9,-0.6000000000000001,-0.2,8.700000000000001,-0.7000000000000001,2.1999999999999997,18.3,2.3000000000000003
1698415584.299,16,0.1,-1.0,-0.4,-0.2,8.6,-0.5,2.1999999999999997,15.9,3.3000000000000003
1698415584.315,16,0.0,-0.7000000000000001,0.1,-0.4,8.9,0.0,2.3000000000000003,12.5,2.1
1698415584.332,16,-1.0,0.6000000000000001,1.1,-1.3,10.200000000000001,1.0,-1.8,16.6,2.1
1698415584.348,16,-1.6,1.2000000000000002,1.5,-1.9000000000000001,10.8,1.4000000000000001,-3.0000000000000004,15.299999999999999,4.5
1698415584.365,16,-1.3,0.9,1.6,-1.6,10.5,1.6,-0.5,10.700000000000001,4.2
1698415584.382,16,1.0,-0.6000000000000001,1.2000000000000002,0.7000000000000001,9.0,1.2000000000000002,3.7000000000000006,12.9,2.3000000000000003
1698415584.399,16,1.9000000000000001,-0.8,1.3,1.6,8.8,1.3,2.9,19.700000000000003,-1.4
1698415584.415,16,0.9,-0.5,1.4000000000000001,0.6000000000000001,9.0,1.4000000000000001,1.7,25.0,-4.5
1698415584.432,16,0.4,-0.6000000000000001,1.5,0.1,9.0,1.5,1.0999999999999999,28.500000000000004,-4.1000000000000005
1698415584.448,16,-0.7000000000000001,-0.7000000000000001,1.5,-1.0,8.8,1.5,-1.2000000000000002,35.4,-3.2
1698415584.465,16,-1.0,-0.7000000000000001,1.5,-1.3,8.9,1.5,-2.1,36.5,-2.9
1698415584.482,16,-1.0,-0.6000000000000001,1.1,-1.4000000000000001,9.0,1.1,-1.4,33.400000000000006,-3.5
1698415584.499,16,-0.8,-0.6000000000000001,0.9,-1.2000000000000002,8.9,1.0,0.8,28.700000000000003,-5.7
1698415584.515,16,-0.4,-0.5,0.6000000000000001,-0.7000000000000001,9.0,0.6000000000000001,1.5000000000000002,27.6,-7.1000000000000005
1698415584.532,16,-0.30000000000000004,0.1,0.6000000000000001,-0.7000000000000001,9.600000000000001,0.6000000000000001,3.1,22.7,-10.4
1698415584.548,16,-0.4,0.30000000000000004,0.6000000000000001,-0.9,9.9,0.6000000000000001,5.500000000000001,16.3,-12.200000000000001
1698415584.565,16,-0.5,0.2,0.5,-0.9,9.8,0.5,6.8,14.4,-12.5
1698415584.583,16,-0.30000000000000004,-0.1,0.4,-0.8,9.4,0.4,8.0,13.5,-13.9
1698415584.599,16,-0.2,-0.4,0.30000000000000004,-0.8,9.1,0.2,6.8,13.4,-15.299999999999999
1698415584.615,16,-0.30000000000000004,-0.5,0.30000000000000004,-0.9,9.0,0.2,5.6,13.9,-16.0
1698415584.632,16,-0.4,-0.5,0.2,-1.1,9.0,0.1,2.8,14.100000000000001,-15.7
1698415584.648,16,-0.6000000000000001,-0.5,0.30000000000000004,-1.3,9.0,0.2,2.0,13.8,-14.900000000000002
1698415584.665,16,-0.5,-0.5,0.2,-1.3,9.0,0.1,3.0000000000000004,13.0,-13.200000000000001
1698415584.681,16,-0.5,-0.4,0.0,-1.3,9.1,-0.1,3.3000000000000003,11.8,-11.8
1698415584.698,16,-0.8,-0.2,-0.1,-1.6,9.3,-0.30000000000000004,3.1,7.400000000000001,-10.5
1698415584.715,16,-0.9,-0.2,-0.2,-1.8,9.3,-0.4,2.5,1.8,-7.6
1698415584.732,16,-1.0,-0.2,-0.30000000000000004,-1.8,9.3,-0.4,2.1999999999999997,-1.2000000000000002,-6.000000000000001
1698415584.748,16,-0.7000000000000001,-0.2,-0.30000000000000004,-1.6,9.3,-0.4,1.3,-5.9,-2.1
1698415584.765,16,-0.6000000000000001,-0.30000000000000004,-0.2,-1.5,9.200000000000001,-0.4,1.6,-8.799999999999999,2.3000000000000003
1698415584.782,16,-0.5,-0.30000000000000004,-0.2,-1.4000000000000001,9.1,-0.4,1.9,-10.600000000000001,4.7
1698415584.799,16,-0.5,-0.4,-0.30000000000000004,-1.4000000000000001,9.1,-0.5,2.3000000000000003,-15.000000000000002,8.200000000000001
1698415584.817,16,-0.6000000000000001,-0.2,-0.4,-1.4000000000000001,9.3,-0.6000000000000001,0.6000000000000001,-19.1,10.0
1698415584.832,16,-0.6000000000000001,0.0,-0.5,-1.4000000000000001,9.5,-0.6000000000000001,-0.5,-20.5,10.9
1698415584.848,16,-0.5,0.0,-0.4,-1.3,9.5,-0.6000000000000001,-2.7,-21.900000000000002,11.700000000000001
1698415584.865,16,-0.4,0.0,-0.4,-1.1,9.5,-0.5,-3.3000000000000003,-21.6,12.000000000000002
1698415584.882,16,-0.2,0.0,-0.4,-0.9,9.5,-0.6000000000000001,-3.8,-21.900000000000002,12.9
1698415584.899,16,-0.1,0.1,-0.5,-0.8,9.600000000000001,-0.6000000000000001,-4.300000000000001,-21.8,13.200000000000001
1698415584.915,16,-0.2,0.1,-0.5,-1.0,9.700000000000001,-0.6000000000000001,-4.0,-20.8,12.700000000000001
1698415584.933,16,-0.6000000000000001,0.1,-0.5,-1.3,9.600000000000001,-0.6000000000000001,-3.1,-21.5,12.4
1698415584.949,16,-0.7000000000000001,0.1,-0.7000000000000001,-1.3,9.600000000000001,-0.8,-1.7,-24.7,14.0
1698415584.965,16,-0.7000000000000001,0.0,-0.7000000000000001,-1.2000000000000002,9.600000000000001,-0.8,-1.5000000000000002,-28.8,13.4
1698415584.983,16,-0.30000000000000004,-0.2,-0.8,-0.9,9.3,-0.9,-1.0999999999999999,-30.7,12.9
1698415584.999,16,-0.2,-0.2,-1.4000000000000001,-0.7000000000000001,9.3,-1.4000000000000001,-0.5,-34.6,11.6
1698415585.015,16,-0.2,-0.2,-1.7000000000000002,-0.7000000000000001,9.3,-1.8,-0.2,-37.7,10.700000000000001
1698415585.032,16,-0.5,0.0,-2.0,-0.9,9.5,-2.1,-1.4,-44.00000000000001,7.400000000000001
1698415585.048,16,0.0,1.2000000000000002,-1.1,-0.5,10.700000000000001,-1.2000000000000002,-10.4,-50.4,2.1999999999999997
1698415585.065,16,0.9,1.7000000000000002,0.5,0.5,11.3,0.5,-13.5,-42.0,-1.0
1698415585.082,16,0.9,1.3,0.7000000000000001,0.5,10.9,0.7000000000000001,-9.600000000000001,-31.7,-1.0
1698415585.098,16,0.2,0.7000000000000001,0.4,-0.2,10.3,0.5,-4.300000000000001,-28.200000000000003,-0.6000000000000001
1698415585.115,16,-0.1,0.7000000000000001,-0.30000000000000004,-0.6000000000000001,10.3,-0.30000000000000004,-3.9,-29.400000000000002,0.30000000000000004
1698415585.131,16,-0.2,0.7000000000000001,-0.5,-0.7000000000000001,10.200000000000001,-0.4,-3.5,-29.900000000000006,0.4
1698415585.149,16,-0.4,0.2,-0.6000000000000001,-0.9,9.700000000000001,-0.5,-2.0,-36.4,-0.5
1698415585.165,16,-0.30000000000000004,-0.30000000000000004,-0.4,-0.8,9.3,-0.30000000000000004,-1.2000000000000002,-40.9,-4.0
1698415585.182,16,-0.1,-0.1,-0.4,-0.6000000000000001,9.4,-0.30000000000000004,-1.6,-41.300000000000004,-6.5
1698415585.199,16,0.9,1.0,0.2,0.4,10.5,0.30000000000000004,-5.4,-41.2,-11.8
1698415585.216,16,1.3,1.1,1.1,0.8,10.700000000000001,1.2000000000000002,-3.2,-33.0,-13.100000000000001
1698415585.232,16,0.8,0.30000000000000004,0.9,0.30000000000000004,9.9,1.0,2.3000000000000003,-23.1,-11.700000000000001
1698415585.248,16,0.4,0.0,0.8,-0.2,9.5,1.0,3.2,-17.1,-10.9
1698415585.265,16,-0.2,-0.2,0.8,-0.8,9.3,0.9,4.800000000000001,-6.9,-7.0
1698415585.283,16,-0.4,-0.4,0.6000000000000001,-1.0,9.1,0.7000000000000001,5.4,-3.4,-4.800000000000001
1698415585.298,16,-0.4,-0.7000000000000001,0.9,-1.0,8.8,1.0,3.9,-3.4,-0.7
1698415585.315,16,0.30000000000000004,-0.7000000000000001,1.2000000000000002,-0.30000000000000004,8.9,1.3,1.2000000000000002,-5.500000000000001,3.3000000000000003
1698415585.332,16,0.9,-0.6000000000000001,1.3,0.30000000000000004,9.0,1.5,0.4,-6.4,5.300000000000001
1698415585.349,16,1.0,-0.6000000000000001,1.4000000000000001,0.4,8.9,1.5,1.2000000000000002,-6.5,5.500000000000001
1698415585.365,16,0.4,-0.7000000000000001,1.2000000000000002,-0.2,8.8,1.3,2.5,-6.000000000000001,4.2
1698415585.381,16,0.1,-0.7000000000000001,1.1,-0.5,8.8,1.3,2.9,-10.3,3.1
1698415585.398,16,-0.2,-0.4,1.0,-0.7000000000000001,9.1,1.1,2.3000000000000003,-12.8,3.3000000000000003
1698415585.415,16,0.2,-0.1,1.1,-0.30000000000000004,9.5,1.3,0.8,-17.9,4.0
1698415585.432,16,0.9,0.1,1.1,0.4,9.600000000000001,1.3,1.2000000000000002,-19.9,3.7000000000000006
1698415585.448,16,1.1,-0.1,1.0,0.6000000000000001,9.5,1.2000000000000002,2.1999999999999997,-19.3,3.3000000000000003
1698415585.465,16,0.9,0.0,0.9,0.5,9.600000000000001,1.0,3.1,-13.8,3.5
1698415585.481,16,0.7000000000000001,0.2,0.8,0.30000000000000004,9.8,1.0,4.2,-7.1000000000000005,6.2
1698415585.498,16,0.6000000000000001,0.30000000000000004,0.7000000000000001,0.0,9.700000000000001,0.8,5.0,-4.2,7.6
1698415585.515,16,0.4,0.0,0.7000000000000001,0.0,9.600000000000001,0.8,5.0,0.0,11.4
1698415585.531,16,0.30000000000000004,-0.1,0.6000000000000001,0.0,9.4,0.8,4.5,0.2,13.200000000000001
1698415585.549,16,0.30000000000000004,-0.2,0.6000000000000001,0.0,9.4,0.7000000000000001,4.300000000000001,0.4,13.200000000000001
1698415585.565,16,0.2,-0.4,0.4,-0.1,9.200000000000001,0.5,4.5,-0.5,12.700000000000001
1698415585.582,16,0.2,-0.4,0.30000000000000004,-0.1,9.1,0.4,4.0,-1.9,11.5
1698415585.599,16,0.1,-0.5,0.30000000000000004,-0.2,9.0,0.4,3.9,-2.3000000000000003,10.8
1698415585.615,16,0.1,-0.5,0.1,-0.1,9.0,0.2,2.9,-2.7,9.600000000000001
1698415585.632,16,0.1,-0.6000000000000001,0.2,-0.1,9.0,0.30000000000000004,2.1999999999999997,-2.5,8.600000000000001
1698415585.649,16,0.0,-0.6000000000000001,0.1,-0.1,8.9,0.2,1.7,-2.5,8.1
1698415585.665,16,0.0,-0.8,0.1,-0.2,8.700000000000001,0.1,-0.4,-2.7,7.400000000000001
1698415585.682,16,0.0,-0.8,0.0,-0.2,8.700000000000001,0.0,-3.6,-3.6,8.1
1698415585.698,16,0.1,-0.7000000000000001,0.0,0.0,8.9,0.1,-4.6000000000000005,-4.300000000000001,8.1
1698415585.715,16,0.1,-0.5,-0.30000000000000004,0.1,9.0,-0.1,-5.2,-4.1000000000000005,8.0
1698415585.732,16,0.1,-0.4,-0.4,0.1,9.1,-0.30000000000000004,-5.500000000000001,-3.1,7.8
1698415585.749,16,0.2,-0.2,-0.5,0.2,9.3,-0.30000000000000004,-5.4,-3.4,7.2
1698415585.765,16,0.5,0.2,-0.6000000000000001,0.5,9.700000000000001,-0.4,-5.2,-1.4,4.9
1698415585.782,16,0.8,0.4,-0.5,0.8,9.9,-0.4,-3.8,1.4,1.5000000000000002
1698415585.799,16,0.7000000000000001,0.4,-0.6000000000000001,0.7000000000000001,9.9,-0.4,-2.1,3.0000000000000004,-0.8
1698415585.815,16,0.1,0.30000000000000004,-1.0,0.1,9.8,-0.8,1.0999999999999999,6.3,-4.1000000000000005
1698415585.832,16,-0.30000000000000004,0.2,-1.1,-0.30000000000000004,9.700000000000001,-1.0,1.6,7.2,-5.4
1698415585.849,16,-0.2,0.1,-1.1,-0.30000000000000004,9.600000000000001,-1.0,1.5000000000000002,7.0,-5.6
1698415585.866,16,0.0,0.0,-0.9,0.0,9.5,-0.8,1.7,8.200000000000001,-5.4
1698415585.882,16,0.30000000000000004,0.0,-0.8,0.2,9.5,-0.7000000000000001,2.5,10.5,-5.6
1698415585.899,16,0.30000000000000004,-0.1,-0.8,0.30000000000000004,9.4,-0.7000000000000001,2.9,11.1,-5.7
1698415585.915,16,0.5,-0.1,-0.9,0.4,9.5,-0.8,2.7,13.4,-5.6
1698415585.932,16,0.6000000000000001,0.1,-0.9,0.5,9.600000000000001,-0.8,2.8,14.500000000000002,-6.000000000000001
1698415585.948,16,0.6000000000000001,0.2,-0.8,0.4,9.700000000000001,-0.8,3.9,15.100000000000001,-6.6000000000000005
1698415585.965,16,0.2,0.1,-1.1,0.1,9.600000000000001,-1.1,6.4,17.400000000000002,-8.700000000000001
1698415585.982,16,0.0,0.0,-1.2000000000000002,-0.1,9.5,-1.3,6.5,20.0,-10.2
1698415585.999,16,0.0,0.0,-1.3,-0.1,9.5,-1.3,6.4,20.7,-10.5
1698415586.015,16,0.2,0.0,-1.4000000000000001,0.0,9.5,-1.4000000000000001,7.500000000000001,22.1,-10.2
1698415586.032,16,0.30000000000000004,-0.1,-1.4000000000000001,0.0,9.5,-1.6,9.1,25.8,-9.700000000000001
1698415586.048,16,0.30000000000000004,0.1,-1.5,0.0,9.600000000000001,-1.7000000000000002,6.6000000000000005,32.9,-7.6
1698415586.065,16,-0.5,1.4000000000000001,-1.1,-0.7000000000000001,10.9,-1.2000000000000002,3.1,35.0,-5.4
1698415586.082,16,-1.2000000000000002,1.5,-0.5,-1.5,11.0,-0.7000000000000001,4.0,24.6,-1.0
1698415586.099,16,-0.7000000000000001,0.8,-0.30000000000000004,-1.0,10.4,-0.5,6.7,17.200000000000003,0.1
1698415586.115,16,0.6000000000000001,0.4,-0.5,0.30000000000000004,10.0,-0.7000000000000001,6.8,20.6,-1.8
1698415586.132,16,0.5,0.4,-1.0,0.2,9.9,-1.3,4.800000000000001,24.000000000000004,-8.200000000000001
1698415586.148,16,0.1,0.1,-0.7000000000000001,-0.2,9.600000000000001,-1.0,4.800000000000001,23.2,-9.4
1698415586.166,16,-0.1,0.1,-0.8,-0.4,9.600000000000001,-1.1,5.6,24.200000000000003,-8.200000000000001
1698415586.182,16,-0.5,0.6000000000000001,-0.6000000000000001,-0.9,10.200000000000001,-0.9,4.2,21.900000000000002,-4.1000000000000005
1698415586.199,16,-1.1,1.9000000000000001,0.1,-1.1,10.9,-0.6000000000000001,1.4,21.8,-0.5
1698415586.215,16,-1.3,2.0,0.6000000000000001,-1.6,11.5,0.30000000000000004,-0.5,17.1,5.1
1698415586.232,16,-0.2,0.30000000000000004,0.7000000000000001,-0.5,9.9,0.4,4.9,14.3,5.1
1698415586.249,16,1.0,-0.6000000000000001,0.6000000000000001,0.6000000000000001,9.0,0.30000000000000004,5.1,14.4,3.2
1698415586.265,16,1.7000000000000002,-0.5,0.8,1.3,9.1,0.5,3.1,17.0,-1.7
1698415586.282,16,1.2000000000000002,-0.5,0.9,0.9,9.0,0.5,2.5,21.200000000000003,-2.7
1698415586.299,16,0.4,-1.0,1.1,0.1,8.6,0.8,1.2000000000000002,28.400000000000002,-2.0
1698415586.315,16,0.1,-1.1,1.3,-0.2,8.4,0.9,-0.5,32.4,-2.0
1698415586.332,16,-0.5,-0.7000000000000001,1.4000000000000001,-0.8,8.9,1.1,-5.0,40.0,-3.4
1698415586.348,16,-1.0,-0.2,1.5,-1.3,9.3,1.2000000000000002,-6.5,39.50000000000001,-5.7
1698415586.365,16,-0.9,-0.2,1.4000000000000001,-1.3,9.3,1.2000000000000002,-6.1000000000000005,37.300000000000004,-6.4
1698415586.382,16,-0.4,-0.4,1.4000000000000001,-0.8,9.1,1.2000000000000002,-6.1000000000000005,33.2,-7.1000000000000005
1698415586.398,16,-0.2,-0.4,1.3,-0.6000000000000001,9.200000000000001,1.1,-6.3,31.8,-7.9
1698415586.415,16,-0.30000000000000004,-0.2,1.2000000000000002,-0.7000000000000001,9.4,1.0,-5.4,28.500000000000004,-9.0
1698415586.433,16,-0.6000000000000001,-0.1,0.9,-1.0,9.4,0.7000000000000001,-2.9,24.000000000000004,-9.600000000000001
1698415586.449,16,-0.7000000000000001,0.0,0.8,-1.2000000000000002,9.5,0.6000000000000001,-1.4,19.200000000000003,-9.700000000000001
1698415586.465,16,-0.5,0.2,0.5,-1.0,9.8,0.30000000000000004,-0.9,18.0,-10.3
1698415586.482,16,-0.30000000000000004,0.2,0.5,-0.9,9.700000000000001,0.30000000000000004,-0.5,16.1,-11.4
1698415586.498,16,-0.5,0.1,0.4,-1.1,9.600000000000001,0.2,-0.9,15.299999999999999,-11.9
1698415586.515,16,-0.5,0.0,0.5,-1.1,9.5,0.30000000000000004,-1.5000000000000002,15.2,-11.8
1698415586.532,16,-0.5,-0.2,0.5,-1.2000000000000002,9.3,0.30000000000000004,-1.8,15.399999999999999,-9.9
1698415586.548,16,-0.4,-0.5,0.5,-1.1,9.1,0.30000000000000004,-1.6,13.700000000000001,-7.6
1698415586.565,16,-0.30000000000000004,-0.5,0.4,-1.0,9.0,0.2,-1.4,12.9,-6.4
1698415586.582,16,-0.4,-0.4,0.30000000000000004,-1.1,9.1,0.2,-1.2000000000000002,9.4,-4.800000000000001
1698415586.598,16,-0.5,-0.30000000000000004,0.4,-1.3,9.200000000000001,0.2,-1.6,2.8,-4.9
1698415586.615,16,-0.6000000000000001,-0.30000000000000004,0.4,-1.4000000000000001,9.200000000000001,0.2,-1.6,0.1,-5.1
1698415586.632,16,-0.6000000000000001,-0.4,0.4,-1.4000000000000001,9.1,0.2,-1.0999999999999999,-5.1,-4.6000000000000005
1698415586.648,16,-0.6000000000000001,-0.4,0.2,-1.4000000000000001,9.1,0.1,-0.30000000000000004,-10.3,-4.0
1698415586.665,16,-0.6000000000000001,-0.2,0.2,-1.4000000000000001,9.200000000000001,0.1,-0.2,-11.9,-3.3000000000000003
1698415586.682,16,-0.5,-0.2,0.2,-1.3,9.3,0.1,0.6000000000000001,-14.800000000000002,-1.2000000000000002
1698415586.7,16,-0.2,-0.2,0.0,-1.1,9.3,-0.2,2.1,-16.3,0.9
1698415586.715,16,-0.1,-0.2,-0.2,-1.0,9.200000000000001,-0.30000000000000004,2.7,-16.8,2.3000000000000003
1698415586.732,16,-0.1,-0.2,-0.30000000000000004,-0.9,9.3,-0.4,3.1,-17.8,5.1
1698415586.748,16,-0.30000000000000004,-0.1,-0.30000000000000004,-1.1,9.4,-0.4,2.8,-19.700000000000003,7.8
1698415586.765,16,-0.30000000000000004,-0.1,-0.30000000000000004,-1.1,9.4,-0.5,2.5,-21.0,9.200000000000001
1698415586.782,16,-0.30000000000000004,-0.1,-0.30000000000000004,-1.0,9.4,-0.5,1.8,-21.200000000000003,9.8
1698415586.799,16,-0.30000000000000004,0.1,-0.30000000000000004,-1.0,9.600000000000001,-0.5,1.0999999999999999,-21.700000000000003,10.700000000000001
1698415586.816,16,-0.2,0.1,-0.30000000000000004,-0.9,9.600000000000001,-0.5,1.0999999999999999,-22.1,11.2
1698415586.832,16,-0.30000000000000004,0.1,-0.30000000000000004,-0.9,9.600000000000001,-0.5,0.9,-22.4,11.4
1698415586.848,16,-0.30000000000000004,0.1,-0.4,-0.9,9.600000000000001,-0.5,1.0,-23.2,11.000000000000002
1698415586.865,16,-0.30000000000000004,0.1,-0.30000000000000004,-0.9,9.600000000000001,-0.5,0.9,-23.3,10.8
1698415586.882,16,-0.30000000000000004,0.1,-0.4,-0.9,9.600000000000001,-0.6000000000000001,0.9,-23.5,9.8
1698415586.899,16,-0.2,0.0,-0.5,-0.8,9.5,-0.7000000000000001,0.9,-25.1,10.4
1698415586.916,16,-0.1,-0.1,-0.5,-0.7000000000000001,9.4,-0.8,0.6000000000000001,-25.400000000000002,10.5
1698415586.932,16,0.0,-0.2,-0.6000000000000001,-0.5,9.3,-0.8,0.8,-26.0,10.600000000000001
1698415586.948,16,0.0,-0.2,-0.9,-0.5,9.3,-1.1,2.0,-28.6,10.9
1698415586.965,16,0.0,-0.30000000000000004,-1.2000000000000002,-0.5,9.200000000000001,-1.4000000000000001,3.3000000000000003,-30.599999999999998,11.000000000000002
1698415586.982,16,-0.1,-0.30000000000000004,-1.4000000000000001,-0.5,9.200000000000001,-1.6,3.9,-31.900000000000002,11.1
1698415586.998,16,-0.2,-0.30000000000000004,-1.5,-0.6000000000000001,9.3,-1.8,4.0,-35.4,10.9
1698415587.015,16,-0.1,0.2,-1.5,-0.5,9.8,-1.8,2.9,-38.800000000000004,9.700000000000001
1698415587.032,16,0.1,0.7000000000000001,-1.1,-0.2,10.200000000000001,-1.4000000000000001,0.8,-39.9,9.0
1698415587.049,16,0.8,0.9,-0.5,0.5,10.4,-0.8,0.6000000000000001,-34.0,7.9
1698415587.065,16,0.6000000000000001,0.4,-0.30000000000000004,0.2,9.9,-0.6000000000000001,3.3000000000000003,-25.3,9.1
1698415587.082,16,0.30000000000000004,0.4,-0.2,0.0,9.9,-0.5,2.6,-24.8,9.5
1698415587.099,16,0.30000000000000004,0.6000000000000001,-0.2,0.0,10.100000000000001,-0.5,-1.0999999999999999,-24.400000000000002,11.3
1698415587.115,16,0.4,0.5,-0.1,0.2,10.0,-0.4,-0.5,-21.8,12.000000000000002
1698415587.132,16,0.4,0.2,-0.30000000000000004,0.1,9.700000000000001,-0.6000000000000001,0.8,-23.0,11.3
1698415587.148,16,0.30000000000000004,0.1,-0.5,0.1,9.600000000000001,-0.8,-0.7,-24.7,7.500000000000001
1698415587.165,16,0.30000000000000004,1.0,-0.2,0.1,10.600000000000001,-0.5,-5.500000000000001,-24.6,1.0
1698415587.181,16,0.4,1.7000000000000002,0.0,0.2,11.3,-0.30000000000000004,-6.8,-24.6,-2.6
1698415587.198,16,0.7000000000000001,1.4000000000000001,0.4,0.5,10.9,0.1,-1.8,-22.7,-5.7
1698415587.215,16,0.2,0.2,0.4,0.0,9.8,0.1,1.3,-22.900000000000002,-7.9
1698415587.231,16,0.0,0.1,0.5,-0.2,9.600000000000001,0.2,1.4,-21.3,-7.2
1698415587.248,16,-0.4,-0.4,0.6000000000000001,-0.6000000000000001,9.1,0.30000000000000004,3.4,-17.8,-7.500000000000001
1698415587.265,16,-0.9,-1.1,0.5,-1.2000000000000002,8.4,0.2,4.2,-15.7,-8.5
1698415587.282,16,-1.0,-1.4000000000000001,0.6000000000000001,-1.3,8.1,0.30000000000000004,4.0,-13.8,-8.1
1698415587.298,16,-0.30000000000000004,-1.2000000000000002,0.8,-0.7000000000000001,8.3,0.5,0.9,-10.1,-5.6
1698415587.315,16,0.9,-0.4,1.0,0.5,9.1,0.7000000000000001,-1.5000000000000002,-6.6000000000000005,-1.9
1698415587.332,16,1.2000000000000002,-0.1,1.2000000000000002,0.8,9.4,1.0,-1.3,-4.7,-0.2
1698415587.348,16,1.0,-0.1,1.4000000000000001,0.7000000000000001,9.5,1.1,2.3000000000000003,0.30000000000000004,1.7
1698415587.365,16,0.7000000000000001,-0.1,1.2000000000000002,0.4,9.5,1.0,3.9,5.1,2.6
1698415587.382,16,0.2,0.0,1.2000000000000002,-0.1,9.5,0.9,3.5,6.3,3.4
1698415587.399,16,0.30000000000000004,0.0,1.1,0.0,9.5,0.9,2.5,6.8,4.300000000000001
1698415587.415,16,0.5,-0.2,1.1,0.2,9.4,0.8,1.5000000000000002,7.9,3.8
1698415587.434,16,0.6000000000000001,-0.2,0.9,0.30000000000000004,9.3,0.6000000000000001,1.4,10.1,2.4000000000000004
1698415587.448,16,0.5,-0.2,0.7000000000000001,0.30000000000000004,9.3,0.4,1.5000000000000002,11.4,1.7
1698415587.465,16,0.4,-0.1,0.6000000000000001,0.2,9.4,0.4,1.4,15.399999999999999,1.5000000000000002
1698415587.482,16,0.30000000000000004,0.0,0.7000000000000001,0.1,9.600000000000001,0.4,1.8,17.9,1.9
1698415587.499,16,0.30000000000000004,0.0,0.6000000000000001,0.0,9.600000000000001,0.30000000000000004,3.2,22.6,2.8
1698415587.516,16,0.30000000000000004,0.0,0.6000000000000001,0.1,9.5,0.30000000000000004,4.1000000000000005,27.2,3.5
1698415587.532,16,0.30000000000000004,-0.1,0.6000000000000001,0.1,9.4,0.30000000000000004,4.3999999999999995,30.100000000000005,3.4
1698415587.548,16,0.30000000000000004,-0.2,0.5,0.1,9.3,0.2,4.7,31.4,3.3000000000000003
1698415587.565,16,0.2,-0.30000000000000004,0.5,0.1,9.3,0.2,5.0,32.5,3.1
1698415587.581,16,0.2,-0.30000000000000004,0.4,0.0,9.200000000000001,0.1,6.5,34.900000000000006,2.7
1698415587.598,16,0.2,-0.30000000000000004,0.30000000000000004,0.0,9.200000000000001,0.0,7.0,35.1,2.9
1698415587.615,16,0.2,-0.1,0.30000000000000004,0.1,9.4,-0.1,8.1,34.900000000000006,3.5
1698415587.632,16,0.30000000000000004,-0.1,0.2,0.2,9.4,-0.2,8.4,35.3,4.0
1698415587.648,16,0.4,0.0,0.2,0.30000000000000004,9.5,-0.30000000000000004,8.5,36.2,4.1000000000000005
1698415587.665,16,0.4,0.0,0.2,0.4,9.5,-0.2,8.700000000000001,37.6,3.6
1698415587.682,16,0.4,0.0,0.2,0.4,9.5,-0.30000000000000004,8.600000000000001,38.900000000000006,3.3000000000000003
1698415587.7,16,0.4,0.0,0.2,0.4,9.5,-0.30000000000000004,7.8,41.300000000000004,2.7
1698415587.715,16,0.4,0.0,0.2,0.4,9.600000000000001,-0.30000000000000004,6.7,45.4,2.4000000000000004
1698415587.732,16,0.5,0.1,0.1,0.5,9.600000000000001,-0.4,6.1000000000000005,49.1,2.6
1698415587.748,16,0.5,0.1,0.0,0.5,9.600000000000001,-0.5,6.1000000000000005,50.9,2.3000000000000003
1698415587.766,16,0.5,0.1,0.0,0.6000000000000001,9.700000000000001,-0.6000000000000001,6.3,54.0,2.9
1698415587.782,16,0.6000000000000001,0.2,-0.1,0.6000000000000001,9.700000000000001,-0.7000000000000001,6.4,55.5,3.2
1698415587.8,16,0.7000000000000001,0.1,-0.2,0.8,9.600000000000001,-0.7000000000000001,7.1000000000000005,60.20000000000001,2.9
1698415587.816,16,0.5,0.0,-0.4,0.6000000000000001,9.5,-1.0,7.6,65.5,2.3000000000000003
1698415587.832,16,0.30000000000000004,0.0,-0.5,0.4,9.600000000000001,-1.2000000000000002,7.0,69.9,2.3000000000000003
1698415587.848,16,0.2,0.1,-0.5,0.4,9.600000000000001,-1.2000000000000002,6.4,71.6,2.3000000000000003
1698415587.865,16,0.30000000000000004,0.1,-0.4,0.5,9.700000000000001,-1.1,5.300000000000001,73.50000000000001,2.1
1698415587.882,16,0.4,0.1,-0.4,0.5,9.600000000000001,-1.1,4.800000000000001,74.8,1.5000000000000002
1698415587.899,16,0.4,0.0,-0.4,0.6000000000000001,9.5,-1.1,4.0,76.9,-0.7
1698415587.915,16,0.2,-0.1,-0.4,0.4,9.4,-1.1,4.3999999999999995,79.3,-2.7
1698415587.932,16,0.2,-0.1,-0.6000000000000001,0.30000000000000004,9.4,-1.4000000000000001,4.3999999999999995,83.4,-3.9
1698415587.948,16,0.0,-0.1,-0.6000000000000001,0.30000000000000004,9.4,-1.3,4.2,84.4,-4.300000000000001
1698415587.965,16,-0.1,-0.2,-0.6000000000000001,0.1,9.3,-1.3,4.7,85.5,-5.2
1698415587.982,16,-0.1,-0.30000000000000004,-0.6000000000000001,0.1,9.200000000000001,-1.3,4.5,86.1,-5.6
1698415587.998,16,0.0,-0.30000000000000004,-0.6000000000000001,0.2,9.200000000000001,-1.4000000000000001,4.6000000000000005,86.3,-6.2
1698415588.015,16,0.1,-0.2,-0.8,0.30000000000000004,9.3,-1.6,4.2,87.10000000000001,-8.1
1698415588.032,16,0.4,-0.2,-0.8,0.6000000000000001,9.3,-1.6,2.9,90.2,-9.600000000000001
1698415588.048,16,0.4,-0.2,-0.9,0.6000000000000001,9.3,-1.7000000000000002,3.2,91.7,-11.000000000000002
1698415588.065,16,0.2,-0.30000000000000004,-1.1,0.4,9.200000000000001,-1.9000000000000001,3.9,97.10000000000001,-14.900000000000002
1698415588.081,16,-0.1,-0.30000000000000004,-1.2000000000000002,0.0,9.200000000000001,-2.0,3.0000000000000004,101.7,-17.8
1698415588.098,16,-0.6000000000000001,0.0,-0.8,-0.5,9.5,-1.6,-0.7,102.30000000000001,-19.1
1698415588.115,16,-0.9,0.30000000000000004,-0.7000000000000001,-0.8,9.8,-1.5,-1.4,100.50000000000001,-19.9
1698415588.131,16,-1.5,1.6,0.1,-1.4000000000000001,11.100000000000001,-0.6000000000000001,-7.8,94.5,-18.6
1698415588.148,16,-1.5,1.4000000000000001,0.4,-1.5,10.9,-0.4,-3.4,80.10000000000001,-17.400000000000002
1698415588.164,16,-1.0,0.7000000000000001,0.2,-1.0,10.3,-0.6000000000000001,-2.0,75.7,-16.700000000000003
1698415588.181,16,0.9,0.1,-0.4,0.8,9.600000000000001,-1.1,-6.4,78.60000000000001,-17.5
1698415588.198,16,0.8,0.1,-0.2,0.7000000000000001,9.600000000000001,-0.9,-10.2,86.1,-24.3
1698415588.215,16,0.30000000000000004,0.1,-0.2,0.2,9.700000000000001,-0.9,-11.5,88.10000000000001,-25.0
1698415588.231,16,-0.9,0.4,0.2,-1.1,10.0,-0.5,-13.200000000000001,90.9,-22.2
1698415588.248,16,-1.5,0.2,0.4,-1.5,10.0,-0.30000000000000004,-12.8,91.8,-18.900000000000002
1698415588.265,16,-1.5,-0.2,0.5,-1.8,9.4,-0.2,-12.100000000000001,91.30000000000001,-18.0
1698415588.281,16,-0.7000000000000001,-0.4,0.30000000000000004,-1.0,9.1,-0.30000000000000004,-11.3,91.8,-16.5
1698415588.298,16,-0.30000000000000004,-0.4,0.30000000000000004,-0.7000000000000001,9.200000000000001,-0.30000000000000004,-11.5,90.5,-15.6
1698415588.315,16,-0.1,-0.1,0.5,-0.4,9.4,-0.1,-11.3,91.60000000000001,-13.9
1698415588.331,16,-0.7000000000000001,-0.2,0.6000000000000001,-1.1,9.4,0.1,-10.8,87.3,-11.700000000000001
1698415588.348,16,-1.0,-0.2,0.8,-1.4000000000000001,9.3,0.30000000000000004,-11.5,83.10000000000001,-9.5
1698415588.365,16,-0.9,-0.2,0.8,-1.3,9.3,0.4,-12.000000000000002,82.10000000000001,-8.9
1698415588.382,16,-0.5,-0.2,1.0,-1.0,9.4,0.6000000000000001,-12.9,81.5,-8.0
1698415588.398,16,-0.6000000000000001,-0.1,0.9,-1.0,9.5,0.5,-13.700000000000001,80.9,-7.500000000000001
1698415588.415,16,-0.6000000000000001,-0.1,0.9,-1.1,9.5,0.6000000000000001,-13.9,79.5,-7.6
1698415588.432,16,-0.8,0.0,0.9,-1.3,9.5,0.6000000000000001,-14.500000000000002,79.10000000000001,-8.0
1698415588.449,16,-0.8,0.0,1.0,-1.3,9.600000000000001,0.7000000000000001,-15.100000000000001,79.10000000000001,-8.200000000000001
1698415588.465,16,-0.8,0.0,0.9,-1.3,9.5,0.7000000000000001,-15.399999999999999,79.00000000000001,-8.5
1698415588.483,16,-0.7000000000000001,-0.1,1.0,-1.3,9.4,0.8,-16.3,79.39999999999999,-8.799999999999999
1698415588.498,16,-0.8,-0.1,0.8,-1.4000000000000001,9.4,0.7000000000000001,-16.8,81.0,-8.799999999999999
1698415588.515,16,-0.8,-0.1,0.9,-1.5,9.4,0.7000000000000001,-17.1,82.10000000000001,-8.5
1698415588.532,16,-0.7000000000000001,-0.30000000000000004,0.9,-1.3,9.3,0.8,-17.400000000000002,83.50000000000001,-7.400000000000001
1698415588.548,16,-0.5,-0.4,0.8,-1.1,9.1,0.8,-17.200000000000003,85.7,-6.3
1698415588.565,16,-0.4,-0.4,0.8,-1.1,9.1,0.8,-16.8,86.9,-5.500000000000001
1698415588.581,16,-0.30000000000000004,-0.30000000000000004,0.8,-1.0,9.200000000000001,0.8,-16.3,90.4,-4.0
1698415588.598,16,-0.5,-0.30000000000000004,0.7000000000000001,-1.2000000000000002,9.3,0.8,-16.2,93.9,-2.3000000000000003
1698415588.615,16,-0.5,-0.2,0.7000000000000001,-1.3,9.3,0.8,-16.2,94.4,-1.8
1698415588.632,16,-0.7000000000000001,-0.1,0.8,-1.4000000000000001,9.4,0.9,-15.9,95.2,-0.7
1698415588.648,16,-0.6000000000000001,-0.1,0.7000000000000001,-1.4000000000000001,9.4,0.8,-14.900000000000002,95.7,-0.8
1698415588.665,16,-0.6000000000000001,-0.2,0.6000000000000001,-1.3,9.3,0.8,-14.500000000000002,96.10000000000001,-1.8
1698415588.682,16,-0.4,-0.4,0.6000000000000001,-1.2000000000000002,9.1,0.8,-14.0,97.00000000000001,-3.4
1698415588.698,16,-0.30000000000000004,-0.30000000000000004,0.5,-1.1,9.200000000000001,0.8,-13.8,99.5,-3.1
1698415588.716,16,-0.30000000000000004,-0.2,0.4,-1.1,9.3,0.7000000000000001,-13.8,101.30000000000001,-2.6
1698415588.732,16,-0.7000000000000001,-0.1,0.6000000000000001,-1.5,9.4,0.8,-13.100000000000001,104.5,-2.6
1698415588.748,16,-0.7000000000000001,0.0,0.4,-1.6,9.5,0.7000000000000001,-11.5,107.9,-2.4000000000000004
1698415588.765,16,-0.7000000000000001,0.1,0.4,-1.5,9.600000000000001,0.7000000000000001,-10.4,109.8,-0.9
1698415588.782,16,-0.5,0.0,0.2,-1.4000000000000001,9.5,0.5,-6.8,110.9,1.7
1698415588.799,16,-0.30000000000000004,-0.2,0.1,-1.2000000000000002,9.200000000000001,0.4,-5.4,112.0,4.800000000000001
1698415588.815,16,-0.30000000000000004,-0.2,0.2,-1.1,9.200000000000001,0.4,-5.8,113.0,6.1000000000000005
1698415588.832,16,-0.5,-0.2,0.5,-1.3,9.3,0.7000000000000001,-6.3,115.0,6.8
1698415588.849,16,-0.6000000000000001,0.0,0.5,-1.5,9.5,0.7000000000000001,-5.0,117.30000000000001,7.400000000000001
1698415588.865,16,-0.6000000000000001,-0.1,0.5,-1.4000000000000001,9.4,0.7000000000000001,-3.8,118.40000000000002,7.6
1698415588.883,16,-0.5,-0.4,0.4,-1.3,9.1,0.6000000000000001,-2.1999999999999997,122.0,8.3
1698415588.898,16,-0.6000000000000001,-0.30000000000000004,0.30000000000000004,-1.4000000000000001,9.200000000000001,0.5,-1.6,124.90000000000002,11.000000000000002
1698415588.915,16,-0.7000000000000001,-0.1,0.4,-1.5,9.3,0.5,-1.4,124.0,12.100000000000001
1698415588.932,16,-0.7000000000000001,-0.1,0.5,-1.5,9.4,0.6000000000000001,0.7,120.9,12.200000000000001
1698415588.948,16,-0.8,-0.1,0.30000000000000004,-1.5,9.4,0.4,2.3000000000000003,117.8,10.4
1698415588.965,16,-0.9,0.0,0.30000000000000004,-1.6,9.5,0.4,2.9,116.10000000000001,9.9
1698415588.982,16,-1.2000000000000002,0.0,0.2,-1.9000000000000001,9.5,0.2,4.3999999999999995,110.8,9.4
1698415588.998,16,-1.3,0.0,0.1,-1.9000000000000001,9.5,0.1,4.6000000000000005,105.10000000000001,9.0
1698415589.015,16,-1.3,0.1,0.1,-1.9000000000000001,9.5,0.1,4.5,102.10000000000001,8.700000000000001
1698415589.032,16,-1.3,0.2,0.2,-2.0,9.700000000000001,0.2,5.0,97.8,7.1000000000000005
1698415589.049,16,-1.3,0.1,0.2,-2.0,9.600000000000001,0.1,4.5,93.60000000000001,6.6000000000000005
1698415589.065,16,-1.5,0.2,0.30000000000000004,-2.2,9.700000000000001,0.1,4.1000000000000005,91.50000000000001,6.2
1698415589.082,16,-1.7000000000000002,0.1,0.30000000000000004,-2.4000000000000004,9.600000000000001,0.1,4.5,85.4,6.000000000000001
1698415589.099,16,-1.9000000000000001,0.0,0.30000000000000004,-2.5,9.5,0.2,4.5,79.3,6.2
1698415589.116,16,-1.8,0.0,0.30000000000000004,-2.4000000000000004,9.5,0.1,5.0,72.10000000000001,6.5
1698415589.132,16,-1.6,-0.1,0.30000000000000004,-2.2,9.5,0.1,5.500000000000001,68.0,6.7
1698415589.148,16,-1.5,-0.1,0.2,-2.1,9.4,0.0,6.9,60.599999999999994,7.300000000000001
1698415589.165,16,-1.5,-0.30000000000000004,0.30000000000000004,-2.1,9.200000000000001,0.0,7.400000000000001,53.400000000000006,7.9
1698415589.182,16,-1.4000000000000001,-0.1,0.30000000000000004,-2.0,9.4,0.0,7.0,50.800000000000004,8.5
1698415589.198,16,-1.4000000000000001,0.2,0.30000000000000004,-2.0,9.700000000000001,-0.1,6.1000000000000005,47.5,8.9
1698415589.215,16,-1.7000000000000002,0.2,0.30000000000000004,-2.2,9.700000000000001,-0.1,5.8,44.3,9.4
1698415589.232,16,-1.7000000000000002,0.1,0.30000000000000004,-2.2,9.600000000000001,-0.1,5.500000000000001,41.7,10.5
1698415589.248,16,-1.4000000000000001,0.1,0.5,-1.9000000000000001,9.600000000000001,0.1,4.5,36.2,12.000000000000002
1698415589.265,16,-1.2000000000000002,0.1,0.5,-1.7000000000000002,9.600000000000001,0.1,4.800000000000001,33.300000000000004,11.8
1698415589.282,16,-1.2000000000000002,0.0,0.4,-1.6,9.5,0.0,5.7,27.0,9.8
1698415589.301,16,-1.3,-0.1,0.30000000000000004,-1.7000000000000002,9.4,-0.1,6.5,21.3,8.5
1698415589.315,16,-1.3,-0.2,0.2,-1.7000000000000002,9.3,-0.2,7.0,17.5,8.4
1698415589.332,16,-1.3,-0.2,0.2,-1.7000000000000002,9.3,-0.2,6.7,16.6,9.0
1698415589.348,16,-1.1,-0.30000000000000004,0.30000000000000004,-1.5,9.3,-0.2,6.9,15.399999999999999,10.0
1698415589.365,16,-0.9,-0.1,0.30000000000000004,-1.2000000000000002,9.4,-0.2,6.9,15.8,9.9
1698415589.382,16,-0.8,-0.1,0.30000000000000004,-1.1,9.4,-0.30000000000000004,7.0,15.7,9.4
1698415589.398,16,-0.7000000000000001,0.1,0.2,-1.0,9.600000000000001,-0.30000000000000004,6.7,14.700000000000001,9.4
1698415589.415,16,-0.5,0.1,0.2,-0.8,9.600000000000001,-0.30000000000000004,5.6,14.4,9.4
1698415589.432,16,-0.4,0.1,0.2,-0.7000000000000001,9.600000000000001,-0.4,5.0,15.000000000000002,9.5
1698415589.448,16,-0.30000000000000004,0.1,0.30000000000000004,-0.5,9.600000000000001,-0.30000000000000004,3.3000000000000003,15.8,8.700000000000001
1698415589.465,16,-0.30000000000000004,0.0,0.4,-0.4,9.5,-0.2,2.1,16.8,7.1000000000000005
1698415589.482,16,-0.2,0.0,0.4,-0.4,9.5,-0.2,1.8,17.599999999999998,6.4
1698415589.499,16,-0.30000000000000004,0.1,0.4,-0.5,9.600000000000001,-0.2,2.0,19.9,6.000000000000001
1698415589.515,16,-0.4,0.30000000000000004,0.30000000000000004,-0.6000000000000001,9.8,-0.30000000000000004,2.1,22.1,6.9
1698415589.532,16,-0.30000000000000004,0.2,0.2,-0.30000000000000004,9.700000000000001,-0.5,2.1999999999999997,23.0,7.6
1698415589.548,16,-0.1,0.2,0.1,-0.2,9.700000000000001,-0.5,1.8,23.2,8.1
1698415589.564,16,0.0,0.0,0.2,0.0,9.5,-0.5,1.5000000000000002,22.900000000000002,7.8
1698415589.582,16,0.1,-0.1,0.1,0.1,9.4,-0.6000000000000001,2.1,23.2,7.300000000000001
1698415589.6,16,0.5,-0.30000000000000004,-0.1,0.5,9.200000000000001,-0.8,2.5,26.6,6.7
1698415589.615,16,0.7000000000000001,-0.1,-0.30000000000000004,0.8,9.4,-0.9,2.9,32.4,6.3
1698415589.632,16,0.8,0.1,-0.30000000000000004,0.8,9.600000000000001,-1.0,3.5,35.9,6.3
1698415589.648,16,0.6000000000000001,0.30000000000000004,-0.4,0.6000000000000001,9.8,-1.0,4.6000000000000005,41.5,6.7
1698415589.665,16,0.0,0.30000000000000004,-0.4,0.1,9.8,-1.0,5.0,43.400000000000006,7.9
1698415589.682,16,-0.30000000000000004,0.4,-0.30000000000000004,-0.1,9.9,-1.0,4.6000000000000005,42.300000000000004,8.700000000000001
1698415589.699,16,-0.4,0.30000000000000004,-0.30000000000000004,-0.2,9.9,-1.0,4.2,37.4,9.600000000000001
1698415589.715,16,-0.1,0.0,-0.1,0.1,9.5,-0.9,2.8,33.300000000000004,9.4
1698415589.732,16,0.0,-0.1,-0.1,0.2,9.4,-0.9,2.0,32.0,9.0
1698415589.748,16,0.0,-0.2,0.0,0.30000000000000004,9.3,-0.7000000000000001,0.6000000000000001,31.5,8.200000000000001
1698415589.765,16,0.2,-0.2,-0.2,0.5,9.3,-0.9,0.4,33.5,8.600000000000001
1698415589.782,16,0.2,-0.2,-0.2,0.6000000000000001,9.3,-0.9,-0.30000000000000004,35.199999999999996,9.0
1698415589.798,16,0.0,-0.30000000000000004,0.0,0.4,9.200000000000001,-0.7000000000000001,-1.6,37.900000000000006,9.5
1698415589.815,16,-0.30000000000000004,-0.5,0.0,0.1,9.0,-0.7000000000000001,-1.4,38.5,10.5
1698415589.832,16,-0.4,-0.4,-0.1,0.0,9.1,-0.7000000000000001,-1.5000000000000002,38.400000000000006,10.8
1698415589.848,16,-0.1,0.0,-0.1,0.4,9.5,-0.8,-1.8,38.5,10.3
1698415589.865,16,0.0,0.1,0.0,0.6000000000000001,9.600000000000001,-0.7000000000000001,1.2000000000000002,39.2,6.9
1698415589.882,16,-0.4,0.1,-0.4,0.1,9.600000000000001,-1.0,4.0,40.3,3.6
1698415589.899,16,-0.6000000000000001,0.0,-0.4,-0.1,9.5,-1.1,4.7,39.300000000000004,2.6
1698415589.916,16,-0.8,0.0,-0.5,-0.30000000000000004,9.4,-1.2000000000000002,4.5,38.2,1.5000000000000002
1698415589.932,16,-0.6000000000000001,0.0,-0.5,0.0,9.5,-1.2000000000000002,3.6,37.0,0.6000000000000001
1698415589.949,16,-0.5,0.0,-0.4,0.1,9.5,-1.2000000000000002,3.4,36.2,0.5
1698415589.965,16,-0.4,0.0,-0.4,0.2,9.5,-1.1,3.2,34.400000000000006,0.6000000000000001
1698415589.982,16,-0.4,0.0,-0.4,0.2,9.5,-1.2000000000000002,2.9,34.50000000000001,0.30000000000000004
1698415590.0,16,-0.30000000000000004,-0.1,-0.30000000000000004,0.30000000000000004,9.4,-1.1,3.1,34.0,-0.2
1698415590.015,16,-0.2,-0.1,-0.4,0.4,9.4,-1.1,3.1,34.7,-1.0999999999999999
1698415590.032,16,-0.2,-0.1,-0.4,0.4,9.4,-1.1,3.2,36.3,-1.5000000000000002
1698415590.048,16,-0.2,-0.1,-0.4,0.4,9.4,-1.2000000000000002,2.9,37.1,-1.7
1698415590.066,16,-0.2,-0.1,-0.4,0.4,9.4,-1.1,2.3000000000000003,37.1,-2.1
1698415590.083,16,-0.4,-0.2,-0.4,0.2,9.3,-1.2000000000000002,2.1999999999999997,37.1,-2.7
1698415590.098,16,-0.30000000000000004,-0.2,-0.4,0.2,9.3,-1.1,1.9,37.2,-2.8
1698415590.115,16,-0.1,-0.1,-0.2,0.4,9.4,-1.0,1.0,37.4,-3.2
1698415590.132,16,0.0,-0.1,-0.2,0.5,9.4,-1.0,1.7,38.300000000000004,-3.9
1698415590.148,16,0.0,-0.1,-0.30000000000000004,0.5,9.4,-1.1,1.7,39.2,-4.2
1698415590.166,16,-0.1,0.0,-0.30000000000000004,0.4,9.4,-1.1,2.0,39.2,-4.5
1698415590.182,16,-0.1,0.1,-0.4,0.5,9.600000000000001,-1.2000000000000002,1.6,39.6,-4.6000000000000005
1698415590.199,16,0.0,0.1,-0.30000000000000004,0.6000000000000001,9.600000000000001,-1.2000000000000002,1.2000000000000002,40.2,-4.9
1698415590.215,16,0.2,0.1,-0.30000000000000004,0.7000000000000001,9.5,-1.2000000000000002,1.3,42.1,-6.2
1698415590.231,16,0.30000000000000004,0.1,-0.30000000000000004,0.8,9.600000000000001,-1.2000000000000002,1.2000000000000002,44.9,-6.8
1698415590.248,16,0.2,0.30000000000000004,-0.2,0.7000000000000001,9.8,-1.1,0.7,45.6,-6.4
1698415590.265,16,-0.30000000000000004,0.8,-0.2,0.2,10.3,-1.1,0.1,44.6,-5.9
1698415590.281,16,-0.8,1.2000000000000002,0.2,-0.30000000000000004,10.700000000000001,-0.6000000000000001,-2.7,42.0,-5.4
1698415590.298,16,-0.7000000000000001,0.7000000000000001,0.1,-0.2,10.200000000000001,-0.7000000000000001,-1.9,34.300000000000004,-6.8
1698415590.314,16,-0.4,0.5,0.2,0.1,10.0,-0.6000000000000001,-3.5,33.1,-7.6
1698415590.331,16,-0.1,0.4,0.5,0.30000000000000004,9.9,-0.30000000000000004,-6.1000000000000005,34.900000000000006,-10.1
1698415590.348,16,-0.1,0.2,0.30000000000000004,0.30000000000000004,9.700000000000001,-0.5,-5.300000000000001,35.7,-11.700000000000001
1698415590.365,16,-0.2,-0.1,-0.1,0.2,9.4,-0.9,-4.7,39.300000000000004,-13.100000000000001
1698415590.381,16,-0.30000000000000004,-0.2,-0.1,0.1,9.3,-0.9,-4.9,43.1,-11.5
1698415590.398,16,-0.5,-0.2,-0.1,-0.1,9.4,-0.8,-4.7,44.2,-10.600000000000001
1698415590.415,16,-1.0,0.4,0.2,-0.7000000000000001,9.9,-0.5,-6.8,44.5,-6.9
1698415590.432,16,-1.4000000000000001,1.0,0.7000000000000001,-1.1,10.600000000000001,0.0,-8.0,40.1,-3.7000000000000006
1698415590.448,16,-1.4000000000000001,0.9,0.7000000000000001,-1.1,10.5,0.0,-7.500000000000001,37.7,-3.7000000000000006
1698415590.465,16,-1.0,0.4,0.6000000000000001,-0.7000000000000001,10.0,0.0,-6.9,35.7,-6.000000000000001
1698415590.483,16,-0.5,0.1,0.6000000000000001,-0.2,9.600000000000001,0.0,-7.699999999999999,35.5,-8.799999999999999
1698415590.499,16,-0.5,-0.2,0.6000000000000001,-0.30000000000000004,9.4,0.0,-7.400000000000001,36.1,-10.1
1698415590.515,16,-0.6000000000000001,-0.30000000000000004,0.5,-0.4,9.3,0.0,-7.1000000000000005,36.7,-10.1
1698415590.531,16,-0.8,-0.4,0.7000000000000001,-0.6000000000000001,9.1,0.2,-6.9,39.300000000000004,-10.1
1698415590.548,16,-0.9,-0.5,0.9,-0.7000000000000001,9.0,0.4,-6.8,41.800000000000004,-11.2
1698415590.564,16,-1.0,-0.5,0.9,-0.9,9.1,0.5,-6.5,43.400000000000006,-12.3
1698415590.583,16,-1.2000000000000002,-0.4,1.0,-1.1,9.200000000000001,0.5,-5.8,44.3,-14.200000000000001
1698415590.598,16,-1.2000000000000002,-0.4,0.9,-1.1,9.1,0.5,-5.0,44.2,-14.200000000000001
1698415590.615,16,-1.0,-0.5,0.9,-1.0,9.0,0.5,-2.7,42.1,-12.5
1698415590.632,16,-1.0,-0.7000000000000001,0.9,-1.0,8.8,0.5,-1.3,40.4,-10.1
1698415590.648,16,-1.0,-0.8,0.8,-1.0,8.700000000000001,0.5,-0.5,39.1,-8.700000000000001
1698415590.666,16,-1.1,-0.7000000000000001,0.7000000000000001,-1.2000000000000002,8.8,0.4,0.6000000000000001,34.50000000000001,-6.5
1698415590.682,16,-1.1,-0.6000000000000001,0.8,-1.2000000000000002,8.9,0.4,1.0,32.6,-5.8
1698415590.7,16,-1.1,-0.4,0.6000000000000001,-1.2000000000000002,9.1,0.30000000000000004,1.5000000000000002,31.7,-6.000000000000001
1698415590.715,16,-1.2000000000000002,-0.30000000000000004,0.6000000000000001,-1.3,9.200000000000001,0.2,1.4,32.0,-5.9
1698415590.732,16,-1.3,0.0,0.7000000000000001,-1.5,9.5,0.30000000000000004,1.8,31.4,-4.7
1698415590.75,16,-1.3,0.1,0.5,-1.5,9.600000000000001,0.1,3.8,28.500000000000004,-3.2
1698415590.765,16,-1.3,0.0,0.5,-1.5,9.5,0.1,5.0,26.500000000000004,-2.7
1698415590.783,16,-1.0,0.0,0.30000000000000004,-1.2000000000000002,9.5,-0.1,7.0,22.4,-3.5
1698415590.799,16,-0.7000000000000001,0.30000000000000004,0.5,-1.0,9.8,0.1,6.9,19.3,-5.6
1698415590.815,16,-0.6000000000000001,0.4,0.4,-0.9,9.9,0.0,7.300000000000001,18.8,-7.0
1698415590.832,16,-0.7000000000000001,0.1,0.4,-1.0,9.600000000000001,-0.1,6.7,19.1,-8.600000000000001
1698415590.848,16,-1.1,-0.2,0.4,-1.4000000000000001,9.3,0.0,5.1,19.400000000000002,-8.1
1698415590.865,16,-1.1,-0.30000000000000004,0.5,-1.4000000000000001,9.200000000000001,0.1,3.9,19.700000000000003,-7.300000000000001
1698415590.882,16,-1.1,-0.30000000000000004,0.5,-1.4000000000000001,9.200000000000001,0.0,2.7,19.400000000000002,-6.000000000000001
1698415590.899,16,-1.1,-0.30000000000000004,0.5,-1.4000000000000001,9.200000000000001,0.0,2.1999999999999997,15.7,-5.4
1698415590.92,16,-1.1,-0.1,0.4,-1.5,9.3,0.0,2.5,13.6,-5.300000000000001
1698415590.932,16,-1.1,-0.1,0.4,-1.5,9.4,-0.1,3.0000000000000004,10.2,-5.1
1698415590.948,16,-1.2000000000000002,-0.1,0.2,-1.6,9.4,-0.30000000000000004,2.9,7.0,-4.1000000000000005
1698415590.965,16,-1.2000000000000002,-0.1,0.2,-1.7000000000000002,9.4,-0.30000000000000004,2.3000000000000003,5.300000000000001,-3.5
1698415590.982,16,-1.2000000000000002,-0.2,0.30000000000000004,-1.7000000000000002,9.3,-0.2,2.1999999999999997,2.6,-2.0
1698415590.999,16,-1.1,-0.30000000000000004,0.2,-1.6,9.200000000000001,-0.4,2.5,-0.1,-0.5
1698415591.015,16,-1.1,-0.30000000000000004,0.2,-1.6,9.1,-0.4,2.8,-1.9,0.4
1698415591.032,16,-1.2000000000000002,-0.30000000000000004,0.1,-1.6,9.200000000000001,-0.5,3.8,-6.6000000000000005,1.6
1698415591.049,16,-1.2000000000000002,-0.2,-0.30000000000000004,-1.7000000000000002,9.3,-0.8,5.1,-11.6,2.7
1698415591.065,16,-1.2000000000000002,-0.1,-0.4,-1.7000000000000002,9.3,-1.0,5.300000000000001,-13.8,3.5
1698415591.082,16,-1.1,-0.2,-0.5,-1.6,9.3,-1.0,4.800000000000001,-17.5,6.2
1698415591.099,16,-0.9,-0.2,-0.4,-1.4000000000000001,9.200000000000001,-1.0,3.8,-19.700000000000003,9.0
1698415591.115,16,-0.8,-0.1,-0.30000000000000004,-1.2000000000000002,9.3,-0.9,3.0000000000000004,-20.0,9.8
1698415591.132,16,-0.7000000000000001,0.0,-0.1,-1.1,9.4,-0.7000000000000001,2.1999999999999997,-17.9,10.1
1698415591.148,16,-0.8,-0.1,-0.1,-1.2000000000000002,9.4,-0.7000000000000001,3.0000000000000004,-16.1,10.700000000000001
1698415591.164,16,-0.9,0.0,-0.2,-1.3,9.5,-0.9,3.3000000000000003,-15.2,11.1
1698415591.182,16,-1.0,0.2,-0.30000000000000004,-1.3,9.700000000000001,-1.0,3.1,-14.700000000000001,11.5
1698415591.198,16,-1.1,0.30000000000000004,-0.4,-1.4000000000000001,9.700000000000001,-1.0,3.3000000000000003,-15.7,12.100000000000001
1698415591.215,16,-1.1,0.2,-0.5,-1.4000000000000001,9.700000000000001,-1.1,3.6,-16.900000000000002,12.3
1698415591.232,16,-0.9,0.30000000000000004,-0.6000000000000001,-1.2000000000000002,9.8,-1.3,4.2,-21.5,12.100000000000001
1698415591.248,16,-0.7000000000000001,0.4,-0.7000000000000001,-1.0,9.9,-1.4000000000000001,5.6,-26.500000000000004,10.2
1698415591.264,16,-0.7000000000000001,0.6000000000000001,-1.0,-1.0,10.100000000000001,-1.7000000000000002,6.3,-28.500000000000004,8.9
1698415591.282,16,-0.8,1.1,-0.5,-1.0,10.600000000000001,-1.2000000000000002,3.3000000000000003,-30.799999999999997,5.2
1698415591.298,16,-0.5,1.2000000000000002,-0.4,-0.8,10.700000000000001,-1.1,3.3000000000000003,-25.700000000000003,4.300000000000001
1698415591.315,16,-0.4,1.1,-0.4,-0.7000000000000001,10.600000000000001,-1.1,3.0000000000000004,-24.3,4.800000000000001
1698415591.332,16,-0.5,0.8,-0.2,-0.7000000000000001,10.3,-0.9,1.4,-24.7,5.7
1698415591.348,16,-0.30000000000000004,0.9,-0.1,-0.5,10.4,-0.8,-0.2,-21.200000000000003,7.400000000000001
1698415591.364,16,-0.2,0.8,0.0,-0.4,10.3,-0.7000000000000001,0.1,-21.0,7.8
1698415591.382,16,-0.2,0.4,-0.1,-0.4,9.9,-0.8,0.9,-18.5,6.9
1698415591.398,16,-0.2,0.30000000000000004,0.1,-0.4,9.8,-0.6000000000000001,0.2,-16.400000000000002,4.9
1698415591.416,16,-0.30000000000000004,0.6000000000000001,0.1,-0.5,10.100000000000001,-0.6000000000000001,-1.0999999999999999,-15.000000000000002,3.3000000000000003
1698415591.432,16,-0.30000000000000004,0.7000000000000001,0.30000000000000004,-0.5,10.200000000000001,-0.4,-0.9,-15.5,3.0000000000000004
1698415591.448,16,-0.6000000000000001,0.30000000000000004,0.5,-0.8,9.9,-0.2,0.8,-15.6,3.5
1698415591.464,16,-0.6000000000000001,-0.1,0.7000000000000001,-0.8,9.4,0.0,2.1,-20.1,3.7000000000000006
1698415591.481,16,-0.6000000000000001,-0.30000000000000004,0.9,-0.8,9.3,0.2,1.9,-21.8,3.0000000000000004
1698415591.498,16,-0.6000000000000001,-0.6000000000000001,1.1,-0.7000000000000001,8.9,0.4,1.4,-26.0,1.2000000000000002
1698415591.515,16,-0.30000000000000004,-0.9,1.4000000000000001,-0.5,8.6,0.7000000000000001,-0.4,-27.2,-0.6000000000000001
1698415591.533,16,-0.1,-0.9,1.5,-0.30000000000000004,8.6,0.9,-1.0999999999999999,-26.8,-0.4
1698415591.548,16,0.30000000000000004,-0.6000000000000001,1.6,0.1,8.9,0.9,-2.6,-25.400000000000002,1.6
1698415591.564,16,0.7000000000000001,-0.2,1.7000000000000002,0.5,9.3,1.1,-3.4,-22.4,4.9
1698415591.581,16,0.8,-0.1,1.7000000000000002,0.6000000000000001,9.4,1.1,-2.9,-21.1,6.8
1698415591.598,16,0.9,-0.1,1.5,0.7000000000000001,9.5,0.9,-1.9,-17.400000000000002,11.1
1698415591.615,16,0.9,0.0,1.2000000000000002,0.8,9.5,0.6000000000000001,-0.8,-14.100000000000001,13.100000000000001
1698415591.631,16,0.7000000000000001,0.0,1.1,0.7000000000000001,9.5,0.5,-0.4,-12.5,13.0
1698415591.648,16,0.4,-0.1,0.9,0.4,9.4,0.30000000000000004,0.8,-11.2,12.200000000000001
1698415591.664,16,0.2,-0.2,0.6000000000000001,0.2,9.4,0.0,2.1999999999999997,-10.0,10.9
1698415591.681,16,0.2,-0.1,0.5,0.2,9.4,0.0,2.0,-6.7,8.600000000000001
1698415591.698,16,0.1,0.0,0.6000000000000001,0.2,9.5,0.0,2.0,-5.8,7.6
1698415591.714,16,0.1,-0.2,0.5,0.1,9.3,-0.1,2.4000000000000004,-6.6000000000000005,6.000000000000001
1698415591.731,16,0.1,-0.30000000000000004,0.5,0.2,9.200000000000001,-0.1,2.1,-6.9,5.8
1698415591.748,16,0.0,-0.4,0.5,0.1,9.1,0.0,0.8,-8.799999999999999,6.000000000000001
1698415591.764,16,0.1,-0.4,0.5,0.2,9.1,0.0,0.0,-10.8,6.7
1698415591.781,16,0.2,-0.30000000000000004,0.4,0.2,9.200000000000001,-0.1,0.0,-11.3,6.7
1698415591.798,16,0.2,-0.30000000000000004,0.4,0.30000000000000004,9.200000000000001,-0.2,0.6000000000000001,-11.1,6.1000000000000005
1698415591.814,16,0.1,-0.30000000000000004,0.2,0.30000000000000004,9.200000000000001,-0.4,1.4,-10.8,5.9
1698415591.831,16,0.1,-0.4,0.30000000000000004,0.30000000000000004,9.1,-0.30000000000000004,1.3,-11.000000000000002,5.300000000000001
1698415591.848,16,0.1,-0.30000000000000004,0.2,0.30000000000000004,9.1,-0.4,1.4,-11.3,5.2
1698415591.864,16,0.30000000000000004,-0.2,0.1,0.5,9.200000000000001,-0.4,-0.1,-10.600000000000001,4.9
1698415591.881,16,0.4,-0.30000000000000004,0.30000000000000004,0.6000000000000001,9.1,-0.30000000000000004,-1.0,-10.2,4.2
1698415591.898,16,0.30000000000000004,-0.4,0.2,0.5,9.1,-0.30000000000000004,-0.9,-9.700000000000001,4.2
1698415591.914,16,0.0,-0.5,0.1,0.2,9.0,-0.5,-1.6,-8.200000000000001,4.300000000000001
1698415591.932,16,-0.1,-0.5,0.0,0.2,8.9,-0.6000000000000001,-3.6,-6.4,4.6000000000000005
1698415591.948,16,0.2,-0.4,-0.1,0.4,9.1,-0.7000000000000001,-4.6000000000000005,-5.2,3.8
1698415591.964,16,0.5,0.0,-0.2,0.7000000000000001,9.4,-0.7000000000000001,-4.9,-4.2,1.6
1698415591.981,16,0.5,0.2,-0.4,0.7000000000000001,9.600000000000001,-0.9,-3.1,-4.800000000000001,-1.0
1698415591.998,16,0.30000000000000004,0.2,-0.4,0.6000000000000001,9.600000000000001,-1.0,-2.3000000000000003,-4.9,-2.6
1698415592.014,16,0.0,0.0,-0.4,0.30000000000000004,9.4,-1.0,-1.0,-2.9,-5.500000000000001
1698415592.031,16,-0.1,0.1,-0.6000000000000001,0.1,9.5,-1.1,-0.4,0.6000000000000001,-6.4
1698415592.048,16,0.0,0.1,-0.6000000000000001,0.2,9.600000000000001,-1.1,-0.7,2.1,-6.1000000000000005
1698415592.064,16,0.30000000000000004,0.2,-0.5,0.5,9.700000000000001,-1.1,-1.0,4.3999999999999995,-6.000000000000001
1698415592.081,16,0.4,0.2,-0.5,0.6000000000000001,9.600000000000001,-1.0,-0.5,6.000000000000001,-6.000000000000001
1698415592.098,16,0.4,0.1,-0.5,0.6000000000000001,9.600000000000001,-1.0,-0.1,6.7,-6.2
1698415592.114,16,0.2,0.0,-0.5,0.4,9.5,-1.1,-0.30000000000000004,7.9,-6.3
1698415592.131,16,0.30000000000000004,0.0,-0.4,0.5,9.5,-1.0,-1.0,9.200000000000001,-6.3
1698415592.148,16,0.30000000000000004,0.0,-0.4,0.5,9.4,-0.9,-0.9,9.9,-6.1000000000000005
1698415592.164,16,0.4,0.0,-0.5,0.5,9.4,-1.0,-0.5,11.9,-5.4
1698415592.181,16,0.4,-0.1,-0.6000000000000001,0.6000000000000001,9.4,-1.1,0.6000000000000001,15.399999999999999,-5.6
1698415592.198,16,0.4,-0.1,-0.6000000000000001,0.6000000000000001,9.4,-1.2000000000000002,1.4,17.5,-6.2
1698415592.214,16,0.4,-0.1,-0.9,0.6000000000000001,9.4,-1.5,3.5,22.900000000000002,-8.1
1698415592.231,16,0.4,0.2,-1.1,0.5,9.600000000000001,-1.7000000000000002,4.3999999999999995,29.1,-7.6
1698415592.248,16,0.1,0.6000000000000001,-0.8,0.2,10.100000000000001,-1.4000000000000001,2.4000000000000004,32.300000000000004,-6.5
1698415592.264,16,-0.7000000000000001,1.4000000000000001,0.0,-0.6000000000000001,10.9,-0.7000000000000001,1.7,28.400000000000002,-4.6000000000000005
1698415592.281,16,-0.9,0.9,-0.1,-0.8,10.4,-0.7000000000000001,4.3999999999999995,17.1,-4.5
1698415592.298,16,-0.6000000000000001,0.7000000000000001,0.0,-0.5,10.100000000000001,-0.7000000000000001,3.2,15.6,-6.000000000000001
1698415592.314,16,-0.4,0.9,0.30000000000000004,-0.4,10.4,-0.30000000000000004,0.8,19.700000000000003,-10.5
1698415592.331,16,-0.4,0.6000000000000001,-0.4,-0.30000000000000004,10.100000000000001,-1.1,3.1,18.1,-12.9
1698415592.348,16,-0.2,0.5,-0.4,-0.2,10.0,-1.1,3.0000000000000004,19.400000000000002,-12.6
1698415592.365,16,0.0,0.2,-0.30000000000000004,0.0,9.700000000000001,-1.0,3.7000000000000006,23.2,-11.3
1698415592.381,16,0.1,0.2,-0.30000000000000004,0.1,9.700000000000001,-1.0,3.9,25.900000000000002,-9.600000000000001
1698415592.398,16,0.1,0.2,0.0,0.0,9.700000000000001,-0.8,2.9,27.400000000000002,-8.9
1698415592.414,16,-0.5,0.7000000000000001,0.8,-0.6000000000000001,10.200000000000001,0.0,0.30000000000000004,32.6,-7.6
1698415592.431,16,-0.8,0.9,1.2000000000000002,-0.9,10.4,0.4,0.7,34.1,-7.2
1698415592.448,16,-0.7000000000000001,0.6000000000000001,1.2000000000000002,-0.9,10.100000000000001,0.5,0.8,34.7,-7.9
1698415592.465,16,-0.2,0.0,1.4000000000000001,-0.30000000000000004,9.5,0.7000000000000001,0.5,35.1,-8.3
1698415592.481,16,0.1,-0.30000000000000004,1.3,-0.1,9.200000000000001,0.6000000000000001,-0.5,35.8,-8.1
1698415592.498,16,0.30000000000000004,-0.5,1.4000000000000001,0.1,9.0,0.7000000000000001,-0.7,36.4,-7.8
1698415592.515,16,0.30000000000000004,-0.8,1.4000000000000001,0.1,8.700000000000001,0.7000000000000001,-2.5,39.2,-7.1000000000000005
1698415592.532,16,-0.30000000000000004,-0.9,1.3,-0.5,8.6,0.7000000000000001,-4.3999999999999995,41.800000000000004,-5.9
1698415592.549,16,-0.7000000000000001,-0.8,1.3,-0.9,8.700000000000001,0.7000000000000001,-5.7,41.1,-4.9
1698415592.564,16,-1.4000000000000001,-0.6000000000000001,1.4000000000000001,-1.7000000000000002,8.9,0.7000000000000001,-5.9,40.6,-5.1
1698415592.581,16,-1.6,-0.2,1.1,-1.9000000000000001,9.3,0.5,-5.2,37.0,-5.6
1698415592.6,16,-1.4000000000000001,-0.1,0.9,-1.7000000000000002,9.4,0.30000000000000004,-1.4,28.0,-7.300000000000001
1698415592.615,16,-1.3,-0.1,0.7000000000000001,-1.6,9.4,0.1,0.9,23.2,-8.1
1698415592.632,16,-1.0,-0.1,0.4,-1.4000000000000001,9.4,-0.2,4.0,15.6,-9.600000000000001
1698415592.648,16,-1.0,0.0,0.30000000000000004,-1.3,9.5,-0.30000000000000004,4.5,12.100000000000001,-10.0
1698415592.665,16,-0.8,0.30000000000000004,0.4,-1.2000000000000002,9.8,-0.2,3.9,8.200000000000001,-9.9
1698415592.681,16,-0.7000000000000001,0.2,0.4,-1.1,9.700000000000001,-0.2,3.3000000000000003,8.3,-8.799999999999999
1698415592.71,16,-0.7000000000000001,-0.30000000000000004,0.5,-1.2000000000000002,9.1,-0.1,1.5000000000000002,10.5,-8.600000000000001
1698415592.715,16,-0.7000000000000001,-0.30000000000000004,0.5,-1.2000000000000002,9.1,-0.1,1.5000000000000002,10.5,-8.600000000000001
1698415592.731,16,-0.8,-0.4,0.7000000000000001,-1.3,9.1,0.1,-0.5,11.8,-8.799999999999999
1698415592.748,16,-0.9,-0.30000000000000004,0.5,-1.5,9.200000000000001,-0.1,-1.2000000000000002,11.1,-8.700000000000001
1698415592.765,16,-0.9,-0.30000000000000004,0.5,-1.5,9.1,-0.1,-1.9,9.700000000000001,-8.4
1698415592.781,16,-0.7000000000000001,-0.4,0.5,-1.3,9.1,-0.1,-2.7,6.1000000000000005,-8.1
1698415592.798,16,-0.6000000000000001,-0.4,0.4,-1.2000000000000002,9.1,-0.2,-3.5,3.3000000000000003,-6.8
1698415592.815,16,-0.6000000000000001,-0.30000000000000004,0.4,-1.2000000000000002,9.1,-0.2,-3.9,2.6,-6.1000000000000005
1698415592.832,16,-0.6000000000000001,-0.2,0.4,-1.2000000000000002,9.200000000000001,-0.2,-4.9,2.8,-4.7
1698415592.848,16,-0.8,0.1,0.30000000000000004,-1.5,9.5,-0.30000000000000004,-4.9,3.7000000000000006,-2.4000000000000004
1698415592.865,16,-0.8,0.1,0.2,-1.5,9.5,-0.30000000000000004,-4.1000000000000005,3.3000000000000003,-1.3
1698415592.881,16,-0.6000000000000001,0.0,0.0,-1.3,9.5,-0.5,-2.9,1.2000000000000002,1.0
1698415592.898,16,-0.6000000000000001,0.0,-0.1,-1.3,9.5,-0.6000000000000001,-2.7,-1.6,2.4000000000000004
1698415592.915,16,-0.7000000000000001,0.0,-0.1,-1.4000000000000001,9.5,-0.6000000000000001,-3.0000000000000004,-3.0000000000000004,2.7
1698415592.932,16,-0.9,0.0,-0.1,-1.6,9.4,-0.6000000000000001,-3.0000000000000004,-6.1000000000000005,3.4
1698415592.948,16,-1.0,-0.1,-0.1,-1.7000000000000002,9.4,-0.6000000000000001,-2.4000000000000004,-9.8,4.3999999999999995
1698415592.965,16,-0.9,-0.1,-0.2,-1.6,9.3,-0.7000000000000001,-2.0,-11.6,4.9
1698415592.982,16,-0.7000000000000001,-0.30000000000000004,-0.30000000000000004,-1.3,9.200000000000001,-0.8,-2.3000000000000003,-14.500000000000002,5.500000000000001
1698415592.998,16,-0.5,-0.2,-0.30000000000000004,-1.2000000000000002,9.3,-0.8,-3.5,-15.2,6.000000000000001
1698415593.015,16,-0.6000000000000001,-0.1,-0.30000000000000004,-1.2000000000000002,9.3,-0.7000000000000001,-3.9,-14.700000000000001,6.3
1698415593.032,16,-0.6000000000000001,-0.2,-0.2,-1.2000000000000002,9.3,-0.6000000000000001,-4.3999999999999995,-13.9,7.8
1698415593.048,16,-0.6000000000000001,-0.2,-0.1,-1.2000000000000002,9.3,-0.6000000000000001,-4.300000000000001,-13.4,8.600000000000001
1698415593.064,16,-0.6000000000000001,-0.2,-0.2,-1.2000000000000002,9.3,-0.6000000000000001,-4.1000000000000005,-13.0,8.5
1698415593.081,16,-0.8,0.0,-0.30000000000000004,-1.4000000000000001,9.4,-0.7000000000000001,-4.300000000000001,-12.5,8.0
1698415593.098,16,-0.9,0.1,-0.4,-1.5,9.600000000000001,-0.8,-3.8,-14.100000000000001,7.9
1698415593.114,16,-0.9,0.1,-0.5,-1.5,9.600000000000001,-0.9,-3.3000000000000003,-15.000000000000002,7.6
1698415593.131,16,-0.9,0.0,-0.7000000000000001,-1.5,9.5,-1.1,-2.0,-18.2,7.2
1698415593.148,16,-0.9,-0.1,-0.9,-1.4000000000000001,9.4,-1.3,-0.1,-23.8,8.3
1698415593.165,16,-1.0,0.0,-1.1,-1.5,9.5,-1.5,1.0,-27.2,9.1
1698415593.182,16,-0.9,0.30000000000000004,-1.0,-1.4000000000000001,9.8,-1.4000000000000001,1.4,-33.7,9.5
1698415593.198,16,-0.5,0.8,-0.9,-1.0,10.3,-1.3,2.4000000000000004,-36.3,8.3
1698415593.215,16,-0.2,1.0,-0.7000000000000001,-0.7000000000000001,10.5,-1.1,1.7,-35.9,7.2
1698415593.232,16,0.1,0.9,-0.2,-0.4,10.4,-0.6000000000000001,1.3,-30.000000000000004,4.9
1698415593.248,16,0.0,0.6000000000000001,-0.2,-0.5,10.100000000000001,-0.6000000000000001,2.1,-25.1,5.6
1698415593.264,16,0.0,0.5,-0.1,-0.5,10.0,-0.5,1.8,-25.700000000000003,6.3
1698415593.282,16,0.1,0.6000000000000001,-0.2,-0.30000000000000004,10.100000000000001,-0.6000000000000001,1.2000000000000002,-23.8,7.9
1698415593.298,16,-0.1,0.4,-0.2,-0.5,9.9,-0.6000000000000001,1.7,-21.3,7.8
1698415593.314,16,-0.4,0.2,-0.2,-0.8,9.700000000000001,-0.7000000000000001,2.9,-22.4,5.6
1698415593.331,16,-0.4,0.30000000000000004,-0.2,-0.8,9.8,-0.7000000000000001,2.1999999999999997,-23.5,4.300000000000001
1698415593.348,16,0.1,1.1,0.2,-0.30000000000000004,10.600000000000001,-0.2,-1.5000000000000002,-24.7,0.5
1698415593.365,16,0.4,1.3,0.30000000000000004,0.0,10.8,-0.1,-1.4,-24.1,-0.5
1698415593.381,16,0.4,0.7000000000000001,0.5,0.0,10.200000000000001,0.1,2.8,-22.8,-0.6000000000000001
1698415593.398,16,-0.1,-0.1,0.4,-0.5,9.5,0.0,4.2,-19.200000000000003,-1.0999999999999999
1698415593.414,16,-0.2,-0.5,0.7000000000000001,-0.6000000000000001,9.1,0.2,4.800000000000001,-17.400000000000002,-1.0
1698415593.431,16,-0.30000000000000004,-0.7000000000000001,0.6000000000000001,-0.7000000000000001,8.8,0.2,5.500000000000001,-16.1,-1.2000000000000002
1698415593.448,16,-0.4,-1.2000000000000002,0.7000000000000001,-0.8,8.3,0.2,6.5,-14.900000000000002,-2.0
1698415593.464,16,-0.4,-1.3,0.8,-0.9,8.200000000000001,0.30000000000000004,5.500000000000001,-14.800000000000002,-1.8
1698415593.481,16,-0.30000000000000004,-1.3,0.9,-0.7000000000000001,8.200000000000001,0.4,4.5,-15.6,-1.0999999999999999
1698415593.498,16,0.30000000000000004,-0.6000000000000001,1.1,-0.2,8.9,0.7000000000000001,2.9,-16.400000000000002,1.4
1698415593.514,16,0.8,-0.1,1.4000000000000001,0.4,9.4,0.9,3.8,-17.7,4.1000000000000005
1698415593.531,16,0.9,0.0,1.4000000000000001,0.5,9.5,0.9,5.300000000000001,-16.400000000000002,4.5
1698415593.548,16,0.6000000000000001,0.1,1.3,0.2,9.600000000000001,0.8,8.200000000000001,-13.200000000000001,4.1000000000000005
1698415593.564,16,0.4,0.30000000000000004,1.0,0.0,9.8,0.5,8.3,-9.600000000000001,4.3999999999999995
1698415593.581,16,0.4,0.4,1.0,0.0,9.9,0.5,8.0,-8.600000000000001,4.9
1698415593.599,16,0.6000000000000001,0.30000000000000004,0.9,0.2,9.8,0.4,7.2,-5.9,5.9
1698415593.614,16,0.8,0.1,0.8,0.5,9.600000000000001,0.30000000000000004,7.0,-3.2,7.6
1698415593.631,16,1.0,0.1,0.7000000000000001,0.7000000000000001,9.600000000000001,0.2,6.9,-1.0999999999999999,9.0
1698415593.648,16,0.8,0.2,0.8,0.6000000000000001,9.700000000000001,0.2,5.6,4.9,10.0
1698415593.664,16,0.5,0.30000000000000004,0.7000000000000001,0.30000000000000004,9.8,0.1,6.7,8.5,12.100000000000001
1698415593.681,16,0.4,0.2,0.6000000000000001,0.2,9.700000000000001,0.0,7.2,8.799999999999999,12.6
1698415593.698,16,0.4,-0.2,0.5,0.30000000000000004,9.3,-0.1,5.6,9.700000000000001,12.3
1698415593.714,16,0.5,-0.30000000000000004,0.6000000000000001,0.4,9.200000000000001,0.0,3.2,10.4,11.000000000000002
1698415593.731,16,0.4,-0.4,0.6000000000000001,0.30000000000000004,9.1,0.0,2.3000000000000003,10.3,10.3
1698415593.748,16,0.2,-0.4,0.5,0.2,9.1,-0.1,0.6000000000000001,9.600000000000001,9.3
1698415593.764,16,0.1,-0.30000000000000004,0.5,0.1,9.200000000000001,-0.1,-0.6000000000000001,8.200000000000001,8.200000000000001
1698415593.781,16,0.1,-0.30000000000000004,0.5,0.1,9.200000000000001,-0.1,-0.7,7.500000000000001,8.0
1698415593.798,16,0.2,-0.30000000000000004,0.30000000000000004,0.30000000000000004,9.1,-0.30000000000000004,-0.4,6.8,6.8
1698415593.814,16,0.30000000000000004,-0.30000000000000004,0.2,0.4,9.200000000000001,-0.4,-1.5000000000000002,7.400000000000001,5.6
1698415593.832,16,0.4,-0.1,0.1,0.4,9.3,-0.5,-2.1,7.500000000000001,4.9
1698415593.848,16,0.30000000000000004,-0.1,0.1,0.30000000000000004,9.4,-0.5,-3.2,7.9,3.6
1698415593.865,16,0.2,-0.1,0.1,0.30000000000000004,9.4,-0.4,-3.9,7.500000000000001,2.3000000000000003
1698415593.881,16,0.2,-0.1,0.1,0.30000000000000004,9.4,-0.4,-4.2,7.699999999999999,1.8
1698415593.898,16,0.30000000000000004,0.0,0.0,0.4,9.5,-0.6000000000000001,-4.7,8.5,0.2
1698415593.915,16,0.4,0.0,-0.1,0.5,9.5,-0.6000000000000001,-4.9,9.5,-0.9
1698415593.931,16,0.30000000000000004,0.0,-0.2,0.4,9.5,-0.7000000000000001,-4.2,11.3,-2.7
1698415593.948,16,0.30000000000000004,0.0,-0.4,0.4,9.5,-0.9,-3.8,12.3,-4.0
1698415593.964,16,0.2,0.1,-0.5,0.30000000000000004,9.600000000000001,-1.0,-3.9,13.0,-5.4
1698415593.982,16,0.2,0.1,-0.5,0.2,9.600000000000001,-1.0,-4.0,14.0,-7.0
1698415593.998,16,0.2,0.1,-0.5,0.2,9.600000000000001,-1.0,-3.8,14.700000000000001,-7.8
1698415594.014,16,0.1,0.0,-0.5,0.1,9.5,-1.0,-2.8,16.1,-9.1
1698415594.031,16,0.1,0.0,-0.6000000000000001,0.1,9.4,-1.0,-1.4,17.1,-9.5
1698415594.048,16,0.1,-0.1,-0.6000000000000001,0.1,9.4,-1.1,-0.7,17.599999999999998,-9.600000000000001
1698415594.065,16,0.2,-0.2,-0.6000000000000001,0.1,9.3,-1.1,0.4,19.9,-11.000000000000002
1698415594.081,16,0.2,-0.30000000000000004,-0.6000000000000001,0.1,9.200000000000001,-1.1,0.7,20.8,-12.000000000000002
1698415594.098,16,0.1,-0.30000000000000004,-0.6000000000000001,0.1,9.200000000000001,-1.1,1.0999999999999999,22.1,-12.6
1698415594.114,16,0.1,-0.30000000000000004,-0.6000000000000001,0.0,9.200000000000001,-1.2000000000000002,1.0999999999999999,23.5,-13.4
1698415594.131,16,0.1,-0.4,-0.7000000000000001,0.0,9.1,-1.3,0.9,24.8,-13.8
1698415594.148,16,0.0,-0.30000000000000004,-0.6000000000000001,-0.2,9.1,-1.2000000000000002,0.6000000000000001,26.0,-14.0
1698415594.164,16,0.1,-0.2,-0.8,-0.1,9.200000000000001,-1.4000000000000001,1.4,28.1,-13.700000000000001
1698415594.181,16,0.30000000000000004,-0.2,-1.0,0.0,9.200000000000001,-1.6,3.9,32.1,-13.8
1698415594.198,16,0.30000000000000004,-0.2,-1.2000000000000002,0.1,9.200000000000001,-1.8,5.300000000000001,35.3,-14.200000000000001
1698415594.215,16,0.30000000000000004,0.1,-1.4000000000000001,-0.1,9.5,-2.1,6.7,41.6,-14.3
1698415594.232,16,-0.6000000000000001,1.8,-0.8,-0.9,11.200000000000001,-1.5,-1.5000000000000002,41.2,-10.1
1698415594.249,16,-1.1,2.3000000000000003,-0.2,-1.5,11.700000000000001,-0.9,-1.4,32.300000000000004,-8.1
1698415594.265,16,-1.5,1.1,-0.2,-1.9000000000000001,10.600000000000001,-0.9,5.6,12.200000000000001,-7.1000000000000005
1698415594.281,16,-0.2,1.0,0.2,-0.6000000000000001,10.5,-0.5,-1.7,13.5,-10.700000000000001
1698415594.299,16,0.0,1.0,0.30000000000000004,-0.4,10.4,-0.4,-2.0,17.9,-15.5
1698415594.315,16,0.1,0.8,-0.30000000000000004,-0.4,10.200000000000001,-1.0,-1.5000000000000002,17.7,-17.400000000000002
1698415594.331,16,0.30000000000000004,0.8,-0.2,-0.2,10.3,-0.9,-1.6,19.0,-14.3
1698415594.348,16,0.2,0.5,-0.2,-0.30000000000000004,10.0,-0.9,-0.5,21.6,-9.8
1698415594.364,16,-0.1,0.2,-0.30000000000000004,-0.6000000000000001,9.700000000000001,-1.0,-0.2,23.3,-6.3
1698415594.382,16,-0.2,0.30000000000000004,0.4,-0.6000000000000001,9.600000000000001,-0.7000000000000001,-3.4,25.700000000000003,-2.9
1698415594.398,16,-0.30000000000000004,0.6000000000000001,0.7000000000000001,-0.8,10.100000000000001,0.0,-4.1000000000000005,27.3,-2.0
1698415594.415,16,-0.7000000000000001,0.7000000000000001,1.1,-1.3,10.200000000000001,0.4,-3.3000000000000003,27.400000000000002,-1.6
1698415594.431,16,-0.5,0.30000000000000004,1.1,-1.0,9.8,0.4,-1.7,24.3,-1.0
1698415594.448,16,-0.30000000000000004,0.1,1.1,-0.8,9.600000000000001,0.5,-1.2000000000000002,22.1,-0.9
1698415594.464,16,0.0,0.1,1.1,-0.6000000000000001,9.5,0.4,-0.30000000000000004,18.0,-1.8
1698415594.481,16,0.5,-0.6000000000000001,1.1,-0.1,8.8,0.4,0.1,15.9,-3.1
1698415594.498,16,0.2,-0.5,1.2000000000000002,-0.4,9.0,0.6000000000000001,-0.8,14.700000000000001,-5.1
1698415594.522,16,-0.4,-0.6000000000000001,1.4000000000000001,-1.0,8.9,0.8,-2.4000000000000004,13.4,-7.0
1698415594.532,16,-0.4,-0.6000000000000001,1.4000000000000001,-1.0,8.9,0.8,-2.4000000000000004,13.4,-7.0
1698415594.548,16,-0.8,-0.5,1.5,-1.5,9.0,0.8,-3.2,9.700000000000001,-7.9
1698415594.565,16,-0.9,-0.5,1.5,-1.5,9.0,0.9,-4.3999999999999995,5.0,-8.600000000000001
1698415594.581,16,-0.6000000000000001,-0.6000000000000001,1.4000000000000001,-1.3,8.8,0.9,-4.6000000000000005,0.8,-8.4
1698415594.598,16,-0.4,-0.8,1.5,-1.1,8.700000000000001,0.9,-4.3999999999999995,-1.0999999999999999,-8.0
1698415594.615,16,-0.2,-0.9,1.4000000000000001,-0.9,8.6,0.8,-2.9,-2.7,-6.8
1698415594.631,16,-0.4,-0.5,1.1,-1.2000000000000002,8.9,0.6000000000000001,-1.8,-4.2,-4.1000000000000005
1698415594.648,16,-0.7000000000000001,-0.30000000000000004,1.0,-1.5,9.200000000000001,0.5,-0.7,-5.8,-2.4000000000000004
1698415594.664,16,-1.1,0.2,0.7000000000000001,-1.9000000000000001,9.600000000000001,0.2,2.3000000000000003,-11.2,1.4
1698415594.681,16,-0.8,0.4,0.5,-1.6,9.8,0.0,6.000000000000001,-18.0,3.5
1698415594.698,16,-0.4,0.2,0.4,-1.2000000000000002,9.700000000000001,-0.1,8.600000000000001,-24.7,2.8
1698415594.714,16,-0.30000000000000004,0.2,0.4,-1.1,9.600000000000001,-0.1,9.1,-27.6,1.6
1698415594.731,16,-0.5,0.1,0.30000000000000004,-1.3,9.5,-0.30000000000000004,8.3,-32.0,-0.7
1698415594.748,16,-0.6000000000000001,0.1,0.5,-1.4000000000000001,9.5,-0.1,7.2,-35.6,-0.9
1698415594.765,16,-0.7000000000000001,-0.1,0.5,-1.5,9.3,0.0,7.2,-37.7,-0.7
1698415594.781,16,-0.7000000000000001,-0.30000000000000004,0.5,-1.5,9.1,-0.1,6.8,-42.2,-1.0
1698415594.798,16,-0.7000000000000001,-0.30000000000000004,0.5,-1.5,9.1,-0.1,6.8,-44.7,-0.9
1698415594.815,16,-0.7000000000000001,-0.2,0.4,-1.6,9.200000000000001,-0.2,7.500000000000001,-50.6,-0.1
1698415594.832,16,-0.7000000000000001,-0.1,0.4,-1.5,9.3,-0.2,7.8,-55.300000000000004,0.6000000000000001
1698415594.848,16,-0.6000000000000001,-0.1,0.4,-1.5,9.4,-0.2,7.8,-56.900000000000006,0.7
