timestamp,interval,accx,accy,accz,accGx,accGy,accGz,alpha,beta,gamma
1698744548.002,0.01666666753590107,-0.45158688932675867,-0.13322306005358694,-0.569873186609149,-1.0018235014433041,-6.928520913806557,-7.619097286114096,-19.394359714291642,51.38369754111351,-6.179202132671543
1698744548.176,0.01666666753590107,0.3382457202963531,-0.011409282764792441,-0.5849000753492116,1.772756984002888,-6.576873129492998,-7.726836360821127,-49.244362764755046,-27.87433155944949,-9.639188989771474
1698744548.192,0.01666666753590107,0.20945903525501489,-0.08461597327291966,-0.6368354297697544,1.6050132301881908,-6.558916617041826,-7.869141721996664,-43.23974538991091,-30.530487967282607,-8.91824800872464
1698744548.209,0.01666666753590107,0.18737112208753823,-0.170993110999465,-0.9099953683018683,1.5002669075563548,-6.539014815741777,-8.251316161999107,-42.106524799051996,-47.62060481789499,-1.5344575990520766
1698744548.224,0.01666666753590107,-0.17783033660836517,-0.04018237278461456,-1.4899100564539431,1.0354924372132868,-6.3256315927803515,-8.91899914997518,-39.76863983861584,-52.19125129725163,0.39950304727848196
1698744548.243,0.01666666753590107,0.20639774798825383,-0.0266781635671854,-0.5661743320912123,1.3199535950258374,-6.247969676429033,-8.064568432506919,-25.306387044747087,-50.37916454440681,-0.11037036081955831
1698744548.259,0.01666666753590107,0.042576136053353544,0.005374094253778458,-0.7171276946246623,1.022623603289947,-6.171205585700273,-8.270918688091635,-10.310725505004312,-50.33524642804363,1.3971071905981747
1698744548.275,0.01666666753590107,-0.18403335596695541,0.02694879720211029,-0.6877876183718442,0.6949173241212964,-6.136040748816728,-8.265082821545004,-4.327068273175648,-48.169690555461486,2.59704304155736
1698744548.291,0.01666666753590107,-0.14652137143537403,0.1433382113546133,-0.5375742605507373,0.6361095997132361,-6.014983927375078,-8.129211292809247,-1.4245072415056212,-44.34364397866295,2.985072918494954
1698744548.309,0.01666666753590107,-0.17537001090943813,0.21128069772422312,-0.507317069453001,0.48811808266006407,-5.948993744117021,-8.10871152561605,2.9394583538966703,-40.65486712870875,2.5010018306471067
1698744548.326,0.01666666753590107,-0.2151745998902246,0.15665186643600462,-0.6494768846780061,0.37155035279858856,-6.0152826180607075,-8.247724274986982,8.938928967757795,-34.12693773513116,-0.047595719663984286
1698744548.341,0.01666666753590107,-0.16596231375802306,0.16940028885006903,-0.47534722921848294,0.36242245896924286,-6.026954935675859,-8.057984377941489,15.473009800456628,-26.88147818622351,-1.9184332251087395
1698744548.359,0.01666666753590107,-0.11546122992429882,0.3356932593345642,-0.16606149981617926,0.35538956465777005,-5.905898698756098,-7.715314849853515,18.20196919465291,-19.800935262373113,-1.7203563517961946
1698744548.376,0.01666666753590107,-0.06134400142002851,0.338485520401597,0.022402385944128037,0.3809774853028357,-5.938968609187007,-7.498788652691244,18.246616433709992,-11.915315379732373,-1.525455836612823
1698744548.394,0.01666666753590107,-0.04506039061713964,0.35565585091114044,0.028539281263947485,0.3796307834016159,-5.95602671149373,-7.464970554241537,16.95037459528851,-8.236670261638238,-0.5858670532989542
1698744548.409,0.01666666753590107,0.06445994148347527,0.27778526024520395,-0.34642625027298923,0.47135863450635224,-6.084266137915849,-7.798212913292646,23.025464154441547,-3.7984718224587217,-0.730506180731759
1698744548.426,0.01666666753590107,0.07526833574566989,0.11432546736001968,-0.11382219401299953,0.4903625736512243,-6.2979486360847945,-7.521981896752119,28.45664787487539,10.043194679177727,-2.04217981772668
1698744548.442,0.01666666753590107,-0.023277561343461272,0.277689983177185,0.31261925773918625,0.43544560960400847,-6.208315711432695,-7.028477664074301,27.210975049521387,16.886298883137325,-1.5942293315307987
1698744548.459,0.01666666753590107,-0.12167787594944238,0.3172013248324394,0.2706950097233057,0.3679590503083542,-6.216546364161371,-7.0259338248103855,23.222793442205095,13.470563114122616,-0.20237076778380866
1698744548.476,0.01666666753590107,-0.13304496354032308,0.1938186907917261,0.3183306211233139,0.3778351321564987,-6.381446418982744,-6.939443289837241,21.125290159418366,8.691754666978788,-0.25586811773622775
1698744548.493,0.01666666753590107,-0.12044153908751905,0.1753016218483448,0.523654456269741,0.40596700166333466,-6.456564496070146,-6.681318423351645,24.067119229287268,2.746311703226111,-1.3944162027868954
1698744548.509,0.01666666753590107,-0.0248493407048285,0.17208032171428203,0.5558335553407668,0.5051767329560592,-6.50504707968831,-6.606947949761152,24.085214107945923,-0.9061202160505716,-0.9739288400265772
1698744548.528,0.01666666753590107,-0.025144268530793486,0.13753975420892237,0.42619478351473805,0.5038299945222213,-6.583757043787837,-6.695234135979414,23.62686231086117,-0.8072911140201895,-0.6070776721578999
1698744548.542,0.01666666753590107,0.05173785908706486,0.16707330720722674,0.4021078054845333,0.5822400988923385,-6.61368456453979,-6.662613138359784,24.38814153537245,1.4634544742569149,-0.5054099861971427
1698744548.559,0.01666666753590107,0.06835519535634667,0.13900398154258728,0.48345513235032556,0.6046857394563033,-6.685510029822588,-6.538564149364829,22.611016813341635,4.201874747670723,-0.28195994729377893
1698744548.576,0.01666666753590107,0.019230404844507575,0.13182313012778757,0.6197673905909061,0.5644332240449265,-6.7286056597054005,-6.366480320519209,16.36567112874769,5.271180135823946,0.2880473533915528
1698744548.592,0.01666666753590107,-0.1065736111242324,0.18800912773013115,0.5786795933991671,0.45340204898994413,-6.7021198038399215,-6.377104590386152,8.708329828547116,7.225782627682488,0.09166623462302219
1698744548.609,0.01666666753590107,-0.08119074806459248,0.18769933112859724,0.5747837550044059,0.4930560870515182,-6.71603610098958,-6.366330682915449,6.612456399651085,8.698011120258519,-0.003640304064631679
1698744548.626,0.01666666753590107,0.0285832665361464,0.11916355504095553,0.5304150364458561,0.620248013714701,-6.7954936685860154,-6.398353714641928,5.478011924270272,10.337541681459427,0.1428144797486329
1698744548.643,0.01666666753590107,-0.06534406737424432,0.15671967097520828,0.4893330844730138,0.5512650053162127,-6.772299840003251,-6.422893112614751,6.641580753158842,9.649536726364044,-0.624763913405119
1698744548.66,0.01666666753590107,-0.09667904377132654,0.18097089965641497,0.5013794960975647,0.5366006662782281,-6.76003014101684,-6.39730566689372,6.760280476310378,6.99218033967112,-0.8979587803226411
1698744548.677,0.01666666753590107,-0.13476232538484037,0.19614333434700965,0.4002811745792627,0.5134067646302283,-6.761675570136308,-6.480055261772871,7.559986345092151,3.9246774966212787,-0.6578614092974141
1698744548.692,0.01666666753590107,-0.02071629602070898,0.3021732670485973,0.29259119971096514,0.591517630325444,-6.820183288684487,-6.420649133080244,7.549426872635311,1.2436778765078278,-0.4850556489445345
1698744548.709,0.01666666753590107,-0.05281812860444188,0.31689561988413334,0.24874738180935382,0.5758056453980505,-6.816143073382973,-6.451624117058516,5.847619500355873,-1.6128270828670972,-0.47301621323277054
1698744548.726,0.01666666753590107,-0.02018083743713796,0.3587228372663259,0.1931219406992197,0.5807437228547409,-6.770055275946855,-6.514322857555746,2.7195473935200045,-6.604943618450894,0.24016345844153214
1698744548.748,0.01666666753590107,0.0726996177688241,0.30811843918859955,0.13749357697963713,0.6462849567689001,-6.8131509058296675,-6.580313040813803,0.5934640379250067,-4.052922409137907,0.380941688043855
1698744548.759,0.01666666753590107,0.10328684453852474,0.30595863080620767,0.17969605741500855,0.6660371935304253,-6.806417213660478,-6.548439646691084,-1.4691707022619809,-1.5962304702359067,0.5311791159968373
1698744548.776,0.01666666753590107,0.030102585057914254,0.38025428559482094,0.14510872815847395,0.6007951617585495,-6.727258921271562,-6.587495645794272,-5.107420374057367,0.7257178979584628,0.6283018446734798
1698744548.792,0.01666666753590107,-0.03163516492005437,0.31888942404985426,0.12554185790121555,0.5433343949800357,-6.778734841486811,-6.617123891338705,-5.149595938408549,0.8902686810082943,0.6369688211216971
1698744548.809,0.01666666753590107,-0.011893486085161565,0.3118079413563013,0.09399930316805839,0.5641339123047888,-6.7755924518078565,-6.659321695598959,-1.55231854373166,-1.5954828846869076,0.8576289678729487
1698744548.826,0.01666666753590107,-0.05165255542378872,0.2620774035036564,-0.1356686996400356,0.5309144008027389,-6.817341343256831,-6.896796572765708,3.3883859840306867,-4.677178647388624,0.6847893233784835
1698744548.842,0.01666666753590107,-0.09859824833087623,0.17976210838854312,-0.2304536002278328,0.49006333497632293,-6.899641440802812,-6.99106826313436,4.886094924192274,-7.7882179699817735,0.7919516297222515
1698744548.859,0.01666666753590107,-0.08145597487203776,0.21648469610810278,-0.08551905959248542,0.49604887565933165,-6.861183992114663,-6.8489125395625825,2.9351796672684807,-6.841075210889282,1.2255299571613982
1698744548.876,0.01666666753590107,-0.08283047809563576,0.188816936981678,-0.019650456887483597,0.4701615336762741,-6.8694146448433395,-6.80536799686849,-6.0466213306924255,-8.3287779239168,2.805165522313407
1698744548.892,0.01666666753590107,-0.0226964735198766,0.1289075349420309,0.14385083705186844,0.5163994801728055,-6.90068890402913,-6.672638857811689,-4.4235289003896225,-9.782223396275295,1.6036426128675456
1698744548.909,0.01666666753590107,-0.07560293799489737,0.09473463170528411,-0.06746785459518433,0.4399347377168014,-6.9177475908577435,-6.903380042809248,0.6584058500794582,-14.43000576324983,1.2395830713786995
1698744548.926,0.01666666753590107,-0.10017053914889693,0.04570668916404247,-0.1857493661046028,0.37409419206250455,-6.947226198798417,-7.044638525280356,8.266716263797125,-13.22879149297709,0.697010666237752
1698744548.942,0.01666666753590107,0.0079451137855649,0.11811550729274749,0.392141707265377,0.47255569880381226,-6.886025003382564,-6.455963607567548,10.131661850628673,-6.1012952874510855,0.4551142340573142
1698744548.959,0.01666666753590107,-0.04376140031516552,0.13652853133976459,0.35141339103579516,0.41285033143628386,-6.878243263465166,-6.486340041130781,6.7021397716611135,-3.674267820609802,1.1470691195662288
1698744548.976,0.01666666753590107,-0.06295563786774873,0.08903495875895023,0.04944529117047786,0.38112712290659545,-6.936153016120195,-6.778432643669843,5.608346874672925,-8.901490139596016,0.8248946993062808
1698744548.992,0.01666666753590107,-0.06054083181098103,0.062028878411650654,-0.05449614481925964,0.36406843607798217,-6.9542591661751265,-6.892756357464194,8.006708037567664,-6.362595273207324,-0.4630385875158513
1698744549.009,0.01666666753590107,-0.12197064835093915,0.08783610436320305,0.20420856738090515,0.300322816876322,-6.931963163214921,-6.6305901066333055,4.930261488686515,5.458300852099262,-2.242579275522147
1698744549.025,0.01666666753590107,-0.15067005208004264,0.209369311144948,0.4805453823834657,0.2992753901826218,-6.817340758734941,-6.345381418389081,-7.006596734574901,16.822569803086523,-2.240626481749758
1698744549.042,0.01666666753590107,-0.33222795784417536,0.36662615773677826,1.1237819113671779,0.18270769685376434,-6.621615357539057,-5.736955506023764,-27.312183085095345,29.0933307885473,0.21050064056725434
1698744549.059,0.01666666753590107,-0.5702195888940245,-0.009555179330706596,1.0668167460858822,-0.026934586013667283,-6.942737070685625,-5.847388057598471,-32.37458440167269,7.041288119143043,6.212681158662007
1698744549.076,0.01666666753590107,0.12221348066348582,0.3878115691065788,1.448971896865964,0.642544016674906,-6.468385866767168,-5.543323862236738,-33.32930482876249,-3.2535714967495637,8.376743781136861
1698744549.092,0.01666666753590107,-0.397899284411408,-0.07077332588136195,2.457552142560482,0.09801281312573701,-6.866571530371904,-4.595220004814863,-33.130163833321596,-11.969116779824564,4.628742787776302
1698744549.109,0.01666666753590107,-0.7486864698402583,0.23540917680859563,2.561239311528206,-0.28730405308827756,-6.501605414801836,-4.5500300330013035,-30.360826068299488,-24.317281737828154,-5.528331208546225
1698744549.126,0.01666666753590107,-1.3502683615297078,1.6447703632980584,3.1558710918188093,-0.908000723885931,-5.016452197486162,-4.027644573754072,-29.52307263074616,-15.642932954175498,-26.210260128560726
1698744549.142,0.01666666753590107,-1.1233953962676226,2.6879262478113173,4.220593495973945,-0.6343136562071741,-3.908086466437578,-3.0198353124320505,-37.191558238351256,6.88576983438373,-37.2373307510741
1698744549.159,0.01666666753590107,-1.0196467794362456,3.0229554902791973,4.419873959302902,-0.42841224036850034,-3.480871107703447,-2.895935961040854,-55.40956471717536,25.850249395145816,-44.029031805113824
1698744549.176,0.01666666753590107,-0.640401159427315,2.976274987646937,3.8661628029435873,0.13931282829605043,-3.3366204576790333,-3.597735738152265,-83.54879321075275,34.54515363310563,-49.91724568102802
1698744549.193,0.01666666753590107,0.17600122148506342,2.0191537110328674,3.346792307603359,1.0992380564149469,-4.1030642641365525,-4.25823670566976,-98.65975346632722,27.12368864702321,-49.94076202234038
1698744549.209,0.01666666753590107,0.4627773051764816,1.2575403934717178,3.323041429659724,1.4960770546510815,-4.641610000067949,-4.442440595898032,-111.08329383069012,6.569944021596456,-43.42659887503495
1698744549.226,0.01666666753590107,1.045350471948087,0.24180501532554624,2.950525044840574,2.0919339928224683,-5.314979216986894,-5.061790637859702,-129.07268021761556,-63.66129725348077,-35.18615322633298
1698744549.242,0.01666666753590107,0.9752725809849798,0.09611877954006194,2.352382041558623,1.881393957397714,-5.165341613227128,-5.8735746382564304,-140.49902662353495,-112.71339360819454,-35.27656102528186
1698744549.258,0.01666666753590107,0.5232911759153008,0.9117045103073119,2.361736729881167,1.2021888008669017,-4.039917195349932,-6.075735040935873,-132.63036183173512,-131.11080866594736,-38.34293688711865
1698744549.276,0.01666666753590107,-0.5708128055468201,2.7752450503021477,1.1695651728987693,-0.12180479026474057,-1.8013386431038378,-7.492054960522055,-116.75155170966782,-72.14000039100029,-43.54786205355935
1698744549.293,0.01666666753590107,-1.6508356546863912,3.1958737241223454,-1.8597738809376954,-1.2829925589079036,-1.147721297620237,-10.644320721325277,-70.92964988893901,-29.24882687519181,-24.227046401155825
1698744549.309,0.01666666753590107,-2.8243606711268425,1.846958238506317,-0.23364976592063902,-2.5359080690579487,-2.39674696072489,-9.069833854565024,-18.153635360991316,-78.50883077314619,7.671406367248923
1698744549.326,0.01666666753590107,-0.9768636495687066,0.6570411824524403,-3.5047885743856426,-1.08158042644565,-3.5778362749397754,-12.349291578564047,-18.661181595573087,-100.8924671739235,7.7514391088485475
1698744549.343,0.01666666753590107,1.7642440072014927,1.4510223996549845,-6.889152195492386,1.5203182368623092,-2.645743641120195,-15.79574486835897,-92.04822597240324,-33.93556607987116,-13.524501117998208
1698744549.359,0.01666666753590107,-0.04258271192461252,0.34508155766576526,-5.943972701084613,-0.32980115082236006,-3.518280216382444,-14.952986468505859,-102.6536314514113,-20.834127732837185,5.822300415989459
1698744549.376,0.01666666753590107,-0.8460882749281823,-1.6487404359728097,-5.2678597384154795,-1.2611456148894502,-5.215769193433225,-14.393341830444335,-79.75852316482674,-49.50904625547138,15.145573946740802
1698744549.392,0.01666666753590107,-1.1733872154049574,-1.1537521022170782,-5.961309620332718,-1.7259200121672822,-4.568437211829424,-15.137639271545408,-41.6565655969099,-46.12472167267591,26.553470304164698
1698744549.409,0.01666666753590107,-1.2097585785340517,-1.490471781989932,-6.403847635883093,-1.8887256885252892,-4.857237494824826,-15.589395197296142,3.6718089525085973,-40.950467470703146,18.75067585672047
1698744549.426,0.01666666753590107,-0.5686743322134018,-2.41619868016988,-7.336190445071458,-1.3518261123657225,-5.861156178449094,-16.4843777053833,42.48819235477772,-14.043719292097883,0.0791517272379721
1698744549.442,0.01666666753590107,-0.5303660827375948,-2.769956880766153,-7.420548644191026,-1.3180079408507794,-6.339547597669065,-16.520440367889403,62.1252560110366,8.387614027200936,0.968250818392181
1698744549.459,0.01666666753590107,-0.09165266697667539,-2.6402809918001293,-7.302048521494865,-0.8535328187804668,-6.380548301099241,-16.335338652038573,83.463914449937,15.040735665622984,6.22160778902039
1698744549.476,0.01666666753590107,0.7511053675502538,-2.673526843319833,-7.187534253564476,0.03531469368301332,-6.7182806650459765,-16.092476236614583,110.81490837744364,21.77518265894508,2.179814959691607
1698744549.492,0.01666666753590107,1.8428050643496214,-2.762342314109206,-6.739485950160026,1.1982980770386755,-7.075465625220537,-15.523105154308675,119.58791070592068,39.0176468789946,-6.5678347738033915
1698744549.51,0.01666666753590107,2.4033419750757514,-2.2538065165162084,-6.584799246317147,1.874660046032816,-6.843078134320676,-15.235202404674887,122.1751180616298,52.08236442150329,-9.634990130979208
1698744549.526,0.01666666753590107,4.330742262171208,-0.8797714949518441,-6.170754334801435,3.967042769003473,-5.846193294855952,-14.618994752392172,132.149065721681,52.847506117990214,6.650455730211627
1698744549.542,0.01666666753590107,5.236714658567309,0.8020423585832118,-5.959640810337662,4.965723953833058,-4.465187265235185,-14.227242921227216,145.65147544658245,53.71303793489798,27.121923043122763
1698744549.559,0.01666666753590107,5.397985416975617,1.832926206022501,-5.681805865731835,5.19377149756616,-3.7608430643379687,-13.734037379235028,162.7867671683653,58.29701011332532,46.38759174816761
1698744549.576,0.01666666753590107,4.714467731007933,3.2390520638525486,-4.952120887351036,4.571129766248492,-2.8239626117199657,-12.658592505535482,178.98323572835156,69.67772402539985,63.489354071314864
1698744549.593,0.01666666753590107,3.516448032519221,3.91649422929883,-3.6506624416977167,3.4127848472152835,-2.4983500168949364,-11.067495280236004,179.08515581114648,82.32780810415376,71.94989573583132
1698744549.611,0.01666666753590107,3.08123232268095,4.53957293639481,-2.900560113710165,3.006967789116385,-2.2158353900402785,-10.008959455761312,182.79337479457314,79.80192901700217,76.69519015226518
1698744549.626,0.01666666753590107,2.3487299487918616,5.009131060817837,-1.5144026926755905,2.235885212375736,-2.1947359033882616,-8.167368881767988,192.83916238431453,54.24049587845764,90.39604419331219
1698744549.642,0.01666666753590107,1.6393845786064862,4.986982941895723,-0.4704056811630726,1.4122797956162132,-2.5432418825447556,-6.74850512291789,198.33250594883737,26.63236411172022,100.51190269374874
1698744549.659,0.01666666753590107,1.2734164463870226,5.124323958662152,0.010659341180324553,0.8491934013366699,-2.7133798380196095,-5.868187099999189,200.97461436509505,-8.810676798165172,112.4487784193699
1698744549.675,0.01666666753590107,0.7307032885778695,5.239845357808471,0.36838966027796266,-0.11731580828242003,-2.9812311487495897,-4.91035562928915,228.8581103308634,-82.75471541784707,130.6760807856544
1698744549.692,0.01666666753590107,0.23827874089553952,5.256189174365997,-0.025943419551849364,-1.0483610519409179,-3.2616520181953903,-4.712236610954999,287.3531071376599,-145.17097163847205,132.01624586308094
1698744549.712,0.01666666753590107,-1.0537139572761953,4.928845225703716,0.2852317768588662,-2.95609086227417,-3.9950259142220017,-3.308635010905564,357.95669062581163,-201.3601922041206,102.9002149408271
1698744549.725,0.01666666753590107,-1.2672022480472922,4.441621680730581,0.11021452490985392,-3.548057368878275,-4.733338435694575,-2.4952055813893677,374.35570161544547,-234.00640639889554,67.75428811361091
1698744549.742,0.01666666753590107,-2.5408403743609784,3.362694810134172,1.40755735193789,-5.074510418701172,-5.984158581000566,-0.1375156426809728,371.1806198778733,-256.01925915038953,31.707032448046906
1698744549.759,0.01666666753590107,-2.750285088829696,3.295370163401961,1.237676001572609,-5.386505114801228,-6.138135675269365,0.7583652755506336,350.5207183179321,-266.3675421580925,-3.243144786094716
1698744549.776,0.01666666753590107,-3.1649659601613878,3.540036997899413,1.571332786643505,-5.709273426111042,-5.892282845857739,2.4247299232803283,313.6066877410314,-254.80162766667303,-40.27498908254557
1698744549.792,0.01666666753590107,-3.0514120616957543,2.8093209229052065,2.0648225524045527,-5.386056055859476,-6.55592503401041,3.8003481223829088,277.24131259977946,-238.01591868698978,-61.02168185627013
1698744549.81,0.01666666753590107,-2.741327583131194,2.7934622595161196,2.177935867495835,-4.6769234516419464,-6.427685607588291,4.8971930731162425,229.32067806221335,-214.05892089014333,-74.81603435686543
1698744549.826,0.01666666753590107,-2.5808786624997855,2.718408479836583,1.9047347201704978,-4.170998421069235,-6.369475410681963,5.229237746815383,198.95279640850123,-200.34948813149882,-76.83471042644103
1698744549.843,0.01666666753590107,-1.980671712425351,2.747165203243494,1.7387293344557284,-3.212719206591695,-6.196494340735674,5.568017281727492,174.31887222339316,-182.1532358051812,-76.72796139990291
1698744549.86,0.01666666753590107,-1.5255183993212877,2.970284807321429,1.5711118373692035,-2.288707149505615,-5.7822992070943116,5.927747542470693,133.69121315324315,-145.25506492753325,-78.19212173152187
1698744549.876,0.01666666753590107,-1.4338044306114315,2.9512293937176466,1.4194313296049832,-1.8686740669583901,-5.679644888305663,6.055086512921751,96.29327733402539,-111.56277994061419,-79.31904147287143
1698744549.892,0.01666666753590107,-0.6998883905321359,2.876594716233015,1.2856956438541411,-0.8453025770437438,-5.665430484992266,6.100577513508498,58.67268417805436,-80.3441709050203,-73.86695225093548
1698744549.909,0.01666666753590107,0.1655979739576578,2.901701684960723,0.9303618645042181,0.309151709492784,-5.576845023566484,5.856219598829746,21.427432115090344,-14.184796849404496,-61.70765824518202
1698744549.926,0.01666666753590107,0.7439853064119816,2.6144015773952005,1.5100328070282936,0.9784806928439065,-5.8460430727303025,6.463449579408764,4.076106205615046,58.49124703294215,-42.95951638864362
1698744549.942,0.01666666753590107,2.0263895075052973,2.2200924629628656,2.628379249343276,2.1902459532915612,-6.240937878096103,7.58363609663248,-7.31317745943374,156.69024959823864,-19.28562481025233
1698744549.959,0.01666666753590107,3.5903275077223777,2.6507500711053607,3.305967545261979,3.4281976300003936,-5.845445106837153,8.200741866798698,-35.54540751629731,223.257437173723,6.359043574838918
1698744549.977,0.01666666753590107,3.3446877365395427,2.7982652758836744,2.5764433104008435,2.8757357247835023,-5.754615665876865,7.351250359298288,-56.18983528267386,189.5620649412991,29.217578759739
1698744549.994,0.01666666753590107,0.9444383206516503,3.399675172007084,0.21974048303365706,0.21009141487441957,-5.229386507636308,4.820878187459707,-79.78181410989649,93.2083131123624,48.92520510031328
1698744550.009,0.01666666753590107,0.694205668720603,2.9687814170211553,-0.2611135269075632,-0.25243849141225216,-5.760301894819736,4.106657320192456,-38.62963749262452,46.484471151355066,18.569187485189477
1698744550.027,0.01666666753590107,1.2703408383339643,1.114723575642705,0.8934846707448363,0.26859986407496034,-7.621192797088622,5.235223250965774,17.566474733896584,35.478177964296876,-7.706706492426841
1698744550.042,0.01666666753590107,0.27519670505672694,0.9857289469391107,0.43829497115314003,-0.7465417128965258,-7.725639259991049,4.824468320906162,24.870069437924798,40.81268547967107,-7.369929501247376
1698744550.059,0.01666666753590107,-0.17889328966476023,-0.22140870850682257,-0.2716962957203388,-1.2777553523741663,-8.898799827033281,4.162920474684238,23.0639454402254,57.19134933576741,5.3761486174228175
1698744550.076,0.01666666753590107,-0.3182052411779761,-0.9734896430909633,-0.7146683187738061,-1.4932334287229925,-9.613018940734863,3.7740123425126075,40.90206533514986,42.57657158754311,6.8626598893269914
1698744550.092,0.01666666753590107,-0.8345148876428604,-2.040139800438285,-1.3687088581055402,-2.047641042913869,-10.614096847975253,3.2341210371911524,67.34293314065772,3.8437862856203484,1.013584491460848
1698744550.109,0.01666666753590107,-1.5359242041319607,-2.2109932107061145,-1.4415671735674143,-2.7084405549865216,-10.652553127619624,3.409794414961338,93.37988063412395,-34.268046028289035,-7.346659900518789
1698744550.126,0.01666666753590107,-1.5578702246107161,-2.0074895767241716,-0.7540151175171136,-2.655618334728852,-10.326939948272704,4.320638509047031,98.24246305898528,-37.2874404339199,-18.531901482510378
1698744550.144,0.01666666753590107,-1.2530009964764117,-1.9613667079746722,1.030522028389573,-2.220921168871969,-10.134358690321445,6.363043916329741,65.1540692475329,-23.938144767189918,-29.736553608349492
1698744550.159,0.01666666753590107,-0.39551585987359283,-1.8998551314353942,2.6079279974669216,-1.2716202106200158,-10.018538600489496,8.038385943502186,24.160605736004523,-18.148560530437997,-28.71802896912802
1698744550.175,0.01666666753590107,-0.19222499185949563,-1.555506271958351,2.4111603937417265,-0.9871589797422289,-9.661052611541747,7.873633772718906,6.957183731024444,-16.60436916476671,-25.335657820435177
1698744550.192,0.01666666753590107,0.21820523629039526,-1.1095195772588253,1.041210595664382,-0.4745007684569806,-9.204510036036371,6.533181871804595,12.297430312848736,-28.19808594120268,-17.626964596733508
1698744550.209,0.01666666753590107,0.6408494146514684,-0.9212509218096733,0.5865718079537153,0.028581074579060076,-8.99546396549642,6.118534318220615,20.92601597528866,-41.05608951602822,-12.260447399814057
1698744550.228,0.01666666753590107,0.4337587524956092,-0.9152385296523571,0.8583189570784568,-0.08873473370335995,-8.953415798839925,6.451627039667963,31.55004396506875,-49.35856694277224,-11.261531379926044
1698744550.242,0.01666666753590107,0.21223047272972762,-1.2587450930863617,1.274884326982498,-0.16894070851430296,-9.223514596235752,6.98344083699584,45.36631795780521,-59.71442463026471,-14.174815381706168
1698744550.259,0.01666666753590107,-0.44607861076667904,-1.7103005278289316,1.051165587967634,-0.7013511930936948,-9.600150691333413,6.869715089094639,58.052489341038864,-60.96068826698191,-21.706110663416034
1698744550.276,0.01666666753590107,-0.8700761764980852,-1.6626473807722328,0.8207190020024776,-0.9855129661008715,-9.456649982893467,6.7714043524682515,68.95573204899449,-57.42790269238705,-26.294320974223364
1698744550.293,0.01666666753590107,-1.3904485423572361,-1.2990519690334796,0.3085977471381426,-1.3168105888589516,-8.932764640477298,6.464195429340005,83.47258195999375,-54.7675166899104,-28.93633547537997
1698744550.309,0.01666666753590107,-1.471215292856097,-0.8593412858635187,-0.08346738775968551,-1.241842199607659,-8.348881633216141,6.2430333890706295,92.42469916926518,-61.041926536970045,-35.64535025932752
1698744550.326,0.01666666753590107,-1.393004802711308,-0.9040010963231324,-0.3057657385826111,-0.9841661911344155,-8.232462992969154,6.19784224821329,94.1174112908911,-67.66843263574384,-36.49794911304188
1698744550.343,0.01666666753590107,-1.2486597524017096,-0.7221703649669885,-0.6664999156713486,-0.5904697652403265,-7.838765288433432,6.048503335139155,83.25261571777348,-62.86469912077135,-42.27282282986888
1698744550.359,0.01666666753590107,-1.0936051650945096,-0.46131227412521836,-1.033757941570878,-0.2495952308103442,-7.429505857628583,5.814768229022622,75.11085947238904,-56.89408584271012,-44.6987728343686
1698744550.376,0.01666666753590107,-1.0690357373096049,-0.2849854008823633,-1.2213555658906698,-0.04668664011210203,-7.114669508361816,5.741446387702227,66.33733121934591,-51.85512061272238,-44.44320423109964
1698744550.392,0.01666666753590107,-0.7934853965096175,0.4268874419540167,-1.2609183454722166,0.4373910080507397,-6.242431916046142,5.822551137983798,52.03052670079748,-38.4562394801654,-37.47860035331563
1698744550.409,0.01666666753590107,-0.28612112691402436,0.7983499338060617,-1.3683371021836994,1.0639236549928783,-5.771971289825439,5.785590065333247,43.42130547842819,-26.425796993104232,-32.914346931022116
1698744550.426,0.01666666753590107,-0.1266999418951571,0.9975929877340793,-1.639603189793229,1.3108262857183812,-5.485716891920566,5.576399033364654,39.399597887570884,-12.274936792364592,-28.68598513663691
1698744550.443,0.01666666753590107,-0.09057853493914007,1.3794132074713705,-2.14690097002387,1.4040497822083533,-4.996249367412925,5.1529216921150685,37.508905902662974,8.468800216996646,-20.445566808691623
1698744550.461,0.01666666753590107,0.32216961476430295,1.4186346262693403,-1.9576362892746924,1.8115131233766675,-4.888360655102133,5.402667437312006,26.114343782046237,23.674567767119125,-11.815592910302895
1698744550.476,0.01666666753590107,0.577925414030999,1.4034855724543331,-1.5561211889863014,2.0269911266602576,-4.874892686241865,5.836616488215327,-0.3636802258660725,28.639415199328468,-2.574717714481527
1698744550.492,0.01666666753590107,1.0069077824376522,1.349952719709277,-0.9101029203295707,2.3675667512089014,-4.981436998206377,6.454173217019439,-37.875010872364825,32.49198510822145,13.65448388677178
1698744550.509,0.01666666753590107,1.0490468422479926,1.7029098330557346,-0.6060328797489404,2.3062150414064524,-4.73064262073934,6.687755762922763,-60.169089832744945,38.99551023589459,28.241534482060423
1698744550.526,0.01666666753590107,1.1270403286412358,1.711211797454953,-0.5873375316292048,2.2468092780400064,-4.859631988745927,6.605754940584301,-71.46411902168167,45.6021063332378,38.769198747935384
1698744550.542,0.01666666753590107,1.2065188659604638,1.4502186820566654,-0.5829477722376585,2.094029284601286,-5.313035097181797,6.462702560433745,-69.98264416051674,64.51883433396503,43.980530631817565
1698744550.559,0.01666666753590107,0.9157654030706733,1.1303080982655287,-0.45583062784373757,1.5949875107362865,-5.765387235260009,6.483798539954424,-64.89896168203293,77.18350086659692,42.61501189219194
1698744550.576,0.01666666753590107,0.7582998090989888,0.8813064494341611,-0.4626490756869316,1.219546909033507,-6.129606331855058,6.378754111158847,-55.93154484902065,84.44505063364181,36.795994662759135
1698744550.592,0.01666666753590107,-0.3035221791732125,0.5060632699996233,0.005431961920857429,-0.11477169502386822,-6.635231210437417,6.723819009950756,-55.2449230072322,77.89255646471427,24.77295268566368
1698744550.609,0.01666666753590107,-1.094511539349705,0.3387140684604645,0.7995107942789793,-1.0652697837886516,-6.908468890380859,7.4061658985733985,-65.67868241730324,64.63898419165473,12.300892364984286
1698744550.626,0.01666666753590107,-1.201669307037443,0.16469138050675391,1.1092530352771282,-1.2837407469267026,-7.1978680160522455,7.586627679663896,-66.62296290024668,53.07813087041028,-1.30601028959507
1698744550.644,0.01666666753590107,-1.5271889628820121,-0.05546586663424968,0.4369704445511102,-1.6808788742398841,-7.547570511516928,6.762724786928295,-46.97435622429048,27.821303678280803,-11.95786575071426
1698744550.659,0.01666666753590107,-1.2862848419189452,-0.9558283141940832,-0.09467091881930828,-1.4453494320524856,-8.511985452270507,6.15429712099731,-31.02954256917876,15.524837275878685,-17.462993952876307
1698744550.676,0.01666666753590107,-1.0187960808910428,-1.330137427648902,0.1486672974228859,-1.1575962834898381,-8.926182923999429,6.349574778425693,-17.038082761967935,10.162145838668085,-24.368434732069673
1698744550.692,0.01666666753590107,-0.43490065253973004,-1.8189239841550588,0.5006535199105739,-0.5093661885691108,-9.43659679042399,6.6760846143513914,-2.8950153801844554,1.971447445899086,-33.522547955855075
1698744550.748,0.01666666753590107,0.07156968215713277,-1.558406085053086,0.33286125077903267,0.3200751267030835,-9.160065329632163,6.5234519204288715,5.778083051963265,-30.48761828495702,-33.85752433841459
1698744550.759,0.01666666753590107,0.02873542489055544,-1.8882786754101513,0.08133446738421916,0.3592802154207602,-9.478646126124262,6.2819391660481685,11.725407092502046,-39.58172829688386,-31.81788300318163
1698744550.774,0.01666666753590107,-0.2579966735286638,-1.0227461336910724,0.5912421378523111,0.1930327645784244,-8.590544025200606,6.8118035828739405,11.806126268113257,-35.49260332382394,-28.6096611877566
1698744550.792,0.01666666753590107,-0.8348637741457671,0.3408855672806501,0.5696802943855523,-0.24241258929725734,-7.202206922039389,6.808363087031245,4.9168935278203305,-39.04342742801681,-16.257899281381352
1698744550.809,0.01666666753590107,-0.22704138063155113,-0.5231202032625675,0.5392617752462625,0.46193164813257753,-8.060081642481684,6.775445152291655,0.873253452486176,-30.71501235789967,-25.8159737983434
1698744550.826,0.01666666753590107,-0.6553516219303012,-0.3291349237322807,0.7518202378213406,0.13362674548365175,-7.859566084399819,6.984038802888989,1.2990903474704951,-26.70510221128627,-29.271417725871625
1698744550.842,0.01666666753590107,-0.5396529665209353,0.25774843438863754,0.3195364897817373,0.3802296626102179,-7.263411040064692,6.5450020734578365,-0.08310862124280445,-27.17486213183224,-26.03931756910823
1698744550.859,0.01666666753590107,-0.14589980547092854,0.2554530169278383,0.14017360984385013,0.8601172386720776,-7.263258479851483,6.355259253802895,-3.1238252232760013,-25.67972347723269,-19.474208040783676
1698744550.877,0.01666666753590107,0.019271394442021847,0.4122527674019337,0.12745090639293194,1.0986397251956164,-7.11122959704101,6.324437414559721,-7.374206907215097,-29.102408109954244,-11.7496747546231
1698744550.892,0.01666666753590107,0.2821134987078607,0.4251479048103094,0.08067980286777018,1.4567225840579718,-7.1161676379650824,6.238544845479726,-11.252464303802853,-39.31044684342929,-6.61873931991385
1698744550.909,0.01666666753590107,0.11851239765584468,0.2491793434858322,-0.03117547498643398,1.3723269024722278,-7.310846744978427,6.088008831575513,-13.501793300328853,-45.25684368578824,-5.858119208657475
1698744550.927,0.01666666753590107,-0.05907967321723699,0.20282792667746544,0.11442951225638388,1.2762597069889305,-7.377733584815263,6.190809280836582,-14.464409426099186,-39.16194145540029,-7.524484729333717
1698744550.942,0.01666666753590107,-0.05615048789754509,-0.023963059389591215,0.4080938941568136,1.3588595181338488,-7.62927264316976,6.435317125380039,-11.231672354195688,-16.8804966374374,-6.550135619229772
1698744550.959,0.01666666753590107,0.013125000641494989,-0.02111643778681755,0.13368132521510123,1.4502878017701208,-7.641094013866781,6.1370882120430466,-9.28482084638464,-1.7381584928158924,-3.2104601964820896
1698744550.975,0.01666666753590107,0.09541384614109992,-0.053985272687673565,-0.13910861096084118,1.5312423299260436,-7.688681109949946,5.845894604170322,-9.91237691977812,5.222572240821904,0.2829636916170799
1698744550.992,0.01666666753590107,0.28756518824249505,0.07152151390016079,-0.627013123935461,1.703175498254597,-7.585578462871909,5.334132830268144,-9.178758253858097,7.710011450211481,3.54010497606418
1698744551.009,0.01666666753590107,0.43417657604888077,0.4188485124051571,-0.7757593318134546,1.821987755639851,-7.251587915802001,5.174768782263994,-4.0187087109248445,14.766192796839736,7.372792204283257
1698744551.025,0.01666666753590107,0.4771862812139094,0.4560416402459144,-0.711005412352085,1.8116631993718444,-7.218370705854892,5.24659775467813,3.781271698581337,27.001387279744964,13.258320108306348
1698744551.042,0.01666666753590107,0.2697176891237497,0.14953472790718078,-0.5731137759655713,1.491588072668761,-7.522733007380366,5.411347002851962,3.708667641477748,33.60755649026505,20.913866776302502
1698744551.059,0.01666666753590107,-0.5274560405097901,0.06018062019646168,-0.49049452946782107,0.5989996201112866,-7.613262588611245,5.5111552845597265,3.176426857951797,38.287038618951264,16.16272401039181
1698744551.076,0.01666666753590107,-0.6186652745679021,-0.1266764148890972,-0.30850773076713084,0.42571964028365905,-7.7995625743359325,5.708676921522617,1.5659095529629274,33.829780110006,8.283985543339856
1698744551.092,0.01666666753590107,-0.40257118521258234,-0.38188393262326714,-0.0021808511704206465,0.5645831904422491,-8.060680192896724,6.020373219197988,-5.184344098924166,21.860643693387573,5.94955964683149
1698744551.109,0.01666666753590107,-0.2283379963133484,-0.33635376906991005,0.30564766516089437,0.6992571068912744,-8.027311591780185,6.31890082322061,-7.247988426447846,13.94662815304615,5.27878341703064
1698744551.128,0.01666666753590107,0.10416771902628243,-0.2625906137228012,0.38741058709025383,0.9940428209718316,-7.967153767937421,6.388928299170732,-3.1374540119911156,7.094345455502525,6.05196040418926
1698744551.142,0.01666666753590107,0.13266184597425162,-0.28166356298327444,0.41860067512392996,1.006163978333026,-7.990949069544673,6.416465125393867,-1.071508977934199,-4.0610575913262155,6.8288316699152105
1698744551.159,0.01666666753590107,-0.04640753090977669,-0.4133364709854126,0.4636813413441181,0.830937832873687,-8.12651840046346,6.455966530176997,-1.800666036222322,-16.464430541504196,4.581212782002653
1698744551.176,0.01666666753590107,-0.3848142869867384,-0.4942500826090574,0.5542074154436588,0.5360022619936615,-8.213159742084144,6.532581567823886,-2.1654593961601214,-28.55904436336493,-2.196055441990605
1698744551.192,0.01666666753590107,-0.5089190978221595,-0.5772475147694349,0.4984633163899183,0.46821620829477906,-8.295309032982587,6.468983832660317,2.325911211934299,-27.265879525164536,-10.156107951441793
1698744551.209,0.01666666753590107,-0.6183781281895935,-0.6134533851385117,0.3426110758990049,0.42152971431314945,-8.320002160212397,6.317403862661123,8.725202957117986,-19.08513997509224,-17.014825967844043
1698744551.226,0.01666666753590107,-0.44451881410405036,-0.556519784039259,0.06541033754348755,0.6739682057254016,-8.235455160522461,6.061522975710034,10.925976992608012,-9.091967893848393,-20.873239103571972
1698744551.242,0.01666666753590107,-0.2829903546076268,-0.3823819452732801,-0.037544425496459005,0.8848072971619665,-8.041074159672856,5.975029518127441,7.1121739567835505,-2.9873341379970517,-20.32572430951458
1698744551.259,0.01666666753590107,0.054972091767936944,0.07508534386157989,-0.2310626720368862,1.2624931205082683,-7.572712551558017,5.787537692269683,0.4322681317376943,-4.153628852694691,-17.720852377064503
1698744551.276,0.01666666753590107,0.3142841222114861,0.2568476861566305,-0.266097160539031,1.5750857094362378,-7.3937436393737785,5.738005891859531,-7.134876651811027,-7.454504318645059,-13.072336618527839
1698744551.292,0.01666666753590107,0.26082433470264077,0.2950415154725313,-0.18298399304449559,1.553238619287312,-7.3659104605525725,5.8011523761242625,-9.801256572171182,-8.377919427447749,-7.483226117878609
1698744551.309,0.01666666753590107,0.0035704058326780793,0.08629355109632014,-0.07391220842897891,1.3232457684390246,-7.594107806286216,5.87926320528686,-17.961946101934906,-19.63057326900007,-1.9375716286065268
1698744551.326,0.01666666753590107,-0.6725088006973267,0.2672323020488024,0.1517787074416876,0.7037462350040674,-7.472904269850254,6.014087855318189,-36.20842422431421,-22.462118689435357,-5.532893348024971
1698744551.342,0.01666666753590107,-0.9498704287029802,0.5907224978923797,0.42758126943707464,0.4483146992556751,-7.199514614215492,6.217893687117099,-29.712057134891243,9.505685258480758,-0.30698701439274856
1698744551.359,0.01666666753590107,0.8018427443578838,0.7380149998307227,-0.36016543729007244,2.1642093938298523,-7.091776708552241,5.385161006715894,-19.12843142159907,13.141972104663411,11.92754056457305
1698744551.376,0.01666666753590107,-0.6511198295794427,-0.9798340436816215,0.1417652629494667,0.6480807541444897,-8.824877681732177,5.880908634406328,11.903009086395302,9.240668796042385,15.025654607935596
1698744551.392,0.01666666753590107,-0.6187196351036429,-1.015202878704667,-0.11272679999172687,0.6434421345584094,-8.834304850769042,5.6699207821488375,27.259534279425594,2.7654977046046767,11.300435283664791
1698744551.409,0.01666666753590107,-0.11487228758782148,-0.38584932912290093,-0.306213482350111,1.1347020954407752,-8.162132150158286,5.536593092676997,31.749403526563082,-6.863545679484978,1.9493300127061153
1698744551.425,0.01666666753590107,-0.4847780515171587,-0.28214871615171433,0.12615677492916583,0.8013099526554346,-7.9955872507393355,6.043866907510161,25.45981187652579,-9.227945007392298,-15.575846836147633
1698744551.442,0.01666666753590107,-0.8827116400569677,-0.021326281145215033,0.3646013739109039,0.4411320942752063,-7.695263410949707,6.325185018056631,15.907524237338038,20.776520209830007,-31.576411910359585
1698744551.459,0.01666666753590107,-0.3054242316685617,0.012816811475157737,-0.27116788793206215,1.0588361225955187,-7.6195473679691545,5.733517932790518,20.26419455037652,26.154829728351487,-30.45672192424647
1698744551.476,0.01666666753590107,1.0508253962278364,0.06901040786206722,-1.1376771657288074,2.4191914322450754,-7.4972934456974265,4.9491164448380465,43.45801433012242,15.151449616974306,-13.21334416639546
1698744551.492,0.01666666753590107,1.0788377310082315,0.5319570051908493,-0.4569517408281564,2.437297874560952,-6.970570249506831,5.710472572767734,33.693794458725634,12.248582507452097,2.8390097499810545
1698744551.509,0.01666666753590107,1.6836059976488351,0.31402327931821344,-0.002413490882515907,2.9824273727968333,-7.138460718315839,6.238094179102778,18.702640843835063,14.123561642174392,19.13315108231555
1698744551.526,0.01666666753590107,0.7011375138103961,0.30537820056974885,0.18717735308110714,1.9288295892462133,-7.131131982862949,6.4610565467923875,10.295750315249059,18.79828910542463,24.517962940926886
1698744551.542,0.01666666753590107,0.45678865922093387,0.14461130003035066,0.14579904851019382,1.6044148989688605,-7.289447983118891,6.437711327040195,2.95113904459445,16.462519796083885,26.594500958056255
1698744551.559,0.01666666753590107,0.0995323873758316,-0.11267185493409633,0.13919161306917666,1.1484691933780908,-7.556850965559482,6.436365757650137,-1.25309254522675,11.060920186266308,25.36775629443965
1698744551.575,0.01666666753590107,-0.3053668754581362,-0.2643839268803596,0.15519231527745722,0.6820487093936651,-7.716963201582431,6.452376981252431,-0.5529660320670028,7.323806941329573,21.39827403752356
1698744551.592,0.01666666753590107,-0.4233063685968518,-0.30132454126477237,0.13143676115870476,0.5168487217776477,-7.7591592522770165,6.429630896437168,-0.09290582057588694,5.664465843327865,15.992694988740803
1698744551.609,0.01666666753590107,-0.4864898969363421,-0.3883399768948555,0.11990823592841625,0.41000747269317506,-7.851035571941733,6.418706766840815,-0.15458976589837456,5.848095479163658,7.38815927614214
1698744551.626,0.01666666753590107,-0.41060288130305705,-0.22118834375441074,0.1874006404429674,0.4667199783876538,-7.685536382183432,6.486941514155268,0.48360908958351984,4.8652154627863675,2.50076875044168
1698744551.642,0.01666666753590107,-0.2786651848848909,-0.10862871702313423,0.2153898866087198,0.5882257126405834,-7.5725605758666985,6.516868450385331,0.812222297157527,3.0104101455513512,1.2710622393245246
1698744551.659,0.01666666753590107,-0.02425546646490693,0.10644494324326514,0.2759972077846527,0.8321351528994738,-7.3569327888488765,6.579567190882563,0.2647998707364888,2.0710190108365896,2.4085285398045384
1698744551.676,0.01666666753590107,0.08231522204987704,0.14552607678771018,0.30265549760758875,0.9298482889588922,-7.3202721604496235,6.604557255232334,-1.5747728973497828,0.6825585729233868,3.3687643446491213
1698744551.692,0.01666666753590107,0.046705125616863366,0.03469605032801628,0.19431787248551843,0.8864535299990326,-7.435641583904624,6.49188072412312,-2.479905297291641,-0.6806746680120798,4.18536874176774
1698744551.709,0.01666666753590107,-0.0556786326020956,-0.2510609194487333,-0.012460837644338607,0.7658456944338977,-7.728483543506265,6.279094882532954,-2.0618851269255787,-0.8548730932645544,3.672094112906445
1698744551.726,0.01666666753590107,-0.24307693495750426,-0.3931915085792541,-0.0838251151561737,0.5692218100283295,-7.872136227637529,6.207119779646396,-1.458110278118203,0.2132421077453682,1.9842736873867237
1698744551.742,0.01666666753590107,-0.32443865567483005,-0.4472077609270811,-0.08261457032263278,0.48467671003453433,-7.926006934034824,6.208915430891514,-0.5969474344017132,0.6275863289970681,0.1600694052219363
1698744551.759,0.01666666753590107,-0.3277629047267139,-0.41736382680535317,-0.07543605699539184,0.4834793169435113,-7.89113844974935,6.221783680292964,0.3971738727302283,0.5402893610500178,-1.822382836131789
1698744551.777,0.01666666753590107,-0.15984496338889,-0.2800608039617538,-0.07402735924124718,0.6554129967287182,-7.750928599548339,6.226122586280107,0.9229686919074064,0.5468408464853822,-2.140573175032357
1698744551.792,0.01666666753590107,-0.030696313167363404,-0.2188508407175541,-0.04821837972402572,0.7858971333377063,-7.689128853717446,6.252460558107495,1.0273048473995228,1.469337615009823,-1.2000379836316182
1698744551.809,0.01666666753590107,0.08602379424422979,-0.04452186329364776,0.04206920944452285,0.8966288139894604,-7.5176441598087544,6.340147609388828,0.724114084163979,0.8452169133254488,0.4939933249994664
1698744551.826,0.01666666753590107,0.07397131820507347,0.02242342873215675,0.05791150622069835,0.8729860725954175,-7.456590848430991,6.350472019526362,-0.40512781478169324,0.769716429126951,1.2000022318601813
1698744551.842,0.01666666753590107,0.04067972784750163,-0.0016518588602542877,0.06098609136044979,0.8327339225102216,-7.484875278151035,6.349426309865713,-1.0181530342419405,-0.11132151802233547,1.3051652671286924
1698744551.859,0.01666666753590107,-0.03322641616687178,-0.004248305094242096,0.06568623187541961,0.7514803383424877,-7.494450331225991,6.346731663954258,-0.9115254570049904,-0.23157068025925942,1.2479596580654855
1698744551.875,0.01666666753590107,-0.10355236360691487,-0.06266308466196059,0.08912263704240321,0.680701897894591,-7.5562518306225535,6.3661851369649165,0.037791770183011116,0.01461169562536134,0.8946731391667476
1698744551.892,0.01666666753590107,-0.11718421779200434,-0.16623627186119555,0.06906944457292556,0.6667856007449329,-7.659350970569252,6.346731663954258,0.6201694372495218,-0.26388449198557484,1.4968926258340642
1698744551.909,0.01666666753590107,-0.08252338490784168,-0.47444063576757906,-0.12251929520964622,0.7015014517519622,-7.963115306201577,6.160433431795239,2.891445966012889,-2.3535120063703205,2.55948383131146
1698744551.928,0.01666666753590107,-0.21411095271408556,-0.7326736388027667,-0.30256372767090794,0.5711668796814978,-8.214654949077964,5.9881993808239695,4.697720441317437,-3.5469782808033288,1.6165211479910162
1698744551.942,0.01666666753590107,-0.2854376746945083,-0.765607355633378,-0.3371989877223968,0.5039797417238354,-8.238148052868247,5.964257364222407,6.519917154794344,-3.1185450601607583,-0.8024236437412033
1698744551.959,0.01666666753590107,-0.4071460188474506,-0.4477437674999237,-0.22952596398890018,0.39354711708389223,-7.902959235924482,6.090999830085039,7.711320285211185,-1.8126105429767934,-4.606028566804602
1698744551.975,0.01666666753590107,-0.14168569490723312,0.039136663123965264,-0.014853285738825796,0.6684314682558179,-7.40586486980021,6.316504283472895,6.078831222157737,-1.73287907675259,-4.227945152845838
1698744551.992,0.01666666753590107,0.030646409611031412,0.23274141890406608,0.048344051930308336,0.8511389093812555,-7.205050621032714,6.386833957239985,4.546286609681792,-2.0844258184036786,-3.389307419238404
1698744552.009,0.01666666753590107,0.3254528011534363,0.4425806856483221,0.13607728044092654,1.1517608553346246,-6.992564054650068,6.476915210181474,1.494805255990685,-0.645741452058638,0.6927705061453492
1698744552.026,0.01666666753590107,0.5406235651187599,0.4883937577962875,0.12847089709043502,1.3596077061526477,-6.950517641559243,6.465842612025141,-1.1789922498081047,0.24341865723085146,5.222616637051509
1698744552.042,0.01666666753590107,0.50532326528728,0.4877618896335363,0.12559504939317703,1.3091795414246619,-6.957099942559004,6.457911234503984,-2.8565033585493382,0.39873358377979773,7.484486287780476
1698744552.059,0.01666666753590107,0.06562390722893179,0.4587240111976862,0.09574760814011096,0.8542815913211553,-6.9940639378190035,6.420655562821031,-2.7289429590535916,-0.26633159401871703,3.004414306677138
1698744552.076,0.01666666753590107,-0.040429625543951984,0.38613516032695766,0.2568061851024628,0.7445970816347748,-7.072023375812172,6.575827419832349,-4.819538572711908,0.6828093155711203,1.40811606815806
1698744552.092,0.01666666753590107,0.06300977920778095,0.37312253401875495,0.27348084104955195,0.843657321454212,-7.094919098231196,6.5813645956933495,-7.199194408790921,1.1008405849945841,3.688833625901677
1698744552.109,0.01666666753590107,0.132765598609671,0.18212357682287691,0.32779344599545,0.9027641018740832,-7.298872814068198,6.621615357539057,-6.759676431455655,2.4544015843742253,6.4545330345302805
1698744552.125,0.01666666753590107,0.03488718898594379,-0.06944529214799404,0.24200141468048095,0.8007111099794506,-7.554604647937417,6.531384466993808,-5.962038402445104,2.211206936003809,6.105000238188994
1698744552.142,0.01666666753590107,0.03656023676469922,-0.2044809545814991,0.273031343716383,0.7870939419068396,-7.696759786987304,6.555774811884761,-6.066851070353534,3.398813761902592,5.863270451952134
1698744552.158,0.01666666753590107,-0.05370346007160842,-0.31482465882897376,0.29859423951804637,0.6789062466494739,-7.815124885126948,6.573882130983471,-4.170736769018281,-0.026404951042313943,3.6909834279429385
1698744552.174,0.01666666753590107,-0.14563012168407438,-0.4161497748404741,0.10570260044336319,0.5846344832155853,-7.918672937884926,6.378604473555088,-1.7697705292854156,-2.515661764483481,2.2161624516900646
1698744552.192,0.01666666753590107,-0.1893807083442807,-0.4546569078892469,0.037788755646347996,0.543633925915882,-7.957430830824375,6.3100716200768945,0.27893329303739056,-3.1394810840707286,0.28514657738713367
1698744552.208,0.01666666753590107,-0.1620888698581606,-0.4294862262755632,-0.013515899655222891,0.5810432537905872,-7.927650609588623,6.263084243452549,2.6303570757906853,-3.8797532080159893,-1.85736919949471
1698744552.225,0.01666666753590107,-0.20398403791002928,-0.35366730744242664,-0.05079202960431575,0.5511156599733978,-7.844603493067622,6.2330076696187255,4.873200380812936,-4.441109380426412,-3.279350978554719
1698744552.242,0.01666666753590107,-0.22394056507200003,-0.3317278628349304,-0.0596609802365303,0.5449805182192474,-7.813179011756182,6.233756442159414,5.440895395659954,-4.18502595164877,-3.7488654391773886
1698744552.259,0.01666666753590107,-0.10486593042351305,-0.27362054178118705,-0.09107143302261829,0.6781578394349664,-7.744793457794189,6.212806593111157,3.9227932181840015,-2.952942427978745,-2.25835615873123
1698744552.275,0.01666666753590107,-0.0805110952373594,-0.10693652615249157,-0.12454349451363086,0.7085346383243799,-7.574357980677485,6.183030463528633,2.5087534550248365,-2.457089690699448,-1.7129922339321573
1698744552.292,0.01666666753590107,-0.10195588819570839,-0.04667758002281189,-0.1573842723637819,0.6932715296756475,-7.511360549494624,6.152652860921621,1.6467615970978362,-2.1376654354366353,-1.5716190575005293
1698744552.309,0.01666666753590107,-0.06414857397936284,-0.009255904123187065,-0.19105974747240542,0.7338231010988354,-7.474397723278403,6.118085405409336,0.02640991360163278,-0.7106440439862148,-0.3628794128663149
1698744552.326,0.01666666753590107,-0.015334420319274067,0.05759235726892948,-0.15862345876991749,0.7781160510074346,-7.412300455805659,6.145470255941152,-1.239657563129335,0.5139348093332591,0.7636312108241456
1698744552.343,0.01666666753590107,-0.015726049985364077,0.07092004087567329,-0.10076748212873936,0.7733276476871221,-7.4048185756176705,6.196944422590732,-2.6540898487223643,0.265238763751515,1.2117218759805712
1698744552.359,0.01666666753590107,-0.04074168716780841,-0.004558686217665672,-0.11574760911762713,0.7456446179263293,-7.491009835383296,6.169561325624585,-3.6003771266213116,-2.936902369043205,1.0273336622600837
1698744552.376,0.01666666753590107,-0.07474391001276671,-0.03858721254765987,-0.10475742854773998,0.7175128945499658,-7.533507499372958,6.169710378706455,-4.192956228161978,-9.305654630900472,0.7926241365512333
1698744552.392,0.01666666753590107,-0.07902567898519337,-0.06330138256549835,-0.05362111555039882,0.7323269442569464,-7.5662775500744575,6.208766377809644,-4.251333428111254,-15.472038206047195,0.27356417738037875
1698744552.409,0.01666666753590107,-0.043200989953428505,-0.12647826196849346,0.23528876529932022,0.8107368294313549,-7.64139445811808,6.477665151765942,-6.0662619665376205,-23.47052781849604,-1.1696577290902246
1698744552.426,0.01666666753590107,-0.06041720543131232,-0.24387013116180895,0.408525855833292,0.8352776156436651,-7.767538958087563,6.634484775984287,-5.264931366507031,-25.424004609802,-2.6041669288616833
1698744552.443,0.01666666753590107,-0.07184577741846442,-0.298572612208128,0.4572065923720598,0.8653544817384332,-7.82724377746582,6.67099518225789,-1.3396980632420423,-19.824354273489796,-3.5400795762982042
1698744552.459,0.01666666753590107,-0.049464726523309945,-0.3830272574394941,0.32324177404046056,0.9223666279666125,-7.907151426917314,6.537220918062329,4.162033827355215,-8.632936492941223,-3.6625156263691485
1698744552.475,0.01666666753590107,-0.04803462065495551,-0.4187649257749319,0.030223873350024223,0.9392754579957574,-7.935280958336591,6.250962428504228,3.693224583764349,-5.966202256517873,-4.036813834867256
1698744552.492,0.01666666753590107,0.04659041319601238,-0.07971358818411826,-0.24567864188849925,1.0541975760746747,-7.589471963179111,5.979971066182851,0.4636047461650219,-5.544079063451337,-2.9995371247229254
1698744552.508,0.01666666753590107,0.13701156561635433,0.1361450849801302,-0.2920230444341898,1.1537065095096826,-7.372796712934971,5.933135665249824,-0.2874215106284239,-2.762815361251566,-0.10213702134235751
1698744552.526,0.01666666753590107,0.27904622009173036,0.38252281504869456,-0.2737830388665199,1.290175711877644,-7.125293193706869,5.953633678877353,1.0525137949655705,1.6994192606691667,3.90134215532193
1698744552.542,0.01666666753590107,0.2062877117425203,0.20036416691243647,-0.20362346096932887,1.1939590249210594,-7.307703770777582,6.0272565489709375,0.7423164849412102,2.7504044806428296,7.671711164440635
1698744552.559,0.01666666753590107,0.09138064510226249,0.10367664757370948,-0.13619593838453292,1.0613799618594348,-7.408259071460366,6.092797234895825,-2.33625916197028,0.02754673989204322,7.450123606066142
1698744552.575,0.01666666753590107,-0.10232742492184042,0.08892857577502727,-0.025643559822440147,0.856526228442788,-7.434446821162104,6.19125994721353,-6.468630544977187,-1.9102137327728639,6.989308672011953
1698744552.592,0.01666666753590107,-0.1041594626545906,0.0939069487094879,0.04764963992536068,0.836923775415495,-7.444024212324619,6.24961685911417,-2.607819799407171,9.998396322185261,4.5446379727708806
1698744552.609,0.01666666753590107,-0.14667780410610137,0.09528232871592045,0.09016074791848659,0.7662948995061218,-7.444024212324619,6.294659531411528,0.4258792368210878,17.534714354256025,2.9530845812908457
1698744552.624,0.01666666753590107,-0.029695611692219973,-0.23455051415264605,0.02629647077322006,0.8601174578677863,-7.777265402331948,6.23001491754353,-4.830346066412983,10.648972694402621,3.3990227230025125
1698744552.642,0.01666666753590107,0.12181048935316502,-0.2561158647507429,0.026074936977028847,0.9982328200075775,-7.8161705947875975,6.210562029054761,-8.674843972367482,-2.7776326028822624,2.1609092095124236
1698744552.66,0.01666666753590107,0.08475362817794084,-0.10460545285642146,0.027090251499414443,0.9665096480105072,-7.676110966712236,6.196794784986972,-5.805437959589167,-7.7195165122152,1.54433266520974
1698744552.675,0.01666666753590107,0.03450724975764751,-0.10960837571024894,0.1626572443306446,0.9265564078066497,-7.687332033428549,6.323238560163975,-3.9375144102794946,-11.19783218195286,2.2086238438370747
1698744552.692,0.01666666753590107,-0.13524572498761117,-0.34765959146022796,0.2757324193686247,0.7769190232425928,-7.92914873919189,6.428734239858389,-0.46894952927311556,-11.759318127957513,-0.7479196946598536
1698744552.709,0.01666666753590107,-0.2437726621367037,-0.3840156839549541,0.2703378668487072,0.6866874020449817,-7.962665808868408,6.4240954741418355,3.3568277353008775,-4.797174825821993,-4.03840142696246
1698744552.725,0.01666666753590107,-0.2029227653540671,-0.40266660841107366,0.1426280172586441,0.7396591868411749,-7.975386174231767,6.301840967348218,3.05590923726398,0.2972462841822377,-4.399027304289494
1698744552.742,0.01666666753590107,0.028417554580420255,-0.1914607294887304,-0.08310907584130764,0.9775831229496746,-7.759759556257724,6.080527535909414,0.14677688326152621,2.241301816703943,-2.9648991010076755
1698744552.758,0.01666666753590107,0.14736688234880566,-0.02277589543163776,-0.16156594196259974,1.095347844043374,-7.590818117091059,6.002565759828687,-0.4299308463398012,3.7816755335160144,-0.8512669134653463
1698744552.774,0.01666666753590107,0.31599677134826776,0.17134323961138725,-0.20576924082636833,1.255310296332091,-7.397485748511552,5.958721941927075,-0.40779417655936345,3.837268577604864,2.066807985769865
1698744552.792,0.01666666753590107,0.3106547527331859,0.05184592257142066,-0.15557225450575352,1.2259811798647045,-7.518391178783774,6.010794658991694,1.2855994431992506,6.435560476563278,5.579885049514659
1698744552.808,0.01666666753590107,0.28240422528274356,-0.0036000703185796734,-0.09941840560734272,1.1706154856692998,-7.572712551558017,6.072296883180737,2.853158059959913,9.622461856494112,6.832510580556909
1698744552.825,0.01666666753590107,0.04148636805526912,-0.07202654081285,-0.0807312407940626,0.8861541086610406,-7.637801402062177,6.101174018096923,4.376265271993604,14.01810949780492,7.069021675381056
1698744552.841,0.01666666753590107,-0.022533026586472986,-0.12156067931056022,0.0012029460489749908,0.8001126326296478,-7.6849390008121725,6.189013045069575,3.6139820096743307,15.489561056362861,6.176779123063481
1698744552.858,0.01666666753590107,-0.22212087536416947,-0.0403068759471178,0.048802317091822624,0.5632362328127026,-7.602636565178632,6.242731775775551,-2.367836834050541,12.281015660725902,3.48892850304739
1698744552.875,0.01666666753590107,-0.23630773308351635,0.12893617651462555,0.03547112635374069,0.5325605971071868,-7.444621009173989,6.21774346499145,-8.208937986060695,10.1380899124113,2.4974268669468396
1698744552.891,0.01666666753590107,-0.21080233962275086,0.2023538794249296,0.10316752900779247,0.5327101616457104,-7.38012661743164,6.277598506495356,-0.9548612997414289,21.96022785148636,0.8234166036812077
1698744552.908,0.01666666753590107,0.049761298317089676,0.3780652511179447,0.22416356017291544,0.7375641142580658,-7.203403438347578,6.406288014772534,-0.9095890983752918,22.679122337103127,3.1575068070640384
1698744552.925,0.01666666753590107,0.3300644596673548,-0.33055472740232944,-0.11528875943422316,0.9711484867922962,-7.925556267657876,6.055238196352124,-8.932594821076254,9.518747141494762,6.41873814752436
1698744552.942,0.01666666753590107,0.10478855433836579,-0.1908873135149479,0.01153963114619255,0.7212535423830151,-7.800608283996581,6.1664177669018505,-7.561623029172015,6.688135749428472,5.048819485412773
1698744552.958,0.01666666753590107,-0.04803242869786918,-0.08477145609557628,0.08147942881286144,0.5487213487153872,-7.704689995464682,6.2256754270344965,-4.402914962587701,6.52913919083433,4.544973932700681
1698744552.975,0.01666666753590107,-0.1930571318347007,-0.20722703841924667,0.18777707253992557,0.38007969621289517,-7.834425797924399,6.325184433534741,-1.7316563661694517,3.9467616326420454,3.53749648413147
1698744552.992,0.01666666753590107,-0.3259362007562071,-0.34216099404394623,0.152701082983613,0.24211404474209994,-7.970897630640864,6.288673442739248,0.01550176799179185,-0.12812343653502306,0.3853962787235991
1698744553.008,0.01666666753590107,-0.34279629627279934,-0.32878128798902034,0.15847499020993708,0.2317889770174399,-7.957579883906245,6.29376112126708,0.3653103198806048,-1.8221222217262707,-2.350411100487135
1698744553.025,0.01666666753590107,-0.1378875447332859,-0.22428514072597025,0.17489245652556418,0.4493621259493753,-7.852084204211831,6.310220088636875,1.338245900991474,-1.4501184231807591,-2.9788610748882394
1698744553.042,0.01666666753590107,0.0291300867639482,-0.1242366205215454,0.13154665127396584,0.6235402236605063,-7.747786794391274,6.2714639492630955,3.0615279216299616,-1.765685435831513,-2.385645058207469
1698744553.058,0.01666666753590107,0.09633600248731672,-0.14734160177707673,0.1335311030894518,0.6959648238802328,-7.764846650263666,6.2804427900105715,3.887926810018379,-1.7156226038145526,-1.2192936742840592
1698744553.074,0.01666666753590107,0.039732583190500735,-0.11294365761280059,0.09768588272631168,0.6417962305149063,-7.7241458065629,6.252163036465644,4.102641490540546,-1.800726440707794,-0.9023087570502929
1698744553.092,0.01666666753590107,-0.09988266211822629,-0.05020049345195293,0.08241817096769809,0.5077209010135382,-7.651870843946933,6.248122236642241,4.619090022931782,-2.1300939572982647,-1.775690595748524
1698744553.108,0.01666666753590107,-0.10147906446419655,-0.019150106149911878,0.08475625852644443,0.5128084334108978,-7.614159245190024,6.257995980402827,3.272593146701226,-3.190015092418714,-1.5619912655351615
1698744553.125,0.01666666753590107,-0.0683898648109287,0.02244973221719265,0.015056699356436729,0.5557544987551868,-7.566425434112548,6.194850080659985,2.207202310716066,-1.5883406412491898,-1.4785700030552704
1698744553.142,0.01666666753590107,-0.010592121163010596,0.09417407521307468,0.07123276008665562,0.6181532333925366,-7.492054376000166,6.253806127497554,1.0255006102415816,-0.4415663403951824,-0.8200922759069685
1698744553.158,0.01666666753590107,0.030834260333329436,0.08380231880247592,0.05565116007328033,0.6609496611330657,-7.501932795935868,6.238693898561596,-0.1953011484668752,-0.5737105972368008,0.30203974295826436
1698744553.175,0.01666666753590107,0.08082308379597962,0.03664133917689323,0.05581424168050289,0.710629345581308,-7.550715823805332,6.236898831838369,-1.0629227898172584,-2.169265092188288,0.7912652490715181
1698744553.192,0.01666666753590107,0.003943476928770542,-0.02626023041605949,0.09949380893111229,0.6349127180788665,-7.61655461589396,6.276850902998447,-2.9931767245017626,-4.095642254188576,0.9156549466884978
1698744553.208,0.01666666753590107,0.019137246668338773,-0.07191489713191986,0.1337093822658062,0.6572087210390717,-7.668628502002358,6.302438933241367,-4.969162831104322,-8.197770626767724,0.5750333060582562
1698744553.225,0.01666666753590107,-0.15046499449461698,-0.09424538688361644,0.17185761887431145,0.5174472721926867,-7.701848634558916,6.323986163660884,-6.680205472915264,-19.96054141535068,-2.1549014178071624
1698744553.242,0.01666666753590107,-0.33589214290753006,-0.08174947792589664,0.33368951829671856,0.3802295164797455,-7.698556607276201,6.468986755269765,-7.173186755978805,-29.43324539787674,-6.671533693990287
1698744553.259,0.01666666753590107,-0.39133309429623186,-0.12148936764001846,0.42212884925007815,0.3944449427064508,-7.746587939995527,6.538567071974277,-5.820548045580527,-33.01625335343871,-12.287453967792286
1698744553.275,0.01666666753590107,-0.3399718865018338,-0.3619651801884174,0.4209960458278656,0.5487218236394226,-7.988405230280756,6.521659191793203,-0.1635082720669055,-28.757633821030343,-15.956062976674733
1698744553.292,0.01666666753590107,-0.15606120706647633,-0.6098749421298504,0.17633973272442816,0.8074448021486401,-8.228421608623862,6.275503580042719,4.807841019984615,-25.228381161783666,-17.080011585735352
1698744553.308,0.01666666753590107,-0.1499291340522468,-0.6598153233408928,0.04648585684299469,0.8873515748172998,-8.26209123851359,6.15384879270792,9.541075029891534,-23.561051730660804,-18.485514252762236
1698744553.324,0.01666666753590107,-0.22621917752847073,-0.503022002607584,-0.15770985105633734,0.9108448247380554,-8.073549611341953,5.971292669686675,12.58090023887719,-19.307460925028863,-21.60752371293607
1698744553.342,0.01666666753590107,-0.3658995970278978,-0.12353928590714931,-0.18835399564504623,0.8405147125795484,-7.6666832131534814,5.9611149745434515,12.9890270936739,-12.012247716885902,-22.628274993826967
1698744553.358,0.01666666753590107,-0.33128260328546166,0.041325113078951835,-0.237131762817502,0.933290026910603,-7.473050400322675,5.935825634986162,14.122693354376155,-5.7330964378818,-21.86763951464496
1698744553.374,0.01666666753590107,-0.12289280469715594,0.21551380524933336,-0.40123745239078995,1.2008419163025914,-7.25876993626058,5.807884314727783,13.348336025151593,-0.16004736718969242,-18.416483238368208
1698744553.392,0.01666666753590107,-0.2795369262181222,0.3832353472322225,-0.37635084841549393,1.074248941913247,-7.06648795351684,5.855771270540356,9.617261521214793,4.880977831843465,-16.643075846793174
1698744553.408,0.01666666753590107,-0.22780849254652857,0.4479869286060333,-0.37343992940485476,1.1429321636475622,-6.982239644512534,5.878215742060542,6.835776264753822,14.562547291641222,-16.312189039999197
1698744553.424,0.01666666753590107,0.25192966510728,0.5351543399274349,-0.2930553100913763,1.6168348931461571,-6.8815364597916595,5.975932019925117,0.024552715797197554,17.324774829737343,-6.8447046026594975
1698744553.442,0.01666666753590107,0.6494650481097399,0.30938334455788136,-0.44455636963546274,1.9909290486760436,-7.109883443129062,5.826442884725332,-4.389799718720807,20.44063370456358,-0.554085649482356
1698744553.458,0.01666666753590107,0.708233171159774,0.48330666379034515,-0.3659288231223821,2.009633310754597,-6.94617698200643,5.901408401599526,-7.259796969749152,24.690840151461785,2.3560086539553717
1698744553.474,0.01666666753590107,0.7654558183334768,0.266048645222187,-0.11048691211044788,2.0000563579834996,-7.184400047191977,6.145467917853593,-9.72340778355867,23.984275864844182,8.826603945535995
1698744553.492,0.01666666753590107,0.39589514151476324,0.08853928419649601,0.1951122377336025,1.570895783465728,-7.382220959362387,6.438308708411455,-10.943533140095884,23.445553231795888,12.189306710740142
1698744553.508,0.01666666753590107,0.2990595920074731,-0.05253682744503021,0.24347324079871177,1.4113820247925817,-7.544129431152343,6.47317543913126,-9.140485288843932,21.164999171705528,14.192112835779225
1698744553.525,0.01666666753590107,0.09764189745411277,-0.3034475247681141,0.20768822619020938,1.128417316082865,-7.813626171001792,6.429031761500239,-2.947640280192111,19.6059214087382,15.172507090185455
1698744553.542,0.01666666753590107,0.10741787992864847,-0.4617039037913084,0.24237550868988036,1.0748472731325776,-7.977929428973794,6.46659138456583,0.017188064324631307,20.177531402640106,16.54515654730458
1698744553.558,0.01666666753590107,0.125840767782554,-0.4503226780772209,0.1933779612869024,1.030554615484923,-7.9683537913769475,6.424843077638745,3.064591261472712,14.35726766368378,17.395284580086678
1698744553.575,0.01666666753590107,-0.013973214968666433,-0.4270867639183998,0.27059096482694145,0.8286935610782354,-7.943514533674716,6.512682104611397,1.9308056859033946,4.795869405916874,14.579216368310638
1698744553.592,0.01666666753590107,-0.25240378542505204,-0.36731297095716,0.33014790016710754,0.5593457281801849,-7.885153530120849,6.57462973448038,0.22414130207213673,2.6948306464610208,11.113316274936768
1698744553.608,0.01666666753590107,-0.3191716019921005,-0.308669643330574,0.33755905320644375,0.47135896329991517,-7.827842912402748,6.583159662416577,0.4785391682286663,2.0623188439378746,6.753988164537503
1698744553.625,0.01666666753590107,-0.3122228788327426,-0.1610112306892872,0.23628420607745645,0.46477476260401307,-7.680750316950679,6.482903052419424,0.1506451048690674,-0.38653926819251844,2.876333532144001
1698744553.642,0.01666666753590107,-0.09043174687959253,-0.08566168293356895,0.06490355706512928,0.6824976222049445,-7.605782461988926,6.311567411592602,-0.14021794064697024,-0.4224737205091753,2.415380713645942
1698744553.657,0.01666666753590107,-0.011551833040639758,0.02172083342075348,0.04145253885090351,0.7564185253970325,-7.499689400923252,6.287176482179761,-0.9928485707492184,0.2507745575235436,2.8952849592132592
1698744553.674,0.01666666753590107,0.08801913277991115,0.1111000755727291,0.019890695384144782,0.8484456517092883,-7.413796831843256,6.262337808999419,-1.2153865926354004,0.6453867624694734,1.5657250311336315
1698744553.692,0.01666666753590107,0.010363938430324196,0.05404898557364941,0.030626024410128593,0.7650975064150989,-7.472751709637046,6.2714639492630955,-1.1990405625693847,1.5577112982465025,0.9000142403759918
1698744553.708,0.01666666753590107,0.02688859144747257,-0.020500936236977577,0.03999064960479736,0.7748238045290112,-7.549667191535234,6.278796191847324,-1.6644716372854444,2.520925919342857,1.9467975066279215
1698744553.724,0.01666666753590107,0.07292356271781027,-0.07816811230778693,0.055740591922402376,0.8047513983462006,-7.612665207239985,6.290019596651196,-2.4180658317634034,2.3527256808421226,5.247214709573664
1698744553.742,0.01666666753590107,-0.08508804776407777,-0.1692185025423765,0.00035831191837787623,0.6328180108219384,-7.708133998438716,6.230913327687978,-2.3436485728785876,1.5112796722687558,5.576362379450225
1698744553.758,0.01666666753590107,-0.20022424698509275,-0.17857085277736187,-0.04354980339109897,0.5078703924868255,-7.7214494070857755,6.183327985170483,-2.1526863020819627,0.8154012166076391,3.452809822386128
1698744553.775,0.01666666753590107,-0.20219152847006916,-0.2039572229683399,-0.06257482185661792,0.4963485161930322,-7.752277676069736,6.158788002675771,-2.8791874840000085,1.4451856392178348,3.127645860342977
1698744553.791,0.01666666753590107,-0.08211516943313181,-0.2180868706077337,-0.08067804930210112,0.6073793259218335,-7.7714301203072065,6.1355906669616695,-2.6471166524666043,1.4462384488453688,4.7725588240532675
1698744553.809,0.01666666753590107,-0.058241980284079904,-0.23363398382961748,-0.09215747469365597,0.6199491768985986,-7.791482143732905,6.119881641176343,-1.9702762818998405,0.6420044314481419,5.399207336060781
1698744553.825,0.01666666753590107,-0.07660159364342689,-0.14462006785869597,-0.12248422389626502,0.5897222348086536,-7.706635868835448,6.085763098475336,-0.2489233094542057,0.3900861374037385,2.2158111238346323
1698744553.842,0.01666666753590107,-0.1192767330918461,-0.06416062974333762,-0.08462415657937526,0.5412396511904894,-7.627180054804683,6.1230246153771875,0.34351443918715363,0.5162915981228837,0.4988007643189505
1698744553.859,0.01666666753590107,-0.042663229814916846,-0.09634849664270877,-0.061117024263739585,0.6138136698182672,-7.660097989544272,6.146066468268632,-0.041267135851357564,1.0153838194203233,1.6116713935151898
1698744553.876,0.01666666753590107,0.04940042911544442,-0.09179565564393996,0.08252513847351074,0.6967129753664135,-7.6575553193241355,6.2882233608841895,0.14648758739757917,0.38010418945773505,2.1681124977658484
1698744553.892,0.01666666753590107,-0.020064225320145488,-0.06892623670995235,0.02703589096367359,0.6236898247316479,-7.636605470275878,6.230761936518549,0.1931066300308913,-0.6746878471220049,1.3181521247835313
1698744553.909,0.01666666753590107,-0.1296979546673596,-0.07503039880394935,0.03548223226964473,0.5137063320986927,-7.643042225325107,6.238844120687246,0.5769902619771706,0.09936868697481316,-1.1434709972558073
1698744553.926,0.01666666753590107,-0.10622910853549837,-0.07992869223952292,0.09512976850271225,0.5385461743228137,-7.6475295998722315,6.298848215273022,0.12446671066791426,0.563795296996058,-1.1522770320866578
1698744553.943,0.01666666753590107,0.053013505046069616,-0.0720475836008787,0.152505268150568,0.6982093514040112,-7.640646270099282,6.354962901204824,-0.5873099841219723,0.2509443784378684,0.24901383614113484
1698744553.959,0.01666666753590107,0.03748224698044359,-0.08831248970329761,0.10616028108298778,0.6814500128481537,-7.658152700695395,6.3072267520397896,-0.04727394038083999,-0.3911075174889198,0.4346689699113802
1698744553.976,0.01666666753590107,-0.026365371290966867,-0.10543430489599705,0.08478899175226688,0.6186021462038159,-7.675211972045898,6.285828574702143,0.10032535368565129,-1.0226309702948242,-0.2152803856040881
1698744553.992,0.01666666753590107,-0.03507043659836054,-0.098595398786664,0.10829261693656445,0.6103720049317926,-7.669075661247968,6.3084238528698675,-0.5629454720529203,-0.7677950115360618,-0.31809404924152646
1698744554.009,0.01666666753590107,-0.006696063572540879,-0.06330196708738803,0.06951426573097705,0.6414967726442963,-7.634512297388911,6.26847178170979,-0.35394026938792855,-1.3070989577157466,-0.572900899655037
1698744554.026,0.01666666753590107,0.016378230283781884,-0.07917232091426848,0.07717968579232692,0.6675337156984955,-7.650522351947426,6.27565321764648,-0.3094970021910225,-1.070102172408588,-0.2119539233957332
1698744554.042,0.01666666753590107,0.034587475387006995,-0.05789397056400775,0.07261983053088188,0.6878844298098236,-7.6291247591316695,6.2710144519299265,-0.04374992295487042,-1.0859102183557594,0.05037517976935635
1698744554.059,0.01666666753590107,0.0068379562612622975,-0.09075812928974628,0.06565408317148685,0.661548284613341,-7.662045616480707,6.263833015993237,0.008496168358114065,-0.8850587941363084,-0.10622579669510929
1698744554.076,0.01666666753590107,0.003350406406447291,-0.10860065997242926,0.04703589194118976,0.6596027765687554,-7.679701100158691,6.245277368605136,0.06405718259501582,-1.2058275294485559,-0.2842350672980543
1698744554.093,0.01666666753590107,0.018603212856873868,-0.10171499211192131,0.02539338445365429,0.6783074770387262,-7.672069582366943,6.22417846647501,0.4126727725761773,-1.5865195420617353,-0.3078402277500448
1698744554.109,0.01666666753590107,-0.011370046732947229,-0.07343523856699466,0.004666238245368003,0.6515224920962005,-7.642590974426269,6.20457652490437,0.7972560720255598,-1.2412810137176822,-0.4455039711321212
1698744554.126,0.01666666753590107,-0.01800437018088996,-0.06866612446904181,0.004474515065550804,0.6474822767946868,-7.636455248150229,6.205772456690669,0.5628574266456506,-0.639632168011179,-0.36089553639711713
1698744554.142,0.01666666753590107,0.01575359557941556,-0.0585281768143177,0.00326864640712738,0.682497476074472,-7.625832147327065,6.20502485319376,0.07930069739902978,-0.10215927281801294,-0.30771832488161593
1698744554.159,0.01666666753590107,-0.059008142350986593,-0.05008592716157436,-0.03034896103441715,0.6084267891481518,-7.617002359661459,6.171805305159092,0.5788582119934633,0.35096572200438797,-0.5622044498888268
1698744554.176,0.01666666753590107,-0.030998364853858946,-0.06289923150539398,-0.00017068039178848266,0.6356609791629017,-7.6297233095467085,6.202181738722324,-0.39032716837624587,1.0235014992488836,0.4009933091780141
1698744554.192,0.01666666753590107,0.0590203442454338,-0.05896715275347233,0.012424597287178039,0.7199068039491773,-7.628526208716631,6.212058405092359,-1.2919842826910373,1.2615386077439996,1.795204232763839
1698744554.209,0.01666666753590107,-0.0025937428202480075,-0.08330605971813201,-0.05178571681678295,0.6531684326723217,-7.65501089553833,6.145768362104892,-0.7202081230932309,1.3305153007897832,1.1446901860226544
1698744554.225,0.01666666753590107,-0.03852583774924278,-0.07902326783239841,-0.05756722282767295,0.6133648300722241,-7.651718283733725,6.139183723017573,-0.3764507853037187,1.554136014381118,0.5927945726646396
1698744554.242,0.01666666753590107,-8.482873924076556e-05,-0.07793547259569168,0.008780103304982185,0.6479312626712024,-7.651870259425044,6.20442630277872,-0.3474609278256723,0.6764409112220239,0.7287190724075957
1698744554.259,0.01666666753590107,0.03428615435287356,-0.1076625023394823,0.02331190200448036,0.679953636810556,-7.682545383673906,6.218043909242748,-0.3166229172077556,0.584995030241014,1.0018208779976763
1698744554.276,0.01666666753590107,0.01616926370821893,-0.10641863975822925,0.03352525298297405,0.6600519085757434,-7.682097055384516,6.227471662801504,-0.4467174769681356,-0.12426972907946815,0.49696936648688794
1698744554.292,0.01666666753590107,-0.05327164452560246,-0.08968436257839202,-0.017353870382905007,0.5915178129885346,-7.666383353424072,6.175246970045566,0.20469544668020628,0.2543008294455478,-0.38671290440782485
1698744554.309,0.01666666753590107,-0.008107903131842613,-0.07815466830432415,0.06961714158356189,0.6365588047854602,-7.655013818147778,6.26203794927001,-0.012093783740433163,0.0356913135904603,0.0806175498668803
1698744554.325,0.01666666753590107,0.020835501953586934,-0.09028057490587234,0.06439034684598445,0.6643912529543042,-7.667730091857909,6.256200913679599,-0.29218410015105334,0.494126353605723,0.9097496078207871
1698744554.342,0.01666666753590107,0.046891295838728544,-0.11189677890837192,0.1038373910933733,0.684891604669392,-7.690624060711264,6.29465660880208,-0.5546618933327229,1.9018275411325576,1.184590657049988
1698744554.359,0.01666666753590107,-0.02194828550107777,-0.06967267116308212,0.09198562525808811,0.6121680215030908,-7.6499249705761665,6.28134003111124,-0.6424761947485488,0.5952630990802175,0.7229207754107838
1698744554.375,0.01666666753590107,-0.0337524128023535,-0.0820779792279005,0.040324411603808404,0.5989996931765228,-7.663390016826987,6.228516787940263,-0.3090354841743706,-0.5077226455614268,0.41605179522462954
1698744554.393,0.01666666753590107,-0.0130798463255167,-0.06598083090782166,-0.008061725902557373,0.6203977974489331,-7.647679237475991,6.179586460554599,0.16094479001360862,-0.6169714146140749,-0.06063327012906925
1698744554.409,0.01666666753590107,0.029603695625066755,-0.03663666300177574,0.019717676904797553,0.6651396601688117,-7.617754054811597,6.207869721230864,0.3645200723297196,-0.1264341519944217,-0.5972819002276323
1698744554.426,0.01666666753590107,0.06824534177370369,-0.040887890705466265,0.05426525867283344,0.7043447123538702,-7.6219427386730905,6.24243600769937,-0.2238609174706224,-0.052369861811264524,0.2611750946800483
1698744554.442,0.01666666753590107,0.04883936116658151,-0.08931319117844104,0.026350831308960914,0.6827966051515192,-7.670722259411216,6.214301800104975,-0.2006939430023573,0.587716433738441,0.6987369431896199
1698744554.459,0.01666666753590107,-0.016962167651578784,-0.10394260503351688,0.018319500544667244,0.6142628018252552,-7.68598763308227,6.205774210256338,-0.2960308573555192,0.579705582337368,0.7699192003679358
1698744554.476,0.01666666753590107,-0.02393953238353133,-0.10987316412627697,0.015624270111322402,0.605284472534433,-7.692570518603921,6.202481013929844,-0.04498159816129413,0.29393729765320453,0.23541938513485583
1698744554.492,0.01666666753590107,-0.06664170596934854,-0.09554419452250003,-0.02024023947417736,0.5618894943788647,-7.677606173706054,6.167465230128169,0.5807502811152626,0.797773565576894,0.3179835655956162
1698744554.509,0.01666666753590107,0.0015239216316491366,-0.08184241690635681,0.035357144585251805,0.6278796045716851,-7.663540823474526,6.2237295536637305,0.22777461586503972,0.99999476289005,1.0704561683066651
1698744554.526,0.01666666753590107,0.013528393810614943,-0.09124211341440677,0.025871523359417913,0.6370077175967395,-7.672520248743891,6.215051741689443,0.9198463349613585,0.725233328053362,0.1412867852107979
1698744554.542,0.01666666753590107,-0.10573905999623238,-0.067986910033226,-0.026865210571885106,0.5178962580692023,-7.646632943293452,6.165521110323071,1.3940455583027165,1.1484673873553772,-0.9998113082778116
1698744554.559,0.01666666753590107,0.007278028178960084,-0.09781681562960147,0.043214872348308564,0.630573081439361,-7.675061749920249,6.237345991083979,0.8405329510195539,0.9032586869534536,-0.5989323514075423
1698744554.576,0.01666666753590107,0.04698160447068512,-0.0787970578610897,0.0328086291462183,0.6697783528201282,-7.655162286707759,6.228069628694653,0.7486227772575418,-0.3643752776554006,0.1411663230853971
1698744554.592,0.01666666753590107,0.03198810654357075,-0.03136719816625118,-0.031015315988659857,0.6539169129520654,-7.605782461988926,6.166719964718818,0.8369434198064478,1.4147622691073056,0.02701390509550289
1698744554.609,0.01666666753590107,0.011465396866202354,-0.016215806263685226,0.07132336097955704,0.6299746040895581,-7.5912658608585595,6.26862083479166,-0.822993131952667,1.458062466794013,0.9998386290344917
1698744554.626,0.01666666753590107,0.05860284948572516,-0.028607670325040815,0.07706161237061024,0.6715740040652454,-7.606231374800204,6.271765562558174,-1.4133672029693305,1.3368330123286334,1.693716586320735
1698744554.642,0.01666666753590107,-0.014077625191211699,-0.04006780649423599,0.03077683105766773,0.5925650935517623,-7.619994527214765,6.2232800563305615,-0.20953673012063628,1.0327489350548462,0.7943013748792945
1698744554.659,0.01666666753590107,0.003366188497468829,-0.08130757937729358,0.0573737460821867,0.6066312109682709,-7.661594950103759,6.249767081239819,-0.07145994705675926,1.8107335216155092,0.8967641375481235
1698744554.675,0.01666666753590107,0.05128105523027479,-0.06516074669659137,0.09321078313887118,0.6491284000338986,-7.646184030482172,6.285231193330883,-0.27434073787249746,2.211819305151583,1.5824644374071575
1698744554.692,0.01666666753590107,0.031635493713617326,-0.07890402536690234,0.05845920323133468,0.6199490673007443,-7.660398433795571,6.250813375422358,-0.22824485838113923,2.5040939853504183,1.6996074110364594
1698744554.709,0.01666666753590107,-0.012156630533374846,-0.0809323163241148,0.0883347015351057,0.5708676775392144,-7.662792050933837,6.280741480696201,0.0850512897933574,1.5661293996768373,1.0244504686566922
1698744554.725,0.01666666753590107,-0.056656464658305046,-0.08996493308544158,0.1009440077394247,0.5234328494083136,-7.671472785517573,6.294059811952709,0.36804866544882453,1.1544746454521093,-0.05039340250061853
1698744554.742,0.01666666753590107,-0.04945099025890231,-0.05369885696172714,0.1432633925527334,0.5282213257938623,-7.63451346643269,6.3374553015649315,0.15027175232160422,1.2392197906922193,0.02352037005674715
1698744554.759,0.01666666753590107,0.0525482256218791,0.01686228747367859,0.17617139042019844,0.6293761998049915,-7.563882179370522,6.370525211995839,-0.19523300665773377,0.8002396907540917,-0.19901378316760027
1698744554.775,0.01666666753590107,0.07308397744391112,0.047585927039384836,0.188425307315588,0.6492778184419498,-7.5338038519710295,6.382044969397783,-0.6565115931626903,0.7109127158805196,-0.16483356888972597
1698744554.792,0.01666666753590107,0.09537201629336922,0.08271335452198982,0.17350304799377916,0.6697783162875101,-7.500435250854491,6.3651370892167085,-1.1697257108168073,2.030553981985672,-0.5330281762712067
1698744554.809,0.01666666753590107,0.10731573472842573,0.13582359794080257,0.22459610637128352,0.6778587103579193,-7.449259774890542,6.414215300640463,-1.6705102715636762,3.8180642200929036,-0.8268216130650178
1698744554.825,0.01666666753590107,0.12620149085372687,0.19373802677094934,0.2736719797074795,0.6899793197298422,-7.394043499103188,6.460606464937329,-1.8979595196282149,5.800728971043266,-0.4875423714109481
1698744554.842,0.01666666753590107,0.18443134230859576,0.3693950379282236,0.45508243982493873,0.7339728848330677,-7.223008887049556,6.637627750185132,-3.538248872157229,8.07637938219638,0.24021033595079663
1698744554.86,0.01666666753590107,0.2649649416387081,0.5354536151349544,0.7547066069126128,0.8002623432986438,-7.064092582812905,6.929719768202305,-6.468180606265613,8.410272325998807,1.4529788850608194
1698744554.876,0.01666666753590107,0.3083852734312415,0.589468698439002,0.8726748146891593,0.826748089566268,-7.02294224177897,7.033268990004062,-9.65199047182337,7.648955535447091,2.777364517957339
1698744554.892,0.01666666753590107,0.2793125428777188,0.6932143195956945,0.9466665180951356,0.7770683685854077,-6.9431842299312345,7.07920773435831,-12.823956789360325,4.948104504119526,2.600149070082423
1698744554.909,0.01666666753590107,0.13274415396284311,0.7926344787687063,0.8139011386811733,0.6203979070467874,-6.864627995088696,6.921191593831777,-14.328230821974763,3.0280529510643173,1.9095680664528862
1698744554.925,0.01666666753590107,0.12524506691172718,0.8652753520876169,0.7108803246676921,0.6066312840335071,-6.814796919471025,6.789958830812573,-15.036625599289929,1.9610864758149997,1.0252136355747354
1698744554.942,0.01666666753590107,0.19314269122630356,1.023901148945093,0.5345967060446739,0.6691797293398529,-6.685958358111977,6.576275748121738,-15.929350106830812,1.881522669390579,1.701041323875339
1698744554.959,0.01666666753590107,0.28303759128283706,1.0679530566394329,0.5158914210528135,0.7523782370302826,-6.664858871459961,6.528690990126132,-17.85145413173161,2.1599192589695946,3.5783301297541565
1698744554.975,0.01666666753590107,0.29583905905839053,1.0665309148818254,0.5869219365656375,0.7529768239779397,-6.694190179884433,6.5646051840722555,-20.380946388954133,2.931229256607274,5.058767229052074
1698744554.992,0.01666666753590107,0.25504213457200675,0.9298469007194041,0.6998264312118292,0.6916254064364359,-6.873306391584872,6.623561815431714,-24.847077313631242,3.4285709751256337,6.103951804151397
1698744555.009,0.01666666753590107,0.23272238541003315,0.6790911016970872,0.794554048654437,0.6504749923372641,-7.165247602954507,6.6650108471512794,-27.580273132660224,4.016601170679072,6.587529624275123
1698744555.026,0.01666666753590107,0.23106380454804748,0.6499912639409303,0.8827005341410636,0.6289273235263303,-7.238721419966221,6.694789314821362,-29.562387199608754,3.127396131551449,7.296574977108731
1698744555.042,0.01666666753590107,0.14539729930888862,0.5673451294362545,0.8867015864759683,0.5171478508546948,-7.383119369506836,6.615779490992426,-30.713663395538592,2.7398923926233567,7.351354801799526
1698744555.059,0.01666666753590107,0.09769929019715637,0.5296247628509998,0.8721236105471849,0.45160654387529936,-7.467365924945473,6.537220333540439,-30.726268509651852,0.5432370679245543,7.178167671431037
1698744555.076,0.01666666753590107,0.09260514539591967,0.515554736444354,0.8185796518862247,0.4323032929902896,-7.526321971783042,6.420652055689692,-29.453814512562232,-0.7469667765489311,6.809026682643113
1698744555.092,0.01666666753590107,0.12839143864605576,0.5034440274119377,0.8310457502275704,0.4516067265383899,-7.596055433222651,6.350474357613921,-29.689879510656212,-0.8316808657726588,6.065251952314105
1698744555.109,0.01666666753590107,0.15025138827655463,0.6222106920897961,0.8302928860336541,0.46253027161285276,-7.520787718531489,6.285979381349683,-30.135436655878237,-1.956712593425253,6.133199527951038
1698744555.126,0.01666666753590107,0.19220184844592586,0.6880120747774839,0.8239455628335476,0.4948519026934169,-7.498638430565595,6.214450268664955,-30.791609514346778,-3.312425529280271,6.091802178278414
1698744555.142,0.01666666753590107,0.1717707625747658,0.6950947265148163,0.7854992200613021,0.4647746895387768,-7.550712901195883,6.085612876349687,-32.329812511663256,-3.1485823111397706,4.861960450760034
1698744555.159,0.01666666753590107,0.20724879359332843,0.6742272950530052,0.7677455367058516,0.4944029716158285,-7.617451856994628,5.996130758345127,-33.826351355042654,-2.3190078116741204,4.074347431903768
1698744555.176,0.01666666753590107,0.3198819787511602,0.6024380701273679,0.7440092718094586,0.5994487338519655,-7.7359665927380314,5.89796907480061,-34.69218370027391,-1.184967598114808,5.440831789523308
1698744555.192,0.01666666753590107,0.531985646763444,0.3824164320647716,0.6184358497262,0.7923315137667581,-8.01863085719645,5.670668970167637,-34.96233134232625,1.0056482385321164,7.8712363580223395
1698744555.209,0.01666666753590107,0.35412232120092957,0.22371581640541552,0.5179647201955319,0.5936127211748622,-8.223333930096029,5.493946375605463,-34.45725592867673,2.046509730773645,9.154377893615738
1698744555.225,0.01666666753590107,0.21568302433639763,0.22089549828767774,0.518068765091896,0.43185445324424654,-8.270470944324135,5.419127865986526,-33.303134958957585,1.953625347920407,9.055410160089545
1698744555.242,0.01666666753590107,-0.0602111979978159,0.23577099585831163,0.3589224514916539,0.13018491620039566,-8.310722290691732,5.16429356547892,-31.16786414515527,-0.7217286939572051,7.189993290205267
1698744555.259,0.01666666753590107,-0.01084461635304615,0.07548340326845646,0.051451370295882225,0.16624774310328067,-8.50899445376098,4.789154138679802,-29.298144256093885,-1.7215914420972034,6.474142080750564
1698744555.276,0.01666666753590107,0.1688333208833821,-0.26129005251824855,-0.11494798317253589,0.32710807581348345,-8.89176744417846,4.539110287319123,-26.390133160353013,-0.7197951100918567,8.108892790192932
1698744555.292,0.01666666753590107,0.20197887210007756,-0.43589726236164567,-0.15936258669942616,0.3399769188699778,-9.096917676323653,4.438253081080317,-23.4181044090689,1.4382396569970493,9.323737556728082
1698744555.309,0.01666666753590107,0.007946867351233958,-0.7659130605816841,-0.1576338632106781,0.12165559105239808,-9.453207148963212,4.390817960688471,-20.142332022752445,4.811011935306793,8.761648846529175
1698744555.325,0.01666666753590107,-0.10687063957573846,-0.9275579129993915,-0.10498597660660743,-0.01945261449413374,-9.637259063500165,4.400992733222246,-17.390802268443856,10.189462326479905,6.775015755671034
1698744555.342,0.01666666753590107,-0.2818753060378134,-1.2143424722582101,0.10422668267190456,-0.23463147500094492,-9.948207173156737,4.563798738373816,-13.290544087036821,22.899716956727026,1.6523190232046994
1698744555.359,0.01666666753590107,-0.2767040408797562,-1.3797206659853458,0.3790259128436446,-0.25378504261642226,-10.1261262840271,4.814142157202959,-7.75999562833128,21.232023818030864,-3.5058534983672702
1698744555.375,0.01666666753590107,-0.07910612381026148,-1.4196061016499995,0.6358031641125679,-0.06404465009729611,-10.16997127097249,5.063140883424878,1.4293010738076182,12.363964893101123,-7.111535334096154
1698744555.392,0.01666666753590107,0.09188433857439085,-1.3716057485908268,1.249235214202106,0.13108291535289027,-10.108018964928387,5.70388647237569,15.861449488744423,-4.733972097224103,-12.912698022151716
1698744555.409,0.01666666753590107,-0.026425357849895952,-1.9252549456298351,2.027326496094465,0.08559312034253962,-10.632650157275796,6.537220625801384,18.535524897865066,-24.261543979106264,-20.84662697901831
1698744555.425,0.01666666753590107,-0.08666324292523786,-2.3037854761719703,2.331272618034482,0.08349803862627596,-10.996719616267084,6.8671715420916675,16.823459435225917,-35.69077101730811,-24.643242270683256
1698744555.442,0.01666666753590107,-0.2930294815303758,-2.8008406793296334,2.2614573235303164,0.029628574337996542,-11.464634065136313,6.844576263923942,18.221037375268292,-45.241994854532635,-31.35996321556188
1698744555.459,0.01666666753590107,-0.45991066369898614,-2.7976223018050193,1.6410831992179153,0.03890599617324769,-11.422885758209228,6.280740603913366,22.924435411333302,-45.54833566899688,-36.52071413354553
1698744555.475,0.01666666753590107,-0.6377747564464807,-3.060650137901306,0.8975111497819424,-0.0007476765621453524,-11.652881677797437,5.581336489766836,21.7541320159231,-43.68020379891752,-37.519403903417285
1698744555.492,0.01666666753590107,-0.666927055042237,-3.311251038622856,0.6339201268449425,0.10669175761118531,-11.872845448192953,5.353137682728469,16.630479270416377,-44.179596495177584,-36.09801421638095
1698744555.509,0.01666666753590107,-0.5086457607734948,-3.7322529296696185,0.14242664946764708,0.4402341955874115,-12.26355040065348,4.884473000013828,7.432423170832054,-41.377272331558906,-32.70612519907969
1698744555.526,0.01666666753590107,-0.4309516957182437,-4.086510604220629,-0.19834084439128635,0.6328177185609937,-12.606219344219564,4.540155704718828,-1.6473644680137955,-35.314471990270015,-27.982094869079365
1698744555.542,0.01666666753590107,-0.413767409748584,-4.241003831318021,-0.37604806607663627,0.7468419379521161,-12.759899501368404,4.341139737544953,-8.342775542847095,-28.46472457356893,-23.076425903386305
1698744555.559,0.01666666753590107,-0.18191709446534512,-4.370087891870737,-0.6481628794699907,1.0703583642154932,-12.898314284846187,4.028547075551748,-12.034497058107219,-14.985435039007976,-14.191644114047433
1698744555.575,0.01666666753590107,0.1283154142677784,-4.228150779485702,-0.32381168288290496,1.4167694169193505,-12.769177032801508,4.3195922148644925,-15.467251950986308,-4.489310879172838,-7.800378268025335
1698744555.592,0.01666666753590107,0.31880276867970825,-4.199128683140874,-0.015238485664129256,1.6193788785405456,-12.759451757600903,4.58908895471394,-18.813826078239114,3.2002240907937676,-2.5493412138374025
1698744555.609,0.01666666753590107,0.6630886459231377,-4.2034126440703865,0.21385025595128535,1.9499283452458678,-12.791623257887363,4.769851764577627,-14.822646017877185,14.080854176841596,1.9302118863324265
1698744555.626,0.01666666753590107,0.6505880607903003,-4.4167584576308725,0.3038286330401897,1.9113215512149035,-13.019071246558427,4.840478959986568,-7.110726383566331,21.896302403496918,1.5018364021326842
1698744555.642,0.01666666753590107,0.44706703728213903,-4.647074110692739,0.30829321123361586,1.678485732025653,-13.25235802438557,4.847363751064241,2.6051344678462978,25.905707116111735,-1.1066978990946932
1698744555.659,0.01666666753590107,-0.11082089330516755,-4.825660745561122,0.40756285602003334,1.0910078420776874,-13.412615806359051,4.989069100520014,18.657525736819835,26.89963795167928,-8.073754882007803
1698744555.675,0.01666666753590107,-0.5660235254436731,-4.50581562822163,0.44487025789022444,0.6295260566044598,-13.058874849158524,5.090973769985139,31.93163297361902,24.970577379108825,-14.632073494750074
1698744555.692,0.01666666753590107,-0.725518067959696,-4.173414980691671,0.289555193015933,0.4818332302369177,-12.67325699070394,5.029321908192336,45.4261777356912,23.916265963731075,-22.76006349386236
1698744555.709,0.01666666753590107,-0.86760540247038,-2.8456974736660716,0.13046879290938376,0.3818754570558667,-11.2430207739681,5.039047475653886,61.13208503401422,23.763560009362514,-31.999473827550172
1698744555.725,0.01666666753590107,-0.6462080921404063,-1.2936509867727757,0.10308277333378792,0.6455367687501012,-9.59595908486247,5.160104297095537,67.38834706844914,22.716777169997407,-34.09679269522931
1698744555.742,0.01666666753590107,-0.5499630558721721,-0.6160293731063604,-0.09360358184874057,0.7851492375798523,-8.813207702204584,5.121200273683667,71.71369413395394,21.81951570930034,-33.739618197867244
1698744555.759,0.01666666753590107,-0.5115965003378689,0.6076151805043221,-0.502633880072832,0.8780743356451391,-7.437440157759189,4.9302632758080955,74.89650081547735,19.60046921023324,-32.11876649649903
1698744555.775,0.01666666753590107,-0.6181421274766326,1.554310924693942,-0.7851672116279601,0.8108867592960596,-6.371571506178379,4.810253917592764,73.87792836493169,17.2146807180532,-30.931618147048283
1698744555.792,0.01666666753590107,-0.7018583754308522,1.897716365841031,-1.0365414348095654,0.7641998269230127,-5.9097869383662935,4.7135874410420655,70.63080862218344,15.94139514543213,-28.950248570719285
1698744555.809,0.01666666753590107,-0.8470729020513593,2.5403426539719103,-1.4695131651133297,0.665438862311095,-5.114016499659419,4.471325329598784,65.3673760553124,13.846064716575114,-28.361826066175396
1698744555.826,0.01666666753590107,-0.9495996489375829,3.041742608335614,-1.9210306059330702,0.5967550560548901,-4.502145999798178,4.150949466383457,61.21558409661762,14.057047552489516,-27.29689882928015
1698744555.842,0.01666666753590107,-0.9701816875867545,3.157227767124772,-2.1724439920812846,0.6046857029236853,-4.280981036919355,4.021361547961831,57.74156546964154,13.543807501460895,-24.38357043127042
1698744555.859,0.01666666753590107,-1.0375051652751863,3.4039667317211624,-2.4342326417714357,0.570419422315061,-3.9003064800858493,3.908689108505845,53.620898682994515,8.9363650854981,-21.322259154703197
1698744555.875,0.01666666753590107,-0.936406405365467,3.435972812312841,-2.5752199060857293,0.6989573932923376,-3.7722143531799315,3.869779824396968,51.3839297675453,4.1676734291755295,-19.313302444316516
1698744555.892,0.01666666753590107,-0.8977550415404141,3.4537346789747474,-2.744445422890782,0.7695867806583643,-3.6599873194038866,3.796609374246001,50.56926919957578,-0.23935298712740136,-18.00995720915822
1698744555.909,0.01666666753590107,-0.8459110186651349,3.5238083321541547,-3.1581776151955125,0.8696940453127026,-3.462016185107827,3.5070594419270753,52.42964538985259,-4.627110799451492,-16.94581032137565
1698744555.925,0.01666666753590107,-0.8056159792862833,3.4166415043771265,-3.604975041756034,0.9499005315802991,-3.4663574291825294,3.156160430154204,56.01527272296126,-5.0517987285513675,-17.219965576923496
1698744555.942,0.01666666753590107,-0.787014739190787,3.2596675663799046,-3.700604576474428,1.005714480999857,-3.5136399893611667,3.160796857783198,58.302317170310424,-2.7828487329740366,-16.47449482524621
1698744555.959,0.01666666753590107,-0.5800868298485875,2.843996514967084,-3.5824206801205873,1.2481279836125672,-3.7785003015816208,3.4154812284260987,58.419058763604276,2.010417090208594,-12.594675022885813
1698744555.975,0.01666666753590107,-0.5425071869082748,2.5346955879956483,-3.215016523748636,1.2979567211426795,-3.976169822582602,3.8836967060685157,56.80732194968345,5.926188447038999,-10.267450280196757
1698744555.993,0.01666666753590107,-0.566172870786488,2.252690079706907,-2.999688596460223,1.275062752289325,-4.14945192130208,4.197038432863354,54.77054929390189,10.68631589991602,-8.693763596368418
1698744556.009,0.01666666753590107,-0.36507892829477784,1.7896996432363985,-2.2711679856836793,1.4553757725588976,-4.474464212146401,5.051170459645986,50.23155732625367,19.357230805963454,-6.5374233565239095
1698744556.026,0.01666666753590107,-0.1953228117443621,1.5715432145237922,-1.344531279182434,1.58945121165812,-4.597915819770098,6.0664616011559955,45.23553691067239,27.56368089561897,-5.438316999248274
1698744556.042,0.01666666753590107,-0.10890797235593198,1.5091408266246318,-0.9297603914797306,1.6259626408450305,-4.575619232288003,6.562659895223379,39.48472253519675,31.370153857803537,-4.365547851412208
1698744556.058,0.01666666753590107,0.0946994142614305,1.363418350481987,-0.24112112471461294,1.7537528621949254,-4.628140862163901,7.343018245264887,29.180890398612277,29.980364040962268,-1.3638865378574077
1698744556.076,0.01666666753590107,0.1242129473850131,1.2868442293673752,0.511280127865076,1.7326542523257433,-4.658517880249023,8.142533131197094,17.02584818561715,19.937762734468684,1.0797932503454841
1698744556.093,0.01666666753590107,0.08833601670935749,1.2264058350175617,0.6634060413092374,1.6689084869936108,-4.697274019622802,8.317308683344722,5.750792177360833,5.54844440810462,1.5240994037323408
1698744556.109,0.01666666753590107,0.030799627411365507,1.5717659173637628,0.6285252820640802,1.619677715356648,-4.352957893371582,8.27989869788289,-5.155597540254875,-13.510661447192469,1.5658794574418973
1698744556.126,0.01666666753590107,0.013200696226209402,2.072974148547649,0.002407645663619041,1.63718589951843,-3.869180689460039,7.632869206357002,-11.210285324357086,-24.850352389338262,3.802344966604942
1698744556.142,0.01666666753590107,0.024146014741063117,2.300881571424007,-0.3547644550293684,1.6947955001831054,-3.672554540032148,7.241113868060707,-17.70658581943564,-31.158233578425552,9.073586147244596
1698744556.159,0.01666666753590107,-0.06630553281754255,2.6520804429262874,-1.0301894354343413,1.6650177631653844,-3.388991865429282,6.498313972041011,-27.907022552364463,-35.61788948376949,17.98471795262773
1698744556.175,0.01666666753590107,-0.3569802313826978,2.8346956026583907,-1.6970236976265907,1.4139261563174426,-3.2779619324833154,5.76419364156127,-35.46862252964803,-38.35104432166345,22.94899677158867
1698744556.192,0.01666666753590107,-0.5339584081411362,2.8711662614434954,-2.0428040512114762,1.2761103616461158,-3.3271938731640573,5.337877277493477,-41.20014162071838,-41.230365207795685,24.132222884908536
1698744556.209,0.01666666753590107,-0.6592856003783643,2.664733003750443,-2.8378987826138733,1.2054808281496165,-3.6583401367187496,4.422391495081782,-44.36521371606185,-39.628644866292674,21.678532067094817
1698744556.226,0.01666666753590107,-0.4850147828824818,2.397401917502284,-3.337938554540276,1.4110828957155346,-4.021360378918051,3.82967753111124,-46.57342412001073,-30.75481528528792,21.235053006927764
1698744556.242,0.01666666753590107,-0.5349348519578576,2.4402514636695383,-3.3663796361267564,1.3756186374939978,-4.080616870006919,3.7045793253242967,-51.93750635449108,-24.16277773616059,21.460850523151926
1698744556.259,0.01666666753590107,-0.5339759437978268,2.288022674372792,-3.2857214605689045,1.379509361322224,-4.383482795494794,3.642479719763994,-59.1350948150534,-21.334278580095127,22.789586986549743
1698744556.276,0.01666666753590107,-0.3843820330493152,1.974651721483469,-3.043033232668042,1.5270521847598253,-4.817133740234374,3.7678766162365673,-61.78289277888971,-22.155552478728506,24.06423005926835
1698744556.293,0.01666666753590107,-0.30510698241293427,1.874944562062621,-2.7239053236871955,1.6026188823975622,-5.041140648540854,3.961806366187334,-65.20077408107745,-25.240250323013854,26.486073412529596
1698744556.309,0.01666666753590107,-0.32740561572164295,1.4999790305256844,-2.1509657352447507,1.577629987091571,-5.594501676288247,4.345927264082431,-74.05428384930141,-34.07916056188692,30.929910599755782
1698744556.325,0.01666666753590107,-0.5303086534619331,1.0353232911914587,-2.051146347621083,1.376366971643269,-6.204723239898681,4.282629388648271,-79.27469305459054,-41.49385000031268,34.878439543845566
1698744556.342,0.01666666753590107,-0.7007962991572916,0.8515133687168359,-2.2358049958795307,1.2089223469056187,-6.535870087975264,3.924545433807373,-79.16196078233948,-44.91022183069385,36.28087545593512
1698744556.359,0.01666666753590107,-0.9304602103121579,0.12387597051560878,-2.3584108003288504,0.9759373285040259,-7.452403333613276,3.5691596320092676,-78.44946276888044,-38.2434107856278,33.45066021484069
1698744556.376,0.01666666753590107,-0.7425709095694124,-0.4607482105016708,-1.773451103746891,1.1541557145819068,-8.172759342634677,3.9796167481660842,-78.3590447246478,-33.93948660845474,31.486943262421587
1698744556.393,0.01666666753590107,-0.48077246913760896,-0.6344008960992098,-1.3610878617078066,1.3997110223516822,-8.474877080103754,4.221130671590567,-73.76319484725381,-27.703518773591227,30.032966742855123
1698744556.409,0.01666666753590107,-0.49873979524374007,-0.6180711080670357,-0.793250564840436,1.3489834362857043,-8.607454827991127,4.585047570368648,-62.212074545576634,-24.008922602464175,27.2384409477213
1698744556.425,0.01666666753590107,-0.8243664185941219,-0.2590261992394924,-0.7205249358475208,1.0058647031255066,-8.340352289801835,4.524744200575351,-52.664624387868535,-28.69866879792562,24.370640883171586
1698744556.443,0.01666666753590107,-0.8729530471086502,-0.08768646675944328,-0.6467033283114433,0.9501989300049841,-8.245480879974364,4.48134812644124,-44.555950163729044,-31.58916387354,20.822012684796878
1698744556.459,0.01666666753590107,-0.6508294683307408,0.2881353893458843,-0.5666881268322468,1.1773492509037256,-7.952641258460283,4.425086140993237,-36.20944875268971,-33.64523522882143,16.66834071653305
1698744556.475,0.01666666753590107,-0.39886853130236266,0.405845822969079,-0.6783458362877368,1.4372697686344384,-7.885902887183427,4.225318186408281,-31.051914853805133,-31.762882904890102,15.919881757093883
1698744556.493,0.01666666753590107,-0.27587533497065303,0.4057587292075157,-0.8096703692436218,1.5625162968508899,-7.930793583789467,4.016574898207187,-26.77427665965287,-29.642126243074067,18.351461545016978
1698744556.509,0.01666666753590107,-0.2649022516660392,0.42922845212221145,-1.047210128340125,1.563564052338153,-7.9595251727551215,3.691563191884756,-21.184094673077592,-26.326409202944085,19.472952993523684
1698744556.526,0.01666666753590107,-0.5941746841728687,0.38504736509025095,-1.0766145020008087,1.224036329407245,-8.0373367267102,3.6061218737035987,-19.731009493197813,-23.724638176377194,17.783970155184594
1698744556.542,0.01666666753590107,-0.6387395098254084,0.1652589512616396,-0.9224895236939191,1.168670562146604,-8.299950721308589,3.6866254432216286,-20.892401199288443,-22.688780224589525,15.199361686454653
1698744556.559,0.01666666753590107,-0.5925285244010389,0.012623919251561163,-0.7711497921913861,1.2077258305974303,-8.485650987574457,3.7795492261126635,-22.114458645587124,-22.147356251724492,15.519781228345582
1698744556.576,0.01666666753590107,-0.5750780617758632,-0.380940514293313,-0.7074924357950687,1.2149082894474268,-8.912715539661049,3.7841874073073267,-22.270938279472116,-18.654238708281767,15.214833772472025
1698744556.593,0.01666666753590107,-0.46054786562398076,-0.9625012160867452,-0.4200891601160168,1.3145669335514307,-9.536853400421142,3.99577468676269,-22.16259440376279,-12.180283177072909,10.913930246459403
1698744556.609,0.01666666753590107,-0.3188514301270246,-1.1593149970412253,-0.2586199565261602,1.44744497955963,-9.764002698406577,4.10141912727803,-23.128253378808363,-10.693582367419268,8.729606721585352
1698744556.625,0.01666666753590107,0.045425534135103224,-1.2837205443888902,-0.061326867622137064,1.802984218353778,-9.919028424945473,4.241330579054355,-23.389339067379392,-10.072067596346665,10.139654025731232
1698744556.642,0.01666666753590107,0.48700887930914755,-1.4624422038137912,0.12864917626678943,2.222119292615354,-10.140792522761226,4.35311045358479,-24.940727744888576,-9.000211986312086,14.570396886544858
1698744556.659,0.01666666753590107,0.6534219690419734,-1.6968471720159053,0.23255028024613855,2.3606835675664244,-10.411038619673251,4.3941120337978,-27.097470965894118,-7.094621224390264,17.84752506541156
1698744556.676,0.01666666753590107,0.681550623678416,-2.434365912762284,0.09217939426451921,2.350657555853575,-11.18585920933187,4.190453793776035,-25.689772393049076,-1.3649155485445525,19.59100939823277
1698744556.692,0.01666666753590107,0.2562630181364715,-3.2646319107890127,-0.041110593545436856,1.8608938248783349,-12.058547468024491,3.9915854183793065,-19.020239517598778,9.695353635316488,17.74007252938892
1698744556.709,0.01666666753590107,-0.0030748774006962775,-3.6416041059732436,0.06938800900280476,1.5515931901678441,-12.4612234287858,4.065357926076651,-18.180681202557274,15.864050083270905,13.737083071952037
1698744556.726,0.01666666753590107,-0.2847802336990833,-4.346105543258786,0.42130175077617166,1.2108677818849682,-13.197288463592528,4.369719058558345,-19.0029010823907,20.923802993997576,8.293372784580393
1698744556.742,0.01666666753590107,-0.38659152579233047,-4.445437439626455,0.6130342829436063,1.069909159143269,-13.31849375359416,4.526837957984209,-18.36080695134885,23.994452846707503,5.77310853981338
1698744556.759,0.01666666753590107,-0.21625293317884206,-4.332943279346823,0.7151561022907496,1.201291267505288,-13.226317574200033,4.597018870930373,-17.23783335179225,28.031822061331646,5.382788415069716
1698744556.775,0.01666666753590107,0.38579409180432556,-3.841934955137968,1.111122336280346,1.7576438782840966,-12.75496029140055,4.964229842817783,-17.145700930077947,33.63326532230098,7.352804509450862
1698744556.792,0.01666666753590107,0.9067921883463859,-3.143215608385205,1.6706249355226754,2.19922415471822,-12.08563012073934,5.4828737774491305,-19.853005209510705,35.65583801479808,13.757225299814404
1698744556.809,0.01666666753590107,1.0055369324758647,-2.7540304128378628,1.80202487180233,2.227505807959288,-11.721563584357499,5.578342860908806,-19.875467994143584,33.02224001424622,17.110846474743372
1698744556.825,0.01666666753590107,0.674412296231091,-2.188630572250485,1.7308908959150313,1.8248309431765228,-11.17912727072835,5.474942399927974,-15.19040389335818,29.217916854102917,16.81180542495458
1698744556.842,0.01666666753590107,0.27738990425206717,-1.9800123717337845,1.7098849327653645,1.3510781435426324,-10.988038881683348,5.434540539173781,-3.144307893379812,23.99380910137823,9.117668188147858
1698744556.859,0.01666666753590107,0.08304901621714234,-1.7512340112417935,1.8328864585340021,1.1237789887577294,-10.758047053748369,5.569813225233554,8.578095196547897,19.300559018872566,0.458304519369092
1698744556.876,0.01666666753590107,-0.11716887409240007,-1.1207803914636374,2.1947341498225925,0.9246112650882452,-10.10488008238077,5.985657295125723,21.859950429186817,8.702562587566687,-12.721583352759236
1698744556.892,0.01666666753590107,0.3538733514085412,-0.6660182696342468,2.8033640603274104,1.4294885401736943,-9.621550622236729,6.651992083363234,25.401927730857228,-2.279523341855923,-18.391184217682483
1698744556.909,0.01666666753590107,0.7567106402114033,-0.5581874249905348,3.1790327716976403,1.885284827356413,-9.484332939589024,7.080404835188388,20.678069863133445,-13.030099582474126,-19.233467778202822
1698744556.925,0.01666666753590107,1.765089079723507,-0.3734644793242216,3.964661171096563,2.952350433636829,-9.277532017627358,7.898921943232416,11.904544171411263,-21.44010211600072,-15.242791444292179
1698744556.942,0.01666666753590107,2.183135920356959,-0.6329658948600292,4.278767452523112,3.4361285873964427,-9.524581947869061,8.220792721180617,-0.004550093266205311,-26.633547441993926,-5.688043656342749
1698744556.959,0.01666666753590107,2.0910756224274634,-0.9821487503647803,4.14747506827116,3.380463691058755,-9.87608243266642,8.07250244037658,-5.670900308412841,-29.41488926448233,-1.3686589190965426
1698744556.975,0.01666666753590107,1.6969256440795957,-1.93619310375154,3.245565683530271,3.018939240375161,-10.835259472766518,7.1480407398268575,-4.391252414579904,-27.651583722689743,-2.1293859655021103
1698744556.992,0.01666666753590107,1.1067710092030465,-2.694396320608258,2.2604215507417917,2.477101623291522,-11.592277863752841,6.1489107517838475,4.891663235913127,-25.704957611121305,-5.903116494909519
1698744557.009,0.01666666753590107,0.8580902628891169,-3.036622781103849,1.7564295340582727,2.272546726690978,-11.921029925647376,5.659894770435988,15.726066601658308,-25.06005797987787,-10.180139972036484
1698744557.026,0.01666666753590107,0.594318622688204,-3.6087352710723875,0.9559668458819389,2.0837040707461534,-12.45643385642171,4.914550450630486,27.00512339322096,-22.446687584553008,-16.66059357446696
1698744557.042,0.01666666753590107,0.4055639372877776,-4.088538895177841,0.9673515787273644,1.960103702301532,-12.899062472864985,4.983383456099033,29.219709778760045,-19.92061042191549,-20.662194795955042
1698744557.059,0.01666666753590107,0.28988077170848847,-4.261840283119678,0.9331137935608624,1.915810533197224,-13.032536877331136,5.007623578864336,28.67755668320111,-18.247456546977904,-23.52121806742129
1698744557.076,0.01666666753590107,0.08662994344383478,-4.387676740053296,0.6642632426604628,1.8085212480843067,-13.103918105977773,4.815490356941521,27.65277559069991,-14.19476977936636,-23.890207084500183
1698744557.092,0.01666666753590107,0.03341200186684728,-4.3904877058207985,0.48925826567113395,1.8228858735233544,-13.066656589075922,4.695480998726189,26.481420346157524,-13.24356689969912,-22.32804207602801
1698744557.109,0.01666666753590107,-0.0402460856705904,-4.376707602271438,0.3408732923209667,1.8115134156376123,-13.013534655219315,4.600760980068147,26.997909005910135,-13.130809014238672,-20.128488936852122
1698744557.125,0.01666666753590107,-0.031331542330980296,-4.334317490309477,-0.039513972003757954,1.8784014245182274,-12.930334978485106,4.27694374422729,28.211288696868312,-10.887412890780475,-19.43172597169349
1698744557.142,0.01666666753590107,-0.037300387607514855,-4.315774702402949,-0.09882511588931082,1.9461876974128185,-12.855069601881503,4.296249625460804,29.085151637016207,-5.863956459076897,-21.072304966931995
1698744557.159,0.01666666753590107,-0.048062166249006985,-4.094337936845421,-0.1660334427654743,1.9846442693181334,-12.586917262378334,4.296546270319819,33.018217032825085,1.6609922962335577,-20.48494967944592
1698744557.176,0.01666666753590107,0.14025456612557172,-3.5050966174215077,-0.280937002274394,2.2186770432069896,-11.927014260753989,4.2931043131724,39.16069153078218,12.279609495530527,-18.12706934021455
1698744557.192,0.01666666753590107,0.3256516116611659,-3.072362203004956,-0.20909633942246436,2.4239802739568055,-11.43425880061686,4.464889159071445,43.63359117292677,19.55499893338117,-17.97445047075791
1698744557.209,0.01666666753590107,0.38946591218486426,-2.755829571214318,-0.0507093197569251,2.498499362237751,-11.052531519860029,4.733338435694575,45.87617791896832,26.444993239766553,-18.076729138484264
1698744557.226,0.01666666753590107,0.49274713070020076,-2.0202537812292576,0.2596118901729584,2.6001037335820496,-10.224588411822914,5.201106754091382,48.56133018737543,35.5144121178438,-17.059686650312685
1698744557.242,0.01666666753590107,0.5137333662360907,-1.356639065605402,0.33473055178225036,2.605490248925984,-9.485078789520264,5.4065585995316505,53.19958870932603,43.482391275270196,-17.023368826948435
1698744557.259,0.01666666753590107,0.36859687328785656,-1.0333861856490374,0.3490641975611448,2.4328091848395763,-9.078964086481928,5.562331345045566,56.28658832736168,50.25857413951566,-16.5855349181304
1698744557.276,0.01666666753590107,0.0049319034442305565,-0.3775385968953371,0.3310340353518724,2.0151706327460706,-8.304440433943272,5.743392845594883,59.09194167987726,57.61920946084994,-17.259775334500915
1698744557.293,0.01666666753590107,-0.47028614643663164,0.24738135415315626,0.09296353037953377,1.4930843025758862,-7.58438194656372,5.658845845904946,60.125574697542795,59.97197740348755,-19.326119294294045
1698744557.309,0.01666666753590107,-0.6206849438272416,0.5460013126343488,-0.21027824268341064,1.2955632501348853,-7.186797171461582,5.50831392365396,60.220555308140995,60.393837207384216,-21.590417504159774
1698744557.326,0.01666666753590107,-0.7147355387911201,1.2004086394518614,-0.7880816377699374,1.1399397038333117,-6.39700756072998,5.128830622431636,58.71134304875664,58.19556814377229,-22.485956049638702
1698744557.342,0.01666666753590107,-0.8374556172698736,1.902367406517267,-1.3062813357651233,0.9723460260137915,-5.594353792250156,4.751296701711416,56.2347881726963,56.180112508390344,-22.387780618056233
1698744557.359,0.01666666753590107,-0.8042359231047331,2.096989814907312,-1.5701210727661847,0.9611230596013367,-5.3021109675854445,4.619166113069653,52.525233887286916,54.31246216664747,-22.640053655050654
1698744557.376,0.01666666753590107,-0.7456269361391663,2.576145788758993,-1.970194157552719,0.9597763211674988,-4.7022120605468745,4.377051301142573,45.53098698850504,51.7334646983207,-20.673073579755577
1698744557.393,0.01666666753590107,-0.6847367063686252,2.823427189669013,-2.406900398209691,0.9718965286806225,-4.374654761394858,4.043958579695224,40.93670463952557,49.19919472377375,-16.545433169965964
1698744557.409,0.01666666753590107,-0.5590813050903379,2.853438881573081,-2.668403801217675,1.041478160559386,-4.27095648651123,3.877711201918125,38.69787791262211,48.92869532697915,-12.336969424180294
1698744557.425,0.01666666753590107,-0.261090584423393,2.9514713857799766,-2.8141087417036292,1.2514197186343372,-4.080318179321289,3.8519735340714454,37.7455514668364,48.12147625011037,-7.266196857001454
1698744557.442,0.01666666753590107,-0.04367445268407464,2.9245225885778665,-2.964129791823029,1.3962686268128455,-4.038119206017256,3.790021812549233,39.06369601437883,45.59232550234634,-3.5480740992782924
1698744557.459,0.01666666753590107,-0.05541837423071265,2.8886715229958293,-3.1119962942570445,1.3094791088931261,-4.000561336517333,3.7324130886673923,42.78669552716938,44.30004688119076,-1.9961947153659232
1698744557.476,0.01666666753590107,-0.3205857065737247,2.954951044589281,-3.246995716333389,0.9452608890809118,-3.8239883795589207,3.7253795367687936,48.02534816773161,41.28057392838445,-1.2573483934099026
1698744557.492,0.01666666753590107,-0.39780272870175537,3.046802814334631,-3.3301720121920106,0.7948753895632922,-3.641431672015786,3.7419904798299073,50.494680118744654,40.43354167884366,0.020117441746199862
1698744557.509,0.01666666753590107,-0.25781002838276323,2.983008679816127,-3.3065707718521353,0.8554787652164697,-3.610307634955644,3.866938463491201,51.876403482176144,43.97300034825763,1.5163642144973013
1698744557.526,0.01666666753590107,0.28128282003737987,2.7719202897936106,-2.840074373087287,1.2671317400943487,-3.6926083170235153,4.468033302316069,50.53018685714497,50.45581975746187,6.494955801585709
1698744557.542,0.01666666753590107,0.5809632473569363,2.40511176122725,-2.1982839512586594,1.4514851217959075,-3.967193319922685,5.204848278707265,48.246670202502116,51.46815283020072,13.924214887284755
1698744557.559,0.01666666753590107,0.5605310655072331,2.1720541159808633,-1.9420564428269862,1.3013986782900988,-4.110246869117021,5.551558606618642,48.65744119428127,50.93376907482268,21.83347149332197
1698744557.576,0.01666666753590107,-0.021226327902078627,1.7827099304795264,-1.179106908226013,0.540042404229939,-4.372561003986001,6.43456835283935,51.54521785460598,45.20575728589113,24.094580004845305
1698744557.593,0.01666666753590107,-0.5820896941035986,1.3970137460917234,-0.30855507704019547,-0.13871372989173977,-4.66001484080851,7.391202722719311,48.67306866710226,38.10585760593292,18.90546331123859
1698744557.609,0.01666666753590107,-0.7623162051334976,1.109531267696619,0.06223755272626876,-0.410755003124848,-4.8584331343501805,7.8359239275276655,40.433674867532474,27.423883998781733,11.853200785646631
1698744557.625,0.01666666753590107,-1.1046637347254902,0.7817354836136102,0.3310089009106159,-0.8083421345808542,-5.093962722668051,8.176948026496172,28.038811052399858,3.2406799415779877,-1.6879348311883193
1698744557.642,0.01666666753590107,-1.1135228215508162,0.9372527930617331,0.03495850065648556,-0.789338140637055,-4.888808983391523,7.916728233557939,19.673224385272214,-17.584456914433936,-14.836999660417966
1698744557.659,0.01666666753590107,-0.8837650946326553,0.9636790276944637,-0.11282733775675297,-0.4777924304135143,-4.828657589289546,7.789987521260977,11.513116275361588,-32.60141498400881,-22.190301066130946
1698744557.676,0.01666666753590107,0.20130097283851353,1.017185576954484,-0.3166653182595968,0.7498343247011303,-4.752489710888266,7.594110144373774,1.6194276069262683,-35.60475502999555,-20.440287072463203
1698744557.692,0.01666666753590107,1.0997183142125606,1.241902094835043,-0.14787468574047088,1.7413329410828648,-4.532522433361411,7.752426144629716,-9.146822850620056,-30.342548482080534,-11.562112637372673
1698744557.71,0.01666666753590107,1.1470907446317373,1.294241353881359,-0.03305821999311447,1.8553568682130426,-4.509778102111816,7.839814505225419,-20.11967457772822,-27.50617411790205,0.9337990240535193
1698744557.727,0.01666666753590107,0.6044360390115529,1.1575380504965782,-0.09810030874609947,1.3789106647767126,-4.719718491142988,7.713970449507236,-31.477572242880328,-31.28666845557847,10.55110718265374
1698744557.742,0.01666666753590107,-0.25981895705237984,0.7608095999628305,-0.4756675472140312,0.562188696521148,-5.187786084747314,7.27732733721435,-35.99138813324788,-31.602834497163776,11.30695213790663
1698744557.759,0.01666666753590107,-0.5537956197723746,0.6952513783812523,-0.59896542558074,0.3103488285891712,-5.33039189017415,7.089683535665273,-38.141791231156354,-25.47004349990247,9.025184865464945
