msFromStart,interval,accx,accy,accz,accGx,accGy,accGz,rotRate_alpha,rotRate_beta,rotRate_gamma
1698418950004.0,16,0.0,0.0,0.0,0.1,9.5,-0.2,-0.8,0.4,0.2
1698418950020.0,16,0.0,0.0,0.0,0.1,9.5,-0.2,-0.6000000000000001,0.5,0.1
1698418950037.0,16,0.0,0.0,0.0,0.1,9.5,-0.2,-0.7,0.5,0.1
1698418950053.0,16,0.0,0.0,0.0,0.1,9.5,-0.2,-0.8,0.7,-0.1
1698418950069.0,16,0.0,0.0,0.0,0.0,9.5,-0.2,-1.0,0.30000000000000004,-0.2
1698418950086.0,16,0.0,0.0,0.0,0.0,9.5,-0.2,-1.0,-0.4,-0.1
1698418950103.0,16,0.0,0.0,0.0,0.1,9.5,-0.2,-1.0,-0.6000000000000001,-0.1
1698418950119.0,16,0.0,0.0,0.0,0.0,9.5,-0.2,-0.8,-0.8,-0.2
1698418950136.0,16,0.0,0.0,0.0,0.1,9.5,-0.2,-0.6000000000000001,-0.7,-0.5
1698418950153.0,16,0.0,0.0,0.0,0.1,9.5,-0.2,-0.6000000000000001,-0.6000000000000001,-0.5
1698418950169.0,16,0.0,0.0,0.0,0.1,9.5,-0.2,-0.8,-0.5,-0.8
1698418950186.0,16,0.0,0.0,0.0,0.1,9.5,-0.2,-0.6000000000000001,-0.30000000000000004,-0.9
1698418950203.0,16,0.0,0.0,0.0,0.1,9.5,-0.2,-0.6000000000000001,-0.30000000000000004,-0.9
1698418950220.0,16,0.0,0.0,0.0,0.1,9.5,-0.2,-0.6000000000000001,-0.5,-0.8
1698418950236.0,16,0.0,0.0,0.1,0.1,9.5,-0.1,-0.6000000000000001,-0.2,-0.7
1698418950254.0,16,0.0,0.0,0.0,0.0,9.5,-0.2,-0.5,-0.1,-0.6000000000000001
1698418950269.0,16,0.0,0.0,0.0,0.1,9.5,-0.2,-0.6000000000000001,-0.30000000000000004,-0.5
1698418950286.0,16,0.0,0.0,0.0,0.1,9.5,-0.2,-0.8,-0.1,-0.5
1698418950304.0,16,0.1,0.0,0.0,0.1,9.5,-0.1,-0.8,0.0,-0.5
1698418950320.0,16,0.0,0.0,0.0,0.1,9.5,-0.1,-0.7,0.6000000000000001,-0.5
1698418950336.0,16,0.0,0.0,0.0,0.1,9.5,-0.1,-0.5,0.7,-0.5
1698418950353.0,16,0.0,0.0,0.0,0.1,9.5,-0.2,-0.4,0.8,-0.5
1698418950371.0,16,0.0,0.0,0.0,0.0,9.5,-0.2,-0.6000000000000001,0.5,-0.5
1698418950387.0,16,0.0,0.0,0.0,0.0,9.5,-0.2,-0.5,0.8,-0.4
1698418950419.0,16,0.0,0.0,0.0,0.0,9.5,-0.2,-0.5,0.7,-0.4
1698418950436.0,16,0.0,0.0,0.0,0.0,9.5,-0.1,-0.2,1.0999999999999999,-0.7
1698418950453.0,16,0.0,0.0,0.0,0.0,9.5,-0.2,0.0,1.0999999999999999,-0.8
1698418950470.0,16,0.0,0.0,0.0,0.1,9.5,-0.2,0.0,1.2000000000000002,-0.8
1698418950486.0,16,0.0,0.0,0.1,0.0,9.5,-0.1,0.2,1.3,-0.9
1698418950503.0,16,0.0,0.0,0.0,0.0,9.5,-0.2,0.30000000000000004,1.0,-0.9
1698418950520.0,16,0.0,0.0,0.0,0.0,9.5,-0.1,0.30000000000000004,1.0999999999999999,-0.8
1698418950536.0,16,0.0,0.0,0.0,0.0,9.5,-0.1,0.2,1.0999999999999999,-0.7
1698418950553.0,16,0.0,0.0,0.0,0.0,9.5,-0.1,0.2,1.0999999999999999,-0.6000000000000001
1698418950570.0,16,0.0,0.0,0.0,0.0,9.5,-0.1,0.30000000000000004,1.6,-0.7
1698418950586.0,16,0.0,0.0,0.0,0.0,9.5,-0.2,0.30000000000000004,1.4,-0.5
1698418950604.0,16,0.0,0.0,0.0,0.0,9.5,-0.2,0.2,1.5000000000000002,-0.4
1698418950620.0,16,0.0,0.0,0.0,0.0,9.5,-0.2,0.2,1.4,-0.4
1698418950637.0,16,0.0,0.0,0.0,0.0,9.5,-0.2,0.0,1.4,-0.4
1698418950653.0,16,0.0,0.0,0.0,0.0,9.5,-0.2,-0.1,1.5000000000000002,-0.30000000000000004
1698418950672.0,16,0.0,0.0,0.0,0.0,9.5,-0.2,-0.1,1.3,-0.4
1698418950686.0,16,-0.1,0.0,0.0,-0.1,9.5,-0.1,0.0,1.0,-0.30000000000000004
1698418950703.0,16,0.0,0.0,0.0,0.0,9.5,-0.1,0.0,0.9,-0.1
1698418950722.0,16,0.0,0.0,0.0,0.0,9.5,-0.1,0.0,0.9,-0.1
1698418950736.0,16,0.0,0.0,0.0,0.0,9.5,-0.2,0.0,0.9,-0.1
1698418950754.0,16,0.0,0.0,0.0,0.0,9.5,-0.2,-0.1,0.9,-0.1
1698418950770.0,16,0.0,0.0,0.0,0.0,9.5,-0.2,0.1,0.7,0.1
1698418950787.0,16,0.0,0.0,0.0,-0.1,9.5,-0.2,0.2,0.5,0.30000000000000004
1698418950803.0,16,0.0,0.0,0.0,-0.1,9.5,-0.2,0.0,0.1,0.30000000000000004
1698418950820.0,16,0.0,0.0,0.0,0.0,9.5,-0.2,0.0,0.0,0.30000000000000004
1698418950836.0,16,0.0,0.0,0.0,-0.1,9.5,-0.2,0.1,-0.1,0.30000000000000004
1698418950853.0,16,-0.1,0.0,0.0,-0.1,9.5,-0.2,-0.2,-0.2,0.30000000000000004
1698418950869.0,16,0.0,0.0,0.0,-0.1,9.5,-0.2,-0.30000000000000004,-0.2,0.4
1698418950886.0,16,0.0,0.0,0.0,0.0,9.5,-0.2,-0.5,-0.2,0.30000000000000004
1698418950905.0,16,0.0,0.0,0.0,0.0,9.5,-0.2,-0.6000000000000001,-0.30000000000000004,0.30000000000000004
1698418950920.0,16,0.0,0.0,0.0,0.0,9.5,-0.1,-0.6000000000000001,-0.9,0.1
1698418950936.0,16,0.0,0.0,0.0,0.0,9.5,-0.2,-0.5,-0.7,0.30000000000000004
1698418950953.0,16,0.0,0.0,-0.1,-0.1,9.5,-0.2,-0.9,-0.7,0.2
1698418950970.0,16,0.0,0.0,0.0,-0.1,9.5,-0.2,-1.2000000000000002,-0.8,0.30000000000000004
1698418950986.0,16,0.0,0.0,0.0,0.0,9.5,-0.1,-0.8,-0.8,0.4
1698418951003.0,16,0.0,0.0,0.1,0.0,9.5,-0.1,-0.2,-0.6000000000000001,0.30000000000000004
1698418951020.0,16,0.0,0.0,0.0,0.0,9.5,-0.1,-0.1,-0.6000000000000001,0.2
1698418951037.0,16,0.0,-0.1,0.0,0.0,9.4,-0.1,0.0,-0.5,0.1
1698418951056.0,16,0.0,0.0,0.0,0.0,9.5,-0.1,0.0,-0.1,0.0
1698418951070.0,16,0.0,0.0,0.0,0.0,9.5,-0.1,-0.1,0.0,-0.1
1698418951086.0,16,0.0,0.0,0.0,0.0,9.5,-0.1,0.0,0.30000000000000004,-0.30000000000000004
1698418951102.0,16,0.1,0.0,0.0,0.1,9.5,-0.1,-0.1,0.8,-0.2
1698418951119.0,16,0.1,0.0,0.0,0.1,9.5,-0.2,-0.2,1.9,-0.1
1698418951136.0,16,0.1,0.0,0.0,0.1,9.5,-0.2,-0.5,2.5,0.1
1698418951152.0,16,0.0,0.0,0.0,0.0,9.5,-0.1,-0.8,3.3000000000000003,0.4
1698418951169.0,16,0.0,0.0,0.0,0.0,9.5,-0.2,-0.9,3.4,0.7
1698418951186.0,16,0.0,0.0,0.0,0.0,9.5,-0.1,-1.0,3.2,1.2000000000000002
1698418951203.0,16,-0.1,0.0,0.1,0.0,9.5,-0.1,-0.6000000000000001,2.9,1.8
1698418951219.0,16,0.0,0.0,0.0,0.0,9.5,-0.1,-0.2,2.5,1.9
1698418951237.0,16,-0.1,0.0,-0.1,-0.1,9.5,-0.2,-0.8,1.4,2.0
1698418951253.0,16,-0.2,0.0,0.0,-0.2,9.5,-0.2,-1.5000000000000002,0.2,2.3000000000000003
1698418951270.0,16,-0.2,0.1,0.0,-0.2,9.600000000000001,-0.2,-1.5000000000000002,-0.4,2.5
1698418951286.0,16,-0.1,0.0,-0.1,-0.1,9.5,-0.30000000000000004,-1.0999999999999999,-1.9,2.4000000000000004
1698418951303.0,16,-0.1,0.0,0.0,-0.1,9.5,-0.2,-0.8,-3.7000000000000006,1.8
1698418951319.0,16,-0.1,0.0,0.0,-0.1,9.5,-0.1,-0.5,-4.2,1.7
1698418951336.0,16,-0.1,0.0,0.0,-0.1,9.5,-0.1,0.0,-4.800000000000001,1.4
1698418951353.0,16,0.0,0.0,0.0,0.0,9.5,-0.1,0.0,-5.4,1.0999999999999999
1698418951370.0,16,0.0,0.0,0.0,0.0,9.5,-0.1,-0.30000000000000004,-5.6,0.9
1698418951386.0,16,0.0,0.0,0.0,0.0,9.5,-0.1,-0.5,-5.8,0.8
1698418951403.0,16,0.0,0.0,0.0,0.0,9.5,-0.2,-0.30000000000000004,-5.8,0.7
1698418951419.0,16,0.1,0.0,-0.1,0.1,9.5,-0.2,-0.1,-5.500000000000001,0.6000000000000001
1698418951437.0,16,0.1,0.0,0.0,0.1,9.5,-0.2,-0.1,-5.2,0.6000000000000001
1698418951453.0,16,0.1,0.0,0.0,0.1,9.5,-0.1,-0.1,-4.3999999999999995,0.6000000000000001
1698418951469.0,16,0.1,0.0,0.0,0.1,9.5,-0.1,-0.1,-4.0,0.7
1698418951487.0,16,0.1,0.0,0.0,0.2,9.5,-0.1,-0.2,-3.4,0.6000000000000001
1698418951503.0,16,0.1,0.0,0.0,0.1,9.5,-0.1,0.0,-3.0000000000000004,0.30000000000000004
1698418951519.0,16,0.1,0.0,0.0,0.1,9.5,-0.1,0.2,-2.3000000000000003,-0.1
1698418951536.0,16,0.0,0.0,0.0,0.1,9.5,-0.1,0.4,-2.1,-0.2
1698418951553.0,16,0.1,0.0,0.0,0.1,9.5,-0.1,0.6000000000000001,-1.4,-0.4
1698418951569.0,16,0.1,0.0,0.0,0.1,9.5,-0.1,0.5,-1.0999999999999999,-0.5
1698418951587.0,16,0.1,0.0,0.1,0.1,9.5,-0.1,0.7,-1.0999999999999999,-0.6000000000000001
1698418951603.0,16,0.1,0.0,0.0,0.2,9.5,-0.1,0.8,-1.0,-0.5
1698418951620.0,16,0.1,0.0,0.0,0.2,9.5,-0.1,1.0,-0.9,-0.5
1698418951636.0,16,0.1,0.0,0.0,0.2,9.5,-0.1,1.4,-0.9,-0.4
1698418951653.0,16,0.1,0.0,0.0,0.1,9.5,-0.1,2.0,-1.0,-0.4
1698418951670.0,16,0.1,0.0,0.1,0.1,9.5,-0.1,2.4000000000000004,-0.9,-0.30000000000000004
1698418951687.0,16,0.1,0.0,0.0,0.1,9.5,-0.1,2.8,-0.5,-0.2
1698418951703.0,16,0.1,0.0,0.0,0.1,9.5,-0.1,3.0000000000000004,-0.4,-0.2
1698418951719.0,16,0.0,0.0,0.1,0.1,9.5,-0.1,3.6,0.0,0.30000000000000004
1698418951736.0,16,0.0,0.0,0.1,0.1,9.5,-0.1,3.8,0.0,0.4
1698418951753.0,16,0.0,0.0,0.0,0.1,9.4,-0.1,4.1000000000000005,0.1,0.4
1698418951769.0,16,0.0,0.0,0.0,0.1,9.4,-0.1,4.1000000000000005,0.2,0.6000000000000001
1698418951786.0,16,0.0,0.0,0.0,0.1,9.5,-0.2,3.9,0.7,0.5
1698418951802.0,16,0.0,0.1,0.0,0.1,9.600000000000001,-0.2,3.6,1.4,0.30000000000000004
1698418951819.0,16,0.0,0.1,0.0,0.1,9.600000000000001,-0.2,3.2,2.0,0.30000000000000004
1698418951836.0,16,0.1,0.1,0.0,0.1,9.5,-0.2,3.0000000000000004,2.5,0.0
1698418951853.0,16,0.0,0.1,0.0,0.1,9.600000000000001,-0.2,2.3000000000000003,2.3000000000000003,-0.5
1698418951870.0,16,0.0,0.1,0.0,0.1,9.600000000000001,-0.2,2.0,2.5,-0.7
1698418951886.0,16,0.0,0.1,-0.1,0.1,9.600000000000001,-0.30000000000000004,1.0,3.0000000000000004,-0.9
1698418951903.0,16,0.0,0.1,-0.1,0.0,9.600000000000001,-0.30000000000000004,-0.2,3.5,-1.0999999999999999
1698418951919.0,16,0.0,0.1,0.0,0.1,9.600000000000001,-0.30000000000000004,-1.0999999999999999,4.1000000000000005,-1.3
1698418951937.0,16,0.0,0.1,0.0,0.1,9.600000000000001,-0.30000000000000004,-1.5000000000000002,4.2,-1.3
1698418951955.0,16,0.0,0.0,-0.1,0.1,9.600000000000001,-0.30000000000000004,-2.3000000000000003,3.8,-1.6
1698418951969.0,16,0.0,0.0,0.0,0.0,9.5,-0.2,-2.7,3.6,-1.8
1698418951986.0,16,0.0,0.0,0.0,0.0,9.5,-0.2,-2.8,3.6,-1.8
1698418952003.0,16,0.0,0.0,0.0,0.0,9.5,-0.2,-2.5,3.5,-1.8
1698418952019.0,16,0.0,-0.1,0.0,0.0,9.5,-0.2,-2.5,3.2,-1.5000000000000002
1698418952036.0,16,0.0,-0.1,0.0,0.0,9.5,-0.2,-2.5,2.8,-1.3
1698418952053.0,16,-0.1,0.0,-0.1,0.0,9.5,-0.30000000000000004,-2.4000000000000004,2.3000000000000003,-1.0999999999999999
1698418952070.0,16,0.0,0.0,0.0,0.0,9.5,-0.2,-2.1999999999999997,1.7,-0.8
1698418952086.0,16,0.0,0.0,0.0,0.0,9.5,-0.2,-1.6,2.1999999999999997,-0.7
1698418952103.0,16,0.0,0.0,-0.1,0.1,9.5,-0.2,-1.3,2.1,-0.7
1698418952119.0,16,0.0,0.0,0.0,0.1,9.5,-0.2,-1.0999999999999999,1.9,-0.6000000000000001
1698418952136.0,16,0.0,0.0,0.0,0.1,9.5,-0.2,-0.9,1.7,-0.5
1698418952153.0,16,-0.1,0.0,0.0,0.0,9.5,-0.2,-0.7,1.6,-0.4
1698418952170.0,16,-0.1,0.0,-0.1,-0.1,9.5,-0.2,-0.6000000000000001,1.3,-0.4
1698418952186.0,16,-0.1,0.0,0.0,0.0,9.5,-0.2,-0.7,1.0999999999999999,-0.30000000000000004
1698418952205.0,16,-0.1,0.0,-0.1,-0.1,9.5,-0.2,-0.8,0.7,-0.6000000000000001
1698418952220.0,16,-0.1,0.0,-0.1,0.0,9.5,-0.2,-0.8,0.6000000000000001,-0.8
1698418952236.0,16,-0.1,0.0,-0.1,-0.1,9.5,-0.30000000000000004,-0.9,0.2,-0.8
1698418952253.0,16,-0.1,0.0,-0.1,-0.1,9.5,-0.2,-1.0999999999999999,-0.1,-0.7
1698418952269.0,16,0.0,0.0,-0.1,0.0,9.5,-0.2,-1.0999999999999999,-0.30000000000000004,-0.9
1698418952286.0,16,0.0,0.0,-0.1,-0.1,9.5,-0.30000000000000004,-1.0999999999999999,-0.1,-1.0
1698418952303.0,16,0.0,0.0,0.0,-0.1,9.5,-0.2,-0.9,-0.30000000000000004,-0.9
1698418952320.0,16,0.0,0.0,0.0,0.0,9.5,-0.2,-0.9,-0.2,-0.9
1698418952336.0,16,0.0,0.0,0.0,0.0,9.5,-0.2,-0.5,-0.5,-0.8
1698418952353.0,16,0.0,0.0,0.0,0.0,9.5,-0.2,-0.30000000000000004,-0.5,-0.8
1698418952369.0,16,0.0,0.0,0.0,0.0,9.5,-0.2,-0.30000000000000004,-0.9,-0.7
1698418952386.0,16,0.0,0.0,0.0,0.0,9.5,-0.2,0.0,-0.7,-0.4
1698418952403.0,16,0.0,0.0,0.0,0.0,9.5,-0.2,0.0,-0.7,-0.4
1698418952420.0,16,0.1,0.0,0.0,0.0,9.5,-0.2,0.30000000000000004,-0.8,-0.4
1698418952436.0,16,0.0,0.0,0.0,0.0,9.5,-0.2,0.6000000000000001,-0.8,-0.4
1698418952453.0,16,0.0,0.0,0.0,0.0,9.5,-0.2,0.7,-0.8,-0.30000000000000004
1698418952469.0,16,0.0,0.0,0.0,0.0,9.5,-0.2,0.8,-0.7,0.1
1698418952486.0,16,0.0,0.0,0.0,0.0,9.5,-0.2,0.6000000000000001,-0.8,-0.1
1698418952503.0,16,0.0,0.0,0.0,0.0,9.5,-0.2,0.7,-0.5,-0.1
1698418952520.0,16,0.0,0.0,0.0,0.0,9.5,-0.2,0.8,-0.5,-0.4
1698418952536.0,16,0.0,0.0,0.0,0.0,9.5,-0.2,1.0,-0.30000000000000004,-0.2
1698418952553.0,16,0.0,0.0,0.0,0.0,9.5,-0.2,0.9,-0.30000000000000004,-0.1
1698418952570.0,16,0.0,0.0,0.0,0.0,9.5,-0.2,0.6000000000000001,-0.4,0.0
1698418952587.0,16,0.0,0.0,0.0,0.0,9.5,-0.2,0.7,-0.30000000000000004,0.1
1698418952603.0,16,0.0,0.0,0.0,0.0,9.5,-0.2,0.6000000000000001,-0.1,0.1
1698418952619.0,16,0.0,0.0,0.0,0.0,9.5,-0.2,0.4,0.0,0.2
1698418952636.0,16,0.0,0.0,0.0,0.0,9.5,-0.2,0.30000000000000004,0.2,0.1
1698418952652.0,16,0.0,0.0,0.0,0.0,9.5,-0.2,0.2,0.30000000000000004,0.2
1698418952669.0,16,0.0,0.0,0.0,0.0,9.5,-0.2,0.1,0.30000000000000004,0.2
1698418952686.0,16,0.0,0.0,0.1,0.0,9.5,-0.1,0.0,0.4,0.2
1698418952703.0,16,0.0,0.0,0.1,0.0,9.5,-0.1,0.0,0.4,0.30000000000000004
1698418952719.0,16,0.0,0.0,0.0,0.0,9.5,-0.2,0.0,0.5,0.4
1698418952737.0,16,0.0,0.0,0.1,-0.1,9.5,-0.1,0.2,0.2,0.5
1698418952754.0,16,0.0,0.0,0.0,0.0,9.5,-0.2,0.6000000000000001,0.2,0.6000000000000001
1698418952769.0,16,0.0,0.0,0.1,-0.1,9.5,-0.1,0.9,0.2,0.6000000000000001
1698418952786.0,16,0.0,0.0,0.0,-0.1,9.5,-0.1,1.0999999999999999,0.4,0.4
1698418952803.0,16,0.0,0.0,0.0,0.0,9.5,-0.2,1.2000000000000002,0.30000000000000004,0.4
1698418952819.0,16,0.0,0.0,0.0,0.0,9.5,-0.1,1.3,0.30000000000000004,0.2
1698418952836.0,16,0.0,0.0,0.0,0.0,9.5,-0.2,1.6,0.2,0.30000000000000004
1698418952852.0,16,0.0,0.0,0.0,0.0,9.5,-0.2,2.0,0.0,0.30000000000000004
1698418952870.0,16,0.0,0.0,0.0,0.0,9.5,-0.2,2.0,-0.1,0.4
1698418952886.0,16,0.0,0.0,0.0,0.0,9.5,-0.2,2.1999999999999997,0.0,0.6000000000000001
1698418952902.0,16,0.0,0.0,0.0,0.0,9.5,-0.2,2.1,-0.30000000000000004,0.9
1698418952919.0,16,0.0,0.0,0.0,0.0,9.5,-0.2,1.9,-0.30000000000000004,0.9
1698418952936.0,16,0.0,0.0,0.0,0.0,9.5,-0.2,1.5000000000000002,-0.30000000000000004,0.9
1698418952953.0,16,0.0,0.0,0.0,0.0,9.5,-0.2,1.2000000000000002,0.1,0.5
1698418952969.0,16,0.0,0.0,0.0,0.0,9.5,-0.2,1.3,0.2,0.4
1698418952986.0,16,0.0,0.0,0.0,0.0,9.5,-0.2,1.6,-0.1,0.1
1698418953003.0,16,0.0,0.0,0.1,0.0,9.5,-0.2,1.8,-0.30000000000000004,0.2
1698418953021.0,16,0.0,0.0,0.0,-0.1,9.5,-0.2,2.0,-0.1,0.2
1698418953036.0,16,0.0,0.0,0.0,0.0,9.5,-0.2,2.1999999999999997,0.4,0.6000000000000001
1698418953052.0,16,0.0,0.0,0.0,0.0,9.5,-0.30000000000000004,2.1999999999999997,0.5,0.8
1698418953070.0,16,0.0,0.0,0.0,0.0,9.5,-0.30000000000000004,2.1999999999999997,0.5,1.0
1698418953086.0,16,0.0,0.0,0.0,0.0,9.5,-0.30000000000000004,2.0,0.1,1.3
1698418953102.0,16,0.0,0.0,0.0,0.0,9.5,-0.30000000000000004,1.7,-0.6000000000000001,1.3
1698418953119.0,16,0.0,0.0,0.0,0.0,9.5,-0.30000000000000004,1.6,-0.6000000000000001,1.2000000000000002
1698418953136.0,16,0.0,0.0,-0.1,0.0,9.5,-0.30000000000000004,1.4,-0.8,1.0
1698418953156.0,16,0.0,0.0,-0.1,0.0,9.5,-0.30000000000000004,1.0999999999999999,-0.8,0.7
1698418953169.0,16,0.0,0.0,0.0,0.0,9.5,-0.30000000000000004,1.0,-0.9,0.7
1698418953186.0,16,0.0,0.0,0.0,0.0,9.5,-0.30000000000000004,1.0999999999999999,-0.8,0.5
1698418953202.0,16,0.0,0.0,0.0,0.0,9.5,-0.30000000000000004,1.3,-0.8,0.30000000000000004
1698418953219.0,16,0.0,0.0,0.0,0.0,9.5,-0.30000000000000004,1.6,-0.8,0.2
1698418953236.0,16,0.0,0.0,0.0,0.0,9.5,-0.30000000000000004,1.5000000000000002,-0.9,-0.1
1698418953253.0,16,0.0,0.0,0.0,0.0,9.5,-0.4,1.0999999999999999,-1.3,0.1
1698418953270.0,16,0.0,0.0,-0.1,0.0,9.5,-0.4,1.0,-1.2000000000000002,0.30000000000000004
1698418953286.0,16,0.0,0.0,0.0,0.0,9.5,-0.30000000000000004,0.7,-1.4,0.6000000000000001
1698418953303.0,16,0.0,0.0,0.0,0.0,9.5,-0.30000000000000004,0.6000000000000001,-1.4,0.6000000000000001
1698418953320.0,16,0.0,0.0,0.0,0.1,9.5,-0.4,0.7,-1.2000000000000002,0.6000000000000001
1698418953336.0,16,0.0,0.0,0.0,0.1,9.5,-0.4,0.6000000000000001,-1.0999999999999999,0.5
1698418953353.0,16,0.0,0.0,0.0,0.1,9.5,-0.30000000000000004,0.4,-1.0999999999999999,0.2
1698418953370.0,16,0.0,0.0,0.0,0.1,9.5,-0.30000000000000004,0.4,-0.30000000000000004,0.1
1698418953386.0,16,0.0,0.0,0.0,0.1,9.5,-0.30000000000000004,0.5,0.2,0.1
1698418953403.0,16,0.0,0.0,-0.1,0.1,9.5,-0.4,0.2,0.5,0.1
1698418953419.0,16,0.0,0.0,0.0,0.1,9.5,-0.4,0.0,0.30000000000000004,0.1
1698418953436.0,16,0.0,0.0,0.0,0.0,9.5,-0.30000000000000004,0.0,-0.1,0.2
1698418953453.0,16,0.0,0.0,0.0,0.0,9.5,-0.4,0.2,-0.1,0.4
1698418953470.0,16,0.0,0.0,0.0,0.1,9.5,-0.4,0.30000000000000004,-0.5,0.30000000000000004
1698418953487.0,16,0.0,0.0,0.0,0.1,9.5,-0.4,0.30000000000000004,-0.6000000000000001,0.2
1698418953503.0,16,0.0,0.0,0.0,0.1,9.5,-0.4,0.5,-0.30000000000000004,0.1
1698418953519.0,16,0.0,0.0,0.0,0.1,9.5,-0.4,0.5,-0.30000000000000004,0.1
1698418953536.0,16,0.0,0.0,0.0,0.1,9.5,-0.4,0.2,-0.2,0.1
1698418953553.0,16,0.0,0.0,0.0,0.1,9.5,-0.4,0.2,0.0,0.1
1698418953569.0,16,0.0,0.0,0.0,0.1,9.5,-0.4,0.4,0.0,-0.1
1698418953586.0,16,0.0,0.0,0.0,0.0,9.5,-0.4,0.4,-0.1,-0.1
1698418953603.0,16,0.0,0.0,-0.1,0.1,9.5,-0.4,0.7,-0.30000000000000004,-0.2
1698418953619.0,16,0.0,0.0,-0.1,0.0,9.5,-0.4,0.7,-0.30000000000000004,-0.2
1698418953636.0,16,0.0,0.0,-0.1,0.0,9.5,-0.4,0.7,-0.30000000000000004,0.0
1698418953653.0,16,0.0,0.0,0.0,0.0,9.5,-0.4,0.4,-0.4,0.0
1698418953669.0,16,0.0,0.0,0.0,0.0,9.5,-0.4,0.8,0.0,0.0
1698418953687.0,16,0.0,0.0,-0.1,0.1,9.5,-0.4,0.8,-0.1,0.1
1698418953703.0,16,0.0,0.0,-0.1,0.1,9.5,-0.5,-0.30000000000000004,-0.7,-0.1
1698418953719.0,16,0.0,0.0,0.0,0.0,9.5,-0.30000000000000004,-1.2000000000000002,-0.1,-0.30000000000000004
1698418953736.0,16,0.0,0.0,0.0,0.0,9.5,-0.30000000000000004,-1.2000000000000002,-0.30000000000000004,-0.1
1698418953753.0,16,0.0,0.1,0.0,0.1,9.600000000000001,-0.4,-1.8,-0.8,0.30000000000000004
1698418953769.0,16,0.0,0.0,0.0,0.1,9.5,-0.4,-2.0,-0.8,0.30000000000000004
1698418953787.0,16,0.0,0.0,0.0,0.0,9.5,-0.30000000000000004,-1.9,-0.9,0.4
1698418953803.0,16,0.0,0.0,0.0,0.0,9.5,-0.4,-1.6,-1.0999999999999999,0.4
1698418953819.0,16,0.0,0.0,0.0,0.0,9.5,-0.30000000000000004,-0.7,-1.4,0.30000000000000004
1698418953836.0,16,0.0,-0.1,0.0,0.1,9.4,-0.30000000000000004,-0.7,-1.4,0.2
1698418953852.0,16,0.0,0.0,0.0,0.1,9.5,-0.30000000000000004,-0.7,-0.9,-0.1
1698418953869.0,16,0.1,0.0,0.1,0.1,9.5,-0.30000000000000004,-0.8,-0.6000000000000001,-0.2
1698418953886.0,16,0.0,0.0,0.1,0.1,9.5,-0.30000000000000004,-0.6000000000000001,-0.1,-0.4
1698418953903.0,16,0.0,0.0,0.0,0.0,9.5,-0.30000000000000004,-0.30000000000000004,0.0,-0.2
1698418953920.0,16,0.0,0.0,0.0,0.0,9.5,-0.4,-0.5,-0.1,0.1
1698418953936.0,16,0.0,0.0,0.0,0.0,9.5,-0.4,-0.4,-0.30000000000000004,0.30000000000000004
1698418953953.0,16,0.0,0.0,0.0,0.0,9.5,-0.30000000000000004,-0.4,-0.30000000000000004,0.1
1698418953969.0,16,0.0,0.0,0.0,0.0,9.5,-0.30000000000000004,-0.1,-0.2,0.0
1698418953986.0,16,0.0,0.0,0.0,0.0,9.5,-0.30000000000000004,0.0,-0.4,-0.1
1698418954003.0,16,0.1,0.0,0.0,0.1,9.5,-0.30000000000000004,0.2,-0.4,-0.1
1698418954019.0,16,0.1,0.0,0.1,0.1,9.5,-0.30000000000000004,0.5,-0.2,-0.4
1698418954036.0,16,0.1,0.0,0.1,0.1,9.5,-0.30000000000000004,0.8,-0.1,-0.4
1698418954053.0,16,0.0,0.0,0.0,0.1,9.5,-0.30000000000000004,0.8,0.2,-0.2
1698418954069.0,16,0.0,0.0,0.0,0.0,9.5,-0.30000000000000004,0.6000000000000001,0.30000000000000004,-0.1
1698418954087.0,16,0.0,0.0,-0.1,0.0,9.5,-0.30000000000000004,0.6000000000000001,0.2,-0.2
1698418954103.0,16,0.0,0.0,-0.1,0.0,9.5,-0.4,0.30000000000000004,0.1,-0.1
1698418954120.0,16,0.0,0.0,0.0,0.0,9.5,-0.4,0.30000000000000004,0.30000000000000004,0.2
1698418954136.0,16,0.0,0.0,0.0,0.0,9.5,-0.30000000000000004,0.7,0.2,0.30000000000000004
1698418954153.0,16,0.0,0.0,0.0,0.1,9.5,-0.30000000000000004,0.9,0.2,0.30000000000000004
1698418954169.0,16,0.0,0.0,0.0,0.1,9.5,-0.30000000000000004,1.0999999999999999,0.30000000000000004,0.2
1698418954187.0,16,0.0,0.0,0.0,0.1,9.5,-0.30000000000000004,1.0,0.5,0.1
1698418954203.0,16,0.0,0.0,0.0,0.0,9.5,-0.30000000000000004,0.8,0.8,0.1
1698418954219.0,16,0.0,0.0,0.0,0.0,9.5,-0.30000000000000004,0.5,0.6000000000000001,0.1
1698418954236.0,16,0.0,0.0,0.0,0.0,9.5,-0.30000000000000004,0.4,0.5,-0.1
1698418954254.0,16,0.0,0.0,0.0,0.0,9.5,-0.4,0.4,0.30000000000000004,-0.1
1698418954269.0,16,0.0,0.0,0.0,0.0,9.5,-0.30000000000000004,0.4,0.30000000000000004,-0.2
1698418954287.0,16,0.0,0.0,0.0,0.0,9.5,-0.30000000000000004,0.2,0.30000000000000004,-0.2
1698418954303.0,16,0.0,0.0,0.0,0.1,9.5,-0.4,0.0,0.4,-0.2
1698418954319.0,16,0.0,0.0,0.0,0.0,9.5,-0.30000000000000004,-0.1,0.30000000000000004,-0.2
1698418954336.0,16,0.0,0.0,0.0,0.0,9.5,-0.4,-0.30000000000000004,0.1,-0.1
1698418954353.0,16,0.0,0.0,0.0,0.0,9.5,-0.4,-0.2,-0.1,-0.2
1698418954369.0,16,0.0,0.0,0.0,0.0,9.5,-0.4,-0.30000000000000004,-0.1,-0.30000000000000004
1698418954386.0,16,0.0,0.0,0.0,0.0,9.5,-0.4,-0.30000000000000004,-0.1,-0.30000000000000004
1698418954404.0,16,0.0,0.0,0.0,0.0,9.5,-0.4,-0.5,-0.1,-0.5
1698418954419.0,16,0.0,0.0,0.0,0.0,9.5,-0.4,-0.6000000000000001,-0.30000000000000004,-0.5
1698418954436.0,16,0.0,0.0,0.0,0.1,9.5,-0.4,-0.7,-0.2,-0.5
1698418954453.0,16,0.0,0.0,0.0,0.1,9.5,-0.4,-0.9,0.0,-0.4
1698418954469.0,16,0.0,0.0,0.0,0.1,9.5,-0.4,-0.8,0.2,-0.5
1698418954487.0,16,0.0,0.0,0.0,0.0,9.5,-0.30000000000000004,-0.5,0.1,-0.6000000000000001
1698418954504.0,16,0.0,0.0,0.0,0.0,9.5,-0.4,-0.5,0.0,-0.5
1698418954520.0,16,0.0,0.0,0.0,0.0,9.5,-0.4,-0.5,-0.1,-0.5
1698418954536.0,16,0.0,0.0,0.0,0.0,9.5,-0.4,-0.4,-0.30000000000000004,-0.4
1698418954553.0,16,0.0,0.0,0.0,0.1,9.5,-0.30000000000000004,-0.30000000000000004,0.0,-0.4
1698418954569.0,16,0.0,0.0,0.0,0.1,9.5,-0.4,-0.2,0.6000000000000001,-0.30000000000000004
1698418954587.0,16,0.0,0.0,0.0,0.1,9.5,-0.4,-0.1,0.6000000000000001,-0.2
1698418954603.0,16,0.0,0.0,0.0,0.1,9.5,-0.4,0.0,0.4,-0.1
1698418954619.0,16,0.0,0.0,0.0,0.0,9.5,-0.4,0.1,0.4,-0.1
1698418954636.0,16,0.0,0.0,0.0,0.0,9.5,-0.30000000000000004,0.0,0.6000000000000001,-0.1
1698418954652.0,16,0.0,0.0,0.0,0.0,9.5,-0.4,0.0,0.6000000000000001,0.1
1698418954669.0,16,0.0,0.0,0.0,0.1,9.5,-0.4,0.0,0.30000000000000004,0.1
1698418954686.0,16,0.0,0.0,0.0,0.0,9.5,-0.4,0.2,0.5,-0.1
1698418954703.0,16,0.0,0.0,0.0,0.0,9.5,-0.30000000000000004,0.30000000000000004,0.4,0.1
1698418954720.0,16,0.0,0.0,0.0,0.0,9.5,-0.4,0.30000000000000004,0.5,0.2
1698418954736.0,16,0.0,0.0,0.0,0.0,9.5,-0.4,0.2,0.30000000000000004,0.30000000000000004
1698418954753.0,16,0.0,0.0,0.0,0.0,9.5,-0.30000000000000004,0.2,0.4,0.30000000000000004
1698418954769.0,16,0.0,0.0,0.0,0.0,9.5,-0.30000000000000004,0.2,0.5,0.30000000000000004
1698418954786.0,16,0.0,0.0,0.0,0.0,9.5,-0.30000000000000004,0.30000000000000004,0.4,0.30000000000000004
1698418954803.0,16,0.0,0.0,0.0,0.0,9.5,-0.30000000000000004,0.2,0.4,0.2
1698418954820.0,16,0.0,0.0,0.0,0.0,9.5,-0.30000000000000004,0.2,0.0,0.1
1698418954837.0,16,0.0,0.0,0.0,0.0,9.5,-0.30000000000000004,0.30000000000000004,0.0,0.1
1698418954855.0,16,0.0,0.0,0.0,0.0,9.5,-0.30000000000000004,0.2,0.2,0.1
1698418954871.0,16,0.0,0.0,0.0,0.1,9.5,-0.30000000000000004,0.30000000000000004,0.5,0.1
1698418954886.0,16,0.0,0.0,0.0,0.0,9.5,-0.4,0.4,0.7,0.30000000000000004
1698418954904.0,16,0.0,0.0,0.0,0.0,9.5,-0.30000000000000004,0.30000000000000004,0.7,0.4
1698418954920.0,16,0.0,0.0,0.0,0.0,9.5,-0.30000000000000004,0.30000000000000004,0.6000000000000001,0.30000000000000004
1698418954936.0,16,0.0,0.0,0.0,0.0,9.5,-0.30000000000000004,0.2,0.6000000000000001,0.4
1698418954953.0,16,0.0,0.0,0.0,0.0,9.5,-0.30000000000000004,0.0,0.2,0.30000000000000004
1698418954969.0,16,0.0,0.0,0.0,0.0,9.5,-0.30000000000000004,0.0,0.30000000000000004,0.30000000000000004
1698418954986.0,16,0.0,0.0,0.0,0.0,9.5,-0.30000000000000004,0.0,0.1,0.30000000000000004
1698418955002.0,16,0.0,0.0,0.0,0.0,9.5,-0.30000000000000004,-0.1,0.2,0.30000000000000004
1698418955021.0,16,0.0,0.0,0.0,0.0,9.5,-0.30000000000000004,0.0,0.2,0.30000000000000004
1698418955036.0,16,0.0,0.0,0.0,0.0,9.5,-0.30000000000000004,0.0,-0.1,0.2
1698418955053.0,16,0.0,0.0,0.0,0.0,9.5,-0.30000000000000004,-0.1,-0.30000000000000004,0.2
1698418955069.0,16,0.0,0.0,0.0,0.0,9.5,-0.30000000000000004,-0.2,-0.30000000000000004,0.30000000000000004
1698418955087.0,16,0.0,0.0,0.0,0.0,9.5,-0.30000000000000004,-0.4,-0.4,0.4
1698418955103.0,16,0.0,0.0,0.0,0.1,9.5,-0.30000000000000004,-0.5,-0.5,0.30000000000000004
1698418955119.0,16,0.0,0.0,0.0,0.1,9.5,-0.30000000000000004,-0.6000000000000001,-0.6000000000000001,0.1
1698418955136.0,16,0.0,0.0,0.0,0.0,9.5,-0.30000000000000004,-0.6000000000000001,-0.5,0.1
1698418955153.0,16,0.0,0.0,0.0,0.0,9.5,-0.30000000000000004,-0.8,-0.2,0.30000000000000004
1698418955170.0,16,0.0,0.0,0.0,0.1,9.5,-0.30000000000000004,-0.7,0.2,0.30000000000000004
1698418955186.0,16,0.0,0.0,0.0,0.0,9.5,-0.30000000000000004,-0.9,0.5,0.4
1698418955202.0,16,0.0,0.0,0.0,0.0,9.5,-0.30000000000000004,-0.9,0.30000000000000004,0.6000000000000001
1698418955219.0,16,0.0,0.0,0.0,0.0,9.5,-0.30000000000000004,-0.9,0.2,0.6000000000000001
1698418955236.0,16,0.0,0.0,0.0,0.0,9.5,-0.30000000000000004,-0.8,0.0,0.8
1698418955255.0,16,0.0,0.0,0.0,0.0,9.5,-0.30000000000000004,-0.7,0.1,0.7
1698418955269.0,16,0.0,0.0,0.0,0.1,9.5,-0.30000000000000004,-0.7,0.30000000000000004,0.4
1698418955286.0,16,0.0,0.0,0.0,0.0,9.5,-0.30000000000000004,-0.6000000000000001,0.0,0.30000000000000004
1698418955302.0,16,0.0,0.0,0.0,0.0,9.5,-0.30000000000000004,-0.7,-0.2,0.30000000000000004
1698418955319.0,16,0.0,0.0,0.0,0.0,9.5,-0.30000000000000004,-0.8,-0.5,0.4
1698418955336.0,16,0.0,0.0,0.0,0.1,9.5,-0.30000000000000004,-0.6000000000000001,0.4,0.4
1698418955353.0,16,0.0,0.0,0.0,0.1,9.5,-0.30000000000000004,-0.7,0.9,0.5
1698418955372.0,16,0.0,0.0,0.0,0.1,9.5,-0.30000000000000004,-0.7,0.7,0.6000000000000001
1698418955386.0,16,0.0,0.0,0.0,0.1,9.5,-0.30000000000000004,-1.0,0.6000000000000001,0.6000000000000001
1698418955402.0,16,0.0,0.0,0.0,0.1,9.5,-0.30000000000000004,-1.6,1.0,0.6000000000000001
1698418955420.0,16,0.0,0.0,0.0,0.1,9.5,-0.30000000000000004,-1.7,1.0999999999999999,0.6000000000000001
1698418955436.0,16,0.0,0.1,-0.1,0.1,9.600000000000001,-0.30000000000000004,-1.9,0.9,0.7
1698418955453.0,16,0.0,0.0,-0.1,0.1,9.5,-0.4,-1.9,1.0999999999999999,0.7
1698418955470.0,16,0.0,0.0,0.0,0.1,9.5,-0.30000000000000004,-2.0,2.3000000000000003,0.8
1698418955486.0,16,0.0,0.0,0.0,0.1,9.5,-0.30000000000000004,-2.1,2.8,0.7
1698418955503.0,16,0.0,0.0,0.0,0.1,9.5,-0.30000000000000004,-2.1,1.8,0.0
1698418955521.0,16,0.0,0.0,0.0,0.1,9.5,-0.30000000000000004,-2.1,1.3,-0.2
1698418955536.0,16,0.0,0.0,0.0,0.1,9.5,-0.30000000000000004,-2.3000000000000003,0.9,-0.30000000000000004
1698418955553.0,16,0.0,0.0,0.0,0.1,9.5,-0.30000000000000004,-2.1999999999999997,1.0,-0.30000000000000004
1698418955570.0,16,0.0,0.0,0.0,0.1,9.5,-0.30000000000000004,-2.0,1.0999999999999999,-0.4
1698418955588.0,16,0.1,0.0,0.0,0.1,9.5,-0.30000000000000004,-1.9,0.9,-0.8
1698418955603.0,16,0.0,0.0,0.0,0.1,9.5,-0.2,-1.8,0.6000000000000001,-1.0999999999999999
1698418955619.0,16,0.0,0.0,0.0,0.1,9.5,-0.2,-1.6,0.7,-1.0999999999999999
1698418955636.0,16,0.0,0.0,0.0,0.1,9.5,-0.2,-1.7,0.5,-1.0
1698418955652.0,16,0.0,0.0,0.0,0.0,9.5,-0.2,-1.4,0.6000000000000001,-0.8
1698418955670.0,16,0.0,0.0,0.0,0.0,9.5,-0.2,-1.3,0.6000000000000001,-0.7
1698418955686.0,16,0.0,0.0,0.0,0.1,9.5,-0.2,-0.8,0.30000000000000004,-0.6000000000000001
1698418955702.0,16,0.0,0.0,0.0,0.1,9.5,-0.2,-0.5,0.0,-0.7
1698418955719.0,16,0.0,0.0,0.0,0.1,9.5,-0.2,-0.5,-0.5,-0.7
1698418955736.0,16,0.0,0.0,0.0,0.1,9.5,-0.2,-0.5,-0.6000000000000001,-0.9
1698418955753.0,16,0.0,0.0,0.0,0.1,9.5,-0.2,-0.5,-0.6000000000000001,-0.9
1698418955770.0,16,0.0,0.0,0.0,0.1,9.5,-0.2,-0.5,-0.5,-0.7
1698418955786.0,16,0.0,0.0,0.0,0.1,9.5,-0.2,0.0,-0.5,-0.5
1698418955803.0,16,0.0,0.0,0.0,0.1,9.5,-0.2,0.1,-0.7,-0.4
1698418955819.0,16,0.0,0.0,0.0,0.0,9.5,-0.2,0.5,-0.7,-0.5
1698418955837.0,16,0.0,0.0,0.0,0.1,9.5,-0.2,0.5,-0.8,-0.5
1698418955852.0,16,0.0,0.0,0.0,0.1,9.5,-0.2,0.5,-0.9,-0.5
1698418955869.0,16,0.0,0.0,0.0,0.1,9.5,-0.2,0.5,-0.8,-0.6000000000000001
1698418955887.0,16,0.0,0.0,0.0,0.1,9.5,-0.2,0.6000000000000001,-0.8,-0.4
1698418955902.0,16,0.0,0.0,0.0,0.0,9.5,-0.2,0.8,-0.9,-0.2
1698418955919.0,16,0.0,0.0,0.0,0.1,9.5,-0.2,1.0,-0.9,-0.2
1698418955936.0,16,0.0,0.0,0.0,0.0,9.5,-0.2,1.0,-0.9,-0.1
1698418955953.0,16,0.0,0.0,0.0,0.1,9.5,-0.2,0.7,-0.8,0.2
1698418955969.0,16,0.0,0.0,0.0,0.1,9.5,-0.2,0.8,-0.6000000000000001,0.30000000000000004
1698418955987.0,16,0.0,0.0,0.0,0.1,9.5,-0.2,0.8,-0.6000000000000001,0.1
1698418956003.0,16,0.0,0.0,0.1,0.0,9.5,-0.2,1.0,-0.5,-0.1
1698418956019.0,16,0.0,0.0,0.1,0.1,9.5,-0.2,0.8,-0.6000000000000001,-0.1
1698418956036.0,16,0.0,0.0,0.0,0.1,9.5,-0.2,0.8,-0.4,-0.1
1698418956053.0,16,0.0,0.0,0.0,0.1,9.5,-0.2,0.5,-0.30000000000000004,0.1
1698418956069.0,16,0.0,0.0,0.0,0.1,9.5,-0.2,0.5,-0.30000000000000004,0.1
1698418956086.0,16,0.0,0.0,0.0,0.0,9.5,-0.2,0.4,-0.30000000000000004,0.2
1698418956103.0,16,0.0,0.0,0.0,0.0,9.5,-0.2,0.30000000000000004,-0.4,0.4
1698418956119.0,16,0.0,0.0,0.0,0.0,9.5,-0.2,0.30000000000000004,0.0,0.30000000000000004
1698418956136.0,16,0.0,0.0,0.0,0.0,9.5,-0.2,0.4,0.1,0.4
1698418956153.0,16,0.0,0.0,0.0,0.0,9.5,-0.2,0.1,-0.2,0.6000000000000001
1698418956169.0,16,0.0,0.0,0.0,0.1,9.5,-0.2,-0.30000000000000004,-0.4,0.6000000000000001
1698418956186.0,16,0.0,0.0,0.0,0.1,9.5,-0.2,-0.6000000000000001,-0.30000000000000004,0.6000000000000001
1698418956202.0,16,0.0,0.1,0.0,0.1,9.600000000000001,-0.2,-0.9,-0.30000000000000004,0.5
1698418956219.0,16,0.0,0.0,0.0,0.1,9.5,-0.30000000000000004,-1.9,-0.30000000000000004,0.2
1698418956236.0,16,0.0,0.0,0.0,0.0,9.5,-0.2,-2.8,0.30000000000000004,0.2
1698418956252.0,16,0.0,0.1,0.0,0.0,9.600000000000001,-0.2,-3.0000000000000004,0.2,0.2
1698418956269.0,16,0.0,0.1,0.0,0.0,9.600000000000001,-0.2,-3.4,0.2,0.0
1698418956286.0,16,-0.1,0.1,0.0,0.0,9.600000000000001,-0.2,-3.8,0.2,0.0
1698418956303.0,16,-0.1,0.1,0.0,0.0,9.700000000000001,-0.2,-3.9,0.6000000000000001,0.0
1698418956319.0,16,0.0,0.0,0.1,0.1,9.600000000000001,-0.1,-4.3999999999999995,0.7,0.1
1698418956336.0,16,0.0,0.0,0.0,0.1,9.5,-0.1,-4.5,0.8,0.0
1698418956353.0,16,0.0,0.0,0.0,0.0,9.5,-0.1,-5.300000000000001,0.8,-0.4
1698418956369.0,16,0.0,0.0,0.0,0.0,9.5,-0.1,-6.000000000000001,1.0999999999999999,-0.5
1698418956386.0,16,-0.1,0.1,0.0,0.0,9.600000000000001,-0.1,-7.300000000000001,0.9,-0.7
1698418956403.0,16,-0.1,0.2,0.0,-0.1,9.700000000000001,-0.1,-8.9,0.8,-0.6000000000000001
1698418956419.0,16,-0.1,0.2,0.0,0.0,9.700000000000001,-0.1,-9.9,1.0,-0.2
1698418956436.0,16,0.0,0.2,0.0,0.0,9.700000000000001,0.0,-10.3,0.9,-0.2
1698418956453.0,16,0.0,0.1,0.0,0.0,9.700000000000001,0.0,-11.000000000000002,1.9,-0.5
1698418956469.0,16,-0.1,0.0,0.0,-0.1,9.600000000000001,0.1,-11.3,2.9,-1.3
1698418956488.0,16,-0.1,-0.1,0.0,-0.1,9.5,0.1,-11.1,3.8,-1.7
1698418956503.0,16,-0.2,-0.2,-0.1,-0.2,9.3,0.0,-11.000000000000002,4.1000000000000005,-2.6
1698418956519.0,16,-0.2,-0.2,-0.1,-0.30000000000000004,9.4,0.1,-11.1,3.8,-3.3000000000000003
1698418956536.0,16,-0.30000000000000004,-0.1,-0.2,-0.30000000000000004,9.5,0.0,-10.8,2.7,-4.1000000000000005
1698418956553.0,16,-0.4,-0.1,-0.2,-0.4,9.5,0.0,-10.5,1.8,-4.3999999999999995
1698418956569.0,16,-0.5,0.0,-0.30000000000000004,-0.6000000000000001,9.600000000000001,0.0,-9.600000000000001,0.9,-4.800000000000001
1698418956586.0,16,-0.4,0.0,-0.30000000000000004,-0.6000000000000001,9.600000000000001,-0.1,-9.0,0.5,-4.800000000000001
1698418956603.0,16,-0.4,0.1,-0.4,-0.5,9.600000000000001,-0.1,-8.5,-0.9,-4.7
1698418956620.0,16,-0.30000000000000004,0.1,-0.4,-0.4,9.700000000000001,-0.2,-8.4,-1.2000000000000002,-4.800000000000001
1698418956636.0,16,-0.2,0.2,-0.5,-0.4,9.8,-0.2,-9.4,-0.8,-4.9
1698418956653.0,16,-0.30000000000000004,0.2,-0.5,-0.4,9.700000000000001,-0.2,-10.3,0.1,-5.2
1698418956669.0,16,-0.4,0.1,-0.5,-0.6000000000000001,9.700000000000001,-0.1,-11.5,2.8,-4.9
1698418956686.0,16,-0.30000000000000004,0.0,-0.6000000000000001,-0.5,9.5,-0.30000000000000004,-11.5,3.4,-5.2
1698418956703.0,16,-0.4,-0.1,-0.30000000000000004,-0.6000000000000001,9.5,0.0,-11.2,3.9,-5.9
1698418956720.0,16,-0.4,-0.2,-0.4,-0.7000000000000001,9.3,0.0,-10.5,7.2,-5.1
1698418956736.0,16,-0.4,-0.30000000000000004,-0.4,-0.7000000000000001,9.200000000000001,0.0,-9.1,7.400000000000001,-4.1000000000000005
1698418956753.0,16,-0.4,-0.4,-0.4,-0.7000000000000001,9.1,0.0,-8.799999999999999,8.200000000000001,-4.3999999999999995
1698418956770.0,16,-0.30000000000000004,-0.4,-0.30000000000000004,-0.7000000000000001,9.1,0.1,-8.600000000000001,9.0,-4.9
1698418956786.0,16,-0.4,-0.4,-0.4,-0.7000000000000001,9.1,0.1,-6.8,9.1,-4.1000000000000005
1698418956803.0,16,-0.4,-0.30000000000000004,-0.30000000000000004,-0.7000000000000001,9.200000000000001,0.2,-6.4,8.0,-3.3000000000000003
1698418956820.0,16,-0.30000000000000004,-0.2,-0.1,-0.6000000000000001,9.3,0.30000000000000004,-5.1,8.799999999999999,-0.8
1698418956836.0,16,-0.1,-0.30000000000000004,-0.1,-0.5,9.200000000000001,0.4,-4.1000000000000005,9.0,3.2
1698418956852.0,16,-0.1,-0.5,-0.1,-0.4,9.0,0.4,-3.0000000000000004,9.9,6.5
1698418956870.0,16,0.2,-0.6000000000000001,0.0,-0.1,8.9,0.5,-3.0000000000000004,10.4,8.1
1698418956886.0,16,0.4,-0.7000000000000001,-0.1,0.1,8.8,0.4,-6.000000000000001,9.200000000000001,10.600000000000001
1698418956903.0,16,0.4,-0.8,-0.1,0.2,8.700000000000001,0.4,-8.200000000000001,7.500000000000001,11.1
1698418956919.0,16,0.6000000000000001,-1.0,-0.1,0.30000000000000004,8.5,0.5,-11.5,1.3,11.1
1698418956936.0,16,0.6000000000000001,-1.1,-0.1,0.4,8.4,0.5,-11.8,-3.2,10.700000000000001
1698418956953.0,16,0.4,-0.8,-0.1,0.30000000000000004,8.6,0.5,-11.6,-2.3000000000000003,10.600000000000001
1698418956970.0,16,-0.4,0.6000000000000001,-0.4,-0.6000000000000001,10.100000000000001,0.30000000000000004,-10.3,0.1,8.700000000000001
1698418956986.0,16,-0.5,1.4000000000000001,-0.8,-0.9,10.600000000000001,0.1,-6.3,-3.8,8.1
1698418957003.0,16,-0.2,1.2000000000000002,-1.1,-0.4,10.700000000000001,-0.5,4.7,-3.5,4.800000000000001
1698418957020.0,16,0.5,1.6,-1.2000000000000002,0.4,11.100000000000001,-0.6000000000000001,5.1,4.6000000000000005,5.500000000000001
1698418957036.0,16,1.6,1.0,-1.2000000000000002,1.5,10.5,-0.6000000000000001,-0.8,5.300000000000001,9.3
1698418957053.0,16,2.1,0.5,-0.9,1.9000000000000001,10.0,-0.4,-4.1000000000000005,10.700000000000001,7.2
1698418957070.0,16,1.7000000000000002,0.6000000000000001,-0.8,1.7000000000000002,10.100000000000001,-0.1,-8.700000000000001,15.000000000000002,4.9
1698418957087.0,16,0.6000000000000001,0.4,-0.7000000000000001,0.6000000000000001,9.9,0.0,-9.5,12.5,8.0
1698418957103.0,16,0.2,0.1,-0.7000000000000001,0.2,9.600000000000001,-0.1,-9.5,9.5,10.700000000000001
1698418957120.0,16,-0.5,-0.2,-0.9,-0.5,9.3,-0.2,-7.699999999999999,0.0,14.600000000000001
1698418957136.0,16,-0.5,-0.30000000000000004,-1.0,-0.4,9.200000000000001,-0.30000000000000004,-6.9,-5.2,16.2
1698418957153.0,16,-0.4,-0.6000000000000001,-1.1,-0.2,8.9,-0.30000000000000004,-6.8,-5.9,15.000000000000002
1698418957170.0,16,0.4,-0.7000000000000001,-1.2000000000000002,0.6000000000000001,8.8,-0.5,-11.700000000000001,-9.4,11.2
1698418957187.0,16,0.5,-0.4,-1.1,0.7000000000000001,9.1,-0.30000000000000004,-18.900000000000002,-11.5,1.0
1698418957202.0,16,0.5,-0.1,-1.3,0.7000000000000001,9.4,-0.4,-17.1,-5.500000000000001,1.8
1698418957219.0,16,0.5,-0.5,-1.5,0.8,9.0,-0.6000000000000001,-15.8,-3.6,4.300000000000001
1698418957236.0,16,0.5,-0.8,-1.6,0.8,8.700000000000001,-0.7000000000000001,-17.8,-5.500000000000001,5.6
1698418957252.0,16,0.4,-0.8,-1.7000000000000002,0.7000000000000001,8.700000000000001,-0.8,-19.200000000000003,-6.5,5.300000000000001
1698418957270.0,16,0.4,-0.8,-1.7000000000000002,0.7000000000000001,8.6,-0.7000000000000001,-19.0,-6.1000000000000005,4.6000000000000005
1698418957286.0,16,0.30000000000000004,-0.8,-1.7000000000000002,0.7000000000000001,8.6,-0.7000000000000001,-17.7,-3.5,2.0
1698418957302.0,16,0.30000000000000004,-0.7000000000000001,-1.7000000000000002,0.7000000000000001,8.700000000000001,-0.6000000000000001,-16.700000000000003,0.0,-1.3
1698418957319.0,16,0.4,-0.5,-1.7000000000000002,0.7000000000000001,8.9,-0.6000000000000001,-16.0,1.3,-2.6
1698418957336.0,16,0.5,-0.2,-1.8,0.8,9.200000000000001,-0.7000000000000001,-13.8,4.3999999999999995,-3.8
1698418957353.0,16,0.7000000000000001,-0.2,-2.0,0.9,9.200000000000001,-0.8,-12.9,5.300000000000001,-3.8
1698418957369.0,16,0.8,-0.2,-2.0,1.1,9.200000000000001,-0.9,-12.6,3.5,-2.3000000000000003
1698418957386.0,16,0.9,-0.1,-1.8,1.2000000000000002,9.3,-0.7000000000000001,-13.6,0.5,-0.5
1698418957403.0,16,1.1,0.30000000000000004,-1.5,1.4000000000000001,9.700000000000001,-0.30000000000000004,-14.4,5.2,-0.7
1698418957420.0,16,1.2000000000000002,0.6000000000000001,-1.5,1.5,10.0,-0.30000000000000004,-13.4,7.6,-0.7
1698418957436.0,16,1.5,1.0,-1.8,1.8,10.4,-0.6000000000000001,-12.5,9.200000000000001,-1.0999999999999999
1698418957452.0,16,2.0,1.7000000000000002,-2.3000000000000003,2.3000000000000003,11.100000000000001,-1.1,-11.9,19.6,-4.9
1698418957469.0,16,1.8,1.6,-2.6,2.1,11.0,-1.3,-9.0,22.900000000000002,-4.9
1698418957486.0,16,1.4000000000000001,2.2,-2.9000000000000004,1.7000000000000002,11.600000000000001,-1.7000000000000002,-11.1,29.000000000000004,-5.300000000000001
1698418957504.0,16,0.7000000000000001,1.2000000000000002,-1.3,1.0,10.600000000000001,0.0,-14.900000000000002,26.8,-4.300000000000001
1698418957519.0,16,-1.6,3.5,-1.6,-1.3,12.9,-0.30000000000000004,2.6,-0.1,13.6
1698418957536.0,16,-1.1,3.2,-1.2000000000000002,-0.7000000000000001,12.600000000000001,0.1,-6.3,-51.0,33.1
1698418957553.0,16,-0.4,3.5,0.1,0.1,13.0,1.4000000000000001,12.200000000000001,-32.2,12.3
1698418957569.0,16,1.2000000000000002,1.9000000000000001,-0.6000000000000001,1.7000000000000002,11.4,0.6000000000000001,12.100000000000001,-30.7,1.7
1698418957586.0,16,2.3000000000000003,0.1,0.2,2.8000000000000003,9.600000000000001,1.3,22.1,15.000000000000002,-13.5
1698418957603.0,16,2.3000000000000003,0.30000000000000004,1.1,2.7,9.8,2.2,24.200000000000003,27.7,-24.5
1698418957620.0,16,1.6,-0.6000000000000001,1.1,2.0,9.0,2.2,25.900000000000002,24.7,-30.100000000000005
1698418957637.0,16,0.0,0.30000000000000004,2.3000000000000003,0.2,9.8,3.2,42.1,25.400000000000002,-16.0
1698418957655.0,16,-0.7000000000000001,0.9,3.2,-0.4,10.4,4.1000000000000005,49.5,22.2,-2.1
1698418957669.0,16,-1.8,0.7000000000000001,2.9000000000000004,-1.5,10.3,3.6,61.0,12.5,22.2
1698418957686.0,16,-1.4000000000000001,-0.6000000000000001,2.7,-1.0,9.0,3.3000000000000003,6.6000000000000005,20.5,17.0
1698418957702.0,16,-0.9,-1.3,1.4000000000000001,-0.5,8.3,2.1,1.6,18.6,6.4
1698418957719.0,16,-0.7000000000000001,-0.8,1.3,-0.30000000000000004,8.8,2.0,4.300000000000001,14.3,1.7
1698418957736.0,16,-0.2,-0.5,1.3,0.1,9.1,2.0,1.3,6.4,-6.000000000000001
1698418957752.0,16,-0.2,-0.8,0.9,0.1,8.8,1.6,-3.9,2.7,-6.7
1698418957769.0,16,-0.5,-1.0,0.7000000000000001,-0.2,8.6,1.5,-3.3000000000000003,3.9,-6.2
1698418957786.0,16,-0.9,-1.5,0.6000000000000001,-0.7000000000000001,8.0,1.3,-2.3000000000000003,11.9,-5.4
1698418957803.0,16,-1.0,-1.9000000000000001,0.5,-0.7000000000000001,7.6000000000000005,1.3,-3.9,17.1,-5.2
1698418957821.0,16,-0.8,-2.3000000000000003,0.30000000000000004,-0.5,7.300000000000001,1.1,-8.4,25.6,-3.5
1698418957838.0,16,-0.5,-2.3000000000000003,0.1,-0.2,7.2,0.9,-10.2,26.3,2.1999999999999997
1698418957852.0,16,-0.4,-1.9000000000000001,0.1,-0.2,7.6000000000000005,1.0,-12.100000000000001,25.5,7.699999999999999
1698418957869.0,16,-0.7000000000000001,-1.2000000000000002,-0.30000000000000004,-0.5,8.3,0.6000000000000001,-15.8,24.7,8.200000000000001
1698418957886.0,16,-0.8,-1.1,-0.4,-0.6000000000000001,8.4,0.5,-16.8,24.000000000000004,6.8
1698418957904.0,16,-1.2000000000000002,-1.2000000000000002,-0.8,-1.0,8.3,0.2,-12.700000000000001,21.5,1.3
1698418957921.0,16,-1.4000000000000001,-1.3,-1.1,-1.2000000000000002,8.1,-0.1,-10.0,19.1,-1.8
1698418957936.0,16,-1.7000000000000002,-1.6,-1.5,-1.5,7.800000000000001,-0.5,-9.600000000000001,14.4,-4.300000000000001
1698418957954.0,16,-1.6,-1.4000000000000001,-1.3,-1.6,8.0,-0.4,-9.8,10.3,-4.3999999999999995
1698418957970.0,16,-1.9000000000000001,-1.0,-1.2000000000000002,-1.7000000000000002,8.3,-0.2,-7.699999999999999,-0.9,2.6
1698418957986.0,16,-1.8,-0.8,-1.1,-1.6,8.5,-0.1,-5.8,-5.300000000000001,4.9
1698418958002.0,16,-1.8,-0.30000000000000004,-1.5,-1.6,9.0,-0.5,-1.0,-8.9,2.8
1698418958020.0,16,-1.1,-0.9,-1.2000000000000002,-0.9,8.5,-0.1,-18.900000000000002,-12.700000000000001,0.8
1698418958036.0,16,-1.1,-1.2000000000000002,-1.7000000000000002,-0.9,8.1,-0.6000000000000001,-19.1,-13.9,-3.6
1698418958053.0,16,-0.4,0.4,-1.6,-0.2,9.700000000000001,-0.5,-9.200000000000001,-29.800000000000004,-14.0
1698418958070.0,16,0.4,1.8,-0.7000000000000001,0.5,11.200000000000001,0.4,-0.30000000000000004,-30.4,-16.2
1698418958086.0,16,0.5,2.1,-0.7000000000000001,0.6000000000000001,11.5,0.4,1.7,-24.6,-17.1
1698418958103.0,16,0.30000000000000004,2.4000000000000004,-1.6,0.30000000000000004,11.8,-0.5,0.0,-16.900000000000002,-18.7
1698418958119.0,16,0.30000000000000004,2.7,-2.3000000000000003,0.2,11.8,-1.0,-3.4,-16.1,-19.200000000000003
1698418958136.0,16,0.30000000000000004,3.5,-0.8,0.2,12.9,0.30000000000000004,-11.3,-15.5,-20.2
1698418958153.0,16,2.0,5.2,0.4,1.8,14.700000000000001,1.5,4.800000000000001,2.7,-36.6
1698418958169.0,16,1.3,3.9000000000000004,-1.3,1.0,13.4,-0.2,5.1,37.300000000000004,-42.7
1698418958186.0,16,1.7000000000000002,3.9000000000000004,0.0,1.3,13.4,1.1,12.3,28.8,-34.900000000000006
1698418958203.0,16,-0.5,1.1,-1.1,-1.0,10.700000000000001,-0.1,21.3,41.4,-18.400000000000002
1698418958219.0,16,-2.2,-0.8,-0.9,-2.7,8.700000000000001,0.0,22.6,10.700000000000001,-7.8
1698418958236.0,16,-2.5,-1.1,0.5,-3.0,8.4,1.4000000000000001,27.7,-17.200000000000003,-1.7
1698418958253.0,16,-2.1,0.1,2.1,-2.6,9.700000000000001,2.9000000000000004,23.0,-22.8,2.8
1698418958269.0,16,-1.0,1.8,2.9000000000000004,-1.6,11.3,3.6,16.700000000000003,2.4000000000000004,-14.900000000000002
1698418958286.0,16,0.8,2.7,2.2,0.2,12.3,2.9000000000000004,21.8,6.5,-35.3
1698418958303.0,16,0.6000000000000001,-0.1,1.8,-0.2,9.5,2.3000000000000003,76.60000000000001,-12.6,-59.300000000000004
1698418958319.0,16,-0.4,-0.2,2.9000000000000004,-1.2000000000000002,9.4,3.2,39.50000000000001,-8.5,-12.000000000000002
1698418958336.0,16,-0.30000000000000004,-0.9,2.2,-1.1,8.700000000000001,2.6,-3.9,-10.9,4.3999999999999995
1698418958353.0,16,-0.1,-1.7000000000000002,1.4000000000000001,-0.9,7.800000000000001,1.9000000000000001,-27.8,-17.5,3.4
1698418958369.0,16,0.1,-0.9,0.6000000000000001,-0.4,10.600000000000001,1.0,-9.8,-6.8,7.2
1698418958385.0,16,0.6000000000000001,-2.3000000000000003,1.1,-0.2,7.2,1.7000000000000002,-27.900000000000002,-0.30000000000000004,11.2
1698418958403.0,16,0.9,-4.0,0.8,0.1,5.5,1.4000000000000001,-29.400000000000002,-4.7,15.6
1698418958419.0,16,0.9,-4.0,0.2,0.2,5.5,1.0,-36.3,-15.2,21.3
1698418958437.0,16,0.6000000000000001,-4.7,0.1,0.0,4.800000000000001,1.0,-38.1,-18.8,18.900000000000002
1698418958453.0,16,0.30000000000000004,-4.3,-0.1,-0.2,5.1000000000000005,0.9,-35.3,-18.2,9.200000000000001
1698418958469.0,16,0.4,-4.0,-0.1,-0.2,5.4,1.0,-31.2,-15.000000000000002,-1.6
1698418958486.0,16,1.0,-2.9000000000000004,-0.2,0.4,6.4,1.0,-33.7,-5.0,-3.4
1698418958504.0,16,1.3,-2.3000000000000003,-0.5,0.7000000000000001,7.0,0.7000000000000001,-29.500000000000004,-7.2,-9.1
1698418958519.0,16,0.9,-2.9000000000000004,-1.0,0.30000000000000004,6.4,0.4,-28.200000000000003,-8.5,-7.9
1698418958536.0,16,1.5,-2.1,-1.0,0.9,7.1000000000000005,0.4,-26.8,-4.0,-9.700000000000001
1698418958556.0,16,1.8,-2.2,-1.5,1.1,7.0,0.0,-39.699999999999996,7.0,-7.699999999999999
1698418958570.0,16,1.7000000000000002,-1.5,-2.2,1.0,7.7,-0.6000000000000001,-51.1,20.4,-15.6
1698418958586.0,16,1.4000000000000001,1.4000000000000001,-2.6,0.8,10.600000000000001,-0.9,-49.1,22.7,-9.700000000000001
1698418958603.0,16,1.9000000000000001,1.0,-2.2,1.3,10.3,-0.5,-10.5,25.400000000000002,57.3
1698418958619.0,16,0.0,-0.30000000000000004,-2.9000000000000004,-0.4,8.9,-1.2000000000000002,3.5,30.9,33.5
1698418958636.0,16,-1.9000000000000001,1.8,-3.1,-2.2,11.100000000000001,-1.4000000000000001,-1.4,30.000000000000004,40.0
1698418958653.0,16,-1.5,3.5,-2.9000000000000004,-1.8,12.700000000000001,-1.2000000000000002,-0.9,28.8,49.3
1698418958670.0,16,-0.5,5.7,-4.0,-1.3,14.3,-1.6,-8.3,9.8,43.300000000000004
1698418958686.0,16,0.0,5.0,-4.4,-0.2,14.3,-2.8000000000000003,-19.1,-2.1999999999999997,18.1
1698418958703.0,16,0.5,4.1000000000000005,-5.1000000000000005,0.4,13.4,-3.4000000000000004,-31.6,4.7,-23.6
1698418958720.0,16,0.7000000000000001,4.2,2.8000000000000003,0.4,13.5,4.5,-6.3,50.5,-32.5
1698418958736.0,16,-1.7000000000000002,8.3,7.7,-2.1,17.7,9.4,24.9,60.599999999999994,-9.3
1698418958753.0,16,-1.6,5.4,3.0,-1.8,14.9,4.7,41.300000000000004,-52.400000000000006,33.2
1698418958770.0,16,-2.3000000000000003,0.2,4.1000000000000005,-3.9000000000000004,10.200000000000001,9.3,44.8,-28.3,23.900000000000002
1698418958786.0,16,0.4,-0.2,0.8,0.30000000000000004,9.3,2.3000000000000003,42.5,-32.5,11.5
1698418958803.0,16,2.0,0.6000000000000001,1.2000000000000002,1.9000000000000001,10.200000000000001,2.6,43.7,-4.3999999999999995,-23.0
1698418958819.0,16,3.5,2.1,3.5,3.3000000000000003,11.700000000000001,4.6000000000000005,77.2,7.500000000000001,-37.2
1698418958836.0,16,2.7,3.8000000000000003,5.9,2.5,13.5,6.800000000000001,61.7,-33.400000000000006,-9.200000000000001
1698418958852.0,16,2.4000000000000004,4.2,4.4,2.2,13.8,5.300000000000001,11.000000000000002,-24.1,25.6
1698418958869.0,16,2.4000000000000004,0.9,1.3,2.4000000000000004,10.5,2.3000000000000003,-17.1,-2.0,68.5
1698418958886.0,16,0.1,-0.6000000000000001,0.5,0.30000000000000004,9.0,1.6,-9.200000000000001,6.000000000000001,41.9
1698418958902.0,16,-1.1,-1.7000000000000002,0.1,-0.8,7.9,1.2000000000000002,-16.3,10.5,28.0
1698418958919.0,16,-2.2,-3.8000000000000003,-0.5,-1.9000000000000001,5.800000000000001,0.7000000000000001,-30.299999999999997,5.500000000000001,19.1
1698418958936.0,16,-2.1,-5.0,-0.9,-1.8,4.5,0.4,-25.400000000000002,-8.799999999999999,20.6
1698418958953.0,16,-1.9000000000000001,-5.4,-0.7000000000000001,-1.6,4.1000000000000005,0.6000000000000001,-23.3,-12.200000000000001,20.8
1698418958970.0,16,-1.8,-6.4,-0.8,-1.4000000000000001,3.1,0.5,-20.8,-14.900000000000002,17.9
1698418958986.0,16,-1.8,-6.6000000000000005,-1.0,-1.4000000000000001,2.8000000000000003,0.4,-19.700000000000003,-15.299999999999999,14.800000000000002
1698418959003.0,16,-1.9000000000000001,-5.800000000000001,-0.5,-1.4000000000000001,3.5,0.9,-20.5,-15.8,5.9
1698418959020.0,16,-2.0,-5.300000000000001,-0.6000000000000001,-1.5,4.0,0.9,-19.400000000000002,-18.400000000000002,1.8
1698418959036.0,16,-2.7,-5.1000000000000005,0.4,-2.3000000000000003,4.2,1.9000000000000001,-21.6,-33.5,-0.4
1698418959053.0,16,-3.1,-5.4,0.5,-2.6,3.8000000000000003,2.1,-26.9,-43.50000000000001,-1.6
1698418959069.0,16,-3.1,-3.1,-0.1,-2.6,6.1000000000000005,1.6,-41.300000000000004,-51.300000000000004,-2.9
1698418959086.0,16,-3.4000000000000004,-2.3000000000000003,-2.1,-3.0,6.800000000000001,-0.30000000000000004,-24.8,-39.6,-31.0
1698418959103.0,16,-2.7,-3.5,-2.3000000000000003,-2.4000000000000004,5.6000000000000005,-0.5,-20.4,-33.6,-22.5
1698418959119.0,16,2.5,3.4000000000000004,-4.3,2.9000000000000004,12.5,-2.4000000000000004,-15.299999999999999,-55.300000000000004,1.2000000000000002
1698418959136.0,16,6.300000000000001,8.1,-1.7000000000000002,6.6000000000000005,17.3,0.1,-4.5,-53.6,-44.9
1698418959153.0,16,4.9,5.0,-1.2000000000000002,6.1000000000000005,15.700000000000001,0.7000000000000001,1.6,-31.6,-58.800000000000004
1698418959170.0,16,4.4,4.6000000000000005,-1.7000000000000002,4.5,13.8,0.1,8.3,0.5,-48.00000000000001
1698418959187.0,16,1.3,6.5,-4.9,3.2,14.600000000000001,-1.6,-10.0,21.200000000000003,-35.8
1698418959205.0,16,0.4,6.7,-4.800000000000001,0.4,16.0,-3.0,-24.6,36.6,-28.900000000000002
1698418959220.0,16,-0.4,11.3,7.2,-0.6000000000000001,20.700000000000003,9.1,-36.800000000000004,85.60000000000001,-40.2
1698418959236.0,16,-3.2,6.7,-0.1,-3.6,16.2,1.8,20.5,97.7,-56.300000000000004
1698418959253.0,16,-1.2000000000000002,3.0,3.2,-1.8,12.5,5.0,49.7,39.1,-33.5
1698418959269.0,16,-2.3000000000000003,-0.4,1.2000000000000002,-2.9000000000000004,9.1,2.9000000000000004,78.80000000000001,-2.0,-13.8
1698418959286.0,16,-3.2,-1.0,3.9000000000000004,-3.8000000000000003,8.6,5.4,42.1,-9.9,-3.1
1698418959302.0,16,-2.5,1.9000000000000001,4.3,-3.2,11.5,5.6000000000000005,65.3,-20.3,-23.700000000000003
1698418959322.0,16,-1.9000000000000001,4.2,4.7,-2.7,13.8,6.0,84.60000000000001,-10.9,-46.0
1698418959336.0,16,-1.3,4.2,3.1,-2.3000000000000003,13.8,4.2,-0.9,-12.700000000000001,-66.9
1698418959352.0,16,-1.4000000000000001,-2.7,1.2000000000000002,-2.6,6.9,2.5,-31.5,-8.3,-58.9
1698418959371.0,16,-0.8,-3.7,0.0,-2.1,5.9,1.4000000000000001,-21.400000000000002,-11.6,-43.900000000000006
1698418959386.0,16,2.2,-5.800000000000001,-0.1,0.9,3.7,1.2000000000000002,1.4,-3.0000000000000004,-10.700000000000001
1698418959402.0,16,3.6,-7.0,0.6000000000000001,2.2,2.4000000000000004,1.9000000000000001,13.200000000000001,1.9,0.7
1698418959419.0,16,5.0,-7.5,0.7000000000000001,3.7,1.9000000000000001,2.0,18.8,20.5,9.200000000000001
1698418959436.0,16,5.4,-7.800000000000001,-1.0,4.2,1.6,0.30000000000000004,-15.5,21.8,4.7
1698418959452.0,16,3.6,-6.800000000000001,-1.8,2.5,2.5,-0.4,-24.7,1.7,4.800000000000001
1698418959469.0,16,2.5,-6.0,-1.7000000000000002,1.4000000000000001,3.3000000000000003,-0.4,-17.5,-8.799999999999999,9.5
1698418959486.0,16,-0.30000000000000004,-3.7,-1.1,-1.4000000000000001,5.5,0.30000000000000004,-0.8,-19.6,20.0
1698418959506.0,16,-1.7000000000000002,-2.2,-0.8,-2.8000000000000003,7.0,0.5,6.1000000000000005,-17.5,29.1
1698418959519.0,16,-2.2,-0.30000000000000004,-0.6000000000000001,-3.1,8.9,0.7000000000000001,4.0,-4.300000000000001,45.1
1698418959536.0,16,0.0,-0.5,-0.4,-0.8,8.8,1.0,-11.2,7.500000000000001,22.2
1698418959552.0,16,1.1,-1.9000000000000001,-1.1,0.30000000000000004,7.300000000000001,0.30000000000000004,-39.00000000000001,14.900000000000002,7.0
1698418959569.0,16,2.1,-4.9,-2.8000000000000003,1.3,4.3,-1.3,-46.7,24.3,3.7000000000000006
1698418959586.0,16,4.3,-0.7000000000000001,-3.5,3.6,8.4,-1.9000000000000001,-48.300000000000004,36.5,25.1
1698418959602.0,16,3.4000000000000004,-2.2,-3.7,2.8000000000000003,6.9,-2.1,-38.300000000000004,38.7,28.0
1698418959620.0,16,1.5,5.0,-5.5,0.9,14.200000000000001,-3.9000000000000004,11.1,19.1,19.8
1698418959636.0,16,-2.2,5.9,-1.9000000000000001,-1.6,14.700000000000001,-2.2,22.000000000000004,-10.0,31.0
1698418959653.0,16,-2.4000000000000004,2.6,-2.1,-2.8000000000000003,11.9,-0.7000000000000001,20.5,-1.5000000000000002,20.6
1698418959670.0,16,-5.1000000000000005,3.2,8.5,-5.6000000000000005,12.5,9.9,29.000000000000004,37.900000000000006,-11.8
1698418959686.0,16,-8.200000000000001,13.0,7.4,-8.6,22.400000000000002,8.700000000000001,61.1,-3.1,52.900000000000006
1698418959703.0,16,-0.2,-1.3,8.1,-0.5,8.200000000000001,9.3,62.50000000000001,-27.0,43.0
1698418959720.0,16,3.4000000000000004,-0.30000000000000004,1.8,3.2,9.1,2.8000000000000003,77.7,-26.0,29.400000000000002
1698418959736.0,16,8.700000000000001,2.4000000000000004,3.0,8.5,11.9,3.8000000000000003,74.2,5.8,-29.200000000000003
1698418959753.0,16,3.4000000000000004,10.0,8.1,3.1,19.6,8.6,109.8,6.000000000000001,-18.2
1698418959769.0,16,2.2,11.700000000000001,8.9,-0.1,18.6,9.5,126.7,24.000000000000004,23.6
1698418959786.0,16,-0.4,3.2,5.2,-0.4,13.0,5.6000000000000005,-43.7,23.2,69.7
1698418959802.0,16,1.2000000000000002,2.8000000000000003,0.2,1.4000000000000001,12.600000000000001,0.8,-29.600000000000005,42.0,49.7
1698418959820.0,16,-1.2000000000000002,0.5,-0.8,-0.9,10.3,-0.1,-10.0,53.50000000000001,21.1
1698418959835.0,16,-2.0,-0.7000000000000001,-1.2000000000000002,-1.7000000000000002,9.0,-0.5,-16.900000000000002,55.1,16.700000000000003
1698418959852.0,16,-2.9000000000000004,-2.8000000000000003,-1.1,-2.6,6.9,-0.4,-34.900000000000006,29.000000000000004,12.200000000000001
1698418959869.0,16,-2.8000000000000003,-3.7,-1.9000000000000001,-2.4000000000000004,6.0,-1.0,-31.8,14.200000000000001,18.900000000000002
1698418959886.0,16,-2.6,-4.2,-1.9000000000000001,-2.2,5.5,-1.0,-27.5,11.3,23.2
1698418959902.0,16,-2.4000000000000004,-5.5,-1.0,-2.0,4.1000000000000005,-0.1,-18.400000000000002,3.9,20.2
1698418959920.0,16,-2.5,-6.5,-1.5,-2.1,3.0,-0.5,-18.900000000000002,-0.7,5.9
1698418959936.0,16,-2.7,-7.0,-1.3,-2.3000000000000003,2.5,-0.2,-22.900000000000002,-4.3999999999999995,-2.4000000000000004
1698418959953.0,16,-2.8000000000000003,-7.2,-0.5,-2.5,2.2,0.7000000000000001,-23.5,-8.9,-13.8
1698418959969.0,16,-2.4000000000000004,-3.7,0.8,-3.3000000000000003,6.7,0.8,-23.6,-13.6,-16.2
1698418959986.0,16,-2.2,-9.700000000000001,0.5,-1.9000000000000001,-0.4,1.8,-60.1,-6.6000000000000005,-22.1
1698418960003.0,16,-3.6,-8.6,-1.6,-3.5,0.6000000000000001,-0.1,-56.800000000000004,-6.1000000000000005,-29.800000000000004
1698418960020.0,16,-3.0,-6.2,-3.2,-2.9000000000000004,3.0,-1.7000000000000002,-37.0,-56.6,-12.100000000000001
1698418960035.0,16,-3.2,0.4,-2.7,-3.0,9.600000000000001,-1.0,-28.200000000000003,-121.80000000000001,10.600000000000001
1698418960052.0,16,-2.8000000000000003,2.1,-2.1,-2.6,11.200000000000001,-0.5,-12.100000000000001,-110.60000000000001,-6.5
1698418960069.0,16,1.8,3.3000000000000003,-2.3000000000000003,1.9000000000000001,12.600000000000001,-0.7000000000000001,15.100000000000001,-70.8,-54.7
1698418960086.0,16,3.9000000000000004,3.3000000000000003,-2.8000000000000003,4.0,12.600000000000001,-1.3,18.2,-44.3,-77.1
1698418960103.0,16,4.9,2.9000000000000004,-3.5,4.7,12.200000000000001,-2.0,-2.7,-9.5,-64.10000000000001
1698418960120.0,16,2.1,3.1,-3.4000000000000004,1.9000000000000001,12.4,-1.8,-31.5,11.9,-9.3
1698418960136.0,16,0.8,3.7,-2.5,0.6000000000000001,12.9,-0.9,-46.6,29.1,7.300000000000001
1698418960152.0,16,6.2,17.0,13.3,6.0,26.400000000000002,15.100000000000001,-18.6,53.400000000000006,-20.5
1698418960170.0,16,2.4000000000000004,13.200000000000001,4.0,2.0,22.6,5.800000000000001,18.0,111.80000000000001,-89.30000000000001
1698418960187.0,16,-0.30000000000000004,-2.8000000000000003,6.7,-1.1,6.6000000000000005,8.3,60.1,49.0,-38.1
1698418960203.0,16,-2.7,-2.7,1.7000000000000002,-3.5,6.7,3.3000000000000003,66.0,29.700000000000003,-29.900000000000006
1698418960219.0,16,-5.300000000000001,-0.6000000000000001,8.1,-6.1000000000000005,8.9,9.5,52.2,6.000000000000001,14.0
1698418960236.0,16,-4.5,3.8000000000000003,6.5,-6.1000000000000005,8.9,9.5,39.2,15.2,29.700000000000003
1698418960252.0,16,-0.8,9.9,3.9000000000000004,-1.6,19.5,5.300000000000001,-9.0,-4.0,3.8
1698418960269.0,16,-0.6000000000000001,3.7,2.7,-1.6,13.3,3.9000000000000004,81.7,34.0,-76.7
1698418960285.0,16,-1.1,0.6000000000000001,2.6,-2.2,10.200000000000001,3.6,108.5,45.0,-83.0
1698418960302.0,16,-0.8,-0.7000000000000001,0.9,-2.1,8.9,1.8,21.6,4.7,-42.2
1698418960319.0,16,1.7000000000000002,-2.9000000000000004,0.0,0.30000000000000004,6.7,1.0,-65.10000000000001,-7.300000000000001,-1.3
1698418960336.0,16,2.6,-4.0,-0.1,1.2000000000000002,5.6000000000000005,1.0,-65.0,-4.800000000000001,4.2
1698418960352.0,16,3.5,-5.0,-0.8,2.2,4.5,0.5,-33.7,8.5,6.4
1698418960369.0,16,3.1,-3.0,-0.8,1.9000000000000001,6.5,0.5,-2.7,28.0,7.500000000000001
1698418960386.0,16,2.7,-5.9,-0.5,1.4000000000000001,3.6,0.8,-11.4,32.9,16.400000000000002
1698418960403.0,16,1.6,-6.6000000000000005,-1.4000000000000001,0.4,2.8000000000000003,-0.1,-2.7,11.000000000000002,11.5
1698418960419.0,16,1.3,-5.5,-1.3,0.2,3.8000000000000003,0.0,-3.8,8.9,23.6
1698418960435.0,16,0.4,-4.5,-1.0,-0.6000000000000001,4.800000000000001,0.30000000000000004,-9.1,-2.8,38.6
1698418960452.0,16,0.0,-3.9000000000000004,-1.1,-0.9,5.300000000000001,0.2,-11.1,-8.1,38.800000000000004
1698418960469.0,16,-0.2,-1.9000000000000001,-0.6000000000000001,-1.0,7.4,0.8,-18.2,-10.0,33.7
1698418960486.0,16,-0.30000000000000004,-2.8000000000000003,-0.5,-1.1,6.4,1.0,-31.5,-3.8,23.700000000000003
1698418960502.0,16,1.0,-0.5,-0.5,0.30000000000000004,8.8,1.1,-55.300000000000004,-15.8,33.300000000000004
1698418960519.0,16,4.6000000000000005,-3.1,-1.4000000000000001,4.2,6.2,0.30000000000000004,-20.2,26.9,82.50000000000001
1698418960537.0,16,2.8000000000000003,-6.0,-4.4,2.3000000000000003,3.1,-2.6,-30.299999999999997,77.7,-62.6
1698418960553.0,16,3.2,-1.6,-5.0,2.5,7.5,-3.3000000000000003,-18.5,110.50000000000001,-89.4
1698418960569.0,16,2.3000000000000003,6.300000000000001,-1.9000000000000001,1.5,15.4,-0.2,10.1,84.4,-26.400000000000002
1698418960585.0,16,-1.6,7.5,-3.9000000000000004,-0.9,18.1,-1.0,20.5,41.800000000000004,66.0
1698418960602.0,16,-2.5,5.0,-4.0,-3.1,14.3,-2.5,27.6,6.3,61.8
1698418960619.0,16,-4.7,3.7,-3.0,-5.2,13.0,-1.5,7.400000000000001,-18.900000000000002,2.9
1698418960636.0,16,-4.0,3.9000000000000004,3.9000000000000004,-4.7,13.3,5.4,-17.5,1.8,-34.2
1698418960653.0,16,-5.4,7.6000000000000005,7.2,-6.2,17.0,8.700000000000001,5.8,33.7,-20.2
1698418960669.0,16,-1.7000000000000002,6.2,6.6000000000000005,-2.3000000000000003,15.700000000000001,8.1,38.300000000000004,-89.4,58.5
1698418960685.0,16,2.8000000000000003,-1.2000000000000002,5.6000000000000005,2.3000000000000003,8.3,7.0,48.7,-37.6,27.6
1698418960702.0,16,4.0,1.2000000000000002,2.9000000000000004,3.6,10.700000000000001,4.2,70.3,-45.5,23.1
1698418960719.0,16,5.800000000000001,2.0,1.4000000000000001,5.4,11.5,2.5,31.900000000000002,10.4,-14.3
1698418960736.0,16,4.7,1.6,3.9000000000000004,2.2,11.4,6.6000000000000005,15.6,11.6,-15.000000000000002
1698418960752.0,16,2.3000000000000003,3.2,6.2,1.9000000000000001,12.8,7.300000000000001,3.0000000000000004,8.4,11.2
1698418960769.0,16,0.7000000000000001,4.6000000000000005,2.9000000000000004,0.5,14.200000000000001,4.0,24.5,25.8,69.7
1698418960785.0,16,-0.6000000000000001,2.4000000000000004,2.5,-0.5,12.0,3.3000000000000003,104.1,21.0,93.3
1698418960802.0,16,-0.8,2.8000000000000003,2.3000000000000003,-0.6000000000000001,12.5,3.0,94.9,23.900000000000002,79.39999999999999
1698418960819.0,16,-1.8,-1.7000000000000002,0.2,-1.5,8.0,0.9,-24.400000000000002,16.400000000000002,25.0
1698418960836.0,16,-2.9000000000000004,-2.3000000000000003,-1.2000000000000002,-2.6,7.300000000000001,-0.4,-49.5,8.9,13.6
1698418960852.0,16,-3.4000000000000004,-3.5,-1.1,-3.1,6.2,-0.2,-46.0,2.5,9.8
1698418960869.0,16,-2.4000000000000004,-3.2,-1.3,-2.0,6.4,-0.30000000000000004,-30.7,-9.3,15.5
1698418960886.0,16,-1.8,-4.1000000000000005,-1.1,-1.4000000000000001,5.5,-0.1,-22.4,-11.9,13.100000000000001
1698418960903.0,16,-1.5,-3.9000000000000004,-1.2000000000000002,-1.1,5.6000000000000005,-0.1,-21.900000000000002,-7.2,5.7
1698418960919.0,16,-1.2000000000000002,-4.5,-1.3,-0.8,5.0,-0.1,-23.700000000000003,2.0,-19.3
1698418960936.0,16,-0.6000000000000001,-5.2,-1.0,-0.30000000000000004,4.2,0.30000000000000004,-36.4,8.1,-28.1
1698418960952.0,16,-0.6000000000000001,-5.7,-0.6000000000000001,-0.4,3.7,0.7000000000000001,-43.900000000000006,13.200000000000001,-33.7
1698418960969.0,16,-0.9,-9.0,-0.30000000000000004,-0.8,0.30000000000000004,1.2000000000000002,-53.1,5.8,-22.8
1698418960985.0,16,-1.3,-4.6000000000000005,-1.1,-1.1,4.6000000000000005,0.5,-17.8,-42.300000000000004,21.0
1698418961002.0,16,-2.4000000000000004,-2.6,0.5,-2.2,6.6000000000000005,2.1,-16.700000000000003,-83.8,29.900000000000006
1698418961019.0,16,-5.300000000000001,0.7000000000000001,-1.4000000000000001,-5.0,9.9,0.30000000000000004,-27.7,-90.8,26.400000000000002
1698418961036.0,16,-3.9000000000000004,1.2000000000000002,-3.7,-3.6,10.4,-2.0,-19.0,-79.10000000000001,-18.400000000000002
1698418961052.0,16,-2.0,0.2,-3.7,-1.8,9.4,-1.9000000000000001,-6.2,-82.0,-44.4
1698418961069.0,16,1.7000000000000002,1.2000000000000002,-2.5,1.8,10.5,-0.9,20.4,-64.4,-66.5
1698418961086.0,16,4.4,2.5,-2.4000000000000004,4.4,11.8,-0.9,22.900000000000002,-24.9,-47.400000000000006
1698418961103.0,16,4.3,3.0,-2.9000000000000004,4.2,12.3,-1.4000000000000001,10.5,-15.8,-29.200000000000003
1698418961119.0,16,1.5,3.0,-1.9000000000000001,1.5,12.200000000000001,-0.4,-22.3,-11.700000000000001,13.4
1698418961135.0,16,4.0,10.5,6.2,4.1000000000000005,19.900000000000002,7.800000000000001,-25.8,3.9,30.799999999999997
1698418961152.0,16,7.300000000000001,13.0,7.5,3.3000000000000003,13.8,7.2,-7.8,48.400000000000006,-14.0
1698418961169.0,16,1.4000000000000001,-1.4000000000000001,5.0,1.3,8.0,6.7,33.6,61.7,-41.2
1698418961186.0,16,-2.7,-0.7000000000000001,3.9000000000000004,-2.9000000000000004,8.700000000000001,5.5,57.2,30.599999999999998,-35.0
1698418961202.0,16,-5.5,1.8,5.4,-5.300000000000001,9.3,3.7,60.20000000000001,5.7,-24.1
1698418961219.0,16,-4.4,5.0,6.6000000000000005,-4.7,14.5,7.9,35.3,11.2,2.6
1698418961235.0,16,-0.4,11.700000000000001,5.4,-0.8,21.200000000000003,6.800000000000001,-12.9,-16.3,-38.900000000000006
1698418961252.0,16,-2.5,1.5,3.2,-3.2,11.100000000000001,4.5,58.3,-14.4,-90.9
1698418961269.0,16,-2.2,-0.30000000000000004,3.2,-3.1,9.3,4.4,96.7,9.600000000000001,-86.7
1698418961286.0,16,-1.2000000000000002,0.2,2.6,-2.3000000000000003,9.8,3.6,21.900000000000002,-12.5,-55.5
1698418961302.0,16,-0.1,-0.1,0.9,0.0,9.0,1.6,-67.3,-8.600000000000001,-25.900000000000002
1698418961319.0,16,3.3000000000000003,-1.5,-0.2,2.0,8.0,1.1,-63.70000000000001,0.8,-22.1
1698418961336.0,16,4.9,-3.5,-1.3,3.6,6.0,0.1,-19.6,9.700000000000001,-25.0
1698418961352.0,16,4.2,-4.0,-1.6,2.9000000000000004,5.5,-0.2,0.30000000000000004,14.600000000000001,-18.5
1698418961369.0,16,3.1,-4.6000000000000005,-1.1,1.8,4.800000000000001,0.30000000000000004,2.4000000000000004,16.6,-7.2
1698418961386.0,16,1.9000000000000001,-6.5,-1.4000000000000001,0.6000000000000001,2.9000000000000004,0.1,-25.2,9.9,7.500000000000001
1698418961402.0,16,0.4,-4.9,-1.8,-0.9,4.4,-0.30000000000000004,-15.8,-3.8,13.4
1698418961420.0,16,-0.1,-4.1000000000000005,-1.3,-1.3,5.2,0.2,-11.2,-3.4,18.3
1698418961435.0,16,-0.8,-3.6,-1.1,-1.9000000000000001,5.7,0.4,-5.9,1.6,17.200000000000003
1698418961452.0,16,-0.1,-2.8000000000000003,-0.9,-1.2000000000000002,6.5,0.6000000000000001,-13.4,6.9,15.000000000000002
1698418961469.0,16,0.0,-2.5,-0.7000000000000001,-1.1,6.800000000000001,0.8,-26.400000000000002,13.8,13.100000000000001
1698418961486.0,16,0.6000000000000001,-3.8000000000000003,-0.6000000000000001,-0.30000000000000004,5.4,1.1,-36.1,-5.0,33.400000000000006
1698418961502.0,16,3.2,-1.4000000000000001,-2.9000000000000004,2.5,7.800000000000001,-1.1,-13.3,-15.8,83.2
1698418961520.0,16,2.7,-0.9,-3.1,2.1,8.3,-1.4000000000000001,3.8,-1.0,79.39999999999999
1698418961536.0,16,2.3000000000000003,-1.6,-2.7,1.9000000000000001,7.6000000000000005,-1.0,3.1,13.6,45.800000000000004
1698418961552.0,16,-0.9,-6.1000000000000005,-3.1,-1.3,3.0,-1.4000000000000001,-39.699999999999996,22.2,-25.6
1698418961569.0,16,-1.0,0.30000000000000004,-4.7,-1.5,9.5,-2.9000000000000004,-38.0,39.2,-64.50000000000001
1698418961585.0,16,-0.6000000000000001,9.9,-1.9000000000000001,-1.4000000000000001,19.1,-0.2,27.400000000000002,15.399999999999999,-69.9
1698418961602.0,16,-0.8,3.8000000000000003,0.2,-1.7000000000000002,13.100000000000001,1.8,18.3,-0.30000000000000004,6.1000000000000005
1698418961619.0,16,-2.0,0.5,2.7,-2.8000000000000003,9.8,4.3,7.8,14.0,5.500000000000001
1698418961635.0,16,-3.2,4.6000000000000005,5.300000000000001,-4.1000000000000005,13.9,6.9,18.0,4.3999999999999995,10.600000000000001
1698418961652.0,16,1.0,2.7,2.7,0.2,12.100000000000001,4.2,48.9,-23.5,11.2
1698418961669.0,16,1.8,2.0,2.6,1.8,10.600000000000001,3.6,53.400000000000006,-11.3,14.500000000000002
1698418961685.0,16,3.3000000000000003,1.1,1.1,2.6,10.5,2.3000000000000003,64.4,2.1999999999999997,24.9
1698418961702.0,16,2.5,2.5,3.6,2.0,12.0,4.7,40.7,18.0,32.4
1698418961719.0,16,1.7000000000000002,3.5,2.4000000000000004,1.2000000000000002,13.100000000000001,3.4000000000000004,38.6,26.200000000000003,42.2
1698418961735.0,16,1.1,2.9000000000000004,1.6,0.8,12.4,2.4000000000000004,76.9,54.5,64.60000000000001
1698418961752.0,16,1.0,3.1,3.3000000000000003,0.9,12.8,3.8000000000000003,103.4,51.5,62.0
1698418961769.0,16,0.9,2.7,2.6,0.9,12.3,3.1,27.900000000000002,43.6,47.400000000000006
1698418961785.0,16,-0.1,0.1,0.2,0.1,9.700000000000001,0.8,-55.4,31.3,45.1
1698418961802.0,16,-3.7,3.1,-0.8,-3.5,12.700000000000001,0.0,-26.0,16.400000000000002,22.3
1698418961823.0,16,-4.0,-2.6,0.1,-3.8000000000000003,7.0,0.9,3.0000000000000004,12.700000000000001,-7.1000000000000005
1698418961835.0,16,-3.4000000000000004,-3.1,0.2,-3.2,6.5,0.9,-1.6,17.0,-0.2
1698418961852.0,16,-2.7,-3.3000000000000003,-0.1,-2.0,6.4,0.5,-13.8,13.9,5.300000000000001
1698418961869.0,16,-1.6,-3.3000000000000003,-0.6000000000000001,-1.4000000000000001,6.300000000000001,0.30000000000000004,-15.7,13.4,6.5
1698418961886.0,16,-0.9,-2.5,-1.0,-0.7000000000000001,7.0,-0.1,-11.6,11.9,16.700000000000003
1698418961902.0,16,-0.8,-3.3000000000000003,-1.1,-0.6000000000000001,6.2,-0.2,-10.4,7.8,6.000000000000001
1698418961919.0,16,-0.9,-3.3000000000000003,-1.0,-0.7000000000000001,6.2,-0.1,-23.8,8.1,-3.7000000000000006
1698418961937.0,16,-1.1,-4.3,-0.7000000000000001,-1.0,5.2,0.30000000000000004,-33.1,6.3,-10.0
1698418961953.0,16,-1.1,-7.1000000000000005,-1.2000000000000002,-0.9,2.3000000000000003,0.0,-44.3,1.7,4.6000000000000005
1698418961969.0,16,-2.0,-2.4000000000000004,-2.4000000000000004,-1.0,3.9000000000000004,-1.0,-26.400000000000002,-7.6,20.900000000000002
1698418961985.0,16,-2.7,-0.7000000000000001,-0.4,-2.4000000000000004,8.6,0.8,-8.700000000000001,-49.5,28.500000000000004
1698418962002.0,16,-4.3,0.30000000000000004,-0.8,-3.9000000000000004,9.600000000000001,0.5,-35.1,-56.2,19.8
1698418962027.0,16,-4.1000000000000005,0.30000000000000004,-2.1,-3.7,9.600000000000001,-0.7000000000000001,-24.400000000000002,-76.7,7.0
1698418962035.0,16,-3.7,-0.2,-2.2,-3.3000000000000003,9.1,-0.9,-12.4,-85.4,-2.4000000000000004
1698418962052.0,16,-0.8,-1.1,-2.2,-0.5,8.200000000000001,-0.9,9.3,-79.7,-22.5
1698418962069.0,16,0.30000000000000004,-0.5,-1.7000000000000002,0.6000000000000001,8.8,-0.4,16.8,-49.8,-31.0
1698418962086.0,16,2.7,1.2000000000000002,-2.4000000000000004,3.0,10.5,-1.2000000000000002,11.4,-33.7,-30.7
1698418962103.0,16,3.8000000000000003,4.3,0.9,4.0,13.600000000000001,2.1,-6.1000000000000005,-30.5,-22.5
1698418962119.0,16,6.6000000000000005,8.9,4.800000000000001,6.7,18.3,6.1000000000000005,-11.1,7.699999999999999,-55.1
1698418962136.0,16,4.5,5.6000000000000005,5.300000000000001,4.5,15.0,6.6000000000000005,-6.6000000000000005,59.20000000000001,-61.900000000000006
1698418962152.0,16,1.3,1.8,2.5,1.2000000000000002,11.200000000000001,3.7,32.9,39.1,-25.1
1698418962169.0,16,-3.1,0.2,2.0,-3.3000000000000003,9.700000000000001,3.1,47.6,-3.9,-22.000000000000004
1698418962186.0,16,-3.0,2.5,5.9,-3.2,12.0,6.9,54.2,-30.7,-14.3
1698418962202.0,16,-0.1,8.6,6.9,-0.4,18.1,7.9,27.400000000000002,7.1000000000000005,-37.300000000000004
1698418962219.0,16,-0.6000000000000001,2.6,3.8000000000000003,-1.0,12.200000000000001,4.800000000000001,2.1,-14.200000000000001,-49.0
1698418962236.0,16,-1.3,0.8,2.9000000000000004,-1.8,10.4,3.9000000000000004,-10.0,-23.1,-44.4
1698418962252.0,16,-1.0,0.1,1.3,-1.7000000000000002,9.700000000000001,2.3000000000000003,-6.2,-18.7,-30.799999999999997
1698418962269.0,16,0.9,0.2,1.8,0.2,9.8,2.8000000000000003,12.700000000000001,-8.799999999999999,-16.2
1698418962286.0,16,1.9000000000000001,0.5,1.7000000000000002,1.2000000000000002,10.100000000000001,2.7,13.200000000000001,-6.9,-9.0
1698418962302.0,16,2.7,1.4000000000000001,1.3,2.0,11.0,2.3000000000000003,6.4,3.4,-0.4
1698418962319.0,16,3.4000000000000004,-1.9000000000000001,0.6000000000000001,2.7,7.7,1.6,-10.3,3.4,2.6
1698418962337.0,16,3.1,-3.8000000000000003,-0.1,2.4000000000000004,5.800000000000001,1.0,-17.8,9.200000000000001,2.9
1698418962352.0,16,2.5,-4.1000000000000005,-0.1,1.9000000000000001,5.4,1.0,-23.3,8.200000000000001,5.9
1698418962369.0,16,1.8,-3.9000000000000004,-0.1,1.2000000000000002,5.6000000000000005,1.0,-24.3,6.3,8.0
1698418962385.0,16,0.9,-3.2,-0.30000000000000004,0.30000000000000004,6.300000000000001,1.0,-14.500000000000002,11.6,6.8
1698418962402.0,16,0.30000000000000004,-2.3000000000000003,-0.2,-0.2,7.1000000000000005,1.0,-3.9,20.3,7.1000000000000005
1698418962419.0,16,0.2,-2.3000000000000003,-0.1,-0.30000000000000004,7.1000000000000005,1.1,-2.7,24.6,9.600000000000001
1698418962436.0,16,0.2,-2.5,-0.2,-0.30000000000000004,7.0,1.0,-3.0000000000000004,21.700000000000003,8.4
1698418962452.0,16,0.6000000000000001,-2.3000000000000003,-0.5,0.1,7.1000000000000005,0.7000000000000001,-0.9,13.0,4.300000000000001
1698418962469.0,16,1.2000000000000002,-2.0,-0.8,0.7000000000000001,7.4,0.5,2.5,11.1,-2.4000000000000004
1698418962486.0,16,1.5,-1.1,-0.7000000000000001,1.0,8.3,0.5,2.4000000000000004,9.9,-1.0999999999999999
1698418962502.0,16,1.4000000000000001,-1.6,-0.4,0.9,7.800000000000001,0.8,-20.8,4.7,2.8
1698418962519.0,16,1.2000000000000002,-0.8,-0.8,0.8,8.5,0.6000000000000001,-19.400000000000002,3.5,13.0
1698418962536.0,16,1.1,-0.6000000000000001,-1.0,0.7000000000000001,8.8,0.30000000000000004,-15.399999999999999,10.700000000000001,18.5
1698418962552.0,16,1.0,0.1,-1.5,0.6000000000000001,9.5,-0.1,-10.700000000000001,25.2,14.4
1698418962569.0,16,0.8,-0.5,-1.7000000000000002,0.4,8.9,-0.30000000000000004,-4.2,28.3,-0.1
1698418962586.0,16,0.5,-0.7000000000000001,-2.2,0.2,8.700000000000001,-0.8,0.30000000000000004,27.900000000000002,-8.4
1698418962603.0,16,0.0,-0.6000000000000001,-2.5,-0.4,8.700000000000001,-1.1,7.2,32.9,-22.900000000000002
1698418962619.0,16,-0.1,-1.1,-1.9000000000000001,-0.6000000000000001,8.3,-0.6000000000000001,14.3,33.1,-31.2
1698418962636.0,16,-0.2,-1.0,-1.7000000000000002,-0.9,8.6,-0.5,15.5,30.000000000000004,-30.200000000000003
1698418962652.0,16,-0.1,-0.2,-1.6,-0.8,9.1,-0.4,12.4,25.1,-16.1
1698418962669.0,16,0.1,1.4000000000000001,-0.9,-0.6000000000000001,10.700000000000001,0.2,2.4000000000000004,19.400000000000002,3.0000000000000004
1698418962685.0,16,0.4,1.8,-0.9,-0.30000000000000004,11.200000000000001,0.2,-0.5,15.100000000000001,10.3
1698418962702.0,16,1.0,1.3,-1.8,0.4,10.700000000000001,-0.7000000000000001,7.1000000000000005,5.0,20.6
1698418962719.0,16,0.30000000000000004,0.9,0.2,-0.30000000000000004,10.3,1.2000000000000002,19.3,27.6,31.099999999999998
1698418962735.0,16,0.1,1.1,0.0,-0.6000000000000001,11.5,-0.5,29.600000000000005,20.2,51.400000000000006
1698418962752.0,16,-1.1,4.4,1.6,-1.5,13.8,2.5,28.400000000000002,-42.900000000000006,46.800000000000004
1698418962769.0,16,-1.8,4.2,2.5,-2.0,13.700000000000001,3.3000000000000003,21.0,-23.0,39.50000000000001
1698418962786.0,16,-1.4000000000000001,2.6,3.7,-1.5,12.100000000000001,4.6000000000000005,16.3,-19.400000000000002,30.599999999999998
1698418962802.0,16,1.9000000000000001,-0.1,-0.4,1.8,9.4,0.4,24.1,4.2,14.0
1698418962819.0,16,3.2,-1.5,0.2,3.2,8.1,0.9,19.0,21.5,7.400000000000001
1698418962835.0,16,3.3000000000000003,-0.9,1.6,3.3000000000000003,8.6,2.2,15.299999999999999,37.7,9.4
1698418962852.0,16,0.6000000000000001,2.8000000000000003,4.4,0.6000000000000001,12.3,5.1000000000000005,10.0,28.200000000000003,9.700000000000001
1698418962869.0,16,-2.1,5.300000000000001,4.0,-2.1,14.9,4.7,9.200000000000001,17.5,-5.300000000000001
1698418962885.0,16,-0.7000000000000001,3.5,3.3000000000000003,-0.7000000000000001,13.100000000000001,3.9000000000000004,10.8,23.8,-4.3999999999999995
1698418962902.0,16,0.30000000000000004,3.1,2.2,0.30000000000000004,12.700000000000001,2.9000000000000004,8.3,25.5,-5.8
1698418962919.0,16,0.6000000000000001,-0.5,1.3,0.5,9.1,1.9000000000000001,20.4,25.5,0.30000000000000004
1698418962935.0,16,-0.5,-1.0,1.5,-0.6000000000000001,8.700000000000001,2.1,16.900000000000002,20.4,-7.699999999999999
1698418962952.0,16,-1.0,-1.2000000000000002,1.5,-1.1,8.4,2.0,7.1000000000000005,16.1,-14.600000000000001
1698418962969.0,16,-1.9000000000000001,-0.9,1.0,-2.0,8.700000000000001,1.5,4.5,6.6000000000000005,-13.4
1698418962985.0,16,-2.0,-1.4000000000000001,1.1,-2.3000000000000003,8.200000000000001,1.6,7.1000000000000005,-2.1,-16.2
1698418963011.0,16,-1.5,-2.1,0.7000000000000001,-1.8,7.5,1.2000000000000002,7.8,-3.1,-17.599999999999998
1698418963019.0,16,-1.2000000000000002,-2.3000000000000003,0.8,-1.5,7.300000000000001,1.3,4.3999999999999995,-4.7,-19.1
1698418963035.0,16,-0.7000000000000001,-2.2,0.7000000000000001,-1.0,7.4,1.3,-2.5,-4.1000000000000005,0.8
1698418963052.0,16,-0.5,-2.2,0.6000000000000001,-0.8,7.300000000000001,1.1,-0.6000000000000001,-7.6,9.9
1698418963069.0,16,-1.0,-1.1,0.9,-1.3,8.4,1.4000000000000001,4.0,-18.900000000000002,16.1
1698418963086.0,16,-1.1,-1.2000000000000002,0.7000000000000001,-1.3,8.3,1.3,2.4000000000000004,-20.5,9.600000000000001
1698418963102.0,16,-0.7000000000000001,-1.1,0.7000000000000001,-1.0,8.4,1.2000000000000002,-1.4,-20.2,10.600000000000001
1698418963119.0,16,-0.6000000000000001,-0.7000000000000001,0.8,-0.8,8.8,1.3,-6.6000000000000005,-20.900000000000002,4.6000000000000005
1698418963136.0,16,-0.7000000000000001,-0.7000000000000001,0.6000000000000001,-0.9,8.8,1.2000000000000002,-9.1,-17.0,-2.4000000000000004
1698418963152.0,16,-0.7000000000000001,-0.7000000000000001,0.4,-0.9,8.8,1.0,-10.3,-15.8,-2.5
1698418963169.0,16,-0.9,-0.9,0.4,-1.2000000000000002,8.6,1.1,-11.5,-17.400000000000002,-1.2000000000000002
1698418963185.0,16,-1.1,-0.6000000000000001,0.5,-1.4000000000000001,8.8,1.2000000000000002,-13.5,-20.900000000000002,2.3000000000000003
1698418963202.0,16,-1.2000000000000002,-0.6000000000000001,0.5,-1.5,8.9,1.2000000000000002,-12.100000000000001,-23.5,3.1
1698418963219.0,16,-1.3,-0.7000000000000001,0.2,-1.6,8.8,1.0,-6.7,-29.700000000000003,3.8
1698418963235.0,16,-1.0,-0.2,-0.1,-1.2000000000000002,9.200000000000001,0.7000000000000001,-4.2,-36.9,2.0
1698418963252.0,16,-0.7000000000000001,-0.1,0.0,-0.9,9.4,0.8,-3.1,-39.8,1.4
1698418963272.0,16,-0.4,0.2,0.0,-0.4,10.0,0.7000000000000001,-3.0000000000000004,-40.8,0.30000000000000004
1698418963285.0,16,0.1,1.0,-0.30000000000000004,-0.1,10.4,0.5,-3.4,-40.4,-4.300000000000001
1698418963302.0,16,0.0,0.8,-0.30000000000000004,-0.2,10.3,0.6000000000000001,-6.1000000000000005,-37.6,-5.8
1698418963319.0,16,-0.4,-1.6,-0.30000000000000004,-0.6000000000000001,7.9,0.6000000000000001,-18.8,-33.400000000000006,1.8
1698418963335.0,16,-0.6000000000000001,-2.7,-1.0,-0.7000000000000001,6.800000000000001,-0.1,-44.3,-40.9,19.8
1698418963352.0,16,-0.9,0.1,-1.5,-1.0,9.5,-0.5,-39.1,-50.1,27.900000000000002
1698418963369.0,16,-1.7000000000000002,4.3,-0.7000000000000001,-1.7000000000000002,13.700000000000001,0.4,-16.0,-55.0,21.900000000000002
1698418963386.0,16,-1.3,1.0,-0.7000000000000001,-1.3,10.5,0.4,-4.3999999999999995,-53.1,-6.6000000000000005
1698418963402.0,16,-1.2000000000000002,-0.6000000000000001,-0.9,-1.2000000000000002,8.8,0.2,0.7,-52.900000000000006,-10.9
1698418963419.0,16,-0.8,-0.5,-1.4000000000000001,-0.8,8.9,-0.30000000000000004,2.4000000000000004,-52.2,-7.9
1698418963436.0,16,-0.8,0.5,-1.3,-0.9,9.9,-0.2,-0.8,-58.2,-8.0
1698418963454.0,16,-0.6000000000000001,1.0,-0.9,-0.5,10.600000000000001,0.4,-0.6000000000000001,-59.5,-10.700000000000001
1698418963469.0,16,-0.4,0.9,-0.7000000000000001,-0.4,10.3,0.4,0.5,-58.1,-11.1
1698418963485.0,16,-0.2,0.30000000000000004,-0.6000000000000001,-0.30000000000000004,9.8,0.5,3.1,-56.0,-7.6
1698418963502.0,16,0.2,0.6000000000000001,-0.1,0.2,10.100000000000001,0.9,2.8,-56.0,-7.8
1698418963519.0,16,1.6,1.7000000000000002,0.8,1.6,11.200000000000001,1.9000000000000001,2.8,-56.2,-8.5
1698418963535.0,16,2.1,2.3000000000000003,0.5,2.1,11.8,1.6,4.7,-40.1,-13.100000000000001
1698418963552.0,16,0.2,0.4,0.30000000000000004,1.0,10.8,1.3,5.9,-41.800000000000004,-15.9
1698418963569.0,16,-0.5,-0.1,0.4,-0.6000000000000001,9.4,1.4000000000000001,5.7,-54.5,-11.700000000000001
1698418963585.0,16,-1.2000000000000002,-0.7000000000000001,0.6000000000000001,-1.3,8.8,1.6,3.1,-74.4,-12.000000000000002
1698418963602.0,16,-1.3,-0.8,1.3,-1.4000000000000001,8.700000000000001,2.4000000000000004,-9.0,-96.3,-5.2
1698418963619.0,16,-1.2000000000000002,-0.7000000000000001,1.4000000000000001,-1.3,8.8,2.5,-14.200000000000001,-103.2,-4.9
1698418963635.0,16,0.2,0.2,1.3,0.0,9.700000000000001,2.5,-24.5,-102.2,-15.6
1698418963652.0,16,1.5,0.1,1.0,1.3,9.600000000000001,2.3000000000000003,-27.400000000000002,-93.60000000000001,-40.4
1698418963669.0,16,2.0,-0.30000000000000004,1.0,1.8,9.1,2.4000000000000004,-27.7,-89.2,-47.6
1698418963686.0,16,3.1,-0.8,1.0,2.8000000000000003,8.6,2.4000000000000004,-21.8,-76.60000000000001,-40.5
1698418963702.0,16,3.2,-0.6000000000000001,0.7000000000000001,2.8000000000000003,8.9,2.2,-9.5,-60.8,-15.2
1698418963719.0,16,2.8000000000000003,-0.1,0.6000000000000001,2.5,9.3,2.1,-5.1,-52.400000000000006,-1.6
1698418963736.0,16,1.4000000000000001,-0.4,0.2,1.2000000000000002,9.0,1.7000000000000002,-3.9,-42.0,3.6
1698418963752.0,16,1.1,0.30000000000000004,0.0,0.9,9.700000000000001,1.6,-8.799999999999999,-40.5,10.4
1698418963769.0,16,0.9,0.1,0.0,0.8,9.5,1.6,-12.200000000000001,-43.50000000000001,11.700000000000001
1698418963786.0,16,0.7000000000000001,-0.30000000000000004,0.0,0.6000000000000001,9.1,1.6,-16.5,-47.6,16.1
1698418963802.0,16,0.6000000000000001,0.6000000000000001,0.0,0.6000000000000001,10.0,1.7000000000000002,-18.2,-48.7,19.3
1698418963819.0,16,0.5,0.5,-0.1,0.5,9.9,1.6,-17.400000000000002,-47.1,14.600000000000001
1698418963835.0,16,0.5,0.2,-0.30000000000000004,0.6000000000000001,9.5,1.4000000000000001,-16.5,-45.7,8.9
1698418963852.0,16,1.3,-0.30000000000000004,-0.30000000000000004,1.5,9.1,1.5,-18.2,-44.6,4.300000000000001
1698418963869.0,16,1.6,-0.30000000000000004,-0.30000000000000004,1.8,9.1,1.6,-18.2,-46.1,4.1000000000000005
1698418963885.0,16,1.8,-0.30000000000000004,-0.2,2.0,9.0,1.7000000000000002,-18.3,-44.1,6.6000000000000005
1698418963902.0,16,1.6,-0.5,-0.2,1.9000000000000001,8.8,1.8,-17.5,-40.1,8.700000000000001
1698418963919.0,16,1.5,-0.6000000000000001,-0.30000000000000004,1.8,8.700000000000001,1.7000000000000002,-13.5,-38.1,8.200000000000001
1698418963936.0,16,1.2000000000000002,-0.9,-0.30000000000000004,1.6,8.4,1.7000000000000002,-8.0,-29.900000000000006,4.2
1698418963952.0,16,0.8,-1.3,-0.5,1.3,8.0,1.5,-2.4000000000000004,-23.5,-1.0
1698418963969.0,16,0.6000000000000001,-1.1,-0.7000000000000001,1.1,7.9,1.4000000000000001,0.4,-19.9,-2.6
1698418963986.0,16,0.6000000000000001,-0.6000000000000001,-1.0,1.0,8.6,0.9,3.8,-14.200000000000001,-3.3000000000000003
1698418964015.0,16,0.7000000000000001,-0.7000000000000001,-1.1,1.1,8.6,0.9,3.4,-10.0,-10.1
1698418964019.0,16,0.7000000000000001,-0.7000000000000001,-1.1,1.1,8.6,0.9,4.1000000000000005,-6.2,-13.200000000000001
1698418964035.0,16,0.7000000000000001,-0.6000000000000001,-0.9,1.1,8.700000000000001,1.1,5.1,-1.6,-15.399999999999999
1698418964052.0,16,0.5,-0.30000000000000004,-0.8,0.8,9.0,1.0,9.200000000000001,2.4000000000000004,-16.700000000000003
1698418964069.0,16,0.30000000000000004,0.0,-0.6000000000000001,0.6000000000000001,9.3,1.2000000000000002,10.4,3.8,-15.299999999999999
1698418964085.0,16,-0.6000000000000001,0.7000000000000001,-0.1,-0.30000000000000004,10.0,1.7000000000000002,13.200000000000001,-3.4,-11.000000000000002
1698418964102.0,16,-1.4000000000000001,0.9,0.0,-1.2000000000000002,10.200000000000001,1.8,15.5,-11.6,-8.5
1698418964119.0,16,-1.4000000000000001,0.8,0.0,-0.9,10.100000000000001,1.8,16.8,-12.700000000000001,-4.6000000000000005
1698418964135.0,16,-0.7000000000000001,0.5,0.2,-0.5,9.9,1.8,17.200000000000003,-12.200000000000001,-2.0
1698418964152.0,16,-0.1,0.30000000000000004,0.2,0.1,9.700000000000001,1.8,13.0,-11.5,-4.5
1698418964169.0,16,-0.1,0.30000000000000004,0.2,0.1,9.700000000000001,1.9000000000000001,10.5,-11.700000000000001,-5.2
1698418964185.0,16,-0.1,0.30000000000000004,0.30000000000000004,0.1,9.700000000000001,1.9000000000000001,6.9,-13.8,-2.6
1698418964202.0,16,-0.1,0.2,0.2,0.1,9.600000000000001,1.8,6.6000000000000005,-16.1,2.6
1698418964219.0,16,-0.2,0.1,0.0,-0.1,9.3,1.5,6.9,-17.7,4.7
1698418964236.0,16,-0.4,-0.30000000000000004,-0.2,-0.2,9.1,1.4000000000000001,6.7,-16.6,6.7
1698418964252.0,16,-0.7000000000000001,-0.30000000000000004,-0.2,-0.5,9.0,1.3,5.2,-13.9,7.300000000000001
1698418964269.0,16,-0.8,-0.1,-0.2,-0.5,9.3,1.4000000000000001,4.6000000000000005,-12.200000000000001,6.5
1698418964286.0,16,-0.9,0.0,-0.2,-0.6000000000000001,9.4,1.3,3.8,-11.1,3.3000000000000003
1698418964302.0,16,-0.5,0.30000000000000004,-0.1,-0.2,9.700000000000001,1.4000000000000001,3.0000000000000004,-12.000000000000002,1.5000000000000002
1698418964319.0,16,-0.30000000000000004,0.2,-0.1,0.0,9.600000000000001,1.4000000000000001,2.4000000000000004,-12.5,1.5000000000000002
1698418964336.0,16,-0.1,0.2,-0.2,0.30000000000000004,9.600000000000001,1.3,-0.30000000000000004,-13.4,1.0
1698418964352.0,16,-0.1,0.2,-0.1,0.2,9.600000000000001,1.4000000000000001,-3.9,-11.700000000000001,0.4
1698418964369.0,16,-0.4,0.2,0.0,-0.1,9.600000000000001,1.5,-7.1000000000000005,-10.8,0.30000000000000004
1698418964386.0,16,-0.6000000000000001,0.2,0.1,-0.2,9.600000000000001,1.7000000000000002,-7.8,-11.6,0.4
1698418964402.0,16,-0.9,0.30000000000000004,0.30000000000000004,-0.6000000000000001,9.700000000000001,1.9000000000000001,-8.5,-14.4,0.9
1698418964419.0,16,-1.1,0.4,0.4,-0.8,9.8,2.0,-10.2,-17.8,1.0999999999999999
1698418964435.0,16,-1.1,0.30000000000000004,0.5,-0.8,9.700000000000001,2.1,-10.8,-20.2,0.6000000000000001
1698418964452.0,16,-0.9,-0.1,0.4,-0.5,9.3,2.0,-10.8,-25.400000000000002,0.1
1698418964469.0,16,-0.5,0.0,0.2,-0.1,9.3,1.8,-10.0,-27.1,1.0999999999999999
1698418964486.0,16,-0.2,0.1,0.0,0.1,9.5,1.6,-9.1,-27.3,1.2000000000000002
1698418964502.0,16,0.1,-0.2,-0.2,0.5,9.1,1.4000000000000001,-7.0,-24.8,-0.30000000000000004
1698418964519.0,16,0.1,-0.30000000000000004,-0.6000000000000001,0.5,9.200000000000001,1.3,-5.300000000000001,-18.6,-1.7
1698418964536.0,16,0.2,-0.1,-0.7000000000000001,0.6000000000000001,9.200000000000001,1.0,-4.7,-16.1,-1.3
1698418964552.0,16,0.0,-0.2,-0.8,0.4,9.1,0.9,-3.2,-11.8,-0.8
1698418964569.0,16,0.0,0.0,-0.7000000000000001,0.4,9.4,1.0,-1.4,-6.4,1.6
1698418964586.0,16,-0.1,0.0,-0.7000000000000001,0.30000000000000004,9.4,1.0,-0.5,-3.9,1.7
1698418964602.0,16,-0.4,-0.2,-0.5,0.0,9.200000000000001,1.2000000000000002,0.5,0.6000000000000001,0.1
1698418964619.0,16,-0.5,0.0,-0.30000000000000004,0.0,9.200000000000001,1.2000000000000002,0.8,2.5,0.1
1698418964636.0,16,-0.5,0.1,-0.2,-0.1,9.4,1.5,1.0999999999999999,3.9,1.0999999999999999
1698418964653.0,16,-0.6000000000000001,0.1,-0.1,-0.2,9.5,1.6,1.4,1.5000000000000002,1.8
1698418964670.0,16,-0.4,0.2,-0.1,0.0,9.600000000000001,1.6,2.1999999999999997,-0.9,2.1999999999999997
1698418964686.0,16,-0.30000000000000004,0.2,-0.1,0.1,9.5,1.6,2.8,-1.3,2.1
1698418964703.0,16,-0.1,-0.2,-0.2,0.30000000000000004,9.200000000000001,1.5,3.5,-1.2000000000000002,1.8
1698418964719.0,16,0.1,-0.1,-0.4,0.5,9.200000000000001,1.3,3.5,0.4,1.4
1698418964736.0,16,0.1,0.0,-0.5,0.5,9.3,1.2000000000000002,3.7000000000000006,1.7,1.4
1698418964755.0,16,0.0,0.1,-0.6000000000000001,0.4,9.4,1.0,3.8,4.2,1.3
1698418964769.0,16,-0.1,0.2,-0.6000000000000001,0.2,9.600000000000001,1.0,3.5,6.4,1.5000000000000002
1698418964786.0,16,-0.30000000000000004,0.30000000000000004,-0.7000000000000001,0.1,9.700000000000001,0.9,3.2,7.1000000000000005,1.8
1698418964802.0,16,-0.4,0.30000000000000004,-0.7000000000000001,0.0,9.700000000000001,0.9,2.0,7.6,1.9
1698418964819.0,16,-0.4,0.30000000000000004,-0.5,0.0,9.600000000000001,1.0,0.5,8.3,1.0
1698418964836.0,16,-0.4,0.2,-0.5,0.0,9.600000000000001,1.1,0.0,8.4,0.30000000000000004
1698418964855.0,16,-0.4,0.2,-0.5,0.0,9.600000000000001,1.1,-0.6000000000000001,8.4,-0.5
1698418964872.0,16,-0.30000000000000004,0.1,-0.4,0.1,9.5,1.2000000000000002,-1.2000000000000002,8.0,-0.30000000000000004
1698418964885.0,16,-0.30000000000000004,-0.1,-0.30000000000000004,0.1,9.3,1.2000000000000002,-1.6,6.9,0.2
1698418964902.0,16,-0.30000000000000004,-0.1,-0.30000000000000004,0.1,9.3,1.3,-1.2000000000000002,6.3,0.5
1698418964919.0,16,-0.2,-0.1,-0.30000000000000004,0.1,9.3,1.3,-0.9,5.300000000000001,0.6000000000000001
1698418964935.0,16,-0.2,-0.1,-0.30000000000000004,0.2,9.3,1.2000000000000002,-0.6000000000000001,4.7,0.9
1698418964953.0,16,-0.2,0.0,-0.4,0.2,9.4,1.1,-0.2,3.8,1.2000000000000002
1698418964969.0,16,-0.30000000000000004,0.1,-0.6000000000000001,0.1,9.4,1.0,0.0,3.4,1.5000000000000002
1698418964985.0,16,-0.30000000000000004,0.1,-0.5,0.1,9.5,1.0,0.1,3.4,1.4
1698418965003.0,16,-0.2,0.2,-0.5,0.2,9.600000000000001,1.0,0.30000000000000004,2.3000000000000003,1.0
1698418965019.0,16,-0.2,0.1,-0.5,0.1,9.5,1.0,0.6000000000000001,1.8,0.5
1698418965035.0,16,-0.2,0.1,-0.5,0.1,9.5,1.0,0.5,1.6,0.4
1698418965052.0,16,-0.2,0.0,-0.30000000000000004,0.2,9.5,1.1,0.2,1.0999999999999999,0.2
1698418965069.0,16,-0.2,0.1,-0.30000000000000004,0.1,9.5,1.1,-0.4,-1.0999999999999999,0.4
1698418965086.0,16,-0.2,0.1,-0.2,0.2,9.5,1.2000000000000002,-0.9,-2.3000000000000003,0.4
1698418965102.0,16,-0.1,0.0,-0.2,0.2,9.4,1.2000000000000002,-1.8,-2.7,0.7
1698418965119.0,16,-0.2,0.0,-0.2,0.2,9.4,1.2000000000000002,-2.1999999999999997,-3.1,0.9
1698418965136.0,16,-0.1,-0.1,-0.2,0.2,9.3,1.2000000000000002,-2.1999999999999997,-3.6,0.9
1698418965153.0,16,-0.1,0.0,-0.2,0.2,9.4,1.2000000000000002,-1.9,-4.7,0.7
1698418965169.0,16,-0.1,0.0,-0.2,0.2,9.4,1.2000000000000002,-1.5000000000000002,-5.2,0.30000000000000004
1698418965186.0,16,-0.1,0.0,-0.2,0.2,9.4,1.2000000000000002,-1.2000000000000002,-5.300000000000001,0.1
1698418965203.0,16,0.0,0.0,-0.2,0.30000000000000004,9.4,1.1,-0.8,-4.800000000000001,0.0
1698418965219.0,16,0.0,0.0,-0.2,0.30000000000000004,9.4,1.2000000000000002,-0.5,-3.6,0.4
1698418965235.0,16,-0.1,-0.1,-0.1,0.2,9.3,1.3,-0.5,-3.2,1.0
1698418965253.0,16,-0.1,-0.1,-0.1,0.2,9.3,1.3,-0.4,-3.1,1.2000000000000002
1698418965269.0,16,-0.1,-0.1,0.0,0.2,9.3,1.3,-0.1,-2.5,1.6
1698418965285.0,16,-0.1,0.0,0.0,0.2,9.3,1.3,0.30000000000000004,-2.1,1.0999999999999999
1698418965302.0,16,-0.1,0.0,0.0,0.2,9.3,1.4000000000000001,0.6000000000000001,-1.9,0.7
1698418965319.0,16,-0.1,0.0,0.0,0.2,9.3,1.3,1.6,-1.2000000000000002,0.1
1698418965336.0,16,-0.1,0.0,-0.1,0.2,9.3,1.3,2.1999999999999997,-0.5,-0.5
1698418965353.0,16,-0.1,0.0,-0.1,0.2,9.4,1.2000000000000002,2.1999999999999997,-0.4,-0.7
1698418965371.0,16,-0.1,0.0,-0.1,0.2,9.4,1.2000000000000002,2.4000000000000004,-0.4,-0.8
1698418965386.0,16,-0.1,0.1,-0.1,0.1,9.4,1.2000000000000002,2.4000000000000004,0.0,-0.6000000000000001
1698418965402.0,16,-0.1,0.1,-0.1,0.1,9.4,1.2000000000000002,2.4000000000000004,0.2,-0.5
1698418965419.0,16,-0.1,0.1,-0.1,0.2,9.5,1.2000000000000002,2.1,0.1,-0.1
1698418965435.0,16,-0.1,0.1,-0.1,0.2,9.5,1.1,1.9,0.30000000000000004,-0.2
1698418965452.0,16,0.0,0.1,-0.1,0.2,9.5,1.2000000000000002,1.4,0.4,-0.2
1698418965468.0,16,-0.1,0.1,-0.1,0.2,9.5,1.2000000000000002,1.0999999999999999,0.8,-0.5
1698418965485.0,16,-0.1,0.0,0.0,0.2,9.4,1.2000000000000002,0.9,1.4,-0.8
1698418965502.0,16,-0.1,0.0,-0.1,0.2,9.4,1.1,0.8,1.9,-1.0
1698418965519.0,16,-0.1,0.0,-0.1,0.1,9.4,1.1,0.6000000000000001,1.6,-1.0
1698418965535.0,16,-0.1,0.0,-0.1,0.1,9.4,1.1,0.5,1.4,-0.8
1698418965552.0,16,-0.1,0.0,-0.1,0.1,9.5,1.1,0.5,1.6,-0.8
1698418965569.0,16,-0.1,0.0,-0.1,0.1,9.5,1.1,0.1,1.6,-0.8
1698418965586.0,16,0.0,0.0,-0.1,0.2,9.5,1.1,0.1,1.6,-0.9
1698418965602.0,16,-0.1,0.1,-0.1,0.1,9.4,1.1,0.2,1.5000000000000002,-1.0
1698418965619.0,16,-0.1,0.0,-0.1,0.1,9.4,1.1,0.4,1.6,-1.0
1698418965636.0,16,-0.1,0.0,-0.1,0.1,9.4,1.1,0.4,1.2000000000000002,-0.8
1698418965652.0,16,-0.1,0.0,-0.1,0.0,9.4,1.1,0.30000000000000004,0.9,-0.5
1698418965669.0,16,-0.1,0.0,-0.1,0.1,9.4,1.1,0.30000000000000004,0.6000000000000001,-0.2
1698418965685.0,16,-0.1,0.0,-0.1,0.1,9.4,1.1,0.30000000000000004,0.5,-0.2
1698418965702.0,16,-0.1,0.0,-0.1,0.1,9.4,1.0,0.0,0.2,-0.1
1698418965718.0,16,-0.1,0.0,-0.2,0.1,9.4,1.0,-0.1,0.2,0.1
1698418965735.0,16,0.0,0.1,-0.1,0.1,9.5,1.0,-0.30000000000000004,-0.1,0.1
1698418965752.0,16,0.0,0.0,-0.1,0.1,9.5,1.1,-0.5,-0.5,0.1
1698418965769.0,16,0.0,0.0,-0.1,0.1,9.5,1.1,-0.4,-0.6000000000000001,0.1
1698418965785.0,16,0.0,0.0,0.0,0.1,9.4,1.1,-0.30000000000000004,-0.5,0.1
1698418965802.0,16,-0.1,0.0,-0.1,0.1,9.4,1.1,-0.2,0.0,0.1
1698418965819.0,16,-0.1,0.0,0.0,0.1,9.4,1.1,-0.30000000000000004,-0.1,0.0
1698418965835.0,16,0.0,0.0,-0.1,0.1,9.4,1.1,-0.5,-0.1,0.1
1698418965852.0,16,0.0,0.0,-0.1,0.1,9.5,1.1,-1.0,0.0,0.1
1698418965869.0,16,0.0,0.0,-0.1,0.1,9.5,1.1,-1.0999999999999999,0.0,0.0
1698418965886.0,16,0.0,0.0,-0.1,0.1,9.5,1.1,-0.9,-0.5,-0.1
1698418965902.0,16,0.0,0.0,-0.1,0.1,9.5,1.1,-0.8,-0.5,-0.1
1698418965919.0,16,0.0,0.0,0.0,0.1,9.5,1.1,-0.7,-0.5,0.1
1698418965935.0,16,0.0,0.0,0.0,0.1,9.4,1.1,-1.0,0.0,0.4
1698418965952.0,16,0.0,0.0,0.0,0.1,9.4,1.1,-1.0999999999999999,0.2,0.5
1698418965972.0,16,0.0,0.0,0.0,0.1,9.4,1.1,-1.2000000000000002,0.2,0.4
1698418965987.0,16,0.0,0.0,0.0,0.1,9.4,1.1,-1.0999999999999999,0.0,0.30000000000000004
1698418966002.0,16,0.0,0.0,0.0,0.1,9.4,1.1,-1.0999999999999999,0.30000000000000004,0.2
1698418966019.0,16,0.0,0.0,0.0,0.1,9.4,1.1,-1.0999999999999999,0.8,0.30000000000000004
1698418966035.0,16,0.0,0.0,0.0,0.1,9.4,1.1,-0.9,0.7,0.2
1698418966052.0,16,0.0,0.0,0.0,0.2,9.5,1.1,-0.8,0.5,0.4
1698418966069.0,16,0.0,0.1,0.0,0.2,9.5,1.1,-0.8,0.7,0.5
1698418966085.0,16,0.0,0.0,0.0,0.1,9.4,1.2000000000000002,-0.6000000000000001,0.7,0.6000000000000001
1698418966102.0,16,0.0,0.0,0.0,0.2,9.4,1.1,-0.9,0.9,0.7
1698418966119.0,16,0.0,0.0,0.0,0.2,9.4,1.1,-0.9,1.0,0.6000000000000001
1698418966135.0,16,0.0,0.0,0.0,0.2,9.5,1.2000000000000002,-1.2000000000000002,1.6,0.4
1698418966152.0,16,0.0,0.0,0.0,0.2,9.5,1.2000000000000002,-1.4,2.1,0.1
1698418966169.0,16,0.0,0.0,0.0,0.1,9.5,1.2000000000000002,-1.5000000000000002,2.0,-0.1
1698418966185.0,16,0.0,0.0,0.0,0.1,9.4,1.2000000000000002,-1.6,1.9,-0.30000000000000004
1698418966202.0,16,0.0,0.0,0.0,0.1,9.4,1.2000000000000002,-1.3,1.3,-0.5
1698418966219.0,16,0.0,0.0,0.0,0.2,9.4,1.2000000000000002,-1.4,1.0999999999999999,-0.9
1698418966236.0,16,0.0,0.0,0.0,0.1,9.5,1.2000000000000002,-1.7,2.0,-1.3
1698418966252.0,16,0.0,0.0,0.0,0.1,9.5,1.2000000000000002,-1.6,1.6,-1.2000000000000002
1698418966269.0,16,0.0,0.1,0.0,0.1,9.5,1.2000000000000002,-1.7,1.9,-1.0999999999999999
1698418966286.0,16,0.0,0.0,0.0,0.1,9.5,1.2000000000000002,-1.9,2.6,-0.4
1698418966302.0,16,-0.1,0.0,0.0,0.1,9.4,1.2000000000000002,-1.8,0.8,1.0999999999999999
1698418966319.0,16,-0.1,-0.1,0.0,0.0,9.3,1.2000000000000002,-2.1,-1.0999999999999999,2.9
1698418966335.0,16,-0.1,-0.1,0.0,0.1,9.3,1.2000000000000002,-2.1999999999999997,-1.9,3.7000000000000006
1698418966352.0,16,0.0,0.0,0.0,0.1,9.4,1.2000000000000002,-2.3000000000000003,-3.8,5.1
1698418966369.0,16,0.0,0.0,0.0,0.1,9.4,1.2000000000000002,-2.6,-5.0,5.7
1698418966386.0,16,-0.1,0.1,0.0,0.1,9.5,1.2000000000000002,-2.8,-7.9,6.3
1698418966402.0,16,-0.1,0.0,-0.1,0.1,9.4,1.2000000000000002,-3.0000000000000004,-11.8,6.5
1698418966419.0,16,0.0,0.0,-0.1,0.2,9.4,1.1,-3.3000000000000003,-12.8,6.8
1698418966435.0,16,0.0,0.1,0.0,0.2,9.5,1.2000000000000002,-3.9,-15.2,6.1000000000000005
1698418966452.0,16,0.0,-0.1,-0.1,0.2,9.3,1.2000000000000002,-3.9,-18.6,2.8
1698418966470.0,16,0.0,-0.1,-0.1,0.30000000000000004,9.3,1.1,-3.8,-22.8,2.3000000000000003
1698418966485.0,16,0.0,-0.1,-0.1,0.30000000000000004,9.3,1.1,-3.7000000000000006,-25.1,1.4
1698418966502.0,16,0.1,0.0,-0.1,0.4,9.4,1.2000000000000002,-3.5,-28.0,0.7
1698418966519.0,16,0.1,0.0,-0.1,0.4,9.4,1.2000000000000002,-3.3000000000000003,-28.500000000000004,-0.4
1698418966535.0,16,0.2,0.1,0.0,0.5,9.5,1.3,-3.3000000000000003,-28.400000000000002,-2.0
1698418966552.0,16,0.2,0.0,-0.1,0.5,9.4,1.2000000000000002,-4.1000000000000005,-28.6,-3.3000000000000003
1698418966570.0,16,0.2,0.0,0.0,0.5,9.4,1.3,-4.800000000000001,-27.5,-4.800000000000001
1698418966586.0,16,0.1,0.0,0.0,0.4,9.4,1.3,-4.7,-26.8,-4.9
1698418966602.0,16,0.0,0.0,-0.1,0.30000000000000004,9.3,1.2000000000000002,-4.6000000000000005,-25.1,-4.7
1698418966619.0,16,0.0,0.0,-0.1,0.30000000000000004,9.3,1.2000000000000002,-4.5,-25.3,-4.300000000000001
1698418966639.0,16,0.0,-0.1,0.0,0.4,9.3,1.3,-4.7,-24.6,-4.300000000000001
1698418966653.0,16,0.2,0.2,0.0,0.6000000000000001,9.600000000000001,1.3,-5.1,-24.3,-8.4
1698418966670.0,16,0.4,0.2,0.1,0.7000000000000001,9.600000000000001,1.5,-5.500000000000001,-23.1,-8.200000000000001
1698418966686.0,16,0.4,0.1,0.2,0.7000000000000001,9.5,1.6,-5.300000000000001,-21.8,-8.799999999999999
1698418966702.0,16,0.30000000000000004,-0.1,0.2,0.6000000000000001,9.3,1.6,-4.300000000000001,-15.5,-9.1
1698418966719.0,16,0.2,-0.1,0.1,0.5,9.3,1.4000000000000001,-4.0,-13.0,-8.700000000000001
1698418966735.0,16,0.2,-0.1,0.1,0.5,9.3,1.5,-3.4,-12.000000000000002,-8.1
1698418966752.0,16,0.0,-0.1,0.0,0.30000000000000004,9.3,1.4000000000000001,-1.9,-9.200000000000001,-6.7
1698418966769.0,16,-0.1,0.2,0.0,0.1,9.600000000000001,1.4000000000000001,-0.5,-7.699999999999999,-5.0
1698418966786.0,16,-0.2,0.0,0.0,0.0,9.4,1.4000000000000001,0.2,-6.7,-6.5
1698418966802.0,16,-0.30000000000000004,-0.1,-0.1,0.0,9.3,1.3,0.8,-5.8,-7.699999999999999
1698418966819.0,16,-0.2,-0.1,-0.1,0.0,9.3,1.3,0.8,-5.4,-8.200000000000001
1698418966835.0,16,-0.2,-0.1,-0.1,0.0,9.3,1.3,1.0,-6.3,-8.700000000000001
1698418966853.0,16,-0.2,0.0,-0.1,0.0,9.4,1.3,1.3,-7.300000000000001,-7.8
1698418966869.0,16,-0.2,-0.1,0.0,0.0,9.3,1.4000000000000001,0.8,-8.1,-7.6
1698418966886.0,16,-0.2,-0.1,0.0,-0.1,9.3,1.4000000000000001,0.30000000000000004,-7.699999999999999,-10.4
1698418966902.0,16,0.0,0.1,-0.1,0.1,9.5,1.3,0.30000000000000004,-6.9,-8.600000000000001
1698418966920.0,16,0.0,0.0,0.0,0.1,9.4,1.4000000000000001,0.6000000000000001,-7.400000000000001,-7.1000000000000005
1698418966936.0,16,0.0,0.0,-0.1,0.1,9.4,1.3,0.5,-7.400000000000001,-6.7
1698418966953.0,16,0.0,0.0,0.0,0.1,9.4,1.4000000000000001,-0.1,-6.1000000000000005,-6.2
1698418966969.0,16,0.0,0.1,0.0,0.1,9.4,1.4000000000000001,-0.6000000000000001,-4.7,-6.2
1698418966987.0,16,0.0,0.1,0.0,0.0,9.5,1.4000000000000001,-0.9,-4.300000000000001,-6.2
1698418967002.0,16,0.0,0.0,0.0,-0.1,9.4,1.4000000000000001,-1.3,-3.8,-6.1000000000000005
1698418967019.0,16,-0.1,0.0,0.1,-0.1,9.4,1.5,-1.6,-2.7,-5.1
1698418967035.0,16,-0.1,0.1,0.1,-0.1,9.5,1.5,-2.0,-2.8,-4.800000000000001
1698418967052.0,16,-0.2,0.1,0.2,-0.2,9.600000000000001,1.6,-3.0000000000000004,-2.8,-4.800000000000001
1698418967069.0,16,-0.30000000000000004,0.30000000000000004,0.30000000000000004,-0.4,9.700000000000001,1.8,-4.3999999999999995,-2.5,-4.6000000000000005
1698418967087.0,16,-0.30000000000000004,0.30000000000000004,0.4,-0.4,9.700000000000001,1.8,-4.300000000000001,-2.7,-5.300000000000001
1698418967102.0,16,-0.2,0.2,0.4,-0.4,9.600000000000001,1.9000000000000001,-4.3999999999999995,-3.8,-6.9
1698418967119.0,16,-0.30000000000000004,0.2,0.4,-0.4,9.600000000000001,1.8,-5.300000000000001,-4.9,-7.699999999999999
1698418967135.0,16,-0.4,0.2,0.5,-0.6000000000000001,9.600000000000001,2.0,-5.500000000000001,-4.6000000000000005,-8.799999999999999
1698418967152.0,16,-0.5,0.2,0.4,-0.7000000000000001,9.600000000000001,2.0,-4.3999999999999995,-5.0,-10.8
1698418967169.0,16,-0.5,-0.1,0.4,-0.7000000000000001,9.3,2.0,-3.1,-6.6000000000000005,-12.100000000000001
1698418967185.0,16,-0.5,0.0,0.30000000000000004,-0.7000000000000001,9.3,1.9000000000000001,-3.2,-7.6,-11.8
1698418967202.0,16,-0.6000000000000001,0.1,0.2,-0.8,9.5,1.8,-3.9,-9.700000000000001,-12.100000000000001
1698418967219.0,16,-0.8,-0.1,0.0,-1.1,9.3,1.6,-4.2,-12.5,-12.000000000000002
1698418967236.0,16,-0.9,-0.2,0.0,-1.2000000000000002,9.200000000000001,1.6,-3.9,-14.600000000000001,-11.6
1698418967252.0,16,-1.0,-0.2,-0.2,-1.4000000000000001,9.200000000000001,1.4000000000000001,-2.8,-18.6,-10.8
1698418967269.0,16,-1.0,0.0,-0.2,-1.4000000000000001,9.4,1.4000000000000001,-2.3000000000000003,-22.8,-10.600000000000001
1698418967285.0,16,-0.9,0.0,-0.1,-1.3,9.4,1.5,-2.0,-24.1,-10.600000000000001
1698418967302.0,16,-0.7000000000000001,0.1,0.0,-1.2000000000000002,9.5,1.6,-1.2000000000000002,-25.8,-10.4
1698418967319.0,16,-0.6000000000000001,0.0,0.1,-1.0,9.4,1.7000000000000002,-0.6000000000000001,-28.6,-9.700000000000001
1698418967336.0,16,-0.5,0.0,0.1,-1.0,9.4,1.7000000000000002,-0.7,-30.000000000000004,-9.4
1698418967352.0,16,-0.6000000000000001,0.0,0.1,-1.1,9.4,1.8,-1.7,-32.7,-8.799999999999999
1698418967369.0,16,-0.6000000000000001,0.0,0.4,-1.1,9.4,2.1,-1.7,-34.800000000000004,-7.300000000000001
1698418967385.0,16,-0.5,0.0,0.5,-1.0,9.4,2.2,-1.5000000000000002,-36.0,-6.8
1698418967403.0,16,-0.4,0.2,0.4,-0.9,9.600000000000001,2.1,-1.3,-37.1,-6.9
1698418967419.0,16,-0.5,0.1,0.5,-1.0,9.5,2.2,-2.3000000000000003,-39.300000000000004,-7.0
1698418967435.0,16,-0.5,0.0,0.5,-1.0,9.4,2.2,-2.6,-39.9,-6.6000000000000005
1698418967452.0,16,-0.6000000000000001,-0.30000000000000004,0.5,-1.1,9.1,2.2,-2.8,-42.400000000000006,-5.4
1698418967469.0,16,-0.6000000000000001,-0.2,0.5,-1.1,9.200000000000001,2.2,-3.9,-46.7,-3.8
1698418967485.0,16,-0.7000000000000001,-0.2,0.5,-1.2000000000000002,9.200000000000001,2.3000000000000003,-5.4,-51.5,-1.8
1698418967502.0,16,-0.8,-0.2,0.5,-1.2000000000000002,9.200000000000001,2.3000000000000003,-6.4,-55.0,-0.4
1698418967520.0,16,-0.9,-0.30000000000000004,0.5,-1.4000000000000001,9.0,2.3000000000000003,-9.200000000000001,-63.4,1.8
1698418967536.0,16,-1.2000000000000002,-0.5,0.4,-1.6,8.9,2.3000000000000003,-9.9,-71.6,2.8
1698418967552.0,16,-1.3,-0.5,0.5,-1.6,8.8,2.4000000000000004,-11.1,-76.60000000000001,2.6
1698418967569.0,16,-1.3,-0.5,0.5,-1.6,8.8,2.4000000000000004,-15.2,-86.2,2.9
1698418967585.0,16,-1.1,-0.30000000000000004,0.6000000000000001,-1.3,9.0,2.6,-17.400000000000002,-94.9,5.0
1698418967602.0,16,-1.1,-0.1,0.6000000000000001,-1.3,9.200000000000001,2.7,-18.8,-97.60000000000001,4.800000000000001
1698418967619.0,16,-0.9,0.1,0.7000000000000001,-1.1,9.4,2.8000000000000003,-22.8,-103.1,2.6
1698418967635.0,16,-0.8,0.4,0.8,-0.9,9.600000000000001,2.9000000000000004,-22.2,-107.9,-1.8
1698418967652.0,16,-0.7000000000000001,0.4,0.7000000000000001,-0.7000000000000001,9.700000000000001,3.0,-22.6,-108.8,-3.8
1698418967669.0,16,0.0,0.2,0.5,0.0,9.5,2.8000000000000003,-25.2,-117.5,-8.0
1698418967685.0,16,1.3,-0.1,0.1,1.4000000000000001,9.1,2.5,-23.0,-117.4,-7.699999999999999
1698418967702.0,16,1.9000000000000001,0.30000000000000004,-0.4,2.5,9.9,1.9000000000000001,-23.0,-109.9,-6.7
1698418967719.0,16,2.5,0.9,-0.6000000000000001,2.7,10.100000000000001,2.0,-24.6,-84.3,-3.8
1698418967735.0,16,1.0,0.2,-1.0,1.3,9.4,1.6,-21.5,-90.4,-1.0999999999999999
1698418967753.0,16,0.1,-0.30000000000000004,-1.5,0.5,8.9,1.1,-18.0,-89.30000000000001,2.3000000000000003
1698418967769.0,16,-0.5,-0.4,-2.4000000000000004,0.0,8.700000000000001,0.2,-12.700000000000001,-90.0,8.1
1698418967785.0,16,-0.9,-0.1,-2.5,-0.30000000000000004,9.1,0.1,-12.200000000000001,-101.10000000000001,9.200000000000001
1698418967802.0,16,-0.7000000000000001,0.6000000000000001,-2.5,-0.30000000000000004,9.3,0.1,-11.700000000000001,-104.60000000000001,11.5
1698418967819.0,16,-0.5,0.9,-2.5,0.30000000000000004,10.100000000000001,0.1,-8.799999999999999,-107.2,9.200000000000001
1698418967835.0,16,0.1,0.9,-2.5,0.7000000000000001,10.0,0.1,-8.1,-111.60000000000001,2.9
1698418967853.0,16,0.2,1.0,-2.4000000000000004,1.1,10.100000000000001,0.2,-7.8,-116.69999999999999,2.4000000000000004
1698418967869.0,16,0.2,1.0,-2.4000000000000004,1.1,10.100000000000001,0.2,-7.8,-116.69999999999999,2.4000000000000004
1698418967885.0,16,0.4,-0.6000000000000001,-2.0,1.6,8.5,0.5,-12.8,-120.40000000000002,-5.2
1698418967902.0,16,0.7000000000000001,-0.7000000000000001,-1.6,1.9000000000000001,8.4,0.9,-13.8,-118.40000000000002,-11.000000000000002
1698418967919.0,16,0.7000000000000001,-0.8,-1.5,1.9000000000000001,8.3,0.9,-13.6,-115.10000000000002,-17.400000000000002
1698418967935.0,16,0.8,-0.8,-1.5,2.0,8.3,0.9,-11.700000000000001,-105.9,-28.6
1698418967952.0,16,0.8,-0.8,-1.6,2.0,8.3,0.8,-10.2,-100.9,-32.9
1698418967969.0,16,1.0,-0.6000000000000001,-1.9000000000000001,2.2,8.5,0.5,-7.2,-94.3,-37.2
1698418967985.0,16,1.1,-0.5,-1.9000000000000001,2.3000000000000003,8.6,0.4,-4.7,-91.0,-27.2
1698418968002.0,16,1.0,-0.5,-1.8,2.2,8.6,0.5,-4.300000000000001,-90.7,-25.3
1698418968019.0,16,0.7000000000000001,-0.6000000000000001,-1.6,1.9000000000000001,8.5,0.7000000000000001,-3.7000000000000006,-89.7,-28.6
1698418968036.0,16,0.6000000000000001,-0.5,-1.6,1.8,8.6,0.7000000000000001,-5.8,-84.60000000000001,-31.099999999999998
1698418968053.0,16,0.9,-0.30000000000000004,-1.4000000000000001,2.0,8.8,0.8,-9.4,-80.2,-34.1
1698418968069.0,16,1.1,-0.2,-1.2000000000000002,2.2,9.0,1.0,-10.9,-77.3,-35.8
1698418968085.0,16,1.9000000000000001,0.30000000000000004,-0.8,3.0,9.5,1.5,-12.700000000000001,-71.0,-38.6
1698418968102.0,16,2.5,0.7000000000000001,-0.6000000000000001,3.5,9.8,1.6,-12.8,-67.4,-40.6
1698418968119.0,16,3.0,1.0,-0.5,4.0,10.100000000000001,1.8,-11.2,-55.4,-44.4
1698418968135.0,16,2.6,0.6000000000000001,-0.7000000000000001,3.5,9.8,1.6,-11.4,-41.7,-40.5
1698418968153.0,16,2.2,0.30000000000000004,-0.8,3.1,9.5,1.5,-12.200000000000001,-37.800000000000004,-37.0
1698418968170.0,16,1.3,0.0,-1.2000000000000002,2.1,9.1,1.1,-10.1,-35.9,-29.000000000000004
1698418968186.0,16,0.8,0.2,-1.6,1.6,9.3,0.7000000000000001,-5.9,-39.2,-20.2
1698418968202.0,16,0.9,0.5,-1.7000000000000002,1.6,9.700000000000001,0.6000000000000001,-2.3000000000000003,-44.8,-17.400000000000002
1698418968219.0,16,1.0,0.6000000000000001,-1.7000000000000002,1.8,9.8,0.6000000000000001,-1.9,-46.2,-18.7
1698418968236.0,16,1.2000000000000002,0.4,-1.6,2.0,9.5,0.7000000000000001,-4.3999999999999995,-49.6,-21.8
1698418968252.0,16,1.1,0.2,-1.3,1.8,9.4,0.9,-4.300000000000001,-58.3,-17.9
1698418968269.0,16,1.0,0.1,-1.2000000000000002,1.7000000000000002,9.3,1.0,-1.6,-61.4,-12.700000000000001
1698418968285.0,16,0.7000000000000001,-0.30000000000000004,-1.8,1.5,8.9,0.4,-0.1,-78.9,2.8
1698418968302.0,16,0.7000000000000001,-0.30000000000000004,-1.3,1.6,8.9,0.9,0.1,-90.5,2.6
1698418968319.0,16,1.1,0.30000000000000004,-1.7000000000000002,2.1,9.5,0.4,6.000000000000001,-101.0,-4.5
1698418968335.0,16,1.5,0.2,-1.2000000000000002,2.5,9.4,0.9,4.800000000000001,-103.2,-7.2
1698418968352.0,16,1.9000000000000001,-0.5,-0.9,3.0,8.700000000000001,1.1,9.3,-77.4,-14.4
1698418968369.0,16,1.8,-0.30000000000000004,-0.7000000000000001,2.3000000000000003,9.700000000000001,2.1,11.3,-65.8,-15.5
1698418968385.0,16,0.0,1.9000000000000001,1.0,1.1,11.100000000000001,3.0,14.3,-58.7,-7.300000000000001
1698418968402.0,16,-1.7000000000000002,4.3,1.4000000000000001,-0.6000000000000001,13.5,3.3000000000000003,14.700000000000001,-65.3,13.6
1698418968418.0,16,-1.2000000000000002,1.6,1.5,0.0,10.9,3.3000000000000003,11.6,-39.2,2.3000000000000003
1698418968435.0,16,-0.6000000000000001,0.7000000000000001,1.5,0.5,10.0,3.3000000000000003,10.2,-36.0,-5.300000000000001
1698418968452.0,16,-1.0,0.4,1.0,0.2,9.700000000000001,2.8000000000000003,4.7,-34.6,-16.6
1698418968468.0,16,-2.4000000000000004,0.6000000000000001,0.8,-1.3,9.9,2.5,2.4000000000000004,-35.1,-29.400000000000002
1698418968485.0,16,-3.1,0.6000000000000001,0.9,-2.1,10.0,2.7,2.8,-38.400000000000006,-34.400000000000006
1698418968502.0,16,-4.0,0.8,0.9,-3.1,10.100000000000001,2.6,5.2,-48.6,-38.800000000000004
1698418968518.0,16,-3.8000000000000003,0.7000000000000001,0.5,-3.0,10.100000000000001,2.2,6.9,-50.5,-37.2
1698418968535.0,16,-3.2,0.1,0.2,-2.5,9.5,1.9000000000000001,9.0,-55.6,-35.9
1698418968552.0,16,-2.7,-0.6000000000000001,0.2,-2.1,8.8,1.8,5.7,-53.9,-38.6
1698418968568.0,16,-2.1,-0.8,0.1,-1.6,8.6,1.8,3.3000000000000003,-49.8,-41.1
1698418968585.0,16,-1.8,-0.7000000000000001,0.30000000000000004,-1.4000000000000001,8.700000000000001,1.9000000000000001,3.0000000000000004,-48.50000000000001,-41.4
1698418968602.0,16,-1.4000000000000001,-0.30000000000000004,0.5,-1.1,9.1,2.1,3.8,-48.6,-37.900000000000006
1698418968618.0,16,-0.9,-0.30000000000000004,0.5,-0.8,9.1,2.1,2.9,-52.1,-31.7
1698418968635.0,16,-0.7000000000000001,-0.5,0.4,-0.6000000000000001,8.9,2.0,1.7,-52.6,-30.000000000000004
1698418968652.0,16,-0.4,-0.7000000000000001,0.30000000000000004,-0.30000000000000004,8.700000000000001,1.9000000000000001,0.2,-54.7,-25.2
1698418968668.0,16,-0.2,-0.7000000000000001,0.1,-0.2,8.6,1.7000000000000002,0.30000000000000004,-51.7,-22.1
1698418968686.0,16,-0.2,-0.6000000000000001,0.0,-0.2,8.700000000000001,1.6,-0.7,-49.1,-20.1
1698418968702.0,16,-0.1,-0.6000000000000001,-0.1,-0.1,8.700000000000001,1.6,-3.4,-42.800000000000004,-17.0
1698418968719.0,16,0.1,-0.4,-0.4,0.0,9.0,1.3,-6.3,-33.800000000000004,-13.100000000000001
1698418968736.0,16,0.1,-0.4,-0.5,0.1,8.9,1.1,-8.4,-29.800000000000004,-10.9
1698418968752.0,16,0.1,-0.5,-0.8,0.1,8.8,0.8,-12.200000000000001,-21.900000000000002,-6.3
1698418968769.0,16,0.0,-0.7000000000000001,-0.9,0.0,8.700000000000001,0.8,-13.700000000000001,-18.6,-4.300000000000001
1698418968786.0,16,-0.30000000000000004,-0.8,-1.0,-0.4,8.6,0.7000000000000001,-18.2,-13.4,1.0
1698418968802.0,16,-0.9,-0.4,-0.9,-0.9,8.9,0.9,-19.500000000000004,-14.200000000000001,8.4
1698418968819.0,16,-1.2000000000000002,0.0,-0.9,-1.2000000000000002,9.3,0.9,-17.8,-18.1,11.2
1698418968835.0,16,-1.6,0.2,-1.0,-1.6,9.5,0.8,-13.0,-28.700000000000003,14.0
1698418968853.0,16,-1.6,-0.1,-1.6,-1.5,9.200000000000001,0.30000000000000004,-11.1,-35.8,12.5
1698418968869.0,16,-0.8,-0.30000000000000004,-1.9000000000000001,-1.2000000000000002,9.0,0.1,-12.3,-38.400000000000006,10.3
1698418968887.0,16,-0.5,-0.4,-2.1,-0.30000000000000004,8.9,-0.1,-11.1,-40.1,8.0
1698418968902.0,16,0.0,-0.6000000000000001,-2.0,0.2,8.700000000000001,-0.1,-8.9,-38.1,4.2
1698418968919.0,16,0.30000000000000004,-0.5,-1.9000000000000001,0.5,8.8,0.0,-5.0,-35.6,3.4
1698418968935.0,16,0.30000000000000004,-0.4,-2.0,0.5,8.9,0.0,-3.1,-34.800000000000004,4.0
1698418968952.0,16,-0.30000000000000004,0.0,-2.0,0.0,9.3,-0.1,-2.5,-34.0,2.4000000000000004
1698418968969.0,16,-0.8,0.0,-1.7000000000000002,-0.5,9.3,0.2,-3.9,-32.6,-2.5
1698418968986.0,16,-1.0,0.2,-1.8,-0.7000000000000001,9.4,0.1,-5.1,-33.0,0.4
1698418969002.0,16,-1.7000000000000002,0.30000000000000004,-1.8,-1.4000000000000001,9.600000000000001,0.1,-5.0,-40.6,3.1
1698418969019.0,16,-1.9000000000000001,0.5,-2.0,-1.5,9.700000000000001,0.0,-2.1999999999999997,-42.0,2.1
1698418969035.0,16,-1.9000000000000001,0.5,-2.1,-1.5,9.8,-0.30000000000000004,3.3000000000000003,-42.6,-8.3
1698418969052.0,16,-1.3,0.4,-2.4000000000000004,-1.0,9.700000000000001,-0.6000000000000001,9.4,-45.5,-21.1
1698418969069.0,16,-0.6000000000000001,0.1,-2.4000000000000004,-0.4,9.4,-0.6000000000000001,11.8,-47.1,-29.800000000000004
1698418969086.0,16,-0.30000000000000004,0.2,-1.9000000000000001,-0.2,9.5,-0.2,11.9,-48.400000000000006,-30.599999999999998
1698418969102.0,16,0.8,3.2,0.4,0.9,12.600000000000001,2.1,13.5,-52.50000000000001,-40.3
1698418969119.0,16,0.4,2.2,-1.0,0.4,11.600000000000001,0.6000000000000001,15.6,-19.700000000000003,-50.6
1698418969135.0,16,0.5,1.6,-0.6000000000000001,0.4,11.0,1.0,14.900000000000002,-15.299999999999999,-40.2
1698418969155.0,16,0.9,1.9000000000000001,0.0,0.7000000000000001,11.200000000000001,1.6,11.5,-13.100000000000001,-27.3
1698418969169.0,16,0.6000000000000001,1.6,-1.2000000000000002,0.4,11.0,0.4,11.6,-7.699999999999999,-22.000000000000004
1698418969186.0,16,0.0,0.9,-1.3,-0.30000000000000004,10.3,0.2,5.1,-14.700000000000001,-8.1
1698418969202.0,16,-0.30000000000000004,1.7000000000000002,-0.6000000000000001,-0.5,11.100000000000001,0.9,8.5,-20.8,0.6000000000000001
1698418969218.0,16,0.0,2.8000000000000003,1.4000000000000001,-0.30000000000000004,12.200000000000001,2.8000000000000003,16.0,-28.3,-2.3000000000000003
1698418969235.0,16,0.30000000000000004,3.6,2.4000000000000004,0.0,13.100000000000001,3.7,17.9,-25.5,-3.1
1698418969252.0,16,-0.30000000000000004,2.0,1.8,-0.5,11.5,3.2,16.0,-34.2,-8.0
1698418969269.0,16,-1.7000000000000002,-0.30000000000000004,1.7000000000000002,-1.9000000000000001,9.200000000000001,3.1,12.200000000000001,-61.7,3.7000000000000006
1698418969285.0,16,-2.3000000000000003,-0.5,1.4000000000000001,-2.5,9.0,2.7,13.700000000000001,-69.80000000000001,8.600000000000001
1698418969302.0,16,-2.4000000000000004,-0.9,0.9,-2.5,8.700000000000001,2.2,27.1,-73.2,6.2
1698418969319.0,16,-0.7000000000000001,-0.4,0.9,-0.8,9.1,2.1,37.6,-65.89999999999999,-1.3
1698418969336.0,16,0.8,-0.1,0.7000000000000001,0.7000000000000001,9.4,1.9000000000000001,29.900000000000006,-62.4,-4.1000000000000005
1698418969352.0,16,1.9000000000000001,-0.1,0.9,1.8,9.4,2.0,-14.200000000000001,-67.3,-2.7
1698418969369.0,16,1.3,-0.7000000000000001,0.0,1.2000000000000002,8.8,1.3,-32.6,-63.4,11.000000000000002
1698418969386.0,16,0.8,-1.4000000000000001,-0.1,0.8,8.1,1.2000000000000002,-27.3,-61.199999999999996,17.9
1698418969403.0,16,0.2,-2.9000000000000004,-0.2,0.4,6.6000000000000005,1.2000000000000002,-15.299999999999999,-60.20000000000001,25.900000000000002
1698418969418.0,16,-0.1,-2.5,-0.4,0.1,7.0,1.0,-21.700000000000003,-70.5,22.8
1698418969435.0,16,-0.5,-2.0,-0.5,-0.30000000000000004,7.4,0.9,-23.3,-75.5,13.3
1698418969452.0,16,-1.1,-2.2,-0.6000000000000001,-0.8,7.1000000000000005,0.9,-19.200000000000003,-78.60000000000001,-11.5
1698418969469.0,16,-0.1,-1.3,-1.1,0.1,8.0,0.4,-11.6,-76.80000000000001,-15.100000000000001
1698418969486.0,16,0.8,-1.2000000000000002,-1.1,0.7000000000000001,8.200000000000001,0.4,-8.4,-78.2,-14.600000000000001
1698418969503.0,16,1.1,-1.6,-1.1,1.4000000000000001,7.800000000000001,0.4,-6.4,-76.4,-9.9
1698418969519.0,16,1.4000000000000001,-2.2,-1.2000000000000002,1.7000000000000002,7.2,0.30000000000000004,-7.500000000000001,-69.4,-4.6000000000000005
1698418969536.0,16,1.5,-2.0,-1.2000000000000002,1.7000000000000002,7.1000000000000005,0.30000000000000004,-7.500000000000001,-66.3,-6.5
1698418969552.0,16,1.6,-1.5,-1.2000000000000002,1.9000000000000001,7.800000000000001,0.30000000000000004,-7.2,-63.6,-9.0
1698418969569.0,16,1.8,-0.30000000000000004,-1.0,2.1,9.0,0.6000000000000001,-18.400000000000002,-51.900000000000006,-12.8
1698418969586.0,16,1.9000000000000001,-0.2,-1.3,2.2,9.0,0.30000000000000004,-23.2,-45.4,-18.7
1698418969602.0,16,1.9000000000000001,0.0,-1.5,2.2,9.200000000000001,0.1,-22.2,-38.2,-20.5
1698418969619.0,16,1.8,-0.2,-2.0,2.1,9.1,-0.30000000000000004,-20.8,-26.400000000000002,-18.1
1698418969635.0,16,2.0,0.7000000000000001,-2.7,2.3000000000000003,10.0,-0.9,-18.3,-19.1,-4.7
1698418969653.0,16,1.8,-0.30000000000000004,-2.8000000000000003,2.1,8.9,-1.0,-14.900000000000002,-13.0,-5.500000000000001
1698418969669.0,16,2.2,-0.30000000000000004,-1.5,2.5,9.0,0.30000000000000004,-10.4,-0.5,-7.500000000000001
1698418969685.0,16,2.3000000000000003,0.30000000000000004,-1.6,2.4000000000000004,9.8,0.4,-10.3,9.5,-5.500000000000001
1698418969703.0,16,2.4000000000000004,-0.6000000000000001,-1.5,2.7,8.700000000000001,0.30000000000000004,-15.8,12.4,-4.1000000000000005
1698418969719.0,16,1.8,0.8,-1.6,2.1,10.0,0.30000000000000004,-32.7,13.9,-13.4
1698418969736.0,16,1.0,5.4,-2.5,1.2000000000000002,14.700000000000001,-0.6000000000000001,-18.0,16.6,-12.000000000000002
1698418969753.0,16,0.8,5.2,-2.8000000000000003,1.0,14.5,-0.8,-14.800000000000002,19.500000000000004,-3.7000000000000006
1698418969769.0,16,1.0,1.7000000000000002,-3.9000000000000004,1.2000000000000002,10.9,-1.9000000000000001,-11.700000000000001,23.0,6.3
1698418969786.0,16,1.0,0.8,-2.5,1.2000000000000002,10.100000000000001,-0.5,-7.0,26.400000000000002,4.0
1698418969802.0,16,-0.4,3.8000000000000003,-1.7000000000000002,-0.2,13.100000000000001,0.2,24.1,19.8,15.9
1698418969819.0,16,0.0,5.2,2.2,0.4,14.600000000000001,4.0,14.3,-85.60000000000001,39.50000000000001
1698418969835.0,16,-0.6000000000000001,0.9,1.7000000000000002,-0.1,10.3,3.5,20.4,10.9,28.0
1698418969852.0,16,0.1,0.2,0.30000000000000004,0.6000000000000001,9.600000000000001,2.1,20.4,19.0,23.0
1698418969869.0,16,0.1,-1.2000000000000002,0.6000000000000001,0.7000000000000001,8.1,2.4000000000000004,8.3,42.900000000000006,5.2
1698418969886.0,16,-0.30000000000000004,0.1,1.8,0.2,9.5,3.5,14.3,38.1,1.5000000000000002
1698418969902.0,16,-2.0,3.3000000000000003,4.9,-1.5,12.700000000000001,6.6000000000000005,19.6,17.400000000000002,-2.1999999999999997
1698418969919.0,16,-2.1,2.7,3.6,-1.6,12.200000000000001,5.300000000000001,28.0,17.200000000000003,16.400000000000002
1698418969935.0,16,-1.0,-1.6,1.7000000000000002,-0.5,7.9,3.2,87.7,25.700000000000003,19.500000000000004
1698418969952.0,16,-0.5,-1.0,2.8000000000000003,0.1,9.9,4.2,111.4,39.00000000000001,9.9
1698418969969.0,16,-0.5,1.1,1.5,0.1,10.600000000000001,2.6,47.1,46.1,-1.8
1698418969985.0,16,-0.8,-0.7000000000000001,0.5,-0.30000000000000004,8.8,1.7000000000000002,-48.50000000000001,28.900000000000002,-12.9
