timestamp,interval,accx,accy,accz,accGx,accGy,accGz,alpha,beta,gamma
1698418955.174,0.01666666753590107,-0.015785232826694844,0.11372764759734272,0.14257365672290323,0.8328824641354382,-1.6398777689509092,-9.468618653106688,2.6893227392256405,-0.9018498537154327,-0.4202348325240128
1698418955.19,0.01666666753590107,-0.0014705840092152356,0.08339154604449868,0.17109481780827043,0.8444044865597039,-1.6808783262506126,-9.438391857147217,2.6903617817531282,-0.8037722859371635,-0.820375248509848
1698418955.206,0.01666666753590107,-0.00023176292926073072,0.05360387215465307,0.14086568376123904,0.8448534724362194,-1.713499470000714,-9.46816974029541,-0.28535964727272634,-0.36162788742261587,-1.0169878466582185
1698418955.223,0.01666666753590107,-0.023505013423785567,0.02320814936906099,0.1112479596108198,0.8204625430233776,-1.741930468584597,-9.498246898651123,-0.7162987469278977,-0.5042114480803642,-0.8595430750269919
1698418955.24,0.01666666753590107,-0.03489339953102171,0.007955635179579257,0.1907996352314949,0.8095389979489147,-1.7564454622797667,-9.418789915576577,-0.1282463265792304,-0.40194195842070546,0.22153739917277515
1698418955.256,0.01666666753590107,-0.012414879610762,-0.0757416158132255,0.15292261677980423,0.8286926112301647,-1.7446242377132177,-9.47400619136393,-0.5260815537201864,-2.9552753644671275,1.7963418861474691
1698418955.273,0.01666666753590107,0.03271094092540443,-0.06893442001640797,0.18024550799131392,0.8755292542722075,-1.7570440126948057,-9.443180260467528,-0.4463849321329206,-4.089842996696412,2.465592422442468
1698418955.29,0.01666666753590107,-0.006053089493885636,-0.03193652248680592,0.15489362459182737,0.831236523559317,-1.7417809771113097,-9.465176988220215,-0.5660290890197696,-2.0850362665607483,1.3521739373695996
1698418955.306,0.01666666753590107,-0.04877557521536946,-0.020000000977516173,0.11103811625242233,0.7829035044796765,-1.7368429361872375,-9.508273202624917,-0.5947688174998906,-1.620221189530459,0.4725348983396962
1698418955.323,0.01666666753590107,-0.022706921848654745,-0.022838293143361804,0.11753799966573715,0.8047505946286022,-1.7571936502985654,-9.498995086669922,0.8522221260929431,-0.267545313298143,0.3967378078404053
1698418955.34,0.01666666753590107,-0.14444573420509696,-0.001787175677716732,0.26312662029564376,0.694467680657655,-1.7464197428278625,-9.350554583740234,0.46564067614621457,3.03705044463534,1.7408692241427413
1698418955.356,0.01666666753590107,-0.09799947872012853,0.049285424433648584,0.20715689579248428,0.7484868556149303,-1.6991342600397765,-9.405172309112547,-0.3566560966762284,0.3936688917885275,2.955888373945136
1698418955.373,0.01666666753590107,0.002081993905827403,0.06378741251677274,0.21044424690008162,0.8476966599728911,-1.6900063662104308,-9.400982456207275,0.5555839155098218,-1.2558066916481838,1.3293030489338118
1698418955.39,0.01666666753590107,0.008367503916099667,0.04122121431306004,0.11890753445327282,0.8441052844174206,-1.7137988913387059,-9.49315922012329,-0.17599872704751507,-2.2247701975915732,-0.24248959142117105
1698418955.406,0.01666666753590107,0.006266074657440186,0.011847381921112538,0.07110767240226268,0.8343788401730358,-1.7422297437921166,-9.541791441345215,-1.429508647525363,-2.8129414792400547,-0.6395253395836917
1698418955.423,0.01666666753590107,-0.014744199341163038,-0.04676175117492676,0.06666998221576213,0.7963709618832916,-1.801935439953208,-9.547478254809976,-1.3414740191479513,-2.280442215742701,-0.8685335783262856
1698418955.44,0.01666666753590107,-0.12537022766135633,-0.050439416774362325,0.10855857439637183,0.6820477595455944,-1.7983438452020286,-9.507224570354818,-1.0238383129523299,-0.9411944113773507,0.10410907838264002
1698418955.456,0.01666666753590107,-0.11001337631456554,-0.04624181895405054,0.06904372560977935,0.6950663041379302,-1.7911615324825048,-9.547477670288085,-0.5440484196927577,-3.0172614656191086,2.052098959948831
1698418955.473,0.01666666753590107,-0.11628653829991817,0.016624240934103727,0.18940321243703365,0.6796536309506743,-1.7305581568293273,-9.427468312072753,1.735843058687258,-4.781890570006797,2.7200532544054083
1698418955.49,0.01666666753590107,-0.13443199745193124,0.11595175338760018,0.20265198558866976,0.6533172665584832,-1.6377826963678002,-9.413701068004965,1.4025758242458277,-3.4860376254811825,2.358831869960114
1698418955.506,0.01666666753590107,-0.11654219356141984,0.11830825338587164,0.2228419561803341,0.6630437838681041,-1.6391295809321105,-9.393500576019287,-0.43239216904023875,-3.093224268247052,1.2818481752410325
1698418955.523,0.01666666753590107,-0.06749627697207033,0.11024506617859005,0.13236907357275485,0.6943180430538952,-1.649753850799054,-9.484929151916504,-0.27345665526180396,-3.318654875246734,-0.32432811764347047
1698418955.54,0.01666666753590107,-0.12411065605431794,0.08978869973570108,0.18775602975189684,0.6295248875606805,-1.6727980417780577,-9.42971287612915,-0.18100565591553108,0.03660802636269651,-1.8394728232088071
1698418955.556,0.01666666753590107,-0.16795228199884293,0.08942717294692992,0.1791144581347704,0.5874767209041863,-1.670553331591189,-9.438691132354736,-1.6971173801971666,1.9093676430894286,-1.8959416256152992
1698418955.573,0.01666666753590107,-0.13808284810967741,0.04980667182877659,0.17702888403236866,0.6218933697689324,-1.6991341139093041,-9.44243207244873,-1.7275588929976788,2.3909723923166672,-0.8418233765250103
1698418955.59,0.01666666753590107,-0.05665639159306884,0.06848536107465625,0.20395663844645023,0.704643037713319,-1.6741447802118956,-9.41654476699829,-0.5023392825566931,0.8285640583553116,-0.7185476400729773
1698418955.606,0.01666666753590107,-0.06254800691492855,0.06843187732174992,0.1670844131231308,0.6991065194394439,-1.6719002161554992,-9.453805114856362,-0.283280068113869,0.47321114042838036,-0.4068422723046458
1698418955.623,0.01666666753590107,-0.08391812720187009,0.022661767532676458,0.1551011298626661,0.6750147921688854,-1.7123022230401634,-9.46697263946533,-2.121954079354902,-0.2555214856358496,-0.5660658546474112
1698418955.64,0.01666666753590107,-0.020788521006703375,0.015530162087082862,0.12713117291927337,0.7302310679562389,-1.7120030939631163,-9.496900160217285,-2.778804834098566,-1.563297325770515,-0.5540105174014858
1698418955.656,0.01666666753590107,-0.01884746994152665,-0.01788797725960612,0.09335516004562378,0.7266396924007683,-1.7392371378473936,-9.532214634704589,-1.9330948664924066,-0.9265219911013997,-0.7912767216548896
1698418955.673,0.01666666753590107,-0.06879771495945751,-0.030021628776192664,0.044347091248631475,0.6730695763852447,-1.7458211924128233,-9.58249286956787,-1.4792398952024606,-0.40753839131103176,-0.7905390078636754
1698418955.69,0.01666666753590107,-0.07108787172324955,-0.047854807108640665,-0.007944821524620055,0.6696277653682977,-1.7603358938470481,-9.635464581298828,-1.180854116687168,0.6085138261526009,-0.9095727699543072
1698418955.706,0.01666666753590107,-0.06470810755826532,-0.041013709042221305,0.02007540430128574,0.6762118929989636,-1.7515074213556945,-9.607781624603271,-0.9676032310814991,0.4718359778885335,-0.6143076941986229
1698418955.723,0.01666666753590107,-0.07638670878373086,-0.05224836589246988,0.017309446719288826,0.6652883479245006,-1.7619817613579332,-9.610624739074707,-0.3172948637477821,0.32122707835815245,-0.21715980820375233
1698418955.74,0.01666666753590107,-0.10566175697632134,-0.040321488994359965,0.04148293398916721,0.6343133639462292,-1.7528541597895324,-9.586084172058104,0.1961983845278063,-0.3266699120334328,0.14811437303923222
1698418955.756,0.01666666753590107,-0.11716061772070824,-0.043534021300077434,0.031874563166499136,0.6196488787777722,-1.7592885767512023,-9.59536170349121,1.2971013750398461,-0.3616881851863824,0.37801420493256405
1698418955.773,0.01666666753590107,-0.06046798577047884,-0.007090396652370691,0.09140928667485713,0.6705256640560925,-1.7313061987176537,-9.534759058490396,2.0440425383793897,-0.7317409508676503,0.026988185164409564
1698418955.79,0.01666666753590107,-0.07671835189089178,0.007746814734488725,0.10849836864173412,0.6525690785396844,-1.7220286672845482,-9.516801961517334,1.415166851093923,1.4113864481100267,-1.1654709298507124
1698418955.81,0.01666666753590107,-0.06163797939792275,0.012534633532911538,0.10593524015545844,0.6717227648861706,-1.7197842493586242,-9.51859761276245,0.22941524864801793,2.204824337667844,-1.9844484975407937
1698418955.823,0.01666666753590107,-0.03999481432326138,0.015210282482951878,0.07237316229343414,0.6949166665341705,-1.719185698943585,-9.551667523193359,0.6038324251676447,0.5206594507362541,-1.5768857736808437
1698418955.84,0.01666666753590107,-0.01865837711021304,0.02421907997727394,0.062034139108657835,0.7110773816097528,-1.7140978742852806,-9.561693242645264,1.7225463879205358,-0.9993669190949377,-1.2313168349356916
1698418955.855,0.01666666753590107,-0.057666372353211044,0.028610592934489247,0.06337035614848137,0.6687300858762115,-1.7152951212458312,-9.559598316192627,2.48627338147562,-1.1205880492672662,-0.862197510654041
1698418955.873,0.01666666753590107,-0.016391455091536045,0.016191110213845967,0.06152794315218925,0.7044934001095593,-1.7351969225458799,-9.560496141815184,1.9917284119789695,-0.5249037729751823,-0.4561653894984086
1698418955.89,0.01666666753590107,-0.010484130743891,0.03292480287179351,0.07440671394765376,0.7095810786373913,-1.722028959545493,-9.547029341998696,1.6623521442086249,0.9984574367182681,-0.641483362719664
1698418955.906,0.01666666753590107,-0.009284399565309286,0.03833309165611863,0.07304536246657371,0.7145191195614635,-1.7200835245661437,-9.547477670288085,1.7019742850272805,1.754343906714707,-0.45094659136398996
1698418955.923,0.01666666753590107,0.032398879301548,0.05742065396383404,0.06353636036515235,0.7580636622555553,-1.7072146906428038,-9.555707738494872,3.1118828509556455,-1.0497328407563176,0.22106300785036337
1698418955.94,0.01666666753590107,0.045183542072772975,0.043528322211652995,0.04131517620682716,0.7630017762448639,-1.7304085192255674,-9.576806640625,5.226903861416162,-3.483083995551975,1.1125174337109556
1698418955.956,0.01666666753590107,0.013736264407634735,0.0753932407669723,0.012401216411590575,0.7221507104184478,-1.7137987452082335,-9.603591771697998,6.958341021201939,-2.6872331282264397,1.4189822587973155
1698418955.973,0.01666666753590107,-0.008394245792552829,0.10175020955577492,0.15691782389581202,0.6949165934689343,-1.7072148367732762,-9.45574981918335,5.3665863525848,-0.6789855835746768,1.3265619019208152
1698418955.99,0.01666666753590107,0.08277224510237574,0.08913140487074851,0.12208265735805034,0.7827539399411528,-1.7265179415278136,-9.489567917633057,2.500345278713139,-2.7084807795172914,1.5792933086415675
1698418956.006,0.01666666753590107,0.1495342895157635,0.09052388214245438,0.07116320198178291,0.8372218815792352,-1.728463084246218,-9.540743978118895,1.8291609451093804,-7.479936528019602,1.6894052428505761
1698418956.024,0.01666666753590107,0.17737674762196837,0.03031944267898798,-0.020790274572372435,0.8309371752865612,-1.7960994272761046,-9.63366893005371,5.067054382949414,-14.176127631800457,1.464499493199927
1698418956.04,0.01666666753590107,0.05879720301404595,0.06115063427239656,-0.033519407764077185,0.6801023976314813,-1.7788911028437315,-9.645939213562011,8.453097612094787,-10.610130262366406,2.293972393601673
1698418956.056,0.01666666753590107,-0.1788148176010698,0.11234262297973036,0.16530746657848358,0.426317094720155,-1.7488139444880186,-9.444078086090087,8.686648246800557,-3.2606317779172413,2.255488973383706
1698418956.073,0.01666666753590107,-0.14456603611651808,0.3870426305606961,0.19758476532697677,0.4510072993405163,-1.4927840044550598,-9.408763611602783,4.651613676212089,-5.899868313072354,0.5678822047189586
1698418956.09,0.01666666753590107,0.34579160563126204,0.08984028379246592,0.01355389357805252,0.921767237301357,-1.795201601653546,-9.592967501831055,2.713060848242608,-13.880763785106073,0.4313160407199915
1698418956.107,0.01666666753590107,0.11928940991032867,-0.28824644850492476,0.010837035834789276,0.6670839991696178,-2.177226404052228,-9.596558804321289,2.109537222330642,-10.22111427686739,-0.12976740437130693
1698418956.123,0.01666666753590107,-0.08751757646594197,0.0905570537596941,0.40560383090674873,0.4465181346951052,-1.8014862348809837,-9.201964443206787,0.8563480405993069,-3.92399618525157,-2.4537877211225703
1698418956.14,0.01666666753590107,-0.01990465084426105,0.09599866029173135,0.296314019626379,0.5032308595852926,-1.791759790636599,-9.312696269989013,-1.1471907823108196,-3.5418383500094826,-0.5263657536226823
1698418956.156,0.01666666753590107,0.00791460904944688,-0.0026201193705201148,0.31479426369071006,0.5237312113003805,-1.8843854673638938,-9.29578722076416,-0.8883032407137702,-1.4424611407909402,1.1987141008713993
1698418956.173,0.01666666753590107,0.00716444826927036,-0.008582973297685384,0.2901163340300321,0.5250779497342184,-1.8858819895319638,-9.32122561340332,0.18714969121843525,0.5330120079327808,0.5638824352688285
1698418956.19,0.01666666753590107,-0.041195824143476785,-0.029665070423483847,0.07599310635626316,0.4801866686062887,-1.9113203821711242,-9.534309561157226,0.8511053901636461,1.7141796196306818,-0.5996765218619564
1698418956.206,0.01666666753590107,-0.03061057111267,-0.06630377925187349,0.07064414654374122,0.49784390584994104,-1.950375796752423,-9.538798689270019,1.3154739435769458,3.9382004174042575,-1.4481240079431155
1698418956.223,0.01666666753590107,-0.12730682174712418,-0.006578501607477664,0.20013503433167934,0.42212727834749963,-1.8927654654353856,-9.407716148376464,0.06578747495106367,7.417009141422628,-0.2599806386685159
1698418956.24,0.01666666753590107,-0.09522636074498295,-0.047663960711657995,0.09926818348169326,0.47120837584808467,-1.9342149355463683,-9.507524430084228,-0.12127449102521921,6.478208177740838,1.7939440628619716
1698418956.258,0.01666666753590107,-0.08419277942478656,-0.061310062617808574,0.13306933079659938,0.4967964426236227,-1.950375796752423,-9.472359593200682,1.6915405307398512,6.253562402165472,2.54193750222052
1698418956.272,0.01666666753590107,-0.050014725088886915,0.019317425540834664,0.15241875891089438,0.5493192415433004,-1.8812432238154113,-9.449615261951088,4.629518868020744,5.64590266982424,0.7513569339988097
1698418956.29,0.01666666753590107,0.001920958125218749,0.10250906509906053,0.23798224216699598,0.6124663103299215,-1.8104647833675145,-9.360879578399658,4.422151763498219,4.252789965951759,-0.4375621419942624
1698418956.307,0.01666666753590107,-0.019824571345373986,0.1332835580691695,0.27199089475274085,0.5991485270626843,-1.7880189966730773,-9.324667278289795,2.06131992877176,2.99661785918298,-1.207830589144368
1698418956.323,0.01666666753590107,-0.10183956833966076,0.21775179343447087,0.386526205471158,0.5283699404843151,-1.7040721548333764,-9.209296685791015,-1.7911217006308753,4.377692781530136,-1.8003142814800663
1698418956.34,0.01666666753590107,-0.07315181851573288,0.13411357915252448,0.42037294549345966,0.5674252820003778,-1.7796391447320579,-9.176376412963867,-4.632178372928818,3.7082450235228532,-1.1078760000048147
1698418956.357,0.01666666753590107,-0.0056380058869719505,0.01268836278989911,0.3312298501849174,0.6461347346432507,-1.8834877878718077,-9.268253901672363,-5.500502029659832,3.705843358255948,0.4405433061235614
1698418956.373,0.01666666753590107,0.001101312305405736,-0.042930064057558774,0.32883272591531276,0.6648393620479851,-1.9258352297358214,-9.272443754577637,-5.106819317410405,6.255817645252046,1.0406102693461192
1698418956.39,0.01666666753590107,-0.04775200432129204,0.021663550275564193,0.09485971938967704,0.6323681481625885,-1.848173313384503,-9.507823705291747,-5.2920608778903215,8.31596790412844,2.322638484104805
1698418956.407,0.01666666753590107,0.10195493834763765,-0.1512767492689192,-0.1026999114960432,0.8117836350705474,-2.005592218670249,-9.706243167877197,-3.9160590785491918,10.521625524875025,3.4595142933867304
1698418956.423,0.01666666753590107,0.24609065675549208,-0.23815964456051586,-0.19609481903016565,0.9801259393002837,-2.08624674096629,-9.799019066730141,-1.6570581072716304,10.052573382681802,2.636285466546845
1698418956.44,0.01666666753590107,0.19368052443005143,-0.20984686552882192,-0.0627022476285696,0.9484027673032134,-2.0578155962519347,-9.664045363616943,-0.2554755419415107,9.34979045954345,2.43742258787122
1698418956.457,0.01666666753590107,0.17318075723685322,-0.21893018956407903,-0.14548340668976306,0.9500487809445708,-2.0679909533075986,-9.744849669647216,0.1252478201727419,9.85791469888373,3.2590578462003763
1698418956.473,0.01666666753590107,0.3514034541636705,-0.27355039915442464,-0.10037117628753185,1.1568478762753307,-2.127097806792706,-9.696516723632811,1.551709162791648,8.752250506231237,0.426220479475324
1698418956.49,0.01666666753590107,0.37141872577555474,-0.5406403701230883,0.2390752981007099,1.1944068417537956,-2.3992884619012473,-9.354594799041747,1.2067690283369599,6.0405646604459164,-1.7411378426761932
1698418956.507,0.01666666753590107,0.3276231309298426,-0.2573109197542071,0.12233400177061557,1.171512434509024,-2.117521000152081,-9.469217203521728,-2.2892800536418743,5.932957591393305,-0.12634849448531887
1698418956.523,0.01666666753590107,0.2861686923827976,-0.1084765952013433,0.09657996731102467,1.1481689683225005,-1.9635439058832822,-9.494356905475259,-2.837549583602553,7.688986420398889,4.607403142375066
1698418956.54,0.01666666753590107,0.299885083046183,-0.2831991019874811,0.2551777071177959,1.1763008378293365,-2.140116132189333,-9.33409444732666,0.7142804793890118,3.0030203077562208,7.9673354120971265
1698418956.556,0.01666666753590107,0.27390695750713345,-0.37737171589583157,0.4761246433317661,1.1474207803037018,-2.2544394075922667,-9.109488404083251,4.977487977928922,-3.858869477741852,7.515678054172632
1698418956.573,0.01666666753590107,0.13845957246758042,-0.37950346722751854,0.40044484070837494,1.0027212174680082,-2.2750895430415867,-9.182361917114257,4.434168200682387,-2.9728069659626692,6.517508659338268
1698418956.59,0.01666666753590107,0.09880093129612505,-0.40517435344830155,0.15676058750748634,0.9593261662472039,-2.3171372713066636,-9.42312882156372,2.159922033733945,-2.780530950967875,4.173926467360676
1698418956.607,0.01666666753590107,0.17773644777983427,-0.5707321415260433,0.05202829340100288,1.036240040710196,-2.4865274771541355,-9.527276593780517,-1.3675674762115158,-1.2447029384918586,0.029166348498982496
1698418956.623,0.01666666753590107,0.19533662107400596,-0.6284281052999198,-0.02651391291618347,1.0574885804440826,-2.53949904275462,-9.606434886169433,-4.00002003269522,0.5983939404018749,-3.8030762237329565
1698418956.64,0.01666666753590107,0.1994551623087376,-0.7102296056739985,-0.19642273581027983,1.073799079253897,-2.617609871917218,-9.775974291229247,-4.357328999406566,1.3303824322660853,-5.870387509067287
1698418956.656,0.01666666753590107,0.29423516752570866,-0.8698558117456734,-0.24809330181479453,1.174505113518983,-2.7732328336969014,-9.827898539733885,-0.6425090650339295,-1.8599855888336478,-5.497218416216348
1698418956.673,0.01666666753590107,0.2951805586170405,-0.8692302271932363,-0.2807324196130037,1.1691181597836315,-2.7786199335627257,-9.859920986938477,4.081485406473255,-4.82131570255658,-3.9444026560574525
1698418956.69,0.01666666753590107,0.3924423707123846,-0.8291367017358541,-0.16499182475805282,1.2547109421994536,-2.7694921858638524,-9.739013803100585,11.028574971678067,-4.020536640301469,-3.6372610019130267
1698418956.706,0.01666666753590107,0.45099633955508467,-0.701505178079009,0.014634674552083015,1.3120220713742077,-2.6786621603816747,-9.551967382922768,13.628352436780958,0.6213245396320474,-3.552452677423094
1698418956.723,0.01666666753590107,0.410898137922585,-0.5875048510201275,0.06605564970970153,1.2825434634335338,-2.599054809051007,-9.492411032104492,12.391339437520887,6.097800365030154,-3.060076933318157
1698418956.74,0.01666666753590107,0.28181005878187715,-0.38350408117100593,0.14121055167615412,1.1839323556210846,-2.4350519953303036,-9.405920497131348,10.10491995248078,9.499098394799928,-2.06074085679619
1698418956.756,0.01666666753590107,0.16853103173486889,-0.2756536550439894,0.4033908310323953,1.0972921830441802,-2.356791674694419,-9.134777159118652,10.757708452215578,9.590623783451745,-2.978798749412063
1698418956.773,0.01666666753590107,0.17163177422918377,-0.22385361744090915,0.51735272577703,1.1270700661923736,-2.333448062377423,-9.011925270953775,10.426545022760218,9.535856765365644,-4.813426407178392
1698418956.79,0.01666666753590107,0.12435147907286882,-0.18685455086752772,0.4849953475296497,1.1251247773434967,-2.3267143702082334,-9.032873950958251,6.2283948626212675,13.860060627958116,-7.798716824509729
1698418956.806,0.01666666753590107,0.017506357530876992,-0.26465076112300157,0.3487695985287428,1.0631748093869537,-2.417843817028403,-9.161263014984131,4.441178536091758,16.970733681657023,-11.39719686608907
1698418956.823,0.01666666753590107,-0.09692271633408964,-0.3138809482380748,0.32813071512579917,1.0052650567319243,-2.4751550192683935,-9.17368293609619,4.423190379138884,21.891881563556627,-17.17685513042967
1698418956.84,0.01666666753590107,-0.2099270180929452,-0.19611425438299773,0.3209042710036039,0.9929947732236236,-2.3636748583368954,-9.167248519134521,4.37370821992308,29.64350594128641,-25.067885376666705
1698418956.856,0.01666666753590107,-0.019070026651024818,-0.22995646436065434,0.24268822790086267,1.2759595549985765,-2.399887304577231,-9.232789789581298,4.706166397112981,32.01519009283037,-24.520662573196333
1698418956.873,0.01666666753590107,0.001204553484171629,-0.37788185737505553,0.2853922281175852,1.382052469933778,-2.555360482622683,-9.176226775360107,7.96439416188579,25.795548117630478,-20.023220353816594
1698418956.89,0.01666666753590107,0.24098726920187472,-0.6484069173589349,0.49324002878367895,1.6928497729428111,-2.8516430841974914,-8.951770954242349,12.434566851004252,8.872609538464262,-16.177968992619277
1698418956.906,0.01666666753590107,0.2313293601490557,-0.8005728705525398,0.4065647848933935,1.7033244052059948,-3.0295621950678524,-9.029282648468017,12.88883590251263,1.7583971971002865,-14.826132829448476
1698418956.923,0.01666666753590107,0.09684344055280089,-0.7714407379619777,0.2210369525849819,1.5849610606320201,-3.0243250250667333,-9.206603208923338,12.042827327573695,3.3053940629731544,-20.584433092254447
1698418956.941,0.01666666753590107,0.00836947667747736,-0.6972025124490261,-0.17298516159951685,1.542014922222495,-2.9715028048090635,-9.588179098510741,7.937507122218034,13.803952331473756,-27.49148408854464
1698418956.955,0.01666666753590107,0.3749991415455937,-0.8030246476188302,-0.43595162289738654,1.9705773116514085,-3.0758003607600926,-9.841216286468505,0.3439978351534907,22.278659808328815,-32.470832012361925
1698418956.973,0.01666666753590107,-0.5001448397360742,-0.5391419482588767,-0.9267050955623388,1.1822862689144908,-2.784156524901837,-10.323498283386229,-11.223319032840763,35.11784450444369,-31.15302555918342
1698418956.99,0.01666666753590107,0.060489540015161034,-0.7468015328764915,-0.8258399982780218,1.9354121825069188,-2.9342428953424093,-10.199747985076904,-10.809939762572311,63.28537047175244,-30.718113263782858
1698418957.006,0.01666666753590107,-1.313787619742006,-1.359166976647824,-0.9636059624582528,0.7121247717708349,-3.5133405680231746,-10.313771839141845,-2.2914923946027237,42.934422273633,-32.5504651878951
1698418957.023,0.01666666753590107,-1.0795141689650714,-1.0860695819579065,-0.7458306420177221,1.0380354727596044,-3.230375859313458,-10.077942975616455,8.921919235403523,16.127282158788613,-35.24005366416814
1698418957.04,0.01666666753590107,-0.9429710245780646,-1.3496132586218417,-0.4328121558278799,1.1935090891964732,-3.5045118032708764,-9.758167416381836,10.270190893601225,-21.64815821585577,-33.594169319491826
1698418957.056,0.01666666753590107,-0.5388702917106449,-1.6320692871570586,-0.746533821851015,1.5402195632383227,-3.7864293410152197,-10.084975942993163,4.555895405183531,-38.31219079056984,-32.918007912417245
1698418957.073,0.01666666753590107,-0.5212791054405271,-1.6793172144137323,-0.46254736887812614,1.4725832202084361,-3.8266818564265965,-9.821164847564697,5.22995866352245,-46.30285642132443,-34.84704116423102
1698418957.09,0.01666666753590107,-0.6344922276444733,-1.5001926732763646,-0.09337854092121124,1.3332707572385667,-3.652653323253989,-9.456348369598388,14.811575988779886,17.806222911500495,-22.343567096011448
1698418957.106,0.01666666753590107,-1.3952951056055725,-1.3985259042203426,0.3198544696897268,0.6516714721128344,-3.586962415203452,-9.017760552978515,23.08696659282293,35.31695134893873,-16.19297833332038
1698418957.123,0.01666666753590107,-1.2299743411540984,-1.1395986353106795,0.28202479751110077,0.9314936450131237,-3.3846522287897765,-9.016264176940917,28.710280119514643,46.03702887392212,-11.99171446069355
1698418957.14,0.01666666753590107,-0.7347899003043771,-1.1818866020724177,1.0274117874145507,1.6126440173275767,-3.5107967287592587,-8.204929089355469,27.520681439699153,54.48653636783442,-13.902680154605351
1698418957.157,0.01666666753590107,-0.7419125917911529,-1.6235703388810157,1.6280109516769647,1.7200839629575608,-4.0065462561458345,-7.560590152087808,18.13782518061003,32.695261783204785,-3.818296446524684
1698418957.173,0.01666666753590107,-2.480456340546906,-1.4920464839607477,1.4319406825661658,0.037708383886516095,-3.91526746398285,-7.730877160644531,20.60690612217108,17.572963413608097,-1.5918151798243165
1698418957.19,0.01666666753590107,-0.33250586147010325,-2.523047235777974,2.3065151933968067,2.2119424742549656,-5.033808405956625,-6.825420020294189,38.48277134999632,-0.3028010956073092,-17.4028182787412
1698418957.206,0.01666666753590107,-0.0999374610453844,-1.6322414288535714,1.1229501367181538,2.4627350981563327,-4.202870792278647,-7.987206960406899,19.227706513637916,7.627878425442078,-26.834732371543943
1698418957.223,0.01666666753590107,-0.5248746457144617,-0.9167907275304198,0.5898001223504543,2.0887910186216234,-3.4964316649287936,-8.503306471252442,7.957844010471748,19.622761240136867,-27.58160843464296
1698418957.24,0.01666666753590107,-0.6041983577981591,-1.3278151221811771,1.5479600943624972,2.1299413596555588,-3.873368788799643,-7.519289588928222,-25.135405211706868,47.34767728885045,3.9401009175408137
1698418957.256,0.01666666753590107,-0.5546820472180843,-1.7874547869190573,0.6221715291231871,2.289455045263469,-4.2592841688960785,-8.431630643573403,-43.83250677212505,53.60895268213616,25.089402180099537
1698418957.273,0.01666666753590107,-0.0758779555439949,-2.089201206857711,0.6817185275912284,2.8896514739438888,-4.483441299328208,-8.353968142700195,-33.431231741746586,61.15100465801515,21.35927707245737
1698418957.29,0.01666666753590107,-0.1726297722905874,-1.4514511464610695,1.8620348116070031,2.9487580351680514,-3.8004952757686374,-7.132925880542397,-16.635007685836094,45.757861967070774,31.878500932065492
1698418957.306,0.01666666753590107,-1.1307090802818536,-1.544077699971199,0.8185556864887475,2.0415055358335374,-3.892223273003846,-8.158840707397461,-9.766293687583534,16.04152230356993,40.88034533358921
1698418957.323,0.01666666753590107,-0.08726970265209674,-1.722121167873591,0.850595669350028,3.056198126928508,-4.102912580706179,-8.128314636230469,10.68454602714734,-18.57660507062811,40.938125318872935
1698418957.34,0.01666666753590107,-0.10831950494349002,-2.1911311568945644,1.125560611477494,2.8779794485896826,-4.703109009386599,-7.871237232971191,41.04548564734178,-54.78443165338994,49.92314696447092
1698418957.357,0.01666666753590107,-0.4976411863520741,-1.6423533652842044,0.5535819770216942,2.3101050345823166,-4.3095621114984155,-8.456020988464354,54.56756290195828,-62.28648945658392,56.7094829049176
1698418957.373,0.01666666753590107,-0.5860542138203978,-1.3041542606085539,0.2790823143184185,2.046742851965129,-4.141070754186809,-8.731504401507973,52.432903390086686,-48.905001400748375,57.432096428537434
1698418957.39,0.01666666753590107,-0.4914095984861254,-1.5000304684519767,-0.6510147617697716,1.9852417968198657,-4.517708310589194,-9.647136314392089,31.314112155663583,-14.78826967578451,49.26342582272855
1698418957.406,0.01666666753590107,-0.7008445222131907,-2.1675541742131115,-1.1275403871178626,1.7407339522764085,-5.272929296764731,-10.103381368255615,21.88438201584795,12.501676874694212,34.13345373559935
1698418957.423,0.01666666753590107,-0.8260264607608317,-2.218713575825095,-0.9702110598117113,1.6543930549070238,-5.390843436266482,-9.911994873046874,24.506686298607192,35.397294864145586,10.957107287297637
1698418957.44,0.01666666753590107,-0.25263299107104537,-2.110387056618929,-0.42864276118874545,2.341977844183147,-5.375880260412394,-9.304167511096596,35.6728246952639,27.04010420705518,-10.676733144510491
1698418957.456,0.01666666753590107,-0.16358137343823909,-1.5269880334824322,-0.3399064931154251,2.484432550701499,-4.873546240068972,-9.169343445587158,41.487514999857495,11.05793112473078,-16.039097586414577
1698418957.473,0.01666666753590107,0.19410101486444473,-1.513448460690677,0.07524433381557465,2.884564087677002,-4.9350475874751805,-8.712499841308594,29.298895576902588,13.929835279198029,-12.297104171315867
1698418957.49,0.01666666753590107,0.726272539588809,-1.4382017887875438,-0.26067630453407764,3.424007649230957,-4.907065355572104,-9.027637219348549,5.32112119837461,-18.203092760771376,-4.537333939227198
1698418957.506,0.01666666753590107,0.6782528973072767,-1.4960121727213262,-0.17745266240239144,3.308636764471233,-4.965424313299358,-8.964639203643799,-0.5593412666052692,-39.93105832198416,-10.582621675484178
1698418957.523,0.01666666753590107,0.9004095015719532,-1.302770112773776,-0.1778232492804527,3.4445077086850997,-4.7550335501521825,-8.997110563659668,-8.231781553739802,-43.6082784918627,-9.878782634345413
1698418957.54,0.01666666753590107,0.4911911334298551,-0.6954705740898847,-1.3879828828960656,2.903567771093547,-4.093934616741538,-10.264990564838051,-25.259979324431438,-46.48288313237304,-2.6503125406679358
1698418957.556,0.01666666753590107,0.920845702009648,-0.658638096255064,-2.5620868682682514,3.224839706365764,-3.9814071387141943,-11.496357821655273,-38.11802558793929,-47.92565814170069,0.426579144448029
1698418957.573,0.01666666753590107,1.0046392529837787,-0.9699792968824505,-2.813758613091707,3.1923684924803672,-4.205414631542563,-11.809100998035072,-35.01597906316211,-48.602273756355075,4.25362581035144
1698418957.59,0.01666666753590107,0.3220084328532219,0.09541939909905195,-2.406049334338307,2.3478137107297776,-3.072059712927043,-11.463287911224365,-14.34219172863827,-41.55247692905349,25.169192449983626
1698418957.606,0.01666666753590107,0.47007206529453394,-0.2560886844828725,-1.8390011420220136,2.385223111669719,-3.431788220104575,-10.91741051723063,7.184006629397752,-30.794054722069642,31.690800503484372
1698418957.624,0.01666666753590107,0.40775604050457476,-0.179318456274271,-1.3633593137711286,2.231694784081727,-3.4059009146541355,-10.442610400500893,20.34643344307806,-25.542791844752276,31.999644582279423
1698418957.64,0.01666666753590107,0.269431857919693,0.482827648101747,-0.3661281450867653,1.9571099273130297,-2.836230557140708,-9.438392441669105,22.33262001031921,-35.329860406470054,41.346642348225984
1698418957.656,0.01666666753590107,0.1373043380178511,0.4086851380482316,0.6456096878558397,1.6971894095823168,-2.9794337439388037,-8.423998541259765,19.682610772739103,-39.58584690095338,46.403338749299074
1698418957.673,0.01666666753590107,0.2652431740581989,0.556081392621994,1.0517407575070858,1.685667314092815,-2.895935961040854,-8.016685568347572,18.440819202380965,-36.66547999300395,47.683855784703894
1698418957.69,0.01666666753590107,0.2436794308952987,0.7865291476309298,1.2474948002755641,1.5924429408200085,-2.7527324819818135,-7.798214082336425,24.490975155968872,12.300583298924343,55.69331809605437
1698418957.706,0.01666666753590107,-0.026984599167853594,0.9248463159531355,1.7038070741564035,1.326686702673137,-2.696918240301311,-7.308450205230712,27.86837051185136,34.849380504021745,55.741747552364345
1698418957.724,0.01666666753590107,0.14519289931058882,0.8664546250000595,1.777483135741949,1.5224126883909106,-2.8490993910640476,-7.192929975128173,32.2005204457695,30.655647768728503,57.02091562540809
1698418957.74,0.01666666753590107,0.7473141585737466,0.535113131134212,1.9625117863565682,2.123955709374696,-3.2989097357049584,-6.957998937225342,27.465652313103654,10.536856846724154,44.71417832604156
1698418957.756,0.01666666753590107,1.5098945676013826,0.2131821474313736,2.534447750714421,2.859125402776897,-3.6938036642879246,-6.358550696563721,22.449102056424607,-0.9966677137123133,36.03708551388985
1698418957.773,0.01666666753590107,0.7749202506408095,0.4942541742622852,2.442906362092495,2.0317790915891525,-3.4843113112851976,-6.431873122406006,11.563009953474884,-23.557250730387693,38.575303337777065
1698418957.79,0.01666666753590107,0.9276444953043014,0.4224316315889358,2.160850000399351,2.087893192999065,-3.585017126354575,-6.714090227618813,4.187643194761354,-23.08041473386159,33.27359097570269
1698418957.807,0.01666666753590107,1.2657099636629223,0.5514376584693789,1.7755962990820406,2.363076600182801,-3.47024537653178,-7.100902848815918,-0.563058383617637,-2.874679132260977,26.635285725137695
1698418957.823,0.01666666753590107,1.5255186915822325,0.6848582869216799,1.0706126312375068,2.6313770429197696,-3.3230016821712254,-7.811082916259765,-13.56409828593771,29.82978569052017,18.554760418115116
1698418957.84,0.01666666753590107,1.4358768529713153,0.4467129631474614,1.1981921324461697,2.622099365356192,-3.5318954847589135,-7.68628515472412,-14.26386397301021,51.427912770705596,12.58102318228225
1698418957.857,0.01666666753590107,1.1662322290837763,0.27884850556254387,1.5390058035343885,2.4730603850767015,-3.6740512083306904,-7.340023739624023,-10.08995756933022,58.98198246442922,3.897267093708371
1698418957.873,0.01666666753590107,0.7219777650043367,0.44690527084916826,1.5693945120573043,2.1957820514403283,-3.4753327627986668,-7.297077747344971,-13.666806401808131,45.44385085016861,2.3906853109281148
1698418957.89,0.01666666753590107,0.25975831290632484,0.3101335784032941,1.5017244128882885,1.8264762992307542,-3.5787323469966648,-7.363516843414306,-14.502298192972539,39.27755606748109,5.498826925765886
1698418957.906,0.01666666753590107,2.001354288839549,-0.7677478747934102,2.268255313107371,3.653252458190918,-4.635772379955649,-6.590638619995117,-2.997049014874337,32.453841916801515,-2.531461699581013
1698418957.923,0.01666666753590107,1.0225039954982698,-0.5632999456986785,1.4668804785221814,2.726995398657024,-4.44663074106425,-7.3753387986332175,9.716983136870626,6.805868573925628,5.138605310260353
1698418957.94,0.01666666753590107,0.48491307607367634,-0.3262506004676223,0.9587550152957439,2.215833490344137,-4.227710634502769,-7.870339407348633,2.6546249513551525,22.095318747985456,13.66595689703011
1698418957.956,0.01666666753590107,0.4257217591755092,-0.3863108091548085,0.702101974928379,2.1950338634215294,-4.299686321911215,-8.11409964839518,-0.25852348717820245,27.936151601627277,19.58526520914079
1698418957.973,0.01666666753590107,0.13112287290394306,-0.9175713565140962,-0.21595278118848799,1.9791068011961876,-4.819228082165122,-9.021202217864989,-14.906128005007664,37.20345642788542,15.625258132150798
1698418957.99,0.01666666753590107,0.20067381738349793,-1.2594222616955637,-0.5688391673862934,2.1178205676205457,-5.128678354479372,-9.373598774719238,-16.59194675821375,31.761930093500887,6.758663855911201
1698418958.007,0.01666666753590107,0.06170198454484343,-1.707358629158139,-0.8489701139748096,2.0560203833982347,-5.540181764818728,-9.65252326812744,-3.728882013213224,18.5236284158782,-9.41638992659295
1698418958.023,0.01666666753590107,-0.2569463242255151,-1.481801276539266,-0.6052420216321945,1.777395457458496,-5.313930000194907,-9.399934992980956,8.236557563516934,3.083305126024901,-14.891320154887078
1698418958.04,0.01666666753590107,-0.6203169872976839,-1.3906021254837513,-0.7432897253632545,1.414524122210592,-5.2428521384090185,-9.529072829547523,15.546345541575056,-14.108468631655958,-13.875788846069364
1698418958.056,0.01666666753590107,-0.9316637408830225,-1.2576429770633577,-0.9436398637503385,1.05030604852885,-5.1586061674922705,-9.720009827423095,22.004545533915987,-31.634509499439712,-14.248581424742307
1698418958.073,0.01666666753590107,-0.6975700305871665,-1.2574065379589796,-1.479475756201148,1.2161046596251428,-5.203946361431479,-10.250624770355223,23.66377265313592,-39.865823185221366,-15.377938689851929
1698418958.09,0.01666666753590107,-0.762675686095655,-1.2549860328137874,-1.6218834087073801,1.076043862506002,-5.24479771951884,-10.389488466644286,18.64525017933403,-37.420273952898306,-10.833255467077796
1698418958.106,0.01666666753590107,-1.1675808672137558,-0.5714972806796431,-1.7377262948930263,0.6000466449461876,-4.585194869884848,-10.50904949657023,-0.6471130394213412,-14.082525865640957,-6.995730757379057
1698418958.123,0.01666666753590107,-1.3469029767498373,-1.7916846795737742,-1.6997399708479641,0.40895927881449456,-5.786335623003542,-10.48211414337158,-10.021472116296149,-10.668814393941508,-22.50027895632822
1698418958.14,0.01666666753590107,-1.356318893740326,-1.7861565638020633,-1.505195888391137,0.40327290374115105,-5.7330649283260104,-10.308384885406493,-18.196923392403562,-20.901031143304753,-48.33306868040819
1698418958.156,0.01666666753590107,-1.0362727008707822,-0.9748273214355111,-1.5267325974166392,0.7149681785032153,-4.803815408977866,-10.383503547015785,-35.9635960935151,-31.900016027951033,-62.460877846472684
1698418958.173,0.01666666753590107,-0.5461766692012548,-1.5759274209573864,-1.5456155770629643,1.175702506610006,-5.2826557410091155,-10.459968362537026,-43.897895588144166,-47.034871700336794,-59.80755425959783
1698418958.189,0.01666666753590107,-0.2628133165627718,-1.2916867009624837,-1.6202081689715384,1.379957835742086,-4.876090371593833,-10.599280387115478,-36.92585704944859,-64.15932732700142,-54.3970950406531
1698418958.206,0.01666666753590107,-0.23726605672165751,-0.38815614476054905,-2.2680852172374726,1.3003504844114184,-3.865138720592856,-11.307815025439858,-21.907717357147302,-50.22789634485854,-9.22227765792848
1698418958.223,0.01666666753590107,-1.912052641968429,-0.1646419884070754,-2.6408184596776962,-0.48871685227081174,-3.5975866850703953,-11.71602582397461,-18.618349479287936,-31.584693514728222,28.782191766191122
1698418958.24,0.01666666753590107,-2.041365835101902,-0.05639496417790651,-1.3972604143291711,-0.6961145710818469,-3.4730879064813256,-10.490493849182128,-8.828014379599603,-1.0369149235617308,54.59451141332857
1698418958.256,0.01666666753590107,-2.2264845020875335,0.7208189503580331,0.7350649178534746,-0.9124903999879955,-2.708440043529868,-8.358008942523599,-3.3952244974937504,21.87358177922287,66.75391128701416
1698418958.273,0.01666666753590107,-2.642100023920834,0.928161139589548,2.062639217016101,-1.3331217041566967,-2.51570680988729,-7.025635134124755,-6.122390753589492,27.315517924957604,66.31190925525513
1698418958.29,0.01666666753590107,-2.234770099873841,0.7116475096479058,2.5515415088564155,-0.9163809776857494,-2.727743002153933,-6.537068357849121,-15.692190570922337,21.52409807486624,40.84989293517471
1698418958.307,0.01666666753590107,-0.5643700591482221,0.63950114184767,2.285048042476177,0.7727282935544848,-2.7317832174554466,-6.826317845916748,-26.55513687032218,-8.020411958363649,-37.248696185853
1698418958.323,0.01666666753590107,-0.26874358339458704,0.3447834515020251,2.7780893338173627,1.0802335692808032,-2.945914920696616,-6.3609448982238765,-22.105292531720966,-24.598688946727265,-78.4874386206657
1698418958.34,0.01666666753590107,-0.8777548944324255,0.2693053089305758,3.1029356204450127,0.47554801248759027,-2.94980549839437,-6.060921502685546,-11.606991249087889,-35.263505118683376,-97.62388697680308
1698418958.356,0.01666666753590107,-1.2624445321261881,1.2233201439619064,3.3468583585768936,0.06000438684672117,-1.9228426237910985,-5.846790091705322,-5.789776335822327,-54.29732305235214,-105.5816584165149
1698418958.373,0.01666666753590107,-1.8185710790641605,2.024581581300497,3.2201492104619738,-0.5494697193972766,-1.0694593695491552,-5.998672844043374,-13.225246624797853,-51.34445468923721,-78.73396746856814
1698418958.39,0.01666666753590107,-2.1536125964917243,2.123895649750531,3.0573744772315026,-0.9416697327211498,-0.8946829406186938,-6.194098970031738,-32.74501629621375,-38.58122169669288,-50.75755702442552
1698418958.406,0.01666666753590107,-1.1876242689415812,2.067560306805372,2.469825348678231,-0.03232216080352664,-0.8043015356868505,-6.835445739746094,-40.94259567768471,-22.59510588767009,-35.55610359253755
1698418958.423,0.01666666753590107,-0.8988956629429012,1.5700389474406837,3.3154122499555347,0.2186201007016003,-1.2003919805780052,-6.025158115386962,-35.5333829682635,-28.560299410624918,-26.368556592764943
1698418958.44,0.01666666753590107,-0.8504871674742549,1.328775783906877,3.193777920886874,0.1994664874203503,-1.3518258201047777,-6.180781223297119,-32.23500265579431,-42.576469134705555,-29.191415720123267
1698418958.456,0.01666666753590107,-0.6730632197096943,0.5271098574206232,3.586801671683788,0.23657661315277217,-2.0433008948177096,-5.833173069763183,-27.0260237720812,-63.7389360137763,-43.67248910024999
1698418958.473,0.01666666753590107,-0.5856592231534421,-0.39923283457010983,3.587083411234617,0.1833056262142956,-2.901023931829631,-5.863848778533935,-19.25047324168886,-75.20814868692669,-54.9734434782917
1698418958.49,0.01666666753590107,-0.29815869764499364,-0.9146350108012556,3.5818379117965695,0.31528591966517266,-3.3701375273555514,-5.8925791984558105,-9.419706837208638,-81.64285624361736,-63.190137144154946
1698418958.506,0.01666666753590107,0.2896813036136329,-1.865240183519572,2.7859213426172733,0.6711241048732772,-4.301182697948813,-6.705710521808267,3.150762849032297,-91.0810370349836,-61.39010226010062
1698418958.524,0.01666666753590107,0.17349731237273663,-2.885242717590928,0.6950853741645813,0.42078033898426215,-5.288491607555747,-8.809315370941162,-34.063925824943205,-33.458221234251894,-36.18324131684437
1698418958.54,0.01666666753590107,-0.36830428354945033,-2.2921559747852385,-1.4999299306869507,-0.1524813210193999,-4.568136036925763,-11.036371827697753,-60.519751744733405,-20.43758231755188,-33.84338584683267
1698418958.557,0.01666666753590107,1.226266572677344,-1.304901864105463,-1.8549223492532967,1.4000088362544774,-3.3623563719600438,-11.441740096282958,-66.8130538950373,-20.002497559874776,-23.192269326804308
1698418958.573,0.01666666753590107,1.597347810126841,-2.344754323159158,-3.0976679091751573,1.7281640465007162,-4.235940702709556,-12.719345957183837,-64.6806278550243,-18.074555430780908,-7.483601778282959
1698418958.59,0.01666666753590107,1.5815889538504182,-2.243300758462399,-3.4758348671019075,1.6751923713023773,-3.9878414095453913,-13.1256120513916,-49.7553531222258,-7.220003433871011,30.914368504299418
1698418958.606,0.01666666753590107,0.40386981018837537,-1.5733590317741035,-3.434530212289095,0.47345278920743145,-3.19715631127879,-13.105560612487793,-23.604887884753946,14.532916223474412,77.6553508250289
1698418958.623,0.01666666753590107,1.4656787015169859,-2.2513316508352754,-2.518501993563771,1.5532378155697135,-3.838503227123618,-12.195464706420898,-7.19351169140147,26.461793797577492,87.74551415380787
1698418958.64,0.01666666753590107,2.06864094164893,-2.8183979633301495,-2.084949833023548,2.2171798269191756,-4.4089217726558445,-11.760617829895018,7.4950380762745,43.70309176282623,68.37506351670585
1698418958.656,0.01666666753590107,3.0416356408298015,-3.9003473966181277,-1.957577252563834,3.267635768780112,-5.517736270385235,-11.627290724945068,2.118075812566804,19.032033546748096,46.73255386729369
1698418958.673,0.01666666753590107,2.481867960910499,-3.2468045776754617,-1.619069520330429,2.72669601385165,-4.8648672590509054,-11.288211914825439,-2.825452037921991,12.314836196174868,43.36441683283115
1698418958.69,0.01666666753590107,2.3822101935893296,-2.975102436736226,-1.2112883453845977,2.6276357922985216,-4.586690953661501,-10.881496907806396,-4.619546364945703,1.497859097601621,44.59869348755498
1698418958.706,0.01666666753590107,2.7617057697713374,-3.111415864020586,-1.352510002976656,2.950553869076259,-4.708795092198997,-11.02634610824585,-5.385184530807922,-21.305190511967332,52.83570696619902
1698418958.723,0.01666666753590107,2.3789929851084946,-2.556373751318455,-1.6885060446500777,2.4658775152347516,-4.148402704510093,-11.364676730346678,-0.012503861894898383,-40.5224297607022,53.66462213896635
1698418958.74,0.01666666753590107,1.654011946634948,-2.2085918486528096,-1.8954215329021213,1.6081548709484748,-3.8030386766411364,-11.571475314220786,-0.401532467235622,-46.35552742510898,37.73722546623816
1698418958.756,0.01666666753590107,0.6285905293200165,-1.489517696135491,-2.869969745135307,0.428711223315075,-3.047817690465599,-12.549956189727782,-23.914391076803906,-34.58990503254755,11.138445394666892
1698418958.773,0.01666666753590107,0.5737005628775805,-1.0512510742940009,-3.8894174218028783,0.31753052025418727,-2.5351594061151146,-13.57976217880249,-31.13753469014583,-7.3943935313070694,-0.7797959207120386
1698418958.79,0.01666666753590107,-0.12298240094305947,-1.7917535070262849,-4.461731571823358,-0.41090537138096983,-3.183539143206179,-14.164845209503174,-35.30344806494961,-7.5435879146685965,9.268259345194652
1698418958.806,0.01666666753590107,0.05484300376186147,0.561220362945646,-1.4238637590944767,-0.15083519778018817,-0.8057977655939758,-11.132588806915283,27.496505985131893,57.828923589126006,6.511845151855858
1698418958.823,0.01666666753590107,-0.2848847352531738,1.000566450586915,0.33045009798407554,-0.3618242190814577,-0.48138344064280386,-9.363274364581704,55.248276630114674,39.35926903561654,13.581822626833892
1698418958.84,0.01666666753590107,-1.2252611219618468,0.5514810592196882,-0.35091420934200285,-1.2446860401648794,-1.0717037874750792,-10.022277787017822,52.24427064068386,10.829426292274357,1.0023263119962573
1698418958.856,0.01666666753590107,-0.9196220054335892,0.3914136852517724,0.857559663143754,-0.9485532839730964,-1.367537330108136,-8.790012120056153,24.046891624060276,-18.63595258432635,-30.776238173619664
1698418958.873,0.01666666753590107,-0.6720457132302224,-0.021863895153254268,0.8059586552441119,-0.7354692928367061,-1.8179465174250304,-8.834604125976561,4.717373456880503,-18.223888979246773,-42.664991801443506
1698418958.89,0.01666666753590107,-0.3823217395186424,0.007009001979231834,0.9063415219694375,-0.4517564372073859,-1.7993914545588194,-8.732252005004883,3.6092982074509945,-0.45312723597822235,-38.27729535410024
1698418958.906,0.01666666753590107,-0.4343497041260823,0.16455884016826747,0.9442910211354494,-0.41045644943653603,-1.6804297057002782,-8.687211086273193,20.676524532833728,59.78789014497737,-3.9905986405088334
1698418958.923,0.01666666753590107,-0.9424873327143489,0.4103815667025745,0.5330915621787309,-0.7679406391528435,-1.5032586367182432,-9.083451461029052,33.65777204104298,57.231924074531875,22.625826371009516
1698418958.94,0.01666666753590107,-1.3559490375146268,-0.36237726812064647,1.7305080340772867,-1.0788875980319454,-2.388215425353497,-7.860612963104248,53.3745918162401,39.12969271723407,41.79389338036217
1698418958.956,0.01666666753590107,-2.0120587843358515,-0.808945415969938,1.0855004037678242,-1.682525764664076,-3.0382410299554468,-8.458714465332031,62.96113456166276,13.557889643982168,62.5796343455717
1698418958.973,0.01666666753590107,-2.361994504034519,-1.157287436736375,1.1362369037926197,-2.067992067552451,-3.5640677156977354,-8.365939735522867,77.04079089407867,-9.028913294978127,79.03483730150721
1698418958.99,0.01666666753590107,-2.17314249573946,-1.0659104448959231,0.9918506446897983,-2.005443622246105,-3.6996392385736105,-8.45302823638916,102.6762735285099,-47.15285638805959,98.66164542872731
1698418959.006,0.01666666753590107,-1.928231331092119,-0.10711188271939753,0.8816694375276565,-2.0995655836794525,-3.1305677237361667,-8.44569599380493,131.68276870704423,-91.42775109763178,119.49683696352773
1698418959.023,0.01666666753590107,-1.4061553761854766,0.12460662287771701,0.8824106112837791,-1.9289787519259378,-3.210324566540122,-8.3249384475708,131.19727886083973,-115.77390575262888,118.07641716335353
1698418959.04,0.01666666753590107,-0.6535650307744741,0.17703180664181709,0.7683201217234135,-1.5716441906802356,-3.4238574271053075,-8.306982519641519,104.14072072807399,-129.63533754106288,99.80525132221922
1698418959.056,0.01666666753590107,0.3467594277501106,0.26084932301342484,0.45452363689839836,-1.0859206750065087,-3.533841065868735,-8.473978085437416,39.716303514100616,-125.27972590734574,69.31984943364787
1698418959.073,0.01666666753590107,1.4287537230931222,0.6097475163578987,0.019418401697278022,-0.34177287150919433,-3.2038901495784518,-8.840140717315673,1.8317314441148325,-112.12459715079359,57.20598984625334
1698418959.09,0.01666666753590107,1.9992013485893605,1.0749793020144105,-0.2612701787739992,-0.07496873174458742,-2.690632584160566,-9.075371030426025,-16.40611609391792,-104.54348332305129,55.993409287428044
1698418959.106,0.01666666753590107,2.2531413306057453,1.8449194261550903,-0.5282435376256704,-0.21083996821939943,-1.8195926771968602,-9.284414762878418,-15.94999606114447,-100.6915776500551,61.63863918361904
1698418959.123,0.01666666753590107,2.0702578753262757,2.4391850034818052,-0.4419441413104534,-0.6753150902897119,-1.1593912771478294,-9.14151085128784,-6.795471318461576,-96.79875914393052,52.31072155111891
1698418959.14,0.01666666753590107,2.391933715224266,2.686779708124697,0.15130466018915176,-0.6720230630069971,-0.8677478796809911,-8.45961229095459,0.4013659546941765,-83.15661057879979,21.763426195836196
1698418959.156,0.01666666753590107,2.7061437492862344,2.921436605261266,0.6094061555743218,-0.5452800126224756,-0.6220429343074559,-7.937077778625488,-4.651852305946217,-75.42868866503723,-0.8724549606835192
1698418959.173,0.01666666753590107,3.0461507801666854,3.097797088512778,1.5626935531139372,-0.34955402690470216,-0.4263166563287377,-6.935553296661377,-22.884921059437488,-60.981670608112196,-20.216617160165505
1698418959.189,0.01666666753590107,3.232650087855756,3.052890317554772,1.8346312563747167,-0.23912147532999514,-0.42152854526937006,-6.653336775970459,-46.42552320372327,-30.64302557914232,-41.25236183201771
1698418959.206,0.01666666753590107,3.4813515846967693,2.8133056086272,2.236556106507778,0.061949383434653275,-0.552461448559165,-6.3162032546997064,-68.4487612578503,22.919743071373507,-63.48514667478614
1698418959.223,0.01666666753590107,3.8872012070581317,2.4196675253242255,2.267415939673781,0.6130649703428149,-0.8426084699884057,-6.381744525146484,-73.22261269520399,52.82951881481098,-65.98884130751352
1698418959.24,0.01666666753590107,3.4345065391525624,2.6619112243279814,2.1301561714500186,0.40806116093099115,-0.4535504079520702,-6.662164810070395,-67.16596976945186,61.52124189216486,-57.355161177726416
1698418959.256,0.01666666753590107,2.906076246783137,2.5055098255217074,2.017061707189679,0.06434358509480953,-0.5060737913936376,-6.872555865478515,-60.086731411732934,58.966477935013295,-55.54314955696247
1698418959.273,0.01666666753590107,1.5584338498428463,1.9140882394492624,1.5819582255542277,-1.1088155206426977,-1.0061626631587743,-7.391798350524902,-55.089406430020176,51.30056047853612,-63.596376305419795
1698418959.29,0.01666666753590107,0.5196374757133424,1.4856345710918306,1.382832660526037,-1.925986182513833,-1.3254890173211693,-7.688380081176757,-57.61499523413204,45.506961798099525,-80.53011597498474
1698418959.306,0.01666666753590107,0.20032982625141738,1.1427964084386826,1.4074503844320774,-2.0769705247074364,-1.5696975866571068,-7.737310993084311,-69.23971082411612,44.792752822253384,-85.03142237388741
1698418959.323,0.01666666753590107,-0.26462036598473787,0.7754547959089279,1.4335434415876864,-2.3843263089604676,-1.7996908758968113,-7.7884876380920405,-87.00353021370188,35.95141445113038,-84.73599620171684
1698418959.34,0.01666666753590107,-1.1781686044625936,0.6932359469056129,0.6946142495214939,-3.136554543060809,-1.6075560465388,-8.634987562561035,-122.64197515177851,21.37971299845405,-85.77201295540273
1698418959.356,0.01666666753590107,-1.7260402410134672,0.43497357164546846,0.07080313649773597,-3.584419744983315,-1.5713437464289366,-9.34681364364624,-151.88616774361847,22.002049099774347,-86.68525022856845
1698418959.373,0.01666666753590107,-2.1251868586048484,-0.08076689662933349,-1.5211743787676095,-3.8820490849919613,-1.7338501841120422,-11.026495745849608,-162.56500458639331,27.386686788561846,-84.153872839135
1698418959.39,0.01666666753590107,-2.0369638007506725,-0.7195640549261123,-2.1740192785739896,-3.635446313995868,-1.9217949413690716,-11.774533542522787,-127.632480189605,48.11549641949202,-65.47482859133504
1698418959.406,0.01666666753590107,-2.019974233635515,-0.9258649184111505,-1.8888082522422074,-3.4561803185611963,-1.8869293796930462,-11.541996706280111,-79.91866378010685,67.7650388313645,-42.230646411744054
1698418959.423,0.01666666753590107,-2.0636833192415533,-1.1041896874729544,-1.1686755305826664,-3.2576112914372235,-1.935262252642214,-10.866831838116049,-4.744677991861275,63.97766478564659,-8.562543709581425
1698418959.44,0.01666666753590107,-1.7201918072462081,-1.4795187185600398,0.22610592641234398,-2.7896944314152,-2.354696675176546,-9.482684587860106,37.056805436216074,32.1899302374614,11.965746081469161
1698418959.456,0.01666666753590107,-1.800379734943807,-1.553147872263938,0.7705044800251721,-2.842217303400114,-2.5493751246027645,-8.929624004364014,59.45493891350675,-7.076848218396244,20.814960514478837
1698418959.473,0.01666666753590107,-1.6956556241437792,-1.9093270163968203,1.6353186443418264,-2.852542371124774,-3.1235345371637493,-8.026860340881347,72.30970327111842,-55.33958259893941,15.652363737871994
1698418959.49,0.01666666753590107,-1.6211594783470034,-2.2184292059257626,2.1146160724908114,-2.9548944920964537,-3.6121013865046203,-7.500435250854491,71.17243579317628,-79.94974114083041,5.818836656306616
1698418959.506,0.01666666753590107,-1.335318337418139,-2.1725905609451233,2.0947481734603643,-2.878279892840981,-3.7277712542109187,-7.464073313140869,55.690678227940154,-82.95089894137733,-4.116585321731127
1698418959.523,0.01666666753590107,-1.0358047910980879,-2.3955409459359944,1.8187620715916155,-2.8104940583378073,-4.082412375121564,-7.677306898498535,19.752924155149802,-56.76265592760615,-10.32541468058807
1698418959.54,0.01666666753590107,-0.5038309809029102,-2.906936663004756,1.1177180812835692,-2.387767973846942,-4.616468982940167,-8.353219954681396,-4.617986947380825,-36.867527233936684,-12.258138795874592
1698418959.556,0.01666666753590107,-0.16764438509345053,-3.1047248419493436,0.6889934870302676,-2.125004487775266,-4.790497808373719,-8.771307419586181,-17.364755342044013,-28.99028030944473,-11.776379940504205
1698418959.573,0.01666666753590107,0.13423121418282388,-2.943745467703044,-0.23767945982813835,-1.9083289452701806,-4.572625165038556,-9.689932084545493,-21.675419208380582,-27.0611685104555,-14.323010849901582
1698418959.59,0.01666666753590107,0.041200171525031325,-2.5928423642769456,-1.1721838309645651,-2.055871768707782,-4.1744396475642915,-10.620528926849365,-25.085261377915216,-23.066414553610358,-22.98229394379248
1698418959.606,0.01666666753590107,0.2841723309338093,-2.612514740735292,-1.6750649637967348,-1.8523646275945007,-4.1437637926630675,-11.122861778149009,-27.362579635886284,-17.199842132081347,-31.53954596431444
1698418959.623,0.01666666753590107,1.2819732623301445,-2.92124312851578,-2.356917346900701,-0.8803188997015357,-4.395603879790753,-11.807903312683104,-20.520080757441878,-7.31547325676851,-29.664167263525698
1698418959.64,0.01666666753590107,1.8412014285452662,-2.1024938191510736,-2.6748902406275272,-0.3164842626042664,-3.5458120741695165,-12.131719087219238,-17.917541334593363,2.2192403056848016,-19.09563797584655
1698418959.658,0.01666666753590107,2.1281705505907533,-1.913250035059452,-3.018524814355373,-0.019902531952410936,-3.307738646587729,-12.484863247570395,-30.741701322081497,-0.7474442494605973,-11.686470745364742
1698418959.673,0.01666666753590107,2.749045317901671,-2.0243144547969103,-4.394190067470073,0.5735602045588195,-3.2712267790094014,-13.874846948894858,-62.40500006887281,-19.74692895660582,-6.073179240619551
1698418959.69,0.01666666753590107,2.844831796747446,-1.7583986421741544,-6.766855018600821,0.6022906244806945,-2.8338361362848428,-16.252888332366943,-75.1676046840135,-35.16645154567208,-1.9202048054247116
1698418959.706,0.01666666753590107,2.504799631425738,-1.4154787925869226,-7.958714440894126,0.15816636265218256,-2.3166886507563293,-17.43771829441488,-60.907972866967754,-48.45821823657033,2.2615249396192927
1698418959.731,0.01666666753590107,1.1357932516783475,0.08266688503175973,-9.520916411098836,-1.3886375474125146,-0.6937192003779112,-18.965219538116454,-8.743985123561876,-53.73516433271424,13.635641956172654
1698418959.739,0.01666666753590107,-0.3797384450271725,1.7633093566998839,-9.324531084689497,-3.018340982221067,0.9730940679021179,-18.73642364196777,30.53485587325683,-32.74425814521587,32.501639580613265
1698418959.756,0.01666666753590107,-0.7579170933917164,2.1491703762605785,-8.735444079044461,-3.4518414125740526,1.2802999953556806,-18.124705117797852,51.42573394036036,-5.8781662407582855,45.02397863132041
1698418959.773,0.01666666753590107,-0.9985136097103356,1.937658792389929,-6.731741035121679,-3.666122168897092,0.9311954657841474,-16.11477282409668,56.4336764511379,31.11587616028772,47.957841993069785
1698418959.79,0.01666666753590107,-1.1017328689053654,1.7715329951658845,-4.248384589219093,-3.6739033242926,0.6625960401006042,-13.646500550079345,53.51736667555546,56.636898484607876,45.171053094718296
1698418959.806,0.01666666753590107,-1.0311135645419358,1.665573497352004,-2.9582085850805044,-3.4528885835394263,0.4504099179692566,-12.383110261535643,57.8939538202137,74.58638973659126,43.728585443903306
1698418959.823,0.01666666753590107,-0.4622285121873021,1.3593632298722862,-0.38102936162054535,-2.6505316060490904,-0.04070084370076656,-9.837325708770752,78.88477804544203,75.74407264996258,50.6345658080411
1698418959.84,0.01666666753590107,-0.015294307504594325,1.2101814070560037,1.9237655838549137,-2.052130682483315,-0.37798385644480587,-7.536647550964355,97.51480202556881,63.319589719494196,59.43440053467253
1698418959.856,0.01666666753590107,-0.058793549752235406,1.34557859627828,2.854915968388319,-1.9850931821294129,-0.46806569390818475,-6.5880947807312005,110.37970921409794,49.367541811341646,66.35298601292358
1698418959.873,0.01666666753590107,-0.2785468922674656,1.5180919025823474,4.235693449950218,-2.107795871081948,-0.6212946001581847,-5.15830747680664,112.01859944506417,40.49699755132766,69.18127855576665
1698418959.89,0.01666666753590107,-0.40063787906244397,1.5613183192379771,5.14570109321177,-2.1739356919437647,-0.8084912424616515,-4.2036201493412255,100.80738350743266,37.58502836096277,64.53742610888581
1698418959.906,0.01666666753590107,-0.46890199860185383,1.6737530044153333,5.437951516661047,-2.1918922043949363,-0.896627644945681,-3.867683144378662,86.40021277412548,36.438424014425216,57.724469506149006
1698418959.923,0.01666666753590107,-0.6957303940698504,2.0437597445011138,5.601481452172994,-2.348562775531411,-0.7514788770377635,-3.65190571975708,72.8349653088599,36.73000137499847,48.69603517818642
1698418959.939,0.01666666753590107,-0.36189094590842724,2.246261507964134,5.493353085887432,-1.9734213029056786,-0.7007523138850927,-3.720140467071533,69.74890825692974,24.963323718210273,45.61998435339031
1698418959.956,0.01666666753590107,-0.12308321270272135,2.357822479046881,5.252873766207695,-1.733252948871255,-0.7378621473565697,-3.911976459613442,69.81887671478734,5.004880878482081,44.2777394833615
1698418959.973,0.01666666753590107,0.39685280756577845,2.482755557399988,4.653225619059801,-1.2904752793461083,-0.8017576964229345,-4.431667272949219,62.71481744962459,-22.966087612439335,43.040819545428874
1698418959.99,0.01666666753590107,0.6628611207775771,2.448639352786541,3.566163372802734,-1.1408376755863427,-0.9524427634090185,-5.453243193817138,51.3833833524117,-44.68480509751592,39.85470705234717
1698418960.007,0.01666666753590107,0.7528465121291578,2.4229431859940287,2.7157775468111036,-1.2068277127139269,-1.0666162550777196,-6.237045546832681,38.02359822266387,-59.09554118956985,29.685661868843727
1698418960.023,0.01666666753590107,0.43133959905728697,2.4207617503017187,1.2191191851407288,-1.7351982377201318,-1.1317086127132177,-7.66099639968872,9.169744965474619,-56.23460034249412,6.419163326800193
1698418960.04,0.01666666753590107,0.1518010654039681,2.5753479163795707,-0.03878068929314613,-2.1272487595707177,-0.9729434073850511,-8.892364241027831,-13.65856321725357,-41.995448847674666,-11.683543155531746
1698418960.056,0.01666666753590107,0.257493875105679,2.4737176799416543,-0.44235973637402054,-2.0817587818972765,-1.0351923582881688,-9.295937442889809,-29.02742287815126,-25.668086542434285,-25.01376125013623
1698418960.073,0.01666666753590107,0.3811608790457248,2.544200206182897,-1.1068506503105162,-1.9755163754887877,-0.88121526401937,-9.988460273090004,-39.916544169997884,-9.690236116080856,-33.466000819716534
1698418960.09,0.01666666753590107,0.4142284513890743,2.466092299629748,-1.4704934083223342,-1.9238912560611963,-0.8830106230035424,-10.386046801757812,-42.45725159783757,-0.44204685487546336,-33.20924034843742
1698418960.106,0.01666666753590107,0.28915976395756005,2.130756183169782,-1.520964535409212,-2.011429254260659,-1.1438292586177587,-10.473884075164793,-39.641451470986446,6.95071255367268,-38.19995029193901
1698418960.123,0.01666666753590107,-0.02212473804652691,2.06338682051301,-1.0576099418014286,-2.2257103028446434,-1.1128542746394872,-10.070161820220946,-50.48552083506767,23.191220892766708,-55.728107664591825
1698418960.14,0.01666666753590107,-0.24298282693326473,1.5186431067243218,-0.6411100383490324,-2.3204307598941027,-1.5518907118096947,-9.720009827423095,-69.58292782990925,40.50672715580035,-71.4785990227221
1698418960.156,0.01666666753590107,-0.18979323466792702,1.1815902494743467,-0.3710965811491012,-2.087744578308612,-1.7417811232417821,-9.53745195083618,-87.55501334766704,58.591944511875646,-81.9770778902736
1698418960.173,0.01666666753590107,0.14538491475135087,0.7743246228352189,-0.17222469862103462,-1.4662993176333605,-1.9042872686639427,-9.467271914672851,-88.11842882211222,66.23320498544906,-75.13677321010006
1698418960.19,0.01666666753590107,0.22694208497554064,0.7469190217763185,-0.2374240237623453,-1.1996451077334582,-1.7699124082267284,-9.607631986999511,-65.87986563930596,42.673884707742864,-61.074001105312426
1698418960.206,0.01666666753590107,-0.03839709680303931,0.8868348574668169,-0.5727537104815245,-1.375619075885415,-1.5126859518855809,-9.986813674926758,-47.74065563784172,1.0232192203370916,-52.109053385685115
1698418960.223,0.01666666753590107,-0.7400529353991151,1.4505802088454365,-1.2382231140613555,-2.1001644994206727,-0.8334808684200048,-10.677690491485595,-39.26850606683083,-34.86429080697989,-47.958767483702324
1698418960.24,0.01666666753590107,-1.652428769096732,1.6127489390067755,-1.5556839666128157,-3.0823855843693018,-0.5910678041987121,-11.003900467681884,-39.631786753310884,-41.181092223123215,-41.776425171559865
1698418960.256,0.01666666753590107,-1.9901918204426765,1.6609953757815061,-1.536078517910838,-3.4976300809331238,-0.4560948317378759,-10.992079096984863,-42.047549530663524,-36.91299580324146,-31.650345293030387
1698418960.273,0.01666666753590107,-2.5263068220958114,1.6594415704682468,-1.26730892329216,-4.105607518878579,-0.32830417199656364,-10.739640459442137,-44.255063255317054,-14.486966125833153,-17.31384994215991
1698418960.29,0.01666666753590107,-3.0596009211093187,1.3947954855203628,-0.693778383219242,-4.6417593454107635,-0.48811727894246576,-10.187028788757324,-44.9176360010379,5.706241414725779,-12.318632073806102
1698418960.306,0.01666666753590107,-3.1354972890928385,1.1211080159828066,-0.3334329131871462,-4.680515192523599,-0.6582549421563744,-9.852738381958007,-42.408945084932654,17.94901484628878,-15.246047736978982
1698418960.323,0.01666666753590107,-2.873518962049484,0.4541222164906561,0.6057300974100828,-4.335002257703245,-1.2098192957453429,-8.947580516815185,-31.63333470690247,23.212329592396635,-26.08008355316945
1698418960.34,0.01666666753590107,-2.119212898761779,-0.09140314919501542,1.9301456402808426,-3.5142398549504574,-1.7078132410578428,-7.641244235992431,-13.852847948194583,19.27460088493193,-28.939716419019128
1698418960.357,0.01666666753590107,-1.5556554711706936,-0.2496134971193969,2.639589210143685,-2.903568647876382,-1.8704693163447081,-6.937797860717773,9.841827895841059,8.483336567097727,-24.57880797360065
1698418960.373,0.01666666753590107,-0.4742639640264213,-0.4018459396779537,3.977712960371375,-1.8191450795598327,-2.114977160888165,-5.584026459503174,38.65475551329724,-13.737147958749153,-13.492056011893354
1698418960.39,0.01666666753590107,0.14858400305360556,-0.4150156562440097,4.886003278321027,-1.2460330571599303,-2.243815283855796,-4.647145422363281,49.57680514713249,-28.75454316043091,-6.943825588555192
1698418960.406,0.01666666753590107,0.5164265508428215,-0.46842619778364897,5.19626048310399,-0.9862621770329772,-2.465727704101056,-4.286518797302246,47.324249739997306,-37.173526538942426,-6.3471355669078235
1698418960.423,0.01666666753590107,0.6361793039485811,-0.5284329227179289,5.2513230296343565,-0.9555863221317529,-2.629880301555991,-4.1943420333862305,32.00336703537708,-39.350444431208885,-15.787152398500318
1698418960.44,0.01666666753590107,0.6856216725096106,-0.9833265619724988,5.117772052800655,-0.9931456529363989,-3.148075323376059,-4.298489805603027,11.07503904105437,-41.80228768285212,-29.827880067741734
1698418960.457,0.01666666753590107,0.9795828453995287,-1.1792093456871806,4.90522703422904,-0.7878427144475281,-3.3607103583186864,-4.490923764038086,-11.104044293138475,-47.99944126020975,-42.587800418538606
1698418960.473,0.01666666753590107,1.5621866265051065,-1.396085525330901,3.882473886275291,-0.3396780911870301,-3.523665708813071,-5.499780488586426,-38.84253448905381,-54.60731460292775,-46.335689140664684
1698418960.49,0.01666666753590107,1.6165036153651773,-1.4649945186451077,2.2646347845226527,-0.3965402344852686,-3.502716152025759,-7.114369648632406,-53.0938881168255,-55.53016878244485,-46.33023181951784
1698418960.506,0.01666666753590107,1.2975304585546255,-1.7928575227454304,0.38063305577933787,-0.8473986268743872,-3.6662701990656554,-9.003395343017578,-67.15101165516953,-41.68982178797869,-46.177430242500904
1698418960.523,0.01666666753590107,1.1995321488782762,-2.028410053547472,-0.583401945745945,-1.0051165151067079,-3.7559032698482273,-9.981576358795165,-71.94480041471049,-23.742511073887826,-43.454069895876735
1698418960.54,0.01666666753590107,1.1739046634078025,-2.186631215126812,-2.3060656960636376,-1.050007650104165,-3.7605418894343074,-11.726649509319662,-71.40945018756489,-6.881258921323759,-36.18525622264952
1698418960.556,0.01666666753590107,1.0821161681570113,-2.1432393787764012,-3.641110769498348,-1.1297646390385925,-3.5238152002863585,-13.094786120495199,-57.22412058340513,3.1147786377203195,-23.3843035104138
1698418960.573,0.01666666753590107,1.0336689481131731,-2.101206555819511,-4.084290590083599,-1.1541557145819068,-3.3740281050533056,-13.558663276672362,-40.28659698904001,11.733219121365249,-20.530618031783916
1698418960.589,0.01666666753590107,1.241190293303877,-2.329828556706011,-4.299742436012625,-0.8930379498906433,-3.5308482407283037,-13.795689241027832,-28.39855028579526,25.34815023642713,-20.559608769716036
1698418960.606,0.01666666753590107,2.216604620847106,-2.4397436602778733,-3.9030952340215443,0.1774694674067199,-3.5670604677729307,-13.428926889690755,-27.82090069711977,22.865738473153506,-20.38572581382585
1698418960.623,0.01666666753590107,2.7902161172017452,-2.2035588229216634,-3.778654615360498,0.7854469053521752,-3.259106352300569,-13.319991298675536,-39.13295413256276,-3.0550488468719696,-11.579747332036
1698418960.64,0.01666666753590107,3.3545702481284736,-1.521027956034243,-4.941339965617656,1.3004995374932884,-2.457497708959505,-14.484620768737791,-57.52577247300416,-35.1043343902654,4.818582346228106
1698418960.656,0.01666666753590107,2.781410294933617,-0.6791360368173569,-6.825133604568243,0.5675745542779564,-1.4006073136042803,-16.351349875640867,-57.86032196874056,-52.63004314010076,25.13945892897927
1698418960.673,0.01666666753590107,2.1342484091997145,-0.33744715379718687,-7.5285630287081,-0.20844620495066046,-0.9280517609309404,-17.032949160766602,-29.011812480803197,-44.79661870932362,38.66079681561811
1698418960.69,0.01666666753590107,0.32797260195463895,1.085734285588935,-8.084063406571746,-2.1104894940800962,0.5449808104801923,-17.567305043792725,12.22776835973013,-25.14076178756345,53.45464163331265
1698418960.706,0.01666666753590107,-0.760403941771388,1.601926370088756,-7.304180857348442,-3.2348665948614475,0.9925469929235056,-16.773925884136556,59.428021137987734,9.981791278539314,71.32749474771391
1698418960.724,0.01666666753590107,-0.9563418166741728,1.5647440559029577,-6.3437091012626885,-3.3954278898261485,0.8276463170476257,-15.81355232772827,79.57179262310775,27.78568424175919,75.8096629565622
1698418960.74,0.01666666753590107,-1.0823932315327227,1.474341315922141,-3.9395816748976706,-3.427899103711545,0.5244806048955768,-13.41411335144043,83.85591266678237,40.393421147659005,72.9932890938208
1698418960.756,0.01666666753590107,-0.9002667321003973,1.2821294758051633,-1.4607494284212588,-3.1597485177740454,0.17238310405313967,-10.938807525524496,76.92686333872285,43.203419028810195,67.86461615927412
1698418960.773,0.01666666753590107,-0.7113358133502304,1.1467431002378463,-0.43582419712543485,-2.885163368744403,-0.10190247750803828,-9.916633638763427,64.78901612696323,41.95320754275272,62.63683034968138
1698418960.789,0.01666666753590107,-0.2359510286003351,0.8162614380717277,1.1180500897169112,-2.330905684418231,-0.540639931731671,-8.365639291271567,49.17441479746495,38.1424640047896,59.45500721539845
1698418960.806,0.01666666753590107,-0.01410159058868885,0.6486638147294521,2.0944734481722116,-2.0202580190129575,-0.8013086374811828,-7.3946414649963375,33.15550725023693,33.02761195802844,57.52446790687269
1698418960.824,0.01666666753590107,0.05294204724505543,0.5748182417958975,2.431988662236929,-1.8977048215337096,-0.9259567614130675,-7.060799971008301,32.55281818806417,29.43079677505929,56.35702465317743
1698418960.84,0.01666666753590107,-0.04179097702503204,0.669221011198312,3.0132933434426783,-1.9310740071721373,-0.9235625597529112,-6.476914041137695,47.4058841609573,25.85325809347521,59.58177552639389
1698418960.856,0.01666666753590107,-0.21331877942308783,0.9939208750925957,3.5227158607423306,-2.0708355290837583,-0.705390933471173,-5.955277354431152,62.49284313178835,21.05731440925111,63.728103333752664
1698418960.873,0.01666666753590107,-0.25465280646085736,1.1371816372968255,3.7916660726249214,-2.095974500384927,-0.6974601404719054,-5.664232215118408,70.37609720765532,16.271686018221022,65.57982225925647
1698418960.89,0.01666666753590107,-0.397000983864814,1.3168776947118341,4.10972722915709,-2.2378309487491843,-0.7059896300166845,-5.307795442962647,68.7354311275049,10.901343061592716,64.72966178307583
1698418960.906,0.01666666753590107,-0.6234454945817589,1.6212578241549431,4.370772951525449,-2.4799447377629575,-0.538096092467755,-5.013308638763427,67.70394278923874,3.899481782546748,60.96531230505001
1698418960.924,0.01666666753590107,-0.7371046069875359,1.8707903649926185,4.445772370669245,-2.6307794423528015,-0.4269153528742492,-4.897938046264648,69.06450964171611,-7.192393247924881,54.96239564730921
1698418960.94,0.01666666753590107,-0.9640047525174915,2.2875503806859254,4.5338130576938385,-2.9523505067020652,-0.20649901640564203,-4.739621461486816,72.25416700297704,-25.58955644245206,44.78714182185022
1698418960.956,0.01666666753590107,-1.049130428878218,2.6895930119797584,4.459198253953456,-3.141193016516417,0.048183892932534216,-4.750395368957519,65.69467189015025,-37.44404984139912,36.12686493543509
1698418960.973,0.01666666753590107,-1.027308619301021,2.9196289713174104,4.241546852153539,-3.242797241730243,0.15876608211100102,-4.903923550415039,47.9074556875626,-46.25686534254815,27.121870109156696
1698418960.99,0.01666666753590107,-1.0185109803393482,3.1489690573453903,3.637494917088747,-3.4032087529607113,0.2952358690008521,-5.436634004321694,19.952334943062908,-47.08043589228995,10.702005698213185
1698418961.006,0.01666666753590107,-1.1089634046807884,3.2848519842579957,2.751128261655569,-3.603872633472085,0.4135992135748267,-6.287772109985351,-4.380740326560431,-43.77522539065074,-6.47177200510857
1698418961.024,0.01666666753590107,-1.038396415026486,3.416878820264339,2.168590239262581,-3.614347557996213,0.5764046342045068,-6.8572928298950195,-29.90912175282445,-33.70938778060077,-23.144611681870543
1698418961.04,0.01666666753590107,-1.0563941362708806,3.625949732984602,1.1391022300958633,-3.6858743325933814,0.8907935319647192,-7.903858815112709,-52.3767319143525,-20.659286842915908,-37.35906862774582
1698418961.056,0.01666666753590107,-0.9271165989726782,3.8546459681510923,0.38379707276821134,-3.5752921434149143,1.2291238618046045,-8.686163623046875,-63.39414123428489,-20.004804456266946,-42.54557618908959
1698418961.073,0.01666666753590107,-0.82167498755306,3.772437056019902,-0.028584873971343037,-3.493440081897378,1.2755118112310766,-9.127893829345702,-68.58151964474783,-24.2731979893776,-41.81121815519191
1698418961.09,0.01666666753590107,-0.7150146479934454,3.3106291073322294,-0.6639584144949913,-3.438224098370969,0.9837183377690613,-9.79303297805786,-60.70722677707191,-28.927278644540532,-42.4896096190305
1698418961.106,0.01666666753590107,-0.8796107514321804,3.4207056850761175,-0.6842839941650629,-3.643227030999958,1.2009924306891857,-9.827898539733885,-61.3455079550096,-28.061360921944658,-55.568274407824354
1698418961.123,0.01666666753590107,-0.8484776542827487,2.993313800731301,-0.7070014374077319,-3.6335008790165184,0.9003700463443994,-9.873986337170004,-88.26711521015423,-19.324995728175576,-74.99725293592421
1698418961.14,0.01666666753590107,-0.6531982432886958,2.3758820134811103,-1.2755050892293454,-3.4067999093204735,0.5747587666936218,-10.513687677764892,-147.48151535166065,3.2805906578890762,-99.3477584214226
1698418961.156,0.01666666753590107,0.1466413445532322,1.7037625043623148,-2.2539894718676803,-2.5348615922123194,0.22879648067057132,-11.570877348327636,-178.2156180882905,19.122082760765547,-103.72463243402598
1698418961.173,0.01666666753590107,0.5715913887038827,1.1979765169341117,-2.8483541256546974,-2.0174147584110496,0.10055727344416081,-12.243198517498373,-182.6238085182384,27.220269229434482,-93.05973600734711
1698418961.19,0.01666666753590107,0.4022758555278182,1.1478372521501035,-3.889225698623061,-2.0730799470096826,0.5316632098760455,-13.358297940716147,-146.7075456356715,25.82292522337118,-63.41362776398693
1698418961.206,0.01666666753590107,-0.34778716336265203,1.8259888079747557,-4.350938370242715,-2.768146908734739,1.501165244635567,-13.848660952758788,-118.67020648903777,11.673520706698397,-44.28030080430025
1698418961.223,0.01666666753590107,-0.6698623778417706,1.5189815448984503,-4.723061371830106,-3.077298051971942,1.4459489734147908,-14.229338432201743,-103.91220308901286,-0.8397147157013275,-29.098101675682553
1698418961.239,0.01666666753590107,-1.5390278692357242,1.0262472006145864,-5.004707983678579,-3.9522291211552916,1.2415439655797555,-14.507365099987387,-79.33147924735003,-0.293237069861146,-17.708593895051624
1698418961.256,0.01666666753590107,-2.247099566223472,0.8724518926534801,-4.532903541633487,-4.653730353711545,1.2436388920323922,-14.03241593017578,-55.016275594576854,6.9631558776799745,-15.71707636516328
1698418961.273,0.01666666753590107,-2.382477612353861,0.6022097412642091,-4.024381188043952,-4.7631154420599335,1.0757455736791715,-13.525892056927084,-36.86874983779811,15.869338357235788,-15.659755710101239
1698418961.29,0.01666666753590107,-2.423122049692273,0.016075228749215603,-2.7093004597514865,-4.730943357251585,0.5738609776036814,-12.224195126342773,-22.379251419330178,29.11272511069555,-16.141558961701232
1698418961.306,0.01666666753590107,-1.749797256436944,-0.9162425190631299,-1.1467536216318606,-3.9826058469794687,-0.32785518612004816,-10.677689906963705,-9.0064496565716,31.58756219417963,-15.37877197293067
1698418961.323,0.01666666753590107,-1.38970473825261,-1.2929884312108157,-0.47103871836960315,-3.5529962865851816,-0.7134712179437279,-10.018536846923828,10.270064535101579,25.384059955988473,-14.337598426421437
1698418961.34,0.01666666753590107,-0.7525646264478564,-1.6094193561926484,0.9692489367812871,-2.8553854855962095,-1.126770498723909,-8.597128664287924,41.53016270103505,11.105671585708231,-12.822103246774313
1698418961.356,0.01666666753590107,-0.3815174373984337,-1.7736773137181996,2.233980703061819,-2.476802494214475,-1.4251478440882637,-7.339874102020263,57.827721475832085,-4.073618736096693,-16.479361335029843
1698418961.373,0.01666666753590107,-0.26743936892822384,-1.648209251705557,2.70720553329885,-2.3953996377691626,-1.464652153214533,-6.864025937542319,63.94401927379511,-20.185597856049892,-24.54733446190523
1698418961.39,0.01666666753590107,-0.006041325990855694,-1.5769148245595395,3.3165444688558576,-2.223466031049192,-1.62551249505789,-6.235996914562582,59.24870135151822,-31.192145467654665,-39.117756961659474
1698418961.406,0.01666666753590107,0.6500695898741483,-1.6357390617109835,3.5841093638598918,-1.6463139394782482,-1.8490711938059887,-5.9474956145137545,52.75233767718984,-32.557343188389304,-47.30078121000914
1698418961.423,0.01666666753590107,1.0598021911486983,-1.4641238732904196,3.55208983926475,-1.3093297635503112,-1.8371001672388985,-5.95677373046875,51.39436629659708,-28.216168867030287,-52.53167475567424
1698418961.44,0.01666666753590107,1.5702040748745203,-1.0981402512408793,3.3530151276409623,-0.8684973828740418,-1.6811777110559865,-6.127659289440512,46.51636471968445,-17.980346631558923,-57.78381018965808
1698418961.457,0.01666666753590107,1.956182583335042,-0.9994447530806064,3.0473125174224376,-0.5023343126043677,-1.7229267851680516,-6.418555375671386,34.75090966675767,-6.3152308995210475,-61.847663462788944
1698418961.473,0.01666666753590107,2.2305168263435364,-1.0146800969395786,2.732745048224926,-0.2190703286871314,-1.8433849831294267,-6.7268088394165035,16.017329773529745,2.1891070051705865,-67.99510692336722
1698418961.49,0.01666666753590107,2.8753946927934884,-1.2803124895110725,1.7236112603008746,0.46582112985178825,-2.185007705578208,-7.739256281933188,-3.1828664456786493,8.700212148718556,-67.7354982632042
1698418961.506,0.01666666753590107,3.0320319461822507,-1.0289370242204516,0.5680255129158497,0.6593025515131652,-1.9595037636470047,-8.901641187939047,-6.717083798678279,7.754003844881887,-60.0110734062967
1698418961.523,0.01666666753590107,2.9447540602236986,-0.8295890486132353,-0.023254034337401388,0.5997466390863061,-1.785026317663118,-9.497348488506674,0.3950593155323011,4.186345031932229,-50.76334219465252
1698418961.54,0.01666666753590107,2.4914731168627737,-0.6385560430172831,-1.0860364103406668,0.18195859551951288,-1.6511007353633642,-10.562917864879966,10.522148888120178,10.781738765262975,-40.3878886944313
1698418961.556,0.01666666753590107,2.305031676840782,-0.7599987219713628,-1.8453420354813337,0.05237228453308344,-1.8227350668758153,-11.330409134563803,11.775307600804513,28.31080626062269,-31.891263140529663
1698418961.573,0.01666666753590107,2.2971032219290732,-1.0271369159959256,-2.0183850647479296,0.14694310397878288,-2.130838893017173,-11.522543817791343,7.721901955782827,47.47909695867067,-22.813320186368244
1698418961.59,0.01666666753590107,2.4710543059512973,-1.310596422485262,-2.243605440497398,0.5144532049432397,-2.4372967055171726,-11.786804410552978,-0.6259525797641128,63.227832958184244,-7.226283792812838
1698418961.606,0.01666666753590107,2.3860339896611866,-1.0280208592236042,-2.222029568505287,0.586728021428734,-2.142360988506675,-11.797578318023682,-10.46383273298661,60.93146188752343,3.986734034099076
1698418961.623,0.01666666753590107,2.279827239087969,-0.9680132575064897,-2.332559735235572,0.6184511934258043,-2.036268000506237,-11.93823766555786,-23.360785461554155,49.52217729415073,13.659858391874934
1698418961.64,0.01666666753590107,2.034555862826109,-0.5059660932354628,-3.0800773074269294,0.48961336271911854,-1.451484245013073,-12.71799863422811,-44.70165517419834,22.58354920759443,23.779018435001543
1698418961.656,0.01666666753590107,1.5526087969511746,0.2836107515282929,-4.858747022604942,0.031123598668724297,-0.5207382765620947,-14.513201551055907,-55.724969192668205,1.8674691282864548,35.132823109293525
1698418961.673,0.01666666753590107,1.2131482940375804,0.7760968932047486,-5.803837085163593,-0.3321963571295142,0.11462298900187015,-15.465345623779296,-38.743295255508116,-13.143715510449058,50.37112199665913
1698418961.689,0.01666666753590107,0.39778292802274223,1.6432982449188827,-6.734903883066773,-1.2135618432745336,1.0459675444005057,-16.389806739807128,24.427879575963587,-14.007754077249535,75.95987247678913
1698418961.706,0.01666666753590107,-0.2559133279159665,2.263892149461806,-5.855919739100337,-1.9011466325506567,1.5836154181767255,-15.499612635040283,67.7971543808419,-0.995842114596388,96.12375886901484
1698418961.723,0.01666666753590107,-0.25982056448757646,2.2250141372740266,-4.8169233123540875,-1.915661480115354,1.384597405176237,-14.446163904571533,92.72183971891742,8.35956329405334,113.54531064910209
1698418961.74,0.01666666753590107,-0.11101064372360706,1.92100284114331,-2.3500866240978238,-1.7697648164495825,0.824653418841958,-11.953051788330077,96.84041646767842,13.562872266981692,125.37271210270629
1698418961.756,0.01666666753590107,0.046707829030603165,1.483354643461108,-0.35911855858564373,-1.6168350392766295,0.21443156297057867,-9.939976520428061,83.04326358952342,13.322561452544903,125.67250276575649
1698418961.773,0.01666666753590107,0.04695727374702692,0.9605768238954245,0.8866326128929853,-1.6332951756902039,-0.4779419218868017,-8.667309284973143,62.421460824772545,11.350159060822484,118.41326843284023
1698418961.79,0.01666666753590107,0.04413184106275439,0.8939721620008348,1.249557578024268,-1.6539451650090515,-0.6383534331172704,-8.2866312210083,54.35251439594043,9.625586668039393,110.2173419571484
1698418961.808,0.01666666753590107,0.0015349544823169707,0.8774541579201817,1.733510138502717,-1.7205338986821472,-0.7426506968073546,-7.783848872375488,56.11245948466137,6.225437390710652,103.4693677741751
1698418961.823,0.01666666753590107,-0.09239917449504137,1.2017815352402628,2.2233190237939358,-1.85909831976369,-0.5675747004084288,-7.259219433593749,71.25695938415518,2.2515658834791794,96.5588077681988
1698418961.84,0.01666666753590107,-0.01664396854788065,1.320871148262173,2.448224926766753,-1.8293202904850243,-0.5900201948419213,-6.998101815032959,77.67359426030201,-2.9432847539357585,91.58574020332335
1698418961.856,0.01666666753590107,-0.010259966599196195,1.4421023033574223,2.769737100535631,-1.8806461347050965,-0.6193493113093078,-6.63358461227417,79.04916020819672,-5.699434277444215,86.53739712360519
1698418961.873,0.01666666753590107,0.0635804917678237,1.6609294709384441,2.876101964280009,-1.8852847542911766,-0.6079768534235656,-6.463297019195556,82.5495980068824,-3.25772403832152,79.13687349751802
1698418961.89,0.01666666753590107,0.13013868417218327,1.7881985910236835,2.879171873244643,-1.8677773007817566,-0.6477804560236633,-6.407631830596923,87.39942846856333,1.5485099662174373,73.72875020326944
1698418961.906,0.01666666753590107,0.18342998324632642,1.9837629564389585,2.9292765051066874,-1.8514666558414696,-0.6328168417781591,-6.300192031097412,92.8483689732919,6.330495091655557,68.44718348415202
1698418961.923,0.01666666753590107,0.34586174825802446,2.092050020417571,3.0224802739828824,-1.7263696190983056,-0.7858958181634544,-6.120477268981933,98.89551110590854,8.570489780907089,60.90026158339481
1698418961.94,0.01666666753590107,0.3871007904887199,2.21475051741302,3.0210370894372462,-1.706916730609536,-0.8677475874200463,-6.049997957611084,98.95675741219605,11.683482537602861,55.58414776745547
1698418961.957,0.01666666753590107,0.39642186880260705,2.1278344505041837,2.978125583949685,-1.7082633229129016,-1.154004323412478,-6.020219489941001,93.73750250887666,16.29596904826771,49.67470907869546
1698418961.973,0.01666666753590107,0.4505746070116758,1.976861506487429,2.528371645671129,-1.6511019044071436,-1.550244990429282,-6.377405034637451,86.80505857679964,20.03016324110791,42.05842660691677
1698418961.99,0.01666666753590107,0.4203698767535388,1.983691352507472,2.382628711262345,-1.6762407295778392,-1.721430409130454,-6.451774923706054,85.24976303108521,14.587200859450382,36.48703105565361
1698418962.006,0.01666666753590107,0.3066260086737573,1.9138234510332346,2.008749805918336,-1.8062760995060205,-1.963992964825034,-6.747309191131591,80.66471168276901,-0.8024358100156624,31.846873741113747
1698418962.022,0.01666666753590107,0.19171967268586157,1.9465461554616688,1.6884557757675647,-1.972224055945128,-2.089688551983237,-6.983138054656982,71.2136354942498,-17.77944344731217,23.31623213759816
1698418962.04,0.01666666753590107,-0.39510084933191536,1.7821201478928326,0.7843985653430223,-2.651429139410704,-2.4229312032952905,-7.78280140914917,45.72993673864918,-28.155245287181067,2.1315174114099777
1698418962.056,0.01666666753590107,-1.085482283589244,1.3456217047676444,-0.1692763702094555,-3.398719478717446,-2.9568387580320237,-8.672696823230385,15.235092113550282,-17.420781676258336,-22.010759298513406
1698418962.073,0.01666666753590107,-1.6501307212874292,1.4718462842360138,-0.9188742558062076,-3.954473539081216,-2.8631656180784106,-9.408165061187743,-1.386307914468444,-4.4230405418639664,-35.435823961253625
1698418962.09,0.01666666753590107,-1.7155673623159526,1.6502064168721438,-1.2474164743423461,-3.9713824421755968,-2.6870418661922213,-9.74859060974121,-18.406379681038466,7.776577620088779,-42.791182961454076
1698418962.106,0.01666666753590107,-1.5328636475175619,1.4483008657366037,-1.786075022998452,-3.665822309167683,-2.8290476598992944,-10.349086313629149,-46.58952970607362,28.77624950161321,-50.39368211148768
1698418962.123,0.01666666753590107,-1.2818901140913366,1.2372478392884134,-2.105876885718107,-3.273023891559243,-2.942772531017661,-10.750713642120362,-63.209896881423795,46.130274616471134,-52.07496732663217
1698418962.14,0.01666666753590107,-1.346479344510287,1.0972735514089464,-2.137901086488366,-3.1693250321537256,-2.9559406401485204,-10.879701841083168,-69.45178136765584,51.19511260303488,-48.94108187503897
1698418962.156,0.01666666753590107,-1.5484271273523569,1.247095864085853,-2.358900045150518,-3.1715694500796494,-2.615066471044719,-11.225663396453857,-73.82155881371158,32.99129584221148,-47.13175793371342
1698418962.173,0.01666666753590107,-1.7114853536993264,1.3704989563927055,-2.8727982465595003,-3.2360632573001085,-2.3315029196590182,-11.82496141498983,-80.91635634235979,13.568140904152711,-45.08009205044665
1698418962.19,0.01666666753590107,-1.9343511291466653,1.4627432325869798,-3.2078093688488005,-3.3969235352113842,-2.0591624808162448,-12.242600551605223,-85.05678969646483,8.420147925764999,-36.46507199747202
1698418962.206,0.01666666753590107,-2.312771623443067,1.9194664253562688,-3.6418536968201396,-3.705626057898253,-1.364693777245283,-12.776657159423827,-69.33308634025936,17.038016167623528,-15.225118329814771
1698418962.223,0.01666666753590107,-2.7840485344827175,2.291219424587488,-3.5464462804198265,-4.119823091235757,-0.8592182440057397,-12.73670391921997,-43.309293791134564,25.94865193051819,3.2477131154323966
1698418962.24,0.01666666753590107,-2.9602412599518892,2.391440671010315,-3.3358664244413374,-4.241478463092446,-0.6875842047542333,-12.55803662033081,-13.283352751614444,22.590319632609205,12.214376920088673
1698418962.256,0.01666666753590107,-2.8137504297852516,1.9488222837001083,-2.3803362164109942,-4.067001017108559,-1.137843754467368,-11.603797621154785,17.996851783688257,0.9342364763255175,9.950156403624753
1698418962.273,0.01666666753590107,-2.6348668577969074,1.7925471416220067,-1.1273767209887504,-3.910180808368325,-1.3465882117122412,-10.33008233795166,25.10209096403013,-14.309476830061202,0.5979072894235116
1698418962.29,0.01666666753590107,-2.362439471323043,1.6949802091002464,-0.49623102729320523,-3.675848320880532,-1.501163856396079,-9.673921445465087,19.50755302431168,-19.193652897983526,-10.352125842884696
1698418962.306,0.01666666753590107,-1.673716179536283,1.2834624779745936,0.6083849958330393,-3.0190888779789207,-1.960850575146079,-8.547748839569092,6.214393828596387,-10.001266709183959,-21.3919783106561
1698418962.323,0.01666666753590107,-1.0249190938159822,1.125989942805469,1.5981939055621623,-2.358438711249083,-2.1342802656427025,-7.554004928478598,0.750661375281379,3.5529549097705013,-24.76332382648125
1698418962.34,0.01666666753590107,-0.7903399380907415,1.145080135461688,2.0334552081078288,-2.0790654511600732,-2.12320708296448,-7.122301026153564,-0.5461584678986157,15.433193212690039,-24.491849420182632
1698418962.356,0.01666666753590107,-0.3084080697849393,1.103930671210587,2.7773914146810768,-1.509544658185169,-2.178572996355593,-6.385186190032958,3.777217981308935,20.861697791421943,-20.948400212746087
1698418962.373,0.01666666753590107,-0.1010635424658656,0.9623664837911724,3.337864320260286,-1.2416933474551886,-2.3401819006770848,-5.825242276763916,7.824993416020415,13.919071754839734,-20.518972559249043
1698418962.39,0.01666666753590107,-0.024694223208352923,0.8464449794113635,3.4880040283232927,-1.127220653644204,-2.4857792891353365,-5.66902061843872,11.015267201853943,1.066284523549374,-23.29300949442012
1698418962.406,0.01666666753590107,0.32146913834474977,0.5520154583573341,3.48590150308609,-0.7809592385441064,-2.822313967730105,-5.655703456225991,8.32067390446658,-18.969327287525502,-27.557502989514692
1698418962.423,0.01666666753590107,0.6199695620995015,0.2852250548571348,3.2108401148468255,-0.5120604645878076,-3.111713385662436,-5.9187657791137696,3.4551798980281223,-25.009287476229872,-27.381352410820064
1698418962.44,0.01666666753590107,0.6745934249516576,0.2795022932961583,2.995583499228954,-0.49230830089151856,-3.124731857189536,-6.126911685943603,-3.724677604892258,-22.170075168451245,-23.16889471191723
1698418962.456,0.01666666753590107,0.7424581699099392,0.13905834207832812,2.4527333441019055,-0.4534025969792157,-3.249379981121421,-6.67189183883667,-10.605644535628999,-9.7666198291164,-16.244001553967667
1698418962.472,0.01666666753590107,0.47527569835223255,-0.12351941216289997,1.9752637159019708,-0.7164655043888837,-3.4902965231746435,-7.157914775848388,-11.44721263383378,2.182782036555743,-13.62450960159918
1698418962.49,0.01666666753590107,0.35059681395590303,-0.25167905134707685,1.8011071724355219,-0.8171715386539697,-3.593396539904177,-7.344363230133056,-12.916610012998841,7.248396530250754,-12.060267361845677
1698418962.506,0.01666666753590107,0.0864741683602333,-0.5248661701470613,1.3042723340302704,-1.0494091727543622,-3.8311709845393893,-7.858069123840331,-11.65783346972217,3.732809371985981,-10.118337859105269
1698418962.523,0.01666666753590107,-0.22762604865171013,-0.62192369184196,0.9144114311784506,-1.3507792336612938,-3.903595584759116,-8.258349713897704,-11.577737548872724,0.45058619216356605,-10.58811997776604
1698418962.54,0.01666666753590107,-0.37433249433040616,-0.7763388852670788,0.7227063715398311,-1.4833582236576826,-4.033481024822592,-8.460510701099038,-11.675448527591634,4.446175246356446,-12.230105991973566
1698418962.556,0.01666666753590107,-0.4777428921833634,-1.0013266213044523,0.6623334436416626,-1.5418665267277507,-4.222772593578696,-8.538770583343505,-13.486969228508986,15.488446027980856,-8.227277897755826
1698418962.573,0.01666666753590107,-0.3893196355819702,-1.046369293601811,0.6708756465375423,-1.405097683826089,-4.238335196630657,-8.545953188323974,-11.262573837548118,21.22724610070644,-0.4610273102486941
1698418962.59,0.01666666753590107,-0.3851442495934665,-1.116672079361975,0.7323322780191898,-1.3515274216800928,-4.287715313610434,-8.497021691894531,-5.097831642236315,21.073361938706054,7.87462071675608
1698418962.606,0.01666666753590107,-0.43600116112753745,-1.353011522758007,0.6918225729763507,-1.3594582146793603,-4.51710946791321,-8.544307174682617,3.0649895468786883,13.753553219361876,15.781691662258892
1698418962.623,0.01666666753590107,-0.6106983873419464,-1.468297067321837,0.45546530166268345,-1.5237603036075829,-4.641308971294761,-8.77863966217041,7.920202837955807,5.945413722005292,18.49363705523267
1698418962.64,0.01666666753590107,-0.6554446339759975,-1.5313450596481561,0.22163959465324878,-1.5825678088199346,-4.726153492626548,-9.003544980621337,13.774975253919976,-4.526209695503363,19.05236189726535
1698418962.656,0.01666666753590107,-0.790652657301724,-1.5233701352462172,-0.38829379966557026,-1.7690163361698388,-4.764311373846232,-9.592069676208496,18.83953320272775,-11.819086552063355,16.8964178083927
1698418962.673,0.01666666753590107,-0.8919992544926703,-1.4363240122169256,-0.9550538226902484,-1.9077303948551416,-4.72465711658895,-10.13794765472412,23.736520997985725,-7.668452310432892,13.572534423336322
1698418962.69,0.01666666753590107,-0.8115572059035301,-1.3084464048445223,-1.2300170112520457,-1.8490724541813135,-4.648641213878989,-10.391733615222572,19.848948077143717,-1.815485412287134,10.640268472079086
1698418962.707,0.01666666753590107,-0.5495743488155305,-1.060083930699527,-1.9934259800583123,-1.5904986748844385,-4.421192056164145,-11.147103654479979,-6.755428907565554,6.589331086668714,9.854150410877407
1698418962.723,0.01666666753590107,-0.5585017516367137,-0.83155019261837,-3.22575126825273,-1.5830167946964502,-4.149450459997356,-12.397026558685303,-26.36312659237478,12.244112148640324,3.1840126367987422
1698418962.74,0.01666666753590107,-0.6026967941287905,-0.7609396560832857,-3.708196931299567,-1.590049762073159,-4.0056484305232765,-12.909684989166259,-32.386530402531044,17.94332359116287,-4.277954944175025
1698418962.756,0.01666666753590107,-0.5573657333441079,0.023479367525875566,-4.222128450456261,-1.473930981555581,-3.140443805584311,-13.459004632568359,-16.69778224695039,20.4890768212519,-6.2260670487747625
1698418962.773,0.01666666753590107,-0.09553549975939095,0.7980255241572857,-3.883187002980709,-0.963666679669544,-2.342276534868777,-13.13279407185018,-4.534787559327253,16.82388632204904,-1.7448660587459623
1698418962.79,0.01666666753590107,0.14033764129914342,0.920188261014223,-3.5779601935803886,-0.6901292130619288,-2.2167308775752783,-12.8321727104187,0.9960797838351633,15.970824723018422,4.573673960706251
1698418962.806,0.01666666753590107,0.44614254284836347,1.0069830396309494,-2.948544684678316,-0.347458954321593,-2.130090412737429,-12.20593933868408,-0.2848650455272822,10.832732103832644,12.211308457604046
1698418962.823,0.01666666753590107,0.3603976386107504,1.124714223781228,-2.6425638420403,-0.431256085492298,-2.0036469298213717,-11.903072828674315,-5.2281529322606275,-0.46403019224511965,14.63442478737185
1698418962.84,0.01666666753590107,0.18894838134162126,1.2545052635595202,-2.6631226459443567,-0.6241389567386358,-1.85161512440145,-11.929259409332275,-10.188125316949876,-5.655545616271828,12.902500549720887
1698418962.856,0.01666666753590107,-0.2714324571523815,1.5533312660068272,-2.4154484463244676,-1.1031289263736457,-1.5122367468133568,-11.693431130328774,-12.907935672752926,1.995864731851647,7.345890650463517
1698418962.875,0.01666666753590107,-0.15479213697873054,1.8065505325332283,-2.0697458341509103,-0.9762363114506005,-1.2256807356134056,-11.359589051818848,-12.65843996142976,10.922240879132016,6.869633085582752
1698418962.891,0.01666666753590107,-0.10712839546278119,1.9669632128074763,-1.7887948033511638,-0.8996217121951281,-1.0377359052911401,-11.09009172744751,-7.853307111451056,17.953603025863735,11.135370101993093
1698418962.906,0.01666666753590107,0.04095978689789772,2.2526465328261254,-1.1009218447834253,-0.7091331156741827,-0.7407055540889501,-10.409390267944335,4.474795019639269,16.655841470351927,21.260749886132647
1698418962.923,0.01666666753590107,0.16548216555826364,2.2817554306715726,-0.1971340989500284,-0.5716162308841943,-0.7315773679986596,-9.500192772021888,15.791414436542405,9.648653070640172,27.781256571629726
1698418962.94,0.01666666753590107,0.18270729499496519,2.2988617560341953,0.28002573264837266,-0.5633860896121711,-0.7586617742791771,-9.007884471130371,24.91452201659053,3.08383083714758,32.0675708135752
1698418962.956,0.01666666753590107,0.20061120047606526,2.260580832956731,1.237715164539218,-0.5807440516483038,-0.8795692503780126,-8.019677735900878,30.66481388259466,-2.2116758711790125,34.109329507450866
1698418962.974,0.01666666753590107,0.1795304185245186,2.1701199330478906,2.0319395428478715,-0.6388034419070929,-1.037137354876101,-7.199214754486084,30.09677437008138,-4.71741273046823,34.79867659471816
1698418962.989,0.01666666753590107,0.1608386506013572,2.1678946582138536,2.3206202911168337,-0.7031476115237921,-1.097740876659751,-6.885874196735024,23.87623593255292,-9.03911418250354,34.08170822244733
1698418963.006,0.01666666753590107,0.02473404376208782,2.071684400998056,2.425773440983891,-0.9147351101748645,-1.2452832617059348,-6.754940708923339,14.763059447557993,-15.705345515263781,28.457378705116582
1698418963.022,0.01666666753590107,-0.3351747884184122,2.054049960108101,2.0973750148326156,-1.340304528332874,-1.2852365019097924,-7.068281851196288,9.37042360725241,-20.806656711995394,21.160663709129864
1698418963.039,0.01666666753590107,-0.42806086964756246,2.062998990239203,1.8668460112810135,-1.5020627049319446,-1.289127371868491,-7.286303839874267,5.6675842515707995,-23.61890172538352,13.291671068249874
1698418963.056,0.01666666753590107,-0.5945003359306603,2.1007994363233444,1.4527344642698763,-1.7519575762759894,-1.2624921706601977,-7.686135517120361,3.53699937442594,-22.606102492233813,2.098751713300957
1698418963.072,0.01666666753590107,-0.6807095697443932,2.114869754990935,1.1112187823921442,-1.8872299700748174,-1.2548603606075048,-8.01892954788208,0.3675355741678538,-20.609810660115627,-8.486514312609074
1698418963.089,0.01666666753590107,-0.6090127723425627,2.067409207896888,0.9721937580615282,-1.849371729388833,-1.3002005545467137,-8.154201941680908,-6.042840394100001,-18.08626237501831,-18.520599226981297
1698418963.106,0.01666666753590107,-0.4430028565831482,2.033087543839216,0.6355974124073982,-1.7079641938358545,-1.314116851696372,-8.494927349963783,-12.676915623134645,-14.851740916194146,-29.286625142058657
1698418963.122,0.01666666753590107,-0.15482771974876522,1.9941861507758496,0.2999351327329874,-1.4236526005618273,-1.330726333452761,-8.838195428466797,-14.519892760274491,-11.571281312559769,-33.80996914631838
1698418963.139,0.01666666753590107,0.0035034780763089656,1.9426158302754162,0.18186814075708388,-1.2597995705753564,-1.3600558883115648,-8.965088116455078,-13.334014826009367,-9.285526063416444,-35.447097188478736
1698418963.156,0.01666666753590107,0.19889993957877158,1.9021683768138289,0.14002806389331818,-1.051204750934243,-1.376665370067954,-9.017311640167236,-11.526357450841303,-8.717768296206428,-36.06227525154886
1698418963.172,0.01666666753590107,0.34122400545477866,1.7575655523508786,0.016601590710878373,-0.9006691754214465,-1.5071493605464696,-9.146897805023192,-10.2187091965059,-10.734080266555566,-36.92618489852875
1698418963.189,0.01666666753590107,0.30158742998465893,1.6901920980408787,-0.04498246654272079,-0.9373305344730615,-1.5632634619563817,-9.212887988281249,-9.432854097587265,-13.561114347044061,-38.85438486726378
1698418963.206,0.01666666753590107,0.3195788676187396,1.457270646394789,-0.20547288822829723,-0.9216185860782861,-1.7841285651057956,-9.377340299335122,-9.153171511453584,-15.621090009209798,-40.22270739954371
1698418963.222,0.01666666753590107,0.23102643167972564,1.2986612161502242,-0.2691302446246147,-1.0131966534487902,-1.9324194304317235,-9.444227723693848,-10.935076512129761,-15.174137797849795,-40.570391349054034
1698418963.239,0.01666666753590107,0.12549597293287515,1.0894219611257314,-0.2748462841838598,-1.1174943555302916,-2.1131816557735204,-9.460089309692382,-18.63810750900949,-13.094518511631101,-42.74809471307505
1698418963.256,0.01666666753590107,0.061792731568217275,1.0003066306069492,-0.33114567903280256,-1.175254324451089,-2.1654051794856786,-9.529970070648194,-23.475518979232028,-12.785835796055192,-46.847690366132596
1698418963.272,0.01666666753590107,0.040880438051372765,0.8312669917628168,-0.5511275696069002,-1.183484465723112,-2.2912504042476414,-9.766397484588623,-25.47657145320171,-9.876946167232324,-50.22723723160364
1698418963.289,0.01666666753590107,0.21991613186150788,0.7262535426273942,-0.7187497428685427,-0.978032035760954,-2.334794946941733,-9.958083255004881,-25.22865778444505,-8.23203512451274,-48.58351805689422
1698418963.306,0.01666666753590107,0.33860249784477053,0.6205819218441844,-0.7458131063610315,-0.8456026103030889,-2.395697159411013,-10.001627797698974,-23.78807526584098,-11.504450472852133,-43.842243206786904
1698418963.322,0.01666666753590107,0.4557669880229979,0.4454080180287361,-0.8549906894385814,-0.7300825263310223,-2.5293238318294287,-10.124031357574463,-20.645284955117383,-16.687028114102205,-38.9919995186612
1698418963.339,0.01666666753590107,0.37874008163958783,0.2628571557044983,-0.8544862470477819,-0.8322850096989423,-2.669533974291384,-10.133757801818847,-15.691640740694151,-21.84798735285554,-35.933570581923725
1698418963.356,0.01666666753590107,0.31577991372719405,0.19038491695076226,-0.8376929331570864,-0.9211696732670068,-2.7177172827020284,-10.121188243103028,-13.904412461333594,-20.92684072063094,-35.13659678880995
1698418963.372,0.01666666753590107,0.21724165195524692,0.021800328397750854,-0.6958961060255765,-1.039233742633462,-2.8646617018550633,-9.983521647644043,-13.712472192825189,-17.27175036366324,-36.01007211572245
1698418963.389,0.01666666753590107,0.23562515764683484,-0.19237901337742805,-0.5561901136934757,-1.0344454854436218,-3.047369216045737,-9.85169091873169,-15.932905220293804,-14.394116534256,-37.906624402938235
1698418963.406,0.01666666753590107,0.19563348512873052,-0.2519067226231098,-0.5257984825611114,-1.081581330627948,-3.080139851269126,-9.828497090148925,-16.40482860325937,-15.893631632566231,-39.996669119151306
1698418963.423,0.01666666753590107,0.13359218562692404,-0.30332156030088664,-0.6555863074690104,-1.1629841870732605,-3.1010891157954927,-9.964816947174072,-13.493217997825903,-20.720652677513886,-43.059961150577834
1698418963.439,0.01666666753590107,-0.03439195281490683,-0.25685820755064487,-0.8421440673470497,-1.350330466980487,-3.0409347990840674,-10.152761777496337,-9.939421053796785,-20.85881032895032,-44.30547688158092
1698418963.456,0.01666666753590107,-0.1532768370449543,-0.16233371146470307,-0.8672866919100284,-1.4853035855717955,-2.942772531017661,-10.1767037940979,-6.233250700234324,-19.909419156960425,-47.112339705903075
1698418963.473,0.01666666753590107,-0.14508417823910713,-0.10488806919008493,-0.7877800244748592,-1.496526405853778,-2.8853116911739107,-10.09440311203003,-10.392055128772592,-22.102077220169186,-52.65450204751858
1698418963.489,0.01666666753590107,-0.17152677948474884,0.025933774940669535,-0.8895879555672407,-1.5375271092839538,-2.7359733626216647,-10.199598347473144,-21.797008528437857,-22.372585154700246,-58.62351364621944
1698418963.506,0.01666666753590107,-0.182516960054636,0.04956862528920173,-1.0891776309758423,-1.553239349939674,-2.667140064892173,-10.411784469604491,-33.04820839347061,-17.349452303208597,-65.19385509944823
1698418963.523,0.01666666753590107,-0.28142317835614084,0.15655746615082025,-1.518825185292959,-1.6273098176702856,-2.4720126295894382,-10.870274087524413,-38.633902945761186,-5.203572362098221,-67.86452053662575
1698418963.54,0.01666666753590107,-0.3456348076343536,0.5264560696870089,-1.6758827099204063,-1.6482590821966527,-2.0359686522334814,-11.05178450088501,-32.54662662158155,3.4126666661998475,-64.20407189625416
1698418963.556,0.01666666753590107,-0.43340749137252566,0.6296180457368493,-1.6312433577269314,-1.6819273969121276,-1.8912693816587327,-11.02574755783081,-16.595426739595872,6.5913566646444455,-57.69440301342261
1698418963.573,0.01666666753590107,-0.6513868830177932,0.9223860633194446,-1.3191267888128757,-1.8377002154912798,-1.613541696819663,-10.717643731689453,11.869567626445274,2.1217316713200534,-47.552808360193445
1698418963.59,0.01666666753590107,-0.8357088466677814,1.0762272562488913,-0.5924246256351471,-1.994670061835274,-1.5201675398126244,-9.977834834179282,24.845260483312018,-3.660479803109662,-41.68856503317141
1698418963.606,0.01666666753590107,-0.9385441480465233,1.0763140577495098,-0.20068273134231565,-2.083255669391528,-1.5987275740474463,-9.565733457946777,28.32286495960235,-6.984477593834638,-39.44553090973922
1698418963.623,0.01666666753590107,-1.1635698049414902,1.100401912562549,0.47526773424148555,-2.296938167560473,-1.6787839843198655,-8.860790706634521,25.224231821862883,-8.515849121320633,-39.375159470720575
1698418963.64,0.01666666753590107,-1.493060337178409,1.2904177039399742,0.8244599420964718,-2.617461695618182,-1.556080856975913,-8.492382341656088,19.828882688909513,-8.094907977867331,-41.34348338573485
1698418963.656,0.01666666753590107,-1.645055756110698,1.3661442683145404,0.8581132053732872,-2.7549787996038795,-1.5325880454465746,-8.444349255371094,12.797498344062989,-5.980904238706325,-44.06555282660588
1698418963.673,0.01666666753590107,-1.9037538924396038,1.433055658070743,0.7615390832811594,-2.9759936134222893,-1.5108905929014085,-8.531139065551757,4.5996487432329864,0.04432195129785899,-48.96637065044094
1698418963.69,0.01666666753590107,-1.9175442251220345,1.4394403906717896,0.6254536195337772,-2.9478617439154533,-1.5248068900510667,-8.665513633728027,1.2990202313097967,2.1212416052471053,-51.135269900621815
1698418963.706,0.01666666753590107,-1.8560089754462241,1.400216926047206,0.594614244633913,-2.842516724738106,-1.5798735282346605,-8.69603970489502,0.8069341832752034,0.41254078450655207,-51.0287223646642
1698418963.723,0.01666666753590107,-1.6504222515799105,1.3523966057300567,0.6278788008540869,-2.596811852429807,-1.647958637945354,-8.660425955200195,1.8409438752012985,-7.44859108237112,-46.863655933317496
1698418963.74,0.01666666753590107,-1.5082181588217616,1.2443147089347242,0.6701631143540143,-2.4422360616154966,-1.7739532080501317,-8.613588800701498,3.398426148667194,-11.328135969617424,-44.7543261779829
1698418963.756,0.01666666753590107,-1.4545207631647585,1.1768395478159188,0.7161825227290392,-2.3814834136847405,-1.8589476592466234,-8.562562962341309,1.7029084201179854,-11.0650106158055,-44.30465725888052
1698418963.773,0.01666666753590107,-1.4124129752755163,1.0224328299582004,0.8470546357423067,-2.3195334457281978,-2.0281874968379734,-8.428786360058188,-0.8151079453601517,-5.305069400051433,-44.98756006266591
1698418963.79,0.01666666753590107,-1.226793665291369,0.8689905732184648,1.0587760629713534,-2.1061501497015356,-2.189796401159465,-8.217049735260009,-0.9570909296186149,-1.5699166328499037,-44.23282757447408
1698418963.806,0.01666666753590107,-1.1175045846633613,0.8194608186349273,1.1572802763432264,-1.9683339897040277,-2.2477061538144945,-8.118438554382324,-0.08254279609896442,-4.365642193400118,-41.75895013256839
1698418963.823,0.01666666753590107,-0.8469901922039688,0.6583119330406189,1.2877420549899339,-1.6846210199102758,-2.4233804083675143,-7.9843632614135736,1.4684471290967827,-13.945558374667398,-37.13456713991667
1698418963.84,0.01666666753590107,-0.7969164669368416,0.5594464851409197,1.2990706737339497,-1.6458648805364966,-2.5323168761655688,-7.968651313018798,0.012629126497059358,-18.53457208647585,-35.7799903633414
1698418963.856,0.01666666753590107,-0.8273467495791613,0.4522469241380691,1.2308441097259522,-1.6915043496832252,-2.643796890966594,-8.034042945861817,-3.5141577277375364,-17.78408968349507,-36.77545286883032
1698418963.873,0.01666666753590107,-0.9341555576987564,0.37949820653051136,0.8623702782958745,-1.806575740039721,-2.704549758093059,-8.405742753601073,-11.438011515248126,-11.149047555806044,-38.894221945597884
1698418963.89,0.01666666753590107,-0.9461819494485855,0.3030892128497362,0.4128425499886274,-1.804031900775805,-2.7539304595947263,-8.865579109954833,-18.44310731575292,-3.3613130351514604,-40.88941582480699
1698418963.906,0.01666666753590107,-0.9244885154914111,0.23352789310663938,0.20845044273436067,-1.7488156249884514,-2.781014573614299,-9.086892541393636,-23.57773276016127,3.6010913082764007,-41.826196760041746
1698418963.923,0.01666666753590107,-0.9107086311377585,0.20396979018896816,-0.0960205798625946,-1.6727997953437268,-2.745251186315715,-9.417592230224608,-22.269355383131966,7.421261787954607,-38.47814731192822
1698418963.94,0.01666666753590107,-0.6963423884883523,0.18296090442985294,-0.2573825236856937,-1.414674928858131,-2.725050109808147,-9.59536170349121,-16.916447338133764,5.571467695136264,-32.71776042633081
1698418963.956,0.01666666753590107,-0.6317630949415266,0.14984189416021107,-0.30565584846735,-1.319355629132688,-2.7316338721126314,-9.65416869724691,-8.934514958006673,1.5499778165587554,-25.433735921821977
1698418963.973,0.01666666753590107,-0.4923397189430892,0.119871411049366,-0.2861953611940145,-1.1641815070990473,-2.7594667586728927,-9.636512044525146,4.950331145788951,-3.827330225475672,-15.12708633220487
1698418963.99,0.01666666753590107,-0.43931430426351725,0.04557897113114595,-0.1714198119789362,-1.115100300000608,-2.8594246779844164,-9.51350993423462,13.695830436912454,-6.049727359217489,-7.493648132778402
1698418964.006,0.01666666753590107,-0.47792643205672497,0.062409694422781464,-0.055900750920176503,-1.1667253463629632,-2.881122422790527,-9.38497123260498,16.437584482971463,-7.598967942232706,-2.1885179013546727
1698418964.023,0.01666666753590107,-0.4798058160625398,-0.03097147684693336,0.15682020874023436,-1.1984485914252698,-3.024475247192383,-9.154080410003662,13.184638588861189,-10.995463922129137,-0.8252496556997099
1698418964.04,0.01666666753590107,-0.5520180156406015,-0.1679033282905817,0.18727613728046416,-1.29646114882268,-3.186383134460449,-9.113528619384764,6.797765835135877,-10.922339063101335,-2.329300693309918
1698418964.056,0.01666666753590107,-0.6115825497653335,-0.16873977911472318,0.08374620470106602,-1.3784626287482677,-3.19536109842509,-9.21258871307373,-0.5948232455698392,-9.48374412954574,-4.226965020699941
1698418964.073,0.01666666753590107,-0.602097732257098,-0.13584756333827971,-0.20055121391713618,-1.3962694305304437,-3.15076909250468,-9.498396536254882,-6.399022379598295,-11.874109702243333,-6.265936143620596
1698418964.089,0.01666666753590107,-0.6304109496802092,-0.08295739241093397,-0.49570788020193574,-1.451635416986793,-3.0834321708127854,-9.795876092529296,-6.147862663438586,-15.257944218965852,-8.871358760072503
1698418964.106,0.01666666753590107,-0.5976441138491034,-0.019819091452658175,-0.6088333241224289,-1.4504382430914788,-3.0110078628540036,-9.909151758575439,-3.2573035548007407,-17.375123569204092,-12.4687784147832
1698418964.123,0.01666666753590107,-0.492745815525949,0.05830372040867805,-0.7690805847018957,-1.384597697437182,-2.9321485534116625,-10.065971382793784,-0.30333232957826284,-14.833413811103709,-15.186281874194078
1698418964.14,0.01666666753590107,-0.3508465509332716,0.2365133386582136,-0.8561053726822138,-1.2621941375616936,-2.7590178458616137,-10.149469750213623,1.6279943716927567,-11.33615888057125,-15.754917320712442
1698418964.156,0.01666666753590107,-0.2667754981920123,0.2722457462966442,-0.8699415903329849,-1.1902185232184828,-2.734626916448772,-10.158448006439208,4.716036447350473,-8.98936052326823,-16.273289405128683
1698418964.173,0.01666666753590107,-0.18438516507931052,0.3633484512403607,-0.6852402719765901,-1.11764421232976,-2.6716291930049656,-9.963619846343994,9.029511790304149,-8.993238363169503,-18.14710399259749
1698418964.19,0.01666666753590107,-0.13230850249193607,0.4625958841949701,-0.3882546366989612,-1.074099596570432,-2.602197637121379,-9.655964933013916,11.503098949170116,-10.488538380988192,-20.281273438396138
1698418964.206,0.01666666753590107,-0.1090551988068968,0.48029082310050725,-0.2280477081298828,-1.0592854737982154,-2.6176103103086352,-9.483881104168296,10.940451871006562,-10.493388669072548,-23.28742410722634
1698418964.223,0.01666666753590107,-0.06805712572522461,0.5480538612499832,0.09302490517795085,-1.016938104999438,-2.5890298202514646,-9.149740919494628,7.936097541928073,-5.40570113841417,-28.710778723324054
1698418964.24,0.01666666753590107,-0.05389869038276374,0.605642126865685,0.3646230012208223,-0.9843171073798089,-2.555810272216797,-8.871714251708983,5.796871621709501,-0.7868849100185714,-33.11874717212392
1698418964.256,0.01666666753590107,-0.01059153664112091,0.6394593485325575,0.4348959763646126,-0.9109946815375238,-2.540846804101765,-8.797942913055419,2.850269103384409,1.416572696124182,-36.481723998668514
1698418964.273,0.01666666753590107,0.2279504583004862,0.6062009297922253,0.5865753150850535,-0.6239899036567658,-2.5888798903867603,-8.645761470031738,-0.6177549653779223,2.4755630045268058,-38.85124981043475
1698418964.289,0.01666666753590107,0.3476617834173143,0.7160986438378691,0.6483510955184698,-0.46268034760802984,-2.4833853797361254,-8.586205119213462,-2.597430227905935,5.481605030660522,-38.66568723106384
1698418964.307,0.01666666753590107,0.3360140887867659,0.7726204492658376,0.6430266856253146,-0.4239242812994867,-2.426523382568359,-8.595932147979736,-3.929263541762119,9.922068958210367,-36.843491798247406
1698418964.323,0.01666666753590107,0.3942438671763986,0.7065870113879442,0.5541676679551601,-0.2910460160955787,-2.4877248702451586,-8.692298180279135,-4.780062640630172,8.95142309129704,-37.84024862458405
1698418964.34,0.01666666753590107,0.43684287264868615,0.6100412386074662,0.2910907320201397,-0.2038074392341077,-2.5827447486326096,-8.959102027782798,-1.2758735739862697,1.0886338630090078,-39.672019982616845
1698418964.356,0.01666666753590107,0.5926463786270469,0.5930351587489247,0.30480946077108384,-0.020651012232154608,-2.6069863327026366,-8.94473740234375,1.0294500604074357,-5.389610920276913,-36.544763229613146
1698418964.373,0.01666666753590107,0.48091421569585796,0.6155293146297335,0.07506020942032336,-0.1237512116247788,-2.592770468084514,-9.172186560058593,-0.13354427219869922,-11.023536853391535,-29.706896926973297
1698418964.39,0.01666666753590107,0.46212300598621364,0.6284750131815672,0.026155600997805593,-0.1455984113715589,-2.5796026512145995,-9.220968418884278,-4.162551214184844,-10.36144307468624,-27.01482226184238
1698418964.407,0.01666666753590107,0.31577034218125044,0.5509753016546368,-0.0708411304205656,-0.29104608916081487,-2.644395733642578,-9.322422714233397,-10.020451856788878,-6.807916776902986,-25.42775438365634
1698418964.423,0.01666666753590107,0.09779759947247803,0.5366974777162075,-0.24952947209775447,-0.4979949682258069,-2.618059515380859,-9.515754498291015,-17.99767823657783,-4.8911569481409,-26.041223191886665
1698418964.44,0.01666666753590107,-0.09985380134992301,0.44318537354320287,-0.4610860641539097,-0.6856405964057892,-2.668188112640381,-9.742605105590819,-20.8530746775948,-4.71816917391881,-26.747691855855887
1698418964.457,0.01666666753590107,-0.22955438636578618,0.38783904163539407,-0.5232698408663272,-0.8010111158393323,-2.660107974298298,-9.826701438903807,-21.109199941281112,-4.212413302673229,-27.835657320821586
1698418964.473,0.01666666753590107,-0.27187004485204813,0.3218970814332366,-0.478245288747549,-0.8301905216377228,-2.6792612953186032,-9.797671743774414,-20.836093119770858,-3.1469159584256987,-27.62808274930302
1698418964.49,0.01666666753590107,-0.276309232875891,0.34350744021683927,-0.2307312481254339,-0.8186682434851303,-2.6108766181394456,-9.566032148632406,-20.372120076999185,0.07393967925144412,-25.708130233990776
1698418964.506,0.01666666753590107,-0.2934112108569592,0.4340162709206342,-0.11426584612727164,-0.8029563316229731,-2.461089669036865,-9.469965391540526,-18.495891017658778,3.3496325578970922,-24.751941316229427
1698418964.523,0.01666666753590107,-0.289738513693586,0.4975061617955565,-0.13741291295886038,-0.7655470402808859,-2.3623288505554196,-9.505728194317221,-12.508831497849801,9.273887421070743,-26.56857697506147
1698418964.54,0.01666666753590107,-0.37698527386151254,-0.45320378647148607,0.05621580821871757,-0.7873941669624298,-3.282301130731404,-9.324517640686034,-20.997148980399757,36.33954336581094,-30.044557573876634
1698418964.556,0.01666666753590107,-0.7046523169983178,-1.0340390965998172,0.8141057213425635,-0.9736929288444108,-3.764133922576904,-8.601019826507567,-39.484391271022005,20.511140039818333,-25.825800733011757
1698418964.573,0.01666666753590107,-0.6429056895941495,-0.9531310379341245,1.042502973562479,-0.8661034552085213,-3.574393441009521,-8.404695290374756,-49.43065958946173,6.979045459010362,-31.200843713562676
1698418964.59,0.01666666753590107,-0.10938180041275918,-0.2589189394727349,1.7165736167490482,-0.2853598602179438,-2.7510876373842357,-7.766490910339355,-58.0184066970805,12.609645089999189,-33.678184061377564
1698418964.607,0.01666666753590107,-0.5285876748882233,0.05159253233224153,1.1570897222071885,-0.6217452574019786,-2.224961530303955,-8.381202186584472,-73.56120566292903,28.22301271657864,-35.384057957534104
1698418964.623,0.01666666753590107,-0.3582999356791377,0.021455898874253032,0.963618821939826,-0.3574852338927398,-2.070385885620117,-8.617330325317383,-71.2290990425307,27.611541738680543,-38.11518422924457
1698418964.64,0.01666666753590107,-0.5515702718731016,-0.011479425391554832,0.3136117759078741,-0.469563850910915,-1.9482814548216758,-9.299528160858154,-49.60215880933158,20.54328974024158,-39.896541961013504
1698418964.656,0.01666666753590107,-0.07222082127593457,-0.2424859833270311,-0.24138591313064098,0.0752666735115461,-2.0751742889404294,-9.874136559295653,-13.407120048243307,2.439099185869046,-42.40988082084894
1698418964.673,0.01666666753590107,0.035561763779260215,0.06564239273369311,-0.27665596395432945,0.19452789850700644,-1.7548001792907715,-9.911545960235594,3.272865713937792,-8.010611490678327,-37.83735262437596
1698418964.69,0.01666666753590107,0.3863620278853923,0.18079583535045385,-0.21164719294905662,0.531811002582591,-1.6561889984130858,-9.843610488128661,9.701805602761212,-14.921668392916736,-29.596524485080476
1698418964.706,0.01666666753590107,1.7456790074631572,-0.09949980028048157,0.10002981550395489,1.8691222582504619,-1.9731214431762694,-9.525181082805991,10.669708294949134,-15.596245196103876,-6.981619586553811
1698418964.723,0.01666666753590107,0.9900308088514953,0.4108383705593645,-0.34852059220373627,1.0625756150845205,-1.4872481437683105,-9.969455712890625,10.358543659383571,-22.61163323791423,3.5383190950396335
