ts,interval,accx,accy,accz,accGx,accGy,accGz,alpha,beta,gamma
1698924224000.0,0.01666666753590107,0.1427895644959062,-0.2740896205976605,0.1303454587906599,1.2719202164798975,-4.4592017610847945,-8.666261237224935,-11.29729937306211,-17.476398199122457,-2.001216611953175
1698924224170.0,0.01666666753590107,-0.08029824707112275,-0.1083902320921421,0.2399637713730335,0.03202244720458984,-5.995529869842529,-7.602188236889242,7.4593563142767065,-0.7988587118812798,-0.5411384389412149
1698924224186.0,0.01666666753590107,-0.13285930477511138,-0.1771533871948719,0.3140139269679785,-0.019602535225683823,-6.0784279332816595,-7.517493353161215,6.043100368175284,1.916358128261525,0.7156229317260367
1698924224203.0,0.01666666753590107,-0.15687935504894704,-0.18418226291835307,0.2841734999775886,-0.040252506278222425,-6.095786479839682,-7.539490665435791,4.352006147609011,2.8727803396717135,1.7155650808151364
1698924224220.0,0.01666666753590107,-0.23234849233003332,-0.05537643478512764,0.1369336050093174,-0.11432313840561546,-5.978022270202636,-7.678354361724853,4.00296170979338,0.02970331876162186,0.5282792738073437
1698924224237.0,0.01666666753590107,-0.2507958935706876,-0.04101882360875606,0.02724281171262264,-0.13482349012070335,-5.972784369549155,-7.781155395507812,5.140641560406663,-1.4717463239093103,-0.5339002526899997
1698924224253.0,0.01666666753590107,-0.2004702576354146,-0.08181552889943122,0.031516835770010944,-0.08439561765366234,-6.026055356487632,-7.767388151440024,7.279621593815114,0.3215820080711551,-1.2036073978031845
1698924224270.0,0.01666666753590107,0.018054399318096694,0.1772615237444639,-0.16363105779886244,0.02020108121685116,-6.01408493270874,-7.7687354743957515,8.928196179250765,1.2156648161223726,-1.245378700332867
1698924224287.0,0.01666666753590107,0.21600312313623726,0.09587795652151107,-0.10433306565582752,0.19123685760498046,-6.077680329784751,-7.723844193267822,9.495865154001573,1.6217602232495334,-0.7724726239004627
1698924224303.0,0.01666666753590107,0.2820493474304676,0.03958031523823738,-0.03721007897555828,0.24001873013039585,-6.118232120403647,-7.669376105499267,7.768269548737105,-0.803662149136797,0.754659703988481
1698924224320.0,0.01666666753590107,0.29934591640187425,-0.043184477210044855,0.015642974811792373,0.2172738097923342,-6.163273039135336,-7.646481552124023,7.448953082397131,-3.1946280314294113,2.514519628788208
1698924224337.0,0.01666666753590107,0.02763672466734424,0.09279109642207622,0.230801975274086,-0.05521625752104446,-6.018872751507162,-7.438036370086669,7.463571394768251,-1.853212602497934,1.9651421140781065
1698924224353.0,0.01666666753590107,0.03162350188172422,0.03910217633247375,0.2578787827700376,-0.047135836051171644,-6.073939389690756,-7.409904500579834,5.795422767831813,-3.0800095597503696,1.929147657482374
1698924224370.0,0.01666666753590107,0.014801761047565377,-0.053202597877383226,0.28871289697289465,-0.03411735995749477,-6.1622255759090185,-7.382520819091797,3.7901236237456737,-4.46192352814838,0.18925472350412142
1698924224387.0,0.01666666753590107,-0.017156443548086098,-0.09633739072680472,0.219964354917407,-0.02753331224193098,-6.214449684143066,-7.44417151184082,3.907449198213568,-4.367144835017521,-0.22110717729634366
1698924224403.0,0.01666666753590107,-0.028375601435103454,-0.10965572198331355,0.16924772863686083,-0.02917932602599394,-6.241983003234863,-7.483526201629639,7.397762522115178,-2.799171817873309,-0.06759598097723611
1698924224420.0,0.01666666753590107,-0.06841720490900334,-0.0718342331111431,0.16308569887578486,-0.0715267671764799,-6.23135814884603,-7.467814253234863,10.531731643525706,-0.8531066889513127,-0.6132122492496291
1698924224437.0,0.01666666753590107,-0.06128811108090449,-0.003321837899088859,0.22634967204034326,-0.06793546468624553,-6.190955995830893,-7.381772046551108,9.80585585080354,-0.9585754285460348,-0.8145214028651768
1698924224454.0,0.01666666753590107,-0.05042515535356942,0.011021744751930237,0.23146716118454932,-0.05850829450773599,-6.198587513622641,-7.358728440093993,8.389214852787658,-1.2367047869737737,-1.086404126410116
1698924224470.0,0.01666666753590107,-0.016027729495812673,-0.012600538375973701,0.29546763193011283,-0.028730413072009103,-6.246321909222006,-7.274931381988525,6.575093130456999,-2.5891706082086854,-1.0316955918187831
1698924224487.0,0.01666666753590107,0.0224725628202199,-0.012844868525862693,0.3119815443575382,0.006883336622815113,-6.26263299255371,-7.245153498840332,7.374531341200672,-1.0381857656341762,-2.065806082395989
1698924224504.0,0.01666666753590107,0.061118375970609484,-0.0036988545179367062,0.4064309293806553,0.04967969129810808,-6.27565146408081,-7.132326745605468,8.316819116453754,2.3307947971908582,-2.3332186605725664
1698924224520.0,0.01666666753590107,0.0923251228781417,-0.054207975527644156,0.4051262765228748,0.08888474633727746,-6.342987801250815,-7.119607549285888,7.919845960571674,2.937163623778958,-2.186886980246921
1698924224537.0,0.01666666753590107,0.12882930034035817,-0.029010405907034874,0.37870237997770306,0.1310825503121203,-6.33326135700643,-7.133074933624267,5.897690336500767,1.758986834524729,-1.4826784685627388
1698924224553.0,0.01666666753590107,0.13906331051439047,-0.030825346374511717,0.36254151877164836,0.14514848249683854,-6.347178238677978,-7.139060437774658,5.055367075505877,0.6607300887488194,-0.817231013614115
1698924224570.0,0.01666666753590107,0.10061134171895682,-0.013272738549113273,0.3881728036344051,0.10714053000021376,-6.3435869361877435,-7.101651036834716,3.5953223597486788,-0.9954921741231306,0.07312179077876155
1698924224587.0,0.01666666753590107,0.05783726280755363,-0.0026730186015367506,0.3975526263982057,0.06224924887228408,-6.342240197753906,-7.0844427124023435,2.8336416481802478,-0.9135236075023365,0.5328127585080868
1698924224604.0,0.01666666753590107,-0.02826893760667881,0.05200023635029793,0.4013058414518833,-0.02169744797858875,-6.299892171368002,-7.070226555523276,3.5461018821554515,1.4025184079681172,-0.23040490570615577
1698924224620.0,0.01666666753590107,-0.028295289040775967,0.07933832513093948,0.39559681615531445,-0.016460130705352637,-6.281188055419921,-7.068581126403808,3.709371150962259,2.21082060342888,-0.4497429839661868
1698924224637.0,0.01666666753590107,-0.03452386524901958,0.06136778415441513,0.4821212533980608,-0.014215570073889102,-6.309618615612387,-6.973111750683188,3.518422753987386,2.8955280712590294,-0.5897881154910705
1698924224654.0,0.01666666753590107,-0.026025508344732225,-0.006525602376461028,0.6076438220769167,0.0011971053966553882,-6.386083431133628,-6.8402341430664055,0.8982857756291555,0.9730483859538803,-0.11758957728757088
1698924224670.0,0.01666666753590107,-0.015908402548637242,-0.045837622067332266,0.7404068634033203,0.01511340254631359,-6.427084719085693,-6.706009212493896,-0.3028022428656464,2.8504686729742206,-0.16576514265949224
1698924224687.0,0.01666666753590107,-0.031466407057293685,-0.18057050216197967,1.100068442824483,0.010324994659423827,-6.559214138683676,-6.348524392589926,-3.3447485457537103,5.277795174035104,0.69514383679937
1698924224703.0,0.01666666753590107,-0.009402660216693766,-0.356788654333353,1.3232576050072908,0.04070143278923351,-6.7274073898315425,-6.132149002075195,-6.574480974752637,4.544007460933123,0.39845210528079916
1698924224720.0,0.01666666753590107,-0.08102781258784233,-0.3736123633623123,1.431684661978483,-0.02094925539321266,-6.729651369366049,-6.036081660461425,-8.931383316272223,5.915342533523842,-0.9857267111573049
1698924224737.0,0.01666666753590107,-0.16167064444608986,-0.5606733965873718,1.7620254543691873,-0.08678981931381859,-6.900238237652182,-5.719598128509521,-10.423052234773403,6.717695100608995,-1.2782987180284473
1698924224754.0,0.01666666753590107,-0.12751069202246143,-0.6459750140368938,1.6308581578016281,-0.04414309310913086,-6.954855963024497,-5.876567974853515,-15.603281998496282,-2.8361750080320878,-1.534817784809089
1698924224770.0,0.01666666753590107,-0.15239114938476123,-0.6694745475679635,1.5955185488730668,-0.07706337050285655,-6.947373498314619,-5.9379193923950195,-17.321569763469313,-7.827639260550148,-2.1137339466887917
1698924224787.0,0.01666666753590107,-0.16812091656401754,-0.8840928652822971,1.70937113802433,-0.11297639083862304,-7.122150219506025,-5.857264139446616,-16.44323987960423,-8.851108956730709,-0.9019877381593023
1698924224803.0,0.01666666753590107,-0.22901030608434228,-1.013828083220124,1.8938620285004377,-0.18824410552978516,-7.2245029249995945,-5.6953562521785495,-16.526395725201844,-4.546596529515382,1.3778621721163116
1698924224820.0,0.01666666753590107,-0.2197970172601752,-1.0229039546012877,1.9634172107636927,-0.18794483260555425,-7.203553660473227,-5.65031591796875,-17.120996135850014,-0.3521382467053823,3.4169477007055646
1698924224837.0,0.01666666753590107,-0.28616206171261144,-1.0906576404005288,1.9229799864351749,-0.258573779296875,-7.229291912841797,-5.724685807037353,-19.664512478985863,3.192164254129741,3.1402099933212155
1698924224853.0,0.01666666753590107,-0.2788072602367028,-1.1153303093641995,2.0372990240544078,-0.24600421373118878,-7.2147764807552095,-5.641636936950683,-22.283271893565868,7.507090798838633,3.172772066415605
1698924224870.0,0.01666666753590107,-0.2476863832480274,-1.253130760335922,2.092402487117052,-0.20171148530158678,-7.304858318218589,-5.624129337310791,-25.318411592780897,10.886284202020128,3.9238015248602247
1698924224887.0,0.01666666753590107,0.02508321339278482,-1.362716924214363,1.951958243638277,0.09157820893439929,-7.34211866607666,-5.820603511047363,-27.721178227690295,10.533993289914626,4.306806517002805
1698924224904.0,0.01666666753590107,0.26102877123355867,-1.653465710929036,1.7039292392313479,0.33758243408203126,-7.577199341583252,-6.111050099945068,-26.74802141248334,4.86215938001961,3.760798633431047
1698924224920.0,0.01666666753590107,0.31941184048876164,-1.7455904523968695,1.549821796581149,0.3936965400585206,-7.6186483733028165,-6.3033338362544775,-22.23050868222752,-1.1371391984517938,2.971560456439142
1698924224937.0,0.01666666753590107,0.016424877870525233,-1.787190290763974,1.4894880316495895,0.08020575104865711,-7.610867217907309,-6.4004492256164545,-13.782091457261483,-3.0892217773934245,0.8180744352549058
1698924224954.0,0.01666666753590107,-0.2341337865779176,-1.7665613442331551,1.521276085576415,-0.1785176612854004,-7.568070863232016,-6.385036552429199,-7.429475944205193,-4.493274950212385,0.48466990333898746
1698924224970.0,0.01666666753590107,-0.29015409049084406,-1.733370437771082,1.4797709397554397,-0.24495675735473632,-7.526472193908691,-6.432770948028564,-0.8442584456858256,-5.151817884322919,0.08881543105733522
1698924224988.0,0.01666666753590107,-0.3899377674803138,-1.661095475155115,1.507631591105461,-0.3580827857971191,-7.460780701336264,-6.400149950408935,5.000753309789277,-3.971980825491848,-1.7634872888575326
1698924225003.0,0.01666666753590107,-0.5139744815155863,-1.6526795289874077,1.6283195792347191,-0.48018707731495375,-7.464671279034018,-6.270414147949219,6.017892274382882,0.868691099564019,-4.207515630151507
1698924225023.0,0.01666666753590107,-0.40269831872358913,-1.9268027595937252,1.35740712736845,-0.36107555613862347,-7.745541645812988,-6.536320169830322,-0.17320009705574202,-3.4508973694185245,-7.074914847974308
1698924225037.0,0.01666666753590107,0.08623677027462981,-2.777121365568042,0.3810901518970728,0.1143231269891723,-8.584259245842695,-7.521234877777099,-5.014943881563625,-15.502876510149802,-5.504498970984758
1698924225054.0,0.01666666753590107,0.6185463243633509,-3.900818521261215,-0.14661621011197565,0.6096236325374368,-9.719111417278647,-8.040776638031005,1.9816688239920102,-22.070076076360383,-1.5189336462856955
1698924225070.0,0.01666666753590107,0.7977537945438176,-4.26547308666408,-0.3246218302220106,0.7383119460838381,-10.095749265941977,-8.20971749267578,5.079641567816101,-27.75309399413447,-1.349875685435596
1698924225087.0,0.01666666753590107,1.1048333922039717,-4.7958355161398645,-0.9049024290770292,0.9701006308403332,-10.634744499206542,-8.782679877471923,1.4077454236738811,-29.226929288712746,-4.609907687366346
1698924225104.0,0.01666666753590107,1.1262025626428425,-5.114679932004213,-1.1083902809679507,0.9472060683319344,-10.9618517165035,-8.979154635730385,8.905868290853993,-16.017334896171626,-0.7337782148701654
1698924225120.0,0.01666666753590107,0.9580075579293071,-4.853949851456284,-1.1647370220899582,0.7628525587662123,-10.742782849121093,-9.003993893432616,34.26426210348885,3.093070162103903,6.979059119388703
1698924225137.0,0.01666666753590107,0.5381824555769562,-3.6361154454290863,-2.1812264334738254,0.33429042506562545,-9.672125794219971,-9.907505744934081,72.75045537825935,1.0977650788773743,10.275253771323497
1698924225154.0,0.01666666753590107,0.1801119630058296,-1.6514017641365528,-3.352368646430969,-0.050577491804491725,-7.850886518859863,-10.947337453460692,89.643125120345,-15.879315556065885,7.0045323098982655
1698924225170.0,0.01666666753590107,-0.028482473042793572,-0.741131086024642,-3.784177762696147,-0.31693242649687453,-7.128136308178306,-11.220126805114745,101.26950044629739,-30.264288174570527,5.464698604917448
1698924225187.0,0.01666666753590107,-0.6190780931524932,0.6978747126221656,-3.227782481819391,-0.9874585106780752,-5.966349952587485,-10.41268287974894,115.73756914624441,-17.695225507298616,6.27663819627636
1698924225204.0,0.01666666753590107,-1.0318559073418379,1.7255968811601399,-1.6305530373752115,-1.4294879921844228,-5.151722837719321,-8.610147720336913,112.2407786685755,1.22930086191348,10.544259918010802
1698924225220.0,0.01666666753590107,-1.0303148884449154,2.0994828007668254,-1.3825000675708055,-1.4401122620513662,-4.962131409233808,-8.174851930999756,92.44923320876387,13.895365022004267,18.763771036906675
1698924225237.0,0.01666666753590107,-0.9197336491145193,2.5785084262371063,-1.3726841914772987,-1.3482347733428701,-4.659115846142172,-7.975983555603027,63.71674472916293,24.85497642740636,35.52284057127959
1698924225253.0,0.01666666753590107,-0.5424019729681313,3.1111200959444045,-1.8808786282867191,-1.0076595506530255,-4.217684330528974,-8.380304360961913,47.820261492618215,19.455517228119934,43.208401651809716
1698924225270.0,0.01666666753590107,-0.2919496869370341,3.4758442194521426,-2.339880871903896,-0.8198643944671377,-3.9172131912231443,-8.761281115612388,35.38296854236148,4.166595113060314,41.59156610167347
1698924225287.0,0.01666666753590107,0.40672910860963163,3.290394713076949,-2.4118080439954994,-0.22625191075429318,-4.158128564232587,-8.75918618915975,21.04223164401643,-10.175163325452482,34.201106759328326
1698924225303.0,0.01666666753590107,1.0870948333524166,2.3952900399148462,-2.5797405983805657,0.37065234451293944,-5.073911283764243,-8.89386061706543,10.30852789163886,-16.826393001474436,26.081719383475672
1698924225320.0,0.01666666753590107,1.2134526107463985,2.1760212660461664,-2.4847861864447593,0.4352959354676306,-5.297170588573813,-8.786869145855308,-1.8866547027781975,-8.933074641865447,13.067655377625442
1698924225337.0,0.01666666753590107,1.402270789837092,2.161203051620722,-2.664660523036122,0.6048352674622088,-5.288940520367026,-8.991573972320555,-11.104008434645333,9.448249343976475,7.251916638994249
1698924225353.0,0.01666666753590107,1.309314419850707,1.6936410694509743,-3.1035166352033614,0.5208884986877441,-5.749674702343344,-9.439588957977294,4.751093673926032,19.006476686421202,8.141076641562034
1698924225370.0,0.01666666753590107,0.868437177119404,1.903812929150462,-3.362597779500484,0.0957681394714862,-5.55454726704061,-9.682899701690673,13.038750870831594,12.005714640944785,2.9466439263469355
1698924225387.0,0.01666666753590107,0.08958601677045226,1.9245190325707195,-3.8727784216910597,-0.6739676942687481,-5.559335670360922,-10.16398459777832,6.898883370703331,-3.905851787721431,-4.5721085667258485
1698924225403.0,0.01666666753590107,-0.5879539830271154,1.779982551342249,-3.1771909432232377,-1.3435959710936993,-5.706878347668051,-9.465775538635253,-4.948305140926396,-1.0613898392354137,-7.7719373603214015
1698924225420.0,0.01666666753590107,-0.7644527787707746,1.6579074927687645,-2.9643454804003238,-1.500865092645213,-5.8167123488277195,-9.26975086223185,-10.49667228251603,4.357456638566681,-10.348633054897881
1698924225437.0,0.01666666753590107,-0.9252819308914244,1.5084896692395209,-2.742947877809405,-1.6000747508727013,-5.945400688061118,-9.079709936413169,-11.789456337670194,14.659986770340623,-19.37941355284036
1698924225453.0,0.01666666753590107,0.013716171467676758,1.1533265702813864,-2.764317413574457,-0.6019920068603009,-6.283581672558188,-9.126996588245033,-13.976620367465324,5.698974093448886,-20.878100490713727
1698924225470.0,0.01666666753590107,0.45609665836878116,1.3721084374159573,-2.9947283437043426,-0.12120642251279204,-6.0417673048824065,-9.387814347076416,-17.32322437679575,-9.224151691082003,-21.795068754713572
1698924225487.0,0.01666666753590107,0.9842973067007958,1.2132540924996138,-2.2296529029905794,0.4257190557617694,-6.159083186230063,-8.672247325897215,-25.38830150346305,-18.859204147537387,-19.957682981183027
1698924225503.0,0.01666666753590107,0.46480526734013106,0.30102468153536316,-1.1262281354755161,-0.08200133379511534,-7.018002447289228,-7.630320690917968,-42.10624134620144,-11.810267070297577,-20.31284428028723
1698924225520.0,0.01666666753590107,0.24722495801504699,0.23113106109797954,-1.0027660064578057,-0.2742856911590323,-7.00378745945394,-7.602338459014892,-58.652084327517606,-1.517696528272277,-17.627703964711163
1698924225537.0,0.01666666753590107,0.3953426587311551,-0.2561374920606613,-1.3441203602939844,-0.10070607079770415,-7.33583330219686,-8.111853915295004,-74.02005094118131,4.432277518942763,2.49615815930851
1698924225553.0,0.01666666753590107,0.7964676271907984,-0.1808522417128086,-2.0821271768182514,0.2920927121369168,-7.123796817669272,-8.98947846134603,-75.70089902421893,2.366802273834696,13.022296945121033
1698924225570.0,0.01666666753590107,0.8978598170891403,0.1596551399052143,-2.619727740854025,0.36691140441894526,-6.646752721405029,-9.65970587310791,-71.41578860311466,-8.123091045930098,8.970177936984248
1698924225587.0,0.01666666753590107,0.9849519712172448,1.0839198565781116,-3.094456545913219,0.415693299777247,-5.56098168400228,-10.284144178119302,-56.69778279086937,-17.694093403443688,-6.431181471531653
1698924225603.0,0.01666666753590107,1.0161210164628922,0.7342810739994049,-2.552944945913553,0.43364984876103696,-5.817161261638999,-9.826851076507568,-45.08790578685715,-10.748149602472145,-7.5103761198294094
1698924225621.0,0.01666666753590107,0.80932389389351,0.6416781936258077,-2.241161554476619,0.21966807538457214,-5.827186981090903,-9.588029460906982,-44.024909785949724,-7.3760015394195175,-4.606157059738362
1698924225637.0,0.01666666753590107,-0.032551147253811356,0.9312222807258367,-1.9949007287859915,-0.6265326104095206,-5.41388791950643,-9.44856721420288,-55.34641961829859,-11.907310398025118,-13.06411392454079
1698924225654.0,0.01666666753590107,-0.4052021547706797,1.2416647789478301,-1.9455898776501417,-1.0010754960875958,-4.988917124828696,-9.495104508972167,-63.8879434207093,-21.019295868783527,-23.747066810064226
1698924225671.0,0.01666666753590107,-0.4945855981737375,1.2418500723868608,-1.885459526336193,-1.0931026223998517,-4.860677698406577,-9.53864905166626,-69.45079099022618,-26.41803277556522,-37.058260266509286
1698924225687.0,0.01666666753590107,-0.851701584765315,1.189993043899536,-0.5933715510964394,-1.38654199990537,-4.741117253002524,-8.384793489074706,-63.46724474897153,-1.1547256549041072,-61.75982723006258
1698924225704.0,0.01666666753590107,-0.31482067677360026,0.6044488254278898,-0.2935597524821758,-0.7332241853576154,-5.217264692687988,-8.174104327502846,-50.08410378735685,10.399227681174752,-72.411930712426
1698924225721.0,0.01666666753590107,0.6111544240137562,-0.448036028444767,-0.8670815247267484,0.36586397772524504,-6.18018208836019,-8.820238916015624,-20.246318237771305,16.083790929248558,-58.78906377132221
1698924225738.0,0.01666666753590107,0.9129830058105289,-0.9175339471131563,-0.9592962825655936,0.7731775351593271,-6.630591860198974,-8.928726178741455,-1.8644679004764688,12.97172622450626,-39.674694001676905
1698924225756.0,0.01666666753590107,1.1600889040231703,-1.1593009685158728,-0.88199852335155,1.0860697098220697,-6.877642959484458,-8.848520423126221,4.586597105502738,4.636994510067323,-24.61675650462924
1698924225772.0,0.01666666753590107,1.1636923353426158,-1.0186153174966572,-0.19144611644148826,1.1143512991310562,-6.747458244213462,-8.150610639190674,1.438711473658309,-12.384874663471471,-10.649413241604087
1698924225787.0,0.01666666753590107,1.0923438399218022,-1.0094681344449519,0.2627116097539663,1.0163386458355235,-6.734889270019531,-7.698705075836181,-5.151946804143503,-21.87912106263975,-2.5584851295887567
1698924225804.0,0.01666666753590107,1.0710253036916255,-0.8723808001786469,1.570064374142885,0.9440636329872067,-6.581510726165771,-6.402394514465332,-9.984840104230077,-22.26371023178295,6.766667556957986
1698924225822.0,0.01666666753590107,0.9888251593887806,-1.1059762055635451,3.1497721904218197,0.7956231757232919,-6.781575617870688,-4.845265609741211,-12.941308830811254,-1.2313860973227437,24.814712462249137
1698924225837.0,0.01666666753590107,1.1432656333856284,-1.3169611352115869,3.5314252368986603,0.9127893829345702,-6.962487480816245,-4.483890796661377,-14.513141118279934,10.477138795263441,40.998852530783516
1698924225855.0,0.01666666753590107,1.4698296837165952,-1.1208248151272535,3.587735737663507,1.1956044905731453,-6.728454268535971,-4.452766175079345,-18.979205448612635,14.404262780268054,55.076230995111224
1698924225872.0,0.01666666753590107,1.6768376725576817,-0.6777431942194699,3.7265462424606084,1.3192051512787117,-6.214898012432456,-4.359391725811362,-25.78409218284507,11.535560276974248,70.12006073642823
1698924225887.0,0.01666666753590107,1.7926798280909657,-0.4909831897675991,3.8167806401371953,1.344045066568069,-5.964854161071777,-4.307617114910483,-25.104216860409295,6.785859534752076,82.80159783631002
1698924225905.0,0.01666666753590107,1.8554213848166166,-0.030637130326032637,4.2384699289262295,1.2988544371673836,-5.447556380352378,-3.9173628288269042,-16.75350634529394,8.453605607414307,88.82187683492101
1698924225920.0,0.01666666753590107,1.9012951011106372,0.4151666090220213,4.749297636848688,1.2216413970947264,-4.956894677624106,-3.4268507637023924,-0.6768560586575137,23.202357516208416,87.04755761309177
1698924225937.0,0.01666666753590107,1.919070411776006,0.7436164730995893,4.809712650322914,1.1831845329284667,-4.627243621063232,-3.3623569564819333,14.609682427103479,35.181846792061286,82.94193090299711
1698924225954.0,0.01666666753590107,1.639698466861248,0.7673515689522028,4.467071763807535,0.8713397666931152,-4.631133614239096,-3.6837785293579097,24.86110139954457,38.93038096706393,80.25574044583615
1698924225971.0,0.01666666753590107,1.0886128366999328,0.39332945574522016,3.7118203824937344,0.2624644300598651,-5.052364053344726,-4.401889389801025,21.372782063993778,23.577054863886143,81.84202455981493
1698924225987.0,0.01666666753590107,0.8125742739915848,0.3931044148176908,3.4632109478503463,-0.09561835573725402,-5.069871068462729,-4.630086735534667,11.966076491870261,9.288863464599642,81.68179515207561
1698924226004.0,0.01666666753590107,0.03580817628838122,0.7316840432435273,3.155271372359991,-0.9765349290709942,-4.728249003601074,-4.927715344890951,4.6655336017405755,0.8616619811344297,78.21958592217449
1698924226020.0,0.01666666753590107,-0.7881722386628389,1.003574984753132,2.9918080723434683,-1.9416974733214825,-4.436155816540122,-5.085882876586914,2.3984964860176707,2.2380103058542313,71.91821048827163
1698924226037.0,0.01666666753590107,-1.2555405979566274,1.0327122319102287,2.8800042324155566,-2.4938601581297815,-4.393060186657309,-5.194519776916503,5.210828584317714,10.87340161147184,67.84881793172389
1698924226052.0,0.01666666753590107,-2.0944572276897726,0.8584317698031664,2.4943407812535763,-3.396773459216207,-4.561552128490805,-5.574000155529379,10.968274646590608,18.52090829304124,67.58446912027688
1698924226071.0,0.01666666753590107,-2.438045770318806,0.8484627489745616,2.224403896421194,-3.7885247058592735,-4.580855963897704,-5.829730820354819,19.975451718308815,26.06606288235071,65.5018966310158
1698924226087.0,0.01666666753590107,-3.1165359835132955,1.0335404994279145,1.610311628857255,-4.491821589660645,-4.434360749816895,-6.413467697143554,24.813810877278694,34.44041609727807,47.66115906609194
1698924226104.0,0.01666666753590107,-3.579496901628375,1.1460270609229803,1.1779530620157719,-4.9337012874327595,-4.357147161754965,-6.825270382690429,21.62136338374181,38.17154695027551,30.07667653844862
1698924226120.0,0.01666666753590107,-3.476804004395008,0.7055249351143836,0.7070914537787437,-4.765807896014302,-4.840028293609619,-7.277624274334311,16.013796858181557,38.62548132251456,16.052221794904757
1698924226137.0,0.01666666753590107,-3.417370987695455,0.4034826009690761,0.4882680855900049,-4.644751366833598,-5.165340444183349,-7.489960618591308,10.323915454065252,40.04189180164596,12.227377331400147
1698924226154.0,0.01666666753590107,-3.149670483613014,-0.11694003377258777,0.0949006359219551,-4.286668434906006,-5.6961050247192375,-7.889493020629883,-0.42805998815702595,40.68905905569383,11.185190355572812
1698924226171.0,0.01666666753590107,-2.772907547265291,-0.6103723702579736,-0.5268015221238136,-3.8492775729857382,-6.175543907165527,-8.52934341430664,-8.79016659386127,35.48741579514932,17.826730554483458
1698924226187.0,0.01666666753590107,-2.49729846201539,-0.8071078252792357,-1.0178320581644773,-3.5468602680481967,-6.3416410628169775,-9.045144234466552,-14.945837017294826,17.622038322794637,24.41777260353926
1698924226204.0,0.01666666753590107,-1.8357950394570826,-0.5113409181416034,-1.9041765017658472,-2.9315501491270957,-5.978919511303305,-9.971101726531982,-26.889717101909838,-14.692701668917692,24.135581630432892
1698924226221.0,0.01666666753590107,-1.51533617413342,-0.08316577446460724,-1.6540782898694275,-2.689436506243795,-5.480626875305176,-9.757119953155517,-32.37888400575521,-28.656188436382728,19.051917934969296
1698924226237.0,0.01666666753590107,-1.2809462573699653,0.021536709025502202,-1.3189888416469095,-2.541295278521627,-5.303455367931723,-9.456946920013428,-29.78528359298295,-29.297061671110438,12.601805740379307
1698924226254.0,0.01666666753590107,-0.8521089965224266,0.2232330013245344,-0.5392360562831163,-2.189347780609131,-5.036801742553711,-8.707112887573242,-11.028726943387099,-11.57083735026372,4.388939968659032
1698924226270.0,0.01666666753590107,-0.40355961172804233,0.24674948599040508,0.01676934849321842,-1.7494130794249474,-5.010464939770102,-8.151508464813231,9.164586465103968,6.155480885684089,-0.4162812202116332
1698924226287.0,0.01666666753590107,-0.17618921833783388,0.36522622781097885,0.15274667569100855,-1.4878466941833495,-4.932354695129394,-7.994987531280517,27.53359903496694,21.84673230559555,-3.9501306234501543
1698924226304.0,0.01666666753590107,0.16011742365472018,0.45020168204605576,0.24908932711482046,-1.0646714776854962,-4.957194537353515,-7.83981333618164,47.81642292630467,33.12691266327667,-3.8635716360985826
1698924226320.0,0.01666666753590107,0.5162186071805656,0.4977922852605581,0.32363924892544743,-0.6263829362731427,-5.0185459548950195,-7.703493479156494,52.27067273692054,39.81970916304003,-4.331450266415034
1698924226337.0,0.01666666753590107,0.5360219896074384,0.5493786801129579,0.35537469588220116,-0.5132569078307598,-5.069572377777099,-7.613112366485595,43.25702235341645,41.55224470262171,-4.185989008321742
1698924226353.0,0.01666666753590107,0.7782075286831707,0.2841577178865671,-0.032492402803897855,-0.1683423042297363,-5.428402767071128,-7.947103498077392,24.50687583635666,30.408763750989223,4.936046658913516
1698924226370.0,0.01666666753590107,1.0767960691127925,-0.03559153786301612,-0.3779869251847267,0.16400288678593933,-5.78394229812622,-8.270619997406005,12.71779686663811,17.860835396556624,16.278026141318087
1698924226387.0,0.01666666753590107,1.1890430496983229,0.002173252385854721,-0.3442284479677677,0.27249007644653317,-5.755511153411865,-8.22961929397583,1.442668287621862,11.274330300657002,26.270584359310277
1698924226404.0,0.01666666753590107,1.1715597077168522,0.4037701857388019,0.19234803371727466,0.2255038688659668,-5.332934560394286,-7.704840217590331,-8.535368094421237,14.522454081213246,35.303198763044904
1698924226420.0,0.01666666753590107,1.1042067116729914,0.8068763546109199,0.5428811347872019,0.13856449414677918,-4.900182025799155,-7.373392925262451,-10.69010580113173,20.117154237924485,37.71094972850112
1698924226437.0,0.01666666753590107,1.12582466924116,0.9666092359274625,0.5775052889227866,0.1527799934387207,-4.710142269024253,-7.359626265716552,-9.131270509879938,25.144470580282768,35.25292174056444
1698924226454.0,0.01666666753590107,1.0878230014964938,1.0550047277390957,0.4879273093283176,0.12404964658208191,-4.592377474865317,-7.471255918121337,-4.360422648213759,26.102044318898336,28.516855992409052
1698924226470.0,0.01666666753590107,1.061809147056937,0.9974603012651204,0.34885318515896796,0.11372457885742186,-4.636819843181968,-7.621492656818032,-2.6382088051284383,25.378380653693608,22.78528738246722
1698924226487.0,0.01666666753590107,1.0030085099767894,0.8948217645674943,0.42632454737424846,0.0818517692565918,-4.7291462447017425,-7.554454425811767,-2.377284906663373,29.44722338001317,17.250102079088887
1698924226503.0,0.01666666753590107,0.8258516887158155,0.5758879168540239,0.8032605022013187,-0.02633621826171875,-5.041739198955893,-7.189637947845458,1.6047456884185027,41.18406335541217,12.020876807128566
1698924226520.0,0.01666666753590107,0.6851699101541191,0.2305190666794777,1.1022855343520641,-0.08424589785151183,-5.391742138671875,-6.895749694061279,5.109361855328943,52.66045114228566,7.80704367888162
1698924226537.0,0.01666666753590107,0.5863149105831981,0.09922902051508425,1.1951526186197996,-0.07556706296391785,-5.533598587036132,-6.805069306182861,5.75381667050268,58.635309382916056,5.7987426666552615
1698924226553.0,0.01666666753590107,0.49022985064964736,-0.11255027438104152,1.0688725095719098,-0.009876118380762636,-5.758204045757651,-6.934056336101889,3.578076985868043,63.000551583362906,0.16225905448009395
1698924226570.0,0.01666666753590107,0.44986554542686785,-0.2382821018964052,1.1060481017559767,0.08933357637934386,-5.891082237896323,-6.899340412029623,3.5192088660721725,66.90112235419545,-5.460268800353871
1698924226587.0,0.01666666753590107,0.35673838545083997,-0.26874036852419375,1.1772767701894045,0.15083464979091657,-5.93118511570394,-6.826766758728027,5.013366534752175,69.37024939953339,-9.856306189334193
1698924226603.0,0.01666666753590107,0.31668358456864953,-0.57977440289855,1.1839724684357642,0.3181295378871626,-6.259938931164145,-6.810156984710693,6.875605232238281,65.90974771692477,-6.22180714516679
1698924226620.0,0.01666666753590107,0.212621883200109,-1.16458446187675,1.3309867379546165,0.3498526353919413,-6.858340293121337,-6.6522893127441405,5.3720539190153955,61.793431760779036,3.4560430631844827
1698924226637.0,0.01666666753590107,0.006115852531790733,-1.283746847873926,1.5325123498618602,0.257825536479149,-6.983287692260742,-6.443844130706787,-0.9840412552578984,58.918065554176245,10.880535744059918
1698924226654.0,0.01666666753590107,-0.47429888920933005,-1.1954144844263792,2.031134656205773,-0.08379720423594117,-6.878690422710776,-5.951237139129638,-11.145012621553859,59.28632886365582,13.001166047376307
1698924226670.0,0.01666666753590107,-0.864575679385662,-1.308366909867525,2.240498706653714,-0.3685576007233932,-6.966078783306479,-5.754164414978027,-14.12195654771944,60.61970473304737,13.429617837595682
1698924226687.0,0.01666666753590107,-1.0293979927957058,-1.6156225947469471,2.1892051572680473,-0.43110611909497526,-7.244704001507163,-5.818657637676596,-15.41989141928144,57.43504024006971,18.028864880328108
1698924226703.0,0.01666666753590107,-1.186286152205616,-2.168436510005593,1.631736694201827,-0.49111068860478696,-7.751975478252768,-6.400149950408935,-22.595771831114167,41.985107941271266,24.936286414380778
1698924226720.0,0.01666666753590107,-1.4936574262887239,-2.3309657440423965,1.5296394247740506,-0.7592614937379956,-7.8631562178462735,-6.534224658855796,-30.628231389400074,31.931008011309967,25.894478285116232
1698924226737.0,0.01666666753590107,-1.7216138028733432,-2.4740163706272837,1.6793828269958495,-0.9590275486268103,-7.942614369964599,-6.425139430236816,-33.00812884342098,30.44825590477024,24.14221203656968
1698924226753.0,0.01666666753590107,-2.0257550089940426,-2.640667068508267,1.9843506931990385,-1.2099698101319372,-8.032994898113607,-6.165966516003012,-23.27678950268863,39.78110151875653,23.219576423106016
1698924226771.0,0.01666666753590107,-1.9540978860154747,-2.8663872104734183,1.751191925665736,-1.0815807461060583,-8.227822473686933,-6.413617334747314,-10.730479049315676,44.20972104451193,25.594301716377927
1698924226787.0,0.01666666753590107,-1.9514350965470075,-2.924880900496244,1.4522323599666356,-1.0223243280824272,-8.28019621952474,-6.710348703002929,-1.502282819027968,42.3058467945059,25.970245573579184
1698924226804.0,0.01666666753590107,-2.1462410448104143,-2.8937621241331097,1.037445105651021,-1.1504139707703143,-8.259396592602133,-7.110479655456542,1.399468408338589,35.542473950048795,20.094737557068505
1698924226820.0,0.01666666753590107,-2.292118711514771,-2.775087229391932,0.5917530099838971,-1.2503721823427825,-8.1468685300529,-7.546373995208739,-0.3124986035269786,31.172976541749026,15.521118237875614
1698924226837.0,0.01666666753590107,-2.247110964400321,-2.776438059478998,0.35691023488640783,-1.162833964947611,-8.149413538360594,-7.774870616149902,-2.2978182169912134,27.654599251208303,13.756864153562042
1698924226853.0,0.01666666753590107,-1.9370980897672474,-2.9030805720984936,-0.40116789428591726,-0.8143279857911169,-8.274509990581869,-8.52874544841349,-2.2000895224691437,17.866675208296986,16.367114006209857
1698924226870.0,0.01666666753590107,-1.5328522493407128,-2.791630367913842,-1.2120797880232332,-0.40851087745986875,-8.167070191082358,-9.336787924194335,1.1392963642907543,6.83783684744905,19.025577310435143
1698924226887.0,0.01666666753590107,-1.4014156343124806,-2.506574824404716,-1.4287141217350958,-0.2973299917358905,-7.895179249572753,-9.547477670288085,6.426758070270424,-0.6918914928156803,16.714540116079014
1698924226903.0,0.01666666753590107,-1.3113904954724014,-1.8628718469530343,-1.3831944795757531,-0.24016842709966002,-7.29079296798706,-9.480140748596192,18.659474048280583,-4.649115107636335,8.263588890930906
1698924226920.0,0.01666666753590107,-1.3305319799244404,-1.4720160878449677,-1.081664186605811,-0.2742860930178314,-6.950516472515464,-9.146448892211913,26.910689197756362,-2.358314910017309,1.7790410169798268
1698924226937.0,0.01666666753590107,-1.3833708590559661,-1.3811772945344447,-0.9440285708069801,-0.32725773168355227,-6.919841348266601,-8.967631955718993,29.635104808607295,0.9498113353455564,-2.6958030946441016
1698924226953.0,0.01666666753590107,-1.294531422869116,-1.3697896390795707,-1.0291524936020373,-0.23373430239893495,-6.987327323040366,-8.997111148181558,27.0928742485827,-5.198075767363654,-5.7937745578077235
1698924226970.0,0.01666666753590107,-1.2042227178473024,-1.3731307662010193,-1.277312430912256,-0.15158325793482363,-7.040149397167563,-9.211241390118003,21.43618158741713,-11.715943865406993,-8.008084320685423
1698924226987.0,0.01666666753590107,-1.2531439120784402,-1.3541852427124976,-1.1606073749393224,-0.2135331528261304,-7.05511257302165,-9.07192936553955,13.194453570698498,-13.125343155355369,-10.443038222058506
1698924227003.0,0.01666666753590107,-1.2152388365760445,-1.2872913886129855,-0.8059107244491577,-0.1815106325563043,-7.002889633831382,-8.707412162780761,-0.4986849179073247,-6.338427075716058,-11.739642060505998
1698924227020.0,0.01666666753590107,-0.9748558168776332,-1.273507777932286,-0.8898042286664247,0.06958119348734616,-6.972364147186279,-8.801983128356934,-13.3352485289282,1.3440023630796196,-9.873208346209035
1698924227037.0,0.01666666753590107,-0.511850548164174,-1.12448684476614,-1.5247522372543811,0.5578487676206976,-6.763619105419516,-9.476249586376547,-27.242390504608863,3.8038254101075424,-7.011931112316682
1698924227053.0,0.01666666753590107,-0.32548721487969157,-0.9128227006822824,-1.7573346662044524,0.7622538804870098,-6.486190988048911,-9.752630825042724,-33.697738892971316,3.370898992208162,-8.749987152295024
1698924227070.0,0.01666666753590107,-0.016073036792129278,-0.2230897934615612,-1.9822370620459318,1.0895111737791447,-5.723787396892905,-10.025270539093016,-32.83461130265139,-0.24926388509778077,-11.930925777080438
1698924227087.0,0.01666666753590107,0.08152889397777617,0.46989656259715556,-1.6069646565169096,1.2021881432797759,-4.943427293285727,-9.706990771374105,-25.194991782026058,-5.774264122443582,-13.613392614951337
1698924227104.0,0.01666666753590107,0.15086919138133525,0.7197206337273121,-1.3199661622464656,1.2657842710081486,-4.650437449645996,-9.449465039825439,-13.483370572590037,-14.7062066604541,-9.977045150839801
1698924227120.0,0.01666666753590107,0.10451266000643372,1.1719453460335731,-0.7983663004189729,1.1896188037596642,-4.178030950054526,-8.945186315155029,-6.378228722443837,-23.357469404712113,-10.56104937676434
1698924227137.0,0.01666666753590107,-0.17722849825769663,1.7995494215995071,-0.2860626747250557,0.8453026044432074,-3.545962296295166,-8.443900927081703,5.780478740814647,-35.45962375541654,-16.210472155332074
1698924227154.0,0.01666666753590107,-0.24799554052874445,1.9188620297223329,-0.10157762946784496,0.7196070172850042,-3.446452705273032,-8.253112397766113,16.44488083255233,-40.45504994454003,-23.50852245330153
1698924227170.0,0.01666666753590107,-0.49056452596411104,1.964696144658327,0.4191811053603887,0.4297590518675744,-3.439419737896323,-7.71217304469645,24.41312807490365,-38.438525384552975,-31.634697329641888
1698924227187.0,0.01666666753590107,-0.7755928892053663,1.8498329171597956,0.8489455640554427,0.10953457982167601,-3.619284137615561,-7.242759881702065,27.953382461355925,-33.37253992620867,-37.9963730886322
1698924227203.0,0.01666666753590107,-0.8245908749997616,1.7183020479768514,0.9123691116958856,0.050876712213084097,-3.8003456381648775,-7.146691955566406,26.734116854880487,-30.19387575441687,-41.73071071544497
1698924227220.0,0.01666666753590107,-0.8392655162360518,1.473069396290183,0.8884516450136899,0.0329200536314398,-4.087350562176108,-7.142202242931723,21.49649045024105,-32.36224566493706,-43.69514825282151
1698924227236.0,0.01666666753590107,-0.7938852825473993,1.3616262063682079,0.815251968768239,0.0625482991758734,-4.235042877086997,-7.191882511901855,13.887964512038558,-40.069666765905815,-44.95294807904686
1698924227253.0,0.01666666753590107,-0.684496175611019,1.327252227601409,0.9024217181771993,0.14933810935653746,-4.282328359875082,-7.098059734344482,8.325859725593912,-45.29543083950423,-45.83682578406529
1698924227268.0,0.01666666753590107,-0.4338721132095903,1.252974108469486,0.8946095831215382,0.3654149553161114,-4.361037739452719,-7.106289802551269,5.616494436579104,-51.1711454692373,-45.07301597446652
1698924227286.0,0.01666666753590107,-0.41952268533967435,1.1698077494829893,1.0696551843822002,0.31902722508534787,-4.448725959777832,-6.9339072830200195,6.2826013783086045,-54.11052079364688,-44.921809246620775
1698924227303.0,0.01666666753590107,-0.4617378060609102,1.1108055254161358,1.150583409053087,0.2314892999511212,-4.512471578979492,-6.853701527404785,5.918325618643845,-51.78112917344363,-45.24096349596796
1698924227319.0,0.01666666753590107,-0.552563009237498,0.9928419938147067,1.292833240649104,0.10310016286000609,-4.633527815899253,-6.712443629455566,4.41129475092566,-47.33374028784904,-45.080532597648116
1698924227336.0,0.01666666753590107,-0.5616042476966977,0.6416635805785655,1.2184504920989274,0.054617579241842025,-4.985774735149741,-6.789207720184326,3.621137486603565,-43.88053666236858,-42.397555744491655
1698924227353.0,0.01666666753590107,-0.561915249874629,0.4605740229785442,1.152957736968994,0.02169730641469359,-5.168781524547934,-6.855795869335532,4.093317428549832,-45.74036643751179,-40.59140784113016
1698924227369.0,0.01666666753590107,-0.6263204654961824,0.19864099638164043,0.9370306747436523,-0.10025719451904297,-5.43319117039144,-7.07396808013916,2.2084390018426614,-52.87897962968563,-40.587255086114794
1698924227386.0,0.01666666753590107,-0.6254904444128274,-0.3741401866286993,0.7741980738461017,-0.15427640600893647,-6.0025622526973486,-7.242609075054526,0.034061593101898234,-55.896311318187145,-40.05508772712242
1698924227403.0,0.01666666753590107,-0.5406793504266068,-0.6888257292479276,0.7307482236981392,-0.1292869992462918,-6.313060280498862,-7.292288759502768,1.1012195537718141,-55.91523094218808,-38.846581376137046
1698924227419.0,0.01666666753590107,-0.18277462461013347,-1.075174240064621,0.4132938008874655,0.15427625987846402,-6.707654057091474,-7.607426137542724,9.216453214113752,-48.83537103725468,-35.77994255201721
1698924227436.0,0.01666666753590107,-0.11630358076626435,-1.5350281320750712,-0.00013736264407634735,0.17283130447836592,-7.193079028210043,-8.004713975524902,18.103353215868975,-44.296095616755906,-31.40339638849399
1698924227453.0,0.01666666753590107,-0.16252185444794595,-1.6303139679223297,-0.16603928798437118,0.08349769156640395,-7.3359835243225096,-8.138190718078613,29.47769626899518,-38.82714607285377,-28.310678194575754
1698924227469.0,0.01666666753590107,-0.06644810135969892,-1.6381418850690126,-0.4423071294039488,0.1340751833708957,-7.442824188885092,-8.343941838726401,42.70226755883885,-34.58615184359863,-25.295769515682302
1698924227486.0,0.01666666753590107,0.11485942810624837,-1.5179349584549664,-0.7549602894127369,0.2784755440643057,-7.416787245830893,-8.587402804565428,49.30854605238566,-34.953417945459385,-20.11682980393891
1698924227503.0,0.01666666753590107,0.16903934658318756,-1.4446908585458993,-0.8671218567371368,0.2879027679000981,-7.447014041790366,-8.621370540618896,52.80197607698291,-34.37095307341904,-12.656425909398253
1698924227519.0,0.01666666753590107,0.09789550688900053,-1.4776561395585537,-0.8277712586015462,0.13886370998879427,-7.622688588604331,-8.470236560821533,53.000389657277196,-34.07460141061594,-1.0466125115226794
1698924227536.0,0.01666666753590107,-0.02443235740177333,-1.3245073128074407,-0.6007125615090131,-0.05476733785989927,-7.572859266552329,-8.15899034500122,50.66354971578405,-32.43494278336809,7.437661925925454
1698924227553.0,0.01666666753590107,0.03818871474936604,-1.1754209131896496,-0.6014473055243492,-0.07541735229492187,-7.519289588928222,-8.078934226989746,45.95491292462564,-34.82209731338213,13.694706870793986
1698924227569.0,0.01666666753590107,0.10018716149013489,-0.834455850932002,-0.6338865168362856,-0.14694414515839888,-7.279569563183188,-8.021024474334716,31.914113538397938,-38.461205027692,20.22607697216597
1698924227586.0,0.01666666753590107,-0.024166180746257305,-0.6664215897381305,-0.4554331529587507,-0.3842692933898419,-7.16300186985433,-7.792677490997314,23.74858481960726,-40.095085314902015,22.902742730529344
1698924227603.0,0.01666666753590107,-0.04787774959281087,-0.5934089604973792,-0.38019700244963167,-0.5231330627441406,-7.129183771404624,-7.6759601600646965,19.97323873701773,-39.65763901931938,21.339063127608718
1698924227620.0,0.01666666753590107,-0.10902538819052278,-0.32165771971940993,-0.08573299460411071,-0.7196072364807129,-6.897544760784506,-7.33523533630371,13.476665034372376,-32.86907302210869,15.521912247366627
1698924227636.0,0.01666666753590107,-0.20408713295832276,-0.16151041238307953,0.21020693101286886,-0.8924386688232422,-6.7549401244014495,-7.01635818721354,6.8159981713515805,-25.22349245388523,9.741999558479444
1698924227653.0,0.01666666753590107,-0.22153628040924667,-0.16612345913648605,0.35388241149783134,-0.958877764892578,-6.765864253997802,-6.862081233215331,1.3500748281385841,-12.463874338959132,5.686414656225701
1698924227669.0,0.01666666753590107,-0.10336597418934106,0.08861527204215526,0.29098317999243734,-0.8637081758361309,-6.507589165386557,-6.9258274369388815,-3.0028890400581094,0.6976346680514561,1.7061558549032092
1698924227686.0,0.01666666753590107,0.41578744433410464,0.8810334777116775,-0.18380057012438772,-0.3354874345641583,-5.707177622875571,-7.408857621875405,-6.747227984806484,6.395907386449946,-4.429479275817173
1698924227703.0,0.01666666753590107,0.6574582388207316,1.174528348264098,-0.437638553071022,-0.06793539904169738,-5.397727642822265,-7.67985073776245,-11.568578265195736,6.782900782180991,-10.381337708191195
1698924227720.0,0.01666666753590107,1.1674989610839634,1.6509978595107793,-0.9734680157810449,0.4849755468506366,-4.892550508007407,-8.245779570659995,-13.481409454524597,3.010781963974294,-15.21101911182057
1698924227736.0,0.01666666753590107,1.6805564008198677,1.7459014180421828,-1.2787830879867077,1.0280103378295897,-4.776581365093588,-8.572738319396972,-11.166536255175862,2.6397741991088406,-13.673709161738074
1698924227753.0,0.01666666753590107,1.8767216547377406,1.7092571562558412,-1.2464257097393274,1.2503718900818377,-4.797979542431235,-8.556277598461508,-7.052686851094148,4.893207712439196,-8.689957473453427
1698924227769.0,0.01666666753590107,2.063681711806357,1.6360253313064574,-1.1341291178584099,1.4621089898040518,-4.8606782829284665,-8.455422438049316,-2.7310648000079385,7.888633703612008,1.0526769724537104
1698924227786.0,0.01666666753590107,1.946953713349253,1.5140981567710636,-0.837221808513999,1.3576620519775897,-4.975599378094077,-8.16572403717041,-3.551362195033419,10.314445396781029,5.3463630162260385
1698924227803.0,0.01666666753590107,1.8117384565651415,1.5637848554819822,-0.64956280939579,1.235856896386668,-4.913050859722495,-7.990498987689614,-7.476831353268184,12.374631941037391,6.466446165103252
1698924227819.0,0.01666666753590107,1.5902192734211682,1.451810335162282,-0.4717541731625795,1.036090695367381,-4.9916106016963715,-7.843703913879394,-14.23655431538756,12.066922527418207,7.582730875028293
1698924227836.0,0.01666666753590107,1.3324500885054469,1.1156582261443138,-0.3637468029081821,0.8008605283875018,-5.288042694744467,-7.771878448596596,-16.401445952072923,12.928805315761899,10.206845157917588
1698924227853.0,0.01666666753590107,1.1801406351879238,0.9118284289479255,-0.24235972659885882,0.6564601676940918,-5.4599763014644385,-7.678503999328613,-14.649685137524951,15.404381767223633,13.029577926776266
1698924227869.0,0.01666666753590107,0.8678061857394873,0.8355348783403634,0.09515899459719657,0.35957923489995297,-5.501275695580244,-7.371895964702963,-10.610301017095656,19.778802034367686,13.424052087195768
1698924227886.0,0.01666666753590107,0.5886820415733381,0.8459609952867031,0.6146604228407144,0.10130465774536132,-5.47149839695394,-6.870161663818359,-7.571604496870343,24.97499992659641,14.263224496549167
1698924227903.0,0.01666666753590107,0.42603656074572355,0.7308604519009589,0.8279887007445097,-0.0330699469635263,-5.571905813598632,-6.670994013214111,-6.335983575540485,28.305309665888124,15.177576798096897
1698924227920.0,0.01666666753590107,0.2506995387904346,0.6167687932968139,0.9922481195747852,-0.17328038168642668,-5.660640328106283,-6.530035974994301,-12.525644008491787,23.660748586880896,16.162780359452462
1698924227937.0,0.01666666753590107,0.12669771340545266,0.4947036715954542,1.0538169792592524,-0.28176760787963867,-5.749973977550864,-6.496516567230224,-18.838447202649718,20.605135395628754,17.469168443885998
1698924227953.0,0.01666666753590107,0.019652612311951815,0.4473077141702175,1.1077022987037897,-0.37768534842226653,-5.756408394512534,-6.476914041137695,-20.099370132873066,20.231788717859395,17.808181468244996
1698924227970.0,0.01666666753590107,-0.06888557590600103,0.4525543826520443,1.0342162067323923,-0.4495113616943359,-5.703436682781577,-6.590039485058188,-13.246517541420566,19.52486926140495,15.791059266705565
1698924227987.0,0.01666666753590107,-0.13877547001633792,0.6597931115090847,1.0028449169129132,-0.5047276009490713,-5.475837887462974,-6.638522068676352,-6.168835613058756,17.095533190624206,11.202679908716275
1698924228003.0,0.01666666753590107,-0.2124719533354044,0.7547469389230013,1.0704589019805193,-0.5597942756652832,-5.374533229717612,-6.5768719604492185,0.2899947043569469,14.513706316433753,4.521285555998607
1698924228020.0,0.01666666753590107,-0.3205437305955216,0.8766063089191913,1.4041770618498324,-0.629525399017334,-5.2614072012752295,-6.2377925658077,6.029885232791779,14.446637273878812,-4.8739269421858955
1698924228037.0,0.01666666753590107,-0.3160745127595961,0.7461585587978362,1.737972963130474,-0.583436980526708,-5.409847704204917,-5.891082237896323,11.440614671095547,16.875846986159914,-7.483559943374293
1698924228054.0,0.01666666753590107,-0.3092377986073494,0.529003416082263,1.8115017251998184,-0.5277719197922386,-5.654354964226484,-5.7969601851314305,15.14272063521503,19.847424944958806,-7.357939957933065
1698924228070.0,0.01666666753590107,-0.2637142109252512,0.2937655041873455,1.8549585896104572,-0.41449622634663247,-5.931634028515219,-5.7207952293396,15.837977543661674,19.778501506044208,-6.09787763154514
1698924228087.0,0.01666666753590107,-0.2129433702394366,0.22392916689515113,1.725104129207134,-0.3188777884109877,-6.0326394110530615,-5.825691189575195,15.60520469674764,15.305630892203588,-6.339866538083638
1698924228104.0,0.01666666753590107,-0.18631116470582781,0.14548457573354243,1.6456155819505451,-0.2555811094200704,-6.142922325024008,-5.879111814117431,16.615891693896522,12.035770888387425,-5.640411624618373
1698924228120.0,0.01666666753590107,-0.16929602475799618,-0.29244273115098474,1.361468969979882,-0.20365683808254542,-6.62685033558309,-6.124816759490966,18.070513666339554,5.33468381963214,-5.203584741816091
1698924228137.0,0.01666666753590107,-0.2167339946940541,-0.7642138554483652,1.087041203469038,-0.23597854451163439,-7.132476383209228,-6.370521704864502,15.71892563888106,2.3922500645782825,-4.57675352224828
1698924228153.0,0.01666666753590107,-0.2716732801709324,-1.1223358042120932,0.9782523274481296,-0.2810194689515454,-7.5152487891048185,-6.458209340667724,9.046849371738581,1.9902283316825056,-2.245886154297491
1698924228170.0,0.01666666753590107,-0.2569558957714587,-1.758993539327383,0.5977578033566474,-0.26036945251864524,-8.16542476196289,-6.827066618457436,2.6933903303197946,1.876284554627414,2.1021742784053683
1698924228187.0,0.01666666753590107,-0.11599135474562644,-2.1211165404260157,0.12677169195711613,-0.12389996102926087,-8.532485219463705,-7.293785720062256,2.832336868605364,-1.1491821026189957,4.301545563794603
1698924228204.0,0.01666666753590107,-0.017873291147127747,-2.128281609749794,-0.09918167424201965,-0.03995332696882542,-8.547748839569092,-7.512705534362793,5.742713344233177,-4.896878512231254,5.648322264337717
1698924228220.0,0.01666666753590107,0.21574432606957852,-2.0867548366189004,-0.36000703185796734,0.15861579605326986,-8.526350077709555,-7.755866640472411,9.815138931659233,-9.506751621764927,8.606158736300188
1698924228237.0,0.01666666753590107,0.40242425102256235,-1.9464052856862544,-0.4274684567123651,0.3087023308906238,-8.409183833965658,-7.802703210449218,12.801908938719524,-9.612312195387474,11.509555185483071
1698924228253.0,0.01666666753590107,0.39619346687421203,-1.8762205733478068,-0.4222884237259626,0.265157788196532,-8.365638706749678,-7.773523877716064,13.302759026593742,-6.568376066295115,13.727023057078256
1698924228270.0,0.01666666753590107,0.2485570468690246,-1.7403595660060642,-0.5106523513555526,0.06808507317807524,-8.263437392425537,-7.830984717559814,11.74565006565467,-8.113868583003287,15.208239224828377
1698924228287.0,0.01666666753590107,0.019900285196397454,-1.709708407154679,-0.8652367736428975,-0.20964228286743164,-8.251615437206626,-8.167369466289877,8.359495845935285,-15.336479441589951,15.987888243112407
1698924228304.0,0.01666666753590107,-0.4937297850620001,-1.7234867571383714,-0.8481120358407497,-0.8007108542511239,-8.28064571685791,-8.13370158996582,5.331884722732904,-16.0355851616339,11.96316597751019
1698924228320.0,0.01666666753590107,-0.6203825268145651,-1.583210855963826,-0.7184416998326778,-0.9590274390289559,-8.148515128216147,-7.9952868064880365,3.045946979472693,1.5741094085049394,5.411558025627456
1698924228337.0,0.01666666753590107,-0.8610608031325042,-1.5252017345875502,-0.6183493404865265,-1.1740567121643573,-8.08881030883789,-7.897872726440429,-5.024487363381426,31.96294939096353,2.365750851589337
1698924228353.0,0.01666666753590107,-0.473310097367689,-1.3775135113298893,-1.7508330292254686,-0.6754641799042,-7.919868869671225,-9.05337371815145,-9.121739834666831,56.3388563499852,6.019861503297962
1698924228370.0,0.01666666753590107,0.05805332584418356,-1.002759576717019,-2.748276963877678,-0.06359602726367301,-7.534851315197348,-10.0617821144104,-0.15173782841456365,37.25311873334058,10.016846370680758
1698924228387.0,0.01666666753590107,1.0148547959193586,0.16381401315033434,-3.969952263242006,0.9090483971748035,-6.379798651775717,-11.273398376575111,12.081890033210644,-2.8794325170364825,9.322495316072786
1698924228404.0,0.01666666753590107,0.8398641397163271,1.234695524457097,-2.6258377481669184,0.6693289833511226,-5.351638676342368,-9.88954864796102,19.699836509825875,-34.161184303629604,-2.789552563644404
1698924228420.0,0.01666666753590107,0.44432519122809166,1.4062889394372702,-1.3819821811765431,0.22430669497065245,-5.217413161247968,-8.610296773418783,18.769535716566168,-27.83022219778955,-11.018131612437116
1698924228437.0,0.01666666753590107,-0.24667174457907676,1.3854846363395452,0.3559913664758205,-0.4773440473251976,-5.27367748478353,-6.839335732921958,17.996182425149595,-7.335998828998045,-15.530267276268845
1698924228453.0,0.01666666753590107,-0.4320219552982598,1.3602461501866578,0.6601309651613235,-0.6278794401749037,-5.335178539928793,-6.502502071380615,20.015329777777936,11.531558639894268,-18.576389919669253
1698924228470.0,0.01666666753590107,-0.2869477139312774,1.5950030005663633,0.18284312326908111,-0.3941454757026862,-5.1592047179073095,-6.926275765228271,25.742977859136182,19.065245341587286,-21.109047969572078
1698924228487.0,0.01666666753590107,0.13165968319438398,1.7132248908430336,-0.610481675851345,0.09382273417488904,-5.087827580913901,-7.675511247253418,22.886165861413723,14.392578034145453,-21.350915213365983
1698924228504.0,0.01666666753590107,0.26366452656462785,1.6587053651481867,-0.9293377821534872,0.296432029116014,-5.182997096905112,-7.95503429107666,8.627534667081388,5.388131330547959,-17.406547562028027
1698924228520.0,0.01666666753590107,0.2934786500699818,1.6179630203932522,-0.9602350247204303,0.3579330568618141,-5.227888378033041,-7.981669784545898,-3.599799121862799,1.4030290713302815,-11.50113953865197
1698924228537.0,0.01666666753590107,0.3378697996560484,1.6120003125965594,-0.9178256235361099,0.4176384881614241,-5.220556135448813,-7.952041539001464,-9.993826071856876,-1.1752183568482613,-5.961117607567621
1698924228553.0,0.01666666753590107,0.3824858440391719,1.7485206606298684,-0.8064449774563313,0.4628290627631824,-5.059396436199545,-7.864503540802001,-8.972078437120805,-5.661876774745608,-1.7736388709548756
1698924228570.0,0.01666666753590107,0.40154461864382024,1.8804881676644085,-0.6446463957816362,0.47210658506313335,-4.913350134930014,-7.716361728557944,-6.260724709283877,-7.454246479003891,-1.6427396828937564
1698924228587.0,0.01666666753590107,0.35250746988281606,2.0157418567627667,-0.3816647369146347,0.40880988323932976,-4.768800209698081,-7.462427299499511,-1.642885891630677,-6.719661768203135,-1.5505841025693
1698924228603.0,0.01666666753590107,0.20516104580014943,1.8578975656718015,-0.2174818904519081,0.2515407616878161,-4.926218968853354,-7.298724345508218,0.7839481954797304,-6.229473178736483,-0.8456433732617515
1698924228621.0,0.01666666753590107,0.14838205074071883,1.7431489044636488,-0.14386252748966216,0.18375485868598335,-5.04353485020101,-7.222707858276367,1.95347551064549,-6.010485361114827,0.5196330013700481
1698924228637.0,0.01666666753590107,0.129243050506711,1.5282465091109274,0.09459200836420059,0.1457469461469096,-5.261856114086508,-6.9810431282043455,2.29295725673628,-6.550580862186293,3.7549938264101823
1698924228653.0,0.01666666753590107,-0.04636493387706578,1.1590262432277203,0.42858313995599745,-0.05132572092248592,-5.6290667937129735,-6.648997285461426,-0.28123101136286516,-8.593808900507158,7.22177586796063
1698924228670.0,0.01666666753590107,-0.10353015177510679,1.060599186745286,0.5759931307941675,-0.1435025031048106,-5.720645591735839,-6.508038662719726,-5.406803787078305,-12.54210647193881,11.02542198560246
1698924228687.0,0.01666666753590107,-0.25932627816461024,0.9622422728896141,0.6183201143920422,-0.36915599587480535,-5.794565983471274,-6.488286499023437,-11.586485313652219,-21.24695461155651,14.009803987774184
1698924228703.0,0.01666666753590107,-0.409696580113098,1.0131564675688742,0.6694423988640308,-0.5879261999710462,-5.718401027679443,-6.459706301227212,-12.669935169802892,-26.255255707265476,13.099785441254827
1698924228720.0,0.01666666753590107,-0.46504809965267774,1.03636490919888,0.8233943586915731,-0.7133224753891118,-5.672012201470136,-6.325480786132812,-10.528670011230249,-27.542780516758732,8.780730687522897
1698924228737.0,0.01666666753590107,-0.7893968120217323,0.9949906962811946,1.187592997020483,-1.1128548226287587,-5.691166983795165,-5.979070317950844,-7.306107359869131,-22.28417347853631,1.0592687453330074
1698924228753.0,0.01666666753590107,-1.011157694967091,0.7711796028077602,1.3965841225028037,-1.366939510345459,-5.902305058178305,-5.780350995635986,-6.374455896701051,-14.40734490313102,-2.8791102174850227
1698924228770.0,0.01666666753590107,-1.039227897414565,0.5899076743781566,1.2866437383592129,-1.4094366628784685,-6.072592651256919,-5.8997612189143895,-5.653915762381135,-8.640215767049163,-4.547078057851867
1698924228787.0,0.01666666753590107,-0.9429051197350025,0.37688159429132934,0.7141261747211217,-1.3199533027648924,-6.276997617992758,-6.479906208691,-1.2209483943322006,-7.8338086289179625,-7.100658257842909
1698924228803.0,0.01666666753590107,-0.8748829191926866,0.2250456037044525,0.07649521065950393,-1.2542624312469735,-6.432770363506674,-7.113772267261147,4.529967153320516,-10.747657828851905,-10.348370092614836
1698924228820.0,0.01666666753590107,-0.832023947609961,0.12956746015548706,-0.08941372894346714,-1.2138602051666005,-6.542903055351972,-7.265953125762939,9.683476790123482,-12.034352770361002,-11.238516203744041
1698924228837.0,0.01666666753590107,-0.7597553416695445,-0.36876024715602396,-0.15487901154458522,-1.1462240082671866,-7.070375608605146,-7.303961077117919,11.720562780833214,-9.81195094086413,-7.984217078404459
1698924228853.0,0.01666666753590107,-0.813600913625583,-0.828525291839242,-0.11170797833800315,-1.2044331091949716,-7.551611311340332,-7.240365095520019,10.31640395352553,-5.392864224755955,-3.1200436463533414
1698924228870.0,0.01666666753590107,-0.9080458416692913,-0.9920242476910353,-0.2019710175871849,-1.3063362808227539,-7.734168603405356,-7.312191145324706,10.494486621981627,-4.480038470487723,1.5610752731344395
1698924228887.0,0.01666666753590107,-0.7822356151554734,-0.7679618098050356,-0.6763672296911478,-1.2047323113372548,-7.539639133995771,-7.7570631567806,15.130916360781955,-12.060843659056896,3.548584655918751
1698924228904.0,0.01666666753590107,-0.5553264460688456,-0.461760602414608,-0.9858154561787843,-1.016937118618749,-7.266700729259848,-8.032097657012939,20.92312168262787,-22.311362754074835,4.458786763772052
1698924228919.0,0.01666666753590107,-0.6080845515817404,-0.45950902409553523,-0.7993395293653011,-1.1281178216796368,-7.303810270470381,-7.803301176342368,21.793480735731546,-29.676434283275043,7.467218715785037
1698924228937.0,0.01666666753590107,-0.910169921151176,-0.6723971570163965,0.013894669839739799,-1.5267523250304162,-7.558045143780112,-6.9415388008117676,11.652039761758708,-27.36140313580175,12.250756215155453
1698924228953.0,0.01666666753590107,-1.2076274117242545,-0.6863678147017955,0.5369692803949118,-1.8900725730895995,-7.57869571762085,-6.405686541748047,-2.3159425508406652,-20.81132685384039,11.35380638183927
1698924228970.0,0.01666666753590107,-1.2322101373821497,-0.6593155571252107,0.47992228204905985,-1.963694201074168,-7.53395348957479,-6.475267442974448,-14.08208787976043,-13.541883095662243,8.728367896024642
1698924228986.0,0.01666666753590107,-0.9928544879700988,-0.6131213767051696,-0.4648562303423881,-1.7709610404968261,-7.4489593306392425,-7.453149768066406,-14.540822167438703,-13.028993091828584,3.242404137456593
1698924229003.0,0.01666666753590107,-0.4457476983118802,-0.522871196937561,-1.9219944825291633,-1.2530652208190411,-7.3371806251525875,-8.927977990722656,-8.34026203323253,-21.209887174930852,-4.475506639973419
1698924229019.0,0.01666666753590107,-0.1738630404125899,-0.42256490257978435,-2.48609083930254,-1.0148422286987304,-7.231686114501953,-9.49315922012329,0.3977834671136519,-34.00368697155828,-13.959115446396227
1698924229036.0,0.01666666753590107,0.2200376393493265,-0.2264233217984438,-2.502049455934763,-0.6771100839477032,-7.058554237908124,-9.479691251263022,13.01597048240231,-44.027491597455985,-21.51382888544913
1698924229053.0,0.01666666753590107,0.3566415740128606,-0.3136421710461378,-1.0621797339349985,-0.5746082523070275,-7.178115267834067,-8.003516290172934,14.424461357191074,-34.85444508929131,-22.944832063742254
1698924229069.0,0.01666666753590107,0.3573264875371009,-0.41291970687806606,-0.26783319055140015,-0.5774514398436993,-7.300369190105795,-7.185897007751464,3.9043013347798383,-11.92444734265268,-20.33593544232375
1698924229087.0,0.01666666753590107,0.38725481200665235,-0.6737637691944837,0.3374748820543289,-0.5026325648985803,-7.549216525158285,-6.598419190868735,-20.100174387647833,14.548285856654234,-12.696880266078592
1698924229103.0,0.01666666753590107,0.7183215805843473,-0.5440940177083015,-0.33727263748049735,-0.11911153259277343,-7.3653119101375335,-7.332990772247314,-41.4069973148268,22.929252402245456,-5.794017883296905
1698924229120.0,0.01666666753590107,0.9888240634102373,-0.3887397898674011,-1.0263421123564243,0.19213468322753904,-7.120953703197836,-8.112453050231933,-54.06770575283465,14.269016496965339,1.2870911992026637
1698924229137.0,0.01666666753590107,1.5972523869283497,0.4853250178754329,-2.910200048714876,0.7884406072754413,-6.113443717083334,-10.11939259185791,-48.03650528174082,-17.041750573552232,4.7591430518628925
1698924229153.0,0.01666666753590107,1.6846271573901175,1.3671674738824366,-3.528959139046073,0.8228571830749511,-5.158008201599121,-10.798747312927246,-28.43848810941962,-32.486719032371376,-0.6267789259319786
1698924229170.0,0.01666666753590107,1.5536615208745002,1.698019138404727,-3.136261551463604,0.6353611924987286,-4.796782441601157,-10.426299317169189,-4.620316468774622,-32.17468867032851,-8.97674174877663
1698924229186.0,0.01666666753590107,1.0445553029824048,2.070150323298573,-1.428327752766013,0.10773922083750366,-4.4566561682552095,-8.687360723876953,25.267470334403647,-5.108299334026182,-19.32378849223978
1698924229203.0,0.01666666753590107,0.6997349535360932,2.042265706551075,-0.21240707140564918,-0.188842582879588,-4.553621335491537,-7.414843126025795,40.68577373470306,13.85559795310916,-26.025752813416585
1698924229220.0,0.01666666753590107,0.6317675519209355,2.1386703172951935,-0.031744799306988716,-0.17118541870117188,-4.547186918529868,-7.160907527923584,47.09236823276996,22.494299125709873,-31.508618867752624
1698924229237.0,0.01666666753590107,0.5252532697685063,2.051732038554549,-0.015085340929031372,-0.14859014053344727,-4.757128476604819,-7.040449256896972,44.543577276047564,16.67767075493929,-32.634937552455234
1698924229253.0,0.01666666753590107,0.37634277470689265,1.895192984843254,-0.17816051841080188,-0.22131401596069333,-4.993705528149008,-7.132026885876059,36.49528192417099,4.855254912542374,-30.696222507492966
1698924229270.0,0.01666666753590107,0.11134776672348379,1.7899159163355827,-0.08807517381608486,-0.43364981222841886,-5.15830747680664,-6.987028632354736,23.595525402949153,-6.016424210598153,-29.353017995885768
1698924229286.0,0.01666666753590107,-0.20698132002986966,1.7459008335202932,0.1809784984409809,-0.7077858657836914,-5.2434506888240575,-6.6796729942321775,7.740745593929246,-14.983633576614384,-29.447971285727284
1698924229303.0,0.01666666753590107,-0.404853925854899,1.7233301052719354,0.34031156678497787,-0.8764273356230929,-5.279812042015791,-6.508337353405356,3.9040144668346977,-12.533058178835836,-31.67361574753262
1698924229320.0,0.01666666753590107,-0.5526834938120097,1.7755109588861464,0.4067605997264385,-0.9772831901550293,-5.238662285503745,-6.433668189129233,4.792097860834558,-4.700920384943588,-36.582090213427264
1698924229336.0,0.01666666753590107,-0.6487424329236149,1.8540701163381337,0.012508768439292908,-0.9820716300079598,-5.183894922527671,-6.808511555591225,10.805304625446812,-6.8731053830020565,-46.31671829024497
1698924229353.0,0.01666666753590107,-0.4858546677727252,1.8793261381477115,-1.0188929653942584,-0.7498340507064946,-5.184792748150229,-7.815870735058188,13.382338414387208,-20.51610558734493,-54.45823206391388
1698924229369.0,0.01666666753590107,-0.5513228729832917,1.8075865975826977,-1.2063351068913937,-0.7577648437057621,-5.2822074127197265,-7.978527394866943,10.822152140808294,-34.38199407421236,-60.76539949823291
1698924229386.0,0.01666666753590107,-0.7997635999962687,1.5412375081092118,-0.9543810379952192,-0.9442132979904301,-5.569361389812827,-7.706336593627929,3.5117048360518557,-44.81545637105451,-66.12919486476811
1698924229403.0,0.01666666753590107,-1.0014775010172277,1.319144908991456,-0.45311260105669493,-1.0990881813491693,-5.79681054752767,-7.200262217712402,0.4893812397624153,-43.52324946688521,-69.19044466963281
1698924229419.0,0.01666666753590107,-1.1051199540603904,1.2263695946604012,-0.28408699073791505,-1.1445780539913335,-5.890633325085044,-7.030722812652588,-0.01951534456260737,-39.58514339146886,-71.51143857225152
1698924229437.0,0.01666666753590107,-1.0550503204464912,1.046997362372279,-0.5776198552131653,-1.0118494446574942,-6.073191786193847,-7.320870126342773,2.7891547051252505,-45.632811448651594,-73.72449499541652
1698924229454.0,0.01666666753590107,-0.9693751935094594,1.055151442733407,-1.1447633245974778,-0.8764274360877927,-6.068402798351645,-7.883955844768881,2.013811267339267,-58.11853727031289,-77.85518849976513
1698924229470.0,0.01666666753590107,-0.9947441741742193,1.0840648180067538,-1.3213906420916317,-0.8656535742828622,-6.037278761291503,-8.062324452972412,-2.098233259254271,-70.2294667065535,-82.26385704295492
1698924229487.0,0.01666666753590107,-0.9959452205270528,0.9936562328070402,-1.1206114646375178,-0.8349778655121103,-6.113443717083334,-7.875876583209633,-5.335043258337212,-75.64450215224213,-83.58787555318355
1698924229504.0,0.01666666753590107,-1.045370199561864,0.937275589415431,-0.5628875655055046,-0.8572738136733882,-6.157736447796225,-7.330147657775878,-3.4989377183892207,-68.66661014142785,-84.67933295236243
1698924229521.0,0.01666666753590107,-1.139207151775062,1.0741308684915303,-0.37672377338111396,-0.9051579016754403,-6.0137850729793305,-7.149983982849121,1.3904856423629646,-62.21818073469462,-89.2818149434405
1698924229537.0,0.01666666753590107,-1.0312405519224703,1.385874512439966,-0.5945686519265174,-0.7161655715942382,-5.703735957989096,-7.362769239917397,6.649522555616274,-65.38460862258835,-95.5427488272677
1698924229554.0,0.01666666753590107,-0.8125130453236401,1.5078747522115707,-1.0385668031573294,-0.4417302062988281,-5.584774647521972,-7.800757921600342,5.865392079463069,-76.5788652005107,-99.79486260449163
1698924229571.0,0.01666666753590107,-0.9492577766973525,1.4416355626285076,-1.0649000988095998,-0.521636723239161,-5.645526930126548,-7.829487757000327,2.1228426442772386,-90.4418474418863,-105.98511769078755
1698924229587.0,0.01666666753590107,-1.0407667974196373,1.39657243206501,-0.9273311185061931,-0.5790974900176749,-5.680393076324463,-7.700351673999428,0.5870655380548798,-96.27895442733588,-110.66267029103324
1698924229604.0,0.01666666753590107,-1.1009948369543998,1.4977958412677048,-0.6184317580729722,-0.6010942177703604,-5.565620449718833,-7.4028715332031245,0.230421874457375,-97.14078769680808,-116.91081806073417
1698924229620.0,0.01666666753590107,-1.0507337724216281,1.536966406661272,-0.4551315396636724,-0.48512507485654205,-5.504868167114258,-7.256825231933593,1.2192643258149694,-94.71854306993309,-121.71623863243167
1698924229637.0,0.01666666753590107,-1.0568491865620016,1.5384651207864284,-0.4278226769775152,-0.4326023124694824,-5.491101507568359,-7.237073068237304,6.559599700098471,-94.29680620944148,-124.34251467019327
1698924229655.0,0.01666666753590107,-1.0244941464021802,1.6528525474667548,-0.7030097374230623,-0.3393780122619122,-5.369595188793539,-7.513752997589111,8.612089901820697,-98.50135454928545,-128.63158660101612
1698924229670.0,0.01666666753590107,-1.063418189688772,1.8423136275708674,-0.866364316368103,-0.297479556274414,-5.16504058445394,-7.6840400061458345,6.552339635897571,-106.37921960589729,-137.06420645220558
1698924229687.0,0.01666666753590107,-1.115960497026518,1.8093810797840355,-0.9513888704419136,-0.2889502128601074,-5.178208693584799,-7.782202858734131,4.05118967552284,-112.11073186677847,-142.30103543225943
1698924229704.0,0.01666666753590107,-1.198803177016601,1.6174825433999298,-1.071460772499442,-0.3151367935180664,-5.343258386009931,-7.922562346538901,1.721172666123717,-115.92057723486573,-143.97713653382385
1698924229720.0,0.01666666753590107,-1.3705261366605759,1.3226222297132015,-0.852697610065341,-0.4146458730835467,-5.5913581175655125,-7.741351208385825,-3.0778642400207508,-111.15568017551392,-142.03419360176537
1698924229737.0,0.01666666753590107,-1.4756838165722788,1.2754542358249426,-0.854459943562746,-0.46073403584584594,-5.593602681621909,-7.7795099663883445,-5.93878843851038,-106.08832184914644,-141.31517958783812
1698924229754.0,0.01666666753590107,-1.3782659371323882,1.5750848326534033,-1.2790449537932873,-0.29957426353134214,-5.2440492392390965,-8.243685228729248,-5.721895354529802,-104.49951056517476,-142.65513975958956
1698924229771.0,0.01666666753590107,-1.085278869971633,1.771496462547779,-1.9411609552919864,0.07182612286992371,-4.983529586571454,-8.955511309814453,-0.8556369005128321,-109.99419967696409,-144.6800039805532
1698924229787.0,0.01666666753590107,-1.0341614078052341,1.7693395767748354,-2.0633762991189957,0.17283150540776548,-4.942828742870688,-9.11038622970581,2.726798279654208,-112.4409646829594,-144.478158230201
1698924229803.0,0.01666666753590107,-0.869603736680746,1.7394710927337407,-2.072872441738844,0.38052842636108397,-4.932953245544433,-9.150040779224037,3.676673327858116,-112.33155871283415,-142.7098905559764
1698924229820.0,0.01666666753590107,-0.8519266256928444,1.7249825486540793,-1.8846826967447996,0.4550478069029748,-4.893896661919355,-9.00174932937622,3.678931559152451,-105.1025206462385,-139.97136718939478
1698924229837.0,0.01666666753590107,-0.8429777416922152,1.63960143622756,-1.8334096056252718,0.5129577056884765,-4.937590842217206,-8.979902239227295,3.232164403230274,-99.60831647788025,-137.19617936734858
1698924229854.0,0.01666666753590107,-0.6830987299032509,1.5355968718737363,-2.254290500640869,0.7284357089720666,-4.984427996715903,-9.44228243484497,2.9420854154061864,-103.24501655050769,-130.63436199020396
1698924229870.0,0.01666666753590107,-0.42236295026689763,1.5589982057273386,-2.7385645481586454,1.0043677425660191,-4.918437813457846,-9.961973832702636,1.863835894534831,-111.32465222539086,-125.16829820122615
1698924229887.0,0.01666666753590107,-0.35938247021883724,1.603051282465458,-2.79154093606472,1.0564414825439452,-4.8317982254028315,-10.05504842224121,1.8648117578124968,-118.32044616201975,-120.68232557701016
1698924229903.0,0.01666666753590107,-0.45185777869001026,1.7985083881139754,-2.487197923761606,0.9274540142334997,-4.5905818236202,-9.797971603503823,8.238006417394622,-117.21521227128497,-117.24109868823932
1698924229921.0,0.01666666753590107,-0.7906475427351891,1.9455337635487318,-1.855328591966629,0.5653310131348669,-4.42388611755371,-9.18759923324585,14.845322245921627,-109.88833857501805,-116.52906512764382
1698924229937.0,0.01666666753590107,-0.9143478644229471,1.96472770884037,-1.614287546750903,0.4329017338074744,-4.396052938732504,-8.955660947418213,18.30431787181826,-101.93863358871603,-116.20662555730586
1698924229953.0,0.01666666753590107,-1.0538973510190843,1.8040987554669379,-1.4345564180225132,0.2941875289916992,-4.548533072441816,-8.782828930553793,16.435007794107076,-96.94254145614846,-113.2800261017388
1698924229970.0,0.01666666753590107,-1.024365843847394,1.566625631865859,-1.6363795515716075,0.3220201232910156,-4.774186578911543,-8.9951646902889,12.176274709803758,-98.44582511133325,-110.59184805952937
1698924229987.0,0.01666666753590107,-1.028122712162882,1.4776450336426497,-1.7328993131279944,0.3094504184447229,-4.843619011577964,-9.110086954498291,7.983233531163977,-99.3312908353337,-109.73056120519077
1698924230003.0,0.01666666753590107,-0.9513650511749088,1.4679185893982647,-1.8833605082303284,0.37169966160878537,-4.822818800133467,-9.28920316619873,8.990281745032535,-98.78484155078682,-108.94516458272017
1698924230020.0,0.01666666753590107,-0.7525431452684104,1.2906184872090816,-1.8648820177316665,0.5550057262144983,-4.983679224175215,-9.287407514953612,12.007341079740893,-99.01992300164032,-105.25896612917764
1698924230037.0,0.01666666753590107,-0.6771532655023038,1.2216308757007122,-1.7479145114302634,0.6057327277585863,-5.042037889641523,-9.183708071026205,12.249100748055373,-100.69254753691723,-101.08899903710146
1698924230053.0,0.01666666753590107,-0.7290791214421392,1.2396142761588096,-1.2401368387281895,0.5066729263305664,-5.006574362072349,-8.698583544158936,7.291465141835916,-101.48010249916555,-97.50133289252554
1698924230070.0,0.01666666753590107,-0.8915937424317002,1.2709095781326294,-0.5622855079591274,0.3064579586304724,-4.95450106048584,-8.04421830291748,3.0859964340012973,-97.97921390799465,-95.98266765132989
1698924230087.0,0.01666666753590107,-0.908276947011426,1.2308856107801198,-0.28141981735527516,0.25737660540156065,-4.969464236339927,-7.789235826110839,1.6827438874191096,-92.43871471744205,-93.51968094605577
1698924230103.0,0.01666666753590107,-0.9136191117569804,0.9867881006032228,-0.18954700482189654,0.2127846725463867,-5.182248908886313,-7.729081509399413,2.3558186893190807,-88.80799106033837,-89.2952977368621
1698924230120.0,0.01666666753590107,-1.0588277931585908,0.7317454180419445,-0.3728787883907556,0.033967589922994375,-5.417329584392905,-7.933636113739013,3.402754567610278,-89.32334249359417,-88.29078181562832
1698924230137.0,0.01666666753590107,-1.1411918958514928,0.6172679749906063,-0.41514556623399257,-0.08289930554814637,-5.513396926006674,-7.995735719299316,2.807232935197805,-90.11649821096191,-89.74759969388951
1698924230153.0,0.01666666753590107,-1.3538187474876642,0.25190789166688915,-0.4673743506431579,-0.3450641681395471,-5.849781674736738,-8.078035816845297,-0.7116805251927643,-92.45178769951346,-90.15691927047004
1698924230170.0,0.01666666753590107,-1.5845643163993954,-0.3563420796096325,-0.5591255826234817,-0.6200980107847601,-6.429627973827719,-8.198195397186279,-5.041685352824695,-94.87183983566486,-88.68926871218521
1698924230187.0,0.01666666753590107,-1.5623311495423315,-0.49125031627118587,-0.6200356861382722,-0.6497264755249023,-6.5286880675166845,-8.29381441051066,-8.813022114371424,-95.88374602158059,-87.38425861841672
1698924230203.0,0.01666666753590107,-1.6292355250358581,-0.6109989777237177,-0.7776800707429647,-0.7927799516540021,-6.600812808007001,-8.49732038258016,-5.1521393301007326,-97.93086299886014,-88.84994891240976
1698924230220.0,0.01666666753590107,-1.6066326480835675,-0.36147242823541165,-0.7595821039944887,-0.8268973253112286,-6.330716933220624,-8.501061907196044,4.358770596208262,-97.96734986940633,-92.19348360548192
1698924230237.0,0.01666666753590107,-1.5380492334619165,-0.26097616426348685,-0.711277799552679,-0.8117840003967285,-6.231956699261069,-8.456619538879394,15.10690824584936,-99.8067812845933,-96.38255473666662
1698924230253.0,0.01666666753590107,-1.4017638632282614,-0.22011223895549772,-0.5316916322529316,-0.7359177352905273,-6.217441851696372,-8.262090653991699,21.694086115382227,-97.58688784206912,-101.99274917751003
1698924230270.0,0.01666666753590107,-1.2756990043662488,-0.48411739565134043,-0.1842640959829092,-0.6404487248960882,-6.51207829349935,-7.893383598327636,26.037403408593335,-91.70018685305608,-101.71270459135035
1698924230287.0,0.01666666753590107,-1.228071137881279,-0.7581178766608238,-0.1250339083790779,-0.6130650434080511,-6.826467483520507,-7.804049948883057,29.738787080208088,-85.3101897146723,-97.87728016482139
1698924230303.0,0.01666666753590107,-1.1079136033669112,-1.0936030462026596,-0.30570202569663524,-0.5155016180176287,-7.2243527028739445,-7.936778503417968,32.44367518022195,-84.20835725814419,-91.66492941656047
1698924230320.0,0.01666666753590107,-0.7341906192369758,-1.0278753132730722,-0.7148796234369278,-0.16864143330678344,-7.212831191906332,-8.304138820648193,35.95338154561134,-87.30360091450804,-87.3390291057329
1698924230337.0,0.01666666753590107,-0.572314807607606,-0.8075070537298917,-0.8321206859827042,-0.04219773119501769,-7.057208083996176,-8.3707269697994,42.713588597388146,-89.5207213002292,-84.7702632607828
1698924230352.0,0.01666666753590107,-0.4944420980498194,-0.476561281183362,-0.8052467075824737,-0.014215462759323417,-6.837390444073081,-8.253711532703042,53.009863129656004,-87.41990537569502,-81.98170875853087
1698924230370.0,0.01666666753590107,-0.475614099993743,-0.17853285885453224,-0.32855800062716006,-0.022445530966110527,-6.635828591808676,-7.695263410949707,56.46672090634242,-80.88396758531559,-80.30712395896217
1698924230387.0,0.01666666753590107,-0.3925529549473896,-0.013160510346293449,-0.16974106511175632,0.04863211162406951,-6.569239273613691,-7.4494088279724116,55.9254079240514,-70.35205494177687,-75.8749663952167
1698924230403.0,0.01666666753590107,-0.21880860901102422,0.14630699803233146,0.04892798929810524,0.22700035450141876,-6.534972846874594,-7.115716971588134,51.77316858796598,-59.23157123707983,-68.99881688227893
1698924230420.0,0.01666666753590107,-0.0134545248568058,0.3242342922091484,0.008645078748464584,0.44337636607065795,-6.440701156505942,-7.0763628663212055,46.21831233977801,-54.207745121387426,-63.51698901669673
1698924230437.0,0.01666666753590107,0.11004238321334123,0.3663192837446928,-0.04155366113781929,0.5764039400847628,-6.470329402050376,-7.056760340228676,39.00898278403244,-50.92268367779975,-55.8156672746568
1698924230453.0,0.01666666753590107,0.48387321163192387,0.4494575856804848,-0.20961364129483698,0.9457098018921911,-6.461650421032309,-7.151779634094238,27.573400254807897,-50.27657510307323,-43.42841229025959
1698924230470.0,0.01666666753590107,0.6659916738882661,0.6081120241105556,-0.3336988706469536,1.1092634836059063,-6.337450625389814,-7.242609659576416,15.994913092673766,-48.67972468644843,-34.98738106110727
1698924230487.0,0.01666666753590107,0.7783103314705193,0.7056389168828725,-0.35543256354928016,1.1918635139465332,-6.256048353466391,-7.249942486682534,5.499875359803483,-46.735579641096,-27.918099411650932
1698924230503.0,0.01666666753590107,1.035484619233012,0.9757032274872064,-0.42510114305913443,1.401804998956248,-5.979667699322104,-7.3286512817382805,-7.278373376744294,-41.24303520870606,-20.442073166931163
1698924230521.0,0.01666666753590107,1.2730964206524193,1.2440928828775881,-0.9377496366679667,1.5972318921295925,-5.691466259002685,-7.863307024493813,-12.350150835504772,-42.76631765778065,-16.154384349415224
1698924230537.0,0.01666666753590107,1.4380952596731482,1.2723159377992153,-1.1398737989902497,1.7048213109665549,-5.635950123485922,-8.0950950881958,-16.97938753133543,-49.1019259998036,-11.92044314425176
1698924230553.0,0.01666666753590107,1.64837174879089,1.576670640540123,-1.1665618994295597,1.807023867399711,-5.276820458984375,-8.179042368426918,-28.233165792779864,-58.26322116750127,-8.049096191556764
1698924230570.0,0.01666666753590107,1.7907416996352374,1.7422113313525913,-0.60631345025599,1.8534114378002704,-5.05011890476644,-7.679551462554931,-37.27052205534577,-56.76677111658108,-4.7642080640192805
1698924230587.0,0.01666666753590107,1.812768968656659,1.8285405382841824,-0.1327419985383749,1.7898154219530404,-4.894046884045005,-7.272537180328369,-35.810295912688744,-42.34235415561961,-4.996298318903137
1698924230603.0,0.01666666753590107,1.8441108862511812,1.955451346451044,0.35422260323762894,1.7630303479622582,-4.696824522289633,-6.85070877532959,-19.716556812914067,-20.628057510483316,-12.015501448251767
1698924230620.0,0.01666666753590107,1.87938517485857,1.952211926138401,0.322099618268013,1.7971477307526393,-4.675276707348227,-6.9056257759094235,-7.648472299563313,-9.525520127830475,-19.477066474951325
1698924230637.0,0.01666666753590107,1.9142245791800319,1.8276812911063431,0.339462841001153,1.860743630152149,-4.790945990532636,-6.896647519683837,-3.7950498976845455,-1.9001022780368948,-24.35870000495511
1698924230653.0,0.01666666753590107,1.826147651798278,1.3386205938339233,0.4570616309434175,1.829918343999375,-5.261705891960859,-6.795941412353515,-12.752577897439107,1.9718363397949537,-23.148544163285177
1698924230670.0,0.01666666753590107,1.6210396513596177,0.8312561781078577,0.5444856473743915,1.6663643828682135,-5.73351384113729,-6.740576083484291,-24.82828404812995,3.7789263823750843,-19.424152999451238
1698924230687.0,0.01666666753590107,1.520298764976859,0.6962409739404917,0.5671960763543844,1.603067804341996,-5.807583870476484,-6.771999395751953,-38.252870597628274,3.9011824996500812,-16.083280372608098
1698924230703.0,0.01666666753590107,1.3702540417209266,0.4961182145684957,0.46306817788183685,1.5068506972603033,-5.894972231072187,-6.973710885620116,-47.4714812977461,8.405720004916994,-17.729309858804275
1698924230720.0,0.01666666753590107,1.2493408665336667,0.5488076022267341,-0.2207856081724167,1.4323312527863308,-5.750871803173422,-7.734169187927246,-43.73524487834407,6.819965230598888,-20.03965720405423
1698924230737.0,0.01666666753590107,1.1696490517899394,0.4244873950749635,-0.4340753076314926,1.3979144760574214,-5.7978580107539885,-8.010400204467773,-33.645873851508824,3.5422137969704215,-22.092765964783165
1698924230753.0,0.01666666753590107,0.9140779614403843,0.11526011786162853,-0.4319289432525634,1.196652063397318,-6.028000060814619,-8.07070415878296,-25.996171264121262,1.5993383130299683,-24.252261752024218
1698924230770.0,0.01666666753590107,0.559252862264961,-0.14014613731503486,0.3302677271544933,0.8904933434417471,-6.231956699261069,-7.3476558419376605,-23.235297811028094,6.77394853861322,-27.012187516370044
1698924230787.0,0.01666666753590107,0.3303096666000783,-0.2732347573339939,0.735515584230423,0.7272388273376971,-6.320093247875571,-6.974758348846435,-18.60155916676075,13.314287532139078,-29.79830534863558
1698924230803.0,0.01666666753590107,0.17341566197127103,-0.5205003761529923,1.0876818394601344,0.6786065330505371,-6.520009086498618,-6.653187722888589,-13.88938775270686,18.27843145486391,-31.59646534576274
1698924230820.0,0.01666666753590107,0.02129964886661619,-0.775624307256937,1.2422943090230225,0.6156090653350577,-6.744614545220136,-6.515819818115234,-11.910856973751647,21.145862689198445,-31.409666502152064
1698924230837.0,0.01666666753590107,-0.08805077002719044,-1.1320365294933319,1.1434265230357645,0.6257844589233398,-7.0675330786556,-6.630292584991455,-8.0706351931044,20.115223001936666,-27.55553077239185
1698924230853.0,0.01666666753590107,-0.14469846685715018,-1.2525170123517513,1.067742044237256,0.6453869119506329,-7.1674904134452335,-6.714239280700683,-7.644325520963468,15.934786937410143,-23.606361498067375
1698924230870.0,0.01666666753590107,-0.23982713938131928,-1.4310036939769983,1.18946346706748,0.6138134506225585,-7.324610481914878,-6.602011077880859,-9.048732796402211,15.715928893382717,-17.975078848161548
1698924230886.0,0.01666666753590107,-0.4581375896118581,-1.6430220583260058,1.4658546426057815,0.4709095390319824,-7.507318580627441,-6.339097808074951,-9.169226724871345,19.621635966471107,-9.60018434074247
1698924230904.0,0.01666666753590107,-0.533572623693943,-1.6436282075256108,1.4673171163737773,0.4489128843445331,-7.4866680067867035,-6.347028601074219,-10.159213979966857,21.081841618560624,-4.770476043243236
1698924230920.0,0.01666666753590107,-0.5177569957289845,-1.4209785590469837,1.0104308419972658,0.5054756793700158,-7.240813423809409,-6.815992266735434,-12.01863479753351,14.380959882367263,-0.4364461531169058
1698924230937.0,0.01666666753590107,-0.54385918603912,-1.1674871975809336,0.7655763759732246,0.49889177093505854,-6.951563935741782,-7.0847419876098625,-14.50154857971113,1.5175832965424427,2.2146892652634578
1698924230953.0,0.01666666753590107,-0.6015668402507901,-1.0226491030573843,0.8549030111551285,0.4327519500732422,-6.778284175109863,-7.017405065917968,-13.412714826947193,-5.5783021531745085,2.4874443320314543
1698924230970.0,0.01666666753590107,-0.7927060827001928,-0.7100877129852772,1.2509645222127437,0.22430669497065245,-6.443394048851728,-6.639869976153969,-8.305486978847057,-7.2229019954000355,1.1785766754857918
1698924230987.0,0.01666666753590107,-1.07720413845703,-0.5533604432255029,1.8325719857573508,-0.07032967376708985,-6.278194718822837,-6.065709906005859,2.4216851916932756,0.6929886453119665,-2.0769535914516846
1698924231003.0,0.01666666753590107,-1.1668994608208536,-0.46948973536193367,2.021550835302472,-0.1452981132507324,-6.204722655376791,-5.867290443420409,7.936937655195985,7.347923485515241,-6.507211295390827
1698924231020.0,0.01666666753590107,-1.3667569933854042,-0.4070318178832531,2.1047522656023503,-0.31184483930058776,-6.159232823833823,-5.767333108630776,10.827822051593051,11.44283277502851,-11.102837910976323
1698924231037.0,0.01666666753590107,-1.4717309872932731,-0.4709609769582748,1.7607716549158094,-0.3564367721557617,-6.2573950919002295,-6.0778305519104,18.634053791737088,11.99410417312941,-17.261540938401364
1698924231054.0,0.01666666753590107,-1.489112184074521,-0.5996487316697836,1.549665144714713,-0.32052367418818173,-6.4251382611930365,-6.252158360290527,24.746936495115097,11.238653661301088,-21.075359769038283
1698924231070.0,0.01666666753590107,-1.4957215192116795,-0.9347586381584405,1.2430763993114233,-0.27189159909673033,-6.805068721660971,-6.516568590655923,25.305394959770144,8.554486647681749,-23.99346929946702
1698924231087.0,0.01666666753590107,-1.4041886061571538,-1.1907178510427474,1.1850737076759337,-0.11192921987324952,-7.109580660790205,-6.526444087982178,17.009635024074832,4.9435325462438495,-24.953080142002545
1698924231103.0,0.01666666753590107,-1.313903062815219,-1.3682120144993066,1.097986960375309,0.023792378997802732,-7.302464116558432,-6.593931231799721,6.713929531942202,3.6483502409173654,-22.18420512229671
1698924231120.0,0.01666666753590107,-1.0279613841213284,-1.7185463781267403,0.8300479713618755,0.356885684967041,-7.650820458111166,-6.855048265838622,-0.7813194264229217,4.003161065939779,-13.18827139572599
1698924231137.0,0.01666666753590107,-0.6733923055335879,-1.8728098881214856,0.12034545830190181,0.7333736037656664,-7.799111323437094,-7.56537738636434,-0.8561027407585682,2.0915093649032164,-6.96436396738942
1698924231153.0,0.01666666753590107,-0.5098042100936174,-1.8205425252676009,-0.22347031721174715,0.9051580112732946,-7.745989974102377,-7.908347358703613,1.7262016063435504,-1.8377287770929267,-3.5527406125852923
1698924231170.0,0.01666666753590107,-0.26598332490101456,-1.4902566779345272,-0.8193430374741554,1.1403880321227013,-7.420677823528647,-8.501960317340492,2.1286754123850176,-8.914974640564912,-3.372668011203195
1698924231187.0,0.01666666753590107,-0.2711561974942684,-1.2806804460406302,-0.9973159243583679,1.1203365932188927,-7.213130467113852,-8.681075944519042,1.6806188448135893,-11.963651774714906,-4.723975688486966
1698924231203.0,0.01666666753590107,-0.23880218024775385,-1.2443237690240143,-1.0021271240323781,1.136796729632467,-7.180509469494223,-8.685863763317466,4.640007904151768,-11.264009031047467,-5.937800195514844
1698924231220.0,0.01666666753590107,-0.22898674254566428,-1.0789970132231712,-0.8990379209578037,1.13799412272349,-7.033415704998373,-8.570194480133056,11.587816346766724,-6.6813730083765135,-9.430245819097967
1698924231237.0,0.01666666753590107,-0.15870236922502517,-1.0665642326295375,-0.8164338720291853,1.2131119075499475,-7.0438903372615576,-8.468889237865804,14.314576420050262,-4.951484167098213,-10.94423750335404
1698924231253.0,0.01666666753590107,-0.16143515518978238,-1.2035802552253008,-0.7816752778589725,1.2184987151548266,-7.2040019887626165,-8.4145713722229,11.619733820758194,-4.490840841546921,-11.500383948975037
1698924231270.0,0.01666666753590107,-0.21916516736373304,-1.5403583871871231,-0.6654857701927424,1.1733083049498498,-7.55280782764852,-8.2866312210083,1.6061554821518755,-4.892915294965355,-11.463590573689824
1698924231287.0,0.01666666753590107,-0.08293342701345682,-1.7865718666046857,-0.7330605922937393,1.3156136661253868,-7.792976181682944,-8.357859304919838,-3.3494472890158558,-6.306062224333952,-10.838146736297173
1698924231304.0,0.01666666753590107,-0.03903817118555307,-1.9361416658252477,-0.6596054799824953,1.3621512531556188,-7.9282485754817715,-8.295160564422607,-7.042308378650313,-7.135005998518434,-9.695392908904216
1698924231320.0,0.01666666753590107,-0.03026186727285385,-1.9275117846459149,-0.4471510623037815,1.3699324085511266,-7.8896420737117525,-8.106317908477783,-12.47454992463186,-6.98409681078841,-7.687960184476095
1698924231337.0,0.01666666753590107,-0.09104249918907881,-1.7668629575282335,-0.25614742893278597,1.307383744049072,-7.69960231693685,-7.938425101581215,-14.363831475476163,-3.5674705558606594,-4.229815344017952
1698924231353.0,0.01666666753590107,-0.0878188609674573,-1.7469149789988994,-0.1663870785087347,1.3115734508238732,-7.64812698124349,-7.872734193530678,-16.867498787446866,1.2690232144138642,-0.41583611065724524
1698924231370.0,0.01666666753590107,0.03552212588861584,-1.314585053730011,-0.41112405563294885,1.44130925328359,-7.164797521099448,-8.155099767303467,-21.110811865925232,4.944476819896604,2.4432971908876655
1698924231387.0,0.01666666753590107,0.33092575267180796,-0.5881932716757059,-1.0753624561130999,1.740285331726074,-6.396707701000571,-8.850016799163818,-20.643468124798158,0.7887252191130667,1.5994902847390011
1698924231403.0,0.01666666753590107,0.3744482296645641,-0.16240648443996905,-1.3725778084933757,1.7747018344603478,-5.934326920861006,-9.176077137756348,-14.724164935329355,-9.83808495217589,-1.4937593832740268
1698924231420.0,0.01666666753590107,0.20166034420281648,0.5047977801084518,-1.3161860591858625,1.5704465053282677,-5.2434506888240575,-9.14270795211792,-0.27049115254282835,-16.88256447720862,-6.648926194724368
1698924231437.0,0.01666666753590107,-0.1184942774772644,0.9331851052314043,-0.5615747293412685,1.229871319171041,-4.82641068714559,-8.38329711303711,14.048646419810401,-13.838512234900373,-9.628189823886814
1698924231453.0,0.01666666753590107,-0.25605273638665677,1.1020791981250047,-0.16427929257452487,1.0913070442199706,-4.692933944591879,-7.959972332000732,23.62163038595694,-4.1090921773248,-14.640297042510769
1698924231470.0,0.01666666753590107,-0.4359326259359717,1.2294932796388864,0.4071732721805572,0.9567828384399414,-4.628290499767661,-7.333440269580483,27.483438125702367,10.440669000190157,-20.85002499813039
1698924231487.0,0.01666666753590107,-0.4412601045690477,0.908858473226428,0.5047708921015263,1.0131960689269006,-4.995201319664717,-7.189189035034179,25.302389676535338,18.231584894894084,-20.351921500076163
1698924231503.0,0.01666666753590107,-0.43774259796738624,0.6972749931633472,0.32563013048171996,1.0839746555052696,-5.245545615276694,-7.325359254455566,20.102237104777178,19.18347933121479,-16.098489496342424
1698924231520.0,0.01666666753590107,-0.3283551715314388,0.4646002097547054,-0.18256605989336966,1.2560578998290002,-5.512499100384116,-7.794024813953041,10.173542863071898,6.21581450794375,-9.655249325831113
1698924231537.0,0.01666666753590107,-0.39025852386727927,0.5022089326590299,-0.5145172100901604,1.2045828563965857,-5.48436723087728,-8.116344212451576,2.898442854487332,-8.597311080004083,-7.412725759039383
1698924231553.0,0.01666666753590107,-0.4787148059554398,0.5572440066605806,-0.409240141582489,1.098339865466207,-5.42690639103353,-8.016684983825684,-2.1057108222915537,-20.020819542323334,-8.037453280342831
1698924231570.0,0.01666666753590107,-0.6017094635918736,0.8031634715676307,0.13899638275802134,0.9346363269530236,-5.164741309246421,-7.4895117057800284,-5.291764191548249,-25.015159731368794,-13.021831638483826
1698924231587.0,0.01666666753590107,-0.7564804847173392,1.108273961111903,0.7900158207029104,0.7549214187070727,-4.845563715904951,-6.854449715423583,-1.9611505088384686,-22.76095483354905,-16.733299230634458
1698924231603.0,0.01666666753590107,-0.7634959164373576,1.1512100165188313,0.9992249728500843,0.7336731712341308,-4.800823241424561,-6.649446198272705,7.833799237407853,-18.662318822069892,-17.686023534939316
1698924231620.0,0.01666666753590107,-0.7723854714661836,1.0205682051301002,1.0855565178692341,0.712873398181051,-4.9715591627925635,-6.534075605773926,29.136026301049046,-16.658971404539084,-13.277057878520631
1698924231637.0,0.01666666753590107,-0.6665005001932383,0.8607453074425458,0.8222334982186555,0.8007106715880334,-5.1948172985583545,-6.750601218414306,37.08449843820589,-20.689045977129652,-11.514881025488389
1698924231653.0,0.01666666753590107,-0.7303302905470133,0.9415145421594381,0.7894330523788928,0.710329558917135,-5.178507968792319,-6.7365352836608885,31.427862126100976,-26.01664987880025,-13.120680697473189
1698924231669.0,0.01666666753590107,-0.8275219600155949,0.7644768902987241,0.9274807561099528,0.5620386935912073,-5.411792993053794,-6.562057837677002,16.405557725953273,-34.78366383892247,-12.413303618344356
1698924231687.0,0.01666666753590107,-0.9656048811905086,0.21762685188055036,0.989971406814456,0.36780908391103145,-5.979218201988935,-6.4927750426143405,9.040238602395654,-40.253538873457146,-9.38596228761419
1698924231703.0,0.01666666753590107,-0.9909697702020406,0.05818623150885105,1.0497516295164824,0.2733879020690918,-6.149057466778158,-6.436362835040688,4.848355994593837,-44.40764968137514,-8.157534836140826
1698924231720.0,0.01666666753590107,-0.9812571352872997,0.14331541500091552,1.1390420243412256,0.18345570220947263,-6.069749536785483,-6.35840105895996,2.916523859324237,-46.08924225503228,-10.412213578334239
1698924231737.0,0.01666666753590107,-0.8838990962758659,0.1379822372794151,1.2506009495973587,0.20949257219843564,-6.0778293828666206,-6.255300749969482,2.955754118039263,-45.21802772073506,-11.989942026603932
1698924231753.0,0.01666666753590107,-0.8044763077318667,0.05424012423157692,1.2633861968904734,0.22251104372553526,-6.1643205023616545,-6.249615105548501,3.8055128937193587,-44.658382510711725,-14.997422021001348
1698924231770.0,0.01666666753590107,-0.7731218959819525,-0.07143909631371498,1.2158651517808436,0.18121113815307616,-6.300041808971763,-6.298396379852295,9.39217349089067,-40.06941063381194,-21.32537201341743
1698924231787.0,0.01666666753590107,-0.6425664477024227,-0.4423100520133972,1.22014268296957,0.2765303648132831,-6.689248631829023,-6.283282981872558,14.780821354494611,-34.219609741789895,-24.54987699982377
1698924231803.0,0.01666666753590107,-0.6205841138012707,-0.6897521964430808,1.1547118871599436,0.27653014561757444,-6.964283132061362,-6.328323900604247,19.382200270021727,-30.604168632954117,-25.32065189482866
1698924231820.0,0.01666666753590107,-0.5466852032452821,-1.1032494109481572,0.9346317969083785,0.32710780181884763,-7.427112240490317,-6.509535623279214,24.14361734799141,-29.208521928899565,-23.32899434606233
1698924231837.0,0.01666666753590107,-0.3775813400585204,-1.3364046713501214,0.7655284451782703,0.47689497011713683,-7.704240498131513,-6.643311641040444,25.938753278863548,-28.89355117041901,-22.05976932090283
1698924231854.0,0.01666666753590107,-0.35639417512305077,-1.4016092571884393,0.7482359495937824,0.47809214401245115,-7.815272184643149,-6.623259617614746,26.803327161740224,-29.980770437217885,-21.676792076403753
1698924231870.0,0.01666666753590107,-0.35954321373850107,-1.5787825181275605,0.6604810937732458,0.4477156373839825,-8.05753488060832,-6.656928078460693,28.952328363321556,-27.34029785126641,-21.409000849615065
1698924231887.0,0.01666666753590107,-0.2963338203053921,-1.7238450690567493,0.5850269165992736,0.49978966962285337,-8.25535637730062,-6.686556908527017,30.593615990686448,-21.73379683521668,-20.32588140386549
1698924231904.0,0.01666666753590107,-0.21717976570017636,-1.704714252129197,0.43555414801239967,0.5735609352111816,-8.291419039806723,-6.786663880920409,31.607663440906975,-18.33321469464929,-16.9457522647677
1698924231920.0,0.01666666753590107,-0.005150076239556074,-1.7016531109929083,0.12874036168158054,0.776319888305664,-8.361150163158774,-7.027430785369873,28.75954285890336,-16.895791138536353,-13.968319980076465
1698924231937.0,0.01666666753590107,0.3408980614360422,-1.4263058915495872,-0.014231354448199271,1.1168951475281268,-8.132204044884443,-7.127538342285156,24.17187896322963,-14.284386983918806,-12.641598422483801
1698924231954.0,0.01666666753590107,0.5757870137628167,-1.2066799748063086,-0.2286971119493246,1.3465886501036584,-7.95518334415853,-7.302165425872802,25.126747946933875,-13.007687170486376,-10.425038966048229
1698924231970.0,0.01666666753590107,0.6763521051872521,-0.8018629103630781,-0.6112374626547098,1.445648670727387,-7.613560110253095,-7.624035911560058,28.12712369082083,-10.209758233598597,-13.519626924251757
1698924231987.0,0.01666666753590107,0.7481760361000895,-0.5681950242638588,-0.7733563623249531,1.526902035699412,-7.4289078917354345,-7.737161940002441,28.70551606256856,-9.703141758517596,-17.015865864145177
1698924232004.0,0.01666666753590107,0.8665729906827211,-0.49935529679358004,-0.7835305503368377,1.6617255897521972,-7.407060801586509,-7.69885529796183,25.7951331836384,-7.88812314697155,-18.410088473757785
1698924232020.0,0.01666666753590107,1.1617920546792446,-0.29253040943443775,-0.6489315257549285,1.977760135827586,-7.236922261589765,-7.524976402392983,5.699538010942234,-5.638100032471146,-11.663433371067935
1698924232037.0,0.01666666753590107,1.3594658134639261,-0.2659633050262928,-0.3668500296205282,2.18171611668691,-7.198914894756674,-7.253682842254638,-17.76400892733523,0.7362134974743922,-0.5005914478202574
1698924232054.0,0.01666666753590107,1.5122408384665846,-0.19721943914592266,-0.32303777590095994,2.333897486645356,-7.078456039208174,-7.261613635253906,-39.382764886361386,8.596357414841219,10.338956384391267
1698924232070.0,0.01666666753590107,1.8184288941144942,0.38260815524458885,-0.7190671382546424,2.636464721447602,-6.392217988365888,-7.762001782226562,-47.95422540790426,18.51501383978752,19.38048418499276
1698924232087.0,0.01666666753590107,2.3168901646777984,1.1603262199103832,-1.2622779433876274,3.134907871832326,-5.53524460067749,-8.380604220691323,-41.992460639912785,21.04974143700886,22.72460456678624
1698924232103.0,0.01666666753590107,2.503927524766326,1.5570815584510564,-1.397031281748414,3.319560382610932,-5.074658887261152,-8.575132521057128,-31.700045164525985,19.24972875106933,23.46984479957904
1698924232120.0,0.01666666753590107,2.5807006755843758,1.9827169545173644,-1.1519652188003062,3.3879450597900895,-4.5881882064819335,-8.386738777923583,-24.147046102954757,20.374896548896796,25.736938264362596
1698924232137.0,0.01666666753590107,2.303195109063387,1.9281249481081961,-0.5149047481030226,3.10917013092041,-4.60345007302165,-7.785345248413085,-24.00671132872038,27.725284878928765,27.908019759983286
1698924232154.0,0.01666666753590107,1.946923610471934,1.7987936347961424,-0.2296808622896671,2.7712884216308593,-4.676922720989585,-7.547870371246337,-26.454454759314313,37.45879963491176,29.984270909167517
1698924232170.0,0.01666666753590107,1.8342058705694972,1.6604443177700041,-0.2868231377035379,2.679111584649607,-4.770744914025068,-7.64184278640747,-26.831887597754633,37.17365972763124,31.314562948148804
1698924232187.0,0.01666666753590107,1.5991855469480156,1.488452258861065,-0.5651888281852007,2.4568998891968277,-4.898386374554038,-7.957278855133056,-26.718229834871035,30.34007595360099,31.37325817878131
1698924232206.0,0.01666666753590107,1.216901143765077,1.0884475631356239,-0.3708002285510301,2.07502465133667,-5.235968224114179,-7.816320232391357,-29.114746846689872,24.80098378201741,31.25019866050519
1698924232220.0,0.01666666753590107,1.031865332757309,0.9120213211715221,-0.09866378784775734,1.8887257615905253,-5.361365120586752,-7.587374698638915,-30.149616128595184,27.15590664933816,31.196974411397864
1698924232237.0,0.01666666753590107,0.6919341435920446,0.5956985327392816,0.3892804726153612,1.556380716705322,-5.626672592052817,-7.141006311145424,-28.543461286773542,33.16538028868218,31.447676504883184
1698924232253.0,0.01666666753590107,0.5007630446996539,0.5336451044082642,0.49610710865259167,1.395370581994578,-5.630263310021162,-7.078606845855712,-23.441327052246944,40.94061833791999,32.233967882135055
1698924232270.0,0.01666666753590107,0.37020635431110854,0.4999152687638998,0.4716635722696781,1.2951133874755352,-5.628168383568525,-7.128436167907714,-21.016866028986293,41.41938386288662,32.31501832192101
1698924232287.0,0.01666666753590107,0.17482720926962791,0.5362900659590959,0.31353403449654577,1.1258731845580041,-5.559035810631514,-7.3096467215389005,-20.12009804945676,35.23680932431238,31.719016014945694
1698924232303.0,0.01666666753590107,-0.054561684336140746,0.5206213721841574,0.3003296850085258,0.9085994569640606,-5.531054163250327,-7.356034963226318,-20.402265116901035,23.721398959163317,30.474265265129645
1698924232320.0,0.01666666753590107,-0.1692603689227253,0.4937433021306991,0.48027007257342336,0.7893382867675274,-5.5256672095149755,-7.202057868957519,-18.90053874484701,18.011727935700545,27.146585148668386
1698924232337.0,0.01666666753590107,-0.47364795101992785,0.5402238982766866,0.9945195716381072,0.48497540072016415,-5.442019204491377,-6.716782535442709,-13.88114029928407,19.72938390817535,18.542056266258893
1698924232353.0,0.01666666753590107,-0.624030527928099,0.41730245200693605,1.478410757318139,0.3570353225708008,-5.54781357487142,-6.24333032619059,-6.785772449840158,28.0046362008877,14.107882942934628
1698924232370.0,0.01666666753590107,-0.6570547725863755,0.14970307021141052,1.6402134306460618,0.36930560607910157,-5.814318147167563,-6.076483813476562,1.878194873160902,37.30110081225992,12.8643804101894
1698924232387.0,0.01666666753590107,-0.602046805787459,-0.2465823127299547,1.6091571981251238,0.5077203895568847,-6.233602712902426,-6.07812982711792,11.614183438283913,43.0264180915639,13.337149029064758
1698924232403.0,0.01666666753590107,-0.49941674465723335,-0.47267479513883587,1.2394231375008822,0.6714237819395958,-6.493373593029379,-6.412420233917236,16.85381621099204,38.7917452023856,13.911559400526366
1698924232420.0,0.01666666753590107,-0.5287531676482409,-0.49173839204907416,1.116238071858883,0.6904278306823224,-6.551133708080649,-6.497414977374673,17.256997155056013,30.868998972737607,13.403027057383177
1698924232437.0,0.01666666753590107,-0.5467348876059055,-0.5733341407179832,1.1247656617075203,0.7035960128784179,-6.669048139843344,-6.45476767578125,14.364632315156348,20.46429006475392,12.916316314864531
1698924232453.0,0.01666666753590107,-0.6150868315592408,-0.5891121400862932,1.2328361603260038,0.6437409713745117,-6.720074562725425,-6.316801805114745,7.496066873518233,8.07661843881733,11.89147545820809
1698924232470.0,0.01666666753590107,-0.6126753865033387,-0.5968833586096763,1.3817781830370426,0.6402993064880371,-6.74222092808187,-6.157139066424966,3.849995781349536,6.062722647887084,11.900704751324069
1698924232487.0,0.01666666753590107,-0.6116593413285911,-0.8177017000079154,1.688962556245923,0.637156916809082,-6.9798448583304875,-5.8369140098571775,6.191043119371407,11.437131274618842,12.348568792938268
1698924232503.0,0.01666666753590107,-0.4968361535795033,-0.9990881947278976,1.5298539443075656,0.7553704776488244,-7.184100187462568,-5.976675531768798,13.354157907645382,12.31886686155882,13.384505291901394
1698924232520.0,0.01666666753590107,-0.40069633125141263,-1.0168278495579957,1.2857950125753879,0.8526350662231444,-7.240813423809409,-6.188263103485107,21.857937230928954,10.356850626243054,12.420228576389103
1698924232537.0,0.01666666753590107,-0.34573242278993127,-0.9976958635866642,0.825308083358407,0.9032124301634729,-7.2877996313899756,-6.593930647277832,23.812260965691998,2.1021708633107834,7.306076624017866
1698924232553.0,0.01666666753590107,-0.3973313848629594,-1.1285323207646607,0.6529185495644807,0.8400655075073241,-7.465119607323408,-6.72860507518351,22.319203811242012,-3.149842907928461,5.442718629281524
1698924232570.0,0.01666666753590107,-0.3722812608890235,-1.286204762420058,0.5978244388520717,0.8482954295836389,-7.668178420147299,-6.747309191131591,23.044641618083652,-4.447980123844622,5.183115091760387
1698924232587.0,0.01666666753590107,-0.3947292395405471,-1.3293173434376715,0.554477464556694,0.8063970466613769,-7.77636640766561,-6.736835143390297,26.990728769545157,-1.878446309499723,3.724616133189728
1698924232603.0,0.01666666753590107,-0.42317821217253804,-1.1689794819653034,0.2530336808264255,0.7734769199647009,-7.671021534618735,-6.990021384429931,30.176062621061476,-1.2803134103901896,-1.5664800872020352
1698924232620.0,0.01666666753590107,-0.42091202080622314,-1.0689479128956794,0.0330699104309082,0.7778162643432617,-7.6289733679622405,-7.157167172351479,32.69373523592529,-4.3763092413363855,-6.386724197110864
1698924232637.0,0.01666666753590107,-0.5086947144817561,-1.086632622668147,-0.2612415372014046,0.6904278306823224,-7.729080340355634,-7.375338214111328,35.83751421653125,-13.893674550184688,-13.479561888354109
1698924232653.0,0.01666666753590107,-0.694240009381622,-1.1519202106148003,-0.324330153799057,0.5074209682188928,-7.85312991387248,-7.382670456695556,32.40051862995123,-13.406186873647954,-20.822716194281387
1698924232670.0,0.01666666753590107,-0.8550438809305428,-1.2277192557036876,-0.32820027323067186,0.3745427760802209,-7.976132608684897,-7.3365820747375485,27.29900081999722,-1.6579989658297996,-27.710217481619715
1698924232687.0,0.01666666753590107,-0.8730034621216356,-2.0125234792381526,-0.9941127444028853,0.4411313636228442,-8.806920584759116,-7.942465316882729,20.43098606236094,16.5865372483911,-25.53228872135609
1698924232703.0,0.01666666753590107,-0.6247852187529206,-2.613421918708086,-2.2477204746007917,0.7631517791748046,-9.431807218059896,-9.158120625305175,14.558975102705304,18.021727332645444,-20.23095372723336
1698924232720.0,0.01666666753590107,-0.43265871883183715,-2.598408473971486,-2.986497690975666,1.006163247680664,-9.429113741192221,-9.874286781421302,6.024997805553811,1.8830451612452572,-14.315051971971224
1698924232737.0,0.01666666753590107,-0.08953209462612867,-2.0135756186395883,-3.7797213678091763,1.338807640838623,-8.840738098686932,-10.673201947894691,-3.863966506409974,-29.894177298920464,-5.970398553989199
1698924232753.0,0.01666666753590107,-0.14779285267591474,-1.1032967572212218,-3.2442835347652434,1.2174516903199255,-7.9200185072749845,-10.160842792621255,-5.483839356292762,-46.177392676460464,-2.7427066440048136
1698924232770.0,0.01666666753590107,-0.3161467012129724,-0.5662748698562383,-2.6088649860560893,0.9675567459106444,-7.37429016636312,-9.549572596740722,-2.2501247135643068,-49.1140427553912,-5.57813438665302
1698924232787.0,0.01666666753590107,-0.6870565276183187,0.5342904165744781,-1.4303987138211727,0.5143043710570782,-6.273256093376874,-8.386289865112305,6.937181522040062,-39.10933875350744,-16.52254520605725
1698924232803.0,0.01666666753590107,-0.9011325551494955,1.1845312713623046,-0.8493336865901947,0.27353753967285155,-5.639242150768637,-7.793875176349282,18.273629831877393,-31.788400491629268,-25.211430339810985
1698924232820.0,0.01666666753590107,-0.9018019057784229,1.431621533614397,-0.8044827374726533,0.2684497880797833,-5.428702042278647,-7.7136688362121575,32.216848012980414,-31.73344137447276,-33.24187157719715
1698924232837.0,0.01666666753590107,-0.8499290952000766,1.8163520878404378,-0.948624081903696,0.33309323290400206,-5.1243397407531734,-7.774870616149902,46.67669999535591,-35.14105348724339,-43.10910094656149
1698924232854.0,0.01666666753590107,-0.9797813636463135,1.848786038455367,-0.7988578833281993,0.2226606082640588,-5.164591087120771,-7.546972545623779,50.151019150655465,-36.63871931183584,-48.110749438018864
1698924232870.0,0.01666666753590107,-1.0860799572214483,1.7424346187144517,-0.6651210285335779,0.14200623209849,-5.341612956890463,-7.334337510681152,47.73966867550665,-37.033978944009895,-49.297201108174264
1698924232887.0,0.01666666753590107,-1.1293129497483372,1.502592427894473,-0.4048854535043239,0.13572130661010742,-5.66273525455892,-6.979696974292397,40.43454913174624,-37.372414817384026,-49.698922099303154
1698924232903.0,0.01666666753590107,-0.8697750015944242,1.4836322913587092,-0.33057635471224783,0.421978042602539,-5.726480873760581,-6.851008050537109,30.84255248027132,-40.01061295034189,-48.8980038719437
1698924232920.0,0.01666666753590107,-0.7622298420242964,1.4429980831533669,-0.3744833009779453,0.5482720340453088,-5.7953135869681836,-6.859836669158935,21.477876477205474,-43.4020784959146,-45.3306746156215
1698924232937.0,0.01666666753590107,-0.4563235259272158,1.301694007974863,-0.4821399580985307,0.8523356448851526,-5.955725682720542,-6.94647684173584,12.54666647698344,-50.33638706963502,-36.50119686799222
1698924232954.0,0.01666666753590107,-0.37598566836491226,1.3088204988539218,-0.3568295708656311,0.9072526454649865,-5.954678219494223,-6.819435100665688,7.915852861228156,-53.50907141080848,-29.620870694376986
1698924232969.0,0.01666666753590107,-0.39652854404747484,1.4467647422105072,-0.2665811446636915,0.8469485450193286,-5.819105965965986,-6.7342901350826025,6.203550049515346,-55.80103700945464,-26.8235820877239
1698924232987.0,0.01666666753590107,-0.5737330769076943,1.9154834931999445,0.08659574891328811,0.6151601890563965,-5.355229978832602,-6.385934378051758,9.611069954732178,-55.87598809031177,-31.680603031053543
1698924233003.0,0.01666666753590107,-0.3952807359434664,2.190354327303171,0.3014601503431797,0.7697359068054705,-5.090221782574058,-6.1643216714054345,14.924933223340002,-52.169661069285226,-40.0429060847377
1698924233020.0,0.01666666753590107,-0.22063626282960175,2.178632909849286,0.3369517349630594,0.9442132066588849,-5.117455826458334,-6.111349959674477,18.702944787253127,-45.69236045293035,-46.1446316741065
1698924233037.0,0.01666666753590107,0.03322561244927347,1.6471347543418406,0.36717853092253205,1.2271779153686015,-5.672311476677656,-6.049250354114174,18.631683716095093,-34.70762334289272,-45.96781173687321
1698924233053.0,0.01666666753590107,0.1447228706460446,1.0119313096880913,0.10658405945301055,1.3676875522337852,-6.323983241051435,-6.285527545928955,16.65210023423405,-30.37234176724013,-40.26260936467492
1698924233070.0,0.01666666753590107,0.1606366982884705,0.8229869469344615,-0.04886310736835003,1.404199127551168,-6.52479690529704,-6.423343194469809,11.489821061423612,-30.462531000135563,-33.316569941055
1698924233087.0,0.01666666753590107,0.15187106190025806,0.7114379585504531,-0.2241957088768482,1.3949217422485352,-6.639120619091391,-6.595577245441079,2.2166920047941523,-38.63674088936133,-25.54709657147668
1698924233103.0,0.01666666753590107,0.013875819008797407,0.9406295760184525,-0.1192740296781063,1.2318166810851543,-6.400597694176435,-6.506243595996499,-3.932904032589736,-46.16848952487735,-22.68145826179927
1698924233120.0,0.01666666753590107,-0.08971987228319048,1.0291460638612508,0.14514555303752422,1.0908579122129827,-6.294803908318281,-6.268618496704101,-7.910242714598636,-50.252064969236635,-23.426503834200723
1698924233137.0,0.01666666753590107,-0.36082112471982836,1.1996049218535423,0.7485650354176759,0.7769182925902307,-6.095636842235923,-5.705532778277993,-7.198121215317583,-42.44048348342518,-27.203060567820636
1698924233153.0,0.01666666753590107,-0.7075598019428551,1.058543423259258,1.2452443910002708,0.42362391011342404,-6.219237502941489,-5.229684613800049,-3.587159429916867,-31.05646375979236,-30.95989513021214
1698924233170.0,0.01666666753590107,-0.7353401545982807,1.023603042781353,1.2536153289824723,0.4125507274352014,-6.241832196587324,-5.232228453063964,0.1556874920238293,-22.571920810532482,-33.59725314990209
1698924233187.0,0.01666666753590107,-0.6387387061078101,0.7235615270644425,0.8836720095217228,0.5491698596678674,-6.532129732403159,-5.6058735496521,2.3985816499388846,-19.656278685941412,-33.38123134192751
1698924233203.0,0.01666666753590107,-0.7008231871642172,0.5453057315856218,0.34867958215773104,0.5144539355956018,-6.702267103356123,-6.144868198394775,0.04170758967133083,-25.269384494918544,-35.547675139101756
1698924233220.0,0.01666666753590107,-0.8192563821040093,0.5368856937646865,0.14168518345057962,0.4188353606626391,-6.694635585564375,-6.365434610858559,-4.411779694356731,-32.05319326537232,-40.9243761480737
1698924233237.0,0.01666666753590107,-0.9392650096669792,0.4707534716874361,-0.19785189183056354,0.3369837375365197,-6.731147745403647,-6.730400726428628,-2.166880715837719,-32.6166326454796,-48.99528284119761
1698924233254.0,0.01666666753590107,-0.7732949875265359,0.1593067648589611,-0.4224018209725618,0.5473742084227502,-7.027728307011723,-6.9624880653381345,5.15894006407995,-28.25042055817061,-53.69666597145746
1698924233269.0,0.01666666753590107,-0.7240789750672877,-0.06987023956179618,-0.4728711944937706,0.6548141540527344,-7.251587331280112,-7.006780796051025,10.577959217601999,-23.105718877189197,-54.2377262367492
1698924233287.0,0.01666666753590107,-0.5935403317920863,-0.5186462727189064,-0.6336719973027706,0.8638577403746545,-7.698404631584882,-7.152677459716797,8.266904947772947,-23.753673310538918,-49.21112364915918
1698924233303.0,0.01666666753590107,-0.5291103835880756,-0.704067722043395,-0.7845721683442592,0.96890333821401,-7.873480627983808,-7.305757312884927,0.25280725917313646,-31.406831973646508,-43.856098245518275
1698924233320.0,0.01666666753590107,-0.4922315823934972,-0.6547913576990365,-0.8616916483819484,1.0238203387938438,-7.799560236248373,-7.4057152321964494,-9.5475056529951,-39.4997216306141,-41.182991015712474
1698924233337.0,0.01666666753590107,-0.44397243226766586,-0.42710196148753166,-0.8319926756888627,1.0772408172056078,-7.517642406243086,-7.433547241973876,-17.418768478000473,-43.46124842469442,-41.34610276328155
1698924233353.0,0.01666666753590107,-0.4685698440380394,-0.27966566716432567,-0.7817027503877878,1.057339015905559,-7.324011346977949,-7.431452900043129,-16.000600932705094,-39.98079234442561,-42.70056342664093
1698924233371.0,0.01666666753590107,-0.5428317426875233,-0.31281331900656223,-0.7148299390763044,0.99927962564677,-7.313836574444174,-7.406462835693359,-13.695307073667301,-33.22622019871407,-44.812054936847844
1698924233387.0,0.01666666753590107,-0.5923480532675981,-0.24292495926618574,-0.6877303352266549,0.993743180438131,-7.186644611248374,-7.428609785571694,-14.246505901008268,-26.752703507159385,-47.9723254092048
1698924233403.0,0.01666666753590107,-0.503740087749064,-0.18463935903608797,-1.000803181952238,1.1258731845580041,-7.0811495160758495,-7.779659019470214,-15.872555376334864,-24.405865876268635,-49.8634067148954
1698924233420.0,0.01666666753590107,-0.2934931169867515,0.019232523736357688,-1.5358926399499178,1.3976150729857384,-6.81210168903768,-8.365490822711587,-13.264841231416417,-28.49701770796475,-52.101789479502806
1698924233437.0,0.01666666753590107,-0.23154884811863302,0.1289022742450237,-1.80991357922554,1.494280965014547,-6.661116762322187,-8.671948635211587,-6.207133337508664,-37.32846938026416,-52.96421356033822
1698924233453.0,0.01666666753590107,-0.17339359626993536,0.4936088620960712,-1.967920951923728,1.5720923728391527,-6.26966537540853,-8.851363537597656,3.467366022724483,-46.27558347596857,-54.452603988037794
1698924233470.0,0.01666666753590107,-0.4337758862935006,0.8883493536829948,-1.565529068800807,1.3227962711058556,-5.866242395672201,-8.454674250030518,17.699796611400647,-52.96944207014786,-57.69590565504001
1698924233487.0,0.01666666753590107,-0.6203812847055494,1.0007336238473654,-1.320952250674367,1.1426327423095703,-5.766733389171957,-8.195801780048011,26.311941154734704,-55.55302942559689,-60.77594531031141
1698924233504.0,0.01666666753590107,-0.9968730028964579,1.2512936080366373,-0.7587707876116037,0.7785643062315881,-5.538236183708906,-7.608623822894692,30.10319133280661,-54.8780086601137,-65.74125378028972
1698924233520.0,0.01666666753590107,-1.38705144726485,1.3273375677973032,-0.2616086169481277,0.4243720981322229,-5.488108170971274,-7.076212644195556,26.23314809246944,-52.03309826701999,-71.12846303529973
1698924233537.0,0.01666666753590107,-1.526483006569743,1.3177660218536853,-0.20425532913208005,0.32201983103007076,-5.50352084415853,-7.003039855957031,19.406128130231572,-53.765766995290484,-75.54947373031975
1698924233553.0,0.01666666753590107,-1.719418630916625,1.1854413719445467,-0.3119038029462099,0.16983838800638912,-5.625774181908369,-7.109581829833984,12.062133711036383,-55.86923644831722,-79.76360482556923
1698924233570.0,0.01666666753590107,-1.7562261204406617,0.8899977054119109,-0.6594295388936996,0.19378055073842404,-5.888987311443686,-7.472154328265786,8.73116058962153,-56.33865827449927,-82.73395164277022
1698924233587.0,0.01666666753590107,-1.6716830662734805,0.7830664399564266,-1.0067904396682976,0.32261852757558224,-5.970090892681479,-7.832332040515541,10.455545152202445,-60.71722617401681,-85.31846107375719
1698924233603.0,0.01666666753590107,-1.5350160032458602,0.862796394753456,-1.5705331606984139,0.4988914786741137,-5.8626510931819675,-8.411728842273353,9.736858987355363,-68.60618345784074,-90.21145150080342
1698924233620.0,0.01666666753590107,-1.3282961836963891,1.053154131436348,-1.6904221074044703,0.7469904795773327,-5.6248769408077,-8.565555714416503,7.893380685085167,-80.35158166026977,-99.55070383223119
1698924233637.0,0.01666666753590107,-1.196672521663457,1.074463461446762,-1.5418927571475505,0.9081503249570727,-5.5630766104549165,-8.44719236984253,10.114979967354563,-84.59640079546013,-105.12588672338912
1698924233654.0,0.01666666753590107,-0.9463333406180143,1.043851465561986,-1.3822270958483218,1.1991956104002892,-5.549459588512778,-8.317307514300943,20.15178500456374,-86.86580627927773,-110.57950590769916
1698924233670.0,0.01666666753590107,-0.691901337300986,1.0979174022704363,-1.2205676303833721,1.4909886454708874,-5.476435853356123,-8.161983097076416,28.99899904592025,-84.80693454643661,-113.95610554654334
