msFromStart,interval,accx,accy,accz,accGx,accGy,accGz,rotRate_alpha,rotRate_beta,rotRate_gamma
3,0.01666666753590107,0.19112057428155094,0.8774348686978221,-0.900719590434432,0.5096657149383798,-2.59830735168457,-10.065223194774985,7.358399288154748,-22.342918228040297,17.71277226327638
185,0.01666666753590107,-0.02725523280277848,0.017505699943751094,0.33878538013100623,1.6897078216552734,-2.2150854484558105,-9.054721041107177,-0.9810356518579755,-4.393556749651137,2.9988167532089007
202,0.01666666753590107,0.004521276816725731,0.0031235388480126856,0.45528351535499095,1.7106569400511682,-2.2273554397031665,-8.940697187042236,-1.860581736282143,-3.9296763413200817,3.013834204759643
219,0.01666666753590107,0.08499109019562602,0.0048820729531347746,0.3811304839074611,1.7784427745543419,-2.220472402191162,-9.018359103393554,-3.1381220898693076,-4.906609397364407,3.7956671760307854
236,0.01666666753590107,0.10671031618118286,-0.052848669873178,0.33349487250745297,1.774552196856588,-2.268655564471334,-9.07282660664022,-4.58790295229468,-9.311623362461416,3.2099336315857636
252,0.01666666753590107,0.11903276826813816,0.041128421463072294,0.0838075794994831,1.7552490921020507,-2.1604675769530237,-9.331400970458985,-7.880092552054907,-15.715293685789906,0.9582704179109115
269,0.01666666753590107,0.12005772740170359,0.01632715768367052,-0.0748281542301178,1.7121534622192383,-2.163161053820699,-9.502736026763916,-9.440455244359844,-19.38390269467235,-1.1400695630491409
285,0.01666666753590107,-0.1784226764783263,0.19439502937495706,0.03617138357758522,1.5456068092346191,-2.099415434619039,-9.34127705230713,-4.930098844806904,-19.098590325115286,-0.4530364691674552
302,0.01666666753590107,-0.3526433712221682,0.2316667754098773,0.19782558834552763,1.395071379852295,-2.0660462489806113,-9.17428148651123,-2.7778439118597094,-18.407482756589424,1.3807560378902815
319,0.01666666753590107,-0.44192762856706974,0.27466829726845027,0.4176952507168054,1.2698245593748987,-2.018760912322998,-8.962095364379882,-3.807255018844535,-16.015985933810548,4.407229507709033
335,0.01666666753590107,-0.5539250913709401,0.37965193578749895,0.5014245042830705,1.1239280418395996,-1.8924667747497557,-8.889670764160156,-4.836480856948124,-15.575069902129544,4.106073233711654
353,0.01666666753590107,-0.7983945036001503,0.41495033592283725,0.6003215163648128,0.8381202186584472,-1.8290202846251427,-8.80482624282837,-4.498544441157049,-15.517894388587367,1.7297608819530674
369,0.01666666753590107,-0.6302285788506269,0.37202085638716814,0.44827275981009,0.960523924664408,-1.8565536037169397,-8.968380143737793,-8.223197713500388,-20.607788924121305,-2.746676478016472
386,0.01666666753590107,-0.7461644040167331,0.2525816992752254,0.5085135857611894,0.790385823059082,-1.94573761555776,-8.924237050628662,-6.733620967319349,-13.180391918744734,-7.58116676170836
403,0.01666666753590107,-0.38595264336690305,-0.3480341238610446,0.9109159902781248,1.132607022857666,-2.529773183032125,-8.528595226287841,-4.910879973142957,-4.492168032680019,-4.713488786790058
420,0.01666666753590107,-0.2961471386268735,-0.6379730554975569,0.815369457668066,1.2243348739624023,-2.803759635516256,-8.627505682373046,-4.789050315804263,4.464262867939109,1.6082061397284662
436,0.01666666753590107,-0.41210400658100843,-0.7729853370554745,0.7548433850347995,1.1234789828978478,-2.928407759448141,-8.687959274291991,-4.6578914738329775,8.949628459092619,5.245477280203542
453,0.01666666753590107,-0.6321713834814727,-1.0776397533953188,0.5085550868153572,0.9036614891052246,-3.219004132080078,-8.937405159759521,-6.16811502810132,8.756482662195706,7.000344550163401
470,0.01666666753590107,-0.8534161335982382,-1.2106329502157867,0.3514531385242939,0.6735187083922326,-3.3337760280333457,-9.100061235046386,-10.84578886420477,7.1289561584610945,5.566381765525543
486,0.01666666753590107,-0.9328419908821582,-1.2999533017873763,0.3204910140275955,0.5985504150390625,-3.4097919307433067,-9.133280783081053,-16.671460405436452,4.762851417695386,3.9837492414317803
503,0.01666666753590107,-1.0758531622394918,-1.4076549670934677,0.26714345472157,0.4493617240905761,-3.4980781169615685,-9.191938723754882,-25.684958817231507,-0.2664604071175953,3.4980438173815953
519,0.01666666753590107,-1.0733433713756502,-1.320133043245971,0.2237684233754873,0.4355949184142053,-3.371783979388326,-9.246406811523437,-31.343857629498988,-3.0905957126336547,3.947994908674056
536,0.01666666753590107,-1.0251859280586242,-1.2439995055057107,0.24738193867504596,0.4722562774658203,-3.2184054355345664,-9.241019857788086,-31.70360369308356,-3.9486962837244515,5.0846527922327756
553,0.01666666753590107,-0.9404738009348511,-1.0622482691265642,0.3164566439449787,0.5412392127990723,-2.9444189830504355,-9.19313582458496,-24.52684901703707,-3.625246272276151,3.876306096919248
569,0.01666666753590107,-0.8675112944461405,-0.7895850280702114,0.47085868562757965,0.6042366439819336,-2.6207528461180627,-9.050231912994384,-17.80593262846077,-3.1074086501624643,1.9617400395412055
587,0.01666666753590107,-0.760579298338294,-0.7166958790786564,0.5750292541980743,0.7029974624633789,-2.5103202945433556,-8.954463846588133,-13.163332667518981,-3.2969158772224647,-0.6723905023225005
603,0.01666666753590107,-0.6563222205281257,-0.7339704006150365,0.6878630216956139,0.7959224143981933,-2.4886228419981897,-8.850615349578858,-10.085795422804743,-3.844226832821814,-1.5371825243657944
619,0.01666666753590107,-0.751613170941919,-0.7427882055819034,0.8747808470577001,0.6928221054077148,-2.476801471301168,-8.668656023406982,-5.709310730984053,-2.397662349165283,-1.7789458212182698
636,0.01666666753590107,-0.8256902145437895,-0.7178884498640894,1.018752095618844,0.6194996795654296,-2.4437315608702597,-8.526051387023925,0.31765966521856953,2.110867401671502,-4.107897747993694
653,0.01666666753590107,-1.0518633609734476,-0.8056539732091128,1.1631821938633917,0.41464580001831053,-2.5447369434081017,-8.375964870452881,9.097024795155141,8.778110456202551,-5.983172288397593
670,0.01666666753590107,-1.5080696902617812,-1.1923806696884334,1.1287363189041615,-0.01227028350830078,-2.956539775085449,-8.40125362548828,11.779779667163579,12.420413845270339,-5.126528682034124
686,0.01666666753590107,-1.6482405236266553,-1.4338435935780405,1.0142278961926698,-0.11896189498901366,-3.221847100421041,-8.505999948120117,8.003277575057027,12.268055376775804,-3.399029126304859
703,0.01666666753590107,-1.6003635046862066,-1.6520082055971026,0.7244546765118837,-0.04459215205088257,-3.4620156005859375,-8.787318643188476,-3.6197471162206445,10.954097735194601,-6.453228468398809
720,0.01666666753590107,-1.393417182904482,-1.8124097799554466,0.1423538764923811,0.15532383270263672,-3.6370914508543906,-9.367762908172606,-8.296308912149852,8.067647839116164,-8.992253962155376
736,0.01666666753590107,-1.322342389858514,-1.9063756192453205,-0.18760639214813707,0.2232593048095703,-3.729866765185445,-9.698462597003578,-7.521487130061728,6.192860376577453,-9.729503727392906
753,0.01666666753590107,-1.14516474500522,-2.0090214624665674,-0.8143740168899297,0.3413233741760254,-3.881449657794088,-10.325144297027586,-2.149266084855079,2.393027212039783,-8.527987221249392
770,0.01666666753590107,-0.8551844584450126,-1.8011625558845699,-1.2641706252664326,0.5924152732849121,-3.7186439449034627,-10.771962181854247,3.3164472300409393,1.199912052018796,-8.865220981329601
786,0.01666666753590107,-0.7952130970850586,-1.6891748838223517,-1.4643220262110233,0.64329191243276,-3.6323030475340783,-10.96828671798706,7.16470792989788,-0.804736996796575,-12.98443293768342
803,0.01666666753590107,-0.7859579236142337,-1.4260298510871827,-1.6538135014533997,0.6555621959410607,-3.3940799823485315,-11.152191333007812,13.779060560817289,-4.6633948987567155,-20.744879358499922
820,0.01666666753590107,-0.552013704791665,-1.407729201373458,-1.6286930887222288,0.8885480911254883,-3.4094925094053146,-11.120168885803222,20.541732457110818,-6.409779073767418,-28.205011753021072
836,0.01666666753590107,-0.4370512547023594,-1.430733937124908,-1.6031401297926902,1.0013745520994066,-3.474884142248332,-11.085901874542236,22.966791121923844,-8.706939031277372,-33.26294612588123
853,0.01666666753590107,-0.15045184275209902,-1.5126612558357417,-1.4914368276298045,1.2750618755064904,-3.6213795024596154,-10.96200193862915,27.57531612287009,-13.577820135980266,-34.254324178246485
870,0.01666666753590107,-0.11676029329150915,-1.4989349283002316,-1.1723398983091116,1.2925696212768554,-3.6736030261717736,-10.63040500869751,36.43942122204404,-14.296066607399528,-33.960762647719335
886,0.01666666753590107,-0.012334873177111148,-1.2349594360902905,-0.9784317756682633,1.3845967475891112,-3.499724276733398,-10.417171423339843,46.95589080786935,-11.247897468569054,-35.115218296707816
903,0.01666666753590107,0.17725757822170854,-0.8506893389828503,-0.633480858644843,1.579873674365133,-3.270179900304973,-10.032902056884765,57.862992572706034,-4.36818259688454,-38.86719147195756
920,0.01666666753590107,0.5681681362569332,-0.48180794966518875,-0.7806669775992632,1.9856908557616173,-3.0343513290405273,-10.142586420440674,61.64919865607588,-5.273767496858912,-40.990512869806935
936,0.01666666753590107,0.5966757072083652,-0.35182226409763095,-0.9415841002643108,2.026242792510986,-3.0362963256284594,-10.264690705108642,57.978532052705965,-7.395431720060911,-41.14404869215965
953,0.01666666753590107,0.8416334874764084,-0.23777532141804694,-1.0419997002154588,2.286761860656738,-3.067121964263916,-10.319757343292236,42.60179547614796,-6.086967258119691,-35.69552482897044
970,0.01666666753590107,0.9510881339296698,0.1909413817897439,-1.4727730436921118,2.404077595873922,-2.7169699714660642,-10.724975974273681,33.61177754717212,-8.50844519626034,-30.34175276504223
986,0.01666666753590107,0.8442996379457414,0.2139931715533137,-1.5646476097911595,2.2924480895996093,-2.7593177055910227,-10.796802024078369,29.71723100318753,-12.71387463050723,-24.32337768166239
1003,0.01666666753590107,0.580253710848093,0.20672756446450946,-1.2771253839075565,2.0078372211180624,-2.8476035995483397,-10.486004136547445,27.60979491780031,-12.898528794718525,-19.157551933125422
1020,0.01666666753590107,0.6887715148426592,0.6100862467929721,-0.8307552428483963,2.1019592738829553,-2.500892979376018,-10.02287633743286,24.743741674130824,-10.945064810017259,-14.880431125802785
1036,0.01666666753590107,0.753739369315654,0.7516837519600987,-0.7080033079266548,2.1531351882383225,-2.4091651282712814,-9.885209157451987,20.090758971876973,-8.699960285492912,-9.655525948492498
1053,0.01666666753590107,0.702278354408592,0.9591273557394743,-0.38445465989410876,2.089988265582174,-2.250250285339355,-9.546580429187417,11.8837633208615,-1.7965452977186886,-2.1116810479563797
1070,0.01666666753590107,0.4160578587733209,1.0834335343658923,-0.056498132291436194,1.8068740653991697,-2.1472996139526366,-9.210643424224854,5.755055922950214,5.003808538782389,3.9194622203031506
1086,0.01666666753590107,0.3202377699188888,1.3006453757047653,0.005114566534757614,1.7269674388609826,-1.9385548644468187,-9.143605777740477,-1.0856107572493368,13.103850257584632,10.536698044825952
1103,0.01666666753590107,0.36841786345914,1.6618328495189547,-0.145071318757534,1.8023847911559043,-1.566107160949707,-9.293542656707762,-11.27750804616835,12.810625113874107,22.836117650270456
1120,0.01666666753590107,0.6178928288906812,2.026276694780588,-0.5114215821623802,2.0522797355651856,-1.1794435928344726,-9.667636666107176,-14.69691589563559,7.11129158172015,33.40440958887594
1138,0.01666666753590107,0.6519561342731118,2.1913345705121756,-0.4952116211175918,2.0663455241881308,-0.9995791931152344,-9.65970587310791,-8.47663700529559,2.879446817745057,40.78612628908347
1153,0.01666666753590107,0.6950050024047494,2.7168285171687603,-0.07466916427612304,2.069637697601318,-0.4878188805177808,-9.240421307373046,4.305293630101647,3.695595086293167,44.83697146694005
1170,0.01666666753590107,0.61647770139575,3.064674278850853,0.5530348645329475,1.9668365176878868,-0.17836831594258545,-8.602815477752685,13.73826213335751,7.682885353922775,44.74747549824537
1186,0.01666666753590107,0.5400583324514329,3.0595605890989304,0.7477028656303882,1.8725648273192346,-0.24061697458475828,-8.390329495891928,19.946689791713894,9.900605942517249,44.46052217574021
1203,0.01666666753590107,0.30573432053104044,2.859872714012861,1.2263403685659169,1.6213231444761156,-0.5336074027463793,-7.879916213989257,24.13144765843774,13.204575057274809,43.171351290656986
1221,0.01666666753590107,0.04989800337404012,2.5863296213820575,1.7017308524042367,1.3557165439330041,-0.8834604125976562,-7.377133865356445,25.084218066519497,15.692077872801033,40.28309651709037
1237,0.01666666753590107,-0.09626929392665624,2.425078444457054,1.9332360075116157,1.212812632342428,-1.1139026146486402,-7.11841044845581,20.630016067227817,20.273948060511298,36.37638199109941
1253,0.01666666753590107,-0.14239552367702127,2.015176916356385,2.162465034380555,1.189918225097656,-1.5849617912843823,-6.861632320404052,6.795952419911239,21.770533007667595,34.38857154638308
1269,0.01666666753590107,-0.052093467591702934,1.4263354099050163,2.1233476604789496,1.2978067912779747,-2.186504666137695,-6.893056217193603,-7.184058709590173,23.1502021917062,37.42169804734025
1286,0.01666666753590107,0.14729878554865716,1.212477555169165,2.151070364663005,1.512087839861959,-2.3841759407043455,-6.86956252888143,-17.457521263803834,21.406176566393263,43.03132899757714
1303,0.01666666753590107,0.10666574638709425,0.61672027797997,1.8232424318760632,1.4763245986938476,-2.9402295685365796,-7.212382863616943,-20.466081281863758,19.908606364449195,50.40052596103603
1320,0.01666666753590107,0.006677578067779541,0.2648798937037587,1.7983190030217169,1.3739724777221678,-3.264942876434326,-7.248295888519286,-17.910706022781472,19.530014101397263,53.40971947914147
1336,0.01666666753590107,-0.018502602026611567,0.22366847013235092,1.7924954114347695,1.3485340850830076,-3.285443228149414,-7.262212185668945,-16.103318440085623,22.232363078587177,53.037624433537516
1353,0.01666666753590107,-0.08148089011758565,0.12004998248666524,1.7938585164815186,1.2955622272215783,-3.358316448919475,-7.271189857372641,-19.9074657228578,21.920908159981888,49.42649658916261
1370,0.01666666753590107,-0.12495076014026998,0.01584960329979658,1.4772212552726267,1.251868193054199,-3.42849677734375,-7.6008420829772945,-23.177241203082986,15.519663407582401,45.77277910021808
1386,0.01666666753590107,-0.12429010427445172,-0.14759849914759396,1.4598065946131944,1.2499229042053221,-3.551049974822998,-7.634062215533852,-24.07025940875818,16.998860400659137,44.49094042320886
1402,0.01666666753590107,0.0783298787407577,-0.41107495579421516,1.1160632998138666,1.4541782333374023,-3.7761049308776853,-7.991845141601562,-11.391650752483018,17.547493638193117,47.20783599578361
1419,0.01666666753590107,0.018889701648056506,-0.5729261444389819,0.5450251610785722,1.3899838474549353,-3.948038537597656,-8.559869485473632,5.669121897907698,12.888212647750867,47.54907566181203
1436,0.01666666753590107,-0.013550094185769556,-0.5626408972680569,0.39319969188570975,1.336563222912699,-3.9860464889526366,-8.696787892913818,19.802610366267057,4.754935655334165,46.18189718621809
1453,0.01666666753590107,-0.3130998808629811,-0.6359922569438815,0.6051321315169335,0.9846152866087853,-4.154388793182373,-8.456170626068115,25.174803450386793,-4.081409420618738,41.8223581937282
1470,0.01666666753590107,-0.5969724981978536,-0.9347405179798602,0.5284311691522598,0.6411971321105957,-4.515464331054687,-8.51677385559082,16.389892687091848,-12.48601183583279,36.11754172721802
1487,0.01666666753590107,-0.6445999262914062,-1.265842942392826,0.8320978896290063,0.54019182263799,-4.8843213165834545,-8.205228364562988,5.99348160517608,-3.4320693126411497,32.2588741669435
1503,0.01666666753590107,-1.075852869978547,-2.0649986396238207,0.6786228996634482,0.09083002548217772,-5.689969882965087,-8.358457270812988,-9.818184342255412,19.042973802251165,39.69755122973435
1520,0.01666666753590107,-1.072703246841207,-2.241993913647532,-0.6579577127754688,0.11177921694330871,-5.851877770233154,-9.698761287689209,-13.916539462204952,31.085802837372153,46.52185619177713
1536,0.01666666753590107,-0.9757003048777579,-2.70267373508811,-2.111662483382225,0.25139117431640623,-6.300491306304932,-11.151592782592774,-5.371828522772785,30.774356456503327,49.73863281913761
1553,0.01666666753590107,-0.817323075953871,-2.37455324909538,-2.741965881034732,0.4242224605284631,-5.988496610204876,-11.773486663818359,5.86403884823376,18.696809569831164,43.78760510852138
1569,0.01666666753590107,-0.6734510499835014,-1.8231857332527637,-3.2797184207618235,0.5590460876464843,-5.476885935211182,-12.29647008895874,15.954049778416872,5.810092306621708,33.62740160489852
1586,0.01666666753590107,-0.7670039976235479,-1.7501485540926456,-2.991732084497809,0.4294599227905273,-5.473593615667522,-11.984774960327147,18.65288291573152,-5.3091132989269045,20.359497887413
1603,0.01666666753590107,-0.8045160552203655,-1.7802026238337159,-2.7605320498168466,0.35643691828623414,-5.549609810638428,-11.739070014953613,14.989435822314311,-10.115551141923904,13.626746488552358
1620,0.01666666753590107,-0.9590781097702682,-2.0311746959552166,-2.459627779790759,0.16699549273066222,-5.83526799621582,-11.42797343673706,9.868609067576678,-6.999194943948724,9.892797328748632
1636,0.01666666753590107,-1.0015481551006435,-2.1570570378571747,-2.2937714471578596,0.09741400698237121,-5.994183423669636,-11.251401064300536,6.944409569729228,0.3794888854630521,7.001750715358778
1653,0.01666666753590107,-1.0854327453590928,-2.2113255114004016,-2.3110709570050236,0.006883402838185429,-6.07768091430664,-11.256937655639648,11.153801367468372,4.664315266747375,7.629243609502434
1670,0.01666666753590107,-1.0305796037957071,-2.2226409784018992,-2.3532032948136328,0.059256491088867186,-6.1270613235473625,-11.282824961090087,15.444649147475443,3.601723954548273,11.32048188887878
1686,0.01666666753590107,-0.8047843507677316,-1.6933111068442463,-2.5014134961187837,0.24555538083501158,-5.664531490325928,-11.406275984191893,23.405523200617736,-15.979381242501157,18.924620284313185
1703,0.01666666753590107,-0.8182963049001991,-1.261683776886761,-2.1985838109880684,0.15682013567499817,-5.301510663604736,-11.081113471221924,30.43508730005045,-29.31125821930031,20.30221138329681
1720,0.01666666753590107,-1.160789599638432,0.070446870405972,-1.045859882774949,-0.2834136215209961,-4.0538323234558105,-9.899724589538573,38.135087400485986,-37.428610198780305,12.760514577254662
1736,0.01666666753590107,-1.88365145400092,1.021160033543408,0.15667232470214365,-1.1297638353209942,-3.234267167663574,-8.646360020446776,43.92126508038937,-36.50291466056848,-5.111976537120588
1753,0.01666666753590107,-2.3157814727835357,1.2731468356654048,0.5592360572606325,-1.6214731474060564,-3.0792429024294017,-8.201188149261474,41.28873258934803,-24.734751437635797,-18.032348276804814
1770,0.01666666753590107,-2.9250340452313424,1.2145055538654326,1.0128040008693933,-2.2415712312560525,-3.221398626001179,-7.706486231231689,34.77483240432564,-5.087824134441777,-23.99920665836983
1786,0.01666666753590107,-3.105647217491269,0.7380190914839506,0.26069267114698885,-2.3808839864868667,-3.7961563697814937,-8.404545652770995,34.35130944936608,6.105702893899859,-21.88789444062863
1803,0.01666666753590107,-3.13557824537456,0.7317445412591099,-0.18876608357727526,-2.3751976114135234,-3.8760631424501537,-8.812008847808837,33.60849905637051,3.1027461922802844,-21.141964358729663
1820,0.01666666753590107,-2.989344897100329,1.0229919251456856,-0.6989993327379226,-2.208501466955617,-3.670460782623291,-9.274089768218994,26.196628778524673,-14.798059044412431,-27.90987074124836
1836,0.01666666753590107,-2.6212568501174447,1.4391589433819054,-0.6480225942164659,-1.856404039178416,-3.2983120620727537,-9.20031784504354,18.28862380465286,-32.086968550818035,-36.897788387054426
1853,0.01666666753590107,-2.4470433157667517,1.645268960469961,-0.40308629512786864,-1.7212813560485838,-3.116951286315918,-8.945036677551268,11.326110818528516,-47.23103131820498,-46.669787843915856
1870,0.01666666753590107,-2.2190200114257634,2.0129542718708513,0.45266719537675376,-1.5667057844299823,-2.761262702178955,-8.08851103363037,4.570864191636437,-54.909106511404765,-58.47973133400151
1886,0.01666666753590107,-1.8427476350739598,2.2165306788280605,1.0124404282540083,-1.2401966060914098,-2.5495254928588866,-7.536946826171874,-4.09339640261211,-52.508732150252165,-63.92664327254659
1903,0.01666666753590107,-1.6462578253768383,2.222709951984882,1.037044123634696,-1.0838253101624549,-2.5125650047302246,-7.532158422851562,-14.674116724186087,-51.682316826721056,-65.72673962830345
1920,0.01666666753590107,-1.0543832348398863,2.1570684360340238,0.8261281675696373,-0.5669769537109881,-2.5154084114626047,-7.78205322113037,-16.8203431614171,-50.5958454656363,-56.307136951479656
1936,0.01666666753590107,-0.662238312704116,2.173313760653138,0.852484844097495,-0.2513913204468787,-2.470517130334675,-7.775169891357422,-2.4119912322703234,-51.4831450954289,-49.300930391461094
1953,0.01666666753590107,-0.5123761064082384,2.358136367301643,0.975280618160963,-0.16594824870005248,-2.2979849731996653,-7.6485764785766595,17.667850109105206,-55.076114881895336,-51.502693096833475
1970,0.01666666753590107,-0.9371034477189183,2.3702780559942127,1.5300567734032868,-0.6744168628083541,-2.3651722572878002,-7.053467728424072,37.14612381999233,-58.29989928334424,-64.22032091628962
1986,0.01666666753590107,-1.1756445658776908,1.9882894939526914,2.374775659674406,-0.9543888011765665,-2.8323408562257884,-6.162375798034668,41.03293517474188,-51.38356093733012,-73.93481701052873
2003,0.01666666753590107,-1.0702119414821267,1.8657006406381724,2.521386609089374,-0.8535331110414117,-3.0315085068300363,-5.972186403656005,29.8306667849231,-39.6932345501789,-78.49211730024716
2020,0.01666666753590107,-0.8332217790924012,1.210385259065032,2.027673702096939,-0.5925650752854533,-3.7409400939941406,-6.433818411254882,11.80997934857879,-34.71649575862457,-77.11271961622806
2035,0.01666666753590107,-0.6383832437336444,0.25142507658600804,1.1420131491065024,-0.3785833384416066,-4.712388002124428,-7.311592594909667,5.558019906434155,-37.61772447651962,-76.35372167489957
2053,0.01666666753590107,-0.6117132634729147,-0.163275668489933,0.6529939528882504,-0.3441667261094786,-5.134066769519448,-7.796268793487548,6.293005890848649,-45.50549330742797,-77.36941861580466
2070,0.01666666753590107,-0.24026041623204944,-0.35305063684880733,-0.14113164122104643,0.00014941840805113315,-5.341464488330483,-8.580818749999999,10.757349013510506,-64.54998682676947,-81.5967934478548
2087,0.01666666753590107,0.23586462895851582,-0.29328327362835405,-0.2639852829515934,0.4366422720426693,-5.299864649963379,-8.693944778442383,8.20028157506135,-66.40719039417681,-83.07466879932714
2103,0.01666666753590107,0.5353360531698912,-0.29297815320193765,-0.32346973757743835,0.6998547805234789,-5.300763060107827,-8.753500544738769,-4.539840618652593,-59.834075884144994,-74.23188925828926
2120,0.01666666753590107,0.7454096401266753,-0.7526917599588632,-0.38986324093937874,0.8632590803617611,-5.720944866943359,-8.844031295013426,-17.1482178547871,-45.60256737100678,-52.68179548344195
2136,0.01666666753590107,1.1075227043531835,-0.6380863066136837,-0.9235147750884294,1.1924618086332455,-5.569212921252847,-9.399785355377198,-14.995113417061884,-36.88618389565457,-39.02803559672219
2153,0.01666666753590107,1.3564518724702297,-0.05174012410938739,-1.402911571958661,1.4046478850988204,-4.952556063897908,-9.897031112670899,-12.112787247694843,-39.1562211719704,-35.44343962217819
2170,0.01666666753590107,1.7042914966724811,1.193309036579728,-2.119758696076274,1.6889593459421068,-3.6839281669616697,-10.627561309704184,-2.940292277305647,-46.676679504788396,-43.61450420929117
2187,0.01666666753590107,1.8769062175244091,1.807384645269811,-2.20639536152184,1.8146548372021876,-3.067121964263916,-10.715548805236816,-1.2650754717953026,-49.51244768967805,-52.39138950031135
2203,0.01666666753590107,2.0287346093267202,1.9210329440206289,-2.166004314422607,1.9237407690740655,-2.9524998520448804,-10.675295705303549,-0.10767709183181799,-47.4356774461169,-52.22698684698914
2220,0.01666666753590107,2.1909154683172702,2.050847949196398,-1.3402975871354341,2.0542246773541906,-2.8362311416625974,-9.841365339550375,7.8092984950813715,-27.43416172593531,-48.607905247325746
2237,0.01666666753590107,2.170419500516355,2.033731102439761,-0.748975369784236,2.0575167046369054,-2.8745383682250973,-9.23817615879476,7.921360555020124,-5.314660266306601,-46.19954981012799
2253,0.01666666753590107,2.3909170855276285,2.035247352221608,-0.7587409769952297,2.330754996501701,-2.8802245971679685,-9.24431130054891,-4.2986213890561915,5.025735153565423,-31.82353156962523
2270,0.01666666753590107,2.954095596803725,1.6596882387056946,-1.164819439676404,2.930801867493463,-3.2047885597229,-9.679906949615479,-31.416066389404364,0.6036779988593789,2.713826683203296
2286,0.01666666753590107,3.110115302816033,1.6220315850064158,-1.5003309127032756,3.05874175612987,-3.1494232308536767,-10.06776761856079,-50.54518595256231,-6.631383280728013,28.0377540806258
2302,0.01666666753590107,3.2031112741604444,1.9103505142256616,-1.345961604246497,3.0856765887387096,-2.7373206855773926,-9.980528311046957,-56.70557262161777,-10.67272040837311,44.5244151803311
2319,0.01666666753590107,3.138661598342657,2.607711139845848,-0.78309741961658,2.9086554861539975,-1.8757079476505516,-9.501838201141357,-48.37422057015752,-10.199279015864505,53.45803282223556
2336,0.01666666753590107,2.8957866156980394,3.3694662039652465,-0.29190204840302464,2.5822957262234763,-1.0139444030761717,-9.05876125640869,-34.183443890134676,-8.66664689158982,53.98334267130124
2353,0.01666666753590107,2.479560853011906,3.298546747611463,-0.0670066668242216,2.094028334753215,-1.02142628326416,-8.862436135753988,-17.976398782218656,0.48236754261931136,52.22978380945426
2370,0.01666666753590107,2.1598365855731068,3.38337256424278,0.6327712490707635,1.7188867159970103,-0.8955810585021972,-8.180089247131347,-5.952996939531299,13.700101012691004,51.94335299642061
2386,0.01666666753590107,1.7849501106217502,3.0969536234259603,1.2621511021375655,1.331325504922308,-1.1655272956848144,-7.558045728302002,-2.73803137951794,27.96146940533322,54.90726577542345
2403,0.01666666753590107,1.6700769462510943,2.7516385492652655,1.6547382150828838,1.2372033790921793,-1.5004162528991698,-7.171531797790527,-1.3475179895114722,47.458408315674696,61.586941481791214
2420,0.01666666753590107,1.411447929635644,2.246528049945831,1.935508628618717,1.0622770568296314,-1.9782094139650463,-6.9075710647583,-10.587390001298495,73.88180108219109,82.23374273890434
2436,0.01666666753590107,1.152961171035096,1.4938523643389343,1.9888117642611265,0.8927376152371987,-2.6880899139404297,-6.8776435440063475,-20.19052925263064,89.81418720810797,101.77345229382844
2453,0.01666666753590107,1.0364708537913858,1.2073995212525128,1.7768121046125889,0.8723869559247978,-2.9056632820680734,-7.124096677398681,-34.8123779541932,92.53078566745383,116.50316505031114
2469,0.01666666753590107,0.8665781052492558,1.0851160806253553,1.1676771671950816,0.7948747182764345,-2.877231845092773,-7.802553572845459,-58.71845327568262,75.67266985237926,127.57652727992426
2486,0.01666666753590107,0.9753525874186306,1.3076286587208508,0.9286936390310525,0.9265557776189874,-2.497601244354248,-8.109460298156737,-72.57158638427505,53.67927630983061,127.91852851204514
2503,0.01666666753590107,0.93268943066895,1.2734420192196965,0.9569652092695236,0.863259112327802,-2.348262915802002,-8.156147230529784,-79.27721339439428,34.55895061522905,126.92216783668036
2519,0.01666666753590107,0.6622395548131317,1.1971592822670936,1.5441256307661533,0.5342060170935001,-2.1698948921203614,-7.665485527801513,-75.50511848184968,27.995797936101702,126.16438566902413
2536,0.01666666753590107,0.45876894631795584,0.9517676406264305,1.928891840827465,0.29493555261371657,-2.237231521551311,-7.343315182384848,-67.61475417905672,31.550750889647844,124.24764334262179
2553,0.01666666753590107,0.27881096829744056,0.6692319709837437,2.0554075121968984,0.10130445681596174,-2.3603835617065427,-7.269843703460693,-58.94731242420224,40.89153659854428,123.80721908456103
2570,0.01666666753590107,-0.018249193521123377,0.0799412594601512,1.7933061432957649,-0.17402867930307983,-2.7682950850337744,-7.589319987487793,-49.65624366227433,49.77030782141354,127.78088653989104
2586,0.01666666753590107,-0.4784158595414832,-0.2364788518667221,0.8792781584769487,-0.6021418819260783,-2.9617770912170407,-8.540266959381103,-46.45374554537377,52.64906180184466,131.13852557359928
2603,0.01666666753590107,-0.7422638894468545,-0.22426818959116934,0.5354875174045562,-0.825101874995511,-2.8344354904174804,-8.917054445648192,-44.461215439940965,54.16765191095945,127.8818913773372
2620,0.01666666753590107,-1.1471406481880695,-0.005183540117740631,-0.23260639434754848,-1.156399525723877,-2.466326985168457,-9.725396781158446,-43.527596882291924,55.49584708186554,116.62150490787077
2636,0.01666666753590107,-1.7177514283567665,0.29012057181373235,-0.8175637528419494,-1.656787621893361,-2.073677620641887,-10.334870156750082,-33.08869433977586,58.10293028805941,106.45117564880337
2653,0.01666666753590107,-2.1448270863592622,0.24980741225630043,-0.8025602449774741,-1.9885341894287616,-2.0525788646422325,-10.333823278045653,-20.095128585398488,66.70285562296831,89.13622946128167
2670,0.01666666753590107,-2.505269879285991,-0.4954112353429198,-2.0520237149775027,-2.2025160176041534,-2.74854321359843,-11.591526753124594,-15.631261868431238,57.798235549185144,73.29477364378518
2686,0.01666666753590107,-3.2465511874362822,-1.3641205074019729,-2.513755675819516,-2.8479029478210953,-3.5776853221617637,-12.058995211791991,-22.103931616528843,52.98564669395372,67.1358691257796
2703,0.01666666753590107,-3.324419732275605,-1.5535856791593134,-2.6356536242604256,-2.834884512826614,-3.7065231528684497,-12.190526665496826,-33.11927651178459,48.19160863250806,59.122554587737255
2720,0.01666666753590107,-3.5488422356456515,-1.4286287815392016,-3.2624656726658343,-2.96357270592954,-3.459022556249797,-12.83875676498413,-44.88814665929637,31.56797662673462,49.69077368362333
2736,0.01666666753590107,-3.6643957834959027,-1.2152544725365937,-3.6303432917684315,-3.03494980639033,-3.1425391704283654,-13.225121057891846,-39.45459115567324,23.319993864283546,41.357693594303065
2753,0.01666666753590107,-3.5376559479817744,-0.799522484716773,-3.699242640471458,-2.87139583241567,-2.66070608632192,-13.304578625488281,-15.45608629924063,19.448586293659666,21.380636781539295
2770,0.01666666753590107,-3.1075007364034652,0.1212682722352445,-4.012513640117645,-2.3931542699951676,-1.7525554691039025,-13.61193426361084,21.95652418140892,8.77038465847762,-17.121100296234854
2787,0.01666666753590107,-3.194365073125064,-0.3227392313458025,-3.2753082031041383,-2.45181213760376,-2.265812303869426,-12.85880820388794,33.73374765027562,4.426801841662528,-36.694282900733896
2803,0.01666666753590107,-2.8030679999902843,-1.586702205210924,-2.9646774888336656,-2.029834168066457,-3.596389876501262,-12.53199967727661,8.107268912717762,-2.7309602127362727,-30.362188691038906
2820,0.01666666753590107,-2.5731144582390786,-2.0516788470625875,-3.1729332857787607,-1.8124104375425725,-4.053832177325338,-12.74283906097412,-7.644025846413634,-16.100685402160583,-10.56492380157103
2836,0.01666666753590107,-2.426977263815701,-1.328743927463889,-3.2785148901909587,-1.7197849800109861,-3.311480025073141,-12.856563639831542,-4.100094256866954,-27.669521506997487,-2.3719629086394636
2853,0.01666666753590107,-2.382713613066822,0.8894536616630851,-2.861044095879793,-1.7889174798827618,-1.112405800219625,-12.44281566543579,19.432847830264663,-42.12821064966679,-26.674878624208965
2870,0.01666666753590107,-2.4508488455295563,1.7718398691579698,-2.403672083812952,-1.9449896102020516,-0.2935888324461877,-11.97699438945353,36.452299543724095,-43.889217832803666,-59.708803384577784
2886,0.01666666753590107,-2.517704121184349,2.375129879939556,-1.7211165208756922,-2.09402862701416,0.2199675697878003,-11.278635108184814,46.7307746030149,-46.977170262228526,-87.23523072091622
2903,0.01666666753590107,-2.349365031825006,1.7203771006852386,-1.0406178904682397,-2.019359535803273,-0.5753564403258263,-10.569053591156004,46.59209102701237,-45.29996608511312,-102.34214750450204
2920,0.01666666753590107,-2.365449905185401,1.0448907454818486,-0.7683154455482959,-2.083254737809766,-1.343595898028463,-10.275464612579345,35.93526788393247,-37.918508932094056,-97.7193183798865
2936,0.01666666753590107,-2.4182032979905603,0.13478607158660888,-0.6012450609505177,-2.167500708726514,-2.3196818412229416,-10.092457823181151,26.285228284890785,-29.524343045931783,-89.28722445326315
2953,0.01666666753590107,-2.0238883383393285,0.30446926903128624,-1.0250766224652528,-1.7925089833023957,-2.215983274078369,-10.499472105407714,20.742512697952513,-25.683169307668965,-80.12024998327061
2969,0.01666666753590107,-1.6717935409106313,0.6204802150353789,-1.26057581564486,-1.4606127781632356,-1.947832688140869,-10.722581772613525,23.28965416399035,-32.23860558058149,-77.63081678553021
2986,0.01666666753590107,-0.9969605350494384,1.2261989142686127,-1.0684744501650332,-0.8271967649155296,-1.4040496360778807,-10.51428622817993,32.047421755523665,-42.25386222473293,-78.77682690560998
3003,0.01666666753590107,-0.23909181084409356,1.968909086178243,-0.2581739663243294,-0.16295547835854812,-0.7845499565124511,-9.670030867767334,45.145019828696796,-59.16471051529457,-84.54311848974486
3020,0.01666666753590107,0.07098393642473966,2.23316734085232,0.3017296149343252,0.05386937409837846,-0.6364087287902832,-9.075670305633544,49.62090426350868,-66.79356053514609,-90.47161340628921
3036,0.01666666753590107,0.3168819201523438,2.2094152938649056,1.3528782517671585,0.20380624279086476,-0.7791630027770996,-7.98660782546997,47.16233669062757,-65.23150310215334,-92.36746218402048
3053,0.01666666753590107,0.12207040066467598,1.7940987549781797,1.9133353752553461,-0.10280125297866761,-1.341950030517578,-7.375637489318847,44.276124143622795,-57.65041659516773,-94.4761055053435
3069,0.01666666753590107,0.0005325359741225838,1.5188456435590982,2.154374082383513,-0.27428596515366804,-1.7298106994628906,-7.0944684318542475,46.7165165831225,-44.29420365435582,-97.906431412199
3087,0.01666666753590107,0.14065384937515482,1.836980449849367,2.359704347270727,-0.13437480563828721,-1.585260774230957,-6.826318430438637,57.8449608732972,-28.336438253030458,-106.6122246792431
3103,0.01666666753590107,0.23397876041298732,1.8263062033608555,2.300546055859327,0.00029901947919279333,-1.7548001792907715,-6.825868933105468,69.44100332914556,-20.367490916289206,-111.24944501243985
3120,0.01666666753590107,0.16142929170457646,1.4903911179691551,1.9230939682036636,-0.015562566519342362,-2.2758383155822752,-7.1297829063415525,81.62185341191957,-23.459486817702714,-110.82201177418045
3136,0.01666666753590107,0.2265813984369859,1.0830404433950782,1.197578384461999,0.09172759537640958,-2.883815899658203,-7.7699325752258295,82.71000499954016,-31.731692846045238,-103.42434316716637
3153,0.01666666753590107,0.17281972363842651,1.0240247753247618,0.6390782402604818,0.055814543074602256,-3.178601979064941,-8.220641037750244,65.52096651917847,-46.81088930688456,-92.19717190763372
3170,0.01666666753590107,0.2072826775966212,0.9823343360647558,0.44028000749051566,0.06928191827982663,-3.356222106988728,-8.353369592285155,49.58613177044415,-55.55743489761155,-85.88948537893778
3186,0.01666666753590107,0.21520408171303568,1.2669924046888947,0.4466998114049434,0.036810539997648446,-3.198504072625935,-8.282441368103028,33.19175506416219,-54.64064251098283,-85.9885162917138
3203,0.01666666753590107,0.35725313003994524,1.5084481681853532,0.49710956369340414,0.16475072774486615,-3.030610388946533,-8.193705684551595,28.38587516224301,-48.14198389309333,-91.07963684620374
3219,0.01666666753590107,0.7214541064564138,1.5716919753447174,0.2266577150762081,0.5382461136640049,-3.0353987922668457,-8.428487669372558,28.138912597328275,-38.721407914312806,-87.4853727388896
3236,0.01666666753590107,1.7316589576780794,1.925876000137627,-0.6214280172795057,1.571344221352972,-2.775179291589558,-9.226354788097739,32.09932777812117,-30.794355250393124,-69.99859948241789
3253,0.01666666753590107,2.601202780865133,2.6176357370108363,-0.9309703517913818,2.4604907806951086,-2.1633111298158765,-9.492111756896971,37.29545907600549,-20.790368418372207,-56.0089991942086
3270,0.01666666753590107,2.682872179292142,2.594697344493866,-1.0043646738260983,2.564638443314051,-2.2753894027709958,-9.515455223083496,40.5024787781366,-16.93925504731973,-44.63798756585007
3286,0.01666666753590107,2.8146488399296996,2.3461983844876286,-0.6211264039844274,2.703202919194521,-2.6312276245117188,-9.069984076690673,28.502627000820624,-26.739302676007817,-36.60432930936482
3303,0.01666666753590107,3.1775352266162633,2.313603105831146,-0.26137714627981185,3.040635788738029,-2.7070938896179197,-8.684218334197997,9.47572634123379,-36.911636595596626,-33.07446705573472
3319,0.01666666753590107,3.183562524081766,2.1570406712442636,0.04647533544898033,2.9972409841123966,-2.8597242454528806,-8.377759937176108,-15.115582586095275,-43.68525813890333,-27.200808312941824
3336,0.01666666753590107,3.050660951067507,1.6873112819075584,0.24721125828325746,2.772634849537443,-3.231872966003418,-8.231863858032225,-51.41083729778056,-35.87778159678306,-6.571923922682113
3353,0.01666666753590107,2.8903704358682036,1.8732304516211151,-0.20923311754465101,2.55027320595365,-2.9107509605959057,-8.763076766857504,-67.77840551157023,-15.22917716972905,12.827382983002733
3369,0.01666666753590107,2.935771127822995,2.229431953716278,-0.788117878127098,2.5528170452175662,-2.397793547168374,-9.425971936035156,-67.28687094795025,-1.8110282869668775,28.48921421683801
3386,0.01666666753590107,3.0666578538835045,3.4310058375552295,-2.3657442119568586,2.6246431315548717,-1.0140943329408765,-11.09592759399414,-47.28766041661355,-0.7261416898521208,45.74615843792795
3403,0.01666666753590107,2.8461548620447514,3.5525235545068976,-2.6043887174248694,2.34497063279096,-0.7968202400207519,-11.379490268597007,-32.020401527167095,-0.5705631073290415,52.23051805479004
3419,0.01666666753590107,2.805456064170599,3.6164559284523126,-2.2475328430742025,2.2438154665188863,-0.6593035744264721,-11.055076528167724,-26.648068424169374,-0.444858758379393,54.03111984454548
3436,0.01666666753590107,2.5101860006392003,3.3136984317749736,-1.1133119552791118,1.8700207688596098,-0.8628104232788085,-9.963020711407065,-33.656986569288435,6.43639247898155,58.78207648780129
3453,0.01666666753590107,2.26678407151103,2.8118682693004606,-0.1184849251270294,1.5873552622921765,-1.2548612373903394,-9.016264176940917,-52.64672246205394,17.355749737623352,66.39280601578476
3469,0.01666666753590107,2.061655028284341,2.5282702311232685,0.08274550322592258,1.3576616135861723,-1.3721765342161059,-8.8872765625,-79.25271350584144,25.23785975680435,79.25476256259245
3486,0.01666666753590107,1.8505574320420621,2.07518334902972,-0.0497270307213068,1.1130041314389556,-1.5032593673706054,-9.150339469909667,-106.98832221570068,27.503500098841986,99.28465430368085
3503,0.01666666753590107,2.008495831157267,1.8861302652046084,0.1558767904102802,1.2539627541806548,-1.4130278923034667,-9.048286624145508,-105.6467091381701,36.80384255011548,105.52423018597342
3520,0.01666666753590107,2.1524666413269937,1.8447905390784143,0.36288054146766663,1.4140749171383677,-1.2051812606811523,-8.928127628326415,-80.37268011461595,49.294930070275235,104.99663905372496
3536,0.01666666753590107,2.186522640185803,1.6578367656201123,0.6960761387676,1.5298945685788987,-1.185727787670493,-8.666261237224935,-32.30162090586403,64.36098866224604,99.99309518477291
3553,0.01666666753590107,2.188049265231192,1.0325094028145074,0.8472966278046369,1.6220713690275326,-1.7446242377132177,-8.540865509796141,-10.87488632384267,67.21995558465164,98.05808210234079
3569,0.01666666753590107,2.0994421764954923,0.8092392843499779,0.9679039519131183,1.622220933566056,-1.938854724176228,-8.43372498550415,-3.296511828844376,62.52210366219268,101.07932748923672
3586,0.01666666753590107,1.854453562697768,0.48098494284451004,1.179146071192622,1.4532802250517531,-2.2393261557430026,-8.234107837566732,-4.630621943571701,43.391290212120566,112.46314230719445
3602,0.01666666753590107,1.3445996682435273,0.35003041224479675,1.654929938262701,0.9442130239957943,-2.341977844183147,-7.766490910339355,-7.833685685512902,24.69840800106216,121.15323979952585
3619,0.01666666753590107,1.0428386352576315,0.4080246283128857,2.1270120282053946,0.603488200234808,-2.2457605727046728,-7.30351157978475,-12.212115273699753,14.897429759099653,123.75044655217988
3635,0.01666666753590107,0.4779776873199269,1.039951535513997,2.574539522606134,-0.02768321242388338,-1.5432126075744628,-6.872256590270996,-19.368480127526464,14.440252754552143,116.61671011507343
3652,0.01666666753590107,-0.5775018913893029,1.0157692804157734,2.6490327457934617,-1.111358702319488,-1.493382993261516,-6.816142488861083,-26.292662945802345,25.754046180686185,118.03383776406767
3669,0.01666666753590107,-1.1634420138433574,0.8650475346811115,2.6965923693478104,-1.6841713399140164,-1.557876800481975,-6.7917509749263525,-30.668047977166662,47.707983427946964,117.03525044703346
3685,0.01666666753590107,-1.408229990502447,0.5149629080310464,1.6566431719213723,-1.827524273913726,-1.7871219017028808,-7.866748104858398,-28.143422229727776,69.47271589746192,117.32370299606144
3702,0.01666666753590107,-2.049579098304361,-0.2779354823708534,0.5255968225091695,-2.350956502267532,-2.5046339194700122,-9.020154754638671,-23.850240232571853,78.50799065987827,113.58582733125861
3719,0.01666666753590107,-2.3291474425740537,-0.3869854935459792,-0.12277063962221145,-2.4974516980820334,-2.5463828109189866,-9.687239192199707,-26.03757757841717,75.71845261038585,97.60685931520224
3736,0.01666666753590107,-2.6794115174442528,-0.8275139228396117,-1.5091905109852553,-2.6780643069404904,-2.8829179279051718,-11.098022520446778,-34.24785598910248,62.721729601064645,71.89321882609856
3752,0.01666666753590107,-2.9565982272744176,-1.5545847731992601,-2.5548691919744013,-2.8408699439117684,-3.52246904637441,-12.161347332763672,-34.817500596070715,55.911358224928684,55.8882346194936
3769,0.01666666753590107,-3.0122984871864316,-1.8003185062758624,-3.020138679292798,-2.788796149134915,-3.6911103335507214,-12.64018766479492,-27.574995103979095,49.31083075066303,45.38341050620316
3786,0.01666666753590107,-2.7095991504371164,-1.8836897401846944,-3.943029185003042,-2.3704093542236833,-3.7021836623594164,-13.57362703704834,-18.44623895748737,35.064036274162326,34.50008121477271
3802,0.01666666753590107,-2.466500295908749,-1.8675027216240763,-4.374862851187586,-2.064549909475632,-3.650558689062297,-14.009671014404296,-11.62795480719795,25.703224450619413,24.05416065288446
3819,0.01666666753590107,-2.3543039495319125,-1.8504814441964028,-4.527663302892447,-1.9108721634795889,-3.6180874751769005,-14.163498471069335,-0.8345689152136634,12.543615943745383,10.52643056295613
3836,0.01666666753590107,-2.1030375706389544,-1.9995402251549064,-4.323613140943646,-1.6469115765778346,-3.798999045861512,-13.952957778057455,18.56208067335808,-2.6699905291101538,-3.0333207344616895
3852,0.01666666753590107,-2.025403565207869,-2.0219468488827346,-3.5068373236089943,-1.5825672608306631,-3.8748654570981858,-13.12665893009603,22.803892817766336,-10.268149520813036,-7.356836028608462
3869,0.01666666753590107,-1.9346886905379592,-1.710357810974121,-3.233239578181505,-1.5266027970245106,-3.6144961726866662,-12.84459263153076,18.55808501269362,-21.24334997922204,-7.6986186946759
3886,0.01666666753590107,-2.10200121332854,-0.9513634437397122,-2.8461060544669627,-1.7850270483154802,-2.9023705241329965,-12.451494061931967,11.106155675365656,-36.47449765852664,-13.421081808680459
3902,0.01666666753590107,-2.3357588235378266,0.045549014384299515,-2.1325480350226163,-2.104652988212649,-1.930923492785543,-11.735179437255859,12.332138772889802,-39.46390753370114,-26.884476639269145
3919,0.01666666753590107,-2.413148352688551,0.28332988876029847,-1.7469143944770096,-2.2601263671875,-1.7357959113523362,-11.342231089782715,24.27949542379235,-36.036617645931706,-40.22847207920319
3936,0.01666666753590107,-2.6274118656158447,0.34933643863126634,-1.0377940652191637,-2.539649493209133,-1.7693147345945237,-10.612447911724448,34.31696384312467,-22.720076151366523,-51.8615170848801
3952,0.01666666753590107,-2.8821307230502367,0.5177971085436642,-0.9820821148693561,-2.8079496482517334,-1.68072912703827,-10.538826795196533,29.565286614911425,-13.550075907571674,-59.06994164056064
3969,0.01666666753590107,-2.954235005274415,0.605485474999249,-1.1380687953948974,-2.868104115660209,-1.643020743151754,-10.683077445220947,10.04071617428266,-4.975191753707328,-62.229990131769576
3986,0.01666666753590107,-2.8223230278193947,0.7631755984418094,-2.1085352912724016,-2.691082894344488,-1.454627000018209,-11.660210997772216,-25.33265765984225,1.4944065436978855,-54.85675994160579
4002,0.01666666753590107,-2.2543648810513317,1.212495529217273,-3.2825884232401847,-2.1003134977036155,-0.9189245246887207,-12.853570887756346,-38.319628866575975,-7.90706667663458,-46.79743724931422
4019,0.01666666753590107,-1.7760921197749673,1.560358242034167,-3.5794951480627057,-1.6355391552247107,-0.4701612048827111,-13.172597674450277,-36.75476764092894,-22.851261887207666,-43.67374585505727
4036,0.01666666753590107,-0.970667425277084,2.684914791035652,-3.240203571975231,-0.9126399005944374,0.7550716408327222,-12.854917626190185,-15.708110034330344,-45.418418640794066,-55.209378702791454
4052,0.01666666753590107,-0.5715612858265638,3.8116742569088933,-1.654661642715335,-0.6102222896962194,1.891719025122374,-11.271452503204346,10.520813586137441,-55.61283456196952,-75.30390793909027
4069,0.01666666753590107,-0.402849015773274,4.191894640234112,-0.5841004494041204,-0.5367502399499062,2.207902989605814,-10.187028788757324,39.22617938454426,-54.28876141022753,-99.97930503283865
4086,0.01666666753590107,-0.20466195543790236,4.129323910030722,1.2789677969038487,-0.42093074377300216,1.9626471031740307,-8.282889696392417,64.86567134001828,-43.50883776773649,-122.4036152101234
4102,0.01666666753590107,-0.16094022954599932,3.4318019563689828,2.4246838921815157,-0.40192680462813,1.0839749477662146,-7.093720243835449,77.78043207929935,-34.31227150316487,-127.47776274452588
4119,0.01666666753590107,0.07951337117059155,2.845209690149128,3.4186125121891497,-0.13153165463423355,0.2219131508976221,-6.028300505065918,84.99552289960982,-10.583206510431861,-127.10565403854359
4135,0.01666666753590107,0.22151118250060825,2.749416489301622,3.604349603334069,0.09980807164520956,-0.08274959487915039,-5.783643022918701,80.96292457212094,9.726385746036796,-122.93325539912288
4152,0.01666666753590107,0.4980616037212312,2.029495949088037,3.525888645559549,0.5074209088533883,-0.9970353538513183,-5.802048448181152,78.6166316488165,19.935783687156675,-120.88184906304457
4169,0.01666666753590107,0.7546710972078144,1.4705959919139742,2.7996400713682172,0.9609724904158152,-1.814355945587158,-6.4381579017639154,86.4709325527918,18.00386638796586,-121.18599738678523
4186,0.01666666753590107,0.8326856263890862,1.3572346934109925,2.503000473049283,1.1851296025816351,-2.135927156066894,-6.653636051177978,93.99000094211368,14.223010904037071,-119.11520697384243
4203,0.01666666753590107,0.8903779369011521,1.2895327377989887,2.0474170979648827,1.3750197582853958,-2.4164976631164548,-7.0190510795593255,95.59762256705959,4.469440578216802,-113.75410270184021
4220,0.01666666753590107,0.8187779509373009,1.1029875451415776,1.5912947936981916,1.438615703350678,-2.8713962708070873,-7.352443660736084,87.11404267447269,-9.470381718208255,-100.3920601945717
4236,0.01666666753590107,0.6962266531541943,0.9711527245759963,1.4430126962006091,1.3847461659971623,-3.176806327819824,-7.416488555145263,76.2744504993924,-16.56209541644621,-87.40894975226632
4253,0.01666666753590107,0.45591823306195434,0.7825456309527158,1.3796850101500748,1.1920130054198206,-3.5140897789552805,-7.404816822052002,66.41241548889187,-19.536369592419963,-77.09197633171874
4270,0.01666666753590107,0.6068956340581179,1.6106176260665057,0.9804828629791736,1.3947718854490667,-2.8522423652648925,-7.716212675476074,57.715351203607035,-21.085144015024326,-73.27954915212521
4286,0.01666666753590107,0.8174935371499508,2.099901318439841,0.7715946133494377,1.6430206700865178,-2.4778493729189037,-7.861660426330566,58.034150283117384,-21.0833271847051,-70.6103863565651
4303,0.01666666753590107,1.019137514739856,1.8870231223911045,0.37655075490176676,1.8872293124876915,-2.8437133141115307,-8.169614614868163,54.67259413592015,-21.20399101412984,-60.24618217790688
4320,0.01666666753590107,1.2760755825936794,1.3996727361679075,0.2223661553621292,2.1703435857359317,-3.4195188133791086,-8.271517823028564,34.35633988368979,-15.33565981888955,-47.43318101197526
4337,0.01666666753590107,1.4338234275728463,1.2795686854064463,0.06740940240621567,2.350956246539205,-3.576937572534382,-8.40275000152588,7.9723923134038746,-10.946801385613735,-34.05564763566915
4353,0.01666666753590107,2.108832374522835,1.248861996975541,-0.4068389256596565,3.0412344396177677,-3.580977787835896,-8.890568589782715,-17.46783997209243,-9.93946545002639,-21.022475321842165
4369,0.01666666753590107,3.2955987114608285,2.01513863017261,-1.090573469248414,4.232649186883494,-2.761711907251179,-9.603741409301758,-24.166172340178086,-5.868276126840107,-16.771022365420436
4386,0.01666666753590107,3.8830069702386854,2.3484739282041787,-1.319592068237066,4.833593511321768,-2.3750483391359447,-9.860968450164794,-18.64110937714971,-0.7196803842581416,-15.980730204862233
4403,0.01666666753590107,4.3753988577604295,3.063557842041552,-1.7724340356588362,5.342361437170207,-1.6246157562807202,-10.331429076385497,-9.473523605226461,-1.0768124063813025,-11.761522571512135
4419,0.01666666753590107,3.8204075984627006,2.9219597523525356,-1.7764859413981438,4.788552665655315,-1.737741784723103,-10.350881964874267,-12.943520104555045,-3.835448332191055,1.5547751706770432
4436,0.01666666753590107,3.5891695698589086,2.9690339304775,-1.8551789543628692,4.53521642168574,-1.6439187149047851,-10.45727430114746,-31.050487344268603,-7.846324096798364,12.598479438253511
4453,0.01666666753590107,3.4390549962371586,3.5173443968370557,-1.8675006757974624,4.330811528015136,-0.9723454414919018,-10.54032317123413,-52.94357955885561,-4.373043557139473,28.831526222566126
4469,0.01666666753590107,3.069244363245368,3.571855739225447,-1.7235908020347355,3.91945738995336,-0.7978679955080151,-10.461613791656493,-57.31542313713528,4.583890216157298,41.8349086663281
4486,0.01666666753590107,2.8413655819416044,3.494403666232526,-1.5330717373102902,3.6655223033078013,-0.7607578697755932,-10.32993211582601,-50.32790738978046,20.512622190868225,53.03138505573071
4503,0.01666666753590107,2.5810890903800723,3.538542959949374,-0.9636047934144735,3.4253540223386136,-0.6061822250917553,-9.811139128112792,-31.18879184477219,48.65516332619307,63.03377362348584
4519,0.01666666753590107,2.405080489306152,3.5722254493206735,-0.27987258791327474,3.317615166827291,-0.5312134933471679,-9.139864253124594,-17.49022933219173,70.42756268305136,67.03034270310292
4536,0.01666666753590107,2.1756962718755006,3.3589176296830177,0.11178045905232428,3.2000000833373514,-0.729633248193562,-8.742876274871826,-12.117039894226822,89.22177075044691,70.67275964406565
4553,0.01666666753590107,1.774485999752581,2.7554128071069717,0.6067471654981375,2.989459974847361,-1.3100775131776927,-8.234407697296142,-24.227929203106047,100.21212569107688,79.68516010295163
4570,0.01666666753590107,1.4722862830884753,2.305316923522949,0.9284563231438397,2.827851435852051,-1.711554911804199,-7.914482500457763,-43.39185028763251,98.35626084074687,90.27815512823777
4586,0.01666666753590107,1.3826466364346444,2.1242294117495417,1.035788570615649,2.85867663609609,-1.8008885612487793,-7.829039428710937,-65.51630833016453,90.13676338222933,101.82932324123914
4603,0.01666666753590107,1.1577717131219805,2.3810937567800283,1.0721271274536848,2.74525147857666,-1.3756187836244702,-7.84624775314331,-76.32170857825972,77.90004918223377,112.23981561190253
4619,0.01666666753590107,0.6994698728591203,2.7186858354732393,1.6516022551447151,2.362627979632467,-0.9136872085571288,-7.304409989929199,-70.02684914482506,82.05591876386306,115.5639867186777
4636,0.01666666753590107,0.4876359251663088,2.9514097187206145,2.0821733540475367,2.243516593170166,-0.5807435401916503,-6.8961986068725585,-59.66013828674145,90.04247945092648,116.80668499664816
4653,0.01666666753590107,-0.1422572842501104,3.049431993794441,2.814519660592079,1.7684173473633824,-0.3838204536437988,-6.170606450763344,-53.955082763610314,98.41863412824742,118.11704312853676
4670,0.01666666753590107,-0.6781278096228838,2.7739488730117676,2.9965526365220545,1.356913937024027,-0.5856815811157227,-5.989095452880859,-61.78766025093038,97.61493942899037,122.1150806988254
4687,0.01666666753590107,-0.9784691850692033,2.655795079535246,3.1495524101912973,1.1722611339844762,-0.6139630882263183,-5.842300963592529,-72.32647138553081,92.00011411988969,126.53320222382648
4702,0.01666666753590107,-1.5529712005227803,2.539274732479453,3.4867280170381068,0.728435855102539,-0.5793965094968676,-5.5265650351375335,-87.33813435095163,83.67625137085435,133.2358444412784
4720,0.01666666753590107,-2.0906576892763375,2.6118986546635625,3.729927701592445,0.2787752941958606,-0.37140053253173827,-5.306448704528808,-96.12525468044308,82.67013718535479,133.71513247571656
4736,0.01666666753590107,-2.5242116033822297,2.5349320271000266,3.8751422282129524,-0.0570119270324707,-0.29269115295410153,-5.185092607879638,-105.76149046717217,84.26216548842555,128.17153237928076
4753,0.01666666753590107,-3.479347843658924,2.186277287122607,3.534883852919936,-0.8596677413389087,-0.3886088569641113,-5.557839878845215,-121.99685012429246,83.81914575848019,112.32608773130896
4770,0.01666666753590107,-4.22109589253813,1.9039803946718572,2.361492984253168,-1.4731822090148925,-0.44277737726420163,-6.75508976200521,-130.58726100568754,79.3873365343824,96.28859865444393
4786,0.01666666753590107,-4.634873677550256,1.3352145847827195,1.6268413233757018,-1.7586901724666355,-0.7531260597229004,-7.513004809570312,-141.4635995985025,70.98718740250719,79.76703358053257
4803,0.01666666753590107,-5.019780465126037,0.019388737211376426,-0.21121698483824727,-1.9838956429079173,-1.6511008814938366,-9.38526992329061,-159.94528553023494,57.40166110559586,51.562805591718764
4820,0.01666666753590107,-4.981311910521984,-1.6088747279219329,-1.710326246792078,-1.8332099913999438,-2.9300536269590256,-10.903493635559082,-160.30825544310775,51.480809170732755,40.6158155221292
4836,0.01666666753590107,-4.764893265387416,-2.4979496194005013,-2.779426135379076,-1.5104416800901292,-3.4757818217404184,-11.978490180969237,-151.91824231196085,47.82228322861254,40.846416368887176
4853,0.01666666753590107,-4.819951428003609,-3.4669074642807245,-5.361172228363156,-1.4223048392146824,-4.045302578182705,-14.542231246185302,-126.93014549763095,50.16321786851311,41.90019844460425
4870,0.01666666753590107,-3.9613428403288125,-3.434634549446404,-8.185378001189232,-0.45130672067850824,-3.7641335937833413,-17.336414221191404,-111.25838573006341,43.99394512334747,36.50779483073045
4886,0.01666666753590107,-3.272584331098199,-3.3423128241017457,-9.562589314702153,0.30600948421061036,-3.4554311806943265,-18.692279964336752,-94.5694673611084,11.65663989416471,26.14574386920808
4904,0.01666666753590107,-2.060012960165739,-3.022249972358346,-11.125398018628358,1.4633064194276928,-2.8824687045666386,-20.27619400013387,-77.57457017771516,-44.91472975554606,3.9285425299178596
4920,0.01666666753590107,-1.6228133830338716,-2.789310108272731,-10.574787750893831,1.758092498834431,-2.47246168853119,-19.774758974456788,-65.98103440129219,-70.25316746297344,-13.027954049301096
4936,0.01666666753590107,-1.365133922228217,-2.7521082126036283,-10.09210477195978,1.8351555725097655,-2.278980303402431,-19.349787010735273,-51.23356656806205,-77.37879646553509,-17.703250979573383
4953,0.01666666753590107,-1.1666676978915929,-2.8207220223635434,-9.384029567840695,1.7693153191164135,-2.197876320305839,-18.720113143157956,-33.408760419377245,-85.46022164998081,-11.53706547991259
4970,0.01666666753590107,-0.8190121980845928,-1.3871648445114493,-8.92856777330935,1.8869301834106444,-0.6856389889705926,-18.328361311993003,-20.87870837754986,-101.61092111233881,-20.481452622590872
4986,0.01666666753590107,-0.4089087176710367,-0.3077791972968727,-8.341882568109035,2.0220532318666575,0.4376905755192041,-17.813159042248127,5.226729691592326,-115.42765614284424,-43.93167770377905
5003,0.01666666753590107,-0.18821297973915935,1.616323582623154,-6.242237854778766,1.8397944843567906,2.306364898205921,-15.812055951690672,60.43451098389164,-114.82349858999994,-82.93727954417233
5020,0.01666666753590107,-0.5435714551389217,3.0522882600083947,-3.9531910980552434,1.2006922786988317,3.5853173879427835,-13.588740435028075,103.43530562078423,-97.11820026122284,-116.68040845927297
5036,0.01666666753590107,-0.6083116383358835,3.29656609518826,-3.0085932029277083,0.9139866298951208,3.5984854422747157,-12.69166300048828,124.00189313628474,-67.55107632542469,-148.37596960460883
5054,0.01666666753590107,-1.0558996307522057,2.428723669091612,-2.0712556541919707,0.2953846298217773,2.3844756908359006,-11.784259986767172,129.59629617976708,-30.663188297572198,-173.1043962870732
5069,0.01666666753590107,-1.1314407555572688,1.1553998694241046,-1.8757851045399903,0.18420403635874388,0.8406644963137805,-11.588684223175049,133.34063320352476,-4.856609851318975,-174.92496954996176
5086,0.01666666753590107,-1.0516520563103258,0.9858277311384678,-1.982833274373412,0.29718028106689454,0.3832223050875589,-11.67756895980835,141.89299993124285,13.432347351942749,-167.8537566645176
5103,0.01666666753590107,-0.5955130931697785,1.117180175014585,-2.3638100290238855,0.8508394149780273,0.09606770693995058,-12.00931552734375,152.1523538759522,12.401931353376286,-149.16425539709834
5120,0.01666666753590107,0.05854147468730807,1.4648546717830002,-2.607560333198309,1.5532381808958946,0.11088175664693116,-12.204592600250244,156.35316610232016,-10.460724143140608,-134.49000377667616
5138,0.01666666753590107,0.24764409674257037,1.730561517830193,-2.3912533317446707,1.7295112781248985,0.03321969416514039,-11.935544188690185,157.44267689758559,-40.77144821255711,-120.5896808911081
5153,0.01666666753590107,0.6034805649176239,2.604439570829272,-1.4015472978681325,1.962646518652141,0.4475663651064038,-10.871021691021323,155.26049975965822,-76.89435163827359,-114.6516783512391
5170,0.01666666753590107,0.757171827982366,2.889103776933253,0.28891455702483654,1.985241942950338,0.39234979705810547,-9.114725720214842,153.23062217984378,-83.56309562687476,-113.47673554983517
5186,0.01666666753590107,0.8314648524224758,2.765487334136665,0.8883318180263042,1.9376572580199687,-0.07302315063476562,-8.433126435089111,154.5331392545652,-77.16369331800388,-105.85974956857197
5203,0.01666666753590107,0.6463165940161794,1.9893442637026308,1.7880349248945713,1.6325461108885704,-1.32144967880249,-7.390003283801675,160.82363419712024,-57.949729144976025,-80.00866518280012
5220,0.01666666753590107,0.3832529559541493,1.6041539830103515,2.1637918990701435,1.3159129413329065,-2.07801769567281,-6.8773442687988275,166.27949368347805,-39.53398868968005,-56.044017574083256
5237,0.01666666753590107,0.32326018647998567,2.140485550023615,2.1103426329553128,1.223137700067088,-1.9204492989137767,-6.770503019714355,167.63745823388163,-32.03465613196491,-43.62648436109537
5253,0.01666666753590107,0.1595033103443682,2.859928535853326,1.9702730680078266,1.02636417805776,-1.6961425308778881,-6.670395462799072,165.89203071224156,-31.26102451033966,-43.49283463451115
5270,0.01666666753590107,-0.09048829937241971,3.1200480832874775,1.9854484253078697,0.7601588809691369,-1.7892168281555174,-6.461202092742919,163.10260877596502,-33.155917061587125,-46.90953772906706
5286,0.01666666753590107,-0.13305552146695554,3.3186703749686477,1.9439082081735133,0.7056907201353461,-1.925536685180664,-6.300191446575522,158.6164175856956,-33.349303622652286,-46.11520721916209
5303,0.01666666753590107,0.33285650153867896,3.2527398129433394,1.9999469062596558,1.169118305914104,-2.417545126342773,-5.957372280883789,155.23111628584883,-25.995320905569596,-41.22295445254622
5319,0.01666666753590107,0.23842399458512661,2.237524074757099,1.9241689039587972,1.0814307431761174,-3.742885967364907,-5.802047863659262,155.40722588340842,-23.5308281435835,-34.869912052666805
5336,0.01666666753590107,0.21317980934381484,2.0450527069211004,1.554503232395649,1.062127565356344,-4.321684218707681,-5.855917985534668,144.18525239783415,-25.981120942285138,-28.378266331507614
5353,0.01666666753590107,0.18272738793492316,2.501069797247648,1.4081629166156053,1.0209772243224084,-4.121918017688393,-5.775412954711913,130.55698960728606,-29.556018048207715,-22.84122492422233
5370,0.01666666753590107,-0.021008885759115217,3.1567244937777517,1.5872610081374645,0.8053493642393499,-3.6875200539737936,-5.387253010559082,113.93911886607752,-20.687396486445095,-20.144785768211772
5387,0.01666666753590107,0.025580285327881574,3.085527389526367,1.6623592114806174,0.8827119323179126,-3.9902369263797994,-5.073312733349204,82.01232849658004,15.808952654783706,-9.033551847198211
5403,0.01666666753590107,0.34805268243104215,3.3973604653239247,1.3614584485858678,1.250970148235932,-3.7990006532967087,-5.239111782836914,59.29991410991497,28.459805129819227,4.752237303725186
5420,0.01666666753590107,1.1235059439700097,4.414924227941036,0.37496494701504707,2.052279589434713,-2.8770827920109032,-6.11613719395101,51.98104539535532,25.193782838542965,16.993293796485577
5436,0.01666666753590107,1.545769014059007,5.559538499456644,-0.23373569063842295,2.4621369130674746,-1.8547592676460742,-6.5865984046936035,50.618784655963786,5.771051799099561,18.40991601148124
5453,0.01666666753590107,1.638802979326248,6.186332427683472,-0.28535774132609365,2.517053986712545,-1.3036433884769678,-6.554276097759604,34.74715647780875,-20.728795970551836,8.205354698067376
5470,0.01666666753590107,1.4326954464562236,7.116443532297015,-0.07437164263427257,2.252644267803803,-0.4043208053588867,-6.31425738132894,0.66448103654192,-46.54282828762366,-5.281208134185994
5486,0.01666666753590107,0.7995037800163031,7.012796695339679,0.3981611136853695,1.530493192059174,-0.4373918848335743,-5.936722291564941,-64.00650184432239,-63.26769394218044,-21.308547549944397
5503,0.01666666753590107,0.626082930413261,6.40603433227241,0.39421559092998504,1.2949636768065391,-0.8939356293827295,-6.119878718566894,-108.0976473897483,-61.425509960757964,-21.560581530317865
5519,0.01666666753590107,0.8486116559259593,5.7332291789770125,-0.0763046565234661,1.4526816015714779,-1.3492828576236962,-6.832302765545249,-136.66267329127888,-48.06271271758616,-10.949817767905941
5536,0.01666666753590107,1.4578542915016413,5.691024944975972,-0.5893026942223311,1.9865886083189397,-1.0395330178409814,-7.701997103118896,-151.18175667413672,-18.667333888467976,6.252721862010738
5553,0.01666666753590107,1.7611456027947365,5.677591462907195,-0.8994096768796443,2.2536917675627395,-0.7610574372440576,-8.27989694431722,-158.8597225843098,-4.014742505451182,11.978860044675587
5570,0.01666666753590107,2.395010930712521,5.567984840762615,-2.123304990381002,2.8486508435789495,-0.43514615173339843,-9.86455916813314,-174.23344021725464,-8.944228340780077,14.032691951682898
5586,0.01666666753590107,3.204814863207936,5.414816140267253,-2.8400580064743757,3.604769655377045,-0.22026713725626468,-10.856058515167236,-184.61004118925644,-19.62272879673831,15.558296665075286
5603,0.01666666753590107,3.6402944846794005,4.920744921356439,-2.57827754009068,3.978713990640081,-0.3137906396061182,-10.864138945770263,-192.4559204699851,-11.055739487780853,21.096031336561325
5620,0.01666666753590107,3.6644586195990443,3.8162612924382087,-1.9964333451807499,3.9658452480482866,-0.8491936935976148,-10.616937039837241,-194.28966233759346,22.309486159600375,39.55252240799288
5636,0.01666666753590107,3.415719421096146,2.8954321031719443,-1.6921066994905472,3.745578494384512,-1.3370119895935058,-10.532242156109213,-187.9509052783631,50.81419978321244,57.140198049073184
5653,0.01666666753590107,3.1798236298143863,2.393993862624466,-1.5397095678895711,3.5878606792174277,-1.416619487054646,-10.56650975189209,-178.2051678988604,73.36571881869409,71.51380181770435
5669,0.01666666753590107,2.795983594687283,1.8367521940514444,-1.598866105735302,3.3563712696684522,-1.449090847070515,-10.821641866302489,-159.2637829152294,77.31734525357248,86.65347618854955
5686,0.01666666753590107,2.5179826458647847,1.575497505107522,-1.8644383656173944,3.173364516802877,-1.3600561805725098,-11.19842935256958,-142.1740622155889,61.33541293541632,94.09769936494645
5702,0.01666666753590107,2.285645423847437,1.4621855987042187,-1.6436808144956827,3.0057704005919397,-1.1549027335569262,-11.067196589550376,-131.79250252624965,45.379698298389265,85.44333742235254
5720,0.01666666753590107,2.2452717662744224,1.249186698885262,-1.3929343678236006,3.015496844836324,-0.9756371765136718,-10.912771166992187,-116.50436716360505,26.838205522736896,71.80676229158453
5736,0.01666666753590107,1.6628765133529901,-0.03348112158030271,-0.5932166527956724,2.455103945690766,-2.0011035289488732,-10.167725537872315,-101.25121602988926,23.237206848901113,71.97460736024843
5753,0.01666666753590107,1.4323692832417785,-0.7557868033647537,-0.11945640050768852,2.250399849877879,-2.50104276311025,-9.734823950195311,-89.60906296695414,26.919802377656453,77.79353238212742
5770,0.01666666753590107,1.2805015823423862,-1.198303483866155,0.7582119846850633,2.156726782989502,-2.6843486815854907,-8.895506630706787,-80.16662013754583,36.89869680221403,90.57343103624659
5786,0.01666666753590107,1.0692659658689052,-0.9217682236820459,1.8138368901491164,2.018611201654002,-2.2345381908141073,-7.858069123840331,-74.46535878449863,48.41764349780588,99.76759648932494
5803,0.01666666753590107,0.749371529494971,-1.0157584667608142,2.263811193180084,1.8053775432310997,-2.178872783019766,-7.416188695415854,-65.56741863572374,63.04438773745604,110.84137536047744
5820,0.01666666753590107,0.04960165077596902,-1.4556380767568946,2.3836866958826777,1.2885292598448692,-2.4524103226926175,-7.293187169647217,-66.02334742320042,66.92596375220678,127.2614916346466
5836,0.01666666753590107,-0.5903514726229012,-1.637087407580018,1.1393746172964572,0.7640496047973633,-2.489969434301555,-8.53577783126831,-84.89587043961934,47.320680966155976,137.3942411929006
5853,0.01666666753590107,-1.0573943993546069,-1.4685367212966083,0.6426964307576417,0.361374813079834,-2.124853608062491,-9.038560179901122,-110.29612818922449,26.869011383440945,137.48579304853544
5870,0.01666666753590107,-2.0135823406413196,-1.3798796559393405,0.04082067068815231,-0.5430348640441894,-1.6947951713895424,-9.649829791259766,-124.06983985814801,21.584620381101725,116.22357808682584
5886,0.01666666753590107,-2.7744039233028888,-1.8936657752759753,-0.2010562408298254,-1.2351089275635778,-1.9539673412712522,-9.885957929992676,-106.1318369843486,39.140081434961665,94.5988713254853
5903,0.01666666753590107,-3.364763725362718,-2.865104769447446,-0.4365145174771547,-1.698835715484619,-2.7379186606036963,-10.09979006576538,-70.07136148764603,61.07380302982649,79.37586181657677
5919,0.01666666753590107,-3.8981975251078604,-4.628310665772855,-1.3677028959333897,-1.9826983959473667,-4.36133699639393,-10.981753517803549,-48.18851114171946,78.18226576854954,70.91040241585792
5936,0.01666666753590107,-3.8054002912059426,-5.064910231184959,-3.311273250454664,-1.691204197692871,-4.703857708862051,-12.880505071911214,-58.641272138061474,75.31912560056107,68.51172194161947
5953,0.01666666753590107,-3.868637960885465,-5.230541522890329,-4.435368465554714,-1.5676032447263597,-4.740818233523331,-13.95565183944702,-74.27748760118827,66.51072240161585,68.59599964578825
5969,0.01666666753590107,-3.659315119230747,-4.91662345751226,-7.0927581208050245,-1.1685200477600097,-4.246415261907503,-16.55410824421346,-61.91134814661014,38.28574771319813,63.24700529918447
5986,0.01666666753590107,-3.0584219404578206,-3.7708465719580646,-9.235352918067575,-0.4955997436523437,-3.0250732130855322,-18.671779612621663,-26.970632645459688,11.654056375111153,46.032066741490105
6003,0.01666666753590107,-3.0267247796848413,-3.3739553320780393,-9.785712425911425,-0.4550476607725024,-2.63227464934662,-19.220052377319334,11.31626083197171,-9.062814938923486,21.666381160561365
6019,0.01666666753590107,-2.7114456550866364,-2.76083337085098,-9.64741454681158,-0.20919278553426265,-2.136375484356284,-19.10887163772583,50.593181691859996,-35.639114296615304,7.937143414644731
6036,0.01666666753590107,-2.2149917788229883,-2.2797078504920005,-8.46438725027144,0.17836816981211304,-1.805077866164781,-17.962647008404133,64.10618845525872,-52.51428509404739,9.312875848400468
6053,0.01666666753590107,-2.135386327188462,-1.6401275059282778,-7.68132548649013,0.11267740789204836,-1.3347669323467648,-17.221941454315186,68.06753424932603,-64.02990890260801,2.8683123287374674
6070,0.01666666753590107,-1.9711552576698361,0.027614348438754675,-6.361975410315394,0.0592566372193396,0.09995838966898155,-15.955857688903807,78.58804730713999,-65.35214473346328,-22.975064188556022
6086,0.01666666753590107,-1.880747549252957,1.2122889737945048,-5.491517687153816,-0.012569558715820313,1.0850227306529414,-15.11773688572347,95.14739698753985,-64.98667497135423,-41.74102430109169
6103,0.01666666753590107,-1.698261422728002,1.7229425672590732,-5.022302092558145,0.008379851941019296,1.354220752417296,-14.672266323852538,115.80625352853805,-66.70948090646323,-57.880074875820235
6120,0.01666666753590107,-1.5382257590726016,2.0682459509819746,-4.0345653129279615,-0.04234729573354125,1.3103769345156848,-13.696778784942627,136.58612053106137,-66.08076882355272,-77.36593521932795
6137,0.01666666753590107,-1.2869833455771207,2.189518753261864,-3.376616952502727,0.07616554031372069,1.1182422512881458,-13.028797106280923,138.59259788277933,-57.06185236419856,-85.12630736183723
6153,0.01666666753590107,-1.0947983934670686,2.2846869540788233,-3.314102336400747,0.17058701441660523,0.9047092445924878,-12.940360697937011,129.82573589436615,-42.5921512490399,-84.71872948349505
6170,0.01666666753590107,-0.8838583258740603,1.8658828653372823,-3.528975505658984,0.3136404905457049,0.10848755498677491,-13.102268585205078,118.31043310469651,-25.97609392305601,-71.62667752392798
6186,0.01666666753590107,-0.3540595216304064,1.8331883640900253,-3.896555603119731,0.817320664801076,-0.197371707098186,-13.418901754760741,119.26604487147299,-22.989819104710545,-60.952485209788726
6203,0.01666666753590107,0.06744593502432107,2.163494377428293,-3.9681607036501165,1.2033854633055627,-0.15711933781728146,-13.428328923797606,130.2094012804241,-33.68707696767692,-52.573280853003375
6220,0.01666666753590107,0.7420305190823971,3.291761909776926,-3.396718075767159,1.7744027784485368,0.5307645805358886,-12.749872028350829,152.13844761080205,-58.634967873457555,-60.50456140401929
6237,0.01666666753590107,1.2119326346375048,3.961259545959532,-1.8110002054184675,2.137273821435496,0.8262988479614257,-11.05687217941284,169.95483213624024,-70.80967761616773,-73.51557999927334
6253,0.01666666753590107,1.3185060265660284,4.21046460840851,-0.9149269794851541,2.1368249086242166,0.668431175994873,-10.02287633743286,183.78555539416587,-73.72331337269011,-79.44939563318113
6270,0.01666666753590107,1.2417740845412015,3.5289465718254447,0.6011936230242252,1.9373579097472131,-0.5704185455322265,-8.28034644165039,181.46786730310544,-67.02580745749403,-69.75764406887818
6286,0.01666666753590107,1.1023674404818564,3.4300092277333136,1.5472376253068447,1.7223287462096661,-1.0628761917665601,-7.147589781188964,170.82505287801322,-59.73966900943707,-54.107030566981
6303,0.01666666753590107,1.0731283403854817,3.779522338105738,1.8276228389173745,1.624615354421921,-1.0767924889162181,-6.674286040496826,160.086260634704,-52.21143450624902,-38.96649217720579
6319,0.01666666753590107,0.8278913047846406,4.627435928764939,2.4119570970773694,1.2951133874755352,-0.6721727006107568,-5.826140102386474,149.21359668366253,-47.27180754754995,-30.260719400729197
6336,0.01666666753590107,0.692378234097734,5.39016568313539,3.0151860253214835,1.102380117300339,-0.21652619716227053,-5.020191968536377,145.99792996204218,-49.50966097249668,-32.820503546920726
6353,0.01666666753590107,0.7735842527966946,5.7199014953702685,3.096006697964668,1.1375448811186477,-0.18779519271850584,-4.723011102947592,151.4523960898093,-49.18188702441694,-43.31278060270586
6369,0.01666666753590107,0.8607636468168347,5.64701336929202,3.4260791948080063,1.211316219772212,-0.6624462563663721,-4.07313557434082,155.9247902979553,-38.621472001471766,-52.29465011600187
6386,0.01666666753590107,0.13006185607630757,4.1521752087861294,3.8395559510469432,0.5011361888609827,-2.447324178534746,-3.404704398345947,149.9144014132625,-30.45218667863758,-49.94267447530798
6403,0.01666666753590107,-0.05670987534597516,3.9239042132943864,3.8058793068945405,0.3453634068144485,-2.9376854370117185,-3.1889263892024755,136.89962621396495,-23.74996281027231,-41.525190323319286
6421,0.01666666753590107,-0.1355485073264688,3.8420565356910226,3.57719330086112,0.3015195889128372,-3.320758287158608,-3.106626291656494,121.52392782616079,-22.37039778661855,-31.59108998688594
6436,0.01666666753590107,-0.1296529830144718,4.261640376633405,3.4138778848826883,0.327855843707174,-3.0966005722045895,-3.0527567543029783,110.90093461003995,-24.93277569714739,-33.70902578057476
6452,0.01666666753590107,-0.14536197226718067,4.472161780422926,3.3135435334742067,0.3393779026640579,-3.0575457421451806,-2.9505542709350583,100.59499877519112,-27.18302250034311,-39.52613738722913
6470,0.01666666753590107,-0.44018655705340204,4.222767917403578,3.6146634920775886,0.11626823545824735,-3.488651678577065,-2.4181430922359226,72.08860321749594,-12.24006782287803,-48.956432725198574
6486,0.01666666753590107,-0.4720186693176627,3.8199247833818193,3.480401152104139,0.17986425358876584,-3.9686891114383935,-2.442684243774414,36.57797502445233,4.678401678136879,-48.74591946478961
6503,0.01666666753590107,-0.4587584249239415,3.7062837911546227,3.058980158862471,0.29688071359843016,-4.106055847167968,-2.820368386620283,6.770534297801859,10.199533440411088,-40.13366222333425
6519,0.01666666753590107,-0.15631225921809672,4.102532349216938,2.244396298614144,0.7095812978330999,-3.684078389087319,-3.6538504240840672,-20.78891017298441,3.5497662786451634,-29.97021437985563
6536,0.01666666753590107,0.3530256485380232,5.0745449054926635,1.1631629046410321,1.270273545251414,-2.6604081262886523,-4.7949873748779295,-36.587540704384935,-16.086738155875416,-29.806610858666314
6552,0.01666666753590107,0.5115975232511758,5.477673870718479,0.8386229074835777,1.4475941057067363,-2.179322645679116,-5.216515920147299,-53.20079082261995,-48.145682440528894,-40.40704395995859
6569,0.01666666753590107,1.1615507202040403,6.0887406529814,0.37861177908480165,2.1028570264402777,-1.3995599234431981,-5.883151444897055,-92.65528635564482,-67.99715598011822,-64.73002378310183
6586,0.01666666753590107,2.2257065034523604,6.346908774086833,0.08101824104189873,3.198503707299754,-0.9305968423038721,-6.419901529583335,-138.95224832371554,-57.795797171651444,-74.57071445244608
6604,0.01666666753590107,2.630662976366281,5.1754655323565,-1.3563023809969423,3.648912821551412,-1.707515281024575,-8.267028694915771,-171.29604906279897,-44.67102519086542,-54.27303489966358
6620,0.01666666753590107,2.777452204957604,4.4039515830278395,-2.1482009467065333,3.7994483239989725,-2.153285702624917,-9.368211236461997,-166.71289650707203,-28.2464146522224,-26.504142677978866
6636,0.01666666753590107,3.2261569264441725,4.088308593553305,-3.2943829059302803,4.238933747045696,-2.160616776165366,-10.784082243236899,-148.19719623327293,-11.176497232306678,-10.037742480672765
6653,0.01666666753590107,3.7529350676923987,4.6933846109688275,-3.3203625658392903,4.781968830285593,-1.1938093873172997,-11.095478681182861,-124.32098591392939,10.121567684809039,-11.96420672758497
6669,0.01666666753590107,3.7374931684106585,4.5435622982919215,-2.889652935248613,4.840177785082906,-1.0808329964786767,-10.84708025894165,-133.15008458605973,47.069097778267725,-6.227024555919034
6687,0.01666666753590107,3.6679978996410965,3.3726568167001005,-3.7703871377527713,4.892101960522309,-1.9388550164371727,-11.922675354766845,-167.6152327983224,70.27908120068446,18.784247944038373
6703,0.01666666753590107,3.850614520677924,2.8156618163645266,-5.430473728126287,5.196015860693157,-1.9608514519289135,-13.888913468170164,-208.9547888252845,55.49985640290834,58.40045332830517
6720,0.01666666753590107,4.12922541809231,2.781317063692212,-5.9262815615713595,5.489305710192769,-1.54815094075948,-14.619743524932861,-207.88411569175,30.05175659326183,76.64270697868281
6736,0.01666666753590107,4.09609384060204,3.0055381992712613,-5.63119971408844,5.415085604858398,-0.8955807662412524,-14.531307701110839,-188.4278847088618,12.088239547817818,84.01278845163922
6753,0.01666666753590107,3.990100148257613,2.8522455801352855,-4.77490086466074,5.250184819384664,-0.6619967590332031,-13.843124361419678,-165.64141741121546,11.178343090929875,86.41540994502876
6769,0.01666666753590107,3.4170892481446264,1.9439187295675278,-2.766230553719401,4.651484912872315,-1.113453409576416,-12.00198328475952,-148.0555927514002,37.25134288415638,95.5148475045082
6786,0.01666666753590107,2.8462352338045833,0.7219096682041883,-2.093817614611983,4.104708962603659,-2.021155406244099,-11.424531771850585,-138.4836836862743,44.072738185612735,110.51232416702291
6803,0.01666666753590107,2.3877780568495393,-0.22936580499112605,-1.6504495779782533,3.6731542594909667,-2.5947160491943357,-11.080365283203124,-126.0836938141696,36.44790773208778,128.75145642094986
6820,0.01666666753590107,2.1846492475293577,-0.523540766762197,-1.1818845562458038,3.4694974807739256,-2.630030377551168,-10.673051725769042,-118.92418024313551,24.146303319882517,133.46186906129248
6836,0.01666666753590107,1.8310317705780266,-0.31893107123449443,-0.34629707093536855,3.090166301373392,-2.185906115722656,-9.890895970916748,-108.66465554369691,12.152071934479817,133.29398301149357
6853,0.01666666753590107,1.023668290037289,-0.7661155974164605,0.31115444588363167,2.246958331121877,-2.346766393633932,-9.28965207901001,-98.35119284038272,16.490856543402977,131.34236573918915
6869,0.01666666753590107,0.4760388647444546,-1.1807627126090228,0.5644260271191597,1.7028759307861328,-2.5574561397276816,-9.067291184344887,-97.74728117434853,27.02013273392206,133.2046851182848
6887,0.01666666753590107,-0.42724502322003244,-1.4220340594492853,0.7335720489472151,0.8500912269592285,-2.540547017437592,-8.92498523864746,-88.09179108434917,35.88351554059128,136.1952834463749
6903,0.01666666753590107,-1.0132081977561116,-1.5961622536040843,0.9878986921936272,0.32261881983652707,-2.558353746154532,-8.679579568481445,-71.61610439109279,39.064519052173814,134.5337443081209
6920,0.01666666753590107,-1.3131342703998088,-1.7153193789042531,1.163627599543333,0.09112944682016969,-2.567182437841594,-8.50450357208252,-53.60127896460365,39.7394271195357,132.98756706494845
6936,0.01666666753590107,-2.2855236971639097,-2.026396375637501,1.7166835068643091,-0.7752722789488732,-2.7890950042173266,-7.942913645172118,-42.06016147496595,46.504258209380595,128.86949575018602
6953,0.01666666753590107,-3.485502274635434,-2.3791169037491082,1.9508365461319683,-1.8647838180541991,-3.081636519567668,-7.695412464031577,-47.581464418856235,59.75465444447608,123.42485143444537
6970,0.01666666753590107,-4.375458478993177,-2.7567355801433324,1.779184094440937,-2.61611408040151,-3.3848020855892447,-7.847893766784668,-53.15441042306098,65.68285566288613,115.36623908182749
6987,0.01666666753590107,-5.243447181692719,-2.1132133660860357,0.41732524836063384,-3.2948702510558068,-2.628384071648866,-9.1799677154541,-48.532308713592045,56.36783684263356,82.83158919695555
7003,0.01666666753590107,-5.738600935143232,-1.7612901258319615,-0.9297516236513853,-3.6709095493040977,-2.2126909545347093,-10.505307971954345,-27.786372383318067,46.142777277746845,43.768320069399856
7019,0.01666666753590107,-5.704154475662112,-1.7364875468783079,-1.283956106710434,-3.5259104189999397,-2.1586717065121976,-10.836306351470947,-5.8146173069468405,45.913726883930465,0.03775800610334451
7037,0.01666666753590107,-4.930038819402456,-2.225843135444075,-1.7970429917365311,-2.574963739367574,-2.644095983511023,-11.307514581188558,8.978363064930862,62.46669033745636,-35.38494246703162
7053,0.01666666753590107,-4.202253829424083,-3.5817654310822484,-2.6119477545022964,-1.6590318206235766,-3.9939767339626324,-12.074108609771727,5.235153876159891,85.1662161571576,-35.980996000425705
7070,0.01666666753590107,-4.004191801974177,-4.275960578408837,-3.383644659182429,-1.234210663549602,-4.685452137469127,-12.782043528637288,9.869450888391881,93.7858943991462,-16.03993940722978
7087,0.01666666753590107,-2.9422642892345783,-5.385769494003057,-5.599645468917489,0.11956073766499757,-5.8586111701413985,-14.904054972076414,28.82091552369051,80.9087475116244,16.500762025246786
7103,0.01666666753590107,-2.050516233024001,-5.2372249461770055,-7.707055555552244,1.1692685280397535,-5.808332679549791,-16.952444129943846,33.79487442825265,48.7455813704257,29.523496102474702
7120,0.01666666753590107,-1.6875985744163393,-4.801417700186372,-8.614507669112086,1.5831661400392651,-5.469702818774059,-17.835455629730223,23.053170816809704,-5.778906516645075,32.28398194233247
7136,0.01666666753590107,-1.0816951662659644,-3.2181340712472792,-9.611929391932486,2.0283380112245677,-3.9706333773739635,-18.881871392822266,13.251043395519345,-83.7699205851319,23.989159450100743
7153,0.01666666753590107,-1.2345642992928623,-1.9361001647710798,-8.65174463609457,1.6322472740724683,-2.749440966155752,-17.994670040130615,29.18233156852715,-110.46170563508394,9.166696139783856
7169,0.01666666753590107,-1.1544310243919491,-1.390129685666412,-7.9324419355183835,1.4267951363712548,-2.312349598638713,-17.348235591888425,58.941397480381006,-120.52685681112233,-2.6143940699267194
7187,0.01666666753590107,-1.287244042339921,-0.13635390542522072,-6.117596745109558,0.8967783054627477,-1.3094783051755279,-15.605705696105955,96.50998557601154,-122.56237612719119,-19.708056642491986
7203,0.01666666753590107,-1.57901179683879,1.1718731575801968,-4.01455537507832,0.31019889872446654,-0.24301132237538695,-13.532925608825682,109.43964978806157,-123.64892262035681,-42.52659509338612
7219,0.01666666753590107,-1.5016902183577416,1.7563310421198606,-3.0169834301322696,0.10803864217549562,0.09112944682016969,-12.546215249633788,112.04014186170639,-118.29113099010205,-72.65410189963798
7236,0.01666666753590107,-1.4458528880625963,1.6528711060367525,-1.4594143804252147,-0.11162936014384031,-0.334290260668844,-10.969483818817139,112.20713315672403,-78.17262837163065,-107.82462423805538
7254,0.01666666753590107,-1.078501338660717,0.8591720667764544,-1.09574707249403,0.18180968856811522,-1.3781620383664965,-10.560224388012289,122.27822659734032,-31.736070997303216,-111.18952376285134
7270,0.01666666753590107,-0.7188762918576598,0.6888780439570545,-1.5341525182843208,0.5790975265502929,-1.826626229095459,-10.92339602138102,131.18926021875413,6.279171342684789,-96.72021879866455
7286,0.01666666753590107,-0.07025748531371355,-0.09185703044235706,-3.1189030049055813,1.3637971206665038,-2.9837741112306713,-12.37907004623413,122.33633784679878,23.388200133335292,-63.35986734502976
7303,0.01666666753590107,0.6469385983720422,0.07757774519920349,-4.600042310404778,2.1649569973267613,-3.0635309540346265,-13.76516316986084,105.07864913508931,6.133339546829023,-39.0747267698884
7319,0.01666666753590107,0.9615995910719036,0.5994046937808394,-4.887442955735326,2.4799440071105954,-2.7582699501037595,-13.975404003143309,88.52944911579608,-29.963715454860363,-25.55451244936802
7336,0.01666666753590107,1.2083410398863255,1.9269103116214275,-3.919598625054955,2.5857377929687497,-1.6807295654296874,-12.93392628097534,82.46053234010544,-77.17971694179673,-28.031454938663757
7353,0.01666666753590107,0.9164728937529026,2.8144831279739737,-1.6134113484382628,2.117671441473439,-0.9838672447204589,-10.574440544891356,90.67441538312522,-97.50474798711055,-36.73547918671282
7370,0.01666666753590107,0.8572402219310402,3.2888089051902294,-0.463599508279562,1.8698716427125035,-0.7243956398010254,-9.353996248626709,104.72179907171282,-97.08624180609635,-45.83150848179643
7386,0.01666666753590107,0.5937296438191085,3.888980783951282,1.9404981074690817,1.413925644860789,-0.4662710655763745,-6.807613145446777,129.03698564901308,-70.7744475004288,-49.455746874283186
7403,0.01666666753590107,0.2759352484643459,4.289030487862229,3.514094162869453,1.0260649759154765,-0.3667617668151855,-5.0842368629455565,145.37274908693257,-41.37131640660265,-46.57802083732215
7420,0.01666666753590107,0.11362542933188378,4.55430697966814,3.8372581954985856,0.8566752084594219,-0.42706572113037106,-4.577264661407471,154.4632390985993,-17.01134598646192,-39.882171242999796
7436,0.01666666753590107,-0.21999036614149808,4.632191598859429,3.6460593318164345,0.5603927530150861,-0.781407566833496,-4.4936172409057615,153.77104040735352,-4.134497919716308,-28.758672009784185
7453,0.01666666753590107,-0.4817527123466134,4.729708554759621,3.5895933482289313,0.32710772875361144,-0.9912000718265771,-4.334252608379721,144.9173393938328,-4.995673783480903,-21.907063366534274
7469,0.01666666753590107,-0.4804067045651376,4.9991848363429305,3.444401617962122,0.3428196771483868,-1.0018237571716309,-4.267963734436035,133.22279877996368,-12.533794985492552,-19.938438923196518
7486,0.01666666753590107,-0.44667124289758503,5.2421238241344685,3.2544396025985476,0.3687069825988263,-1.078288572692871,-4.199280074310303,112.23931700809312,-28.36620934007525,-22.36009615380288
7503,0.01666666753590107,-0.7401262928962707,4.9696261489033695,3.2198610411703585,0.051026276751607653,-1.5385744263797998,-4.07313498981893,86.32640574995432,-35.98658309516678,-23.473613356453594
7520,0.01666666753590107,-0.7444212866764515,4.93650246245861,3.032272184678912,0.017208251367136836,-1.698387971717119,-4.148852201843262,53.396554289516274,-40.73915849325588,-26.962962343021765
7536,0.01666666753590107,-0.6829736422188579,4.898919458517432,2.847049472796917,0.04324519442133605,-1.8137579796940086,-4.265120619964599,18.934141568016184,-45.95252577351072,-36.23803992455538
7553,0.01666666753590107,-0.5476113781794906,4.716222465720772,2.681609904271364,0.16415230519399046,-2.012177442279458,-4.417152425384521,8.694623346430193,-46.89750293574949,-45.59626993659203
7569,0.01666666753590107,-0.557168968662992,4.308557026109099,2.498909988865256,0.15248064516596496,-2.429517303687334,-4.590881683349609,12.89315428961537,-48.11315024951212,-50.854695974801444
7586,0.01666666753590107,-0.6308667306236923,3.5147190167695284,2.295975094681978,0.08230053593739867,-3.246238760486245,-4.771643908691406,12.34954550998958,-46.03902670425435,-52.4651521282529
7603,0.01666666753590107,-0.3758538586787879,3.2203146301567553,2.048227829825878,0.3532943094115704,-3.53653571178019,-5.021688344573974,-9.060546462345394,-32.32596711516054,-47.56681707818114
7620,0.01666666753590107,-0.09024630731008947,3.2856045561909673,1.850596887269616,0.6649892919126897,-3.413084104156494,-5.271732780456543,-45.221094475672395,-24.53923044245501,-41.62359627378625
7636,0.01666666753590107,0.587784033287689,3.740526252496242,1.3369032685220241,1.3811549365721643,-2.7837083427429197,-5.941510694885253,-79.69243425441769,-17.571498338031127,-36.071581384293
7653,0.01666666753590107,0.8469339319720863,3.9788416721403594,-0.004340659552812576,1.6630721089903264,-2.3805852227360007,-7.424718038830161,-81.31211116324867,-23.91195269927021,-38.16923834633605
7670,0.01666666753590107,1.067353556376323,4.086769547417759,-0.596678775948286,1.8918681512694804,-2.1121353615909815,-8.150760276794433,-73.94758946427665,-36.83362900508591,-43.969137876281984
7686,0.01666666753590107,1.9218895608499644,4.955458507341146,-1.2461153286159037,2.74360531880483,-1.022773021697998,-8.97631093673706,-85.71431151729446,-46.17279595914905,-61.502520343649856
7703,0.01666666753590107,2.7467966621920463,5.140801630732417,-1.8482044391751289,3.5714005428038536,-0.6245873580932617,-9.738115977478026,-110.45109152111375,-47.48230373248599,-63.809362094308305
7719,0.01666666753590107,2.802109384091198,4.48250314169526,-1.776280189692974,3.6129998697143044,-1.011101873126626,-9.859172798919678,-137.93616206202773,-46.47410633928958,-50.45776977646991
7736,0.01666666753590107,2.672548061415553,3.3644606507629153,-1.7346359276622534,3.4410661168638614,-1.6856676063537597,-10.10577498539388,-159.50094074359058,-28.775180577008104,-23.21015929978786
7753,0.01666666753590107,2.9803736551374196,3.570369300059974,-1.9200380877643823,3.7276220549985766,-1.1282678246095776,-10.495282252502442,-152.3681468725896,-7.35184145277789,-9.495848078528647
7770,0.01666666753590107,3.179363611087203,3.9833477513879534,-1.9868746587187052,3.947140565844625,-0.3898056655332446,-10.730811256298422,-133.11046948887366,15.797296936965079,-9.105501059915126
7786,0.01666666753590107,3.5087279596611856,4.695942771019041,-2.285468313714862,4.388571496935934,0.709880792236328,-11.202170292663574,-120.35524147803659,43.007389184536244,-17.42525545016469
7803,0.01666666753590107,3.4929686649933456,4.332674107016623,-3.076515231031179,4.503642814227193,0.6388029304504395,-12.104485043334961,-126.7471647297663,51.417906543571526,-17.972198215879096
7820,0.01666666753590107,3.623503801137209,4.004757619163394,-3.4739264031320807,4.770596445465087,0.6298246742248534,-12.609811231231689,-137.01371769386085,49.10848981159598,-15.572028760401595
7836,0.01666666753590107,3.829776315310597,3.01675955824852,-3.581840834406018,5.124788361303508,0.08978256225585937,-12.851475961303711,-137.5160507865586,36.172924316103064,5.089204259540943
7853,0.01666666753590107,3.580816752055287,1.699130606777966,-3.0529028847754,4.93504817199707,-0.9080009796142577,-12.409147204589843,-130.85392525126318,23.081903715100655,31.807344021292298
7870,0.01666666753590107,3.0523157325372097,1.0222997050978242,-1.863845660421252,4.425681476537883,-1.1798923595152795,-11.320832327923178,-131.78399211054383,13.426351299625123,54.51612474731891
7886,0.01666666753590107,2.883381599894166,1.0389932118758558,-1.1935808392584324,4.261080404663086,-0.8535327457152306,-10.716745906066894,-133.59537193880954,16.260098602294097,59.0953704348406
7903,0.01666666753590107,2.2433703165672716,0.6543218404911458,0.08604045311808585,3.6522049949645994,-0.932840529577434,-9.488221179199218,-126.98242376553821,32.315807208770146,61.98622751048099
7920,0.01666666753590107,1.5759174840852617,-0.4112161178305745,0.6698813748031854,3.099742815753072,-1.6451156696043907,-8.93875189819336,-102.92135437630829,53.6985032923442,69.19891410420362
7936,0.01666666753590107,1.212277210291475,-0.8310986494585871,0.6607990736812352,2.8568808387205005,-1.8626885993406175,-8.951769785198568,-82.25858413691567,57.31664574099671,76.141616980414
7953,0.01666666753590107,0.6679268797345459,-1.0340455263406039,0.5393389321357012,2.429965047454834,-1.9146128478452562,-9.067440237426757,-67.12775486104563,51.06929027323949,81.86524720299298
7970,0.01666666753590107,0.10867606329619883,-1.368801358694583,0.8819657901257276,1.9930232444763183,-2.097769201781973,-8.71429549255371,-56.87893648313103,34.76032166743395,82.5566604224842
7987,0.01666666753590107,-0.09088073275610804,-1.466808290068805,1.127101411178708,1.849520782470703,-2.094477174499258,-8.465148297771812,-57.3652083859955,21.52692065054075,80.64334002085604
8003,0.01666666753590107,-0.6480259552173316,-1.6335203627482056,1.481159763765335,1.319055477142334,-2.149693413753994,-8.112303412628174,-65.05229942889972,9.844580462076573,79.27342263940493
8020,0.01666666753590107,-1.2634956486143172,-1.6004633117988705,1.606363183492422,0.7083845623292029,-1.9285290719296782,-7.9943889808654784,-77.67030893931123,2.026655438073476,78.1048114233616
8036,0.01666666753590107,-1.5380942416474221,-1.7472616004794834,1.866768269869685,0.4360441234864294,-1.9177550548611209,-7.73761085281372,-79.45218235036249,5.005033277077937,75.38707232242434
8053,0.01666666753590107,-1.8831626475706695,-2.3211747101292013,1.6873609662681817,0.10983414729014038,-2.3301562902522126,-7.914632138061523,-78.34314404426001,11.021696117410217,69.63224862590592
8070,0.01666666753590107,-1.9493318406574427,-2.992394932320714,1.2301380072832107,0.10070625346079468,-2.797324926293641,-8.35785872039795,-68.74023275049142,22.90084393794008,53.78237118516278
8086,0.01666666753590107,-1.7016753228247166,-3.356753145125508,0.7364519882977009,0.42078108790293334,-3.030759368963167,-8.832209924316405,-55.364283978072756,31.276880794497846,42.40698823573544
8103,0.01666666753590107,-1.6531545991532504,-4.378076844798028,-0.3853378724694252,0.5597942756652832,-3.9546221172390505,-9.929651525768637,-42.149172500229554,38.20608380181368,40.484952512726345
8120,0.01666666753590107,-1.5709750592470169,-5.088895502406358,-1.5628075348824262,0.7947253135681152,-4.5814538201929995,-11.066298763927817,-28.151977041663216,48.87286536070347,43.95786123396229
8135,0.01666666753590107,-1.9073072010070085,-4.736958964279293,-2.3673849649012086,0.586579698999226,-4.209155681234412,-11.8369330078125,-11.282044145550886,48.83080505579453,44.17291315507473
8153,0.01666666753590107,-1.9718711508542297,-3.9828678589165207,-4.115662464424967,0.6795046509340406,-3.47458453824725,-13.543400241088866,-3.9242702465920165,43.151308100537584,36.34906464951394
8170,0.01666666753590107,-2.148876654011011,-3.029127749173343,-5.557895408424735,0.6067804832458495,-2.529174376888759,-14.956128273662923,-7.520095479018337,37.940051348736276,30.02026942118807
8186,0.01666666753590107,-2.296094337147474,-2.452242345714569,-6.0424880203723905,0.5481228348329663,-1.9554635483454912,-15.414468838500976,-2.8472399144875085,31.745626431952065,20.049784667046065
8203,0.01666666753590107,-2.0928718581944703,-1.5829156724095343,-6.712721861875057,0.820912186487019,-1.1119566316800191,-16.064643642315268,17.60977471813988,22.89869413589882,7.642094610425813
8219,0.01666666753590107,-2.060891204304993,-1.5385584981583058,-6.591942103809118,0.8991726532533765,-1.1722605494625866,-15.934010014232992,43.80135427932062,5.08631679706932,-8.487437241920672
8236,0.01666666753590107,-1.8708648915335535,-1.6896688048191368,-6.438577588480711,1.0826280632019043,-1.425447320225183,-15.786168061718344,46.172809619527385,-11.242740675745694,-16.591104937398544
8253,0.01666666753590107,-1.4021613381132483,-1.917863958595693,-6.179291277000308,1.460014392144978,-1.781135858696373,-15.55797130050659,41.97498218582672,-42.65377321573176,-14.039245518191525
8270,0.01666666753590107,-1.557850789257884,-1.9054083816483616,-5.180139953908324,1.1816884491518138,-1.8587978755123913,-14.596250421142578,39.08872182749775,-55.369454431274455,-9.931061756026336
8286,0.01666666753590107,-1.7040163329929112,-1.486560746026039,-4.597773780950904,0.8970777268007397,-1.532887197356508,-14.053065919494628,42.8819664208073,-55.67950062336343,-8.485878251242617
8303,0.01666666753590107,-2.016791365815699,-0.08803548112651333,-3.59377326426208,0.4082113830566406,-0.29598274184539913,-13.09358901966512,64.69542887495572,-51.792781476167676,-18.637946999563994
8320,0.01666666753590107,-2.1293632675066587,1.3642388730846344,-2.7203841638237236,0.17507628865987063,0.9877582608096301,-12.244994753265381,84.04406388784871,-47.327944872338286,-38.670591306887914
8336,0.01666666753590107,-2.1340137236610053,1.848357730040699,-2.3391584028482435,0.06539177897349,1.2759602125857024,-11.878831536865233,96.51969810501132,-41.83606296829783,-63.24287303473662
8354,0.01666666753590107,-2.1666005267500874,1.7822614560596644,-1.6376836199074982,-0.06254851837158203,0.9279031462404876,-11.177779363250732,106.72158966823335,-25.001936485135648,-84.39661776223726
8371,0.01666666753590107,-1.74087102265954,1.3828817603647707,-1.4525409875243902,0.3435679382324219,0.3075056410524994,-10.97457149734497,105.37323519399196,-8.763701318374762,-77.43720824331703
8386,0.01666666753590107,-1.514562997803837,1.4633090497761965,-1.7473118693619965,0.5795465854920446,0.17851795354634523,-11.241225707244872,92.92086460114243,-2.249592812582692,-62.648380199567875
8403,0.01666666753590107,-1.0089480560936033,1.3325135091304778,-2.4596119976997373,1.0974423321045934,-0.18779504658803342,-11.915941662597655,73.94299274696523,-9.629225451319718,-42.547877962839884
8420,0.01666666753590107,-0.40895635620504617,2.154868149510771,-2.8829537298709154,1.666514139202982,0.4840777942933142,-12.320711380767822,68.52101782907985,-30.180918885561354,-40.93829948869677
8436,0.01666666753590107,-0.08351020398810505,2.7726047649264336,-2.6757775448560714,1.9105730709351598,0.9500491462707519,-12.102988667297362,76.7123134365144,-52.78341162281881,-51.07719963229837
8453,0.01666666753590107,0.28547113857269285,3.3602889180362223,-1.4573071790128946,2.114678616333008,1.2861354965761302,-10.86593459701538,103.69628714897043,-69.7992535813019,-70.88676996132966
8469,0.01666666753590107,0.29055940162241456,3.402979766510427,0.288743876633048,1.9940707077026365,1.0841245853699744,-9.086294575500487,124.801257495608,-66.94721930090387,-82.21752103962555
8487,0.01666666753590107,0.2500036654807627,3.351670727294683,0.9938269131988287,1.8589479515075682,0.7448962837770581,-8.322095333099364,140.71920460161948,-53.53403233713029,-85.72525348034482
8503,0.01666666753590107,-0.0185926183976233,2.5124121522560716,2.0993618047356604,1.5391725384034216,-0.5240308883666992,-7.094318794250488,151.2030122228338,-26.329460589955787,-69.9679387632337
8520,0.01666666753590107,-0.19660116111710665,1.7175626277863978,2.5761504649341105,1.370381029101461,-1.6542437095642089,-6.498312218475341,150.67010720341105,-10.147137351740628,-53.13831166718726
8536,0.01666666753590107,-0.23575579828917978,1.7895938447743653,2.581618082690239,1.3609540061950682,-1.9120695931032299,-6.358101783752441,146.02914392654912,-1.7329903874917199,-39.35159190298945
8553,0.01666666753590107,-0.26077085094973446,2.0443997959703206,2.6120389399170874,1.3793594314575195,-2.072181536865234,-6.136338854980468,135.04600849587186,-1.3668389938478516,-29.376192827739622
8570,0.01666666753590107,-0.22680618363618849,2.4485487518936395,2.58575649766922,1.4368202713012694,-1.948580876159668,-6.02051934967041,123.34140018316616,-6.252566048320296,-27.85818669979887
8586,0.01666666753590107,-0.2331155129134655,2.704756094320118,2.4223230082690717,1.4431050506591796,-1.9399021874025464,-6.050446870422363,109.35880083885614,-11.2848650136781,-27.159693989232935
8603,0.01666666753590107,-0.2888705717526376,2.7923177656561133,2.2110317891508338,1.3971663063049315,-2.1242560074955223,-6.104914958190918,88.25547656780853,-12.451214583332511,-29.029376312253884
8620,0.01666666753590107,-0.2466619538374245,2.4567338119149205,1.8351058881491422,1.4519335231505333,-2.62389538192749,-6.379051048278808,76.06399871068596,-8.52181956042887,-23.04013881587332
8637,0.01666666753590107,-0.23577260329350827,2.100381210911274,1.5302829833745955,1.4657003288269042,-3.129371791949868,-6.589142243957519,71.48565460813472,-10.178806377601038,-8.437757860992585
8653,0.01666666753590107,-0.20015183933600783,1.6206559127390383,0.991010102212429,1.4567219264708458,-3.803787887573242,-7.0090253601074215,66.3576510321267,-21.459083211704183,7.8816139766925275
8670,0.01666666753590107,-0.05035626853555441,2.260968663230538,0.844278741288185,1.5381247829161584,-3.297265183368325,-7.077409745025634,58.348113588695355,-32.389733761251776,7.7937231024528035
8686,0.01666666753590107,0.05241875402331352,2.7107483204722405,0.906249167510867,1.5578770927429197,-2.959083614349365,-6.95231270828247,48.3843155897508,-42.46864435337315,-1.5999862205057673
8702,0.01666666753590107,0.5691261676341295,3.830184896111488,1.374420221489668,1.976263686724752,-1.9455881240844726,-6.424989792633056,32.964477104435424,-41.70903852520852,-19.502244259779285
8719,0.01666666753590107,1.1215075366944074,4.358286979439854,1.5857938581943511,2.491615594073385,-1.462408886066079,-6.18676672744751,19.95091255616825,-30.433444639555066,-27.57990942508692
8736,0.01666666753590107,1.3099481877095998,4.320022422975302,1.4458482118874787,2.6738741954527794,-1.516128785815835,-6.3162032546997064,5.391534045415095,-18.86207794963067,-29.803766084877005
8753,0.01666666753590107,1.682611287523061,4.196817483589053,1.0355255357652902,3.070264353942871,-1.6157874299198387,-6.739976948547363,-11.136322059608665,-9.832752281981405,-27.90528768431528
8770,0.01666666753590107,2.393824643537402,4.26314318241179,0.47854924013018607,3.8001964389525353,-1.5077484954833984,-7.324611066436767,-20.574814478355776,-12.904148332858153,-26.07270694886584
8786,0.01666666753590107,2.8903593299522994,4.558149626570939,0.25907939073145386,4.301183136340231,-1.1466735421329737,-7.5917141891479485,-34.88978107296237,-23.057296251068394,-28.07800267785739
8803,0.01666666753590107,3.2011268223449587,4.535957083985209,0.1202805763721466,4.586242917633056,-1.0235212097167967,-7.838616235351562,-63.16789804821739,-33.89621052987354,-24.87105981535445
8820,0.01666666753590107,2.8479230407610534,4.050529774779081,0.16072481496334076,4.188206745501607,-1.3358148887634276,-7.923909669494629,-95.80452265739761,-36.6025807809373,-17.522551494891523
8836,0.01666666753590107,2.76132758410871,3.7987493088841435,0.3070312284737825,4.049193557739257,-1.343746266284585,-7.943212920379638,-127.71724283720486,-27.67914865863262,-7.76417997297156
8853,0.01666666753590107,2.727315424391627,3.473944523310661,0.3585544949620962,3.970334394427389,-1.2578542817264795,-8.14058491973877,-148.0849762252096,-2.6606301817394744,5.059678205532624
8870,0.01666666753590107,3.2395918698176738,4.134665855580568,-0.2059884365350008,4.490774126434326,-0.2738368148803711,-8.876053742218017,-138.81523472896507,16.622467458519953,8.244217620671103
8887,0.01666666753590107,3.3195889511182903,4.4599841436341405,-0.6966232512563466,4.617217609350383,0.3353375777646899,-9.498545589336752,-109.52793681327316,31.071896572222006,5.260511380340386
8903,0.01666666753590107,2.8793460607677694,4.500765066833794,-1.097487194159627,4.309114075469971,0.6350616980955004,-9.995941568756104,-63.169264086051385,56.7639639088322,1.7862506018138926
8920,0.01666666753590107,2.7896944314152,3.957124638111889,-1.6664730765402316,4.358194771111756,0.22789807052612304,-10.599729299926757,-58.81587226381451,60.93114086863244,2.7128672550683204
8937,0.01666666753590107,2.6606407660007476,3.445005429074168,-1.9189134676486252,4.3525089805603026,-0.12973580245971678,-10.892719143566488,-78.52255945337791,49.18144989231006,12.177186540057955
8953,0.01666666753590107,2.3364409605830905,2.291846324314177,-1.7630881151646374,4.133439528656005,-0.9870099266603588,-10.828974108886719,-117.99961851632591,35.571160744562846,29.510621195889225
8970,0.01666666753590107,1.9923763248749076,1.769369971913099,-1.04606329639256,3.846584242248535,-1.2155059630796312,-10.201543051800131,-141.6316222520848,39.11689294272947,42.473787485818164
8987,0.01666666753590107,1.8378383818529545,1.4084168913766741,-0.7315396663367748,3.7633857345581054,-1.2470797897338866,-9.973346290588378,-150.96771220592686,51.29942325203931,57.569007570450346
9003,0.01666666753590107,1.4495625562354921,0.630399113111943,-0.5693529621273279,3.508103836413473,-1.5949869262143967,-9.89568378971517,-140.1695246375952,65.99923685543028,79.74567557899795
9020,0.01666666753590107,1.2159415780179201,0.8237839425310493,-0.6037941609114408,3.3997665035523474,-1.1357492664061486,-9.961225644683838,-113.46061630339393,73.3471065532058,83.82296383422623
9036,0.01666666753590107,1.0740484509050845,0.9903357100822031,-0.6422083549797535,3.406949108532816,-0.772279526873678,-10.002825483050941,-88.65519289841602,80.98900906456122,79.04176994351477
9053,0.01666666753590107,0.5193640655994415,0.6709563105583191,-0.7167524315714836,3.0711621795654294,-0.8940845363341271,-10.05534769744873,-74.531058374125,75.75360759404391,72.25719960696853
9070,0.01666666753590107,0.0864680308803916,-0.10534750339537859,-0.8738438584685325,2.7715879890993236,-1.5427634025022388,-10.19555813217163,-71.286520442883,54.71357185584564,73.88044187454625
9086,0.01666666753590107,-0.12559914104640482,-0.6181028183795512,-0.8094757234543561,2.628983352716267,-1.936459937994182,-10.128520485687256,-71.53225698884172,24.129521545091798,79.17454199079064
9102,0.01666666753590107,-0.5634498755633831,-1.1078135770585387,0.05216624056696891,2.1724387313842772,-2.267907230322063,-9.293393019104004,-75.33249228076677,-10.528476204612549,84.37407813797621
9120,0.01666666753590107,-1.0347118812948464,-1.0139444030761717,1.417192026245594,1.6371853149965405,-2.042552999059856,-7.962216896057129,-81.57056552144195,-18.81249248380367,86.1535541526288
9136,0.01666666753590107,-1.7601506004080176,-1.4274287580996752,2.446240474951267,0.8436571022585034,-2.2489031085141002,-6.972663422393798,-94.5329121886705,-2.5544459264683406,88.98008450666602
9153,0.01666666753590107,-2.112046514263749,-1.919659902101755,2.580410460466146,0.4918588035583496,-2.5579047602780163,-6.852654064178466,-103.89303074801265,16.6125483162978,93.73923054673666
9170,0.01666666753590107,-2.726208339932561,-2.6002497179239987,2.0502759945273397,-0.07377104639261961,-3.0470702696317806,-7.3802762550354,-103.67858329864175,33.35398913242291,99.91577061317919
9186,0.01666666753590107,-3.136391607584059,-2.66126123598665,1.0241729516237974,-0.3597285071775317,-2.8787277096737176,-8.378658347320556,-93.38785829507454,46.00736194726217,99.6921024084288
9203,0.01666666753590107,-3.268512551614642,-2.45267927582711,0.46720250120759005,-0.38112668451517817,-2.522440725818765,-8.904484886932373,-83.30119885333978,47.25849550885759,86.45354289116493
9220,0.01666666753590107,-3.286461465281248,-2.193457407885045,-0.5267401473253965,-0.28371260446757074,-2.1324850756218887,-9.862165550994872,-71.46008921007136,46.19595713062456,65.61414395983579
9236,0.01666666753590107,-3.0475059941679237,-2.476427231161296,-1.796079115140438,0.0900818374633789,-2.258779299960099,-11.084704189190267,-60.8409072395074,34.21675472271683,40.69900722621996
9253,0.01666666753590107,-2.8871552732139825,-2.9761113215178248,-2.415590485143661,0.327407369287312,-2.6430484837520867,-11.674426570129393,-60.68379922821877,28.558018127442132,33.729068970694165
9269,0.01666666753590107,-2.4401845359131693,-3.6874496190860864,-3.5915415596872564,0.84889471065104,-3.227233834960684,-12.818705326080321,-69.58516813195702,30.539831666067183,36.254763642738155
9286,0.01666666753590107,-1.9549340445786714,-3.7363054199308157,-4.93482371559143,1.444601718957722,-3.0882203549373894,-14.110526759338377,-73.34608202483031,32.594403794825794,45.74363126793505
9303,0.01666666753590107,-1.6897230192244053,-3.439813413389027,-5.521491385135055,1.7904142212465404,-2.6803083201535043,-14.65835002670288,-51.76568953082482,26.212606298540624,44.61896890410617
9320,0.01666666753590107,-0.6053758771449327,-2.35357242038697,-6.44346536052227,2.9282585602357982,-1.5436609358638524,-15.555427461242674,-18.325132873313873,9.94930092243121,30.211173208489924
9336,0.01666666753590107,-0.13173369827866555,-1.6997154209285974,-6.5549792775928974,3.390489410510659,-0.9282015446651727,-15.674688631439208,27.935557375169484,-21.308209455580478,1.5775982477886408
9353,0.01666666753590107,0.0008960720568895339,-1.9100766657203434,-6.351275152602791,3.4434608299806713,-1.2258308116085828,-15.508291031536459,46.460551828881684,-43.74432219975101,-10.169151905209226
9370,0.01666666753590107,0.02319090597331524,-2.373869650745392,-5.421769028145074,3.332878640802204,-1.7971471462307498,-14.635006560516356,48.41547491274439,-65.85229216562662,-5.9159013283753135
9386,0.01666666753590107,-0.799964383265376,-2.6176974040701984,-4.006316539043188,2.2673092644289135,-2.1942853466091674,-13.31131231765747,46.30298619491866,-80.4151912120101,6.540806434597181
9403,0.01666666753590107,-1.165667873199284,-2.1760237502641973,-3.2381618370145557,1.712153754480183,-1.8688235584316775,-12.60801557998657,45.065939898486384,-74.00637007227378,5.379108223767549
9420,0.01666666753590107,-1.6878966805800795,-0.47374823305662717,-2.256459661373496,0.9792287712648511,-0.3130413556087762,-11.692083807373047,44.85824750620464,-53.41740685705232,-7.205030805436697
9436,0.01666666753590107,-1.9644784102544188,0.8609924140714108,-2.229030971699953,0.5870283195495605,0.9174286509746219,-11.697769451794027,48.50442105121088,-40.851395576792115,-24.323579172242905
9453,0.01666666753590107,-1.9895278035759925,1.37498033959046,-2.4004794252514836,0.47435149617940187,1.3280341032606782,-11.892448558807372,53.80497228112635,-29.945639359221925,-45.77614296838431
9470,0.01666666753590107,-2.136823958776146,1.5230869343906641,-2.73098446829319,0.25992080999165773,1.3289320521808228,-12.2382604765743,67.33796759313113,-11.682335919595946,-71.54456498972608
9486,0.01666666753590107,-1.711920822507143,1.3819646455198527,-3.0972160737544296,0.6818987064637243,1.0504563802523539,-12.601431525421141,80.52717899364163,4.601813059426234,-75.59137694087777
9503,0.01666666753590107,-1.3756710983335971,1.5060950291879474,-3.4810850427150726,1.0474632263183594,1.0108023787233977,-12.970736546978353,88.6555617286312,10.427684810577963,-72.51832456912729
9519,0.01666666753590107,-0.8530933313846588,1.3649943676270544,-4.0468794355779885,1.5985788132265208,0.6922238472536206,-13.518261123657226,90.22617738865397,2.2861456371430733,-66.61932240941906
9542,0.01666666753590107,-0.4392079943448305,1.5743845754295587,-3.906661986592412,2.003797444207966,0.6622963265016675,-13.360243814086914,87.54135979951619,-19.79192282776328,-59.68650964712687
9552,0.01666666753590107,-0.32861265342384577,1.835919250358641,-3.5287428659468887,2.05736756022349,0.7460936038028448,-12.978068789562583,87.63629259879019,-38.618149114440556,-57.797374945349716
9570,0.01666666753590107,-0.2453874038569629,2.4872516997754572,-2.1521511456370352,2.0048447613038123,1.1366476765505968,-11.601104144287108,104.44357814606153,-58.36533932578213,-66.12998716671183
9586,0.01666666753590107,-0.24778628169223665,3.0659295396089554,-0.30009353816509243,1.8795980869568882,1.4739306892946362,-9.739911628723144,125.77348028244596,-62.71682552524057,-80.05528122388546
9603,0.01666666753590107,-0.17749591702222822,3.4951708512127397,0.5942366434931755,1.8382979621887205,1.6160864128664134,-8.81724557941854,145.6941914496517,-59.14282658919385,-96.45422391162757
9620,0.01666666753590107,-0.17159166141450405,3.462238303425908,1.8924013082981108,1.7492637340821324,1.1544544052675365,-7.443274270740151,157.48304331558035,-43.86467013292664,-104.53183102032726
9636,0.01666666753590107,-0.1477539819702506,2.473395023858547,2.449227966329455,1.7450737350463865,-0.16519991455078123,-6.804172065082192,155.60053389729813,-33.06339873418472,-94.49526418596538
9653,0.01666666753590107,-0.14601400643512605,2.2280922295451164,2.5486709218561647,1.7420809829711914,-0.7345707045957446,-6.607098756408691,149.9246057158825,-23.7274846577138,-79.9237112899035
9669,0.01666666753590107,-0.18151143627390265,2.0660370427608488,2.8748317982137204,1.7266684559144079,-1.3124714225769043,-6.131550451660156,144.13290582803518,-14.136580836506083,-63.60478426828808
9686,0.01666666753590107,-0.14452712887823582,2.104571648338437,2.828233128646016,1.7881693649291992,-1.5809212837219238,-6.051643386730551,144.6790887352044,-12.025054321579676,-53.322682378548
9703,0.01666666753590107,-0.15985183152109383,2.262448088133335,2.6620260828793048,1.7922097263611851,-1.7298106994628906,-6.0799254783630365,142.33756328394065,-14.523236137873212,-47.10500408273448
9720,0.01666666753590107,-0.2108085501678288,2.3734990638673303,2.2418869461417197,1.7615340175904333,-1.9913775230959057,-6.315455066680908,125.06416513714014,-20.103437510523808,-50.140917300873014
9736,0.01666666753590107,-0.2718932795971632,2.012404529033601,1.6502812356740235,1.7045219444274902,-2.58214678273946,-6.785017867279052,106.41281730642457,-31.209852733077923,-52.778507546994746
9753,0.01666666753590107,-0.33297099476382136,1.8411366927459836,1.3575070806115865,1.626411261395365,-2.9397806557253,-6.977601463317871,88.64834904886766,-41.822409420146975,-48.91714547709266
9769,0.01666666753590107,-0.433863710707426,1.643370433372259,1.171499940353632,1.46195938873291,-3.3396126252323386,-7.059303594970703,72.8350814220758,-53.34431358764943,-36.36075451827841
9786,0.01666666753590107,-0.6858613264843821,1.5757576173484324,1.1991069092035294,1.1335048484802246,-3.5416228057861328,-6.966229005432129,67.74617384887694,-55.89926195990859,-26.705955984932523
9803,0.01666666753590107,-0.7317755209192633,1.9278484692543745,1.433156488096714,1.0060133178159594,-3.3164182121276853,-6.669197777447104,62.550790456706736,-52.3599911206968,-24.944889037640408
9820,0.01666666753590107,-0.6260932326115668,2.767849094831943,1.6862667412906884,1.0281599754333495,-2.619855751147866,-6.339097808074951,51.59946321699422,-46.15077201417034,-36.77746435954089
9836,0.01666666753590107,-0.5253998386323452,3.1320266903728244,1.6958453014969825,1.1046244986936449,-2.334047343444824,-6.281337108501791,40.95908033924653,-33.167832326594215,-45.577196633334765
9853,0.01666666753590107,-0.3562118773587048,3.0203321560382843,1.5800877555072306,1.2841897693358362,-2.501940734863281,-6.356156494903564,32.555065320301104,-22.20100568010765,-46.54579258972345
9869,0.01666666753590107,0.024759178203344345,2.688807122299075,0.9205582633703947,1.6888099960327148,-2.87887844325602,-6.978948201751709,16.15978361395412,-21.38619997061827,-34.58692023988026
9886,0.01666666753590107,0.798060303209722,3.2160920440256593,0.31926059544980523,2.4477717761717734,-2.3527520439147946,-7.582436657714843,-3.456197809657866,-35.01965370493558,-24.30069462342878
9903,0.01666666753590107,1.2215262462824583,3.714254331642389,0.10807985096871853,2.8152818771362305,-1.8118126908451317,-7.8350249328613275,-29.018615349216528,-51.84622770642302,-23.89175412234719
9919,0.01666666753590107,1.7886295297868549,4.4180917520612475,0.34077567716538903,3.2692822208128867,-0.9608236382633447,-7.724293106079101,-65.99482455322645,-61.31949859465019,-28.086898999251336
9936,0.01666666753590107,2.6284283491820095,4.980734987416863,0.3342448140919208,4.017021326800435,-0.22161387569010257,-7.861959701538085,-89.23690644964766,-62.852104251941846,-27.600350473725477
9953,0.01666666753590107,2.9623125132679937,5.018517313322425,0.1672498328179121,4.245667439214885,0.035763387298583985,-8.181136125835776,-104.84925040162526,-64.52741305156258,-20.68131591053649
9969,0.01666666753590107,2.7416984622702003,4.514206147687137,-0.07400222479999065,3.8700771999083456,-0.1360208740785718,-8.633940099334716,-115.23508578938491,-55.606414184149706,-9.664972100114625
9987,0.01666666753590107,2.6131322881117462,4.567273721008003,-0.41070553795993325,3.6361934060361234,0.18405425262451172,-9.123404701232909,-119.26861302260092,-44.190552118606284,-2.5224392331308376
10011,0.01666666753590107,2.6811384873673316,4.631500109463929,-0.5982271744340658,3.6191347922727464,0.5229834251403809,-9.453205395397543,-119.67584256129541,-27.892084928649645,3.8087350354603124
10019,0.01666666753590107,2.933650482407212,4.942323131436109,-0.998328316271305,3.8156089660093184,1.2008414779111742,-10.020182276043295,-117.24096208445592,-3.9331277212850537,7.315226516184744
10036,0.01666666753590107,3.3553979311242697,5.0175031678438184,-1.5192098006963728,4.239532224395498,1.5450088433414697,-10.647762386211753,-110.42717219864036,13.443306390466034,12.615076797936641
10053,0.01666666753590107,3.4975109845981,4.589588136407733,-1.6211305445134638,4.416852857916057,1.3667898727416992,-10.837353814697265,-100.99120438856522,26.89539298911012,21.74455950580133
10069,0.01666666753590107,3.6513811113610863,3.764116971442103,-1.8098206402450798,4.640561294732615,0.8403647827148437,-11.118073959350586,-92.72584903996021,33.82311384537607,38.38904066401623
10087,0.01666666753590107,3.593256546911597,2.9760610526353117,-1.6812983052283526,4.63113412569575,0.27398645248413084,-11.051036312866211,-100.34225445514396,32.62400241959404,51.532732268803194
10103,0.01666666753590107,3.496444524410367,2.669412978260219,-1.4931979920834302,4.5708302444458,0.21532851181030271,-10.926837101745605,-114.67337103204306,28.157909060957373,61.38385946719922
10120,0.01666666753590107,3.2608906784340737,1.9392904852449893,-1.1378110212415455,4.36283390215449,-0.13721768264770506,-10.658536878204345,-126.41393346053971,20.912589530927708,71.87108218299855
10136,0.01666666753590107,2.754123644079268,1.3165572305858135,-0.43622985531687736,3.8661865491453558,-0.47524888341054317,-10.013449168395995,-116.82636960183613,17.59862784941442,78.14222036944575
10153,0.01666666753590107,2.3794985965430735,0.7701489445857703,-0.037055180674791334,3.498377319103852,-0.779312494250387,-9.655665657806395,-94.3184169279754,17.192639697601567,84.10931951517901
10170,0.01666666753590107,1.7706483212858437,0.3119672235712409,0.9013876989543438,2.919579286956787,-1.0028710742674767,-8.748562503814696,-67.83638698743447,28.69414721269507,87.95055643269166
10186,0.01666666753590107,1.5008108051747082,0.01675619675070047,1.5159715494275092,2.7108347566466775,-1.1637314252439885,-8.143876947021484,-62.8333007411568,41.83419149646525,93.35902123639873
10203,0.01666666753590107,1.3810831865102051,-0.13230126903355122,1.3858721743524074,2.6737245578490194,-1.1803411992613226,-8.278550790405273,-68.77692452671273,45.241656760168716,105.62344551385704
10220,0.01666666753590107,0.848874252384901,-0.4957104374852031,1.1574474496036766,2.246359561511129,-1.352424370519817,-8.511237264251708,-74.99413153947351,37.18240578486344,124.54449702432889
10236,0.01666666753590107,0.47854061843231316,0.020694120721518994,0.8091974910348654,1.931073130389303,-0.6964130425717682,-8.862735410961509,-72.26568270191768,27.954895348257082,129.62475074784936
10253,0.01666666753590107,0.3361012556135654,0.5049868729397654,0.7392284672737122,1.832911008453369,-0.08469451840184629,-8.934562045288086,-67.8753054053252,24.64399188394467,123.20207798447625
10270,0.01666666753590107,-0.018334698113799095,1.2824541777148841,0.6477940461575985,1.5285482685364782,0.853682931308262,-9.02658917160034,-64.07964634014405,16.226541882901824,107.75596717651841
10286,0.01666666753590107,-0.6202868844203651,1.1367793401062487,0.6481102724999189,0.9494505958557128,0.8286934514803811,-9.02718772201538,-64.86694858539308,9.587090868103555,97.54237549924815
