ts,interval,accx,accy,accz,accGx,accGy,accGz,alpha,beta,gamma
1698412932048.0,0.01666666753590107,-0.4100177383588627,0.1059106902360916,-0.04568856898546218,3.653261810541153e-08,-3.0334535034179684,-9.327211117553711,8.686498836412463,7.668646117050591,-1.5948823616484753
1698412932174.0,0.01666666753590107,-0.07237126259729265,0.07244155135452747,0.0874853912293911,2.0082865723207592,-3.423110700391233,-8.83565100468099,0.564432585662132,-6.966659764724191,-4.80797292801296
1698412932191.0,0.01666666753590107,-0.003398848658055067,0.20070114378184079,0.08556056064665317,2.0639519070498644,-3.293524243274331,-8.841187596020102,0.2210465060066069,-8.21572634032204,-4.7150746713379705
1698412932207.0,0.01666666753590107,-0.013765782763063906,0.15769962192326784,0.10915537124574184,2.0329767769411204,-3.330035526330769,-8.824877097210287,-2.6789385038096936,-7.831641751403776,-4.181201045713563
1698412932224.0,0.01666666753590107,-0.048028556240350004,0.09063859456330538,0.09956219799220561,1.9849432522647081,-3.386000574658811,-8.841936368560791,-4.770326632855142,-7.4712254755068965,-4.453963796444376
1698412932241.0,0.01666666753590107,-0.15768968505114317,0.05221563266664743,0.12804419611096382,1.861791504370421,-3.4097929536566136,-8.822183620342612,-5.440416428644406,-7.738192810726954,-5.115645629365354
1698412932258.0,0.01666666753590107,-0.2160107949860394,0.008282967437803745,0.05905073938369751,1.8680762837283311,-3.3818107217535376,-8.903885751995444,-3.8940650156481045,-7.018431317972418,-5.599530808001731
1698412932274.0,0.01666666753590107,-0.20954262188524006,-0.02687777779251337,0.009904138898849486,1.871517948614806,-3.384803181567788,-8.965835719951986,-2.4100629844902643,-5.669487313028294,-5.465940845572744
1698412932291.0,0.01666666753590107,-0.2534222417525947,0.006209376034140586,-0.006672317370772361,1.8173491360537706,-3.3503868249639868,-8.985288608440756,-2.137632992038078,-4.550574687820091,-5.054919271228417
1698412932308.0,0.01666666753590107,-0.14655658887922762,0.09031973787248133,0.12248247033059596,1.8830400441043078,-3.2924767800480126,-8.855703028106689,-3.974546415298834,-4.867363557280337,-5.870751643527414
1698412932325.0,0.01666666753590107,-0.10980915897935628,0.06781622964143752,0.17569032890498637,1.8927663422182202,-3.3129771317631005,-8.809314786419272,-6.273046797433403,-6.9903110022726525,-7.000115311939383
1698412932340.0,0.01666666753590107,0.04169759965315461,0.05038081845492124,0.2832037781625986,2.0061916458681224,-3.321506767438352,-8.713547304534911,-7.71388843633911,-11.116409496857138,-8.033700091393909
1698412932358.0,0.01666666753590107,0.04500964681059122,0.0462543861746788,0.17424013009667397,1.965340726172179,-3.301904241345823,-8.840888905334472,-7.869710664516488,-14.605850690979102,-8.776594154206808
1698412932374.0,0.01666666753590107,-0.01199687339439988,0.05909896243959665,0.08864099100530147,1.8746604844242334,-3.2682354882389304,-8.941295737457274,-7.421178971910921,-14.660736383602032,-8.475228278779275
1698412932391.0,0.01666666753590107,-0.0009675298579037189,0.10290507867932319,0.028635142853856085,1.8508679592959583,-3.2016470468267797,-9.016862727355957,-5.544691219155698,-13.574135248923044,-7.809136278088584
1698412932409.0,0.01666666753590107,-0.04037278079017997,0.14833470446765423,0.0073953709483146664,1.8032832013003528,-3.1542119264349338,-9.04050546875,-4.232660117807263,-12.302578567935633,-7.2134917022710505
1698412932425.0,0.01666666753590107,-0.07678337995111942,0.17878975622504947,-0.02788987744450569,1.7621327141359446,-3.119346072497964,-9.07836378250122,-3.8907498125797098,-9.5712166546988,-5.902668263745237
1698412932442.0,0.01666666753590107,-0.19711817072853444,0.18924100761264562,-0.03052665568888187,1.6445177037112413,-3.1022873856693503,-9.082852326092123,-4.4839816240729355,-7.950565590137453,-4.152264949294804
1698412932459.0,0.01666666753590107,-0.019330577283352614,0.20834961270838975,0.06331073491573333,1.8097176182620227,-3.071611969159543,-8.99576324070394,-3.156436601798462,-9.869815449738832,-3.681211134787943
1698412932475.0,0.01666666753590107,0.017303309239447114,0.17723258991092442,0.10670739357173442,1.8257286957338452,-3.091812753406167,-8.960449350738525,-2.759511897570807,-11.708176232773397,-4.08372869672878
1698412932492.0,0.01666666753590107,-0.10299334148466587,0.09319996948391199,0.088578447163105,1.6711530510500072,-3.1539123589664695,-8.993219401440024,-4.283250902102724,-15.629627745672312,-5.502442230270939
1698412932509.0,0.01666666753590107,-0.09601531916558742,0.08391396248340606,0.1594376977622509,1.6392802414491772,-3.14074424983561,-8.9378540725708,-4.3082502482386165,-18.094603743542187,-6.8176532115648385
1698412932535.0,0.01666666753590107,-0.13553542864918708,0.09324906932264566,0.14913608397841452,1.5584757892884313,-3.1139588265016673,-8.962094779857992,-4.432805151056146,-19.42025979162433,-7.674047089136779
1698412932542.0,0.01666666753590107,-0.17830372627377508,0.05807692591547966,0.0651724371343851,1.468244460351765,-3.1278754159122704,-9.062202336773275,-6.213645495995448,-15.853239601362068,-9.219294572808478
1698412932558.0,0.01666666753590107,-0.2705249138534069,0.16299714380949734,-0.0025754034459590913,1.3503300285890698,-3.002928309033811,-9.141510266765952,-7.163565580759196,-12.059692772181748,-8.358668539272069
1698412932595.0,0.01666666753590107,-0.06812894885241985,0.10379150612503289,-0.015945757150650025,1.5004165451601146,-3.00681859447062,-9.182960467529297,-7.702433355327352,-10.434933348834639,-6.351540185148836
1698412932608.0,0.01666666753590107,-0.08884586592763662,0.07498626740127802,0.16673428451120853,1.455525264032185,-3.018191052356362,-9.010278088268636,-5.116701747365767,-14.990040294055857,-6.876286116721167
1698412932624.0,0.01666666753590107,0.010715309151262044,0.04847323126792907,0.11662205386459827,1.5186724789492785,-3.029713147845864,-9.071479868206382,-5.06375710912759,-19.7730134490461,-8.149412033670387
1698412932641.0,0.01666666753590107,0.015935235756635666,0.007493570625782013,0.12605915977358817,1.4639049698427318,-3.0484178483158346,-9.07911197052002,-6.115693326221472,-22.569480725451495,-8.428535398065774
1698412932658.0,0.01666666753590107,-0.11552534466907381,0.17521628165245054,0.10963701728284359,1.2841902077272533,-2.8628675119146703,-9.108889269146323,-5.7745526979360156,-22.99294220870853,-8.179283012231792
1698412932674.0,0.01666666753590107,-0.14893690814450383,0.20750117918550967,0.08373276069760321,1.2036853230349718,-2.8155817368656395,-9.146747582897543,-4.671684187088172,-20.44041513851014,-7.334263960948862
1698412932704.0,0.01666666753590107,-0.2123782837025821,0.1701385399967432,-0.03420797455012798,1.0929533501222728,-2.83443607493937,-9.277531433105468,-4.866813300165328,-13.374023512846364,-6.590724445259396
1698412932708.0,0.01666666753590107,-0.17282719455882906,0.17529110045433044,-0.1072924999833107,1.1103113121584056,-2.817826300922036,-9.357437913513182,-2.886643275809312,-8.997810321045181,-4.914712136154158
1698412932724.0,0.01666666753590107,-0.24906010102033613,0.1930073744088411,-0.08596154266297816,1.0199301994875072,-2.794782109943032,-9.339780091747642,-0.5302183004796869,-5.418001455335717,-3.4460122900580843
1698412932741.0,0.01666666753590107,-0.26553090495839715,0.1907739162683487,-0.014455226331949234,0.9953896324709057,-2.794931747546792,-9.27004955291748,-0.47814002904904374,-2.261492069333912,-2.8463878483885496
1698412932757.0,0.01666666753590107,-0.2377856966815889,0.13601590564250945,0.05314589925408363,1.0197805618837474,-2.8461081002935766,-9.204059369659424,-1.7455503583234329,-2.657472926795636,-3.205335633613876
1698412932774.0,0.01666666753590107,-0.17397198067978023,0.12748890031576157,0.09401040908396244,1.0773910393312573,-2.847903459277749,-9.166201055908203,-2.433230132381301,-5.010488036903838,-4.717834494649479
1698412932791.0,0.01666666753590107,-0.07770546323210001,0.08374328209161758,0.09690086982846259,1.1514616531923412,-2.869451274219155,-9.173383660888671,-1.7580405331595648,-4.728189061431218,-5.719148337822987
1698412932808.0,0.01666666753590107,-0.1347302497461438,0.11754793653786182,0.01839899552166462,1.0694602463319898,-2.8179762307867406,-9.260771436962484,-0.8896068463498906,-3.8145795429557277,-5.305259364687725
1698412932824.0,0.01666666753590107,-0.12775420018844305,0.10731003564000129,-0.020872107636928556,1.0649711912844328,-2.8212682580694555,-9.303717429241537,0.2661478992826407,-1.9103823530679986,-4.519351758689847
1698412932842.0,0.01666666753590107,-0.12952142905667424,0.0961339771091938,0.014229600882530212,1.0561424995973705,-2.8321915108829736,-9.269600055584311,3.0623940749940837,2.1238616231240397,-2.8324299299328053
1698412932858.0,0.01666666753590107,-0.10706146770641208,0.13789981969296933,-0.0032622166663408276,1.0815808922365306,-2.793435371509194,-9.285761501312255,1.7048195924251197,1.9143124866051062,-1.8956011833738564
1698412932875.0,0.01666666753590107,-0.08025427093207836,0.1220189444720745,0.02906710453033447,1.1115084129884838,-2.809446887372434,-9.252990866088867,-0.3789054112171185,0.4344084088667148,-1.3786640790135534
1698412932891.0,0.01666666753590107,-0.026436390700563788,0.07753039892613887,0.13026537929177284,1.1619362854555249,-2.845209982410073,-9.15497823562622,-1.757598064967395,0.010778652160088364,-1.207109363856697
1698412932908.0,0.01666666753590107,-0.03154832688681781,0.07229308279454708,0.11335749911069869,1.1472717272218316,-2.8390748406559227,-9.176675103649497,-2.1547797550625716,-2.286437200843268,-0.8213471097235467
1698412932926.0,0.01666666753590107,-0.008162555928528308,0.06472469336688517,0.09938567238152027,1.1616370102480054,-2.8404218713507055,-9.193734375,-1.3422033552852617,-2.646330967268641,-0.9254273465651993
1698412932941.0,0.01666666753590107,-0.07978007754907011,0.07525543973147869,0.04069149135053157,1.0803837914064527,-2.8238118050724266,-9.255534120830893,0.08573664324767263,-1.568976948230498,-1.278618242815557
1698412932958.0,0.01666666753590107,-0.17850882039181887,0.08070026113390923,0.04516425285041332,0.9796776840761303,-2.8163299248844385,-9.251942818340659,0.6297430145883525,-0.47525752913673963,-1.3368304510076947
1698412932975.0,0.01666666753590107,-0.20415471830181775,0.07873422175794839,0.06614157442748546,0.9551371170595288,-2.818724126544595,-9.230694278606771,0.2578622928500335,-0.22743126545711434,-1.6370042449816498
1698412932991.0,0.01666666753590107,-0.08657017608061432,0.08672229790240525,0.07368366037011147,1.072452998407185,-2.808249494281411,-9.223960586437583,-0.7719637214464439,-1.1166714693867927,-1.9022661673433194
1698412933008.0,0.01666666753590107,-0.03738528941199183,0.04423398626297712,0.03767185126841068,1.1189902931764721,-2.84730490886271,-9.261369987377524,-0.4859306068493837,-1.8328812637729217,-1.9345339019731638
1698412933025.0,0.01666666753590107,-0.03768105748817324,0.05294833085536956,0.03445814991891384,1.115698192828521,-2.837129551807046,-9.265410202679037,0.45436675523002096,-0.4765763959767868,-1.4600182487741638
1698412933041.0,0.01666666753590107,-0.09490575048848986,0.1098781325623393,0.10772563070356846,1.0544965590212494,-2.7790704538092017,-9.192986186981202,-0.40967565355186397,0.5045920176831808,-0.6906335107087815
1698412933058.0,0.01666666753590107,-0.041631475614383816,0.04449146815538406,0.09720306764543056,1.1020811708863825,-2.8401220116212964,-9.20555516117513,-1.9985581742621592,-0.5208443460915204,-0.23290035267201695
1698412933075.0,0.01666666753590107,-0.021858269130066037,0.04247603667974472,0.1093570312976837,1.1176436278078705,-2.8354835381656884,-9.195978354534507,-2.3515037173109254,-2.29972149189212,-0.5798794853569389
1698412933091.0,0.01666666753590107,-0.006868351399526,0.049505204664170736,0.10918225925266742,1.1234794212892651,-2.8205200700506565,-9.19971987915039,-1.8310140608085694,-3.2492584457321123,-1.0125781057753291
1698412933108.0,0.01666666753590107,-0.04199482903406024,0.04083469921350479,0.068906362965703,1.080832704217732,-2.8239614426761865,-9.242516233825683,-1.3554159293478283,-2.971178819619267,-0.9716527862073763
1698412933124.0,0.01666666753590107,-0.0652776510745287,0.038621114817261694,0.07556874346435069,1.0513541693422943,-2.8220161538273096,-9.23787688358724,-1.2285036507712925,-2.0630703781899875,-1.0182193084212308
1698412933141.0,0.01666666753590107,-0.06169920806586742,0.027684418000280854,0.03428045526444912,1.047613156183064,-2.828450863049924,-9.281421426281332,-0.8485037284201059,-2.9066341722928817,-0.959537311280243
1698412933158.0,0.01666666753590107,-0.020643851839005946,0.07080021388828754,0.06571896510124206,1.0841246584352104,-2.784606752887368,-9.25074630203247,0.41147548843944165,-1.6092861633909745,-1.0552099054187272
1698412933175.0,0.01666666753590107,-0.05516549544818699,0.07583616222888231,0.10517419265508651,1.0488101839479058,-2.7810151581361886,-9.210942114910482,0.8035736768427042,-0.4711703012487217,-1.0486927310117715
1698412933191.0,0.01666666753590107,-0.035773762562125916,0.06150894619077444,0.052556116667389866,1.0667668425295502,-2.7952310227543116,-9.26376418903768,-0.6603906070027287,-0.8434490682691791,-0.933691768739209
1698412933208.0,0.01666666753590107,-0.036901451417803766,0.10547346786260604,0.07681435961127281,1.0618287285402417,-2.7477961946234104,-9.241019857788086,-1.526272257662051,-1.6331001515407528,-0.2827183117350619
1698412933225.0,0.01666666753590107,-0.02558350019827485,0.10339753837138414,0.06157996560037136,1.0678142326906324,-2.7464491639286277,-9.25792890701294,-0.9113334646562896,-2.036355373911952,0.25182501927355044
1698412933241.0,0.01666666753590107,-0.07811747809909284,0.03940466641038656,0.06140285546779632,1.0121490440919996,-2.811242538617551,-9.25822759769857,1.823624649900262,1.1936705397778737,0.4327221258740886
1698412933258.0,0.01666666753590107,-0.17040705473981796,-0.007946575090289116,0.05617664525210857,0.9243118437502532,-2.8627175820499655,-9.261669847106933,1.8625650524623856,3.026251061783903,-0.316621743268992
1698412933275.0,0.01666666753590107,-0.1426180073212832,0.0464744586661458,0.03812777834236622,0.9594765345033258,-2.8106434036806225,-9.278129398998617,0.5204537446483603,2.475431309941871,-1.5291869341686481
1698412933291.0,0.01666666753590107,-0.10604513027071952,0.06274228737801313,0.12817395997047423,1.0018240494325756,-2.788347985242307,-9.189245246887207,-2.1793722780560256,0.35276182163226333,-1.4514666384898962
1698412933308.0,0.01666666753590107,-0.014794687419384717,0.004701017297804355,0.10256313337385654,1.091606611688435,-2.837728102222085,-9.217675807079672,-2.7742512323562827,-1.3779654787275082,-1.355619661084165
1698412933325.0,0.01666666753590107,0.051624827166646715,0.02258563355654478,0.05082885448336601,1.1495163643434643,-2.813187535205483,-9.272443754577637,-1.2744467047799717,-2.3288810635627852,-0.4421536299420977
1698412933341.0,0.01666666753590107,0.05397562807649374,0.046532034072279925,0.03498480414152145,1.1462244101259857,-2.7893951562076804,-9.288903890991211,0.6318156034754812,0.22260434942632518,0.5122632272556042
1698412933358.0,0.01666666753590107,-0.07119374325051904,0.12115355981439352,0.06330138256549835,1.0203791853640227,-2.7178683816105127,-9.259724558258057,1.6318918483878952,1.2505280226368218,0.7586010433046957
1698412933375.0,0.01666666753590107,-0.05978329144194722,0.08953910888880491,0.05781622915267944,1.0335471483644096,-2.7545298867926,-9.26346491383016,1.0111149511890654,1.3143127046963379,0.28104214062405847
1698412933392.0,0.01666666753590107,-0.07327639474347233,0.08174626305550337,0.0648456893980503,1.023371864373982,-2.763508143018186,-9.255684342956542,-0.2960776815039308,1.2330785968547318,-0.24560778622069343
1698412933408.0,0.01666666753590107,-0.10146284398175776,0.06550035391449928,0.05551204386353492,0.9989810080263763,-2.7784719033941623,-9.264961874389648,-0.3829367436117334,0.8865426527334936,-0.3107144300497244
1698412933425.0,0.01666666753590107,-0.056517056187614795,0.00187222361266613,0.0998503672838211,1.049408807428181,-2.8398230286747217,-9.220669143676757,0.05903377856366978,1.3925708777722283,-0.9218372283827114
1698412933442.0,0.01666666753590107,-0.018740137109532953,-0.023005320273339746,0.060573418906331056,1.0881649468019603,-2.8640643204838034,-9.260023833465576,0.7834879581235479,-0.2632660130201449,-1.1405535459848597
1698412933458.0,0.01666666753590107,-0.04526011444032192,0.01442658475935459,0.08007131558060646,1.0625769165590404,-2.827104124616086,-9.240271085247397,1.2879892623568145,1.9962707012204395,-1.4793444824741264
1698412933475.0,0.01666666753590107,-0.08358319615907966,0.044110944405198096,0.05817863272428512,1.0311530197694898,-2.797325949206948,-9.261369987377524,-0.24145497784447278,1.7133816614365538,-1.605054114148211
1698412933491.0,0.01666666753590107,-0.05447649027071893,0.06239245102703571,0.09189677793085575,1.063474742181599,-2.7771248726993796,-9.227851748657226,-0.5416557190491377,1.043795698820284,-1.598670448595188
1698412933508.0,0.01666666753590107,-0.024198621711134908,0.07357727738618851,0.0929793124705553,1.0953475517824292,-2.764704951587319,-9.226953923034667,-0.3416300540281706,0.8406554141769381,-1.3062918214549215
1698412933525.0,0.01666666753590107,-0.04650828787051141,0.08958440933525562,0.04058393932282924,1.0773910393312573,-2.7504896714910863,-9.278279621124266,1.1088217677614498,2.3427339678600405,-0.5927747224273643
1698412933541.0,0.01666666753590107,-0.06729848937764764,0.07279460257589816,0.05384031125903129,1.0636243797853588,-2.770091905322671,-9.26331586074829,1.1304509491504704,2.9233248067468653,-0.8892753687317334
1698412933558.0,0.01666666753590107,-0.026924466478452085,0.029654256768524644,0.050365913146734234,1.1082163126405329,-2.8155817368656395,-9.265559840282798,1.0725438583151619,1.4234621158409035,-1.1606528717215032
1698412933575.0,0.01666666753590107,-0.014158508407697081,0.03273351808339357,0.11403495998084544,1.1237786234315483,-2.814085068567097,-9.201066033062338,0.6321817656480173,0.01142271765447941,-1.5502367234169812
1698412933591.0,0.01666666753590107,-0.025356705705076456,0.05550999803692102,0.08496493284106255,1.113304064233601,-2.791639720264077,-9.229946675109863,0.518893206505571,0.2744751538609292,-1.0131973051122731
1698412933608.0,0.01666666753590107,-0.031515082204341884,0.07137830603718757,0.10336568192839622,1.1086652985170482,-2.7751795838505027,-9.211540665325522,0.47738721413646135,1.384112435537108,-0.7067028113917059
1698412933625.0,0.01666666753590107,-0.030834187268093227,0.01417436356395483,0.023985855743288993,1.1131544266298412,-2.8335382493168115,-9.290100991821289,1.2066291161806804,1.5687170808769202,-0.4912774176698872
1698412933642.0,0.01666666753590107,-0.07708521244190633,0.028291736243665218,0.08441957391798496,1.0715550997193901,-2.8220161538273096,-9.228300661468506,1.0793319991330967,2.2426151340152893,-0.9115782842493523
1698412933658.0,0.01666666753590107,-0.048501507514342665,0.013572013756632804,0.09483750755786895,1.105672546441853,-2.837129551807046,-9.217077841186523,-0.49441370179853955,1.3880161020911819,-1.799273744848697
1698412933675.0,0.01666666753590107,-0.003943623059242963,0.03226356248408556,0.1070434936583042,1.1534069420412183,-2.813935723224282,-9.20585502090454,-0.7510306323833829,-0.051301951062362454,-2.0069091477395578
1698412933691.0,0.01666666753590107,0.01336655431240797,0.029518939951062202,0.09260404941737652,1.172710265991464,-2.81513282405436,-9.220518921551108,0.08064844580070403,0.9254271331217878,-1.9525293160020316
1698412933708.0,0.01666666753590107,-0.013862009679153561,0.013140928862988947,0.06779284876585007,1.1501149878237396,-2.830994410052895,-9.244910435485838,-0.24746346324082127,1.9891969731178336,-1.4845968979458661
1698412933725.0,0.01666666753590107,0.04320084382295608,0.0754533003911376,0.045346039158105846,1.210418869073689,-2.7678476335272193,-9.267205853924155,0.09952482083037142,0.8089571465691436,0.5391351658019914
1698412933742.0,0.01666666753590107,0.029590105491131544,0.07749094369858503,0.09641162500679493,1.1974003975465892,-2.767398428454995,-9.215580880627035,0.5926046080283487,0.5228301702318487,1.460920047188017
1698412933758.0,0.01666666753590107,0.023718729239702224,0.06385346349030732,0.09179565564393996,1.1897688797548414,-2.782661756299436,-9.219920955657958,0.22773640949436996,-0.946392825665965,1.4467446298958901
1698412933775.0,0.01666666753590107,-0.011058131239563226,0.05798574050068855,0.08863631483018397,1.1495164374087006,-2.7898443612799046,-9.223362036022543,0.37364275046162365,-1.722149810061852,0.5041736685965176
1698412933791.0,0.01666666753590107,-0.06139905607551336,0.05243395159244537,0.07024550261497498,1.0950482765749097,-2.7970269662603733,-9.241767461284995,0.5388648930820998,-0.948666424885933,0.14093819209907602
1698412933808.0,0.01666666753590107,-0.11468049134276806,0.05330488920807838,0.06397241369485855,1.0423759131167083,-2.795380660358071,-9.248202462768553,-0.46107474804691395,0.2524289840869941,-0.1722233800044302
1698412933825.0,0.01666666753590107,-0.0737589175634086,0.038140930084884166,0.06635901657044888,1.0850226301882415,-2.808399131885171,-9.246257173919677,-0.36780472630983463,0.42643154832893326,-0.7654574860143307
1698412933842.0,0.01666666753590107,-0.07209039982929825,0.01431552560031414,0.09043781129419803,1.089810960443318,-2.8309947023138404,-9.222165519714355,-0.18355747862247132,1.0488860040209418,-1.3605188277097684
1698412933859.0,0.01666666753590107,-0.11413776276819407,0.009771744690835475,0.09445523024201392,1.0530000368531793,-2.832490786090493,-9.21842399509847,-1.1737082447114537,0.993781425179454,-1.5038601658394177
1698412933874.0,0.01666666753590107,0.029881197392195462,0.015465572418272495,0.09605623569786548,1.1979989479616284,-2.8226147042423486,-9.217975666809082,-1.5461446930522031,-0.35701817674351843,-1.6121212255050588
1698412933891.0,0.01666666753590107,0.06753836254812777,0.05359627337008714,0.06975158161818981,1.2325652344301343,-2.7822128434881566,-9.24535876377523,0.3090003193723156,-1.7707604798282441,-0.9342248436595874
1698412933908.0,0.01666666753590107,-0.022833616968244312,0.06862929958999156,0.08281564585268497,1.1412862961366772,-2.7708403856024146,-9.231293413543701,1.3201712994569164,1.469610609133212,-0.3445142348073407
1698412933925.0,0.01666666753590107,-0.03161759273074567,0.04247515989691019,0.006194178465008735,1.1345526039674878,-2.7991216004520654,-9.307009456524252,0.04275226176879899,1.1147827086378728,0.05218867503527407
1698412933943.0,0.01666666753590107,-0.013643033166229723,0.042326399075984955,0.06817103442847729,1.1525091164186596,-2.800169063678384,-9.24476079788208,0.46080404844019934,-0.33615048140567494,-0.018526487917262906
1698412933958.0,0.01666666753590107,0.017777064231038094,0.05110211846679449,0.11077800401151179,1.1825862747743725,-2.794034214185178,-9.201514945873617,0.6886349333246123,0.07981556292835916,-0.06770267600259111
1698412933975.0,0.01666666753590107,-0.045682869897037744,0.02734481078237295,0.09186696731448173,1.121683843109384,-2.8169284752994774,-9.220369868469238,-0.6301212363136419,0.9739042940342475,-0.041091351861722296
1698412933991.0,0.01666666753590107,-0.027685879305005073,0.012471359038352966,0.0712684159219265,1.1408373102601617,-2.8291984665468335,-9.241617823681235,-1.0058927379600617,-0.37610780842176356,0.07927304313701916
1698412934008.0,0.01666666753590107,0.05559855310320854,0.04924509242326021,0.08670154737532139,1.21999574877955,-2.7920886330753563,-9.226804285430907,1.1017014022734173,-0.35090601121000325,-0.043246463307846435
1698412934025.0,0.01666666753590107,-0.08037307500615716,-0.00592032995969057,0.05130114817023277,1.0859204558108002,-2.849699402783811,-9.261220934295654,0.834030984455672,1.1978636355980268,-0.4471507937740347
1698412934042.0,0.01666666753590107,-0.0856336989481002,0.007791092267632484,0.04012041346430778,1.0836758186891675,-2.8360820885807274,-9.271994841766357,-0.029997203658917525,0.5125888351799435,-0.5479461631921607
1698412934058.0,0.01666666753590107,0.018724793409928678,0.015348375779390334,0.10560030911266803,1.1879733015749603,-2.828749845996499,-9.20645357131958,0.39164889002192266,0.15177952992109778,-0.30401916379624583
1698412934075.0,0.01666666753590107,-0.062022083344683045,0.06314414617717266,0.08893500551581382,1.1088148630555719,-2.781464070947468,-9.222763485607505,-0.08480677702519887,0.7894289954018425,-0.12715456352908616
1698412934091.0,0.01666666753590107,-0.07233940615430474,0.06425678359419107,0.07895254068374634,1.1004353033754974,-2.7789208162054417,-9.232938842663168,-0.6806449460170196,0.354736946921587,-0.22506946074731798
1698412934108.0,0.01666666753590107,-0.01042012559697032,0.016569734267890452,0.08104629809260368,1.1628341110780835,-2.8239614426761865,-9.23159268875122,-1.0170084439474343,-0.06436616861367955,-0.5631339425853303
1698412934125.0,0.01666666753590107,-0.009158142837136984,0.055337856340408324,0.06983575277030468,1.1625348358705638,-2.7823624810919165,-9.24386238773763,-1.1107048722599635,-0.8932127059839813,-0.495901402377133
1698412934141.0,0.01666666753590107,-0.003544175412878394,0.04596855497062206,0.040001170998811716,1.1673232391908763,-2.790293274091184,-9.274239405822753,-0.10017038042864342,0.09150716592055493,-0.38161539549202683
1698412934158.0,0.01666666753590107,-0.055171267601847644,0.046800914141535754,0.06479308242797852,1.1194392059877514,-2.7895447938114404,-9.248950650787354,-0.14608687407279625,1.3710204570020745,-0.31801566214863
1698412934174.0,0.01666666753590107,-0.041782501457631585,0.0014063596665859221,0.07935176913440227,1.133954126617685,-2.833837524524331,-9.234585440826416,-0.32560653695702646,-0.059094303111061085,-0.38207205767106567
1698412934191.0,0.01666666753590107,-0.001480813142284751,-0.027654022862017152,0.09253390679061413,1.1737575830873102,-2.862567652185261,-9.221566384777427,0.00783564104060623,-0.20069120825864664,-0.6624998547957932
1698412934208.0,0.01666666753590107,-0.045332449024170635,0.018784195446968077,0.10222235711216926,1.1311109390810132,-2.813786085620522,-9.212438490948081,-1.3414515008680314,0.24495814451717532,-0.8939162688293455
1698412934225.0,0.01666666753590107,-0.005460238167271017,0.03952653922438621,0.08772855233550071,1.1718122942384332,-2.7881977631166577,-9.228300076946615,-1.9930726785849926,0.056092368269774366,-0.5533059406999167
1698412934241.0,0.01666666753590107,0.03702171679660678,0.019855624070763588,0.08623276081979274,1.2126635061953217,-2.803611020825803,-9.231293413543701,-1.1417830867571679,-1.0385128676623965,0.2723205493429075
1698412934258.0,0.01666666753590107,-0.0056560530003160235,0.020515257023274898,0.06338964537084102,1.1697175139162688,-2.8009172516971823,-9.254785932812094,-0.6507981399219747,1.60125460797898,-0.15053187313923327
1698412934275.0,0.01666666753590107,-0.06346855582594871,0.013322715170681476,0.05848316862881183,1.116446453912556,-2.8066034806400535,-9.259574920654297,-1.0481370310897675,1.5712711447396819,-0.6835366773568738
1698412934291.0,0.01666666753590107,-0.0570632188282907,0.0037479543566703794,0.06319675314724445,1.1263225357607007,-2.8134868104130026,-9.255235430145262,-1.1139932881802073,1.1122391035022776,-1.2927176742531674
1698412934308.0,0.01666666753590107,-0.03403006069995463,0.015936112539470196,0.09291033888757229,1.1556514330323784,-2.796877036395669,-9.22605551289022,-1.3619271273392604,2.019064536584653,-2.0261852222378027
1698412934324.0,0.01666666753590107,-0.026722221904620525,0.032570436476171014,0.08171089948117732,1.1689692528322337,-2.775628496661782,-9.237877468109131,-1.7707017828900644,0.3741274537688566,-1.4356118484355926
1698412934342.0,0.01666666753590107,0.004676832704618573,0.036058570852875706,0.0663970104932785,1.1996449616029858,-2.768146324212849,-9.254486657604575,-1.3029422539972648,-0.2995026745271484,-0.6824181805194314
1698412934358.0,0.01666666753590107,0.0720461222961545,0.03777238903343677,0.08543956461548805,1.2666826080873608,-2.7639567635685203,-9.236230869945883,-0.29683148359229167,0.9853078284621127,0.6210530396125393
1698412934375.0,0.01666666753590107,0.002966448590159416,0.0323772519916296,0.08383446750640869,1.2011413376405835,-2.77069045573771,-9.236979642486572,0.7142463284431618,2.138368731477735,1.2683766943202401
1698412934392.0,0.01666666753590107,0.009236103444173931,0.025865385879576205,0.07588613885045051,1.2092217682436108,-2.7799679871708154,-9.243862972259521,1.1587371103810205,0.8962260467075734,1.1751028839626056
1698412934408.0,0.01666666753590107,0.03853738205656409,0.004491466200351715,0.12070377022027969,1.2395982018068432,-2.803610728564858,-9.198223503112793,-0.3512223610263659,0.7438326268543943,1.1801565836181804
1698412934425.0,0.01666666753590107,-0.03381057273037731,0.030342239032685753,0.0651163230329752,1.1704655558045953,-2.7756282044008374,-9.254037744793296,-1.0171355494990202,1.671191156046562,0.706911772491626
1698412934442.0,0.01666666753590107,-0.028394465965777636,0.05477876115292311,0.06626724663376808,1.1801921461794525,-2.748993003192544,-9.252990866088867,-0.5469789977335163,1.8166657543530769,-0.159208641303956
1698412934458.0,0.01666666753590107,-0.047808483748883,0.0711564799800515,0.0704582685828209,1.1667246887758373,-2.731036490741372,-9.248501737976074,-0.46866532937061955,1.4269197923865167,-0.2851718437509774
1698412934475.0,0.01666666753590107,-0.05558167503364384,0.08732990840673446,0.057712768778204915,1.1626844734743236,-2.713827874048054,-9.261070712170005,-0.6477272228381135,1.4325961064736203,0.1397243927783707
1698412934492.0,0.01666666753590107,-0.06839023013710975,0.0951645475551486,0.07554770067632198,1.1520602036073804,-2.7039520844608544,-9.243563112530111,-1.1890565335501186,0.40017806206754963,0.8197867316633162
1698412934508.0,0.01666666753590107,-0.04037767616100609,0.07400134801715612,0.04287584965229034,1.1780972197268158,-2.7226570771917697,-9.277231573376058,-0.33448132724682667,-0.5404389315206705,0.9843044309843555
1698412934525.0,0.01666666753590107,-0.06450732428915798,0.07150923894047737,0.029990649116039273,1.1519105660036206,-2.7260987420782445,-9.290100991821289,1.0404487994052718,-0.18827192331558007,1.146279912551975
1698412934541.0,0.01666666753590107,-0.08377886486165224,0.07732289365530014,0.04288286391496658,1.1321584023073314,-2.723404972949624,-9.27633433227539,1.2471409958604358,0.35109827036296853,1.2010392466752597
1698412934558.0,0.01666666753590107,-0.08377440788224338,0.05464665920585394,0.036089550513029096,1.1314102873537688,-2.749591553607583,-9.28217019882202,0.9809390687142433,0.3172643413399286,1.009423625595841
1698412934575.0,0.01666666753590107,-0.07182575754374265,0.02177256360799074,0.05853636012077331,1.143231584985554,-2.784008494733274,-9.259275645446778,0.8533756810107348,0.28261164339013334,0.770516788559459
1698412934592.0,0.01666666753590107,-0.07652005283981561,0.006785130095481872,0.0686842446476221,1.1384431816652416,-2.800617976489663,-9.248651375579833,0.9121207506798393,0.2375550465501013,-0.3352521247668332
1698412934608.0,0.01666666753590107,-0.07084346850812434,-0.029103929409384725,0.09159750272333621,1.145176873834431,-2.836979914203286,-9.22545754699707,0.023679011872391277,-0.20356387643380558,-1.4465851876674527
1698412934625.0,0.01666666753590107,-0.043788726713508364,-0.012526888617873192,0.0803571467846632,1.1721116425111888,-2.819023694013059,-9.23712928009033,-0.25520316146793,-0.2628145535242629,-2.0281651233234603
1698412934642.0,0.01666666753590107,-0.035107188412174584,0.005574877522885799,0.07489595876932144,1.1813891008790582,-2.799420875659585,-9.242964562115073,-0.19523612826762787,-0.03983787874689273,-2.3756840810766513
1698412934657.0,0.01666666753590107,-0.002814180637896061,0.019727029255032537,0.06606324849426747,1.2153569099977612,-2.7835592896610497,-9.252092455944418,-0.03588586726009988,-0.16528316075575678,-1.9799941469848876
1698412934675.0,0.01666666753590107,0.0633995822429657,0.0819146053597331,0.06361585534214972,1.2811975287172943,-2.722207872119546,-9.254337020000815,0.7677639555196794,-0.30978389681658947,-1.6766341764848274
1698412934692.0,0.01666666753590107,0.049393195657059547,0.07044745492786168,0.08479132983982562,1.2681789110597221,-2.7359742394044995,-9.232340292248129,1.1909817931224158,0.1569366695900012,-1.8078748740044472
1698412934708.0,0.01666666753590107,0.015178060713782906,0.07281535310298204,0.06001636954545975,1.2351090736940502,-2.7353759812504053,-9.256432530975342,0.3003072227866083,-0.11581119346285526,-1.5975669461574078
1698412934725.0,0.01666666753590107,0.04262063278220594,0.06093114630281925,0.08569207807183266,1.263390580804646,-2.748095177569985,-9.230395003399252,0.8116704392169312,0.24450041512107867,-1.7792310883378235
1698412934741.0,0.01666666753590107,0.04653130341991782,0.053013212785124775,0.09264145881831645,1.2698249977663159,-2.75767198421061,-9.222614432525635,1.0348385460540468,0.9117126468769311,-1.5526259022443105
1698412934758.0,0.01666666753590107,0.051581426416337485,0.006829553759098053,0.06624386575818061,1.27985071721822,-2.8058552926212545,-9.247753549957276,0.9723995179827291,0.8477000072538659,-1.279640316591826
1698412934775.0,0.01666666753590107,0.04031710508018732,-0.014484452426433562,0.10741992575526237,1.2714710114076733,-2.8283012254461646,-9.205854436382651,0.7470729646461836,0.4528483188001625,-0.9642258092586337
1698412934792.0,0.01666666753590107,0.05049538474529981,-0.013929156631231307,0.1314256552428007,1.2832923821046949,-2.82830093318522,-9.18146350696981,0.2391760959000686,-0.2960900612218015,-0.9347588790753177
1698412934808.0,0.01666666753590107,0.021992197708040475,-0.004436228881776333,0.12564531827569006,1.2545619621828197,-2.818724126544595,-9.18729937351644,-0.1195968124701216,-0.16575585787108923,-0.12243959856766175
1698412934824.0,0.01666666753590107,0.03974807302057743,0.004173486292362213,0.09949848510622977,1.271620649011433,-2.8092969575077293,-9.213785813903808,-0.4310618296168201,-0.9150360675166712,0.06835714686329586
1698412934841.0,0.01666666753590107,0.006662818890064954,-0.00816986245214939,0.07477437821626663,1.234660160882771,-2.820968690600991,-9.239224206542968,-0.1690419659344455,-1.4286864635040228,0.48691831623639104
1698412934858.0,0.01666666753590107,-0.02371748713068664,0.0002326397120952606,0.07179916179776191,1.2011413376405835,-2.812887967737019,-9.242515649303794,-0.08127055330413055,-0.9986399308351545,0.5464070227513806
1698412934875.0,0.01666666753590107,-0.041545550896599885,0.03750087861567736,0.05986380933225154,1.1819877243593335,-2.7760774094730616,-9.254486657604575,-0.21165691688854346,-0.4920633696721147,0.6085255655402368
1698412934892.0,0.01666666753590107,-0.04104249674528837,0.04288900139480829,0.05754091934263706,1.1789950453493743,-2.769493354907632,-9.25762963180542,-0.678485912548208,-1.0496458625661056,0.9770494894253327
1698412934908.0,0.01666666753590107,-0.06759812991134823,0.047041444899141784,0.08513327514529227,1.1502645523622632,-2.7641061089113355,-9.230694278606771,-0.7095057502723499,-0.36175173796217525,0.9962095574293935
1698412934925.0,0.01666666753590107,-0.08696787016130983,0.044107437273859976,0.04289923052787781,1.1303627510622143,-2.7659023446783424,-9.273340995678305,-0.601821841591575,0.2351407614414869,0.9832331585017213
1698412934942.0,0.01666666753590107,-0.09695669166892766,0.02902794156372547,0.058413610523939126,1.12033703161031,-2.779668711963296,-9.25822759769857,-0.5273752875985219,0.07803645873212951,0.40801778521340204
1698412934958.0,0.01666666753590107,-0.09489625200778246,0.017351240034401416,0.07706628854572772,1.1221327559206633,-2.7901430519655346,-9.239971810039878,-0.5432778356161628,0.06783154246232222,-0.14412053998398627
1698412934975.0,0.01666666753590107,-0.030838425051793454,-0.0020148469537496568,0.0609071809053421,1.1858783020570873,-2.8076512361273167,-9.25673122166097,-0.7935219862619727,-0.40290208024676827,-0.9020094026655759
1698412934991.0,0.01666666753590107,-0.044943011315166946,-0.0015425532668828963,0.05881166993081569,1.1715131651613861,-2.8048081216558813,-9.259574336132406,-0.29961022332614967,0.4286866313329482,-1.1892866255477834
1698412935008.0,0.01666666753590107,-0.0505776562012732,0.010071896681189536,0.07287234398722649,1.1677722250673919,-2.7923882005438205,-9.245508985900878,-0.024053258214140373,0.41004090858990094,-1.3452660547977777
1698412935025.0,0.01666666753590107,-0.031069165067747234,0.03530775248557329,0.06885375599563122,1.188272357586771,-2.766650240436196,-9.249548616680503,-0.09944161792050156,0.46347150411535376,-1.217124235448934
1698412935042.0,0.01666666753590107,-0.02174238766543567,0.044485330675542355,0.08763853596448898,1.2009917000368238,-2.755726695361733,-9.230843916210532,-0.795344686275014,0.707638814112262,-1.5817452398318963
1698412935058.0,0.01666666753590107,0.011736322762072086,0.020142916579544545,0.06707856301665306,1.236755160400644,-2.7772748025640843,-9.251943402862548,-0.9963600350345454,0.732904324182374,-1.5433658732770659
1698412935075.0,0.01666666753590107,0.04204144465476274,0.01127425820827484,0.0841390034109354,1.2728177498415112,-2.7831103768497703,-9.235034353637694,-0.7732626846883628,1.4282172081637017,-1.343190104176917
1698412935091.0,0.01666666753590107,-0.011970277648419141,0.02132774244993925,0.07567103479504585,1.222689298712462,-2.7711393685489893,-9.243563112530111,-0.49564425642705257,1.7676032248844058,-1.073979371979628
1698412935108.0,0.01666666753590107,0.02894990789145231,0.01626227575391531,0.09309387876093388,1.2680292003907263,-2.7750296539857984,-9.22590587528646,-0.17248638230811536,1.1965513855037382,-1.0777152720122134
1698412935125.0,0.01666666753590107,0.014677052389085291,0.024958792428672313,0.09864683671295642,1.2574050766542553,-2.7651541566595434,-9.220220230865477,-0.42480420239832484,0.557967224643333,-0.586497565136711
1698412935141.0,0.01666666753590107,0.06521408431902527,0.016480302418768404,0.06876315510272979,1.3082818619325756,-2.7723364693790673,-9.25044644230306,-0.5998914060165473,-0.40489959041387963,-0.13547653538293847
1698412935158.0,0.01666666753590107,0.06864478942006826,0.014304711945354938,0.09228782307505608,1.3109753388002514,-2.7732345872625705,-9.227402251324056,-0.46194298248429894,-0.36848414336926577,0.2032287569374386
1698412935175.0,0.01666666753590107,0.030982436632364985,0.050017245839536185,0.10257248572409153,1.2714710114076733,-2.7359745316654442,-9.217825444683433,-0.5092289157168262,-0.8249073991892688,0.8113478728612068
1698412935191.0,0.01666666753590107,0.02557823950126767,0.032335750937461855,0.08352233281731605,1.2644380440309644,-2.7530332184940574,-9.237278917694091,-0.29218788877160856,0.007841003806321748,1.2152174387317367
1698412935208.0,0.01666666753590107,-0.02042509452179074,0.046993514104187485,0.07871756288409233,1.2179008953921495,-2.73866800853312,-9.242066736492514,0.10332240600889851,0.20765229160080034,1.1807015046479004
1698412935225.0,0.01666666753590107,-0.060710489289462564,0.01179360590726137,0.025869185271859167,1.178695550946146,-2.7754785667970774,-9.294290260204672,0.6652300094730942,0.775931207580575,0.2030059620364066
1698412935242.0,0.01666666753590107,-0.05772884313017129,0.008400164076685906,0.061328621187806125,1.1849806225650013,-2.7804168999820944,-9.25792890701294,0.3914821640370656,1.2851389390388035,-0.34130103100924636
1698412935258.0,0.01666666753590107,-0.07759557311683893,0.023253449815511702,0.06274725581407546,1.168520486151427,-2.765303794263303,-9.256133255767821,-0.3530215822641354,1.1045652792480625,-0.7510065132778763
1698412935275.0,0.01666666753590107,-0.021292086614668367,0.04135404691249132,0.10303250445127486,1.2283755276553332,-2.744503875079751,-9.216179431042075,-0.9412687964062804,0.33703896628673197,-0.6782506445478128
1698412935291.0,0.01666666753590107,-0.03524374733865261,0.04049509199559689,0.07612228569388389,1.2153569099977612,-2.7428578614383934,-9.243712750133872,-0.7852019620792509,0.515627842473776,-0.2621281461931031
1698412935308.0,0.01666666753590107,-0.01176335689947009,0.0283078105956316,0.050858665099740026,1.240346389825642,-2.7537814065128563,-9.269151142773032,-0.16383902931354863,0.7402258600858045,0.15276551842059935
1698412935325.0,0.01666666753590107,-0.006876753901690244,0.033115210877358914,0.023203180932998654,1.2472297195985913,-2.750488794708252,-9.29608591144979,0.8734658286806811,0.9990027846348114,0.4176741252350662
1698412935341.0,0.01666666753590107,-0.023229922809451818,0.036166707402467725,0.07487959215641021,1.232714872033894,-2.7494416237428783,-9.243563112530111,0.6084664417152339,0.8412269089113978,0.2616224987511106
1698412935358.0,0.01666666753590107,0.0029658640682697296,0.030702596777677536,0.0709586193203926,1.2592007278993724,-2.755876332965493,-9.247154999542236,0.2111132498388663,-0.29865263614059917,-0.16375106394755828
1698412935375.0,0.01666666753590107,-0.03026099049001932,0.01480477042198181,0.09794365687966346,1.225681904657185,-2.7717379189640283,-9.220220230865477,-0.08783061649659722,-0.07941898506967529,-0.6510184668835605
1698412935391.0,0.01666666753590107,-0.06516147734895349,-0.00039250644892454146,0.07236907064020633,1.1914148933961988,-2.7861031289249656,-9.245957898712158,-0.3485270243055761,0.1312743682177939,-0.9234031559716426
1698412935408.0,0.01666666753590107,-0.030320027200877665,-0.005964461362361908,0.07650807014107704,1.2274775559023021,-2.790293274091184,-9.242067321014403,-0.365195487325184,0.22657188892130922,-1.3264773783298363
1698412935425.0,0.01666666753590107,-0.0004664484679698944,-0.02875526210218668,0.07020575512647628,1.2596496407106519,-2.8110926087528467,-9.248650791057944,-0.3758365485260936,0.5723399170085969,-0.9863206174499787
1698412935441.0,0.01666666753590107,-0.0022679449319839475,0.05092559285610914,0.08424187926352024,1.260547320202738,-2.730288302722573,-9.234584856304526,-0.26396189190269287,0.9309397361122228,-0.7179482909733087
1698412935458.0,0.01666666753590107,0.020822423276305197,0.04519318668395281,0.057305357021093364,1.28628513417989,-2.7358248940616843,-9.261220349773764,0.08963003783756503,1.0062419313813786,-0.45154503332915946
1698412935474.0,0.01666666753590107,0.012557283756136893,0.022049919244647026,0.06261983004212379,1.2816465145938098,-2.7600661858707665,-9.255085208019613,0.3819969255901955,1.0131319914283348,0.08912625802542369
1698412935491.0,0.01666666753590107,0.0478894400306046,0.008732464770972729,0.09647709145843981,1.3184572189882398,-2.774580741174519,-9.220669143676757,0.29413678720173647,0.288034306663021,0.14756741095688908
1698412935508.0,0.01666666753590107,0.05400821517184377,0.004109188884496688,0.09967267262935638,1.3245925068728626,-2.779519074359536,-9.217377116394042,-0.20536537884803613,-0.18152057480571337,0.3311080142096337
1698412935525.0,0.01666666753590107,0.007600392001122236,0.014141338077187537,0.0948708253055811,1.2771572403505445,-2.767996978870034,-9.222764070129394,-0.6843509106111334,-0.022860829915017793,0.7057348455202681
1698412935541.0,0.01666666753590107,0.010695289276540279,0.004351473207771778,0.07251227850317954,1.2798508633486927,-2.7766759598881006,-9.245508985900878,-0.23931875614027198,0.014880154076254575,0.2832362054927928
1698412935558.0,0.01666666753590107,0.0191786015920341,0.00808101512491703,0.06296995865404606,1.2877813640870153,-2.7730846573978662,-9.255085208019613,0.2803066413082391,-0.21382343421697297,0.21866599831787237
1698412935575.0,0.01666666753590107,-0.011126520300656556,0.017774726143479348,0.06944178501665592,1.2581532646730542,-2.7639567635685203,-9.248352100372314,-0.021713358134455654,0.21913253225469595,0.17064732719366296
1698412935591.0,0.01666666753590107,-0.0007414660170674324,0.07056348252296447,0.05962006370425224,1.2683286217287182,-2.7115836022526025,-9.2580785446167,0.40026845535234656,-0.1626118630991942,0.26297826462093166
1698412935608.0,0.01666666753590107,-0.006221943254768848,0.06468436135649681,0.09923545025587081,1.2632409432008862,-2.718915844836831,-9.217975666809082,0.4847568815291993,0.770949438354697,0.4216658638768362
1698412935624.0,0.01666666753590107,-0.0383984119772911,0.05855711064785719,0.06521802984178066,1.2319666840150951,-2.725799466870725,-9.251644127655029,-0.18275675900420635,-0.07986242709741044,0.730305970811713
1698412935641.0,0.01666666753590107,-0.003941577232629061,0.026455752988159654,0.06992401557564736,1.2653360157839952,-2.757672276471555,-9.247154415020345,-0.09171900850653111,-0.45938075441104503,0.6515472195748546
1698412935658.0,0.01666666753590107,0.006737783822417259,0.004544073170423508,0.06285773045122624,1.2743142720095813,-2.7799679871708154,-9.254337604522705,0.3359238311830216,-0.6355892296310603,0.3562286228837208
1698412935675.0,0.01666666753590107,-0.0254724410392344,0.03859598037600517,0.05515665455460548,1.2407953026369214,-2.748244815173745,-9.261520209503173,0.9165622946310518,0.4254492017076415,0.36829511254790037
1698412935691.0,0.01666666753590107,-0.04506459186822176,0.01134790796637535,0.09236556448638439,1.2223898773744701,-2.777125164960325,-9.223661895751952,0.3721440041864819,0.35785274048272936,0.31659834453499947
1698412935708.0,0.01666666753590107,-0.041432957367599006,0.004442658622562885,0.08033844208419323,1.2253826294496655,-2.784008202472329,-9.235782541656494,-0.3746293392707203,-0.47635169342526396,0.31670749415958743
1698412935725.0,0.01666666753590107,-0.009728051679581403,-0.007046119119226932,0.0950274771720171,1.2556094254091381,-2.793585009112954,-9.221866244506835,-0.5873487774620239,-0.3481533115723559,-0.46728210934198616
1698412935741.0,0.01666666753590107,-0.05095394216775894,0.0032519875332713125,0.05423310996890068,1.2144590843752026,-2.782062913623452,-9.263016001018881,-0.18982036188497634,0.08410945739962288,-0.5273459924902849
1698412935758.0,0.01666666753590107,-0.022862112410366533,0.007767711392045021,0.05638707313239574,1.243488779504597,-2.7774241479068995,-9.260771436962484,0.35907683844804256,0.25240547863129575,-0.5614061181687287
1698412935776.0,0.01666666753590107,0.015251783537119626,0.021261691476404665,0.04709142152070999,1.282244772747904,-2.766201035363972,-9.269300780376792,0.9695479140042488,0.17545800818496013,0.07772435110357166
1698412935792.0,0.01666666753590107,0.030109014798700807,0.041758536060154436,0.08062836494147776,1.2972085331238805,-2.748095177569985,-9.235033769115805,0.7545209657709652,-0.001910158450929269,0.46129977076355416
1698412935808.0,0.01666666753590107,0.044511341899633405,0.05554653065502643,0.09255027340352534,1.3108257011964917,-2.7358248940616843,-9.222764070129394,0.22614305442705293,-0.4488765637978001,0.7217132193098668
1698412935825.0,0.01666666753590107,0.01796937193274498,0.02232376774996519,0.11452654289007186,1.2797010796144603,-2.769194079700112,-9.201365308269859,-0.3049186410129983,-1.7300714421168915,0.6969320123405911
1698412935841.0,0.01666666753590107,0.02002557381018996,0.008787994350492954,0.08837795615494251,1.2773068779543042,-2.781614000812173,-9.228450299072264,-0.5342226589631656,-1.6892546585237185,0.331407208511792
1698412935858.0,0.01666666753590107,-0.011587708071619272,-0.019774375528097153,0.060652913883328434,1.2427405914857983,-2.80914731990397,-9.25688144378662,-0.0988838235850216,-0.5989438239909138,0.29765286720083856
1698412935875.0,0.01666666753590107,-0.02418810031712055,0.027054887925088405,0.036945290559530254,1.2294228447511792,-2.7633582131534813,-9.280373963055014,0.5219008376179038,0.23734768627576794,0.49523535221135095
1698412935891.0,0.01666666753590107,-0.01818593729287386,0.004278115710616112,0.08355331247746944,1.2363063206546008,-2.7870009545475245,-9.233388339996337,-0.009761167417168027,0.41546349182150927,0.727672452638997
1698412935909.0,0.01666666753590107,-0.0052488604389131065,0.01244505555331707,0.095602062189579,1.2490253708437085,-2.778172335925698,-9.221566969299316,-0.7257764348140838,-0.12613677196126172,0.7388673461320595
1698412935925.0,0.01666666753590107,-0.000312573080509901,0.037309447696805,0.10700374616980551,1.2506713844850659,-2.750190104022622,-9.211540665325522,-1.1055219326186874,-1.527474477677679,0.9119903367553744
1698412935942.0,0.01666666753590107,0.00503609447106719,0.02612345229387283,0.09471241987347602,1.2526166733339428,-2.7594676354557275,-9.22485899658203,-1.0225883883342175,-0.8455590631141842,0.929209030209565
1698412935957.0,0.01666666753590107,-0.006209814425557851,0.007327566409111023,0.06522153697311878,1.2388500137880445,-2.7759277718693016,-9.255384483227132,-0.9366733597553312,-0.7872487243135804,1.2337721812206053
1698412935975.0,0.01666666753590107,0.015434300497174262,0.000673076955974102,0.0697124186515808,1.257255585180968,-2.781015450397134,-9.251793765258789,-0.31396205159793317,-0.3170623438313107,1.2258621818314959
1698412935991.0,0.01666666753590107,-0.012466098341345787,-0.01279050799012184,0.10755495031177997,1.228225743921101,-2.794033921924233,-9.214234142193197,-0.6025209754861494,-0.3355559881436194,1.2718826090768667
1698412936008.0,0.01666666753590107,0.0009011866234242916,-0.019363456639647482,0.10119359858632088,1.2392989265993237,-2.798373704694211,-9.221566969299316,-1.5443748202835237,-0.8078287779739164,1.1025594447879001
1698412936025.0,0.01666666753590107,-0.0033421500347554684,-0.017102525970339774,0.11242810930609702,1.230769583185017,-2.790442619433999,-9.21258871307373,-2.1899825500448173,-1.1948423441073541,1.0501212010436562
1698412936042.0,0.01666666753590107,0.007186404372751713,0.007279927875101566,0.07083879233300686,1.2375032753542066,-2.7606644440248607,-9.256282308849691,-2.305134843696178,-1.40117905056056,0.870992606510049
1698412936058.0,0.01666666753590107,0.010108137038350104,-0.0022311200529336927,0.0547112488746643,1.237503421484679,-2.765303502002358,-9.274239405822753,-1.7835868280375877,-0.593824223682019,1.0547230409969524
1698412936075.0,0.01666666753590107,-0.002725771702080965,0.02005903768837452,0.05291325954198837,1.2211928496096283,-2.740014746966958,-9.277381795501709,-0.9425255512135626,-0.21910948036624717,2.144846312131846
1698412936091.0,0.01666666753590107,0.018505159309878946,0.0606371317923069,0.06299100144207477,1.241244288513437,-2.6982658555179833,-9.267804988861084,-0.89208001515967,0.08667664803219564,2.335397917804624
1698412936108.0,0.01666666753590107,-0.028464827788248655,0.025568741020560264,0.1007002621114254,1.1917142416689543,-2.7319343163639305,-9.230844500732422,-0.93253106346713,-0.2745293951678926,2.6861669783856827
1698412936125.0,0.01666666753590107,-0.0315745573066175,0.01100157874673605,0.11227321100533008,1.1857286644533276,-2.7440546700075266,-9.220369868469238,-1.847009510071093,-0.9730714378423291,2.1288762626352984
1698412936141.0,0.01666666753590107,-0.01811418723091483,-0.013289689683914184,0.05791501335203647,1.1953055441591889,-2.764106693433225,-9.27648396987915,-2.0640842343949113,-0.9939595437064033,1.6031569223845343
1698412936158.0,0.01666666753590107,-0.05947013383954763,0.0005602642312645912,0.05443184741139412,1.1513120155885814,-2.7449527878910303,-9.281870923614502,-1.5784655750915266,-0.044108054319046526,1.23975179839554
1698412936175.0,0.01666666753590107,-0.05959997076429426,0.01052402436286211,0.042189036431908605,1.1513120886538177,-2.731784678760171,-9.29503844822347,-1.3233385862410982,0.6491429396261572,0.818606069432256
1698412936192.0,0.01666666753590107,-0.02106594970859587,0.019428338569402695,0.09957038129866122,1.1908162699159235,-2.719663740594685,-9.23847543400228,-1.4686328248648424,0.31180160406651997,0.7449366629007034
1698412936208.0,0.01666666753590107,0.020869258092716336,0.01494505567550659,0.08791150768697262,1.2321163216188549,-2.718766207233071,-9.251793180736898,-2.1943054194592007,-0.3258227017720868,0.3646410413832229
1698412936225.0,0.01666666753590107,0.047199996461719275,0.004149228633940219,0.06403437301516532,1.2599489889834075,-2.723554610553384,-9.277232157897949,-2.7272919742651527,0.7120938049984029,-0.20177824887331006
1698412936242.0,0.01666666753590107,-0.052860798702389,0.006955810487270355,0.03137596599459648,1.1595420107301324,-2.7148753372743726,-9.311648222240805,-2.267290899939253,-0.3714715773987794,0.14046613531397822
1698412936258.0,0.01666666753590107,0.03634761692732572,0.01533113238364458,0.06989420495927333,1.2476786324098705,-2.701109262250364,-9.274837956237793,-1.109999014897925,-0.17817651685611777,0.09248046787728174
1698412936275.0,0.01666666753590107,0.0026519758135080335,0.041432080584764476,0.0336363121420145,1.2134116211488841,-2.6738749261051415,-9.311499169158935,-0.014322853328663848,0.22700040325044818,0.7790139174129251
1698412936292.0,0.01666666753590107,-0.04363653182648122,0.07715601265579461,0.11302081450223922,1.168221064813435,-2.6394582772403954,-9.23159210422933,0.6105549854973769,0.7243454034612604,1.0195534364652046
1698412936308.0,0.01666666753590107,0.008027969763427973,0.035542438024282454,0.04411386701464653,1.219247487695515,-2.683152457538247,-9.299977073669433,-0.07529954056672458,-0.3018082635784244,0.7646803385528302
1698412936325.0,0.01666666753590107,-0.0011349953792989254,0.02105886238068342,0.05275134697854519,1.2092216951783745,-2.696619841876626,-9.291747005462646,-0.9974527585800417,-0.21824344706404394,0.7673927774269715
1698412936341.0,0.01666666753590107,-0.021405337730795143,0.06594429828971624,0.049125557696819304,1.1858783020570873,-2.648586463330686,-9.296685046386719,-0.7498880698012866,-1.0430801297830192,0.5022652176928808
1698412936358.0,0.01666666753590107,-0.021406945165991783,0.006600421178340912,0.06332300987541675,1.1840826508119702,-2.7072441117435693,-9.28291838684082,0.270693737020828,-0.20161773942781475,0.24209995047336297
1698412936374.0,0.01666666753590107,-0.025787352207303046,0.0006739537388086318,0.06660217767655849,1.1794439581606537,-2.7148756295353174,-9.279177446746825,1.1038134248308322,0.23314666636896053,-0.04793682891608824
1698412936392.0,0.01666666753590107,-0.04459332109466195,-0.00942950712442398,0.05856909334659576,1.1628341110780835,-2.7274451882511377,-9.286209829601646,0.8731615650974982,1.432655337020329,-0.2841886433560394
1698412936408.0,0.01666666753590107,-0.04640979593209922,-0.005173310984671116,0.08176175288558006,1.1673232391908763,-2.7229560601383445,-9.262267813000083,-0.8125916609812367,1.6817332328653591,-0.4361489331663045
1698412936425.0,0.01666666753590107,-0.024911226959899068,-0.0025958617120981214,0.10863631580770015,1.1908164160463959,-2.7171204858526585,-9.236081232342123,-1.3634157884132059,-0.13723751022939848,-0.6858046736872883
1698412936441.0,0.01666666753590107,0.014612170459330082,0.005913315697014331,0.11954817044436931,1.2304703079774975,-2.7039520844608544,-9.2265044257015,-1.3340302868914011,0.09784040546759637,-0.5827858909313379
1698412936458.0,0.01666666753590107,-0.008165551603212952,0.051934185376763344,0.049801849523186684,1.207875029809773,-2.6553198632389305,-9.296983737072349,-0.9952823592495643,0.212186710116469,-0.06612404853067191
1698412936475.0,0.01666666753590107,0.006750131847336888,0.05818272437751293,0.03063479223847389,1.224335166223347,-2.647389070239663,-9.316437210083008,-0.5792537226350893,0.9784841493161526,0.3670088758693959
1698412936491.0,0.01666666753590107,0.0008402502164244651,0.04433949246406555,0.0312269129127264,1.218798647949472,-2.661604350335896,-9.315688437542319,0.5458069265997716,-0.0406771115607316,0.8607508445713206
1698412936507.0,0.01666666753590107,0.026420389413833616,0.04791968903839588,0.10737316400408745,1.243488779504597,-2.6605571793705223,-9.238924346813558,1.0268402878142562,-0.4423036806604264,0.713930752359166
1698412936525.0,0.01666666753590107,0.025769378159195184,0.03086392481923103,0.09137246179580688,1.2401967522218822,-2.6803093430668112,-9.254487242126464,0.7493415479459798,-1.2847116253288546,0.7620289978552488
1698412936541.0,0.01666666753590107,0.005053630127757788,0.012224690800905227,0.08789163394272327,1.2159555334780365,-2.7006603494390844,-9.25792890701294,0.2806169880286516,-0.5504379015787461,0.2924867362282231
1698412936558.0,0.01666666753590107,-0.030961905300989745,0.000856032307446003,0.02995850041210651,1.179743160302937,-2.713229323633015,-9.315538799938558,1.0309698842194694,0.3767309831422479,0.15716005146041498
1698412936575.0,0.01666666753590107,-0.06461641068682074,0.0005804302364587784,0.04631400740742683,1.1480199883058666,-2.7171204858526585,-9.297882147216797,1.9415640876198108,1.0623886476798223,0.061744002962416125
1698412936591.0,0.01666666753590107,-0.05732055459022522,-0.01024082350730896,0.09659224227070808,1.1602902718141674,-2.7334306924015284,-9.24535876377523,1.1093972111990233,1.3524879126280085,-1.152501040947093
1698412936608.0,0.01666666753590107,-0.005520005530491471,-0.018505963027477264,0.08963000204265117,1.2152073454592376,-2.7421096734195944,-9.251793765258789,-0.28197542194111724,0.3471015158010268,-1.6358690461972525
1698412936625.0,0.01666666753590107,-0.028409079013019797,-0.01718728164434433,0.11162614527344702,1.1938091681215912,-2.738069458118081,-9.230395587921143,-1.4668449161278858,-0.12484534593981361,-1.7747599824741098
1698412936641.0,0.01666666753590107,0.05150324661359191,0.005706687209010124,0.09570318447649478,1.2728177498415112,-2.708590850177407,-9.248352100372314,-1.7545760264247816,-1.1671902165308516,-1.3708983673706605
1698412936658.0,0.01666666753590107,0.0051276452120393515,0.049936581818759436,0.008692425021529197,1.2231379923280328,-2.6614550049930807,-9.336637702068685,-0.3576104021693261,-1.1911401681337956,-0.570348436617862
1698412936675.0,0.01666666753590107,-0.0045180619463324545,0.0741679367557168,0.049046062719821926,1.212364157922566,-2.638410814014077,-9.296086495971679,1.3505296760486247,-0.02405488572015354,-0.17036330071393888
1698412936691.0,0.01666666753590107,-0.0029546120218932625,0.05840221234709024,0.03197334736585617,1.2153569099977612,-2.661305367389321,-9.310900618743895,2.506886252060484,0.7130709489365379,-0.9381753610424992
1698412936708.0,0.01666666753590107,-0.045371465860307214,0.025749066023528576,0.041971594288945195,1.1749548300478607,-2.6993133187443017,-9.299078663524984,1.9107558790382337,0.30244168358266377,-1.409366633106407
1698412936725.0,0.01666666753590107,-0.03459025186598301,0.033736557646095754,0.06165127727091312,1.1890207648012787,-2.693178176990151,-9.278428674206138,0.05139442542042208,1.0099147588858473,-2.669719455977469
1698412936741.0,0.01666666753590107,-0.06482873826324939,0.004796586626768112,-0.008275076392292975,1.1607391846254467,-2.718317586682737,-9.349207260784507,-0.9756977522999047,-1.077250178818418,-3.434381331675199
1698412936758.0,0.01666666753590107,-0.10308481916040181,-0.011091887378692626,0.08539514095187187,1.1249757973268628,-2.731036490741372,-9.256133255767821,-0.13370831680069853,0.5978365329325784,-4.753986685926356
1698412936775.0,0.01666666753590107,-0.06047492696791887,-0.0012993921607732772,0.05358838232457638,1.1736080185487865,-2.720861133685708,-9.287257877349854,1.131790626723145,1.7895193809402727,-5.338908291633793
1698412936791.0,0.01666666753590107,-0.043023441429436204,0.010997487093508243,0.14087386706769467,1.2047326401308178,-2.710386501422524,-9.197624952697753,1.0761403797999967,3.805544910231093,-4.799104781149345
1698412936808.0,0.01666666753590107,0.02292114912122488,-0.020316227319836615,0.08578501705229281,1.2867340469911694,-2.740014746966958,-9.25104557723999,-1.0406503967074932,5.028964125495546,-5.663591579114104
1698412936825.0,0.01666666753590107,-0.03386807507127523,-0.050315352003276345,-0.003589548924565315,1.2452842846192418,-2.762460095269978,-9.34052827976644,-3.356960283659458,5.118827643744934,-6.97126758109301
1698412936841.0,0.01666666753590107,-0.04787438859194517,-0.09641016370207071,0.07491583251357078,1.2547115997865796,-2.7923879082828758,-9.26346491383016,-3.9637291032008264,4.376158550287822,-9.572719296316203
1698412936858.0,0.01666666753590107,-0.06614683512449264,-0.09306494492739438,0.04308861562013626,1.2511204434268175,-2.7786212487369775,-9.296235549053549,-1.4169670328270445,2.091910425073543,-12.14923569842697
1698412936875.0,0.01666666753590107,0.02453779053762555,-0.1423424783155322,0.038461540341377255,1.3558664737977086,-2.825607164056599,-9.299527576336263,3.027815815434071,2.532992515728742,-13.006685693999323
1698412936891.0,0.01666666753590107,-0.12079992407113313,-0.04658201069384813,0.1310989075064659,1.233911972863972,-2.740463659778237,-9.200468067169188,5.606598346245402,5.982451276553332,-10.818049758438056
1698412936908.0,0.01666666753590107,-0.11071546016931533,0.012007248657941817,-0.020687983241677282,1.270273910577595,-2.689437529157102,-9.346215093231201,2.853378760447469,10.085570026562133,-10.709315708172392
1698412936925.0,0.01666666753590107,-0.13109087033048272,-0.05614975724518299,-0.10614917516708373,1.2882304230287671,-2.7548291620001195,-9.426720124053954,-1.7045184237714044,13.690053804421915,-12.382700101994468
1698412936941.0,0.01666666753590107,0.010884674368798732,-0.42011020290404555,-0.15240706847310065,1.4850040181033313,-3.100791009631753,-9.469665531811117,-4.216027326517812,10.739819333005668,-17.44689348945529
1698412936958.0,0.01666666753590107,-0.10122224015891551,-0.31042379352152344,0.05692775588035583,1.4019550018861888,-2.975993540357053,-9.260023833465576,-2.5454988055424472,4.0088617125758015,-22.13753956233989
1698412936975.0,0.01666666753590107,-0.1457981717273593,-0.24140257200449702,0.18811317262649535,1.374721104132384,-2.89833133174479,-9.128492379760742,1.3833569525818812,3.327807969064786,-20.25723117251769
1698412936991.0,0.01666666753590107,-0.30607977296784517,-0.12073445761948823,0.49442719274163244,1.2574052227847277,-2.772635744586587,-8.816497391399741,0.8075511948171789,9.650075457534827,-15.04381608093866
1698412937008.0,0.01666666753590107,0.05828457731679081,0.6640864247888326,-0.2460170800626278,1.6680106613710521,-1.9807532532289622,-9.55106897277832,-1.5854846616807725,21.147831491226704,-10.130395704311281
1698412937025.0,0.01666666753590107,-0.05276099158972501,0.2935325722143054,0.08438157999515533,1.6183311230532824,-2.345869298663735,-9.211391612243652,-0.8499196586515613,24.56490512354509,-5.793141057762205
1698412937042.0,0.01666666753590107,-0.44686318527311086,0.3888938113853335,0.02196224096119404,1.308730774743855,-2.2378309487491843,-9.261818900188803,-4.058492001519229,19.062395445156096,0.6753566186912844
1698412937059.0,0.01666666753590107,0.8866989561274647,-0.24253479090481994,-0.1754705486744642,2.6716302159182725,-2.865560988782346,-9.45470235595703,0.9541346316467629,5.370844975532303,1.3068556322265648
1698412937074.0,0.01666666753590107,0.6656143650084734,-0.32283845393657684,-0.1024994204878807,2.4455276505067944,-2.95579217158854,-9.379882969555258,5.644262570649791,-5.862017966013083,5.155441726564434
1698412937091.0,0.01666666753590107,0.36524814738184214,-0.061600131605565545,-0.20462299340069293,2.1130330410830673,-2.721459684100747,-9.48044002380371,7.497823939682219,-9.178000102860226,9.39812087811046
1698412937108.0,0.01666666753590107,0.14377251111865041,-0.17736907577216623,-0.48026598092019557,1.8610431702211498,-2.8601737427860496,-9.75517466430664,7.183706101074271,-9.159002785457483,10.686313338595081
1698412937125.0,0.01666666753590107,0.11042246857210992,-0.233580792337656,-0.4492342983186245,1.8017866791322825,-2.932598635266721,-9.72419909580648,0.7740936198895771,-5.382371773530346,12.616059491403478
1698412937141.0,0.01666666753590107,-0.4095791642785072,-0.18315555021911858,-0.15130933636426924,1.2484269665591419,-2.871995113483071,-9.43524946746826,-12.137209442845869,-10.195142482548416,11.7601522648099
1698412937158.0,0.01666666753590107,-0.0025904548846185206,0.2930342673033476,0.17991233051419256,1.6189296734683214,-2.357541031756997,-9.121458827862144,-21.91517421617366,-16.663472499202122,6.366136299405153
1698412937175.0,0.01666666753590107,0.03162117292732,0.27572219023555516,0.46881285901367664,1.5954364235475658,-2.314894022424519,-8.859293746075034,-28.35100363143551,-28.420584476057723,4.196951461939612
1698412937191.0,0.01666666753590107,0.5348663167662918,0.038650048650801176,0.661515697517991,1.968483115851134,-2.4537580109745263,-8.714145854949951,-32.683045989874216,-50.50158543999554,-0.3343575567485466
1698412937208.0,0.01666666753590107,0.8206652259886265,-0.28366321236789227,0.4209416852921247,2.11632492223531,-2.689137815558165,-8.997409838867187,-37.722106842510335,-61.528557024765945,-6.3851084304853325
1698412937224.0,0.01666666753590107,0.35251558012403544,-0.44251346563100813,0.3144002959370613,1.501464008386433,-2.7422593110233544,-9.14929200668335,-46.72355850815678,-59.99610163163604,-5.970026735566257
1698412937241.0,0.01666666753590107,-0.5989005436509848,-0.42745501270890235,-0.26628303849995133,0.37978053060322997,-2.5573070866458116,-9.788693487548828,-54.378216397787185,-38.54031227865909,12.426780435350437
1698412937258.0,0.01666666753590107,-0.6643446373336017,-0.6465615817531943,-0.42449557838141916,0.2261027115419507,-2.6493342129580677,-9.983072150310873,-51.04469134694369,-25.687984591033825,30.909642013393768
1698412937275.0,0.01666666753590107,-0.5619098795797676,-0.5520544751934707,-0.48696752438545227,0.2382233574464917,-2.4450788838259876,-10.075848049163818,-42.93387927359398,-30.851001424274624,41.79177943681405
1698412937291.0,0.01666666753590107,0.017093612011522055,-0.4830519583769142,-0.28625089077353477,0.6950668886598199,-2.262969920050353,-9.906159006500243,-31.13021614245016,-27.16432314994291,41.29981115618179
1698412937308.0,0.01666666753590107,-0.08207849068455397,-0.45880642878413197,0.31487785032093524,0.5306151621278375,-2.1794721371524033,-9.320178150177002,-20.406843051192237,-9.964601399945684,31.05846159012459
1698412937324.0,0.01666666753590107,0.7698822564736009,-0.2504343119829893,0.7120289101809263,1.364695128952153,-1.941847768512368,-8.929324729156493,-4.474354899324626,0.7507679902654547,13.200826137194118
1698412937341.0,0.01666666753590107,1.2272263576202094,0.19922259566187858,0.7235621115863323,1.8086698993073775,-1.527950010382384,-8.91226604232788,25.21422217963423,-5.316820740518441,-3.875660217155859
1698412937358.0,0.01666666753590107,0.970587711104378,0.16984262579008935,1.166059795126319,1.5625160776551812,-1.6440689370304344,-8.453177873992919,43.50785080540142,14.245154377326253,-2.5329645546418273
1698412937375.0,0.01666666753590107,1.4411157765381037,0.6005027181506156,1.5298609585702418,2.0959742081239816,-1.3356656895510852,-8.061426627349853,49.46382015788214,30.4899917756936,1.303746508772034
1698412937391.0,0.01666666753590107,2.5011884551912544,2.0543702781036495,-0.23102467811405658,3.1078234655518084,0.05057692554891109,-9.811588040924072,-23.90360450055716,-66.00775410132529,35.30355393288175
1698412937409.0,0.01666666753590107,0.5831539988668635,1.9752840280376374,-0.1842600043296814,0.9659109149323776,0.07855930358245969,-9.798120656585693,-63.69022993480494,-66.31181363260674,111.93624785424132
1698412937425.0,0.01666666753590107,1.8841713862217961,0.7397469381898641,0.6103963356554508,2.098667557127494,-0.9944918068483471,-9.039307783398032,-66.63241588205797,-18.66521652982527,112.79599791601667
1698412937441.0,0.01666666753590107,5.317945665577054,-0.7171015372700988,0.4303536567598581,5.5015760302336885,-2.302773376519978,-9.245508401378988,-21.871662496066097,20.43558277967236,69.34148747293847
1698412937458.0,0.01666666753590107,2.151513724516332,-0.28674232755228873,-0.3403554059267044,2.3719058033265172,-1.851616147314757,-10.018835537609457,-1.2801383867927079,29.583069012415553,65.12066962249155
1698412937475.0,0.01666666753590107,2.2337553698733448,0.2391306815497577,-0.004075286614894867,2.496553927258402,-1.3235450436465441,-9.681852238464355,-6.519503074575912,21.073153617936367,62.690085334639974
1698412937492.0,0.01666666753590107,3.3719635737389324,0.12402210098803043,0.12482231145501137,3.627365426735114,-1.4039004368655383,-9.558699906048178,-15.967824562425495,-8.254860762945276,67.6423891244386
1698412937508.0,0.01666666753590107,4.211110797357559,-0.02308992981687188,-0.5154600438982248,4.377797808660939,-1.5143329884402452,-10.206630730327964,-13.479268190219798,-39.860130222548165,69.44207566884525
1698412937525.0,0.01666666753590107,2.8978321500509976,0.34291911893486976,-1.4483645786225794,2.78804798851558,-1.1520604958683252,-11.139771411895751,18.653441283696168,-98.43583254457752,101.03915914672787
1698412937541.0,0.01666666753590107,2.662166075871885,0.9314568201340735,-1.42534961373806,2.2985832313537595,-0.6072298344485462,-11.103708749389648,-1.1249994976974482,-30.685014167064974,104.36882172559574
1698412937559.0,0.01666666753590107,0.46851128225121647,-0.7623181048296391,-3.2901942220687865,0.10773911123964935,-2.2764373043887316,-12.97253219822347,-2.7682284996122126,35.55719983789934,133.37224331900356
1698412937575.0,0.01666666753590107,0.04330525404550135,-0.727758978754282,-2.7892998791396617,-0.42227735434267666,-2.20087031449005,-12.473491374206542,-12.327641947094994,-62.6165105369006,113.040272801493
1698412937591.0,0.01666666753590107,1.1455136315081267,-1.0300658090546726,-2.6639228564113377,0.4164413781981915,-2.4546556904666126,-12.339116806030272,-11.835064925852954,-115.6824495196424,74.5651068671375
1698412937608.0,0.01666666753590107,2.0834265689790246,-1.8638481446392834,-2.4394863245159386,1.0025718721251935,-3.2842467118412255,-12.082338677978514,28.054018468586893,-122.91639849225129,88.38554386017309
1698412937625.0,0.01666666753590107,1.7118892583250997,-3.5505677442640065,-0.2540864047497511,0.4046199344359338,-5.127033656012267,-9.84450831375122,96.48976821606831,37.28612220741008,148.7507557447458
1698412937641.0,0.01666666753590107,3.178675336562097,-2.126071532484889,-1.1364350567132233,1.9804535396300256,-3.916166166388243,-10.703577212414144,101.13151696468479,80.237053048267,122.73201070541762
1698412937658.0,0.01666666753590107,-0.19517068992257117,-2.38491784511283,-6.962324399209022,-1.2244846576966344,-4.359542532458901,-16.512808850097656,75.9826306671036,113.39745071394965,132.1061311525583
1698412937675.0,0.01666666753590107,-1.4443378073245285,-4.024325073942542,-6.008035131150484,-2.0932805120605975,-6.158934717670083,-15.557521803173422,45.783902063281445,162.67289425452284,132.74848312324133
1698412937691.0,0.01666666753590107,-1.5056528383783996,-4.544330360054969,-6.615457419431209,-1.8064251891205085,-6.768109548706561,-16.161908669281004,42.19917631514322,173.7609413908515,115.67078355654002
1698412937709.0,0.01666666753590107,-1.187216564923525,-4.729564762374759,-6.191887723723053,-1.0675146286895498,-7.12439653712809,-15.700874627575278,65.99530266646835,116.43368836607377,132.52982144715253
1698412937725.0,0.01666666753590107,-3.4486791491508484,-3.493647002646327,-5.546055917549133,-3.1703718012602997,-6.101024965015053,-14.995633185577391,103.30486949820451,99.01588635984085,147.19722921802637
1698412937741.0,0.01666666753590107,-2.7965269077837465,-4.322813514998555,-4.6331414469301695,-2.3542484564850104,-7.270442838397622,-13.975852915954588,165.8182236880704,106.33888733884837,110.36199170339093
1698412937758.0,0.01666666753590107,-3.2404394265577197,-1.8408929471179842,-2.5109645837962624,-2.6611550721984356,-5.265598223224282,-11.681908450317382,213.82267830713093,69.45663080196654,101.81694693846308
1698412937775.0,0.01666666753590107,-4.49447765712738,-0.456821976968646,-2.053358762973547,-3.9342718415191396,-4.6603144082769745,-10.895711895641684,268.70455968450403,10.357817951784256,101.6341574158952
1698412937791.0,0.01666666753590107,-3.6541140434563157,0.7480182151898741,-1.2605652942508458,-3.203741206094436,-4.1147357049688695,-9.764751470947266,299.2436468599517,0.7679586692718776,91.86395429878547
1698412937808.0,0.01666666753590107,-2.6225232167914507,2.081671249744296,0.31829321172237396,-2.3114520287444815,-3.6800381737858054,-7.611165908592939,315.89594858476624,6.859369445694338,78.89771442373004
1698412937825.0,0.01666666753590107,-1.6336140323810278,2.1797259657829997,1.4611094939053058,-1.4356232252701184,-4.210504063636065,-5.9750283490836615,302.3855611989142,4.253824739611017,72.12304103129114
1698412937842.0,0.01666666753590107,-1.1900276768215,2.597377377358079,0.8574106100618839,-1.0966939522895496,-4.338893127661943,-6.074387717980146,275.8714225390851,3.7287629117895715,68.6433465171148
1698412937858.0,0.01666666753590107,1.0389167856387793,2.301870582461357,-1.1389327187478542,0.9510965638312976,-5.254824900275469,-7.388654791802168,268.21073700751214,-26.731608467907797,50.39449148890432
1698412937875.0,0.01666666753590107,0.890660699365288,2.403707155126333,-2.000118755695224,0.6482299716231413,-5.562479813605546,-7.714266217583417,255.5134426612151,-58.66357270570157,36.588367157274504
1698412937891.0,0.01666666753590107,0.9158404410682618,2.313414889782667,-2.5379461142241952,0.5174468338012695,-5.992089958521723,-7.737011133354902,221.27751559749802,-65.99884070445842,25.09178420857258
1698412937908.0,0.01666666753590107,1.0162632014125585,2.028229582414031,-2.9019293562367556,0.48437674070727077,-6.533478224402666,-7.654261246214807,178.07102298356133,-68.18032799327962,17.534243071203292
1698412937925.0,0.01666666753590107,1.439757347666472,2.007877114737034,-2.8098043225079774,0.7504324367247521,-6.797887870246171,-7.070525538469851,139.53909817720302,-81.55065552001136,13.522984816002465
1698412937941.0,0.01666666753590107,1.151496943701431,2.3413111969679594,-3.0619936614647507,0.31797990798950193,-6.601862609320879,-6.998399628935754,126.06768385075509,-106.09405920804925,25.17897669596967
1698412937958.0,0.01666666753590107,0.7060892179336399,1.5413187566518782,-3.643441550533473,-0.374393430737406,-7.548170230975747,-7.162551495738327,112.40292052928244,-122.51976940714864,32.280566847747465
1698412937974.0,0.01666666753590107,-0.6761240685850382,1.0764233633428812,-3.609467677000165,-1.9627967407777904,-8.097191768214106,-6.82811203585714,101.37519762370333,-137.86357081152886,40.20774587016679
1698412937991.0,0.01666666753590107,-0.7730648320324719,-0.13438567409217356,-4.015622712048888,-2.248155505017191,-9.369560312983394,-6.966227251866459,84.03162611337011,-133.91315332013355,24.210580522614215
1698412938009.0,0.01666666753590107,-0.4958087102279067,-0.8881371722370386,-3.774511231945455,-2.185157927703857,-10.19540849456787,-6.361242712126672,97.6106022588674,-161.05285534566588,28.15938779691268
1698412938025.0,0.01666666753590107,-1.5657365740716456,-1.5767051273316144,-3.8135371281713244,-3.436278371130675,-10.935068338996171,-6.070197572813928,109.81524872070975,-154.36775305400252,34.84899459833364
1698412938044.0,0.01666666753590107,-1.9591857106737791,-1.740063797929883,-3.4874037243425846,-3.99472590836212,-11.13917461504638,-5.406704145482182,104.17477605127567,-119.79646370203784,35.25833466548168
1698412938059.0,0.01666666753590107,-3.314855785116553,-3.1048049214482307,-2.6420371878176927,-5.473145433508605,-12.54412207674682,-4.194938976366073,76.44775971939231,-71.8307294253821,-5.23638288332367
1698412938075.0,0.01666666753590107,-4.187549596767127,-3.2479736214548347,-0.7840016749799251,-6.319794995581359,-12.725931180793046,-2.122757585631311,67.69388875078049,-68.97730861658256,-31.318080495571362
1698412938091.0,0.01666666753590107,-2.950426845163107,-3.9547716452449557,-0.1992570824533701,-5.0177982052676375,-13.473221958491205,-1.3374595141652972,63.85834138084646,-78.22875886622981,-37.03977777461523
1698412938108.0,0.01666666753590107,-0.5855952180065215,-3.5394261725246903,-0.4397059339296073,-2.578854609326273,-13.104215043097733,-1.2835895384203642,80.92259230507202,-75.72407385607278,-22.60663524698907
1698412938125.0,0.01666666753590107,0.28614830718189477,-1.8119944771528242,-1.4752841497302054,-1.6750436287477612,-11.402536797663569,-2.06320170973707,94.01680260441681,-60.55117744510463,-13.807715765706432
1698412938141.0,0.01666666753590107,0.6497657846219838,-1.2781138104230165,-1.8396096293091773,-1.2954133202701805,-10.88449199796915,-2.1624111122362315,95.79401782645414,-43.04055316805124,-3.8037741836887675
1698412938158.0,0.01666666753590107,1.203610504233092,-0.31882512664198875,-2.415837153381109,-0.7484877323977649,-9.929204951044916,-2.3976405428555267,93.21532088645084,-29.971249153514886,6.314653748536181
1698412938175.0,0.01666666753590107,1.2692194330886006,0.6342185252696275,-2.5611294214129448,-0.7000050026491283,-8.9689804477185,-2.2943917344806715,94.80784096314184,-23.227050357605304,6.557832815537553
1698412938191.0,0.01666666753590107,1.2465643875576555,0.9905559287041426,-2.659984932440519,-0.7324766549259424,-8.599825648286938,-2.132334428804554,105.18192842552907,-28.442852600299258,3.6612332583524787
1698412938208.0,0.01666666753590107,0.4351671945214271,1.813764993956685,-2.111309432160854,-1.5430632622316478,-7.745244124171137,-1.1719589361675082,125.77061160299455,-37.60175549424013,1.6553740387543991
1698412938225.0,0.01666666753590107,0.07964403007924556,2.2698276769906283,-1.1450750208951532,-1.889623952539265,-7.250840312305092,0.1391648711927235,133.7696920268066,-36.79206730398638,0.11196593036227032
1698412938242.0,0.01666666753590107,-0.3077779551878571,2.4712831462711096,-0.3085961397029459,-2.265363829449564,-7.000197910529375,1.312922235084325,124.27294236330752,-14.798880374660126,-1.860558897837106
1698412938259.0,0.01666666753590107,-0.822849145898968,2.732304318720102,1.422529587881267,-2.7632079910278318,-6.674136987414956,3.403509489472955,92.16822556593121,7.058047268932138,-7.1534645847503935
1698412938275.0,0.01666666753590107,-0.27394845856130123,3.1796739922106263,0.8575207924380898,-2.2026661118656397,-6.184674723604321,3.0391420704483982,79.54525050799309,16.13568329146773,-7.315790860564916
1698412938291.0,0.01666666753590107,0.2522286480538547,3.44483416416049,-0.3862742765367031,-1.670704138238728,-5.8749231302559375,1.9832998689718544,82.60152110495285,12.03615935539647,-4.777675489515253
1698412938308.0,0.01666666753590107,0.6941127297401428,4.329623195013403,-2.3873273904725907,-1.223587270465493,-4.913951607954502,0.26770547251850363,97.8113346883849,5.875907155690304,-2.7064872180532937
1698412938325.0,0.01666666753590107,1.2288923911362886,5.201833899322152,-2.6562670809611677,-0.6884831994205712,-3.9679432615071533,0.24361264926940202,105.49363093849178,-4.417214390501946,1.5637457703782087
1698412938341.0,0.01666666753590107,1.574943086095154,5.4138896730721,-2.54408271728307,-0.34252032887563105,-3.6707600578308104,0.61231882815063,104.34225911991355,-9.13479830258625,3.888618366671843
1698412938358.0,0.01666666753590107,1.6686672255836426,6.00718465180099,-1.9340271578893065,-0.2576763920657337,-2.960732550600171,1.5352841526627539,91.4431668345885,-4.777928206514543,5.803153261311797
1698412938375.0,0.01666666753590107,1.5165063869565725,6.346227221563458,-1.586142525501549,-0.4176385520935058,-2.5384534792244433,2.08699741320312,81.03863721907052,-4.856396834794235,5.215669907778783
1698412938391.0,0.01666666753590107,1.5098694331601261,6.646608929020166,-1.543991775253415,-0.4369418029785156,-2.1613655487060544,2.303074989815056,68.35858227023861,-1.1459772497943788,9.168420762549284
1698412938408.0,0.01666666753590107,1.626376628473401,7.005270976009965,-1.3785738340377807,-0.35808307805806394,-1.7096113765209913,2.6566683552384376,55.81575265202143,-0.17297566130848363,14.104607013453961
1698412938425.0,0.01666666753590107,1.4829144984781741,6.69822513448894,-1.2992138815969227,-0.5312139317385852,-1.953970167982578,2.854489851930737,47.452411409583426,-4.746004329220727,13.710655362505966
1698412938441.0,0.01666666753590107,1.484341608671844,6.510984068521857,-1.2902899859070778,-0.5499184860780835,-2.0875953790962694,2.963725594936311,38.059770904508255,-9.208073425775792,11.514985185873233
1698412938457.0,0.01666666753590107,1.1139116747379303,5.949186636340618,-1.2885878581643104,-0.9325416927613317,-2.594119252344966,3.0696684338763354,26.649217603497227,-13.95282142707606,9.324135415247234
1698412938475.0,0.01666666753590107,0.7650777788013219,5.287423686063289,-0.9553753097295761,-1.28463955892995,-3.2252918340474364,3.460823175930977,17.25423092844216,-17.39534263669462,10.666988172112177
1698412938491.0,0.01666666753590107,0.7147828850641846,4.995191382792592,-0.6881932765632868,-1.3440451031006873,-3.5004730492740865,3.7565044506117697,-0.5099994464325682,-11.191507426781428,14.283498205553057
1698412938508.0,0.01666666753590107,0.5997922317937016,4.702981291353702,0.0968549848601222,-1.499368935803324,-3.8081279626041646,4.492871390974521,-35.0044804396944,2.8229423702888345,15.191681138732973
1698412938525.0,0.01666666753590107,0.4765196339987218,3.911741481813788,0.633009149479866,-1.6609771094724535,-4.648940489086509,4.9127530458196995,-65.51070074485595,15.72037193143781,9.863083444538137
1698412938541.0,0.01666666753590107,0.2955344135560095,3.7180513858377933,0.8521461136624217,-1.8779519271850584,-4.925172674670815,4.943729491102695,-88.81027234352115,27.868286842034028,0.9263021443874899
1698412938558.0,0.01666666753590107,-0.11220058416053652,3.3354777173846957,0.8424579556018114,-2.316390544592589,-5.445913289320469,4.6106361851334565,-105.28827447090617,35.94647622436046,-9.692657418141627
1698412938575.0,0.01666666753590107,-0.09221548849120735,3.0659996822357174,0.12827186738699675,-2.305167285919189,-5.823446625518798,3.6284149540543553,-107.92332047156206,36.227340433220554,-12.244021648633822
1698412938592.0,0.01666666753590107,0.047049043683707714,3.156315912976861,-0.05591740979403257,-2.1670525083012877,-5.835270334303379,3.172021139369905,-107.61706844955704,32.57554564252739,-12.604384136790987
1698412938608.0,0.01666666753590107,0.2805396735198796,3.1975790667355057,-0.48611499920934437,-1.9207487202517688,-5.9151773992329835,2.3918103811055422,-100.33292441673773,21.68534347324461,-14.24770374543396
1698412938625.0,0.01666666753590107,0.6485322973042726,3.5152088461130857,-0.8857157903090119,-1.534683556421101,-5.675006707111001,1.749414979121089,-93.55575117506261,19.122477204190115,-11.383858360413681
1698412938642.0,0.01666666753590107,0.6952794354319572,3.797168761694431,-0.8846518143393098,-1.4764743824280797,-5.457433631244301,1.524958719611913,-84.91539795045641,17.08812926556391,-8.721397687976642
1698412938658.0,0.01666666753590107,0.9777525612324476,4.198952157530188,-1.0621104680910707,-1.1830350414551793,-5.1235921372562645,1.080684381788224,-72.77110987030946,12.245417568545443,-5.613930127432587
1698412938675.0,0.01666666753590107,1.3457074833549558,4.532680838793516,-1.4092679552480578,-0.8116349473148584,-4.828958033540845,0.5594977769367396,-66.25149623204636,7.400759267613521,-1.3902410362133135
1698412938692.0,0.01666666753590107,1.6208379913076758,4.702189848715067,-1.4272881805852056,-0.5403412410460412,-4.691287930950522,0.37888445854634045,-63.63615532714595,4.369570405946522,2.12513993571589
1698412938708.0,0.01666666753590107,1.8740651488795876,4.636828026488423,-1.629803534182161,-0.30391455775797366,-4.789453706148267,-0.026034604966640472,-59.76640236984851,-3.641463275799877,8.322167154573874
1698412938725.0,0.01666666753590107,1.8591138095937667,4.395447958576679,-2.10820693610087,-0.33713366740122436,-5.0492228327095505,-0.6435894340746104,-55.86721812741747,-8.321105060157937,8.559349742370797
1698412938742.0,0.01666666753590107,1.64598879917711,4.431803466549516,-2.142553442338854,-0.569969924981892,-5.027974292975664,-0.8111831118941306,-56.802018307792935,-1.875426085226108,9.251137768492724
1698412938758.0,0.01666666753590107,1.1310174155786632,3.5657974620997903,-2.354478721576929,-1.1150997154787181,-5.913828907233476,-1.2310669586963952,-67.93108073008752,8.093308859827903,7.311726898008759
1698412938775.0,0.01666666753590107,1.0810074762627482,2.842140073445439,-2.383034807845205,-1.1830356259770691,-6.653488751661777,-1.446245832902938,-77.69043750679526,13.61072713362774,5.541519023173051
1698412938791.0,0.01666666753590107,1.074096820091456,2.6191969949781893,-2.3005881414353846,-1.2086233639590442,-6.891112681910395,-1.583911916905269,-92.09928846663827,24.47243289991958,6.167082388876179
1698412938808.0,0.01666666753590107,0.82435604333058,2.075143893802166,-2.240797397339344,-1.4836572796694933,-7.45000913195312,-1.9017417854322118,-118.63690248664477,40.332874935761424,5.01839013888672
1698412938825.0,0.01666666753590107,0.3409172775931656,1.2604425446540117,-2.971523409205675,-1.9786586190372704,-8.267929443147779,-2.9593802614916696,-121.49853318282668,38.95410562914597,2.7982817588470916
1698412938842.0,0.01666666753590107,-0.2729163390345871,0.35197160944044587,-3.580390051075816,-2.593070181683451,-9.16814809832275,-3.973624522013962,-104.49909392363539,27.650938269813174,-2.7319595547892104
1698412938858.0,0.01666666753590107,-0.42862493327111,0.20392565878629684,-3.521250464364886,-2.730886853137612,-9.306563466322421,-4.169799712803959,-90.50471250300708,20.61132525456408,-7.739711674043635
1698412938875.0,0.01666666753590107,-0.2693644917719066,-0.9804162274837493,-3.2558126445174214,-2.54713187572062,-10.478525178968907,-4.13224045506455,-85.48554116123405,13.74503853478781,-9.671698982673442
1698412938892.0,0.01666666753590107,-0.005836743329465389,-1.5955717403650282,-2.5643244180619713,-2.24396579824239,-11.072735518977046,-3.7238799458608027,-80.51481635124391,7.985064875635187,-11.426286641764154
1698412938908.0,0.01666666753590107,-0.0440630136102438,-1.8455115468293428,-2.16198923356235,-2.2514476784303783,-11.303925616785882,-3.5170807774648067,-73.4874601104604,10.757513791824232,-10.911244274568295
1698412938925.0,0.01666666753590107,-0.35502763601019977,-2.329924126034975,-1.242842444425076,-2.52992311289683,-11.767352691107988,-2.7840061566457153,-71.60223910707766,19.02386976314264,-11.413212805919104
1698412938941.0,0.01666666753590107,-0.60368850857988,-2.7589515026271343,-0.5745084451943636,-2.7214593918398022,-12.163593650385737,-2.3739985378220676,-74.24958627842877,29.859234051126677,-13.797529392333004
1698412938958.0,0.01666666753590107,-0.525632332213968,-2.8092706540226935,-0.5093989902935921,-2.594865832928568,-12.184991243201493,-2.505530429918319,-70.19461225121891,36.071427705036676,-12.302786888705318
1698412938975.0,0.01666666753590107,-0.2461320847444236,-2.866120668491721,-1.0370075910165906,-2.2676088318973777,-12.21222645612955,-3.212867821282148,-60.125567867353624,33.575205299261285,-10.71692368513414
1698412938991.0,0.01666666753590107,-0.4084178654141724,-3.489018173801899,-1.628840826629847,-2.374449642590433,-12.803144184333085,-3.985147055894881,-38.65137456965808,24.47061948469494,-9.923089217717639
1698412939008.0,0.01666666753590107,-0.639379122903198,-3.7643110327094793,-1.8925848481714724,-2.5655370087221265,-13.064262387415766,-4.336197312706709,-23.985155251699823,18.016679822848804,-12.02508078856271
1698412939025.0,0.01666666753590107,-0.9960865286938846,-4.233444794240594,-2.257417692750692,-2.8806738022401928,-13.528288596674798,-4.752339196501672,-12.24466197886851,16.344958580089624,-12.5387374811307
1698412939042.0,0.01666666753590107,-0.7556707757696509,-4.358829415753483,-2.1999875403061506,-2.5803511314943433,-13.658322505298257,-4.7219621784165495,0.0977150341437296,4.763765809270522,-18.086955639219067
1698412939058.0,0.01666666753590107,-0.8525009184494614,-4.392381556743383,-2.1558283728450536,-2.630779003961384,-13.703364593073724,-4.668541846135258,8.076855787890988,0.4571722020707508,-18.636876367411595
1698412939075.0,0.01666666753590107,-0.30899887528493997,-4.403824157255888,-2.3448592448383567,-2.027888952282816,-13.73763160433471,-4.813840251646936,16.66668098056474,-4.231788841801262,-17.459100745049398
1698412939091.0,0.01666666753590107,-0.5042502292282879,-4.35145041141808,-2.2881360716193915,-2.1880013344362377,-13.704262418696283,-4.708944145280867,21.933941868465563,-4.424328032522514,-13.686178525841578
1698412939108.0,0.01666666753590107,-0.600919774518907,-4.419160842597484,-2.2761568800121545,-2.259677600506693,-13.793146570807695,-4.631432304924727,29.443794625049822,-8.739479760030605,-9.62648483791525
1698412939125.0,0.01666666753590107,-0.5204810869306326,-4.466855490708351,-2.43482125531435,-2.1658549690797924,-13.87350254854858,-4.665998153001815,42.30345964339097,-17.42420189348522,-4.468377203140395
1698412939141.0,0.01666666753590107,-0.4681120172679424,-4.320314683920145,-2.7380273725420237,-2.1173723854616284,-13.755288841578363,-4.84316922198385,53.55429750839772,-20.14847577791087,-1.2337431529166327
1698412939158.0,0.01666666753590107,-0.5119453137755394,-4.177938595595956,-2.8739567689448595,-2.170344097192585,-13.643659189173578,-4.828504736815392,60.50272408313256,-20.013333654992998,-0.04284158783653807
1698412939175.0,0.01666666753590107,-0.6089398532368242,-3.851324714773893,-3.0413854654610155,-2.286013818768412,-13.355905492621659,-4.7794231643907725,64.87608737850256,-16.418138934404436,4.6951864411353625
1698412939191.0,0.01666666753590107,0.004251227703690528,-3.5118688880354165,-2.9560575445264576,-1.6882117378786206,-13.043612398096919,-4.52189714058116,66.29775027310569,-19.502674561696995,1.8646802766709738
1698412939208.0,0.01666666753590107,-0.2856282288305461,-3.3745220260500908,-2.874817185166478,-1.9892827427737414,-12.930936451509595,-4.268710022758692,65.7740386883058,-16.856391192309133,1.0549022267409593
1698412939225.0,0.01666666753590107,0.05235971731245517,-2.8430963512569662,-2.752793564519286,-1.6582842171266674,-12.42935003466308,-3.913769626640528,67.36302755719589,-18.404088152571926,-1.5289694353322656
1698412939242.0,0.01666666753590107,0.31861075323894616,-2.3493016111999747,-2.7280378934472798,-1.3911809482850133,-11.955896071845292,-3.7080181406665593,71.24353806243612,-19.58008280310804,-2.937477812480778
1698412939258.0,0.01666666753590107,0.2782765508934855,-2.197221874985099,-2.8082611847192047,-1.4308350594118238,-11.821821363398431,-3.5933954439256337,76.52649814014421,-18.245077933599447,-0.45098533134318863
1698412939275.0,0.01666666753590107,0.08995879560559987,-1.8672826491326093,-2.480823128032684,-1.6261119861878455,-11.509378046748042,-2.9863156489396467,84.72581238966436,-15.268110955545415,1.914589536153315
1698412939291.0,0.01666666753590107,0.025026450837403534,-1.8962568146824836,-2.165354326081276,-1.6982374573305248,-11.546190066316724,-2.447471003126912,87.20681030377979,-11.076500701536753,2.40989991372383
1698412939308.0,0.01666666753590107,0.09901713133007288,-1.8937147289842367,-2.1768922036617995,-1.6288056091859935,-11.546787447687983,-2.2337882674959486,88.09646976393063,-9.123741080093644,0.75816972753078
1698412939326.0,0.01666666753590107,0.2818907958678901,-1.9431798938989637,-1.9861317313969133,-1.4422078095585107,-11.59377423979044,-1.7332512683708219,92.73737156909003,-16.20037884328609,-3.0067745639222005
1698412939341.0,0.01666666753590107,0.30983868710994716,-1.5430530330985783,-1.396792212295532,-1.4024039146974683,-11.186160238105058,-0.8976739756608382,94.9736438052439,-22.14311299670262,-4.770049583306934
1698412939358.0,0.01666666753590107,0.17860460891649127,-1.5079846423268317,-0.9718903912007808,-1.5156794346131384,-11.138576064631343,-0.22924305539429188,87.98131960471339,-24.374254053242524,-6.308967616052146
1698412939375.0,0.01666666753590107,-0.21356953931376338,-1.2678934451818464,0.3195405083697289,-1.8792988117493687,-10.879103290668128,1.3296818659011274,62.78686911517905,-17.047337668293302,-6.237526398654752
1698412939391.0,0.01666666753590107,-0.5696580825537443,-0.733406044730544,1.2253950505398212,-2.216133057812601,-10.333374949756264,2.365621973816678,37.24031895883598,0.9226599460125806,-7.401707810134507
1698412939408.0,0.01666666753590107,-0.7407321498349309,-0.5259995580911636,1.3506219972729683,-2.369811023004353,-10.121788547083735,2.549528196272626,13.888821700779395,19.03798264151518,-9.41267942632634
1698412939425.0,0.01666666753590107,-0.9697169926844537,0.06774024179577827,1.4435820205211638,-2.5700259907044467,-9.533712764307856,2.6358685091201215,-5.62558669902486,34.7295175142772,-14.202301770473593
1698412939441.0,0.01666666753590107,-0.5895503853730857,1.1153063439667223,0.9082255821503699,-2.1661543904177845,-8.493432727491856,2.0730813352491704,-1.430182595097373,34.37455258311163,-12.432526331989711
1698412939458.0,0.01666666753590107,-0.34196956312507387,1.7634008343756198,0.6954466086924076,-1.9018940899170933,-7.8472969699352975,1.86658209964782,18.05203458954008,25.063623338624616,-7.759611430190468
1698412939475.0,0.01666666753590107,0.3014752017818391,2.507065822792053,0.5686987360022961,-1.250371670886129,-7.091177573615312,1.8477270309217273,50.327381465214366,3.476755398399135,-2.0029952359017287
1698412939491.0,0.01666666753590107,-0.00010623685345053673,2.6999942867457865,0.8654090614698827,-1.544409708404541,-6.878691007232666,2.2917013628855347,65.45824489203025,-6.178289875530523,-3.6367611174431462
1698412939509.0,0.01666666753590107,-0.13944076552465556,2.6685581149965523,0.8904511482678353,-1.6710031211853027,-6.884377820697426,2.492365243396908,71.25170013849427,-9.520452127466326,-3.5304152855094593
1698412939524.0,0.01666666753590107,0.011443038903921843,2.622283855077624,1.0108895455501974,-1.5049053810119628,-6.88841862052083,2.8595762152843176,73.40921346332874,-16.604920702542188,-0.4565842721936008
1698412939541.0,0.01666666753590107,-0.1352244630038738,2.3531483497560024,1.4490788643717765,-1.6448168327882886,-7.119758940455317,3.487605676655471,72.47267158471493,-21.011125254988897,2.714146421433817
1698412939558.0,0.01666666753590107,-0.21698767719417808,2.1544459785759447,1.7877227902054786,-1.7236757038392125,-7.279272041541337,4.00250896345377,62.04472808072215,-19.80020272458463,4.228095843894401
1698412939575.0,0.01666666753590107,-0.6025039749704301,1.5405261449694632,2.631955646525323,-2.1151276752747594,-7.850737465777993,5.016602711872756,35.67282811035849,-11.559380561704668,7.298379854596908
1698412939591.0,0.01666666753590107,-0.7621532696567476,1.1976070260345935,3.200122321477532,-2.2915501178465782,-8.173654830169678,5.651814632093906,17.541894590621002,-2.782035727019393,9.961050555350923
1698412939608.0,0.01666666753590107,-0.7413736626088618,1.051943586602807,3.264489287447929,-2.297236639050394,-8.308629702326655,5.740250455915928,3.1948135137540596,8.210613943728287,9.746685068250073
1698412939625.0,0.01666666753590107,-0.6527534221306442,0.9569856675356626,3.5929324295237657,-2.2504003613345325,-8.403201252424717,6.043416533394158,-12.424754430487882,18.461893751065038,8.442237611314466
1698412939641.0,0.01666666753590107,-0.37472660821452736,0.896944748070836,3.7658991786837577,-2.005592949322611,-8.469190851160883,6.171355807825923,-16.822762755930576,18.13671356732261,9.588310056870402
1698412939658.0,0.01666666753590107,-0.3079787384569645,0.8129027752935886,3.5900697335690257,-1.975964557647705,-8.557923612102865,5.951387653516233,-12.401152711810903,12.87028425495323,12.503666167289978
1698412939675.0,0.01666666753590107,-0.2250489647053182,0.7466191620469093,3.0621076432332393,-1.947832688140869,-8.619425836291908,5.402967297041416,4.211565932329324,5.507596888660182,16.815573981829136
1698412939691.0,0.01666666753590107,-0.15225757699981332,0.5743862801194191,2.697828340883553,-1.9173072014957666,-8.77714562422037,5.06508588001281,17.036042242953393,-3.9469763567140776,17.165257469218986
1698412939708.0,0.01666666753590107,-0.0444222023114562,0.5525163936167955,2.6092449252843855,-1.8444332500733434,-8.77834214052856,5.031117121046036,23.683496531911622,-11.934536385830436,15.51548845445223
1698412939725.0,0.01666666753590107,0.0496615642696619,0.5328180059343576,2.57561942679733,-1.7826329197205601,-8.767417426410317,5.089325710517167,25.750824038945233,-18.52853249170227,13.118431857688963
1698412939741.0,0.01666666753590107,0.07370791802853345,0.8584516435474157,2.6907980038553476,-1.7763479942321776,-8.418910278210044,5.275026269043981,24.679945999735615,-20.474151150368126,12.311089837415116
1698412939758.0,0.01666666753590107,0.10042845943272113,1.0308639736950398,2.7205697495236993,-1.7630306858889757,-8.224833228743076,5.371993189845979,21.578855701442233,-22.26493795828626,10.840669637421845
1698412939775.0,0.01666666753590107,0.13961685274392366,1.310495154067874,2.574625447323918,-1.7345992489136755,-7.920318367004394,5.3040568409562106,18.437130900229157,-23.63841045320037,9.294285781026986
1698412939791.0,0.01666666753590107,0.168276691647619,1.6648294009864328,2.271694932167232,-1.7105075947083532,-7.548619143787026,5.0561064547434444,17.720913848767037,-22.06229819844303,8.41211903839565
1698412939808.0,0.01666666753590107,0.1821294220417738,1.7355413520693779,2.141444750444591,-1.7004817291259764,-7.462128608813882,4.9750025812447065,13.905034008548066,-18.636446065493885,7.021938193224396
1698412939825.0,0.01666666753590107,0.29282208585739133,1.9044342759191988,2.230525009649992,-1.591545845849812,-7.281516605597734,5.100699337446689,2.1940983793499846,-14.087603257515214,3.9310970206674445
1698412939842.0,0.01666666753590107,0.5504254126869141,1.8822393952459096,2.2075226119861004,-1.3328222828187049,-7.303063836017251,5.080496799634397,-4.652230100784683,-11.158754962163924,3.1247767540047486
1698412939858.0,0.01666666753590107,0.6035718964628874,1.8907693231821059,2.177010569344461,-1.279102090808004,-7.299322311401367,5.035008137135208,-12.195791121583422,-7.8280268737855465,2.3377018259890336
1698412939875.0,0.01666666753590107,0.6648825436025858,1.986658385619521,2.1737436765030025,-1.2176017663151024,-7.221064182722568,4.974555421999097,-26.056664542052772,0.5237990965986384,0.1650612596490107
1698412939891.0,0.01666666753590107,0.7380161688745022,1.9519763638168572,2.236438909868896,-1.1465234661377965,-7.279870591956376,4.955251878853142,-40.47331387038064,10.604445837429662,-1.807444785530148
1698412939908.0,0.01666666753590107,0.7114721530809998,1.9879180302917956,2.2923685946226118,-1.1769000458315013,-7.278225162836909,4.889111473469436,-54.01198848468027,16.785565545710686,-3.1770667612996624
1698412939925.0,0.01666666753590107,0.7531095469795167,1.9650883588463066,2.085201031305641,-1.138293251800537,-7.353941205817461,4.4828452331312,-59.610202773719486,18.68405931419804,-4.176311910928304
1698412939941.0,0.01666666753590107,0.5175017788589,1.9227946929961441,1.8425091501429676,-1.3748708878666163,-7.4345976278096435,4.084959429255873,-60.35190667606951,19.251822204049937,-4.3679166463937324
1698412939958.0,0.01666666753590107,0.447996865478158,1.9474281989932059,1.919029787504673,-1.4443024437502026,-7.447315655085444,3.9995156268566845,-64.33884518895687,19.624806881793287,-4.8740289681366225
1698412939975.0,0.01666666753590107,0.3386776819728315,1.9474527489125728,1.968544490649551,-1.549048620251566,-7.496695479804277,3.816509129719436,-69.62014553069665,18.1881687974349,-6.083229010209578
1698412939992.0,0.01666666753590107,0.21715222010612487,2.021209474518895,1.9882605601191519,-1.662623853766173,-7.458987388178706,3.6504112434156237,-73.17758808819526,19.287542385861812,-6.871179696542936
1698412940008.0,0.01666666753590107,0.11816241517439484,2.121516937920451,2.125103125844151,-1.7503114895693956,-7.392997789442539,3.5925019291520117,-76.30360857695919,18.152884040182613,-8.868901599518592
1698412940024.0,0.01666666753590107,0.08430179275721311,2.1781676304250954,2.065501620709896,-1.7574938022889195,-7.379080323249101,3.264346079584956,-78.63302410282452,18.037293333763902,-11.964663496485715
1698412940041.0,0.01666666753590107,0.09791238495856523,2.214226201277971,1.888897537960857,-1.7154456356324255,-7.372346046558022,2.878729682435095,-81.52306838595368,18.39697280300407,-15.154451485114526
1698412940059.0,0.01666666753590107,0.10228373191058635,2.155409270650148,1.813056991817802,-1.6744447860717773,-7.457788533782958,2.587685200709477,-82.98173724547995,17.356994539599587,-16.971519153411577
1698412940075.0,0.01666666753590107,0.21391557627245783,1.9862509738624095,1.5812123756229877,-1.5081974082946776,-7.655909305682778,2.0644022081006317,-84.79804847032642,16.368008760991128,-17.309121743706967
1698412940091.0,0.01666666753590107,0.3791431094825268,1.3504068932175635,1.2894599648237228,-1.3031940372742712,-8.307282379370927,1.5524916368449106,-84.62042940096023,13.210843463385588,-15.357077584579416
1698412940108.0,0.01666666753590107,0.3012042758859694,0.8673065656542778,1.2418202617704868,-1.3409027134217322,-8.800787196570635,1.2849394506254,-85.20066080114199,15.031685664972716,-18.236782668852467
1698412940125.0,0.01666666753590107,-0.06618599809110164,-0.3085322806864977,1.3102332882612944,-1.6210244537904857,-9.987413978907465,1.0416290585384704,-94.55596407711928,28.421166749684467,-32.31485781247551
1698412940141.0,0.01666666753590107,-0.5534530899450183,-2.037773071306944,1.402211899256706,-2.023250332696736,-11.719020329615473,0.8696957988783717,-103.77042885241092,32.86785041824726,-31.500863187950074
1698412940158.0,0.01666666753590107,-0.6855626357987523,-2.645813199225068,1.5362994671851395,-2.0726307419374583,-12.31996611535847,0.7255945672620088,-104.95461289976187,34.12176045174029,-29.42883992586208
1698412940175.0,0.01666666753590107,-0.9832038123756647,-3.544934706813097,1.2693722855627536,-2.2694040447510777,-13.196990941950679,0.10579553942382335,-94.28235352915775,32.10846998632524,-23.387570048384358
1698412940192.0,0.01666666753590107,-1.2949116543583572,-3.8305326866358516,0.34621129234805703,-2.5160067426819355,-13.461100728064775,-1.0435711873158813,-76.09489165630194,24.129623997929347,-20.618430358848183
1698412940208.0,0.01666666753590107,-0.7968546537470073,-4.4041783775210375,-1.7697709539294242,-1.9526212375916538,-14.01266493552327,-3.3545743397817014,-34.51320542326289,4.682110897743019,-13.71933909426199
1698412940225.0,0.01666666753590107,-0.4604194169387221,-4.340843677207827,-2.650837749388814,-1.5872062822755426,-13.946226423975824,-4.27484560290426,2.244995454941039,-11.747787914864885,-10.543742531181174
1698412940241.0,0.01666666753590107,-0.26513416072577234,-5.001527015554904,-4.006642702257633,-1.3765164631165563,-14.617351076838373,-5.5786376060716805,32.80938741404653,-29.346665919957655,-9.331615326162044
1698412940258.0,0.01666666753590107,-0.4612996338393539,-5.497829354518652,-4.8267859501987695,-1.5581765140809118,-15.14227920630574,-6.22387495348379,61.494146531727424,-44.86073711015711,-10.367389608132383
1698412940275.0,0.01666666753590107,-0.8167259137783199,-5.627127934604883,-5.028083598569035,-1.9059344513490795,-15.297455154970287,-6.240036033885553,72.60718533022916,-44.19041892991747,-8.147648137317232
1698412940291.0,0.01666666753590107,-1.362641667021066,-6.174694596859813,-4.157648087239266,-2.4479214868407695,-15.866673677062987,-5.1862879551440475,60.34848475129533,-20.462558611799324,-2.859490072207338
1698412940308.0,0.01666666753590107,-1.6502651613220571,-6.7658227529436346,-3.4019776037305594,-2.7317841673035175,-16.472558088251947,-4.285170451433212,24.58820119125671,10.255429147257534,-0.5261880086217033
1698412940325.0,0.01666666753590107,-1.3883938017845152,-6.817610223326087,-3.285029386651516,-2.470367346600443,-16.526726316291093,-4.141069658208266,2.0105953154572487,22.700710857522242,4.393356966617914
1698412940342.0,0.01666666753590107,-0.5710260829713195,-6.290164558079838,-3.387941479593515,-1.663521167932078,-15.997008614459633,-4.256290174711868,-3.8376864998047036,24.642147732868764,7.792450979719889
1698412940358.0,0.01666666753590107,-0.07000891738012432,-6.050362699270248,-3.2357956924051043,-1.1849803303040563,-15.753249542456864,-4.119671700066328,-1.3615338578534557,18.60562995950608,9.206289892628773
1698412940375.0,0.01666666753590107,0.130334060613811,-5.969692248752713,-2.8770184946030377,-1.0021231054443867,-15.669004156062005,-3.7777494101490823,-8.638974380167515,23.666943568458098,7.986763031417581
1698412940391.0,0.01666666753590107,0.10024784216880797,-5.804826096200943,-1.7336486701905727,-1.0408793178834022,-15.498716562983393,-2.680606280186772,-21.433087511723116,30.485688756516492,4.179119972450825
1698412940408.0,0.01666666753590107,-0.24706110922284422,-5.422793110495806,-1.3530987626500426,-1.3844474022462963,-15.106966485384106,-2.398838818437606,-26.42745160643067,31.184382957662947,0.6948238851254372
1698412940425.0,0.01666666753590107,-0.3206464237850159,-5.2303077141344545,-1.550972135660052,-1.453430191449076,-14.907947303339839,-2.660255566075444,-15.303819184526242,22.253451287649593,2.4528329887426494
1698412940441.0,0.01666666753590107,-0.32282318330220877,-4.739309911319613,-2.1586919455826283,-1.4707881534852087,-14.414441901618241,-3.274218946562707,16.52218320603124,4.152788312539957,9.979848089720445
1698412940458.0,0.01666666753590107,-0.5307701334938406,-4.3312019886374475,-2.528718267151713,-1.7088615810669958,-14.010869284278154,-3.5710996601611376,40.452024170737715,-4.681058621724015,12.769322106189394
1698412940475.0,0.01666666753590107,-0.7024208316192031,-4.115628562155366,-2.489793785473704,-1.9153615473207086,-13.803321927863358,-3.4105386574573813,52.27435079378859,-4.618073178519095,13.414249911963154
1698412940492.0,0.01666666753590107,-0.7885866646826267,-3.6275416783511636,-1.9046850358098744,-2.0452467681884765,-13.325229783850908,-2.6436460112538187,55.135236999350965,3.4916546022998713,12.780586795678037
1698412940508.0,0.01666666753590107,-0.3646183250457048,-2.7573089961171147,-1.714859798568487,-1.6551418274477123,-12.460325603163241,-2.311898932261765,58.61298832470845,6.158312425981882,15.172046052416478
1698412940525.0,0.01666666753590107,-0.11691051541715859,-2.2612632622629403,-1.9043062656253575,-1.4483426590517163,-11.966969839045404,-2.3481117803608997,64.72168412212524,7.339812635875851,17.916112117509538
1698412940541.0,0.01666666753590107,0.4115351206518709,-1.29787649551332,-2.313400276735425,-0.9882071736209094,-11.002107739046215,-2.511066235806141,84.03967207621238,-1.9378651132974258,23.158821890438755
1698412940558.0,0.01666666753590107,0.5847308562621474,-0.24101474173068999,-2.521441554147005,-0.8768763580322265,-9.938032400622964,-2.4772485163823466,104.7483821679625,-15.148558739408097,25.139441853506344
1698412940575.0,0.01666666753590107,0.6383622009456157,0.22723814531266687,-2.648123814254999,-0.8872013526916503,-9.454104974585771,-2.3095053881887346,120.0298239452205,-25.654764258458172,26.312781268002617
1698412940591.0,0.01666666753590107,0.6450467932760715,1.0309387924969196,-2.5105390518605706,-0.9645639938354491,-8.61239345343709,-1.74522118069306,122.56325039140495,-27.471541643715497,26.17665901293885
1698412940608.0,0.01666666753590107,0.6679363782152533,1.7373130379170179,-1.9838824911653994,-0.9989807888306677,-7.866001670405268,-0.9030611851245164,118.78283630845127,-26.280752803437135,24.483984457353362
1698412940625.0,0.01666666753590107,0.8642077228561044,2.006979873636365,-2.022553144212812,-0.8571244865968823,-7.548022346937656,-0.6407452966898679,113.23942062712307,-21.90584759286201,25.657950541705986
1698412940641.0,0.01666666753590107,0.7689071278311311,2.728572730976343,-1.9281109195828436,-1.0305543232239782,-6.7492556490242475,-0.16654446102753281,110.12073576152774,-12.343891820904101,26.790537632519378
1698412940658.0,0.01666666753590107,0.6546645164489746,3.446168043112755,-1.9988810305938123,-1.205481266541034,-5.964408170869946,0.038609570509940384,109.39246684127512,-9.194783585198241,26.52856060426166
1698412940675.0,0.01666666753590107,0.8071423120707273,3.8261575402915478,-2.2166380847252904,-1.111807542065531,-5.5095075173526995,0.09277692176625132,109.49369024477473,-10.451363368883104,26.0145205673265
1698412940691.0,0.01666666753590107,1.0727956743650138,4.586077497938275,-2.4027251583516596,-0.9145854725711047,-4.6380186975777145,0.2687517667010426,108.47124507696967,-16.39046642298213,23.127923822180907
1698412940708.0,0.01666666753590107,1.3942881205201147,5.399010668370128,-2.3443778910621997,-0.6322196065373719,-3.7348078748494387,0.5945131223469973,106.43660685530374,-20.376139643325736,20.744187801846458
1698412940725.0,0.01666666753590107,1.5137272776320576,5.685927329576015,-2.440929509061575,-0.541538926398009,-3.3535295069038864,0.7582166608601808,101.98443683729013,-25.794552617558946,19.472620021801646
1698412940741.0,0.01666666753590107,1.6005317008599638,6.275270355808734,-2.4803861979201436,-0.48168359263315796,-2.636915022498369,1.0420791951924562,92.13211435578934,-26.555816474144596,17.553067072555848
1698412940758.0,0.01666666753590107,1.66343166301772,6.778705615392327,-2.5126187807440754,-0.4333509388796985,-2.0409090312451124,1.2274801862508058,84.27782028200322,-24.536909885684498,15.954372504855154
1698412940775.0,0.01666666753590107,1.7398127457782626,6.940367418944835,-2.6372885319858788,-0.367510539355874,-1.7878724278092384,1.3057406530171631,81.24087912039461,-28.206259970091892,16.17006475620228
1698412940791.0,0.01666666753590107,1.4256943355225027,7.205861352893709,-2.601985747936368,-0.6838444337040186,-1.3950737179398536,1.6104025220111011,82.02626891267603,-34.1534183785433,13.609755539218305
1698412940808.0,0.01666666753590107,1.3185545418828726,7.507274741485714,-2.398763853505254,-0.7770686608463525,-0.996439141523838,2.0132275358542797,78.83548457020204,-35.33045463292784,9.492071837691277
1698412940825.0,0.01666666753590107,1.2922910965964198,7.519635625886917,-2.2649223692923783,-0.7743750378482044,-0.8927402821183205,2.331955339601636,71.59993050313821,-33.69058085472114,1.56557530058042
1698412940841.0,0.01666666753590107,1.481717397648096,7.354951259642839,-1.6526070482730864,-0.5415386341370642,-0.9436158983528613,3.165137809596956,59.88752894458951,-36.975840373794746,6.5909182518770955
1698412940858.0,0.01666666753590107,1.287662706143409,6.62761430569291,-0.5443091217637062,-0.7058408691957593,-1.598878965216875,4.407577956831455,45.629310976701966,-38.73967867034259,9.131872420300546
1698412940875.0,0.01666666753590107,1.2566383300654589,6.020494215229153,-0.13418226047456264,-0.7058405769348144,-2.1562778701782226,4.911556237250566,21.525462405152954,-36.24591854776299,8.622968685621235
1698412940891.0,0.01666666753590107,0.6973131332166492,4.573243735328316,0.7935580233544111,-1.237952626556903,-3.601779460585117,5.852628880861401,-26.875274666909846,-15.429381967133171,4.617226235062014
1698412940908.0,0.01666666753590107,0.34970936359688637,3.479364794793725,1.193042494598031,-1.5843629486083983,-4.755035303717851,6.155345168745518,-65.88157318659847,4.77235434526499,1.4671448041211317
1698412940925.0,0.01666666753590107,0.1573733125783503,3.3009844961524006,1.274882573416829,-1.7935569031864405,-5.039347335383296,6.050151686868071,-99.31041777723014,21.778300640301193,-3.058216773986386
1698412940941.0,0.01666666753590107,-0.02894289362877607,3.122120797908306,0.7558262585923076,-2.000505270794779,-5.407455256110429,5.175068934254348,-125.40624833153106,34.93747969903116,-14.596759709193815
1698412940958.0,0.01666666753590107,0.2046598182797432,3.353967313799262,-0.21549217793941497,-1.7718591583803296,-5.325753124457598,3.898660174183547,-127.26915510689535,39.65905286847757,-18.930133954520677
1698412940975.0,0.01666666753590107,0.90919048165977,3.256305980992317,-0.5919140457645058,-1.0570400329589844,-5.562479813605546,3.22035291634053,-121.26958524184785,29.57895382344062,-19.56741963238684
1698412940991.0,0.01666666753590107,0.9505601645328104,4.032904101717472,-1.0299299077153206,-0.9858128258302807,-4.945973470637202,2.4052771809220315,-111.12477356951962,19.078936455778575,-19.362261240287168
1698412941008.0,0.01666666753590107,1.0743230300627649,4.466944922557473,-1.4196590008810162,-0.8318352931700647,-4.613477546039223,1.7556991739571093,-102.67072058471467,12.925180192859914,-17.826190969539027
1698412941025.0,0.01666666753590107,1.1231425905503332,4.733345449957251,-1.458076409819722,-0.7508813495360315,-4.434360749816895,1.4764762821242212,-94.98087697557494,10.413239814257032,-16.491782034035513
1698412941041.0,0.01666666753590107,1.3332058753088116,4.7504824627190825,-1.4404326165795325,-0.5021839443482459,-4.515466084620356,1.194709551027417,-89.11713225236232,6.486416784462723,-12.840254474493623
1698412941057.0,0.01666666753590107,1.408534672537446,4.478096431168914,-1.162116902719438,-0.40087957886382936,-4.852600190412998,1.2533677839621902,-90.46747431165218,2.658322004686833,-11.20294116345203
1698412941075.0,0.01666666753590107,1.3644351263090968,4.380735542613268,-1.1191092433810232,-0.4191350742615759,-5.009569452235103,1.074400333082676,-90.81097818539047,-2.7033660350460096,-9.794115609393934
1698412941091.0,0.01666666753590107,1.1327743422485888,4.130048717173934,-1.5602151803016662,-0.6177041744507848,-5.329195373865962,0.34476737715005873,-86.13491456638384,-5.292326828381129,-8.859930999817426
1698412941108.0,0.01666666753590107,1.068917225496471,3.9623441263258457,-2.2283691467903552,-0.657507923181355,-5.54033520181477,-0.5286665853433311,-81.49408789330532,-3.958684581611949,-8.501606469353863
1698412941125.0,0.01666666753590107,1.1021766671501099,3.9427673191964625,-2.4390191453956067,-0.6037880234315991,-5.596747993910312,-0.9364297862410544,-78.4968233005853,-0.12284488758558001,-6.915579768129427
1698412941141.0,0.01666666753590107,1.2253111716486513,3.94816187171638,-2.5814485713422295,-0.46297903829365966,-5.633110516145825,-1.3488307299420237,-84.65156823338633,5.343419631580586,-4.3326357311228545
1698412941158.0,0.01666666753590107,1.228520635214448,3.669655311459303,-2.696136442273855,-0.452803827368468,-5.939418691042065,-1.6915006233561782,-95.18159574471412,8.77766905522744,-3.0417272032260945
1698412941175.0,0.01666666753590107,1.2696166157126425,3.453798976382613,-2.742873643529415,-0.4077626163758337,-6.17928660082519,-1.9942185917407274,-104.44812022185958,10.7695929813714,-1.7494117630820174
1698412941191.0,0.01666666753590107,1.1013599439397455,2.7420833699345586,-3.0854724444687363,-0.5743091232299804,-6.912360052600502,-2.692726195438951,-102.04469276614799,7.592848946510021,-0.9529069051434531
1698412941208.0,0.01666666753590107,0.7548962842658161,1.7674574162900447,-3.2659447469532488,-0.9190744545534253,-7.894283177515864,-3.1280222496375907,-98.45240941369313,5.495609052893164,0.3616728172607499
1698412941225.0,0.01666666753590107,0.5664136938050389,1.2934610171586274,-3.0927175932914017,-1.1064207344606518,-8.36878343451619,-3.2070312423494642,-99.19502173120277,7.272091310255175,-2.4644050367439436
1698412941241.0,0.01666666753590107,-0.0765935564674437,0.019881927555799483,-2.6161878762900828,-1.7304092498779295,-9.634866615405679,-3.0864238269094377,-106.98511885697995,22.264526439388767,-9.133532156268858
1698412941258.0,0.01666666753590107,-0.09363339246511458,-0.8833867628395556,-2.4967589483112094,-1.7090112186707556,-10.526706149291991,-3.24997736249268,-110.51070541218962,23.59260549707897,-16.734286192969524
1698412941275.0,0.01666666753590107,-0.43311362299248574,-1.3379618376642466,-2.1187213158525524,-2.0003557793214917,-10.96155594842732,-3.167826391093805,-114.73369526279261,31.642767198146256,-17.126866683441637
1698412941291.0,0.01666666753590107,-0.0034765900693833826,-2.6351649639606474,-2.2547772612445054,-1.4908395923890172,-12.21955694514811,-3.7030798805467784,-113.20266054901006,31.94242467250764,-21.3847126969265
1698412941308.0,0.01666666753590107,0.09885331907048821,-3.1350235341012476,-2.075198692729324,-1.3226467796325683,-12.682536275702715,-3.805731861247867,-101.87338479157489,28.887680622827386,-20.021186664991223
1698412941325.0,0.01666666753590107,0.25435484642758965,-3.436495374882221,-1.8535928542152047,-1.1115084129884838,-12.945750574281812,-3.823089969414472,-82.35268365311094,21.077707646565475,-15.066639158050258
1698412941341.0,0.01666666753590107,-0.0996282489657402,-3.5170249556243416,-1.244148996978998,-1.408987969262898,-12.981213517329095,-3.454382621489465,-60.76441595099243,17.49624672885051,-11.684339726343698
1698412941358.0,0.01666666753590107,-0.7071389461822808,-3.603418459963798,-0.7959088242642581,-1.977461079815775,-13.037625724902748,-3.152264153368026,-53.11619209956017,18.44499244796384,-11.492201382349363
1698412941375.0,0.01666666753590107,-0.815581200722605,-3.621547406372428,-0.7798530308678746,-2.047042565564066,-13.028348777991532,-3.26299583401978,-44.786605652000375,14.170459428562992,-11.32479088447141
1698412941391.0,0.01666666753590107,-0.7233020724106579,-3.5972429861992596,-1.6006035970523953,-1.911620461096242,-12.977023079901933,-4.204067016325891,-24.78698018667159,3.3364812420936443,-10.41374610202926
1698412941408.0,0.01666666753590107,-0.4869604370575398,-3.9396062248170374,-2.391060731782019,-1.6540944372866302,-13.311015380537508,-5.0339577512994405,-7.96622294503606,-2.3487001381000465,-7.213145070170672
1698412941425.0,0.01666666753590107,-0.27412169623635707,-4.166766628718376,-2.603830499020219,-1.4312838260926306,-13.539661054560542,-5.245844013701379,5.344710110446895,-11.164456462573593,-5.127275733974594
1698412941441.0,0.01666666753590107,-0.8676143164291977,-4.54746164381802,-2.5362229436933994,-2.0254947506226597,-13.931860629492997,-5.13675820056051,16.456662908870598,-8.70829482382762,-0.906465780933892
1698412941458.0,0.01666666753590107,-0.7636679850686341,-5.117675022166967,-2.7312290907040238,-1.9261353086609392,-14.516195472174882,-5.278165443852544,23.843351986793895,-12.145901712338357,-1.1296714538114427
1698412941475.0,0.01666666753590107,-0.9005087241627275,-5.094120543578267,-2.9093174206614494,-2.0676923356872052,-14.5109575715214,-5.385455605748295,30.925761259835,-12.234051279992896,-1.320273005242526
1698412941491.0,0.01666666753590107,-0.3855039497513324,-5.163692092454433,-3.495701597088575,-1.5602715135987848,-14.610916075354814,-5.849482253398746,40.47400030439223,-11.949541457663306,0.2995528337288657
1698412941508.0,0.01666666753590107,-0.07703231321088969,-5.173374697557091,-3.823493289518356,-1.262941448797658,-14.646379602923988,-6.065409169493615,47.280205265134484,-11.31203379864912,3.249594405661912
1698412941525.0,0.01666666753590107,0.03390789562501013,-5.173470559147,-4.090136978024244,-1.1792941013611853,-14.684388723322748,-6.149505795067548,61.3869398825149,-13.238970182387702,7.844398837226067
1698412941541.0,0.01666666753590107,-0.023668460357189176,-5.0799043866992,-4.148128563743829,-1.2672811585023998,-14.622887668177485,-6.0336857052356,74.1453712520727,-14.988802322268793,10.26620120935229
1698412941558.0,0.01666666753590107,-0.1328062959462404,-4.704733103457093,-3.6403655040889977,-1.4086885479249058,-14.2806664683789,-5.32679781120494,80.08793635830729,-12.388843003379248,10.312618321178052
1698412941575.0,0.01666666753590107,-0.09281973799467086,-4.09467695954144,-2.9867203938156366,-1.406893042810261,-13.708901184412836,-4.404581259233504,76.96825428509312,-7.57383028476612,9.321345282971285
1698412941591.0,0.01666666753590107,0.015707710611075162,-3.792280405130982,-2.824201096650958,-1.3235447513855993,-13.429378140589595,-4.050239267399907,74.75225405039585,-4.962658783467178,8.813504496481558
1698412941608.0,0.01666666753590107,0.03885433905124664,-3.2011627704411745,-2.588010414075851,-1.3227967094972728,-12.857463803541659,-3.623472967607528,76.09233033536319,-1.7310881798078714,8.00973381136998
1698412941625.0,0.01666666753590107,0.030883067911118268,-2.7403169447839257,-2.366274957832694,-1.3543699516296386,-12.418126629859207,-3.135355031077936,83.35157149846863,1.5955169289110518,5.999634324957793
