timestamp,interval,accx,accy,accz,accGx,accGy,accGz,alpha,beta,gamma
1698414997.056,0.01666666753590107,0.24937680228669196,0.02886485995650291,0.27429508004188535,0.6760626572540029,-6.764218240356445,-6.785616417694091,-2.2903703225881378,-20.648653945925492,6.392138402688568
1698414997.172,0.01666666753590107,-0.10187661241441964,-0.003245265531539917,-0.047046413335204124,1.1296142707824706,-7.007079486736655,-6.799831990051269,-0.9007351454985455,0.5865079171421718,0.16398354384338995
1698414997.188,0.01666666753590107,-0.06650982321798801,0.07816928135156631,0.02104804872572422,1.1649285991393028,-6.925377355083823,-6.732045571026205,0.039679236931248606,-0.09871851166276613,0.9024326609507052
1698414997.205,0.01666666753590107,-0.005181202030181884,0.06856324861645698,0.13916121793091296,1.222987989398092,-6.934355026787519,-6.6151791870117185,-1.146126553460767,-1.0377441512156527,1.5157889845031394
1698414997.222,0.01666666753590107,0.014717457464709876,0.100708445417881,0.17581366302371024,1.2366050844054668,-6.90158497608602,-6.580313625335693,0.12244560166361194,-2.523126307472659,1.7137698082804809
1698414997.239,0.01666666753590107,0.0143962626863271,0.05585574273467064,0.18341186306774615,1.2262801628112792,-6.946476257213949,-6.574477758789062,-0.657932699396876,-2.78002359597859,0.7808902450831217
1698414997.255,0.01666666753590107,0.048965690959990024,-0.022205402067303655,0.21406477548480032,1.1736077262878417,-6.976703637695312,-6.60799658203125,-0.32031671552741026,-1.5076237067938005,0.6452395932372007
1698414997.272,0.01666666753590107,0.007415902279689908,-0.013866028267145156,0.14477321259379386,1.1546037506103515,-6.983436745342612,-6.658125179290771,-0.4416849882515849,-0.598504717532476,0.9710007165850516
1698414997.289,0.01666666753590107,-0.059570087082684034,-0.02235562419295311,-0.03885784618258476,1.1308112985473127,-7.02294107273519,-6.8023752447932955,0.13124558003765935,0.8300377783904476,-0.3333761439421804
1698414997.306,0.01666666753590107,-0.09145407566465437,-0.044698388904333114,0.028909283620119092,1.1266215187072752,-7.059004319763183,-6.715436381530761,-0.5812954689492471,1.2990761534836262,-1.2041811336934656
1698414997.323,0.01666666753590107,-0.09550035538077353,-0.009660977792739868,0.04308920014202595,1.1303623126707971,-7.029974040111899,-6.693589291381835,-0.6606227267128033,0.6442443599699358,-0.6552663642996324
1698414997.339,0.01666666753590107,0.010969137781858443,0.06177811852097511,0.033092122262716295,1.2285246538024395,-6.970418273815512,-6.692690881237387,-0.8097601206834433,-0.797556280183923,0.49071568797150655
1698414997.356,0.01666666753590107,0.026426088502258062,0.10027882182896136,-0.02994680997431278,1.2309188554625958,-6.930913946422934,-6.759129977306723,-0.7457495087727878,-0.08146134503364133,1.0790029761141724
1698414997.373,0.01666666753590107,0.02245506597943604,0.09931611427664756,-0.043912206962704654,1.2181995860777795,-6.929118295177817,-6.777535987091064,0.3930792010032321,-0.5315069650769979,0.9498293713138335
1698414997.39,0.01666666753590107,0.05624123492091894,0.06885317147374152,-0.0508422984868288,1.2355576211791486,-6.963834219250082,-6.782922940826416,1.3591924903503165,-1.8325493592679414,1.678324861747817
1698414997.406,0.01666666753590107,0.08662409822493791,0.1117360353887081,-0.05542202749252319,1.256357248101756,-6.9249284422725434,-6.785017867279052,1.0954411070122776,-1.130493531111077,2.6190311280429235
1698414997.424,0.01666666753590107,0.0375194371856749,0.07677461212277412,-0.06018295828402042,1.2056301734924315,-6.960991689300537,-6.788908444976807,1.1285151241293008,-0.09288323559490094,2.60174648057456
1698414997.44,0.01666666753590107,-0.008290347026661038,0.0654991848707199,-0.013604162460565566,1.1629833833556622,-6.9735618325382465,-6.740425276836753,3.744627306797396,-0.374793050367389,1.22879489430637
1698414997.456,0.01666666753590107,-0.13039192828088997,0.04077040180563926,0.02396072130203247,1.0441711990356444,-6.996306163787842,-6.704363198852539,2.9083999896367416,-1.048010779311828,0.007222071273642232
1698414997.473,0.01666666753590107,-0.12179244223982096,0.03213058375418186,0.026250878065824507,1.054645831298828,-7.005733332824707,-6.700921533966064,1.848403722435422,-0.6415888571258289,-0.48163601868703243
1698414997.49,0.01666666753590107,-0.13807882952168582,0.021834815189242362,0.04295943628251552,1.0437220670286564,-7.012317387390136,-6.687154874420165,2.04166221745364,-2.217692200620736,-1.158957597425165
1698414997.506,0.01666666753590107,-0.07452654093503952,0.059274611267447465,0.09236731805205345,1.1073181947570294,-6.973411610412597,-6.639270841217041,2.2203254519891877,-2.3349834106993685,-1.8938923554208837
1698414997.523,0.01666666753590107,-0.04873151687793433,0.06294482421278953,0.06457388671934604,1.13230767458491,-6.9702686362117525,-6.666653938183188,0.4735927238874019,-2.1782785940151776,-1.9965735774214473
1698414997.54,0.01666666753590107,0.01465199101306498,0.13251169691383838,0.14122165759205818,1.1842319230895488,-6.898143895721435,-6.594678250774741,-1.7345523663775373,-5.5962783572963355,-1.7642737211074362
1698414997.556,0.01666666753590107,-0.028390812703967094,0.0995715503424406,0.2019832925468683,1.124825867462158,-6.927322643932699,-6.540659660339355,-4.248270088268503,-9.010447024783351,-1.644385545040318
1698414997.591,0.01666666753590107,0.1091517910491675,0.014196867656707763,0.04956862528920173,1.2053308252196757,-6.982090006908774,-6.734290719604492,-11.042392444369002,-13.494998969651983,2.009302061826589
1698414997.606,0.01666666753590107,-0.023131284740567207,0.07153554242551326,-0.14443535894155501,1.049558152770996,-6.905326500701904,-6.952013433074951,-13.58847864618007,-12.018247184298112,2.6273838090676143
1698414997.623,0.01666666753590107,-0.00993555695042014,0.10336392836272716,-0.20419570789933203,1.044320763574168,-6.851606016430258,-7.0370075920104975,-13.219264232858569,-7.601087008422702,2.1812806755988094
1698414997.639,0.01666666753590107,-0.0043587797313928605,0.10783493629693984,-0.20921324380040168,1.0407294610839337,-6.827513777703047,-7.063343810272216,-9.0135675674604,-5.744460592000231,-0.24302984337626318
1698414997.656,0.01666666753590107,-0.03383563410639763,0.0704752197176218,-0.06518821922540664,1.0012252067565917,-6.855197903442383,-6.930615255737305,-10.70460800028696,-9.188505787577352,2.585980056092643
1698414997.673,0.01666666753590107,0.03252615894302725,-0.018166355809569358,-0.006677578067779541,1.0465654006958007,-6.925826852416992,-6.893355492401122,-12.704799016647575,-10.579139986554765,5.071149935130483
1698414997.69,0.01666666753590107,-0.03433583871349692,0.07044540910124779,-0.039941549766063685,0.9496001603942363,-6.809558434295654,-6.958597487640381,-10.757083489906522,-8.60711240146305,2.7440965875009113
1698414997.713,0.01666666753590107,-0.07054923480190337,0.2742418885499239,-0.016002455773949622,0.8996212007384746,-6.586897095379233,-6.955304875835776,-6.428340966610574,-6.274222870631115,0.11050213544577196
1698414997.723,0.01666666753590107,-0.012092442723363636,0.31413784560859204,-0.01317220078408718,0.9513958847045898,-6.538864009094238,-6.961440602111816,-0.6181046390469153,-4.1663581908734795,-1.2993116882882858
1698414997.74,0.01666666753590107,0.08704860724732279,0.34769758538305756,-0.15260288330614566,1.044919240923971,-6.508486991009116,-7.098508062633871,3.058223604175556,-2.175975966491237,1.5836655902057277
1698414997.756,0.01666666753590107,0.02790215240418911,0.22889409582614897,-0.07852759326994418,0.9820715934753418,-6.636128451538085,-7.01620796508789,3.3496664953995308,-1.503093903991907,2.374177810921252
1698414997.773,0.01666666753590107,-0.06321158539019525,0.07464286079108715,0.21478198384344577,0.8843582382202148,-6.794145176586508,-6.720075147247314,2.078472241324955,-1.0737420229059702,-0.06405471465556963
1698414997.79,0.01666666753590107,-0.10022212320566176,0.022368483674526214,0.259905320161581,0.8448539108276367,-6.845471459197998,-6.676231329345702,0.36494367746039263,-2.403646021765037,-0.9431269280256411
1698414997.806,0.01666666753590107,0.014184665762260556,-0.00374620079100132,0.2360772853285074,0.9572317512512206,-6.86342797164917,-6.708403414154052,-1.7249557371502577,-3.3527195899585265,-0.5739377543875567
1698414997.823,0.01666666753590107,-0.02285297925584018,-0.022103110736608506,0.09280629399120807,0.9144354696411638,-6.867767462158203,-6.866271086120605,-3.7358458179588747,-3.503763460481246,0.7546583699671587
1698414997.84,0.01666666753590107,-0.03979293507561087,0.04468552942276001,0.04541384369730949,0.8901940317016095,-6.7930982978820795,-6.922385187530518,-2.983211265059303,-3.464211115658172,0.7683522055619467
1698414997.856,0.01666666753590107,-0.04269457480125129,0.15690847154557705,0.04768704932630062,0.8800187477111816,-6.6784758934021,-6.923432650756835,-0.9913441148628173,-3.73998320504861,0.19074599925985852
1698414997.874,0.01666666753590107,0.06385353655554354,0.09642506901025771,0.0960077203810215,0.977283117089793,-6.743268975830078,-6.872106952667236,0.5538882676875132,-2.707101935078595,0.23692768300266503
1698414997.89,0.01666666753590107,0.08321611641235649,0.05889759464859962,0.11342647269368171,0.9928454278808087,-6.783222216033935,-6.852803701782226,0.234816727662308,-1.3372856190828526,0.7507664961615738
1698414997.907,0.01666666753590107,0.03431077733747661,0.060792614614963526,0.17944880465567112,0.9410708169799298,-6.784568369945883,-6.7839704040527335,1.2041976755578616,-1.1742070619642762,0.5257632028718403
1698414997.923,0.01666666753590107,0.04384579066298902,0.060815410968661304,0.20866846939921377,0.9448118301391601,-6.788159672436118,-6.751947372326255,1.8782747009968264,-1.5480228883522509,0.6359050191584676
1698414997.94,0.01666666753590107,0.06884864142909645,0.029611878931522367,0.15302724619805813,0.964713631439209,-6.8215288580745455,-6.806116769409179,0.892343671133803,-1.8880301321223087,1.5262295689797385
1698414997.957,0.01666666753590107,0.00982004081197083,0.10346095899641514,0.004471007934212685,0.9012672874450683,-6.747309191131591,-6.955605320087074,-0.678579187319061,-1.678603298678201,1.3545528709131738
1698414997.973,0.01666666753590107,0.03271554403528571,0.017909166178107262,-0.1417477272927761,0.9205705383300781,-6.833350813293457,-7.1018006744384765,0.7147768420426014,-1.0103336415810393,0.598810902106363
1698414997.99,0.01666666753590107,0.033296047336980696,0.0042693478822708126,-0.16299159085154533,0.9204209007263183,-6.849511674499511,-7.120655012512207,0.9068728175197424,0.14260941399097385,0.37710258812177894
1698414998.007,0.01666666753590107,-0.033502602759748694,0.06609422815442084,-0.10474573810994625,0.8559270935058593,-6.791601337322592,-7.058256131744384,0.8256061061970199,0.5214126925356595,0.9133288403892854
1698414998.023,0.01666666753590107,-0.03024593905135989,0.05551905812621116,0.043020811080932614,0.8574235426086932,-6.80581690967977,-6.907122736468911,2.0857589859523005,-1.6256736014788333,1.522264217279723
1698414998.04,0.01666666753590107,-0.009830123814567923,0.08574000886678695,0.04699555993080139,0.8717886064391582,-6.78022946395874,-6.899340996551513,3.640908322929813,-2.0731594213677424,1.7472588661112882
1698414998.056,0.01666666753590107,-0.023657646702229976,0.13718261133432388,-0.048428807604312896,0.852335791015625,-6.733093034252524,-6.991218485260009,3.5034881184803304,-1.5870599807798125,1.6134088228853118
1698414998.073,0.01666666753590107,0.013063114386424421,0.16953531340658665,-0.0740828888207674,0.8813654861450195,-6.705410662078857,-7.013215213012695,2.8899371345365505,-2.255946169171273,1.6097246828800305
1698414998.09,0.01666666753590107,0.04568813059404492,0.13219897770285605,-0.059355275288224214,0.9072527915954589,-6.747907741546631,-6.994211237335205,4.118380380822371,-1.5335414999296486,1.6573665330013387
1698414998.107,0.01666666753590107,-0.011115852776169777,0.14813245989382265,-0.0996107133090496,0.8444049980163574,-6.742520787811279,-7.024736723980308,4.541639946612068,-0.6513931134317062,1.1730792269775778
1698414998.123,0.01666666753590107,-0.13303805887550116,0.06556815845370292,0.039486207213997836,0.7217022359985857,-6.8308069740295405,-6.880037745666503,2.982283426549239,1.1155289068046965,0.864638075982704
1698414998.14,0.01666666753590107,-0.22138108984753488,0.04996785373985767,0.09148819712996482,0.6355108301024883,-6.848613848876953,-6.825569657897949,1.4063099100094147,1.9919478318060562,0.41017030865816095
1698414998.157,0.01666666753590107,-0.0926262612491846,0.07325052964985371,0.23476444916427133,0.764199242401123,-6.826915811809897,-6.6807210419803855,2.9004541317544894,-1.8787562293333124,0.4440944975638656
1698414998.173,0.01666666753590107,-0.025244112176075577,0.08702128084897995,0.15699088913202286,0.8264484124999493,-6.816441179546714,-6.755837950024008,3.7802305216197336,-2.9488246776828735,1.0101955436937582
1698414998.19,0.01666666753590107,-0.020315204406529664,0.14919512068927288,0.07617080101072787,0.8236054441589862,-6.760327662658691,-6.831555162048339,4.146678281440557,-2.676892648709863,1.6269379335272263
1698414998.209,0.01666666753590107,0.0025493191566318273,0.15403730002343655,-0.09964403105676174,0.8360252191405743,-6.7628709174007176,-7.001243620190024,2.288406216314936,-0.04530320402166653,2.809502692436365
1698414998.223,0.01666666753590107,-0.03065948828831315,0.15940028836131095,-0.3080874595284462,0.7966706024169922,-6.762272366985679,-7.205649171447753,2.338164571305302,3.3567146102927494,3.7342565183163776
1698414998.24,0.01666666753590107,-0.02576287535317242,0.19116379236876962,-0.36111703892648217,0.8001121211729944,-6.739378398132324,-7.249941317638754,6.369328132181664,3.1411519190964428,4.314800826539482
1698414998.256,0.01666666753590107,0.04197057137563824,0.18328735990524292,-0.25398352889716624,0.8578722362242639,-6.772596777123212,-7.118409863933921,12.165715237346918,-1.454185160501267,5.65092157820373
1698414998.274,0.01666666753590107,0.06894304171428084,0.1274742872685194,-0.1264542965710163,0.870142665863037,-6.8496613121032714,-6.971017408752441,12.603047127260957,-2.4354776915050587,6.616207881052714
1698414998.29,0.01666666753590107,0.05553177147731184,0.1261363166630268,-0.12986848892867564,0.8420107963562011,-6.872256005749106,-6.954407634735107,12.133834475622237,0.40003932385003377,7.308693440243626
1698414998.306,0.01666666753590107,0.09590228724516928,0.2318120290994644,-0.17865268584191799,0.8661024505615234,-6.7932473509639495,-6.977601463317871,13.797606231961167,2.1122330126186815,8.873214010205809
1698414998.323,0.01666666753590107,0.20729323552325365,0.3334896118104458,-0.2087456262886524,0.9662100074768066,-6.712592682537436,-6.987178854480385,16.347234740630533,3.0252884319977547,8.455099711295247
1698414998.34,0.01666666753590107,0.22658771857991813,0.3206178552776575,-0.3401063996016979,0.9787794931273907,-6.755688312420249,-7.087734739685058,19.617881069974892,6.177113375445988,8.146338448543881
1698414998.356,0.01666666753590107,0.054967050266638395,0.32378888652920723,-0.5236486110508441,0.8056488586425781,-6.8016276412963865,-7.219564884075522,24.023800462023754,10.799782417502856,12.157017845212552
1698414998.373,0.01666666753590107,0.13219766252860427,0.23839199201166628,-0.310469386228919,0.8752303443908691,-6.930764308819175,-6.960393138885498,25.70476978091913,8.310052106533563,15.5738729114775
1698414998.39,0.01666666753590107,0.11335348052270709,0.1415472362846136,-0.12219020938575267,0.8342294948302209,-7.075313649529218,-6.7227680395931,25.536031665021255,3.3831071015759133,18.117467801788806
1698414998.407,0.01666666753590107,0.06317395679354668,0.012535071924328803,0.23671675227582453,0.7439981658935546,-7.2641574745178215,-6.302137319946289,22.492565965207984,2.1554194449670256,17.092717445138867
1698414998.423,0.01666666753590107,-0.07606916726715862,-0.35694121454656125,0.4383545923858881,0.5793967286925763,-7.672517910656333,-6.059574179729819,20.1457812682833,2.8935439013051405,13.976272027817654
1698414998.44,0.01666666753590107,-0.18703779847994445,-0.38762978279888627,0.5351724601060152,0.45010983904413876,-7.737610268291831,-5.925649108886718,17.960858394309582,1.8245990190740466,9.619638427045958
1698414998.457,0.01666666753590107,-0.31682167786508797,-0.32401334293484685,0.830560012537241,0.3042131753783673,-7.708730210766196,-5.592106305584311,10.87697294663411,-0.6168387061729357,4.176103163271795
1698414998.473,0.01666666753590107,-0.31233021166473623,-0.4366290837675333,0.6755389621734619,0.3006219459533691,-7.834875295257568,-5.7323173248291015,4.907856760661581,-1.7931082184622913,2.3639389304685796
1698414998.49,0.01666666753590107,-0.3078050258578732,-0.356671165433526,0.44058629696071144,0.2977787949493155,-7.760205546459555,-5.961860824474692,1.6329756073101058,-1.5142339425281979,2.0828094114479128
1698414998.507,0.01666666753590107,-0.30246450508013367,-0.1638075834095478,0.061648354661464684,0.2991255699157715,-7.5721110785335295,-6.335656727710366,3.2724117198013976,0.7302028242830753,-0.4409132569166528
1698414998.523,0.01666666753590107,-0.2778935429252684,-0.08587035724818706,-0.07698328643739223,0.3302501549651846,-7.501183438873291,-6.4655415832519525,5.280485841681266,3.1435898697433142,-2.9489452732104064
1698414998.54,0.01666666753590107,-0.23618439896479249,0.03074234426617622,-0.09699790046215057,0.3859152339659631,-7.3932941420406095,-6.47407034214437,5.573609813214709,4.566778884739123,-4.3394642127455745
1698414998.557,0.01666666753590107,-0.1361458886977285,0.16551438732743262,-0.05869885720610618,0.5047276374816895,-7.27193804539144,-6.418256100463867,4.059833706804314,3.7400647404318272,-3.9998454359845614
1698414998.573,0.01666666753590107,-0.011481763479113578,0.2278518932968378,0.13034019809365271,0.6367079309325665,-7.216721769604087,-6.220136497607827,2.7857404643138906,1.067655684025254,-2.4347818659833633
1698414998.59,0.01666666753590107,0.002008198017254472,0.18831892433166503,0.1811959405839443,0.6524199523925781,-7.260416534423828,-6.1641714492797846,2.2955710847542794,-0.44567768738870694,-1.2528373736282266
1698414998.607,0.01666666753590107,-0.011039426539093256,0.1551332785665989,0.1900192985087633,0.6350619903564453,-7.29767629776001,-6.151003340148925,1.6134596224172637,-2.3685125958915494,-0.2583160201821633
1698414998.623,0.01666666753590107,-0.06415529598109423,0.08360533492565154,0.0649158320248127,0.573860137353465,-7.369651985168456,-6.276399652099609,0.6289302754379739,-1.8052715047136145,0.613795376650019
1698414998.64,0.01666666753590107,-0.1085758908573538,0.05759644892215728,-0.016942951494455336,0.5252279891967773,-7.395389653015136,-6.35900019389689,0.1804460739914793,-0.1222513014580236,0.66149837830874
1698414998.657,0.01666666753590107,-0.13433723184056579,0.017921441137790678,-0.056657122245430944,0.49784423464350397,-7.434743758282065,-6.3992521247863765,0.17544336063084162,0.3208404789789592,0.5487100771621444
1698414998.673,0.01666666753590107,-0.11041041280813514,0.02998129676580429,-0.07439034733474253,0.5223848016601056,-7.423969850811361,-6.415412401470541,0.9002510558411208,1.0221801778096034,0.6573831893338073
1698414998.69,0.01666666753590107,-0.11061119607724249,0.024529461100697515,-0.060059039643406864,0.5237316131591797,-7.432499778747558,-6.3973068359375,2.1878933659324398,1.1884090529611424,-0.03412922798293723
1698414998.708,0.01666666753590107,-0.1254524260520935,0.026046879926323888,0.013111995029449462,0.5096656784057617,-7.435492530822754,-6.318747093963623,1.6951749384302386,-0.7837522544279156,-0.27840323300520053
1698414998.723,0.01666666753590107,-0.13115619065165518,-0.03757832776606083,0.1118365731537342,0.5002385093688965,-7.500734526062011,-6.21848989944458,1.3617611750867702,-0.9980573370432936,-0.27315618029917627
1698414998.741,0.01666666753590107,-0.10450454976521432,-0.0455921228736639,0.15305997942388055,0.5243300905089825,-7.511058936199546,-6.174795134624839,1.7327327612939636,-1.476939188669224,-0.5455256081833317
1698414998.757,0.01666666753590107,-0.11409735769256948,0.038596564897894856,0.19931319655478,0.5113116189818829,-7.428159703716635,-6.127360014232993,0.24154923979110426,-2.0469235975486657,-1.7873203801926458
1698414998.773,0.01666666753590107,-0.1267128744419664,0.06027706630825996,0.1687690052092075,0.4970961196899414,-7.404217687115072,-6.1607303689152,-1.913098633923548,-1.1167171462768672,-1.9318669265456854
1698414998.79,0.01666666753590107,-0.1644562565766275,0.11626900264322756,0.09410977780520915,0.462230558013916,-7.343914317321777,-6.2401873519897455,-2.6115155720783823,0.3788473546091734,-2.6208349383140415
1698414998.807,0.01666666753590107,-0.14495426824912427,0.10944354053735732,0.04857552259862423,0.4873696023803204,-7.347505035290122,-6.288969210815429,-0.4406867934569846,0.06684017785689189,-3.1487146460549393
1698414998.824,0.01666666753590107,-0.05040368787385523,0.07943652480840682,0.12709259447455407,0.5853823059082031,-7.378779878997802,-6.208613817596436,0.09447595033198329,-0.9649852409169745,-3.4823198681385796
1698414998.84,0.01666666753590107,-0.029660686509311196,0.07570318349897862,0.10721125144064426,0.610820625482127,-7.382220959362387,-6.228365396770834,-0.5002568219117797,0.5799545640769561,-3.1503701131550215
1698414998.857,0.01666666753590107,0.05629888339228928,0.034975451791286465,0.16902853292822836,0.7053916641235352,-7.4214265960693355,-6.167463476562499,-1.4994679273162765,1.6951129331191794,-2.370077349541717
1698414998.873,0.01666666753590107,0.04512165581770241,-0.022327567142248154,0.25144261224269865,0.6974608711242676,-7.475296133422851,-6.088754681506753,-2.3087941175440125,0.36942945755865136,-1.8167020397330425
1698414998.89,0.01666666753590107,-0.010416180074214935,-0.03583119183778763,0.2392763736307621,0.6438906089782714,-7.483825476837158,-6.106560971832275,-3.167483152120488,-0.1497114500260384,-1.4409296843129764
1698414998.907,0.01666666753590107,-0.09689582832716405,-0.02018237180709839,0.08721709568202494,0.5594950004577637,-7.461379836273193,-6.266373932647705,-2.629006192438904,-0.11259045244429013,-1.7358185126949284
1698414998.923,0.01666666753590107,-0.1418234228774905,-0.06473404571712017,0.047082069170475006,0.5186439346313476,-7.502529592785239,-6.310068112945556,-1.7634931585513507,0.0648367179546832,-2.7603765568310483
1698414998.94,0.01666666753590107,-0.14114267407171427,-0.0639525399506092,0.06922258930802346,0.5255272644042969,-7.499536840710044,-6.289867036437988,-1.0169526284953108,0.10214179713869123,-2.814765566635271
1698414998.957,0.01666666753590107,-0.0654842795625329,-0.03445055113434791,0.16745032382607458,0.6081271486144513,-7.46960931995809,-6.191405493164062,-0.640959359144277,0.6996358067565641,-1.4754822239418957
1698414998.973,0.01666666753590107,-0.05771488767005503,0.01684533633887768,0.29128303972184655,0.6180032304625958,-7.419331085094809,-6.066158818817138,-0.3512254292754071,1.218892400670321,-0.3708374903838789
1698414998.99,0.01666666753590107,-0.09368987189270556,0.0009288052827119827,0.4058294563561678,0.5835865085326135,-7.435043033489585,-5.951686051940918,-0.5080025232348386,1.2361244343377342,-0.2050222952443752
1698414999.007,0.01666666753590107,-0.16763262159042058,-0.109570966309309,0.6595078648269176,0.5102641557555645,-7.5435302962154145,-5.700294293102622,-2.394792815940231,0.5733582021643105,-0.11724449265192657
1698414999.023,0.01666666753590107,-0.27844372415393587,-0.257106044831872,0.8207061425209045,0.3995324020385742,-7.68628515472412,-5.5446717697143555,-4.135755101410414,0.4174718609221839,-0.6137415889103052
1698414999.04,0.01666666753590107,-0.3881360518205911,-0.4109381776720285,0.8005921597748994,0.2935889055114239,-7.829038844189047,-5.577292767333984,-6.479003894779144,0.775161157112509,-2.2532420545901832
1698414999.057,0.01666666753590107,-0.38800402293875813,-0.4495674757957458,0.7997790898263454,0.30137013397216794,-7.855674922180175,-5.5912090644836425,-7.882633382426152,1.675829067936412,-3.835892294487106
1698414999.073,0.01666666753590107,-0.3600052782922983,-0.44905485009849067,0.7006634665578604,0.3411736635070294,-7.8431047789424655,-5.702988354492187,-7.405583088714843,3.028520819022463,-5.307267013416886
1698414999.091,0.01666666753590107,-0.23037578575126824,-0.3739999013751745,0.7322352473855018,0.4911105424743145,-7.754669539642333,-5.684582929229736,-6.420043994316302,3.1094203543164447,-6.888572773264373
1698414999.107,0.01666666753590107,-0.16019034276045857,-0.2980173164129257,0.8192997828543186,0.5813421636719256,-7.667730091857909,-5.607818253979087,-7.188360874993634,4.909343180579705,-7.893604373780485
1698414999.123,0.01666666753590107,-0.11745952760204673,-0.08721417307257652,1.0131249033868313,0.6477811866760254,-7.444919699859619,-5.424961686706543,-9.019247723528913,6.721903350911369,-8.754552279981532
1698414999.14,0.01666666753590107,-0.22626411264874038,0.10302081401348114,1.332871236526966,0.575206948852539,-7.231535892376304,-5.127182855224609,-11.137875927644842,5.312475886432666,-9.82919546097112
1698414999.157,0.01666666753590107,-0.2918842204853892,0.1847825668990612,1.500003580445051,0.5382464607238769,-7.127687395367026,-4.9814358291625975,-13.60826741175289,5.318465962334767,-11.762039958341763
1698414999.174,0.01666666753590107,-0.43108898529708384,0.2896738509595394,1.7021330034643412,0.4321533996582031,-6.994210652813315,-4.80710802078247,-18.17964813644531,6.212310620899534,-13.69545050763987
1698414999.19,0.01666666753590107,-0.43767267453633246,0.30267712491750715,1.8791139567017554,0.46312838363647457,-6.941987713623046,-4.668693237304687,-24.698993689783485,6.54551926512449,-13.974945263571378
1698414999.206,0.01666666753590107,-0.5165981810826807,0.24745441938936708,2.076400615864992,0.435894266686961,-6.924629751586914,-4.543596200561523,-35.368263145078444,7.009952491891493,-15.008722568983135
1698414999.223,0.01666666753590107,-0.5496767132114618,0.1759025103509426,2.1360504901856183,0.4451717981200665,-6.923880979046225,-4.555267933654785,-43.276293732159644,8.75027487401381,-15.418626126737694
1698414999.24,0.01666666753590107,-0.5371028436467051,0.016836568510532376,2.0132243209838867,0.5158008932251483,-6.96563045501709,-4.791695932117104,-51.4391859979307,8.437351464736969,-15.49930773630847
1698414999.257,0.01666666753590107,-0.5408708178780972,-0.14500468326210975,1.9835966599613426,0.5544073219299316,-7.0278796981811515,-4.915445645904541,-54.35127471660607,6.604973073641689,-16.35276377876366
1698414999.273,0.01666666753590107,-0.5490747287303209,-0.31395255216956136,1.7385317660570143,0.5871779571533203,-7.091924008068442,-5.257068295288086,-55.68738266166562,4.491401770832509,-18.5273406236921
1698414999.29,0.01666666753590107,-0.45989670823886986,-0.47973698861002917,1.4525018245577812,0.7326256349425763,-7.108982694897056,-5.675006122589111,-59.07922386764269,4.885028987794929,-19.865261983976293
1698414999.307,0.01666666753590107,-0.4596512090452015,-0.5919669449955225,1.3388959036439656,0.7767686549864709,-7.1019497275203465,-5.890334634399414,-61.428030300561694,5.846742674821172,-19.335051474181128
1698414999.324,0.01666666753590107,-0.38754868038669227,-0.7131605445593595,1.264091714811325,0.9065046035766601,-7.059602870178222,-6.099228729248047,-59.87265279257722,5.10877702038126,-20.01917346673336
1698414999.34,0.01666666753590107,-0.36912820368558164,-0.8799380836904048,1.3184949206501244,0.9677062373839318,-7.104943064117431,-6.140229432678222,-58.432145406054026,3.2557767940778315,-22.070079491454965
1698414999.357,0.01666666753590107,-0.4143300120674073,-0.9498983396232128,1.471146319273114,0.9638156596861779,-7.051521855053306,-6.081421854400634,-59.57385933714585,1.660276833917999,-23.58509399653925
1698414999.373,0.01666666753590107,-0.3516583057075739,-1.183763794121146,1.464399183100462,1.0835257426939904,-7.110030158123373,-6.216095113262534,-64.10310803994304,4.365094070719224,-24.418144848849025
1698414999.39,0.01666666753590107,-0.3220420428618789,-1.1763275066405534,1.2965011155068873,1.1617863555908203,-6.960691829571127,-6.482300994873047,-66.99147209653637,6.521756183228369,-24.319755973854992
1698414999.407,0.01666666753590107,-0.25935689249858257,-1.261549629113078,1.2709136697858572,1.2728173114500938,-6.898592224010825,-6.6060512931823725,-67.39663891810153,5.739086940670724,-23.03815464591943
1698414999.423,0.01666666753590107,-0.05485752547755837,-1.4905021771281957,0.909593217241764,1.5312415992736816,-6.936301484680175,-7.090278578948975,-61.272793761105646,1.9112903413407871,-20.60974406577122
1698414999.44,0.01666666753590107,0.06906622970253229,-1.5078203916758297,0.4003641766875982,1.6820763038635254,-6.823774006652831,-7.681047838592529,-54.58903018651963,-2.1882455475615186,-18.33036309067081
1698414999.457,0.01666666753590107,0.09838570155873894,-1.6146370908409355,0.1585357804864645,1.7287632362365721,-6.813897924804687,-7.994987531280517,-48.72259436877402,-3.035340762908721,-15.987010563804061
1698414999.473,0.01666666753590107,0.14566022456139324,-1.805228636279702,-0.1545183615386486,1.799691460418701,-6.8691142005920405,-8.388085516357421,-40.54091566769085,1.9860155990684885,-13.24909252273766
1698414999.49,0.01666666753590107,0.291238469927758,-2.124962109938264,0.0430301634311676,1.9686320228025316,-7.101051901897788,-8.239195516094565,-36.66652501194696,5.482978752457341,-9.52033259915585
1698414999.507,0.01666666753590107,0.35968218381777406,-2.4170579273477197,0.290767491415143,2.0596119781494138,-7.312789403478801,-8.034641496276855,-34.64355275338342,6.481989541220086,-4.118803852550911
1698414999.523,0.01666666753590107,0.5122448812440037,-2.8920547356933355,0.5465571929514408,2.2263081226073203,-7.6888287017270915,-7.83337891921997,-32.896673816544705,-0.2664073664298219,-0.2701462546701692
1698414999.54,0.01666666753590107,0.6186236273832619,-2.8957439456000924,0.22124738046526907,2.325068941088766,-7.622389605657756,-8.199990463909506,-30.066482481112374,-8.368678181500721,-4.028689751736349
1698414999.557,0.01666666753590107,0.7467300750754773,-2.784105233106017,-0.23752280796170233,2.438195115661621,-7.445368612670898,-8.698134631347656,-26.214071374117594,-13.28807070478363,-12.401322612766508
1698414999.574,0.01666666753590107,1.2631257923886179,-2.041051362325251,-1.8586691345661877,2.949656299182027,-6.618321284429729,-10.365995362854003,-24.23532629797717,-5.932159739920882,-20.387223332801376
1698414999.589,0.01666666753590107,1.943960084491223,-1.1963447510138154,-3.5628169849842783,3.654000500079244,-5.714509865459799,-12.097002578625082,-21.035314369934497,6.931258467369192,-16.741592787834144
1698414999.607,0.01666666753590107,2.3267029720313848,-0.9329919207468629,-4.055895101204515,4.079420353698731,-5.401468290655314,-12.607566667175293,-19.43143398110647,19.070246747607026,-5.203602671062663
1698414999.623,0.01666666753590107,2.6962112610757347,-0.5692383958369494,-4.383217422556877,4.512322087506204,-4.978592422430217,-12.952331706237793,-21.99748824095607,25.14454229726905,10.828944763937873
1698414999.64,0.01666666753590107,2.289079636079818,0.05445990446209907,-4.214710867676138,4.145260753222555,-4.318241677038372,-12.79401512145996,-14.999877474007967,23.02702826776148,13.141308722540273
1698414999.657,0.01666666753590107,1.989689131617546,0.2493690208390355,-4.040687595200539,3.8787563270568843,-4.111592146246135,-12.618789487457274,-0.673108632680704,17.783316164571563,9.544949454698223
1698414999.673,0.01666666753590107,1.2800646522298456,0.46737727325260636,-3.3636025726288556,3.1959597949706016,-3.9145194220945236,-11.925068971905112,7.184559874720523,7.755052278919484,5.0555322807064265
1698414999.69,0.01666666753590107,0.6552249268107115,0.5907584459885955,-2.951752540808916,2.5799017802916464,-3.8000466552183028,-11.506682816314697,-1.5984289373750045,4.800493870871796,2.0647638382173272
1698414999.709,0.01666666753590107,0.30472689705416556,0.6223705588266253,-3.157988814625144,2.242468983813375,-3.755155666351318,-11.716774011993408,-9.225895950641295,8.373176714842822,-0.5432972589666151
1698414999.723,0.01666666753590107,-0.2940093959458172,0.9481380519524216,-3.668587389966845,1.6771382629394531,-3.4024598342895507,-12.233472657775879,-7.041726531910393,10.70962135913775,-2.7554028984548093
1698414999.74,0.01666666753590107,-0.8538634389743208,1.3384806008413432,-4.001197296333313,1.1435304218016564,-2.9982886665344237,-12.567014876556396,-4.114984069257582,10.262610237396157,-2.161580915928612
1698414999.757,0.01666666753590107,-1.0564143022760748,1.4354156652003527,-4.057224888503551,0.967556599780172,-2.8971333541318773,-12.618938540539144,1.1324717246494422,12.211200882124619,-1.2403991722628103
1698414999.773,0.01666666753590107,-1.2356779596231877,1.703377158306539,-3.6863679613292213,0.8364742050170898,-2.6331729133605957,-12.234520121002197,0.5284601670986433,20.91460955937474,2.6748860671977606
1698414999.79,0.01666666753590107,-1.1308103486992418,1.3240505089506507,-2.648194541403651,0.9828194892331957,-3.015496698705852,-11.184662108501792,-0.7081578551283302,20.323622318797508,9.453832169849314
1698414999.807,0.01666666753590107,-1.0649537286929787,0.9516016364097595,-1.994894299045205,1.0657190139770507,-3.3928830276489257,-10.524611222839354,-1.3328264660501863,6.263791037334389,15.43619508083026
1698414999.823,0.01666666753590107,-0.8969862491250038,0.30579934859126806,-0.8562351365417241,1.1956044540405273,-4.0453029800415035,-9.392004199981688,-2.25091722895144,-12.961069421853747,17.094925303788074
1698414999.84,0.01666666753590107,-0.82829586699754,-0.48320437245965003,-0.9078671241015195,1.2096703887939453,-4.837334816741943,-9.45530090637207,-2.5761960235500116,-18.920800501019855,13.382944593676047
1698414999.857,0.01666666753590107,-0.7072036819815636,-0.6457791992038489,-1.1491682815581559,1.276259122467041,-4.998494223730265,-9.71013374557495,-3.8347405538383126,-18.80183055850928,6.947912602999798
1698414999.873,0.01666666753590107,-0.40167423637285826,-0.778020847004652,-2.045638982376456,1.5295954395018516,-5.120298940929771,-10.62382095413208,-2.0642680091722667,-14.41956069646159,-3.2355184529995737
1698414999.89,0.01666666753590107,0.1816495295703411,-0.5172095179140568,-2.884516741403937,2.090138049316406,-4.863072484588622,-11.46598138809204,9.033632955694605,-11.974125869807121,-7.924849927912354
1698414999.907,0.01666666753590107,0.6668303166694939,-0.2408615969955921,-3.1160218965113162,2.559401574707031,-4.617816159765422,-11.685201062121987,22.15473797866998,-11.468702970283578,-8.648517008211668
1698414999.923,0.01666666753590107,1.2072209498152136,0.4395321117326617,-3.0040760177642105,3.0720600051879883,-4.016123355047404,-11.538705263519287,31.9252604071234,-14.333799133695617,-2.290088363841463
1698414999.94,0.01666666753590107,1.1886892678245902,0.8396735855802893,-2.224961530303955,3.0159457576476036,-3.690811204473674,-10.728268586078286,34.37885560228874,-18.27475339799586,4.369209259694157
1698414999.957,0.01666666753590107,0.947643984825164,0.680370912374556,-1.8169570679962634,2.7234043884277344,-3.9288846320554613,-10.288782359313965,33.3049756949389,-19.965121057189172,8.877082458596975
1698414999.973,0.01666666753590107,0.0029138416200876235,0.4892983054205775,-1.249108080691099,1.7151462142944336,-4.219780133764446,-9.67900853947103,32.02508362184314,-12.937849339996642,5.459453873408524
1698414999.99,0.01666666753590107,-0.806859403476119,0.549212675896287,-0.8240601291239261,0.8794201972961425,-4.233995706121624,-9.217377116394042,34.88241129884793,-9.015791647808886,-1.4293248727480075
1698415000.007,0.01666666753590107,-0.9024158729583024,0.6730871851071715,-0.6050766019374132,0.7691371371947229,-4.188655219921469,-8.956109275707602,39.813596143732866,-11.80413270664926,-9.878036436178588
1698415000.023,0.01666666753590107,-0.373805986238271,0.7793605711758136,-0.22790040861368177,1.2767080352783202,-4.20137500076294,-8.512733640289307,47.0182196991403,-19.86620625762905,-18.097781489053535
1698415000.04,0.01666666753590107,0.5442416094854474,0.9289572584033012,0.007348609197139739,2.1719898185729978,-4.144961624145507,-8.225279803466796,45.89179514650555,-24.171201066954506,-18.931762954637726
1698415000.057,0.01666666753590107,0.9360361107483506,1.1019172855615615,-0.017116554495692254,2.532616443634033,-4.056376162719726,-8.203283075714111,39.1927558538408,-25.055058281405422,-13.691377153573605
1698415000.073,0.01666666753590107,1.1997319092340766,1.423189805355668,-0.40912908242344853,2.745700391387939,-3.834014099010825,-8.54191297302246,35.11187150401451,-21.09301751559006,-3.290589627947152
1698415000.09,0.01666666753590107,0.7098726089298725,1.8481354655921458,-0.4862549922019243,2.2125416091918946,-3.4858079795837402,-8.577077809906005,37.17722508637799,-18.04823358926697,5.627669052948068
1698415000.107,0.01666666753590107,0.3710737847954035,1.8460732723653315,-0.24450492193400858,1.8242320274353025,-3.573196340179443,-8.287529046630858,40.736532285520006,-17.83432401729322,11.05128278934742
1698415000.123,0.01666666753590107,-0.3652975394815206,1.3823171122193336,0.5622440069049597,1.0130465774536133,-4.161122485351562,-7.409006674957275,43.02226533654853,-20.931502324739473,10.679498517350702
1698415000.14,0.01666666753590107,-0.7549104589216411,1.0354816966235636,1.33230425029397,0.562786881610006,-4.5970168251037595,-6.5865984046936035,39.53604457662023,-26.217088610183445,5.696858869240297
1698415000.157,0.01666666753590107,-0.6828260504417121,1.0248346304029226,1.528038419318199,0.5729623847961426,-4.687098662567139,-6.343886211395263,37.801791244462294,-31.10638902753057,-2.512862240697422
1698415000.173,0.01666666753590107,-0.2041549374975264,1.2670523181825875,1.454268249708414,0.9792284790039062,-4.549132207378745,-6.35226591720581,40.7478089278397,-30.860191443802876,-10.11899355726559
1698415000.19,0.01666666753590107,0.4441165169134736,1.7958879764825104,1.1925918282210826,1.5851111366271973,-4.1002193960994475,-6.5601125488281244,40.97887422746123,-27.172753310925998,-11.573477218377928
1698415000.207,0.01666666753590107,0.6379485786434262,2.0533049869596955,1.1787778224021195,1.7435772859435528,-3.922001594543457,-6.518214019775391,41.00159485173528,-25.14679284460057,-9.48019755381921
1698415000.224,0.01666666753590107,0.7400589998137206,2.512843821671605,1.369628895559907,1.7866728427611291,-3.572297930034995,-6.249165608215332,42.72452373024934,-29.635746846389274,-1.87512726444992
1698415000.24,0.01666666753590107,0.3979695366360247,2.504939916679263,1.487851370358467,1.3787608810424803,-3.6644752784729,-6.071695994678139,41.75449684922954,-31.63631608447518,6.4921643886492895
1698415000.257,0.01666666753590107,0.2380195054374635,2.462686582839489,1.4183821128129959,1.1463736824035644,-3.7901708656311035,-6.081421854400634,41.163234693538215,-28.12296922825817,8.43880885635112
1698415000.273,0.01666666753590107,-0.29485885238200427,2.089820069408417,1.5160831931084393,0.5463268913269043,-4.266916271209716,-5.903802018737792,37.55820620809212,-13.288181695357643,0.823434532927779
1698415000.29,0.01666666753590107,-0.6916944896172732,1.8744173233181236,1.8453519723534584,0.13856442108154296,-4.554070832824706,-5.513696785736084,37.94591848123331,-4.599568061623415,-7.300008854713956
1698415000.307,0.01666666753590107,-0.6620653672900051,1.910782768163085,2.133236601808667,0.18121106508783996,-4.5886365347713225,-5.1617491416931145,38.05661194201713,0.07892838538819798,-12.16397012401398
1698415000.323,0.01666666753590107,-0.1924125503208488,1.8883207609862087,2.6155449022114277,0.6810006616454571,-4.699668221282959,-4.595969361877441,35.395016996057386,-2.5343547115813365,-13.730309231842677
1698415000.34,0.01666666753590107,0.3322315745733678,2.2183137628525493,2.337538692691922,1.21550618227534,-4.433762199401855,-4.8136920753479,36.20124911059111,-10.761835594021559,-11.342043088541216
1698415000.357,0.01666666753590107,0.44638972254246473,2.4935662897497415,1.800689239284396,1.3221977206908166,-4.226363311547041,-5.287744004058838,39.83097556007596,-12.798831084724787,-7.1914293374782625
1698415000.373,0.01666666753590107,0.4084556401412934,2.8751731589972973,0.7892249625861645,1.2744634712219238,-3.9574651221126316,-6.1918544059753415,55.11724286598257,-2.1716155310364185,-0.9133922330825196
1698415000.39,0.01666666753590107,0.09459507710412145,3.022738048136234,0.7297597971826791,0.9584288520812988,-3.922450507354736,-6.139630882263183,67.33837057429216,5.404785039291743,6.989500771082359
1698415000.407,0.01666666753590107,-0.35937969373986123,2.5183155310809613,1.825022301030159,0.5021837982177734,-4.5890860321044915,-4.876689506530761,63.65941895145901,14.261024321862777,12.527213244453598
1698415000.423,0.01666666753590107,-0.5353206364050507,2.052963041654229,2.4347628031253814,0.3315969299316406,-5.154716174316406,-4.158279370880127,47.15597095432112,16.232987873931023,9.825115276715684
1698415000.44,0.01666666753590107,-0.8879008061978966,0.9013274931997061,3.213550542849302,-0.0043395635742694135,-6.366780764770508,-3.3105823455810546,21.107306271333723,14.149923611049703,-0.3392084851631366
1698415000.457,0.01666666753590107,-1.0074364094216377,-0.18879297158420086,2.4262930809438226,-0.0770633659362793,-7.460331788524985,-4.087500199779868,-13.07444117056585,11.301047439369153,-13.793568736388043
1698415000.474,0.01666666753590107,-0.8479784725889563,-0.35673896997272964,1.3877812228441238,0.13123217849731444,-7.595754404449463,-5.155015449523925,-16.69902875647392,9.114814022848439,-18.03522378644539
1698415000.49,0.01666666753590107,-0.020031053702905772,0.28750936640202995,-0.5940460893571377,1.0031704956054688,-6.929567792510986,-7.154324057880044,-2.134011711117502,3.0962940113921493,-16.817399349884823
1698415000.507,0.01666666753590107,0.8625847247641533,0.6238602128624916,-1.2668529962182045,1.9168577041625976,-6.604255641937256,-7.810035453033446,14.51028609920687,-1.7347617543642804,-5.728743472946386
1698415000.523,0.01666666753590107,1.1371767419259995,0.6969160967230796,-1.2549135520994663,2.187402491760254,-6.56295624782145,-7.763498158264159,21.879602590976237,-4.690593565805353,3.5211973048942924
1698415000.54,0.01666666753590107,1.089628735744208,0.461467756947875,-0.7843728463798761,2.120065570068359,-6.836642840576172,-7.2532339294433585,19.874322229910316,-3.002208582462047,9.40947265251102
1698415000.557,0.01666666753590107,0.45376938446499404,0.04360474844872951,-0.07446458161473274,1.452232871423289,-7.293336222729087,-6.504297722625732,11.299180236404801,-1.7653756227196296,9.846174457474126
1698415000.573,0.01666666753590107,0.05329115294367075,0.022055179941654204,0.17205284918546676,1.0345943193297833,-7.331793671417236,-6.241085762134194,7.35862212307642,-2.0953327767345424,4.119021564830706
1698415000.59,0.01666666753590107,-0.4650059410113841,0.0037806875824928283,0.2749082435041666,0.5114613296508789,-7.363816118621826,-6.123170745849609,9.738413709165188,-2.7029378675624143,-3.0431638908293244
1698415000.607,0.01666666753590107,-0.4285610742546618,0.1763257041990757,0.3725876964896917,0.5539584091186524,-7.216123803710937,-5.995829145050048,12.980374951542787,-5.36004473890722,-7.2950475760555875
1698415000.623,0.01666666753590107,-0.19834544750116764,0.25829203974604603,0.5785270331859589,0.7875427085876464,-7.151929271697997,-5.768679847064614,10.177202136919732,-8.85931542901848,-8.081949401464525
1698415000.64,0.01666666753590107,0.19793562459126113,0.20289573121666907,0.955696212247014,1.1800420701842755,-7.214926702880859,-5.383212795257568,-2.4419913440957237,-12.404105914853288,-7.909066214514102
1698415000.656,0.01666666753590107,0.25169972880892455,0.18915420611202716,0.9568167407095431,1.2300210298400371,-7.220014381408691,-5.392789601898193,-10.68909237181363,-12.2768936415618,-7.406532485009475
1698415000.673,0.01666666753590107,0.1610647875074297,0.05470598817765712,0.5167658657997847,1.1332056463379412,-7.315633394733071,-5.878813123431802,-20.280699702505856,-8.291158095742016,-5.707701367660869
1698415000.69,0.01666666753590107,-0.27907062388062476,0.013803484424948692,-0.0006453121662139892,0.6905775413513183,-7.309348030853271,-6.450577822875976,-18.839890080111886,-6.53181320989439,-4.8932375945168145
1698415000.708,0.01666666753590107,-0.41616402256153523,-0.16074118157625197,-0.21592998483479023,0.5517137719970197,-7.453896787041425,-6.700023123821616,-15.142548172938486,-4.646208008370848,-2.9043767947721926
1698415000.723,0.01666666753590107,-0.36913214920833703,-0.20860475651323795,-0.2072165170252323,0.5948094018798321,-7.478886851391196,-6.717531892505288,-11.320115619984536,-4.710031430409562,-0.7286064810079963
1698415000.74,0.01666666753590107,-0.03979074311852455,-0.07816285161077975,-0.09493044653832912,0.9069534433227032,-7.326855630493164,-6.631788961029052,-8.294557822401389,-8.818427355325843,1.6413318101510876
1698415000.757,0.01666666753590107,0.17077347689941524,0.15512100360691547,-0.3019061405450105,1.09819037399292,-7.081898873138427,-6.854449715423583,-5.848141582940555,-8.3773610594831,2.581569674879519
1698415000.774,0.01666666753590107,0.22097996170073747,0.3853980782240629,-0.5032265852689742,1.1284170968871563,-6.846070009613037,-7.064691133227944,-1.6016248255763357,-7.27642677283084,5.046993690470264
1698415000.79,0.01666666753590107,0.15746069860085843,0.6927338426023721,-0.6763251441150904,1.0313022920470685,-6.545148788452148,-7.235276832470297,5.889000628329218,-5.877629644021616,8.19129389988726
1698415000.807,0.01666666753590107,-0.013685703264176844,0.9449749117463827,-0.4677425994336605,0.8396165946960449,-6.311863764190673,-7.0084268096923825,14.506111146076698,-0.7454428973120777,6.898264384809798
1698415000.823,0.01666666753590107,-0.12809892197288572,1.0929957279592752,-0.2771387790352106,0.7169136865478009,-6.195445123943686,-6.7836711288452145,20.14087548491194,3.7967945841306605,5.132642982001754
1698415000.84,0.01666666753590107,-0.030136925718933342,1.0120768556386233,0.45916064904928205,0.8135797247070818,-6.323385859680175,-5.9944829911381,19.875230645069927,5.055906660450307,4.671224003092842
1698415000.857,0.01666666753590107,0.13947386407665907,0.7914724492520093,1.0335995361387729,0.9828197084289043,-6.57627282551229,-5.383213379779458,18.888725932677474,3.6776423609466113,3.7459399837785075
1698415000.873,0.01666666753590107,0.23226583728156983,0.6754723266780376,1.1595476367533206,1.0773906740050763,-6.720523475536703,-5.224447297668457,13.725561396595872,4.23435870047648,0.9562710934748018
1698415000.89,0.01666666753590107,0.1993274442758411,0.1649047309964895,1.1866869880914688,1.0583867713928221,-7.2424594374507665,-5.182249493408203,-3.990403980117488,7.780590356226162,-1.6452255515865237
1698415000.907,0.01666666753590107,-0.11763839130029081,-0.35936756491065025,0.6607558190613985,0.7624035180907696,-7.746289249309897,-5.729025297546387,-18.414734709940685,11.92695316830443,-3.4303513066214797
1698415000.923,0.01666666753590107,-0.3285920490272343,-0.5970774198770523,0.20973229923844336,0.5831377418518066,-7.946055450329184,-6.219238087463379,-24.60260776776356,16.06263271074715,-4.826020849121073
1698415000.941,0.01666666753590107,-0.6506203556247055,-0.7923603380024433,-0.7361901224911213,0.30974991284795106,-8.087014657592773,-7.219715106201171,-20.587726950981683,14.437933905328924,-4.463253280602417
1698415000.956,0.01666666753590107,-0.5715604821089655,-0.8569616972506046,-1.0984259363144635,0.4165910888671875,-8.12128166885376,-7.611765628051757,-14.247912919977292,8.816966548617108,-4.267797599105569
1698415000.973,0.01666666753590107,-0.4404175893303007,-0.8087702055335044,-1.111302953544259,0.5669768075805157,-8.052149095916748,-7.644985176086426,-8.750371350435836,5.0804176480605445,-2.9809079972051276
1698415000.989,0.01666666753590107,0.025154607261717317,-0.47271512714922426,-0.8206190487593412,1.0392331581115721,-7.708730795288085,-7.361421916961669,2.6260361273670063,-1.8261398670621192,0.8716089777217897
1698415001.006,0.01666666753590107,0.3743685154918581,-0.28938977332115173,-0.2515197691321373,1.3775637802124023,-7.535001537322998,-6.783371853637695,6.753431931006971,-4.376585437110948,3.765698013500062
1698415001.023,0.01666666753590107,0.41759756249599156,-0.16522095733880995,0.00930792657136917,1.4073415172301231,-7.4227727499812834,-6.5113301054805515,5.496915753458752,-1.3809844223406538,4.693015721639768
1698415001.039,0.01666666753590107,0.30361418657191097,-0.07065408341586589,0.3072644527077675,1.282394191155955,-7.338527363586425,-6.203526139068603,3.5746813146334886,1.515764225067398,3.5423196649025566
1698415001.056,0.01666666753590107,0.233216196808964,0.09825462252497673,0.46940673325359816,1.2099695178709924,-7.178115267834067,-6.0321910827636716,6.127591515755634,1.5037769229089082,0.8280231393895582
1698415001.073,0.01666666753590107,0.21927279245667158,0.13737491903603077,0.5621726952344179,1.198746770654246,-7.149983398327231,-5.926695987591147,6.437032809216239,0.9718616405855905,-1.2015963339794389
1698415001.089,0.01666666753590107,0.27874256097003813,0.27049744132459164,0.7586614820182322,1.264587316308543,-7.026233100017905,-5.718700302886963,1.6081707081221468,1.9246267125820602,-0.949266094150719
1698415001.106,0.01666666753590107,0.281523058534041,0.40991701793074603,0.779195736002922,1.273116732788086,-6.884675926861166,-5.699696327209472,-4.405852370817629,4.234715577860613,1.1109602573018986
1698415001.123,0.01666666753590107,0.20542386145479977,0.47199558070302006,0.6656231328368186,1.201589958190918,-6.8110548103332516,-5.8255409674495455,-9.48167543600087,5.865652053538353,3.6164861277787863
1698415001.139,0.01666666753590107,0.04374547209367156,0.4634720825076103,0.25968320184350013,1.0393827957153319,-6.798485251617431,-6.255151112365723,-10.449794132921294,4.287126607569883,6.43335645989548
1698415001.156,0.01666666753590107,-0.09788491242974996,0.13789105186462403,-0.15287819311618803,0.8919897560119628,-7.107636540985107,-6.686855599212646,-12.021477863775527,3.958568468396059,7.465498361887841
1698415001.173,0.01666666753590107,-0.2127238822698593,-0.12813362796008587,-0.37129882572293277,0.7706336593627929,-7.355286775207519,-6.92657504043579,-11.938265669117262,4.088890612194017,7.062657219735073
1698415001.189,0.01666666753590107,-0.33316352166123686,-0.4678507359832525,-0.7454296600013971,0.6476314760070294,-7.672368273052573,-7.325957804870605,-9.886701384914396,6.3603686315379,4.964074767059486
1698415001.206,0.01666666753590107,-0.2524918290346861,-0.497712205761671,-0.9250614200085401,0.7330745477538555,-7.689726235088705,-7.518540816387533,-5.624494295644482,7.8131131557328235,3.834527964200396
1698415001.223,0.01666666753590107,-0.10900631816387175,-0.41424481800198554,-0.8382195873796939,0.8819640365600585,-7.60368461292684,-7.433696295055746,1.6797811861449108,6.622072452228816,4.127008190404567
1698415001.239,0.01666666753590107,0.2777281962957233,-0.1881675331622362,-0.532194321078062,1.2674305038452147,-7.3926955916255706,-7.1113768965572115,9.519079259443153,3.836821627101051,6.815814183130813
1698415001.256,0.01666666753590107,0.41456776634603737,0.004290975192189217,-0.07987842335700988,1.3941735542297362,-7.221809448131919,-6.636877224078774,12.935083967156434,2.3219990076437624,8.639731677391739
1698415001.273,0.01666666753590107,0.4254166387490928,0.056793900367617604,0.12972761915326117,1.3914800042968243,-7.193079028210043,-6.402993064880371,11.762156071557653,2.6155588306236184,9.618960530770835
1698415001.289,0.01666666753590107,0.20307057632692158,0.06668810239434242,0.41292262948751446,1.1505634622436016,-7.20759446029663,-6.095338151550292,6.844686673412927,3.037318743003674,9.3325023969805
1698415001.306,0.01666666753590107,-0.13971161835528909,-0.005211597168445587,0.46465983098745345,0.7977180656433105,-7.287650578308105,-6.035932022857666,1.080755773409927,5.01249312431206,7.843153181476186
1698415001.323,0.01666666753590107,-0.31837161072082815,-0.0008902268379926681,0.3492635195255279,0.6157587394714356,-7.283909053692221,-6.151153562274575,-1.4961831399340293,5.727678390322687,5.742151134287121
1698415001.339,0.01666666753590107,-0.5176238708686083,0.05715864202678203,0.23954876083135604,0.4165910158019513,-7.223605683898925,-6.26338118057251,-1.0528390827247924,3.1490501790979164,3.229394761521834
1698415001.356,0.01666666753590107,-0.43566754525899887,0.12841186037957666,0.21440496722459793,0.49784423464350397,-7.151779049572348,-6.289267901501059,-0.9144885851660124,1.5749105683502407,2.8325791268774876
1698415001.373,0.01666666753590107,-0.30768750042542814,0.10753858369886875,0.21044600046575068,0.6202477945189923,-7.170484334564208,-6.2964510910034175,-3.074979125426655,-0.2255721733424015,4.5261588959714105
1698415001.389,0.01666666753590107,-0.07929412066303193,0.2291109534472227,0.12863573226332664,0.8325836273193359,-7.04179599533081,-6.388478217315673,-4.648471789193883,-0.7349594107097545,7.0105987985417055
1698415001.406,0.01666666753590107,0.036861557798832656,0.23576631968319414,-0.1464098738849163,0.9310451705932616,-7.032517879375815,-6.668899086761474,-1.4456825354799532,-0.433888247272736,8.819009628952587
1698415001.423,0.01666666753590107,0.04126286149770021,0.18820085090994834,-0.23669103331267832,0.91533314913325,-7.083245027050376,-6.758381789287925,1.7350790379955687,-0.40563749096807905,10.229242201979705
1698415001.439,0.01666666753590107,-0.06560863659456372,0.01027472577691078,-0.22766952246725558,0.780809016418457,-7.2716387701839205,-6.741323686981201,3.98427089712964,1.7481674947143113,10.364888905122513
1698415001.455,0.01666666753590107,-0.2698134776484221,-0.16805822659134864,-0.25222645609676836,0.5626372440062463,-7.4598828757137055,-6.7565867225646965,4.698705696105212,5.16677770615254,8.99095451866578
1698415001.473,0.01666666753590107,-0.31610980326868593,-0.1894616646260023,-0.15986673682928085,0.5116108941894024,-7.490858444213867,-6.654084963989257,5.0620371821172165,6.830299306813117,7.1836770727702985
1698415001.49,0.01666666753590107,-0.2494979079157114,-0.22545944520235062,0.20129764837026595,0.577152237701416,-7.537395738983154,-6.281187470898032,5.018529730877882,4.864885906158914,5.6985378151156505
1698415001.506,0.01666666753590107,-0.11425320584140718,0.04539689256250858,0.43302667536139483,0.7103296319823712,-7.273584059032798,-6.0417673048824065,5.144933480526369,3.762087404750064,4.715978390742528
1698415001.523,0.01666666753590107,-0.04491751154772937,0.1706482430845499,0.45116555864214897,0.7763198152404278,-7.158063828930258,-6.013037469482422,6.01828927912839,3.0950622294640198,4.596144429301947
1698415001.54,0.01666666753590107,0.0161258629579097,0.5681529386878014,0.31537937010228634,0.8301893525939434,-6.778133952984214,-6.129754215893149,9.159613233614552,2.114238313470315,4.862760863553394
1698415001.556,0.01666666753590107,0.0775933080945164,0.577594136250019,0.271546658116579,0.8824129493713379,-6.787112209209799,-6.153696817016601,10.70484022671874,0.7016366252965547,5.294931691775842
1698415001.573,0.01666666753590107,0.08824811923019588,0.4096925615251064,0.3123784347206354,0.8836099771361797,-6.973111166161298,-6.093243225097656,8.31627099377286,1.0690597147865148,4.832936842542534
1698415001.59,0.01666666753590107,-0.0491026152126491,0.005446574968099594,0.36828269277215003,0.7392097625732421,-7.387758135223388,-6.026205578613281,-1.3597706018305347,2.457372076332946,3.0905289048458355
1698415001.606,0.01666666753590107,-0.405063951876387,-0.3352215501695871,0.23284254119098186,0.38441893099360164,-7.7214494070857755,-6.169557818493247,-7.107130715855142,2.918675795799614,0.07356103063933155
1698415001.624,0.01666666753590107,-0.5602322286911309,-0.3574035713613033,0.08417465924620628,0.23807335451655087,-7.729230562481284,-6.3337102698177095,-8.700471695907016,2.688295009198965,-3.906177075480653
1698415001.64,0.01666666753590107,-0.7473036371797322,-0.1879582743257284,-0.20497195296883583,0.07197568740844726,-7.539490665435791,-6.643460694122314,-6.7595073842736975,2.6111770508276435,-7.189334176950362
1698415001.657,0.01666666753590107,-0.45972661236897105,-0.06892097601294517,-0.3165080818712711,0.37888241271972656,-7.410053553661704,-6.764367877960205,-3.9413350473464703,2.6149524378913678,-7.6959463831631325
1698415001.674,0.01666666753590107,-0.23375950990542768,-0.025780922466516493,-0.27464170152246953,0.6215945329528302,-7.3617206076473,-6.726209704479575,-1.0538918923523264,0.35382295555284826,-6.89102779938417
1698415001.69,0.01666666753590107,0.23255473722554743,-0.12940087141692638,-0.11817220591604709,1.0969932000976055,-7.4672151182979345,-6.566397328186035,2.17086186235019,-3.8448829578689585,-5.026279434264907
1698415001.708,0.01666666753590107,0.41161205834560094,-0.2408405542075634,-0.05926292082965374,1.2753612968444823,-7.581538832092285,-6.504297722625732,1.1053254579583438,-4.197147402991427,-4.3262213297185665
1698415001.725,0.01666666753590107,0.37112113106846806,-0.2730512174606323,-0.03205693399608135,1.2355576211791486,-7.613561279296874,-6.477213316345215,-0.19966833406958434,-3.443544030446771,-4.553145827155777
1698415001.741,0.01666666753590107,0.14563333655446767,-0.24406653051674365,-0.04268354195058346,1.0157401273865252,-7.580490784344077,-6.491728163909912,-1.533474905585241,-1.1648823596433278,-6.075046443583903
1698415001.756,0.01666666753590107,-0.1700630636077374,0.025011107137799263,-0.16886194418966768,0.7145194848876446,-7.308000707897543,-6.619817368206381,-0.013837189526078918,2.348417539023137,-7.950586934478609
1698415001.773,0.01666666753590107,-0.2053288766477257,0.17441431761980056,-0.15411328786909578,0.7006032608032227,-7.158812601470947,-6.6018614402771,2.372366530130729,4.047935090383329,-7.659001889942533
1698415001.79,0.01666666753590107,-0.013262071024626492,0.40275837834775446,0.14900515107512474,0.9187748140197247,-6.934205973705649,-6.290764277538657,2.359051716674024,3.86890430629307,-4.746670272664804
1698415001.806,0.01666666753590107,0.18918153251037,0.6333563554823398,0.5134568873822689,1.1353004997253417,-6.706457540783286,-5.921010343170166,1.264050409811272,1.8308488556080198,-3.0060693468903965
1698415001.823,0.01666666753590107,0.34398112214319404,0.6646323682337999,0.6758879217416047,1.293467446899414,-6.673238577270507,-5.7602995567321775,-2.9909451736338726,-2.8985589677032224,-0.9257915877470314
1698415001.84,0.01666666753590107,0.3349515010565519,0.5911000990331172,0.5607821176588536,1.2792518745422363,-6.738928900799155,-5.885097318267822,-6.009584203031208,-2.7657111480162397,0.42497324958028265
1698415001.856,0.01666666753590107,0.1794021159697324,0.3983844010472297,0.16077216123640536,1.1179424646239726,-6.919093160247803,-6.300192031097412,-8.279790953415823,-1.1595345349666193,1.6093559593865556
1698415001.873,0.01666666753590107,-0.1176962589673698,0.17757833460867403,-0.10682429794967174,0.814627114868164,-7.1212535629272455,-6.589740794372558,-8.678358104695453,-1.1912514788729256,1.021860012692259
1698415001.89,0.01666666753590107,-0.22845833475738764,0.050125674650073046,-0.20087036286890506,0.7029973893981426,-7.234229953765869,-6.700173345947265,-8.385445442139456,0.10497219017814749,-0.5683801681981349
1698415001.907,0.01666666753590107,-0.2488343294404447,-0.17112112129330634,-0.3533084110021591,0.6875847162108868,-7.442226222991943,-6.866719998931885,-6.844354128577711,0.5784981329581567,-2.4555718945998244
1698415001.923,0.01666666753590107,-0.06534077943861484,-0.3208995948284864,-0.3475789274394512,0.8798691101074219,-7.577797891998291,-6.875548617553711,-5.219602389193418,-0.528196084237687,-2.999075019736892
1698415001.94,0.01666666753590107,0.03414491925127804,-0.301058583804965,-0.3350175520300865,0.9832686943054199,-7.549366747283935,-6.871957315063476,-3.9220103077503885,-1.3980613893695666,-2.6149434732680823
1698415001.957,0.01666666753590107,0.21783932558745145,-0.18602175330519674,-0.36694881381988526,1.1694178003173321,-7.427710790905356,-6.910863092041015,-2.727861654730614,-0.3932872016078002,-1.8539378832104247
1698415001.973,0.01666666753590107,0.25661723840162154,-0.07828910833895206,-0.37697687135934826,1.2101193016052245,-7.3174284614562985,-6.923432650756835,0.4555320495354486,-0.792805456729356,-1.2704832740706602
1698415001.99,0.01666666753590107,0.3520345186088234,0.06778817259073257,-0.2578396198034286,1.303642803955078,-7.174823240551352,-6.800729815673828,2.321069461586406,-0.20907980113733302,0.35506826445718553
1698415002.007,0.01666666753590107,0.32659020768553015,0.25691432165205474,-0.17473346657156943,1.275510861383006,-6.990320075115561,-6.712892542266846,2.949151672989388,0.7489890461517837,2.0416069356100452
1698415002.023,0.01666666753590107,0.3169482268542051,0.2908808886617422,0.0068026657521724695,1.2583025369506329,-6.966079367828368,-6.521655684661865,4.662186809047269,-0.3258157115003581,4.505812189320766
1698415002.039,0.01666666753590107,0.26159992218501865,0.28193770374953747,0.1481874049514532,1.1933597438536583,-6.983137470135092,-6.372616046795248,3.344721651883853,-0.8988454242542733,4.715411058154594
1698415002.057,0.01666666753590107,0.034417964038997884,0.21423779396414755,0.2737140652835369,0.9552864624023437,-7.053318090820312,-6.245873580932617,-0.5386305322162038,-0.9071026960739956,3.6761089834779432
1698415002.074,0.01666666753590107,-0.09036357701420783,0.17815408867001534,0.14280337382555008,0.8264484124999493,-7.08653763885498,-6.380547424316406,-1.2832888115473764,-0.7625132475952321,2.5046719901089305
1698415002.09,0.01666666753590107,-0.12378588107936084,0.14092121334075927,0.0698778383463621,0.7891887222290038,-7.120804650115966,-6.457312099567055,-1.303160499885588,-1.175852283780603,1.4114516550722591
1698415002.107,0.01666666753590107,-0.17436514471583067,0.13061784599125384,-0.05286708231270313,0.7381622993469238,-7.127837617492675,-6.583755874744058,-0.18442479258514394,-0.07231305369234972,0.17906240039559634
1698415002.123,0.01666666753590107,-0.21691183547899126,0.14532149412631987,-0.0729062462568283,0.6992565223693847,-7.1121256690979,-6.604405279541015,-0.9240793446994738,1.5659011219481709,-0.06605478614361976
1698415002.14,0.01666666753590107,-0.2154640478234738,0.09040040189325808,-0.04373977300524711,0.7044938385009765,-7.165096796306967,-6.5768719604492185,-1.1762520632904603,1.901636509279209,-0.3027639030928444
1698415002.156,0.01666666753590107,-0.154938194385916,0.009616554129123687,0.07686755110323429,0.7667430085998028,-7.244853639110922,-6.457161877441406,0.11452725130102509,-1.2399974717622488,-0.8043292665196369
1698415002.173,0.01666666753590107,-0.0864168121498078,-0.04344809658229351,0.04657938034534454,0.8334814529418945,-7.297526660156249,-6.488136276897787,-0.19574881934220195,-1.751270535031613,-1.0428023331828702
1698415002.19,0.01666666753590107,-0.03767879246585071,-0.06229132874011993,-0.040247254714369775,0.8810662840027361,-7.313986796569824,-6.577770370593667,-1.9463780903242005,-0.7926345952783999,-1.0250649722385818
1698415002.207,0.01666666753590107,-0.06250453309938311,-0.12405951038897037,-0.2967489039123058,0.8584709327697754,-7.372793790325522,-6.837241390991211,1.8093544637334011,0.03109022068910468,-3.1480510504883905
1698415002.223,0.01666666753590107,-0.05039769652448594,-0.1299403851211071,-0.30346739851236343,0.8758288948059082,-7.384466107940673,-6.836792478179931,5.995099506235727,-0.3776927324743239,-4.866343297773066
1698415002.24,0.01666666753590107,-0.06891798033826052,-0.15101006115674973,-0.22850188163816929,0.86670085484609,-7.416039057812094,-6.748804982647299,6.997897208006421,-0.15593107097706224,-6.386988013167556
1698415002.257,0.01666666753590107,-0.03091726244166493,-0.14196809204518795,-0.029660394248366355,0.9190740892272442,-7.419630944824219,-6.533776330566406,5.518823158334745,-0.25513083083183663,-6.3407019555964945
1698415002.273,0.01666666753590107,0.004795417582988739,-0.07677461212277412,0.08556582134366035,0.9650129066467285,-7.36097300415039,-6.40972675704956,4.79751035886497,-1.0361439659591656,-6.248837191920293
1698415002.29,0.01666666753590107,0.04135974600091576,-0.032084991046786304,0.14147884722352028,1.0102034629821777,-7.321319623675942,-6.346878963470458,3.8437286558992265,-1.9224433999251833,-6.327503041912268
1698415002.308,0.01666666753590107,0.10945917649790644,-0.03345861748754978,0.15776128898262975,1.0868178430419415,-7.327304543304443,-6.3241340476989745,3.743420924635242,-2.87871513373022,-5.885539003080491
1698415002.323,0.01666666753590107,0.16936536366716026,0.023821020570397377,0.12083061147034167,1.151311504131928,-7.274032971844076,-6.355857219696045,2.978101429786487,-2.07041133744387,-4.72944154737027
1698415002.34,0.01666666753590107,0.17974544951468704,0.025813071170449255,0.059245969694852824,1.1661257730346173,-7.276427758026123,-6.411821683502197,3.2463319231161734,-1.243229005013311,-3.4430121294651563
1698415002.357,0.01666666753590107,0.23564020908549427,0.0455441920787096,0.03987257618308067,1.2271779153686015,-7.264007836914062,-6.422146678161621,3.222055296371832,-0.4339321098938122,-2.0801102060652883
1698415002.373,0.01666666753590107,0.18739903300777078,0.04079553624689579,0.1345803198814392,1.1821370697021483,-7.273883918762206,-6.321141880145668,2.5727363192919888,-1.0998911886999525,-2.1011454811616352
1698415002.39,0.01666666753590107,0.2143777138914913,0.0005897825866937637,0.19012977314591406,1.2119149528503417,-7.316979548645019,-6.261884804534912,0.9762293331164021,-0.5926986298511421,-1.7885232405385085
1698415002.407,0.01666666753590107,0.28313853090666236,-0.09881517901718616,0.28390169729888437,1.2849381034851073,-7.416638192749023,-6.16716420135498,-0.4600748190245947,-0.9558121901399416,-0.9173731661515792
1698415002.423,0.01666666753590107,0.31228761463202537,-0.19393384160399435,0.37383974237740036,1.3138180148802696,-7.509412922558188,-6.0799254783630365,-2.4086986542035542,-2.0340286272825048,0.560928858700474
1698415002.44,0.01666666753590107,0.2386668634302914,-0.2504208679795265,0.3684977968275547,1.2355576942443847,-7.55909319152832,-6.093692137908935,-6.092157348115254,-2.378937812442516,1.4985074319642435
1698415002.457,0.01666666753590107,0.006815671364217997,-0.25947160491943355,0.20819617571234703,0.9968856431823223,-7.547870371246337,-6.2778960281372065,-12.511439776339099,-1.2508068864540287,1.970939023692743
1698415002.474,0.01666666753590107,-0.09172719351761043,-0.0385901351571083,0.029600773015618323,0.8951319995604455,-7.306653969463706,-6.47975715560913,-12.648995517354924,-0.6846660064474531,2.3907455019701755
1698415002.49,0.01666666753590107,-0.04259615592807531,0.015938742887973784,-0.004525952991843224,0.9410708169799298,-7.234827919659018,-6.533627277484536,-9.444661787114926,0.08932107849932773,2.1153070246320103
1698415002.507,0.01666666753590107,0.060263987630978226,0.10420096370875835,-0.13696458466947078,1.0462659793578089,-7.133972174724936,-6.6796729942321775,-5.804414284987311,4.424134652791638,3.4235804547198816
1698415002.523,0.01666666753590107,0.1423383866623044,0.08874971207678317,-0.12846271378397942,1.1302128942627458,-7.143100653076171,-6.677877342987061,-6.999207750553417,5.714677552124391,6.21600020371181
1698415002.54,0.01666666753590107,0.2059128870807588,0.07739712793529033,-0.08841127390265464,1.1888707618713379,-7.144446806988119,-6.649596420398354,-7.940637056405193,5.415961790094822,8.841760135304254
1698415002.557,0.01666666753590107,0.2587345228165388,0.21498364389538763,-0.042269700452685355,1.228973639678955,-6.992863914379477,-6.62071577835083,-7.887708212979471,6.489948419150443,11.244426024923394
1698415002.573,0.01666666753590107,0.03373969945125282,0.22566052073240278,0.009736381116509436,0.9932944137573242,-6.9719152343749995,-6.581510726165771,-7.599882333807842,6.066274346255491,11.724469649038461
1698415002.59,0.01666666753590107,-0.1218569588433951,0.11985913608968257,0.01982756702005863,0.8264484855651855,-7.068580541881919,-6.583007102203369,-5.377635037340942,5.3585378284215865,10.810584361675232
1698415002.607,0.01666666753590107,-0.31824411188364027,0.09608429274857044,-0.0517792870759964,0.6193500419616699,-7.088332705578208,-6.6605193809509275,-0.30613494829378946,4.040010363398822,6.946191395328955
1698415002.623,0.01666666753590107,-0.39917482077255845,0.041975685942173005,0.0136941788315773,0.5377975479125976,-7.143548981365561,-6.593930647277832,0.5702841367901288,4.193331034792683,3.7161654816391296
1698415002.64,0.01666666753590107,-0.4235385699175298,0.009284545695781707,0.05510755471587181,0.517746109008789,-7.175571428570151,-6.552630668640137,-1.9984377921780376,5.08210641233283,1.4913052109278766
1698415002.657,0.01666666753590107,-0.19715674917325376,0.07555003876388072,0.06491817011237144,0.7481879457335918,-7.105391392406821,-6.546495526885986,-0.5133188116474886,1.8065666793349782,3.3534487126524253
1698415002.673,0.01666666753590107,-0.013953195093944668,0.16241232965886593,0.12273439926505088,0.9244610429625958,-7.019798683056235,-6.488287083545327,0.8343912769343902,-0.19556787269004952,4.30185249542043
1698415002.69,0.01666666753590107,-0.030514672990143297,0.14153262323737142,0.11660860986113547,0.8970774345397948,-7.043591062054038,-6.49277562713623,1.2600003210768658,-1.689805235803845,4.358172527769063
1698415002.708,0.01666666753590107,-0.016053163047879935,0.17709785761535166,0.055870940303802484,0.8934860589843243,-7.011419561767577,-6.552331393432617,0.6550202640461004,-1.620228019719629,4.139692705466926
1698415002.723,0.01666666753590107,-0.05416187136359513,0.15884206995666025,-0.24414427192807195,0.84515311296992,-7.033565927124023,-6.849511674499511,2.9602874426574473,0.9977832757028468,3.5863479180661053
1698415002.741,0.01666666753590107,-0.07818667087778448,0.1841197190761566,-0.29366730450987816,0.8185176195006817,-7.015609414672851,-6.891410203552246,4.393541808612328,3.3066693873572426,2.5487570192199547
1698415002.757,0.01666666753590107,-0.1395280784819275,0.10547463690638542,-0.16414602158367633,0.7619546052794903,-7.104942479595541,-6.749553755187988,4.971815078936403,3.891060159300122,1.112630025110555
1698415002.773,0.01666666753590107,-0.16767901801541446,0.07342530169487,0.12088029583096503,0.7378630241394043,-7.145793545421958,-6.45431934749186,5.5640727346992565,1.797475270662868,-0.002366713908262309
1698415002.79,0.01666666753590107,-0.14110285351797938,0.027831425255537032,0.21564064649939535,0.765994820581004,-7.200411855316162,-6.349422802734375,5.4046642303207975,-0.8134713680019932,-0.8778702334782815
1698415002.807,0.01666666753590107,-0.19313560389839113,-0.030457682105898855,0.30258535498082634,0.7146691224914044,-7.265802903637289,-6.254551977428793,2.2096771870731375,-1.6712535882444441,-2.284425069802465
1698415002.824,0.01666666753590107,-0.24725612033829092,-0.24484394463002682,0.35122400594353675,0.6621463966369628,-7.477540697479248,-6.208613817596436,-2.06553031350825,-2.185947829236044,-4.154725524943301
1698415002.839,0.01666666753590107,-0.28288353323228654,-0.2842319521665573,0.3460404658257961,0.6328174263000488,-7.509563144683837,-6.2210337387084955,-3.982377654069077,-1.6883796472580164,-6.687026270575168
1698415002.857,0.01666666753590107,-0.31199308866485953,-0.21737375390231609,0.21058803928494452,0.6196493171691894,-7.429656664276123,-6.368577000537514,-4.898503670366894,-0.941291421407906,-8.995338646339283
1698415002.874,0.01666666753590107,-0.10027261128388344,0.01786006633937359,0.07166998246014118,0.8456020988464354,-7.186196282958984,-6.514473079681396,-2.677998925911994,-1.3833425451516006,-8.819698624285113
1698415002.89,0.01666666753590107,0.03324059082269668,0.13547405385077,0.06631517742872238,0.9904512992858886,-7.065139461517334,-6.521954959869384,-0.47018691409079855,-1.7879548407335166,-6.648689699424356
1698415002.907,0.01666666753590107,0.28754955228194595,0.15506488950550557,0.17824001338779924,1.2502221063476056,-7.043591646575927,-6.411372770690917,-2.6735725364430025,-2.4032944804661933,-3.6520598874103283
1698415002.923,0.01666666753590107,0.3645008361458778,-0.060489832276105875,0.34822657769322396,1.3275848205566405,-7.25278501663208,-6.248267782592773,-6.905414312210333,-1.7355239607869715,-3.205953765733762
1698415002.94,0.01666666753590107,0.29760632445923985,-0.17178572268188,0.30467326717078685,1.2641384765625,-7.3478048950195305,-6.309020649719238,-11.435006232013322,-1.130745607780133,-3.840307158011873
1698415002.957,0.01666666753590107,0.14621128257289528,-0.2919160769283771,0.11960428454577922,1.1194388406615703,-7.438185423168539,-6.525246402630209,-12.409821075641297,-1.5365833887095373,-4.806393873654218
1698415002.973,0.01666666753590107,-0.059815001754462714,-0.16323416743576527,-0.01747954258918762,0.9208697404723614,-7.288398766326904,-6.68386284713745,-10.405671110883013,-2.521478951222216,-6.193373921425674
1698415002.991,0.01666666753590107,-0.14515366327874363,-0.14434300448298454,-0.002879354828596115,0.8442552873473614,-7.250390230450034,-6.6883513907283545,-9.946813026026032,-2.829368297637347,-7.939186494980211
1698415003.007,0.01666666753590107,-0.12233166368305683,-0.11684241861701011,-0.044998833155632016,0.8849567155700176,-7.197268881115317,-6.7549401244014495,-11.436665967981634,-1.7020149459971832,-8.574955017076984
1698415003.024,0.01666666753590107,-0.05886632272750139,-0.1632446888297796,-0.09259118993580341,0.9638158058166504,-7.222407998546958,-6.8225769058227534,-13.34993514319102,-0.568515811486183,-8.10100136038063
1698415003.04,0.01666666753590107,-0.04991758485734463,-0.10591828902065753,-0.13398118494451045,0.9909002120971679,-7.130829785045981,-6.896946794891357,-15.579007506186056,-0.11604842247459421,-6.525389416979993
1698415003.057,0.01666666753590107,-0.12690547440461813,-0.10458850172162056,-0.1776280189692974,0.9238624925475567,-7.101500814709067,-6.968025241199135,-14.460046642766839,-0.5460093776756391,-6.071443091909898
1698415003.073,0.01666666753590107,-0.08922054445892572,0.06656593731939792,-0.16761398995518684,0.9699509475708007,-6.905625191387534,-6.982090591430664,-12.341890575477288,-2.5719677095669504,-7.581400695687433
1698415003.09,0.01666666753590107,0.07837474079579114,0.16396774240732193,-0.123217214345932,1.1459246965270489,-6.7824740280151365,-6.9626382874637835,-7.844918785376634,-5.785340127956404,-8.152432684830826
1698415003.107,0.01666666753590107,0.21980200396254657,0.2559972068071365,-0.1479828222900629,1.2889782457213848,-6.677278792572021,-7.0004960166931145,-5.013208159740795,-7.169511260431692,-6.9801143836154695
1698415003.124,0.01666666753590107,0.3593247486822307,0.3146346892148256,-0.3062567369699478,1.4258966531615704,-6.612635347747802,-7.165246433910727,-0.5041597414139131,-7.183884539766337,-4.854428032765979
1698415003.14,0.01666666753590107,0.3740723820894956,0.3123217360973358,-0.21554829204082487,1.4311340423583983,-6.616525925445556,-7.0744169929504395,1.3853111337364452,-6.187245107306056,-1.4227813380797236
1698415003.157,0.01666666753590107,0.3297046133790165,0.23439035515487192,-0.12015198155641556,1.3753191430907696,-6.694636170086264,-6.9805936308711765,-1.1251737742429893,-6.576053625809032,1.285015141860097
1698415003.173,0.01666666753590107,0.20804061982445418,0.1997790605008602,0.13145838846862315,1.2369043596129863,-6.725162241253257,-6.73563745803833,-3.0631383521702036,-7.333177107097184,3.5999045629081112
1698415003.19,0.01666666753590107,-0.03661123629957437,0.17919979833066463,0.21200608938932416,0.9635165306091308,-6.7366843367427585,-6.668450173950195,-3.9201866472419953,-8.695960355960223,6.152961399654
1698415003.206,0.01666666753590107,-0.1327765583951026,0.18000936114788055,0.2492974169075489,0.8429085489135235,-6.728305215454101,-6.642263593292236,-5.205895907076495,-8.638737031093855,5.28390349758721
1698415003.223,0.01666666753590107,-0.22044008267037568,0.05156827467381954,0.21649404845833778,0.7366658502440899,-6.844722686657309,-6.689698129162192,-7.016153022997396,-6.184635121269465,3.477186554090492
1698415003.24,0.01666666753590107,-0.1373346600908786,0.00014028525352478027,0.1046779335707426,0.8083422624450176,-6.879438610729575,-6.8197332068294285,-6.588122996959267,-0.20477752901216545,1.2532289355667388
1698415003.258,0.01666666753590107,-0.0825742383122444,0.0645762248069048,0.0471954664170742,0.8631096254210918,-6.805068721660971,-6.887070128521323,-4.682840447323741,2.085860158129381,2.2923916316956383
1698415003.273,0.01666666753590107,0.021499738015979528,0.22414953164756296,0.11910101119875907,0.964713631439209,-6.640766632732749,-6.820182119640708,-1.9699068113544251,0.8035014262478902,4.309993654024263
1698415003.29,0.01666666753590107,0.06493336768150329,0.14686112478375435,0.32142975618243214,0.9917980377197265,-6.7167831199645995,-6.621314328765869,-1.9119099675645543,-1.7701821549046146,7.306135534399457
1698415003.306,0.01666666753590107,0.019924743784219025,0.04232990620732307,0.3668400927484035,0.929548794555664,-6.817339589691161,-6.5821098611027,-4.614256810320351,-1.5749459999565603,7.875120174339138
1698415003.323,0.01666666753590107,-0.12254632934704422,-0.15867548121809957,0.2818669766008854,0.7691372833251953,-7.011119702038169,-6.676530020031333,-5.304381258492555,-2.4028114580258264,7.7944009987279275
1698415003.34,0.01666666753590107,-0.2341667024668306,-0.277492414778471,0.05154723188579082,0.6350619172912091,-7.119457327160239,-6.919990401348471,-5.0164917731842795,-1.4555317749848173,6.500576193498983
1698415003.357,0.01666666753590107,-0.218124060812965,-0.3101081517010927,-0.030344869381189344,0.6404489440917969,-7.14414811630249,-7.010970648956299,-5.2219635002121265,0.7597920041803639,4.985899355891792
1698415003.373,0.01666666753590107,-0.2407543372288346,-0.2661573662936687,-0.07303776368200779,0.6118681617736816,-7.090428216552734,-7.063942360687255,-3.9829159583530385,0.5257834799959388,3.7667963932959645
1698415003.39,0.01666666753590107,-0.15425423070974648,-0.11167875224351882,0.052008419656753534,0.6913257293701172,-6.931662718963623,-6.943933586993813,-3.6039945655604795,-1.7029152503071554,3.463741326709322
1698415003.407,0.01666666753590107,-0.10853446286842226,-0.09404723396301269,0.08732698579728602,0.7275380294799805,-6.909516353607177,-6.9141551193237305,-3.2649691614836107,-1.591774518854414,3.2876613977839204
1698415003.423,0.01666666753590107,-0.061660337360203266,0.038894671061635015,0.07179156301319599,0.7627028663635254,-6.772897221374511,-6.934655471038818,-1.5119840355269132,-0.6273079454275372,4.210796255387228
1698415003.44,0.01666666753590107,-0.062077539858967065,0.17189619731903075,0.1604138493180275,0.7507318580627441,-6.640168082317709,-6.847117472839355,-0.90894151106461,-1.9707680555200813,3.9203911260302724
1698415003.457,0.01666666753590107,-0.08158478888347745,0.12890987302958964,0.15176526343822477,0.7220014381408691,-6.682216248974203,-6.857741742706298,-1.4055082165555846,0.41665261174775264,3.3510856806430125
1698415003.473,0.01666666753590107,-0.1971753808084875,0.17933774549663065,0.047297757747769356,0.6048352674622088,-6.629993309783935,-6.964134078979492,-1.4577805080473383,3.649312870703514,2.258606741296405
1698415003.49,0.01666666753590107,-0.1445939105041325,0.11603811649680137,0.2026110690563917,0.6607995851378887,-6.6907461769104,-6.810905172729492,-2.581030089935088,3.49602869813303,1.014446375956739
1698415003.507,0.01666666753590107,-0.1481434196792543,0.07434943080246448,0.28418519041538237,0.6612485710144043,-6.725611154064536,-6.73548782043457,-5.2556832903708335,2.3149856840266287,0.015091463053701846
1698415003.523,0.01666666753590107,-0.10560710417963563,0.06937573404312133,0.22074819877147672,0.7085340538024902,-6.7191773216247555,-6.809408796691894,-7.027640974294534,3.7075026673374376,0.09507802083514934
1698415003.54,0.01666666753590107,-0.09497034015730023,-0.010554711762070654,0.06900982334017754,0.736067372894287,-6.778882725524902,-6.978648926544189,-9.531172109368661,10.144963644037272,-1.838639753573477
1698415003.557,0.01666666753590107,-0.14558540575951337,0.03650573009848594,0.027837270474433896,0.7106289071898907,-6.712144354248046,-7.03566143809855,-10.73397183730249,12.105194638658727,-2.7621869838479247
1698415003.573,0.01666666753590107,-0.1567253700636327,0.09618892216682433,0.016818448331952094,0.7296329559326171,-6.627449470520019,-7.066785475158691,-9.46413294889134,9.037474083329093,-1.43049560986043
1698415003.59,0.01666666753590107,-0.2080157776441425,0.13801672407090662,-0.08232114033401013,0.6946176835875958,-6.567893704223632,-7.180659691619873,-10.202257832116278,6.732246818635707,-1.541498990477831
1698415003.607,0.01666666753590107,-0.1759099630050361,0.09666413846313952,-0.03863923499584198,0.7383119369506835,-6.589740794372558,-7.153874560546875,-10.999078799747366,3.8699484714624357,-0.5205660692436953
1698415003.623,0.01666666753590107,-0.06988412195667625,-0.06700491325855255,0.18300328226685522,0.8435070993285626,-6.724713328441977,-6.95919603805542,-12.237315256642516,-5.70316868337292,-0.5051961158987567
1698415003.64,0.01666666753590107,-0.034814635206386446,-0.24630934100747107,0.3358066565811634,0.8637081758361309,-6.879438610729575,-6.831105664715171,-14.540537007040855,-10.825193282536242,-3.218041066130569
1698415003.657,0.01666666753590107,-0.0679530808288604,-0.2631394797772169,0.32768121779263015,0.8200139955382794,-6.862978474316001,-6.871209127044677,-20.382204851308707,-8.046915653664238,-6.987212230823582
1698415003.673,0.01666666753590107,-0.05090381941571832,-0.10146949291825294,0.15364742392301559,0.840813695526123,-6.636577364349365,-7.103596910205483,-29.1761707378958,-3.6758310801560885,-7.776323195542196
1698415003.69,0.01666666753590107,0.09363025065995752,-0.12039748075008391,0.18634850104153156,0.9892541253905742,-6.593032237133383,-7.126191603851318,-34.700943417884446,-2.2574686610259516,-4.177561835546416
1698415003.708,0.01666666753590107,0.17261267502531408,-0.32321780864298344,0.09595043723583221,1.0779892244201152,-6.724862966045737,-7.27762544337809,-38.184944366332495,7.4467332709168765,-3.3094426576036793
1698415003.723,0.01666666753590107,0.08448650167435408,-0.1339659873753786,-0.10299100339710712,1.0298059890747069,-6.437858626556396,-7.555352251434326,-35.3163195564405,13.51115065949177,-5.519046847030062
1698415003.74,0.01666666753590107,-0.3335249023195356,0.11290800177752972,-0.22669337091147898,0.6435912607055158,-6.124667121887207,-7.730577885437011,-30.982520131837806,9.153179195416401,-5.029453337794848
1698415003.757,0.01666666753590107,-0.2763259282823652,0.05537468121945858,-0.17005670693218708,0.7203553514342754,-6.124217624554038,-7.719205427551269,-26.33621393949764,0.948491614731863,-6.889876912509023
1698415003.773,0.01666666753590107,0.10917451433762908,-0.14273381572067737,-0.19428221665024756,1.1104605844359845,-6.262034442138671,-7.791779665374755,-16.16359827460557,-13.779092150442201,-10.551259154362773
1698415003.79,0.01666666753590107,0.16844488782137632,0.05786357542574405,-0.05615501794219017,1.13889172915034,-6.035632747650146,-7.678354361724853,-7.26854814962323,-32.46061746445817,-8.571558705512196
1698415003.807,0.01666666753590107,0.19008366898186504,0.04654664711952209,0.044698388904333114,1.097292475305125,-6.037577451977134,-7.592761067852377,-1.035380478876005,-41.49128526427934,-7.595619441992107
1698415003.823,0.01666666753590107,0.18278963951617477,0.0915413886219263,-0.04266016107499599,0.9994295555114745,-5.989394143566489,-7.69286920928955,-0.5748574820479813,-36.19395788365212,-6.7202291007910695
1698415003.84,0.01666666753590107,0.3548199115436524,0.09981880310177803,0.05851122567951679,1.1266215187072752,-5.9777229949951165,-7.5990464317321775,-1.2457407003588774,-27.181265434179124,-13.570616847726841
1698415003.857,0.01666666753590107,0.2678999721772969,-0.24468904632925986,-0.12162789932787417,1.0060136100769042,-6.313360140228271,-7.789535101318359,-4.794236563818418,-25.652875711152664,-11.053774954620827
1698415003.874,0.01666666753590107,-0.4584213749893009,0.1872837360650301,0.1821504648298025,0.24839834917597473,-5.867290443420409,-7.499836700439452,-2.2309282534585746,-16.71720218230803,-12.769728502445009
1698415003.89,0.01666666753590107,-0.4259027417656034,0.08127426162958144,0.09178922590315342,0.2738368148803711,-5.971438215637207,-7.5923127395629875,3.0804300432711487,-11.68831831153523,-14.01948748846997
1698415003.907,0.01666666753590107,-0.3438343340836465,0.15840134045183657,0.09396247828900814,0.3573345977783203,-5.904101293945312,-7.5822870201110835,9.445581301331938,-9.772800296541616,-13.983967089691319
1698415003.923,0.01666666753590107,-0.33614896721281107,0.5185340445160865,0.29065117155909537,0.3645171296935528,-5.577143129730224,-7.359326990509032,16.600272758811997,-7.384736497594317,-8.933272717351377
1698415003.94,0.01666666753590107,-0.5245199870578945,0.43693361967206,0.45063890441954135,0.17687164764404295,-5.690418795776367,-7.173925999450683,15.156333202230865,-1.2644974670367903,-3.2735284557306947
1698415003.957,0.01666666753590107,-0.41592729119621213,0.335275910705328,0.359850964513421,0.29209252947382625,-5.814467784771323,-7.24605132446289,6.938054078706531,4.235170212327242,-1.2499166139843998
1698415003.973,0.01666666753590107,-0.05286386744230985,0.2190367186784744,0.19487667541205883,0.6690296533446759,-5.931034893578291,-7.409455003246665,-6.992039893906312,5.218574445723331,-0.284172448337187
1698415003.99,0.01666666753590107,-0.1868273705996573,0.1494903042435646,-0.2936597057253122,0.5503670335631817,-5.9768251693725585,-7.915679601287842,-16.183260681678743,10.825005452334068,0.8132852987079632
1698415004.007,0.01666666753590107,-0.3264130244877189,0.1595423271805048,-0.4134101207435131,0.43275187700800594,-5.933280626678466,-8.060079888916015,-16.35909024148238,12.057300498424953,1.086993443669441
1698415004.023,0.01666666753590107,-0.3506140573516488,0.19231062431633472,-0.12362579514682293,0.42931021212153136,-5.866840946087241,-7.794921470531821,-8.42849783202534,3.7746651981066424,0.41356165766363095
1698415004.04,0.01666666753590107,-0.18234518368430436,-0.03625321664214134,-0.1127998652279377,0.600794979095459,-6.086957861217856,-7.790432926940918,0.21414147824041493,-2.042503824825433,-3.135693530732545
1698415004.057,0.01666666753590107,-0.09297558614350855,-0.09895487974882125,-0.1548842722415924,0.690128628540039,-6.156539346966147,-7.82709413986206,6.79522457787781,-4.890327080156743,-5.783961283517708
1698415004.074,0.01666666753590107,0.08095094795934855,-0.13874503834545612,-0.32786592670977116,0.8658031753540039,-6.215197872161865,-7.9849618118286125,7.3519251225952225,-3.2950027839246263,-7.898108029764462
1698415004.09,0.01666666753590107,0.18130875330865381,-0.16079145045876503,-0.5539291830241679,0.9753378282409161,-6.246172856140136,-8.20298380050659,4.566071533273203,-0.22226956343528878,-9.972978626962705
1698415004.107,0.01666666753590107,0.1697855618406087,-0.12146306415498256,-0.5428220980763435,0.9829693460326642,-6.212354173168539,-8.185475616344808,3.6382658934946646,4.159568129064841,-10.114430990900022
1698415004.123,0.01666666753590107,0.08784377621300518,0.0339022696018219,-0.523928597036004,0.9413700921874493,-6.064362583050132,-8.156296283611654,4.6045003119778105,11.897718251109481,-10.8324119387153
1698415004.14,0.01666666753590107,0.19835611502565442,0.30192075359225273,-0.31937633078396316,1.096843635559082,-5.804292427715659,-7.940220168304443,6.23477980883476,15.622341641375202,-10.799727775989497
1698415004.157,0.01666666753590107,0.24069968443214892,0.3545142796605825,-0.18710721045434475,1.1900678627014158,-5.763591584014892,-7.792228578186035,8.386880635638805,20.779341077957223,-8.15149097249901
1698415004.173,0.01666666753590107,0.10967442668378352,0.5096493117928504,0.39238311480581756,1.1276689819335937,-5.631611217498779,-7.185148819732666,11.356042415018804,18.08071626141226,-3.404512060661087
1698415004.19,0.01666666753590107,0.23691680489256978,0.6170604697197676,0.7708768204689025,1.2729670951843262,-5.548711985015869,-6.7842696792602535,13.463895995719037,-2.0979408417804297,0.4690100938411465
1698415004.244,0.01666666753590107,0.11045819747261702,0.18024726155698298,0.043970074629783626,1.1752537399291991,-6.010193770489097,-7.486968451038003,-7.368344043586287,6.94755914071025,-5.453830493287488
1698415004.258,0.01666666753590107,0.07999284351691603,0.11744681425094604,-0.1383136611908674,1.1709141763549298,-6.0531403472900385,-7.681796026611328,-10.838681198599726,10.04498675006121,-7.936970098594542
1698415004.275,0.01666666753590107,-0.030787717777863145,0.06991641679108142,-0.34886253750920293,1.0990881265502424,-6.074388302502036,-7.908047498974204,-12.594605013446822,14.258812194345339,-7.3522922452631105
1698415004.29,0.01666666753590107,-0.5288068705968558,0.4837275195509195,-0.028508301603794098,0.6200982299804687,-5.641935627636313,-7.599944841876626,-5.5333441405101915,3.139979474436728,7.109384251394424
