ts,interval,accx,accy,accz,accGx,accGy,accGz,alpha,beta,gamma
1698921023015.0,16,0.0,0.0,0.0,-0.5,9.200000000000001,2.3000000000000003,0.30000000000000004,-0.1,-0.2
1698921023034.0,16,0.0,0.0,0.0,-0.5,9.3,2.3000000000000003,0.2,-0.2,-0.1
1698921023048.0,16,0.0,0.0,0.0,-0.5,9.200000000000001,2.4000000000000004,0.1,-0.2,-0.1
1698921023065.0,16,0.0,0.0,0.0,-0.5,9.3,2.3000000000000003,0.1,-0.30000000000000004,0.0
1698921023083.0,16,0.0,0.0,0.0,-0.5,9.3,2.4000000000000004,-0.1,-0.1,-0.1
1698921023099.0,16,0.0,0.0,0.0,-0.5,9.3,2.3000000000000003,-0.2,0.2,-0.1
1698921023115.0,16,0.0,0.0,0.0,-0.5,9.3,2.4000000000000004,-0.1,0.2,-0.30000000000000004
1698921023132.0,16,0.0,0.0,0.0,-0.5,9.3,2.3000000000000003,0.2,0.30000000000000004,-0.2
1698921023148.0,16,0.0,0.0,0.0,-0.5,9.200000000000001,2.3000000000000003,0.2,0.2,-0.1
1698921023165.0,16,0.0,0.0,0.0,-0.5,9.200000000000001,2.4000000000000004,0.1,0.0,0.0
1698921023182.0,16,0.0,0.0,0.0,-0.5,9.200000000000001,2.3000000000000003,0.1,-0.2,-0.1
1698921023199.0,16,0.0,0.0,0.0,-0.5,9.3,2.3000000000000003,0.4,-0.2,-0.1
1698921023215.0,16,0.0,0.0,0.0,-0.5,9.3,2.3000000000000003,0.30000000000000004,-0.1,-0.1
1698921023232.0,16,0.0,0.0,0.0,-0.5,9.3,2.4000000000000004,0.4,-0.2,0.1
1698921023248.0,16,0.0,0.0,0.0,-0.5,9.3,2.3000000000000003,0.6000000000000001,-0.2,-0.1
1698921023265.0,16,0.0,0.0,0.0,-0.5,9.3,2.4000000000000004,0.6000000000000001,-0.2,0.1
1698921023282.0,16,0.0,0.0,0.0,-0.5,9.3,2.4000000000000004,0.5,-0.30000000000000004,0.0
1698921023298.0,16,0.0,0.0,0.0,-0.5,9.3,2.4000000000000004,0.30000000000000004,-0.2,-0.1
1698921023315.0,16,0.0,0.0,0.1,-0.5,9.200000000000001,2.4000000000000004,0.4,-0.2,0.0
1698921023332.0,16,0.0,0.0,0.0,-0.5,9.3,2.4000000000000004,0.4,-0.2,0.0
1698921023348.0,16,0.0,0.0,0.0,-0.5,9.3,2.3000000000000003,0.4,0.0,0.1
1698921023366.0,16,0.0,0.0,0.0,-0.5,9.3,2.4000000000000004,0.5,0.1,0.0
1698921023382.0,16,0.0,0.0,0.0,-0.5,9.200000000000001,2.3000000000000003,0.6000000000000001,0.2,0.1
1698921023400.0,16,0.0,0.0,0.0,-0.5,9.3,2.4000000000000004,0.6000000000000001,0.0,0.2
1698921023416.0,16,0.0,0.0,0.0,-0.5,9.3,2.3000000000000003,0.6000000000000001,0.0,0.1
1698921023432.0,16,0.0,0.0,0.0,-0.5,9.3,2.3000000000000003,0.6000000000000001,0.2,-0.1
1698921023449.0,16,0.0,0.0,0.0,-0.5,9.3,2.3000000000000003,0.7,0.2,-0.1
1698921023465.0,16,0.0,0.0,0.0,-0.5,9.3,2.3000000000000003,0.7,0.2,0.1
1698921023484.0,16,0.0,0.0,0.0,-0.5,9.3,2.3000000000000003,0.7,0.1,0.0
1698921023499.0,16,0.0,0.0,0.0,-0.5,9.3,2.3000000000000003,0.8,0.0,0.0
1698921023515.0,16,0.0,0.0,0.0,-0.5,9.3,2.3000000000000003,0.7,0.1,0.0
1698921023532.0,16,0.0,0.0,0.0,-0.5,9.3,2.3000000000000003,0.7,0.1,-0.2
1698921023548.0,16,0.0,0.0,0.0,-0.5,9.200000000000001,2.4000000000000004,0.7,0.1,0.1
1698921023566.0,16,0.0,0.0,0.0,-0.5,9.3,2.3000000000000003,0.7,-0.1,0.0
1698921023582.0,16,0.0,0.0,0.0,-0.5,9.200000000000001,2.4000000000000004,0.7,0.0,0.1
1698921023599.0,16,0.0,0.0,0.0,-0.5,9.200000000000001,2.3000000000000003,0.9,-0.1,-0.1
1698921023615.0,16,0.0,0.0,0.0,-0.5,9.3,2.3000000000000003,0.8,0.0,-0.1
1698921023632.0,16,0.0,0.0,0.0,-0.5,9.3,2.3000000000000003,0.8,-0.30000000000000004,-0.1
1698921023648.0,16,0.0,0.0,0.0,-0.5,9.3,2.3000000000000003,0.6000000000000001,-0.30000000000000004,0.1
1698921023665.0,16,0.0,0.0,0.0,-0.5,9.3,2.3000000000000003,0.5,-0.30000000000000004,0.1
1698921023682.0,16,0.0,0.0,0.0,-0.5,9.3,2.3000000000000003,0.5,-0.5,0.1
1698921023699.0,16,0.0,0.0,0.0,-0.5,9.3,2.3000000000000003,0.6000000000000001,-0.6000000000000001,0.2
1698921023716.0,16,0.0,0.0,0.0,-0.5,9.3,2.3000000000000003,0.5,-0.30000000000000004,0.2
1698921023732.0,16,0.0,0.0,0.0,-0.5,9.3,2.3000000000000003,0.4,-0.30000000000000004,0.2
1698921023749.0,16,0.0,0.0,0.0,-0.5,9.3,2.3000000000000003,0.6000000000000001,-0.30000000000000004,0.1
1698921023765.0,16,0.0,0.0,0.0,-0.5,9.3,2.3000000000000003,0.6000000000000001,-0.30000000000000004,0.2
1698921023782.0,16,0.0,0.0,0.0,-0.5,9.3,2.3000000000000003,0.6000000000000001,-0.30000000000000004,0.2
1698921023799.0,16,0.0,0.0,0.0,-0.5,9.3,2.3000000000000003,0.2,-0.5,0.2
1698921023815.0,16,0.0,0.0,0.0,-0.5,9.3,2.3000000000000003,0.4,-0.5,0.1
1698921023832.0,16,0.0,0.0,0.0,-0.5,9.3,2.3000000000000003,0.4,-0.5,0.0
1698921023849.0,16,0.0,0.0,0.0,-0.5,9.3,2.3000000000000003,0.6000000000000001,-0.5,0.1
1698921023866.0,16,0.0,0.0,0.0,-0.5,9.3,2.3000000000000003,0.6000000000000001,-0.5,0.0
1698921023882.0,16,0.0,0.0,0.0,-0.5,9.3,2.3000000000000003,0.30000000000000004,-0.30000000000000004,0.0
1698921023899.0,16,0.0,0.0,0.0,-0.5,9.3,2.3000000000000003,0.1,-0.2,-0.1
1698921023915.0,16,0.0,0.0,0.0,-0.5,9.3,2.3000000000000003,0.1,-0.1,0.1
1698921023932.0,16,0.0,0.0,0.0,-0.5,9.3,2.3000000000000003,0.30000000000000004,-0.30000000000000004,0.30000000000000004
1698921023948.0,16,0.0,0.0,0.0,-0.5,9.3,2.3000000000000003,0.2,-0.30000000000000004,0.4
1698921023965.0,16,0.0,0.0,0.0,-0.5,9.3,2.3000000000000003,0.1,-0.30000000000000004,0.4
1698921023982.0,16,0.0,0.0,0.0,-0.5,9.3,2.3000000000000003,0.0,-0.4,0.30000000000000004
1698921023999.0,16,0.0,0.0,0.0,-0.5,9.200000000000001,2.3000000000000003,0.0,-0.4,0.4
1698921024015.0,16,0.0,0.0,0.0,-0.5,9.3,2.3000000000000003,0.1,-0.30000000000000004,0.5
1698921024032.0,16,0.0,0.0,0.0,-0.5,9.3,2.3000000000000003,0.1,-0.2,0.4
1698921024049.0,16,0.0,0.0,0.0,-0.5,9.3,2.3000000000000003,-0.2,-0.4,0.30000000000000004
1698921024065.0,16,0.0,0.0,0.0,-0.5,9.3,2.3000000000000003,-0.5,-0.6000000000000001,0.4
1698921024082.0,16,0.0,0.0,0.0,-0.5,9.3,2.3000000000000003,-0.6000000000000001,-0.8,0.5
1698921024099.0,16,0.0,0.0,0.0,-0.5,9.3,2.3000000000000003,-0.6000000000000001,-0.8,0.4
1698921024115.0,16,0.1,0.0,0.0,-0.4,9.3,2.3000000000000003,-0.5,-0.2,0.0
1698921024132.0,16,0.1,0.0,0.0,-0.4,9.3,2.3000000000000003,-0.5,0.0,-0.2
1698921024149.0,16,0.0,0.0,0.0,-0.5,9.3,2.3000000000000003,-0.6000000000000001,0.4,-0.1
1698921024165.0,16,0.0,0.0,0.0,-0.5,9.3,2.3000000000000003,-0.9,0.5,0.2
1698921024182.0,16,-0.1,0.0,0.0,-0.5,9.3,2.3000000000000003,-1.0,0.6000000000000001,0.30000000000000004
1698921024199.0,16,-0.1,-0.1,0.0,-0.6000000000000001,9.200000000000001,2.3000000000000003,-1.3,0.2,0.4
1698921024216.0,16,0.0,0.0,0.0,-0.5,9.200000000000001,2.3000000000000003,-1.5000000000000002,-0.4,0.30000000000000004
1698921024234.0,16,0.0,0.0,0.0,-0.5,9.200000000000001,2.3000000000000003,-1.4,-0.5,0.2
1698921024250.0,16,0.0,-0.1,0.0,-0.5,9.200000000000001,2.3000000000000003,-0.6000000000000001,-0.6000000000000001,0.0
1698921024265.0,16,0.0,-0.1,0.0,-0.5,9.200000000000001,2.3000000000000003,0.2,-0.5,0.1
1698921024282.0,16,0.0,-0.1,0.0,-0.5,9.200000000000001,2.3000000000000003,0.6000000000000001,-0.4,0.0
1698921024298.0,16,0.0,0.0,0.1,-0.5,9.200000000000001,2.4000000000000004,0.9,-0.30000000000000004,0.0
1698921024316.0,16,0.0,0.0,0.0,-0.5,9.3,2.3000000000000003,1.0,-0.2,0.2
1698921024332.0,16,0.0,0.0,0.0,-0.5,9.3,2.4000000000000004,0.8,0.0,0.30000000000000004
1698921024348.0,16,0.0,0.0,0.0,-0.5,9.3,2.3000000000000003,0.5,0.1,0.6000000000000001
1698921024366.0,16,0.0,0.1,0.0,-0.5,9.4,2.3000000000000003,0.2,0.0,0.7
1698921024382.0,16,0.0,0.1,0.0,-0.5,9.4,2.3000000000000003,0.2,0.0,0.8
1698921024399.0,16,0.0,0.0,0.0,-0.5,9.3,2.3000000000000003,0.2,-0.4,0.8
1698921024415.0,16,-0.1,0.0,0.0,-0.6000000000000001,9.200000000000001,2.3000000000000003,0.2,-0.2,1.0
1698921024433.0,16,-0.1,0.0,0.0,-0.5,9.3,2.3000000000000003,0.0,-0.1,1.2000000000000002
1698921024449.0,16,0.0,0.0,-0.1,-0.4,9.3,2.2,-0.7,0.0,1.0999999999999999
1698921024466.0,16,0.0,0.0,0.0,-0.4,9.3,2.3000000000000003,-1.5000000000000002,-0.9,0.8
1698921024482.0,16,0.1,0.0,0.0,-0.4,9.3,2.3000000000000003,-1.5000000000000002,-1.0999999999999999,0.6000000000000001
1698921024498.0,16,0.0,0.1,0.0,-0.4,9.4,2.3000000000000003,-1.5000000000000002,-0.9,0.7
1698921024516.0,16,0.0,0.1,0.0,-0.5,9.4,2.3000000000000003,-0.9,-0.8,0.7
1698921024532.0,16,-0.1,0.1,-0.1,-0.5,9.4,2.3000000000000003,-0.7,-0.9,0.7
1698921024549.0,16,0.0,-0.1,-0.1,-0.5,9.3,2.2,-0.7,-1.0,0.9
1698921024565.0,16,0.0,-0.1,0.0,-0.5,9.200000000000001,2.3000000000000003,-0.6000000000000001,-1.4,0.4
1698921024581.0,16,0.0,0.0,-0.1,-0.4,9.200000000000001,2.2,0.1,-1.5000000000000002,-0.7
1698921024598.0,16,0.1,-0.1,0.0,-0.30000000000000004,9.200000000000001,2.3000000000000003,0.30000000000000004,-2.0,-1.0999999999999999
1698921024615.0,16,0.1,-0.1,0.1,-0.4,9.200000000000001,2.4000000000000004,1.0,-2.8,-1.7
1698921024632.0,16,0.0,0.0,0.1,-0.4,9.200000000000001,2.5,0.5,-2.8,-0.6000000000000001
1698921024648.0,16,0.0,0.0,0.1,-0.5,9.200000000000001,2.4000000000000004,-0.1,-3.0000000000000004,-0.7
1698921024665.0,16,0.0,-0.1,0.1,-0.5,9.200000000000001,2.4000000000000004,-1.0,-3.1,-1.5000000000000002
1698921024682.0,16,0.0,-0.2,0.1,-0.4,9.1,2.4000000000000004,-0.7,-3.9,-2.1999999999999997
1698921024699.0,16,0.0,-0.2,0.1,-0.4,9.1,2.5,-0.30000000000000004,-4.1000000000000005,-2.1999999999999997
1698921024715.0,16,0.0,-0.1,0.1,-0.5,9.1,2.5,0.30000000000000004,-3.0000000000000004,-1.8
1698921024733.0,16,0.0,0.0,0.0,-0.5,9.3,2.4000000000000004,-0.1,-2.0,-1.5000000000000002
1698921024749.0,16,-0.1,0.1,0.0,-0.5,9.3,2.3000000000000003,-0.8,-1.9,-1.3
1698921024765.0,16,-0.1,0.0,0.1,-0.5,9.3,2.4000000000000004,-0.9,-2.4000000000000004,-1.0
1698921024782.0,16,0.0,0.1,0.0,-0.5,9.3,2.4000000000000004,0.1,-2.5,-1.0
1698921024799.0,16,0.0,0.1,0.0,-0.5,9.3,2.4000000000000004,0.4,-2.5,-1.0
1698921024818.0,16,0.0,0.0,-0.1,-0.5,9.3,2.3000000000000003,0.2,-1.7,-1.0
1698921024832.0,16,0.0,0.0,0.0,-0.5,9.200000000000001,2.4000000000000004,0.1,-1.7,-0.8
1698921024849.0,16,0.0,0.0,-0.1,-0.5,9.3,2.3000000000000003,0.2,-1.9,-0.8
1698921024865.0,16,0.0,0.1,-0.30000000000000004,-0.5,9.4,2.1,-1.8,-1.3,-0.5
1698921024882.0,16,0.0,0.1,-0.30000000000000004,-0.4,9.4,2.1,-3.3000000000000003,-1.4,-0.6000000000000001
1698921024899.0,16,0.1,0.1,-0.1,-0.4,9.3,2.2,-4.0,-2.1,-1.3
1698921024915.0,16,0.1,0.1,-0.1,-0.30000000000000004,9.4,2.2,-2.8,-2.4000000000000004,-1.3
1698921024933.0,16,0.1,0.1,-0.1,-0.30000000000000004,9.3,2.2,-1.4,-0.4,-1.4
1698921024949.0,16,0.1,0.0,-0.1,-0.4,9.3,2.2,-1.0999999999999999,0.5,-1.3
1698921024965.0,16,0.0,0.0,0.0,-0.5,9.200000000000001,2.3000000000000003,-0.9,0.2,-0.8
1698921024982.0,16,0.0,0.0,0.0,-0.5,9.3,2.3000000000000003,-0.1,0.7,-0.8
1698921024999.0,16,0.0,0.0,0.0,-0.5,9.200000000000001,2.4000000000000004,0.0,1.0999999999999999,-0.9
1698921025015.0,16,-0.1,0.0,0.0,-0.5,9.200000000000001,2.3000000000000003,0.1,1.3,-0.7
1698921025032.0,16,-0.1,0.0,0.1,-0.6000000000000001,9.200000000000001,2.5,-0.2,1.2000000000000002,-0.6000000000000001
1698921025048.0,16,-0.1,0.0,0.1,-0.6000000000000001,9.200000000000001,2.5,0.1,1.4,-0.5
1698921025065.0,16,-0.2,0.0,0.0,-0.7000000000000001,9.3,2.4000000000000004,-0.1,1.4,-0.4
1698921025082.0,16,-0.1,-0.1,0.2,-0.6000000000000001,9.200000000000001,2.5,-0.30000000000000004,0.9,-0.4
1698921025099.0,16,-0.1,-0.1,0.1,-0.6000000000000001,9.200000000000001,2.5,0.1,0.2,-0.6000000000000001
1698921025115.0,16,0.0,-0.1,0.1,-0.6000000000000001,9.200000000000001,2.5,0.1,0.4,-0.6000000000000001
1698921025133.0,16,0.0,-0.1,0.1,-0.5,9.200000000000001,2.4000000000000004,-0.1,0.6000000000000001,-0.8
1698921025149.0,16,0.0,0.0,0.0,-0.5,9.200000000000001,2.4000000000000004,-0.2,0.9,-0.5
1698921025165.0,16,0.0,0.0,0.0,-0.5,9.200000000000001,2.4000000000000004,-0.1,0.5,-0.4
1698921025181.0,16,0.0,0.0,0.0,-0.5,9.200000000000001,2.4000000000000004,0.4,0.5,-0.2
1698921025199.0,16,0.0,0.0,0.0,-0.5,9.200000000000001,2.4000000000000004,0.6000000000000001,0.2,-0.1
1698921025216.0,16,0.0,0.0,0.0,-0.5,9.200000000000001,2.4000000000000004,0.5,0.0,0.0
1698921025232.0,16,0.0,0.0,0.0,-0.5,9.200000000000001,2.4000000000000004,0.6000000000000001,0.30000000000000004,0.0
1698921025249.0,16,0.0,0.0,0.0,-0.5,9.200000000000001,2.3000000000000003,1.0,0.0,0.1
1698921025265.0,16,0.1,0.0,0.0,-0.5,9.3,2.4000000000000004,1.2000000000000002,0.2,0.1
1698921025282.0,16,0.0,0.0,0.0,-0.5,9.3,2.4000000000000004,1.3,0.5,0.0
1698921025298.0,16,0.0,0.0,0.0,-0.5,9.3,2.4000000000000004,1.2000000000000002,0.9,0.0
1698921025315.0,16,0.0,0.0,0.0,-0.5,9.3,2.3000000000000003,0.9,1.0999999999999999,-0.1
1698921025332.0,16,0.0,0.0,0.1,-0.5,9.200000000000001,2.4000000000000004,0.9,0.8,0.0
1698921025349.0,16,0.0,0.0,0.0,-0.5,9.200000000000001,2.4000000000000004,0.9,1.0,-0.1
1698921025366.0,16,0.0,0.0,0.0,-0.5,9.200000000000001,2.4000000000000004,0.9,1.0999999999999999,-0.1
1698921025382.0,16,0.0,0.0,0.0,-0.5,9.3,2.3000000000000003,1.0,1.4,-0.1
1698921025399.0,16,0.0,0.0,0.0,-0.5,9.3,2.3000000000000003,1.2000000000000002,1.3,-0.1
1698921025415.0,16,0.0,0.0,0.0,-0.5,9.3,2.3000000000000003,1.5000000000000002,1.4,-0.2
1698921025432.0,16,0.0,0.0,0.0,-0.5,9.3,2.4000000000000004,1.9,1.9,-0.30000000000000004
1698921025448.0,16,0.0,0.0,0.0,-0.5,9.3,2.3000000000000003,1.5000000000000002,2.8,-0.4
1698921025465.0,16,0.0,0.0,0.0,-0.5,9.200000000000001,2.4000000000000004,1.0,2.6,-0.1
1698921025482.0,16,0.0,0.0,0.0,-0.6000000000000001,9.3,2.4000000000000004,1.3,2.5,0.1
1698921025499.0,16,0.0,0.0,0.0,-0.6000000000000001,9.3,2.3000000000000003,1.0999999999999999,2.7,0.6000000000000001
1698921025515.0,16,-0.1,0.0,0.0,-0.6000000000000001,9.3,2.3000000000000003,0.6000000000000001,2.3000000000000003,1.0
1698921025533.0,16,-0.1,0.1,0.0,-0.6000000000000001,9.3,2.3000000000000003,0.9,2.1999999999999997,1.0999999999999999
1698921025548.0,16,-0.1,0.0,-0.1,-0.6000000000000001,9.3,2.3000000000000003,0.7,1.8,1.0999999999999999
1698921025565.0,16,-0.1,0.0,0.0,-0.6000000000000001,9.3,2.3000000000000003,0.6000000000000001,1.7,1.0
1698921025582.0,16,-0.1,0.0,-0.1,-0.6000000000000001,9.3,2.3000000000000003,0.4,1.0999999999999999,0.8
1698921025599.0,16,0.0,0.0,0.0,-0.6000000000000001,9.3,2.3000000000000003,0.4,0.8,0.5
1698921025616.0,16,0.0,0.0,0.0,-0.5,9.3,2.3000000000000003,0.2,0.6000000000000001,0.2
1698921025633.0,16,0.0,0.0,0.0,-0.5,9.3,2.3000000000000003,0.2,0.6000000000000001,0.2
1698921025649.0,16,0.0,0.0,0.0,-0.6000000000000001,9.3,2.3000000000000003,0.1,0.30000000000000004,0.4
1698921025666.0,16,0.0,0.0,0.0,-0.5,9.3,2.3000000000000003,-0.1,0.30000000000000004,0.4
1698921025683.0,16,0.0,0.0,0.0,-0.5,9.3,2.3000000000000003,-0.30000000000000004,0.4,0.4
1698921025699.0,16,0.0,0.0,0.0,-0.6000000000000001,9.3,2.3000000000000003,-0.4,0.1,0.4
1698921025716.0,16,0.0,0.0,0.0,-0.5,9.3,2.3000000000000003,-0.4,0.1,0.30000000000000004
1698921025732.0,16,0.0,0.0,0.0,-0.5,9.3,2.3000000000000003,-0.5,0.0,0.30000000000000004
1698921025748.0,16,0.0,0.0,0.0,-0.5,9.3,2.3000000000000003,-0.30000000000000004,-0.2,0.2
1698921025765.0,16,0.0,0.0,0.0,-0.5,9.3,2.3000000000000003,-0.2,0.2,0.30000000000000004
1698921025783.0,16,0.0,0.0,0.0,-0.5,9.3,2.3000000000000003,-0.1,0.0,0.2
1698921025799.0,16,0.0,0.0,0.0,-0.6000000000000001,9.3,2.3000000000000003,-0.2,0.0,0.1
1698921025815.0,16,0.0,0.0,0.0,-0.5,9.3,2.3000000000000003,-0.30000000000000004,0.30000000000000004,0.1
1698921025834.0,16,0.0,0.0,0.0,-0.5,9.200000000000001,2.3000000000000003,-0.4,0.8,0.0
1698921025848.0,16,0.0,0.0,0.0,-0.5,9.200000000000001,2.3000000000000003,-0.5,0.9,0.1
1698921025865.0,16,0.0,0.0,0.0,-0.5,9.3,2.3000000000000003,-0.1,0.6000000000000001,0.0
1698921025882.0,16,0.0,0.0,0.0,-0.5,9.3,2.3000000000000003,-0.1,0.6000000000000001,0.1
1698921025898.0,16,0.0,0.0,0.1,-0.5,9.3,2.4000000000000004,0.2,0.8,-0.2
1698921025916.0,16,0.0,0.0,0.0,-0.5,9.200000000000001,2.3000000000000003,0.6000000000000001,0.9,-0.4
1698921025932.0,16,0.0,0.0,0.0,-0.5,9.200000000000001,2.3000000000000003,0.5,1.0,-0.4
1698921025949.0,16,0.0,0.0,0.0,-0.5,9.200000000000001,2.4000000000000004,0.2,0.9,-0.4
1698921025966.0,16,0.0,0.0,0.0,-0.5,9.3,2.4000000000000004,0.2,0.8,-0.2
1698921025982.0,16,0.0,0.0,0.0,-0.6000000000000001,9.3,2.3000000000000003,0.6000000000000001,0.8,0.2
1698921025999.0,16,0.0,0.0,0.0,-0.6000000000000001,9.3,2.3000000000000003,0.4,0.7,0.30000000000000004
1698921026015.0,16,0.0,0.0,0.0,-0.6000000000000001,9.3,2.3000000000000003,0.2,0.5,-0.1
1698921026034.0,16,0.0,0.0,0.0,-0.6000000000000001,9.3,2.3000000000000003,0.2,0.6000000000000001,-0.2
1698921026049.0,16,0.0,0.0,0.0,-0.6000000000000001,9.3,2.4000000000000004,0.1,0.5,-0.30000000000000004
1698921026067.0,16,0.0,0.0,0.0,-0.6000000000000001,9.3,2.3000000000000003,0.4,0.30000000000000004,-0.2
1698921026082.0,16,0.0,0.0,0.0,-0.6000000000000001,9.200000000000001,2.3000000000000003,0.4,0.30000000000000004,-0.1
1698921026099.0,16,0.0,0.0,0.0,-0.6000000000000001,9.200000000000001,2.3000000000000003,0.6000000000000001,0.1,-0.30000000000000004
1698921026115.0,16,0.0,0.0,0.0,-0.5,9.3,2.3000000000000003,0.6000000000000001,0.2,-0.5
1698921026132.0,16,0.0,0.0,0.0,-0.5,9.3,2.3000000000000003,0.4,0.1,-0.4
1698921026149.0,16,0.0,0.0,0.0,-0.6000000000000001,9.3,2.3000000000000003,0.5,0.2,-0.30000000000000004
1698921026165.0,16,0.0,0.0,0.0,-0.6000000000000001,9.3,2.3000000000000003,0.4,0.1,-0.2
1698921026182.0,16,0.0,0.0,0.0,-0.6000000000000001,9.3,2.3000000000000003,0.7,-0.2,-0.2
1698921026198.0,16,0.0,0.0,0.0,-0.6000000000000001,9.3,2.3000000000000003,0.7,-0.2,-0.2
1698921026215.0,16,0.0,0.0,0.0,-0.6000000000000001,9.3,2.3000000000000003,0.6000000000000001,-0.2,-0.2
1698921026232.0,16,0.0,0.0,0.0,-0.6000000000000001,9.3,2.3000000000000003,0.6000000000000001,-0.30000000000000004,-0.2
1698921026249.0,16,0.0,0.0,0.0,-0.5,9.3,2.3000000000000003,0.8,-0.8,-0.1
1698921026266.0,16,0.0,0.0,0.0,-0.6000000000000001,9.3,2.3000000000000003,0.7,-0.8,-0.2
1698921026282.0,16,0.0,0.0,0.0,-0.6000000000000001,9.3,2.3000000000000003,0.8,-0.8,0.0
1698921026299.0,16,0.0,0.0,0.0,-0.6000000000000001,9.3,2.3000000000000003,0.7,-0.8,0.1
1698921026315.0,16,0.0,0.0,0.0,-0.6000000000000001,9.3,2.3000000000000003,0.7,-0.7,0.1
1698921026332.0,16,0.0,0.0,0.0,-0.6000000000000001,9.3,2.3000000000000003,0.6000000000000001,-0.8,0.0
1698921026349.0,16,0.0,0.0,0.0,-0.5,9.3,2.3000000000000003,0.6000000000000001,-0.7,0.1
1698921026365.0,16,0.0,0.0,0.0,-0.6000000000000001,9.3,2.3000000000000003,0.6000000000000001,-0.8,0.1
1698921026381.0,16,0.0,0.0,0.0,-0.6000000000000001,9.3,2.3000000000000003,0.6000000000000001,-0.7,0.0
1698921026398.0,16,0.0,0.0,0.0,-0.6000000000000001,9.3,2.3000000000000003,0.5,-0.6000000000000001,0.1
1698921026415.0,16,0.0,0.0,0.0,-0.6000000000000001,9.3,2.3000000000000003,0.30000000000000004,-0.6000000000000001,0.0
1698921026432.0,16,0.0,0.0,0.0,-0.5,9.3,2.3000000000000003,0.1,-0.9,-0.1
1698921026450.0,16,0.0,0.0,0.0,-0.5,9.3,2.3000000000000003,0.1,-0.8,-0.1
1698921026465.0,16,0.0,0.0,0.0,-0.5,9.200000000000001,2.3000000000000003,0.30000000000000004,-0.6000000000000001,-0.1
1698921026482.0,16,0.0,0.0,0.0,-0.6000000000000001,9.3,2.3000000000000003,0.4,-0.6000000000000001,-0.1
1698921026498.0,16,0.0,0.0,0.0,-0.6000000000000001,9.3,2.3000000000000003,0.1,-0.5,0.1
1698921026515.0,16,0.0,0.0,0.0,-0.6000000000000001,9.3,2.3000000000000003,0.1,-0.5,0.1
1698921026531.0,16,0.0,0.0,0.0,-0.6000000000000001,9.3,2.2,0.0,-0.4,0.1
1698921026552.0,16,0.0,0.0,0.0,-0.6000000000000001,9.3,2.3000000000000003,-0.1,-0.30000000000000004,0.1
1698921026566.0,16,0.0,0.0,0.0,-0.6000000000000001,9.3,2.3000000000000003,0.0,-0.5,0.1
1698921026582.0,16,0.0,0.0,0.0,-0.6000000000000001,9.3,2.3000000000000003,-0.1,-0.4,0.1
1698921026599.0,16,0.0,0.0,0.0,-0.5,9.3,2.3000000000000003,-0.2,-0.4,0.1
1698921026615.0,16,0.0,0.0,0.0,-0.5,9.3,2.3000000000000003,-0.2,-0.30000000000000004,0.1
1698921026633.0,16,0.0,0.0,0.0,-0.6000000000000001,9.200000000000001,2.3000000000000003,-0.30000000000000004,-0.30000000000000004,0.1
1698921026649.0,16,0.0,0.0,0.0,-0.6000000000000001,9.3,2.3000000000000003,-0.1,-0.2,0.2
1698921026665.0,16,0.0,0.0,0.0,-0.6000000000000001,9.3,2.3000000000000003,-0.4,0.0,0.2
1698921026682.0,16,0.0,0.0,0.0,-0.6000000000000001,9.3,2.3000000000000003,-0.5,-0.1,0.30000000000000004
1698921026699.0,16,0.0,0.0,0.0,-0.6000000000000001,9.3,2.3000000000000003,-0.30000000000000004,-0.2,0.30000000000000004
1698921026717.0,16,0.0,0.0,0.0,-0.5,9.3,2.3000000000000003,-0.5,-0.30000000000000004,0.2
1698921026732.0,16,0.0,0.0,0.0,-0.6000000000000001,9.3,2.3000000000000003,-0.4,-0.30000000000000004,0.2
1698921026749.0,16,0.0,0.0,0.0,-0.6000000000000001,9.3,2.3000000000000003,-0.2,0.0,0.1
1698921026765.0,16,0.0,0.0,0.0,-0.6000000000000001,9.3,2.3000000000000003,-0.4,-0.1,0.2
1698921026782.0,16,0.0,0.0,0.0,-0.6000000000000001,9.3,2.3000000000000003,-0.30000000000000004,-0.1,0.4
1698921026799.0,16,0.0,0.0,0.0,-0.6000000000000001,9.3,2.3000000000000003,-0.4,-0.30000000000000004,0.4
1698921026815.0,16,0.0,0.0,0.0,-0.5,9.3,2.3000000000000003,-0.6000000000000001,-0.30000000000000004,0.30000000000000004
1698921026832.0,16,0.0,0.0,0.0,-0.6000000000000001,9.3,2.3000000000000003,-0.8,-0.2,0.2
1698921026848.0,16,0.0,0.0,0.0,-0.5,9.3,2.3000000000000003,-0.7,-0.2,0.1
1698921026865.0,16,0.0,0.0,0.0,-0.6000000000000001,9.3,2.3000000000000003,-0.5,0.2,0.30000000000000004
1698921026881.0,16,0.0,0.0,0.0,-0.5,9.3,2.3000000000000003,-0.6000000000000001,-0.30000000000000004,0.2
1698921026899.0,16,0.0,0.0,0.0,-0.6000000000000001,9.200000000000001,2.3000000000000003,-0.5,-0.6000000000000001,0.2
1698921026916.0,16,0.0,0.0,0.0,-0.6000000000000001,9.200000000000001,2.3000000000000003,-0.5,-0.5,0.30000000000000004
1698921026932.0,16,0.0,0.0,0.0,-0.5,9.200000000000001,2.3000000000000003,-0.5,-0.4,0.4
1698921026949.0,16,0.0,0.0,0.0,-0.5,9.3,2.3000000000000003,-0.5,-0.7,0.30000000000000004
1698921026965.0,16,0.0,0.0,0.0,-0.5,9.3,2.3000000000000003,-0.5,-0.5,0.30000000000000004
1698921026982.0,16,0.0,0.0,0.0,-0.5,9.3,2.3000000000000003,-0.30000000000000004,-0.30000000000000004,0.2
1698921026999.0,16,0.0,0.0,0.0,-0.5,9.3,2.3000000000000003,-0.4,-0.5,0.30000000000000004
1698921027016.0,16,0.0,0.0,0.0,-0.6000000000000001,9.3,2.3000000000000003,-0.2,-0.9,0.30000000000000004
1698921027033.0,16,0.0,0.0,0.0,-0.5,9.3,2.3000000000000003,-0.1,-0.6000000000000001,0.30000000000000004
1698921027049.0,16,0.0,0.0,0.0,-0.5,9.200000000000001,2.3000000000000003,-0.2,-0.6000000000000001,0.30000000000000004
1698921027065.0,16,0.0,0.0,0.0,-0.5,9.200000000000001,2.3000000000000003,-0.2,-0.6000000000000001,0.4
1698921027082.0,16,0.0,0.0,0.0,-0.5,9.3,2.3000000000000003,-0.1,-0.6000000000000001,0.6000000000000001
1698921027099.0,16,0.0,0.0,0.0,-0.5,9.3,2.3000000000000003,-0.1,-0.6000000000000001,0.4
1698921027115.0,16,0.0,0.0,0.0,-0.5,9.200000000000001,2.3000000000000003,-0.4,-0.5,0.2
1698921027132.0,16,0.0,0.0,0.0,-0.5,9.200000000000001,2.3000000000000003,-0.2,-0.30000000000000004,-0.30000000000000004
1698921027148.0,16,0.0,0.0,0.0,-0.5,9.3,2.3000000000000003,-0.2,-0.6000000000000001,-0.1
1698921027165.0,16,0.0,0.0,0.0,-0.5,9.3,2.3000000000000003,0.0,-0.7,0.2
1698921027182.0,16,0.0,0.0,0.0,-0.6000000000000001,9.3,2.3000000000000003,-0.1,-0.5,0.30000000000000004
1698921027199.0,16,0.0,0.0,0.0,-0.6000000000000001,9.3,2.3000000000000003,-0.2,-0.5,0.2
1698921027216.0,16,0.0,0.0,0.0,-0.5,9.3,2.3000000000000003,-0.4,-0.5,0.1
1698921027232.0,16,0.0,0.0,0.0,-0.5,9.3,2.3000000000000003,-0.4,-0.4,0.1
1698921027249.0,16,0.0,0.0,0.0,-0.5,9.3,2.3000000000000003,-0.2,-0.30000000000000004,0.0
1698921027265.0,16,0.0,0.0,0.0,-0.5,9.200000000000001,2.3000000000000003,-0.1,-0.4,0.1
1698921027282.0,16,0.0,0.0,0.0,-0.5,9.200000000000001,2.3000000000000003,0.1,-0.1,0.1
1698921027300.0,16,0.0,0.0,0.0,-0.5,9.3,2.3000000000000003,0.2,0.2,0.0
1698921027316.0,16,0.0,0.0,0.0,-0.5,9.3,2.3000000000000003,0.30000000000000004,0.30000000000000004,0.0
1698921027332.0,16,0.0,0.0,0.0,-0.5,9.200000000000001,2.3000000000000003,0.2,0.2,0.0
1698921027350.0,16,0.0,0.0,0.0,-0.5,9.200000000000001,2.3000000000000003,0.1,-0.30000000000000004,-0.1
1698921027365.0,16,0.0,0.1,0.0,-0.5,9.3,2.3000000000000003,0.5,-0.30000000000000004,-0.2
1698921027386.0,16,0.0,0.1,0.0,-0.5,9.3,2.3000000000000003,0.9,0.5,-0.2
1698921027398.0,16,0.0,0.0,-0.1,-0.5,9.200000000000001,2.2,0.6000000000000001,0.0,-0.2
1698921027416.0,16,0.0,0.0,-0.2,-0.6000000000000001,9.200000000000001,2.1,-0.1,-0.2,-0.2
1698921027433.0,16,0.0,0.0,0.0,-0.5,9.200000000000001,2.3000000000000003,1.0,-0.7,-0.30000000000000004
1698921027449.0,16,0.1,0.1,-0.1,-0.5,9.3,2.2,2.9,-0.2,-0.7
1698921027465.0,16,0.1,0.1,0.0,-0.5,9.4,2.3000000000000003,3.2,0.30000000000000004,-0.8
1698921027482.0,16,0.0,0.0,0.0,-0.5,9.3,2.3000000000000003,3.4,1.0999999999999999,-0.5
1698921027498.0,16,0.0,0.0,0.1,-0.6000000000000001,9.3,2.4000000000000004,2.4000000000000004,1.9,-0.2
1698921027515.0,16,-0.1,-0.1,0.1,-0.6000000000000001,9.200000000000001,2.4000000000000004,1.5000000000000002,2.0,0.0
1698921027532.0,16,-0.1,-0.1,0.1,-0.6000000000000001,9.200000000000001,2.4000000000000004,1.0,2.0,-0.1
1698921027550.0,16,-0.1,-0.1,0.1,-0.7000000000000001,9.1,2.4000000000000004,0.6000000000000001,1.6,0.1
1698921027566.0,16,-0.1,-0.1,0.1,-0.6000000000000001,9.200000000000001,2.4000000000000004,0.8,1.4,0.2
1698921027582.0,16,-0.1,0.0,0.1,-0.6000000000000001,9.3,2.3000000000000003,1.6,1.0999999999999999,0.30000000000000004
1698921027598.0,16,0.0,0.0,0.1,-0.6000000000000001,9.200000000000001,2.4000000000000004,2.1,0.8,0.4
1698921027615.0,16,0.0,0.0,0.1,-0.5,9.3,2.3000000000000003,1.7,0.2,0.4
1698921027631.0,16,0.0,0.0,0.1,-0.5,9.3,2.3000000000000003,1.3,-0.1,0.4
1698921027648.0,16,0.1,0.0,0.0,-0.5,9.3,2.3000000000000003,0.6000000000000001,-0.30000000000000004,0.30000000000000004
1698921027665.0,16,0.1,0.0,0.0,-0.5,9.3,2.3000000000000003,0.5,-0.2,0.1
1698921027683.0,16,0.0,0.0,-0.1,-0.5,9.3,2.2,0.2,0.0,-0.1
1698921027698.0,16,0.0,0.0,0.0,-0.5,9.200000000000001,2.2,0.4,0.2,-0.2
1698921027715.0,16,0.0,0.0,0.0,-0.5,9.3,2.2,0.7,0.2,-0.2
1698921027732.0,16,0.0,0.1,-0.1,-0.6000000000000001,9.3,2.2,1.3,0.5,-0.1
1698921027748.0,16,0.0,0.1,-0.1,-0.6000000000000001,9.3,2.2,1.0,1.0999999999999999,0.1
1698921027765.0,16,0.0,0.1,-0.1,-0.6000000000000001,9.3,2.2,0.6000000000000001,0.7,0.1
1698921027782.0,16,0.0,0.1,-0.1,-0.6000000000000001,9.3,2.1,0.6000000000000001,0.4,-0.1
1698921027798.0,16,0.0,0.0,-0.1,-0.6000000000000001,9.3,2.2,0.5,0.2,-0.1
1698921027815.0,16,0.0,0.0,-0.1,-0.6000000000000001,9.3,2.2,0.6000000000000001,0.30000000000000004,-0.4
1698921027832.0,16,-0.1,0.0,0.0,-0.6000000000000001,9.3,2.2,0.6000000000000001,0.2,-0.4
1698921027849.0,16,0.0,0.0,0.0,-0.6000000000000001,9.3,2.2,0.7,-0.1,-0.30000000000000004
1698921027865.0,16,-0.1,0.0,0.0,-0.6000000000000001,9.3,2.2,0.5,-0.1,-0.2
1698921027882.0,16,0.0,0.0,0.0,-0.6000000000000001,9.3,2.2,0.2,-0.30000000000000004,-0.1
1698921027899.0,16,0.0,0.0,0.0,-0.5,9.3,2.3000000000000003,0.1,-0.5,-0.1
1698921027915.0,16,0.0,0.0,0.0,-0.5,9.3,2.3000000000000003,0.2,-0.5,-0.1
1698921027932.0,16,0.0,0.0,0.0,-0.5,9.3,2.2,0.2,-0.30000000000000004,-0.1
1698921027948.0,16,0.0,0.0,0.1,-0.5,9.3,2.3000000000000003,0.4,0.0,0.0
1698921027965.0,16,0.0,0.0,0.0,-0.5,9.3,2.2,0.4,0.4,-0.1
1698921027983.0,16,0.0,0.0,0.0,-0.6000000000000001,9.3,2.2,0.30000000000000004,0.5,-0.1
1698921027999.0,16,0.0,0.0,0.0,-0.6000000000000001,9.3,2.2,0.1,0.30000000000000004,-0.2
1698921028015.0,16,0.0,0.0,0.0,-0.6000000000000001,9.3,2.3000000000000003,0.1,0.30000000000000004,-0.2
1698921028032.0,16,0.0,0.0,0.0,-0.6000000000000001,9.3,2.2,0.4,0.30000000000000004,-0.2
1698921028050.0,16,0.0,0.0,0.0,-0.5,9.3,2.2,0.1,0.0,-0.2
1698921028065.0,16,0.0,0.0,0.0,-0.5,9.3,2.2,0.4,-0.30000000000000004,-0.30000000000000004
1698921028082.0,16,0.0,0.0,0.0,-0.5,9.3,2.2,0.4,-0.2,-0.2
1698921028098.0,16,0.0,0.0,0.0,-0.6000000000000001,9.3,2.2,0.5,0.2,-0.1
1698921028115.0,16,0.0,0.0,0.0,-0.5,9.3,2.2,0.2,0.9,-0.4
1698921028132.0,16,0.0,-0.1,0.0,-0.5,9.200000000000001,2.2,0.4,0.9,-0.5
1698921028148.0,16,0.0,0.0,0.0,-0.5,9.3,2.2,0.6000000000000001,1.0,-0.6000000000000001
1698921028165.0,16,0.0,0.0,0.0,-0.6000000000000001,9.3,2.2,0.9,1.3,-0.5
1698921028181.0,16,0.0,0.0,0.0,-0.6000000000000001,9.3,2.2,0.9,1.4,-0.4
1698921028199.0,16,0.0,0.0,0.0,-0.6000000000000001,9.3,2.2,0.7,1.0999999999999999,-0.5
1698921028215.0,16,0.0,0.0,0.0,-0.6000000000000001,9.3,2.2,0.4,1.0999999999999999,-0.7
1698921028233.0,16,0.0,0.0,0.0,-0.6000000000000001,9.3,2.2,0.4,1.0999999999999999,-0.7
1698921028249.0,16,0.0,0.0,0.0,-0.6000000000000001,9.3,2.2,0.6000000000000001,0.6000000000000001,-0.6000000000000001
1698921028265.0,16,0.0,0.0,0.0,-0.6000000000000001,9.3,2.2,0.7,0.2,-0.5
1698921028281.0,16,0.0,0.0,0.0,-0.6000000000000001,9.3,2.2,0.8,0.2,-0.5
1698921028299.0,16,0.0,0.0,0.0,-0.6000000000000001,9.3,2.2,0.8,0.30000000000000004,-0.5
1698921028319.0,16,0.0,0.0,0.0,-0.6000000000000001,9.3,2.2,0.4,0.0,-0.7
1698921028331.0,16,0.0,0.0,0.0,-0.6000000000000001,9.3,2.2,0.6000000000000001,0.1,-0.4
1698921028349.0,16,0.0,0.0,0.0,-0.6000000000000001,9.3,2.2,0.7,0.1,-0.4
1698921028365.0,16,0.0,0.0,0.0,-0.6000000000000001,9.3,2.2,0.6000000000000001,0.2,-0.1
1698921028382.0,16,0.0,0.0,0.0,-0.6000000000000001,9.3,2.2,0.8,0.0,-0.1
1698921028399.0,16,0.0,0.0,0.0,-0.6000000000000001,9.3,2.2,0.8,0.2,0.1
1698921028415.0,16,0.0,0.0,0.0,-0.6000000000000001,9.3,2.2,0.7,0.4,0.1
1698921028431.0,16,0.0,0.0,0.0,-0.6000000000000001,9.3,2.2,0.6000000000000001,0.2,0.0
1698921028449.0,16,0.0,0.0,0.0,-0.6000000000000001,9.3,2.2,0.6000000000000001,0.30000000000000004,0.0
1698921028465.0,16,0.0,0.0,0.0,-0.6000000000000001,9.3,2.2,0.6000000000000001,0.30000000000000004,-0.1
1698921028482.0,16,0.0,0.0,0.0,-0.6000000000000001,9.3,2.2,0.7,0.1,0.0
1698921028499.0,16,0.0,0.0,0.0,-0.6000000000000001,9.3,2.2,0.5,0.30000000000000004,0.1
1698921028516.0,16,0.0,0.0,0.0,-0.6000000000000001,9.3,2.2,0.8,0.2,0.1
1698921028532.0,16,0.0,0.0,0.0,-0.6000000000000001,9.3,2.2,0.7,0.0,0.1
1698921028550.0,16,0.0,0.0,0.0,-0.6000000000000001,9.3,2.1,0.9,-0.1,0.1
1698921028566.0,16,0.0,0.0,0.0,-0.6000000000000001,9.3,2.2,0.6000000000000001,-0.2,0.1
1698921028582.0,16,0.0,0.0,0.0,-0.6000000000000001,9.3,2.2,0.7,0.0,0.1
1698921028599.0,16,0.0,0.0,0.0,-0.6000000000000001,9.3,2.2,0.6000000000000001,0.2,0.0
1698921028620.0,16,0.0,0.0,0.0,-0.6000000000000001,9.3,2.2,0.7,0.30000000000000004,0.1
1698921028632.0,16,0.0,0.0,0.0,-0.6000000000000001,9.3,2.2,0.6000000000000001,0.2,0.1
1698921028650.0,16,0.0,0.0,0.0,-0.6000000000000001,9.3,2.2,0.6000000000000001,0.0,0.1
1698921028665.0,16,0.0,0.0,0.0,-0.6000000000000001,9.3,2.1,0.6000000000000001,0.0,0.1
1698921028681.0,16,0.0,0.0,0.0,-0.6000000000000001,9.3,2.1,0.7,-0.30000000000000004,0.2
1698921028699.0,16,0.0,0.0,0.0,-0.6000000000000001,9.3,2.2,0.7,-0.5,0.1
1698921028715.0,16,0.0,0.0,0.0,-0.6000000000000001,9.3,2.2,0.8,-0.5,-0.1
1698921028732.0,16,0.0,0.0,0.0,-0.6000000000000001,9.3,2.2,0.9,0.2,-0.1
1698921028748.0,16,0.0,0.0,0.0,-0.6000000000000001,9.3,2.1,0.6000000000000001,0.5,-0.1
1698921028765.0,16,0.0,0.0,0.0,-0.6000000000000001,9.3,2.1,0.6000000000000001,0.30000000000000004,0.0
1698921028781.0,16,0.0,0.0,0.0,-0.6000000000000001,9.3,2.1,0.6000000000000001,0.0,0.30000000000000004
1698921028799.0,16,0.0,0.0,0.0,-0.6000000000000001,9.3,2.1,0.5,0.0,0.2
1698921028815.0,16,0.0,0.0,0.0,-0.6000000000000001,9.3,2.2,0.4,-0.2,0.1
1698921028833.0,16,0.0,0.0,0.0,-0.6000000000000001,9.3,2.2,0.6000000000000001,0.2,-0.1
1698921028849.0,16,0.0,0.0,0.0,-0.6000000000000001,9.3,2.1,0.5,0.2,-0.2
1698921028865.0,16,0.0,0.0,0.0,-0.6000000000000001,9.3,2.1,0.5,0.30000000000000004,-0.30000000000000004
1698921028881.0,16,0.0,0.0,0.0,-0.6000000000000001,9.3,2.1,0.5,0.2,-0.30000000000000004
1698921028899.0,16,0.0,0.0,0.0,-0.6000000000000001,9.3,2.1,0.6000000000000001,0.30000000000000004,-0.2
1698921028917.0,16,0.0,0.0,0.0,-0.6000000000000001,9.3,2.1,0.6000000000000001,0.6000000000000001,-0.2
1698921028932.0,16,0.0,0.0,0.0,-0.6000000000000001,9.3,2.1,0.6000000000000001,0.5,-0.2
1698921028949.0,16,0.0,0.0,0.0,-0.6000000000000001,9.3,2.1,0.6000000000000001,0.8,-0.2
1698921028965.0,16,0.0,0.0,0.0,-0.6000000000000001,9.3,2.1,0.4,0.6000000000000001,-0.2
1698921028981.0,16,0.0,0.0,0.0,-0.6000000000000001,9.3,2.1,0.30000000000000004,0.5,-0.30000000000000004
1698921028999.0,16,0.0,0.0,0.1,-0.6000000000000001,9.3,2.2,0.30000000000000004,0.6000000000000001,-0.30000000000000004
1698921029016.0,16,0.0,0.0,0.0,-0.6000000000000001,9.3,2.1,0.1,1.0,-0.30000000000000004
1698921029032.0,16,0.0,0.0,0.0,-0.6000000000000001,9.3,2.1,0.1,0.9,-0.30000000000000004
1698921029050.0,16,0.0,0.0,0.0,-0.6000000000000001,9.3,2.1,0.1,0.7,-0.1
1698921029065.0,16,0.0,-0.1,0.0,-0.7000000000000001,9.3,2.1,0.5,0.30000000000000004,-0.1
1698921029082.0,16,0.0,0.0,0.0,-0.7000000000000001,9.3,2.1,0.7,0.30000000000000004,0.1
1698921029098.0,16,0.0,0.0,0.0,-0.6000000000000001,9.3,2.2,0.6000000000000001,0.0,0.1
1698921029115.0,16,0.0,0.0,0.1,-0.6000000000000001,9.4,2.2,0.6000000000000001,0.1,-0.1
1698921029131.0,16,0.0,0.0,0.0,-0.6000000000000001,9.3,2.1,0.1,0.8,-0.30000000000000004
1698921029148.0,16,0.0,0.0,0.0,-0.6000000000000001,9.3,2.1,0.2,1.2000000000000002,-0.5
1698921029165.0,16,0.0,0.0,0.0,-0.6000000000000001,9.4,2.2,0.30000000000000004,1.4,-0.7
1698921029181.0,16,0.0,0.0,0.0,-0.6000000000000001,9.3,2.2,0.7,1.3,-0.4
1698921029199.0,16,0.0,0.0,0.1,-0.6000000000000001,9.3,2.2,0.6000000000000001,1.4,-0.4
1698921029216.0,16,0.0,0.0,0.0,-0.6000000000000001,9.3,2.2,0.6000000000000001,1.7,-0.5
1698921029232.0,16,0.0,-0.1,-0.1,-0.6000000000000001,9.3,2.1,0.5,2.0,-0.7
1698921029249.0,16,0.0,0.0,-0.1,-0.6000000000000001,9.3,2.1,0.4,1.6,-0.8
1698921029265.0,16,0.1,-0.1,0.0,-0.6000000000000001,9.3,2.1,0.30000000000000004,-0.30000000000000004,-1.0
1698921029282.0,16,0.0,0.0,0.0,-0.6000000000000001,9.3,2.1,0.6000000000000001,-0.2,-0.8
1698921029299.0,16,0.0,0.0,0.0,-0.7000000000000001,9.3,2.1,0.7,0.2,-0.8
1698921029316.0,16,0.0,0.1,0.0,-0.6000000000000001,9.4,2.1,0.2,-0.30000000000000004,-1.0999999999999999
1698921029333.0,16,0.0,0.1,0.1,-0.6000000000000001,9.4,2.2,0.6000000000000001,-0.6000000000000001,-1.3
1698921029349.0,16,0.0,0.0,0.0,-0.6000000000000001,9.3,2.1,0.6000000000000001,-0.30000000000000004,-1.0999999999999999
1698921029366.0,16,0.1,-0.1,0.0,-0.6000000000000001,9.3,2.1,-0.1,-0.6000000000000001,-1.0999999999999999
1698921029381.0,16,0.1,0.0,0.0,-0.6000000000000001,9.3,2.1,-0.1,-1.0,-1.2000000000000002
1698921029398.0,16,0.1,0.0,0.0,-0.6000000000000001,9.3,2.1,0.4,-2.0,-1.6
1698921029415.0,16,0.1,0.0,0.0,-0.6000000000000001,9.3,2.1,1.4,-1.3,-1.7
1698921029432.0,16,0.0,-0.1,0.1,-0.6000000000000001,9.3,2.2,3.1,-0.5,-1.3
1698921029448.0,16,0.0,0.0,0.1,-0.6000000000000001,9.200000000000001,2.2,3.6,-0.8,-1.0
1698921029465.0,16,-0.1,0.1,0.1,-0.7000000000000001,9.4,2.3000000000000003,3.5,-0.6000000000000001,-0.6000000000000001
1698921029482.0,16,-0.1,0.0,0.1,-0.8,9.3,2.2,2.9,-1.0,-0.30000000000000004
1698921029504.0,16,-0.1,-0.1,0.1,-0.8,9.3,2.2,2.5,-1.0,-0.2
1698921029515.0,16,-0.1,-0.1,0.1,-0.7000000000000001,9.200000000000001,2.2,2.1999999999999997,-1.0999999999999999,-0.4
1698921029532.0,16,-0.1,-0.2,0.1,-0.7000000000000001,9.1,2.2,2.9,-0.2,-0.6000000000000001
1698921029548.0,16,0.0,-0.1,0.0,-0.7000000000000001,9.200000000000001,2.1,4.5,0.9,-0.7
1698921029565.0,16,0.0,-0.1,-0.1,-0.7000000000000001,9.200000000000001,2.0,5.4,2.0,-0.5
1698921029582.0,16,0.0,-0.1,-0.1,-0.7000000000000001,9.200000000000001,2.0,5.8,2.1999999999999997,-0.1
1698921029598.0,16,0.0,-0.1,-0.1,-0.7000000000000001,9.200000000000001,2.0,6.000000000000001,1.9,0.2
1698921029615.0,16,0.0,-0.2,-0.1,-0.7000000000000001,9.1,2.0,6.000000000000001,2.0,0.1
1698921029632.0,16,-0.1,-0.1,-0.1,-0.7000000000000001,9.1,1.9000000000000001,5.9,1.3,-0.30000000000000004
1698921029648.0,16,-0.2,0.0,-0.1,-0.9,9.3,1.9000000000000001,5.7,0.6000000000000001,0.1
1698921029665.0,16,-0.2,0.1,-0.1,-0.9,9.4,1.8,5.7,-0.2,0.30000000000000004
1698921029681.0,16,-0.1,0.30000000000000004,-0.1,-0.8,9.600000000000001,1.8,6.2,-0.4,0.1
1698921029698.0,16,0.0,0.30000000000000004,-0.1,-0.7000000000000001,9.600000000000001,1.8,6.2,-0.2,0.2
1698921029714.0,16,0.1,0.30000000000000004,-0.1,-0.7000000000000001,9.600000000000001,1.8,5.7,-0.9,-0.2
1698921029731.0,16,0.1,0.30000000000000004,-0.1,-0.6000000000000001,9.600000000000001,1.8,4.6000000000000005,-2.0,-1.5000000000000002
1698921029748.0,16,0.1,0.2,0.0,-0.6000000000000001,9.600000000000001,1.9000000000000001,3.8,-3.3000000000000003,-1.9
1698921029765.0,16,0.1,0.1,-0.1,-0.6000000000000001,9.5,1.8,4.2,-2.7,-1.8
1698921029781.0,16,0.0,0.0,0.0,-0.7000000000000001,9.3,1.8,4.5,-3.1,-1.5000000000000002
1698921029798.0,16,-0.1,-0.2,0.0,-0.8,9.200000000000001,1.8,4.9,-4.1000000000000005,-1.0
1698921029815.0,16,0.0,-0.2,0.1,-0.8,9.200000000000001,1.9000000000000001,4.800000000000001,-4.7,-1.5000000000000002
1698921029833.0,16,0.1,-0.2,0.0,-0.6000000000000001,9.200000000000001,1.8,5.2,-4.5,-2.8
1698921029849.0,16,0.2,-0.1,0.1,-0.5,9.200000000000001,1.9000000000000001,6.1000000000000005,-4.1000000000000005,-2.5
1698921029865.0,16,0.2,-0.30000000000000004,0.1,-0.5,9.1,1.9000000000000001,7.0,-3.6,-2.1
1698921029882.0,16,0.2,-0.30000000000000004,0.1,-0.5,9.0,1.9000000000000001,7.400000000000001,-3.8,-1.9
1698921029899.0,16,0.1,-0.2,0.1,-0.6000000000000001,9.200000000000001,1.9000000000000001,9.3,-3.0000000000000004,-1.2000000000000002
1698921029915.0,16,0.0,-0.1,0.2,-0.7000000000000001,9.200000000000001,1.9000000000000001,9.700000000000001,-2.1999999999999997,-0.5
1698921029931.0,16,0.0,-0.1,0.2,-0.8,9.200000000000001,1.9000000000000001,10.3,-1.0999999999999999,0.5
1698921029948.0,16,-0.1,-0.1,0.1,-0.8,9.200000000000001,1.8,10.600000000000001,-0.30000000000000004,1.4
1698921029965.0,16,-0.1,-0.1,0.0,-0.8,9.200000000000001,1.7000000000000002,9.600000000000001,-0.8,1.9
1698921029981.0,16,-0.1,-0.1,0.1,-0.8,9.200000000000001,1.7000000000000002,8.799999999999999,-0.9,2.3000000000000003
1698921029998.0,16,-0.1,-0.1,0.0,-0.9,9.200000000000001,1.6,8.700000000000001,-1.3,2.9
1698921030015.0,16,-0.30000000000000004,-0.1,0.0,-1.0,9.3,1.6,9.3,-0.8,3.6
1698921030031.0,16,-0.2,0.0,-0.1,-0.9,9.3,1.5,10.0,-1.0,3.8
1698921030048.0,16,-0.1,0.0,-0.1,-0.8,9.3,1.4000000000000001,10.700000000000001,-1.0999999999999999,3.9
1698921030065.0,16,0.0,0.0,-0.1,-0.7000000000000001,9.4,1.4000000000000001,10.1,-2.8,3.4
1698921030082.0,16,0.0,0.1,0.0,-0.7000000000000001,9.4,1.5,9.700000000000001,-3.4,3.0000000000000004
1698921030098.0,16,0.0,0.2,0.0,-0.7000000000000001,9.600000000000001,1.5,9.4,-2.5,2.5
1698921030115.0,16,-0.1,0.6000000000000001,0.2,-0.7000000000000001,10.0,1.6,7.9,-3.7000000000000006,1.8
1698921030132.0,16,-0.2,0.7000000000000001,0.2,-0.8,10.100000000000001,1.6,7.400000000000001,-3.7000000000000006,0.9
1698921030148.0,16,-0.30000000000000004,0.7000000000000001,0.0,-1.0,10.100000000000001,1.4000000000000001,4.7,-2.5,0.0
1698921030165.0,16,-0.1,0.4,-0.1,-0.9,10.0,1.4000000000000001,3.8,-3.2,-0.30000000000000004
1698921030182.0,16,0.1,0.2,-0.2,-0.5,9.600000000000001,1.2000000000000002,3.2,-3.9,-0.2
1698921030198.0,16,0.30000000000000004,-0.1,-0.30000000000000004,-0.4,9.3,1.1,2.1,-3.2,0.7
1698921030215.0,16,0.30000000000000004,-0.2,-0.2,-0.30000000000000004,9.200000000000001,1.1,1.7,-2.8,2.1
1698921030231.0,16,0.30000000000000004,-0.2,-0.30000000000000004,-0.30000000000000004,9.200000000000001,1.1,2.1,-2.1999999999999997,2.8
1698921030249.0,16,0.0,-0.2,-0.30000000000000004,-0.6000000000000001,9.200000000000001,1.1,3.1,-3.6,3.6
1698921030265.0,16,-0.2,-0.2,0.0,-0.8,9.200000000000001,1.3,4.9,-6.1000000000000005,3.9
1698921030281.0,16,-0.2,0.0,0.0,-0.8,9.4,1.3,5.9,-6.6000000000000005,5.1
1698921030298.0,16,-0.1,0.2,-0.1,-0.7000000000000001,9.600000000000001,1.3,6.4,-6.000000000000001,4.6000000000000005
1698921030315.0,16,0.1,0.30000000000000004,-0.2,-0.5,9.700000000000001,1.1,4.6000000000000005,-7.6,5.1
1698921030332.0,16,0.2,0.30000000000000004,-0.1,-0.30000000000000004,9.700000000000001,1.2000000000000002,3.4,-8.1,5.6
1698921030349.0,16,0.4,0.4,-0.1,-0.1,9.8,1.2000000000000002,1.7,-6.1000000000000005,5.4
1698921030365.0,16,0.4,0.2,-0.2,-0.1,9.8,1.1,0.2,-5.8,4.5
1698921030381.0,16,0.30000000000000004,0.2,-0.2,-0.2,9.600000000000001,1.0,-0.9,-5.8,4.5
1698921030398.0,16,0.0,0.2,-0.2,-0.5,9.700000000000001,1.1,-2.1999999999999997,-5.4,6.6000000000000005
1698921030415.0,16,-0.30000000000000004,0.30000000000000004,-0.1,-0.7000000000000001,9.700000000000001,1.1,-1.6,-6.7,9.3
1698921030431.0,16,-0.30000000000000004,0.4,-0.2,-0.7000000000000001,9.8,1.1,-0.9,-7.699999999999999,9.9
1698921030448.0,16,0.0,0.30000000000000004,-0.2,-0.4,9.700000000000001,1.1,1.0999999999999999,-8.3,8.9
1698921030465.0,16,0.1,0.30000000000000004,-0.2,-0.30000000000000004,9.700000000000001,1.1,4.5,-10.3,8.4
1698921030482.0,16,0.1,0.30000000000000004,-0.30000000000000004,-0.2,9.700000000000001,1.1,5.7,-10.2,8.799999999999999
1698921030499.0,16,0.1,0.4,-0.4,-0.2,9.8,0.8,6.7,-7.1000000000000005,9.700000000000001
1698921030514.0,16,-0.2,0.4,-0.4,-0.5,9.9,0.8,2.3000000000000003,-6.5,13.4
1698921030531.0,16,-0.5,0.4,-0.2,-0.8,9.8,1.1,-4.0,-9.700000000000001,19.6
1698921030548.0,16,-0.5,0.4,0.0,-0.7000000000000001,9.8,1.2000000000000002,-8.3,-12.100000000000001,21.900000000000002
1698921030565.0,16,-0.5,0.4,0.1,-0.6000000000000001,9.8,1.4000000000000001,-23.400000000000002,-12.5,23.1
1698921030581.0,16,-0.4,0.2,0.1,-0.5,9.700000000000001,1.5,-30.000000000000004,-11.9,22.8
1698921030599.0,16,-0.4,-0.1,-2.2,-0.4,9.3,-0.8,-1.0,7.2,21.6
1698921030615.0,16,-0.2,0.8,0.5,-0.1,10.3,1.8,16.0,-17.599999999999998,26.3
1698921030632.0,16,-0.4,0.4,-0.1,-0.2,10.100000000000001,1.9000000000000001,2.1999999999999997,-7.400000000000001,30.5
1698921030648.0,16,-0.4,0.30000000000000004,-0.6000000000000001,-0.2,9.700000000000001,0.8,-20.3,3.3000000000000003,30.4
1698921030665.0,16,-0.30000000000000004,0.8,-1.0,0.0,10.3,0.4,-15.5,3.0000000000000004,28.1
1698921030682.0,16,-0.30000000000000004,0.9,-0.4,0.0,10.3,1.1,-18.1,-1.6,28.900000000000002
1698921030698.0,16,-0.7000000000000001,0.8,-0.6000000000000001,-0.2,10.200000000000001,0.9,-23.3,-1.4,34.300000000000004
1698921030715.0,16,-0.5,0.2,-0.2,0.1,9.600000000000001,1.4000000000000001,-32.7,-6.7,34.300000000000004
1698921030731.0,16,-0.4,0.30000000000000004,-0.4,0.30000000000000004,9.5,1.6,-38.0,-5.1,33.2
1698921030749.0,16,-0.2,0.30000000000000004,-0.30000000000000004,0.5,9.700000000000001,1.5,-41.7,-1.6,33.300000000000004
1698921030765.0,16,0.0,1.1,-0.6000000000000001,0.9,10.4,1.3,-48.400000000000006,8.799999999999999,33.0
1698921030782.0,16,0.2,1.2000000000000002,-0.8,1.0,10.5,1.4000000000000001,-56.5,17.9,34.400000000000006
1698921030798.0,16,0.4,1.6,-0.8,1.4000000000000001,10.9,1.5,-73.30000000000001,19.9,34.2
1698921030815.0,16,0.30000000000000004,0.8,-0.5,1.4000000000000001,9.9,2.0,-75.60000000000001,25.400000000000002,32.1
1698921030831.0,16,0.4,1.1,-0.8,1.5,10.200000000000001,1.8,-74.2,34.6,33.6
1698921030848.0,16,0.4,1.0,-1.8,1.6,10.100000000000001,1.1,-78.9,51.0,29.000000000000004
1698921030865.0,16,0.8,1.3,-2.3000000000000003,2.0,10.200000000000001,0.9,-91.50000000000001,51.2,26.9
1698921030882.0,16,1.4000000000000001,1.2000000000000002,-1.9000000000000001,2.5,10.200000000000001,2.1,-94.1,65.3,16.400000000000002
1698921030898.0,16,1.6,0.8,-2.8000000000000003,2.8000000000000003,9.600000000000001,0.9,-95.9,68.7,13.0
1698921030915.0,16,1.6,1.6,-1.8,2.8000000000000003,10.3,2.2,-97.7,57.00000000000001,12.5
1698921030931.0,16,1.8,3.9000000000000004,-1.1,2.9000000000000004,12.5,3.1,-83.30000000000001,55.300000000000004,13.0
1698921030948.0,16,1.8,4.800000000000001,-0.9,2.9000000000000004,13.4,3.4000000000000004,-74.8,59.80000000000001,14.500000000000002
1698921030964.0,16,0.8,3.7,0.0,1.9000000000000001,12.200000000000001,4.5,-52.900000000000006,65.89999999999999,16.5
1698921030981.0,16,1.0,2.5,-0.9,2.0,11.0,3.8000000000000003,-39.400000000000006,69.10000000000001,26.1
1698921030998.0,16,0.9,2.2,-1.1,2.0,10.600000000000001,3.6,-40.9,57.800000000000004,23.5
1698921031015.0,16,-0.1,1.3,-1.2000000000000002,0.9,9.700000000000001,3.7,-59.7,39.2,9.5
1698921031033.0,16,-1.0,0.30000000000000004,-0.5,0.0,8.5,4.7,-77.0,27.900000000000002,7.0
1698921031048.0,16,-1.3,1.1,-0.2,-0.30000000000000004,9.200000000000001,5.0,-82.2,24.200000000000003,5.6
1698921031065.0,16,-0.9,0.1,-0.30000000000000004,0.1,8.1,5.2,-80.7,17.9,4.800000000000001
1698921031081.0,16,-0.2,-0.7000000000000001,0.0,0.7000000000000001,7.2,5.7,-72.6,12.200000000000001,8.1
1698921031098.0,16,-0.1,-0.9,0.2,0.9,6.9,6.0,-59.60000000000001,7.8,17.200000000000003
1698921031115.0,16,-0.5,-1.9000000000000001,0.0,0.4,5.7,5.9,-56.0,4.1000000000000005,14.4
1698921031132.0,16,-0.30000000000000004,-1.1,0.4,0.6000000000000001,6.4,6.5,-44.9,12.4,10.1
1698921031149.0,16,-0.1,-1.8,0.30000000000000004,0.9,5.6000000000000005,6.4,-37.800000000000004,14.800000000000002,9.3
1698921031165.0,16,-0.4,-2.4000000000000004,0.8,0.5,5.0,6.9,-23.900000000000002,14.800000000000002,6.7
1698921031181.0,16,-0.1,-2.3000000000000003,1.0,0.8,5.1000000000000005,7.2,-7.9,21.8,3.4
1698921031199.0,16,0.1,-1.4000000000000001,1.2000000000000002,1.0,6.0,7.5,-2.5,22.5,-0.1
1698921031215.0,16,0.7000000000000001,-0.2,1.1,1.5,7.1000000000000005,7.4,2.4000000000000004,20.5,-8.799999999999999
1698921031231.0,16,-0.5,0.4,1.7000000000000002,0.30000000000000004,7.800000000000001,8.0,-0.5,10.600000000000001,-12.100000000000001
1698921031248.0,16,-2.7,-0.30000000000000004,1.6,-2.0,7.0,7.9,-9.8,-13.5,-9.5
1698921031265.0,16,-3.3000000000000003,-1.0,1.5,-2.5,6.300000000000001,7.9,-16.700000000000003,-19.700000000000003,-8.9
1698921031281.0,16,-2.3000000000000003,-1.2000000000000002,1.0,-1.6,6.1000000000000005,7.4,-21.400000000000002,-24.000000000000004,-8.0
1698921031298.0,16,-1.4000000000000001,-1.2000000000000002,0.8,-0.7000000000000001,6.0,7.300000000000001,-22.3,-24.9,-7.1000000000000005
1698921031315.0,16,-0.30000000000000004,0.30000000000000004,1.2000000000000002,0.5,7.5,7.7,-23.400000000000002,-28.8,-5.2
1698921031332.0,16,0.1,1.7000000000000002,1.2000000000000002,0.9,8.8,7.7,-29.500000000000004,-7.9,-8.3
1698921031348.0,16,0.8,2.0,1.1,1.6,9.1,7.7,-33.5,-8.4,-15.8
1698921031365.0,16,1.1,0.30000000000000004,1.0,1.9000000000000001,7.4,7.7,-33.300000000000004,-20.4,-34.0
1698921031381.0,16,0.30000000000000004,-2.2,0.7000000000000001,1.1,4.800000000000001,7.5,-25.900000000000002,-24.6,-35.6
1698921031398.0,16,0.0,-3.2,1.1,0.5,3.4000000000000004,8.1,-13.700000000000001,-28.8,-24.6
1698921031415.0,16,-0.9,-3.4000000000000004,1.4000000000000001,-0.1,3.5,8.200000000000001,-7.300000000000001,-24.9,-18.5
1698921031431.0,16,-1.1,-2.4000000000000004,0.4,-0.30000000000000004,4.5,7.300000000000001,1.3,-15.6,-7.6
1698921031449.0,16,-0.7000000000000001,-2.1,0.5,0.1,4.800000000000001,7.300000000000001,2.9,-12.4,-5.8
1698921031465.0,16,0.2,-1.4000000000000001,1.1,1.0,5.4,7.9,16.8,-20.0,-3.8
1698921031481.0,16,0.2,-1.4000000000000001,1.1,1.1,5.6000000000000005,7.800000000000001,26.200000000000003,-29.600000000000005,2.3000000000000003
1698921031498.0,16,0.6000000000000001,-1.0,1.2000000000000002,1.3,5.7,7.9,27.8,-34.400000000000006,7.1000000000000005
1698921031515.0,16,0.8,-0.7000000000000001,0.6000000000000001,1.8,6.4,7.300000000000001,30.200000000000003,-40.8,8.200000000000001
1698921031531.0,16,-0.1,0.30000000000000004,0.5,1.1,7.4,7.0,27.900000000000002,-45.7,8.600000000000001
1698921031548.0,16,-0.5,1.2000000000000002,0.4,0.9,7.800000000000001,7.2,34.900000000000006,-50.800000000000004,10.3
1698921031565.0,16,-0.6000000000000001,1.3,0.5,0.7000000000000001,8.6,6.800000000000001,44.8,-58.3,6.5
1698921031581.0,16,-1.1,0.8,0.1,0.4,8.1,6.300000000000001,44.5,-62.0,-1.8
1698921031598.0,16,-1.3,0.0,-0.30000000000000004,0.30000000000000004,7.4,5.7,49.6,-63.0,-6.000000000000001
1698921031615.0,16,-1.0,-0.2,-0.9,0.6000000000000001,7.300000000000001,5.1000000000000005,53.300000000000004,-60.8,-8.0
1698921031632.0,16,0.0,-0.1,-1.4000000000000001,1.7000000000000002,7.5,4.4,56.300000000000004,-68.9,-11.8
1698921031648.0,16,0.4,0.0,-0.9,2.0,7.7,4.6000000000000005,56.7,-68.60000000000001,-16.5
1698921031665.0,16,0.6000000000000001,-0.2,-1.3,2.5,7.6000000000000005,4.1000000000000005,58.800000000000004,-65.60000000000001,-15.8
1698921031682.0,16,0.5,-1.3,-1.7000000000000002,2.5,6.6000000000000005,3.5,62.0,-73.30000000000001,-14.900000000000002
1698921031698.0,16,-0.7000000000000001,-2.8000000000000003,-1.7000000000000002,1.4000000000000001,5.2,3.3000000000000003,69.2,-68.80000000000001,-12.8
1698921031715.0,16,-1.1,-3.5,-1.8,1.0,4.6000000000000005,3.0,78.9,-71.9,-11.6
1698921031731.0,16,-1.9000000000000001,-5.0,-2.4000000000000004,0.30000000000000004,3.2,2.1,98.9,-79.9,-13.6
1698921031748.0,16,-2.3000000000000003,-6.1000000000000005,-3.1,0.0,2.2,1.0,105.80000000000001,-87.3,-21.400000000000002
1698921031764.0,16,-2.2,-7.0,-2.5,0.1,1.4000000000000001,1.2000000000000002,94.9,-76.9,-29.200000000000003
1698921031781.0,16,-1.5,-7.1000000000000005,-2.0,0.8,1.3,1.5,85.60000000000001,-73.2,-31.8
1698921031798.0,16,0.2,-7.300000000000001,-1.1,2.4000000000000004,1.2000000000000002,2.2,62.4,-68.0,-43.800000000000004
1698921031815.0,16,0.7000000000000001,-6.7,-1.0,2.9000000000000004,1.8,2.2,45.4,-67.5,-50.300000000000004
1698921031831.0,16,0.5,-5.6000000000000005,-0.6000000000000001,2.6,2.9000000000000004,2.5,6.8,-66.7,-48.1
1698921031848.0,16,0.4,-3.9000000000000004,0.2,2.4000000000000004,4.6000000000000005,3.3000000000000003,-21.900000000000002,-55.300000000000004,-32.1
1698921031865.0,16,0.30000000000000004,-2.8000000000000003,0.6000000000000001,2.4000000000000004,5.6000000000000005,3.7,-29.800000000000004,-40.1,-25.3
1698921031881.0,16,1.7000000000000002,1.3,2.4000000000000004,3.7,9.700000000000001,5.7,-25.0,-4.3999999999999995,-13.8
1698921031898.0,16,5.4,8.5,1.8,7.4,17.0,5.0,24.000000000000004,37.6,-23.900000000000002
1698921031915.0,16,5.0,10.600000000000001,0.5,6.9,19.200000000000003,3.6,41.5,29.000000000000004,-50.9
1698921031932.0,16,1.4000000000000001,6.2,2.0,3.1,15.0,5.0,48.00000000000001,-20.5,-57.699999999999996
1698921031949.0,16,-0.30000000000000004,-0.2,1.5,1.4000000000000001,8.6,4.4,36.3,-12.100000000000001,-9.0
1698921031964.0,16,-0.30000000000000004,-0.30000000000000004,0.1,1.4000000000000001,8.6,3.0,26.0,-11.8,-12.4
1698921031981.0,16,0.2,-0.1,-0.1,1.9000000000000001,8.8,2.7,21.5,-9.200000000000001,-14.3
1698921031998.0,16,0.9,-0.6000000000000001,0.4,2.5,8.3,3.1,17.0,-4.1000000000000005,-9.1
1698921032015.0,16,1.1,-1.0,0.30000000000000004,2.7,7.9,3.0,11.8,-3.8,-7.699999999999999
1698921032031.0,16,0.9,-1.2000000000000002,0.2,2.6,7.800000000000001,2.9000000000000004,6.7,-2.7,-9.0
1698921032048.0,16,0.8,-1.5,0.1,2.5,7.4,2.8000000000000003,-1.0,2.1999999999999997,-11.6
1698921032065.0,16,0.8,-1.3,0.0,2.5,7.4,2.7,-1.9,5.8,-12.100000000000001
1698921032081.0,16,0.7000000000000001,-0.8,0.0,2.3000000000000003,8.1,2.7,0.8,13.200000000000001,-10.1
1698921032098.0,16,0.7000000000000001,-0.2,0.2,2.2,8.8,2.9000000000000004,5.1,16.400000000000002,-7.9
1698921032114.0,16,0.4,0.30000000000000004,0.1,1.9000000000000001,9.200000000000001,2.8000000000000003,6.3,21.0,-6.000000000000001
1698921032132.0,16,0.30000000000000004,0.6000000000000001,0.0,1.7000000000000002,9.5,2.7,6.1000000000000005,22.900000000000002,-4.1000000000000005
1698921032148.0,16,0.5,0.8,-0.5,1.9000000000000001,9.8,2.2,7.699999999999999,20.4,-2.5
1698921032165.0,16,0.4,0.30000000000000004,-0.30000000000000004,1.8,9.3,2.4000000000000004,11.6,15.8,-2.0
1698921032182.0,16,0.30000000000000004,0.1,-0.30000000000000004,1.7000000000000002,9.1,2.3000000000000003,14.100000000000001,15.299999999999999,-1.7
1698921032198.0,16,0.0,-0.2,-0.5,1.4000000000000001,8.8,2.1,16.1,16.400000000000002,-1.3
1698921032215.0,16,-0.1,-0.5,-0.5,1.3,8.5,2.1,15.6,17.400000000000002,-1.9
1698921032231.0,16,-0.1,-0.4,-0.5,1.2000000000000002,8.6,2.0,14.600000000000001,19.1,-1.8
1698921032248.0,16,-0.1,0.0,-0.5,1.2000000000000002,9.1,2.0,12.9,18.1,-1.3
1698921032265.0,16,0.2,0.4,-0.5,1.5,9.4,2.0,9.4,15.7,-2.1999999999999997
1698921032282.0,16,0.1,0.5,-0.2,1.4000000000000001,9.5,2.2,8.1,15.9,-1.7
1698921032299.0,16,0.1,0.6000000000000001,-0.30000000000000004,1.4000000000000001,9.600000000000001,2.1,8.9,15.100000000000001,-0.8
1698921032314.0,16,0.0,0.4,-0.2,1.3,9.5,2.2,7.9,15.299999999999999,-2.1999999999999997
1698921032331.0,16,0.1,0.30000000000000004,-0.30000000000000004,1.3,9.4,2.1,7.699999999999999,15.000000000000002,-2.1
1698921032348.0,16,0.0,0.1,-0.30000000000000004,1.3,9.200000000000001,2.0,6.4,16.900000000000002,-1.3
1698921032365.0,16,0.0,0.1,-0.30000000000000004,1.2000000000000002,9.200000000000001,2.0,6.3,17.9,-1.5000000000000002
1698921032381.0,16,0.1,0.0,-0.4,1.3,9.1,2.0,6.3,16.900000000000002,-1.3
1698921032398.0,16,0.1,0.0,-0.4,1.3,9.1,1.9000000000000001,4.9,15.7,-0.1
1698921032415.0,16,0.1,0.1,-0.30000000000000004,1.3,9.200000000000001,2.0,4.5,15.000000000000002,-0.30000000000000004
1698921032432.0,16,0.1,0.2,-0.30000000000000004,1.3,9.3,2.0,3.7000000000000006,14.900000000000002,-1.0999999999999999
1698921032448.0,16,0.1,0.2,-0.2,1.3,9.3,2.1,1.6,15.5,-2.4000000000000004
1698921032472.0,16,0.1,0.1,-0.2,1.3,9.200000000000001,2.1,1.0,14.4,-2.5
1698921032482.0,16,0.2,0.1,-0.2,1.3,9.200000000000001,2.1,1.3,14.600000000000001,-3.1
1698921032498.0,16,0.1,0.1,-0.30000000000000004,1.2000000000000002,9.200000000000001,2.0,2.3000000000000003,16.5,-4.5
1698921032514.0,16,0.1,-0.2,-0.5,1.2000000000000002,8.9,1.8,2.7,18.2,-5.7
1698921032531.0,16,0.1,-0.4,-0.7000000000000001,1.2000000000000002,8.8,1.7000000000000002,2.3000000000000003,20.2,-6.8
1698921032548.0,16,0.2,-0.4,-0.7000000000000001,1.3,8.8,1.5,1.2000000000000002,24.9,-8.4
1698921032565.0,16,0.5,-0.2,-0.6000000000000001,1.5,8.9,1.6,2.4000000000000004,28.0,-9.200000000000001
1698921032581.0,16,0.6000000000000001,0.0,-0.8,1.5,9.1,1.4000000000000001,3.1,29.600000000000005,-9.1
1698921032600.0,16,0.8,0.1,-0.8,1.7000000000000002,9.3,1.4000000000000001,1.6,28.900000000000002,-9.3
1698921032615.0,16,1.0,-0.30000000000000004,-0.30000000000000004,1.9000000000000001,8.8,1.9000000000000001,0.4,29.000000000000004,-9.9
1698921032631.0,16,0.8,-0.4,-0.1,1.7000000000000002,8.700000000000001,2.1,1.8,31.5,-9.0
1698921032648.0,16,0.6000000000000001,-0.1,-0.2,1.4000000000000001,9.0,2.0,5.6,28.700000000000003,-6.5
1698921032665.0,16,0.30000000000000004,-0.1,0.0,1.1,9.0,2.2,4.2,23.2,-8.0
1698921032682.0,16,0.1,-0.1,0.0,0.9,9.0,2.3000000000000003,2.6,22.7,-8.5
1698921032698.0,16,0.30000000000000004,0.1,-0.1,1.0,9.200000000000001,2.2,-2.3000000000000003,21.1,-8.4
1698921032715.0,16,0.8,0.2,-0.1,1.4000000000000001,9.4,2.2,-8.200000000000001,19.400000000000002,-12.8
1698921032732.0,16,1.1,0.0,0.2,1.6,9.200000000000001,2.4000000000000004,-10.4,21.700000000000003,-16.0
1698921032749.0,16,1.3,-0.2,0.4,1.8,8.9,2.7,-10.2,32.1,-23.2
1698921032764.0,16,1.5,-0.5,0.6000000000000001,1.9000000000000001,8.6,3.0,-4.0,44.6,-29.400000000000002
1698921032781.0,16,1.5,-0.8,0.8,1.9000000000000001,8.5,3.2,0.2,45.9,-30.599999999999998
1698921032799.0,16,1.3,-0.9,0.6000000000000001,1.6,8.200000000000001,2.9000000000000004,3.7000000000000006,47.5,-31.3
1698921032815.0,16,0.7000000000000001,-0.7000000000000001,0.7000000000000001,0.9,8.5,3.1,-1.3,47.6,-26.500000000000004
1698921032832.0,16,0.2,-0.30000000000000004,1.0,-0.5,9.4,3.4000000000000004,-1.0999999999999999,49.3,-19.400000000000002
1698921032848.0,16,-1.2000000000000002,0.9,1.0,-1.2000000000000002,10.100000000000001,3.4000000000000004,0.7,48.300000000000004,-16.3
1698921032865.0,16,-2.0,1.4000000000000001,0.8,-2.1,10.600000000000001,3.2,5.8,47.6,-8.799999999999999
1698921032881.0,16,-2.6,1.3,0.0,-2.4000000000000004,10.5,2.6,6.5,45.800000000000004,-4.7
1698921032899.0,16,-2.6,1.4000000000000001,0.0,-2.8000000000000003,10.600000000000001,2.3000000000000003,2.8,27.3,1.0999999999999999
1698921032914.0,16,-2.6,1.3,-0.2,-2.8000000000000003,10.5,2.2,-0.5,10.9,2.7
1698921032931.0,16,-1.7000000000000002,0.4,-0.2,-1.9000000000000001,9.600000000000001,2.2,-1.8,8.799999999999999,-0.5
1698921032948.0,16,-1.1,0.0,-0.1,-1.3,9.1,2.2,-0.7,6.3,-1.2000000000000002
1698921032965.0,16,-0.7000000000000001,-0.6000000000000001,-0.1,-1.0,8.6,2.2,1.9,4.1000000000000005,-5.1
1698921032981.0,16,-0.30000000000000004,-0.9,0.0,-0.6000000000000001,8.200000000000001,2.4000000000000004,2.4000000000000004,8.200000000000001,-12.4
1698921032998.0,16,-0.1,-1.0,-0.1,-0.5,8.200000000000001,2.3000000000000003,1.2000000000000002,9.4,-14.0
1698921033015.0,16,0.0,-0.6000000000000001,0.0,-0.30000000000000004,8.6,2.3000000000000003,-4.1000000000000005,9.1,-12.4
1698921033031.0,16,-0.7000000000000001,0.30000000000000004,-0.1,-1.1,9.4,2.3000000000000003,-8.200000000000001,9.9,-3.6
1698921033048.0,16,-1.3,0.6000000000000001,-0.1,-1.8,9.700000000000001,2.3000000000000003,-8.4,11.6,-1.2000000000000002
1698921033065.0,16,-1.7000000000000002,0.5,-0.2,-2.1,9.700000000000001,2.2,-5.0,8.5,-0.2
1698921033081.0,16,-1.8,0.30000000000000004,-0.4,-2.2,9.4,2.0,-0.4,1.6,6.1000000000000005
1698921033098.0,16,-1.6,-0.1,-0.30000000000000004,-2.1,9.3,2.0,2.3000000000000003,-2.0,0.5
1698921033115.0,16,-1.3,-0.30000000000000004,-0.30000000000000004,-1.8,8.8,2.1,3.6,-2.6,-4.800000000000001
1698921033131.0,16,-0.7000000000000001,-0.4,-0.30000000000000004,-1.2000000000000002,8.700000000000001,2.1,4.800000000000001,-3.6,-4.800000000000001
1698921033148.0,16,-0.6000000000000001,-0.2,-0.30000000000000004,-1.1,8.9,2.1,5.2,-2.5,-4.0
1698921033164.0,16,-0.5,-0.2,-0.2,-1.0,9.0,2.1,7.0,-3.2,-4.1000000000000005
1698921033181.0,16,-0.5,-0.2,-0.2,-1.0,9.0,2.1,8.200000000000001,-1.9,-2.9
1698921033198.0,16,-0.5,-0.30000000000000004,-0.1,-1.0,8.9,2.2,8.700000000000001,-1.6,-2.6
1698921033215.0,16,-0.4,-0.2,-0.1,-1.0,9.0,2.2,9.8,0.6000000000000001,-1.8
1698921033231.0,16,-0.4,0.0,-0.1,-1.0,9.200000000000001,2.2,10.3,3.8,-0.4
1698921033248.0,16,-0.4,0.1,0.0,-1.0,9.3,2.2,10.4,5.2,0.4
1698921033265.0,16,-0.5,0.30000000000000004,0.0,-1.0,9.5,2.2,10.5,5.500000000000001,2.1
1698921033281.0,16,-0.4,0.2,0.0,-1.0,9.4,2.2,9.9,4.7,4.5
1698921033298.0,16,-0.4,0.2,0.0,-0.9,9.4,2.1,9.600000000000001,4.1000000000000005,5.0
1698921033315.0,16,-0.4,0.0,-0.1,-1.0,9.200000000000001,2.0,9.0,3.8,4.300000000000001
1698921033331.0,16,-0.6000000000000001,-0.1,-0.2,-1.1,9.1,1.9000000000000001,10.0,4.2,3.7000000000000006
1698921033348.0,16,-0.6000000000000001,-0.1,-0.2,-1.1,9.200000000000001,1.8,11.000000000000002,4.1000000000000005,3.3000000000000003
1698921033365.0,16,-0.5,-0.1,-0.2,-1.0,9.200000000000001,1.8,12.8,3.7000000000000006,2.3000000000000003
1698921033381.0,16,-0.30000000000000004,-0.1,-0.2,-0.8,9.200000000000001,1.8,14.500000000000002,4.800000000000001,1.0999999999999999
1698921033398.0,16,-0.2,0.1,-0.2,-0.8,9.3,1.8,14.900000000000002,4.800000000000001,0.9
1698921033415.0,16,-0.1,0.30000000000000004,0.0,-0.6000000000000001,9.600000000000001,1.9000000000000001,14.900000000000002,4.9,0.9
1698921033431.0,16,0.0,0.4,0.0,-0.6000000000000001,9.700000000000001,1.9000000000000001,14.0,7.300000000000001,1.5000000000000002
1698921033449.0,16,0.0,0.4,0.1,-0.6000000000000001,9.700000000000001,1.9000000000000001,12.9,8.3,2.5
1698921033465.0,16,-0.1,0.2,0.2,-0.6000000000000001,9.5,2.0,10.9,10.5,4.3999999999999995
1698921033481.0,16,-0.2,0.2,0.2,-0.7000000000000001,9.5,2.0,9.3,9.9,5.7
1698921033498.0,16,-0.30000000000000004,0.2,0.2,-0.8,9.5,1.9000000000000001,8.4,9.1,6.1000000000000005
1698921033515.0,16,-0.30000000000000004,0.2,0.1,-0.8,9.5,1.8,7.500000000000001,8.600000000000001,6.1000000000000005
1698921033531.0,16,-0.5,0.30000000000000004,0.1,-1.0,9.600000000000001,1.8,4.800000000000001,7.400000000000001,5.9
1698921033548.0,16,-0.5,0.30000000000000004,0.1,-1.0,9.600000000000001,1.8,4.0,7.400000000000001,5.1
1698921033565.0,16,-0.30000000000000004,0.2,0.30000000000000004,-0.8,9.5,2.0,2.9,7.500000000000001,3.7000000000000006
1698921033581.0,16,-0.1,0.0,0.4,-0.6000000000000001,9.4,2.0,3.2,6.5,3.7000000000000006
1698921033599.0,16,0.1,0.0,0.5,-0.4,9.3,2.2,4.2,5.7,5.1
1698921033615.0,16,0.1,0.0,0.5,-0.4,9.3,2.2,4.800000000000001,6.2,5.4
1698921033631.0,16,0.1,0.0,0.5,-0.30000000000000004,9.4,2.1,5.6,7.500000000000001,5.4
1698921033648.0,16,0.1,0.1,0.4,-0.30000000000000004,9.3,2.0,5.2,8.600000000000001,4.9
1698921033665.0,16,0.1,0.2,0.4,-0.30000000000000004,9.5,2.0,3.2,12.700000000000001,4.300000000000001
1698921033681.0,16,0.1,0.1,0.30000000000000004,-0.30000000000000004,9.5,1.9000000000000001,-0.4,20.1,6.3
1698921033698.0,16,0.1,0.1,0.30000000000000004,-0.30000000000000004,9.4,1.9000000000000001,-2.4000000000000004,22.7,7.300000000000001
1698921033715.0,16,0.2,0.0,0.30000000000000004,-0.2,9.4,1.9000000000000001,-3.4,24.000000000000004,9.8
1698921033732.0,16,0.1,0.0,0.30000000000000004,-0.30000000000000004,9.4,1.9000000000000001,-2.6,20.2,12.6
1698921033748.0,16,0.0,0.0,0.2,-0.30000000000000004,9.4,1.9000000000000001,-0.8,15.7,14.900000000000002
1698921033764.0,16,-0.1,0.0,0.0,-0.4,9.3,1.7000000000000002,-0.4,14.800000000000002,15.5
1698921033785.0,16,-0.4,0.0,0.0,-0.7000000000000001,9.4,1.6,0.6000000000000001,14.500000000000002,14.3
1698921033798.0,16,-0.6000000000000001,0.0,-0.2,-0.8,9.4,1.5,3.0000000000000004,12.5,9.0
1698921033815.0,16,-0.6000000000000001,0.1,-0.30000000000000004,-0.8,9.4,1.4000000000000001,4.300000000000001,11.6,5.8
1698921033831.0,16,-0.7000000000000001,0.1,-0.6000000000000001,-0.9,9.5,1.1,5.9,9.600000000000001,1.6
1698921033848.0,16,-0.8,0.30000000000000004,-0.7000000000000001,-1.0,9.600000000000001,1.0,6.000000000000001,6.9,0.30000000000000004
1698921033865.0,16,-0.8,0.4,-0.8,-1.1,9.8,0.8,5.1,1.6,0.7
1698921033881.0,16,-0.9,0.8,-0.6000000000000001,-1.1,10.200000000000001,1.0,0.5,-5.4,2.0
1698921033898.0,16,-1.0,1.0,-0.4,-1.3,10.4,1.2000000000000002,-2.0,-9.3,1.0999999999999999
1698921033915.0,16,-1.0,0.9,-0.4,-1.2000000000000002,10.3,1.2000000000000002,-3.4,-12.8,0.6000000000000001
1698921033931.0,16,-0.6000000000000001,0.2,-0.30000000000000004,-0.9,9.600000000000001,1.4000000000000001,-7.0,-19.400000000000002,-1.0
1698921033948.0,16,-0.1,-0.4,-0.1,-0.4,9.0,1.6,-7.8,-24.000000000000004,-4.9
1698921033965.0,16,0.2,-0.6000000000000001,0.0,-0.1,8.8,1.6,-7.1000000000000005,-24.6,-6.6000000000000005
1698921033982.0,16,0.7000000000000001,-0.6000000000000001,0.1,0.4,8.8,1.7000000000000002,-4.300000000000001,-22.6,-7.400000000000001
1698921033998.0,16,0.8,-0.30000000000000004,0.1,0.5,9.1,1.8,-0.8,-18.8,-5.1
1698921034015.0,16,0.8,-0.2,0.1,0.5,9.200000000000001,1.8,0.8,-15.7,-5.1
1698921034032.0,16,0.8,0.0,0.2,0.5,9.4,1.8,3.4,-10.3,-3.8
1698921034048.0,16,0.7000000000000001,0.0,0.2,0.4,9.3,1.9000000000000001,3.8,-2.5,-0.1
1698921034065.0,16,0.7000000000000001,-0.1,0.2,0.4,9.3,1.9000000000000001,3.4,1.2000000000000002,2.0
1698921034081.0,16,0.5,0.0,0.4,0.2,9.3,2.0,3.2,5.8,4.2
1698921034098.0,16,0.4,0.0,0.4,0.2,9.4,2.0,4.300000000000001,9.5,4.800000000000001
1698921034115.0,16,0.30000000000000004,0.0,0.4,0.1,9.4,2.0,4.2,12.700000000000001,4.300000000000001
1698921034132.0,16,0.2,-0.1,0.30000000000000004,0.0,9.3,1.9000000000000001,3.2,16.900000000000002,3.0000000000000004
1698921034148.0,16,0.2,0.0,0.1,0.0,9.3,1.8,2.4000000000000004,18.3,2.1
1698921034165.0,16,0.30000000000000004,-0.1,0.0,0.1,9.3,1.6,-0.2,19.0,0.0
1698921034182.0,16,0.2,0.0,-0.30000000000000004,0.0,9.4,1.3,-3.7000000000000006,16.8,-0.8
1698921034199.0,16,0.1,0.6000000000000001,0.0,-0.2,10.0,1.7000000000000002,-4.300000000000001,17.1,-0.5
1698921034215.0,16,0.0,0.7000000000000001,0.0,-0.2,10.100000000000001,1.6,-3.6,19.1,-1.0999999999999999
1698921034232.0,16,-0.1,0.30000000000000004,0.1,-0.4,9.700000000000001,1.7000000000000002,-3.2,21.3,-1.3
1698921034248.0,16,-0.2,-0.1,0.2,-0.5,9.3,1.8,-4.0,22.2,2.0
1698921034265.0,16,-0.30000000000000004,-0.2,0.2,-0.5,9.200000000000001,1.8,-4.300000000000001,21.5,3.6
1698921034282.0,16,-0.30000000000000004,-0.2,0.2,-0.6000000000000001,9.1,1.9000000000000001,-4.300000000000001,17.7,4.7
1698921034299.0,16,-0.30000000000000004,-0.2,0.1,-0.6000000000000001,9.200000000000001,1.8,-3.4,15.299999999999999,4.3999999999999995
1698921034315.0,16,-0.30000000000000004,0.0,0.1,-0.6000000000000001,9.3,1.8,-3.4,14.900000000000002,4.2
1698921034332.0,16,-0.2,0.0,0.1,-0.5,9.3,1.8,-3.2,13.6,3.1
1698921034349.0,16,-0.2,-0.1,0.1,-0.4,9.3,1.8,-3.2,12.9,1.8
1698921034364.0,16,0.0,-0.1,0.30000000000000004,-0.30000000000000004,9.3,2.0,-2.5,9.700000000000001,1.2000000000000002
1698921034383.0,16,0.0,-0.1,0.1,-0.30000000000000004,9.200000000000001,1.8,-1.0,10.600000000000001,1.3
1698921034398.0,16,0.0,-0.1,0.0,-0.30000000000000004,9.200000000000001,1.8,0.30000000000000004,8.799999999999999,1.6
1698921034415.0,16,-0.1,0.0,-0.1,-0.4,9.3,1.7000000000000002,1.0,8.600000000000001,2.0
1698921034432.0,16,-0.1,0.0,0.0,-0.4,9.4,1.7000000000000002,2.0,7.8,2.8
1698921034448.0,16,-0.1,0.1,-0.1,-0.4,9.4,1.6,2.4000000000000004,7.699999999999999,2.0
1698921034464.0,16,-0.2,0.1,0.0,-0.5,9.4,1.7000000000000002,2.1,7.1000000000000005,-0.1
1698921034482.0,16,0.0,0.0,0.0,-0.4,9.4,1.7000000000000002,2.6,4.800000000000001,-0.30000000000000004
1698921034498.0,16,0.2,-0.1,0.0,-0.1,9.3,1.7000000000000002,0.30000000000000004,2.3000000000000003,0.7
1698921034514.0,16,0.1,0.2,0.1,-0.2,9.600000000000001,1.8,1.4,2.1999999999999997,0.7
1698921034532.0,16,0.1,0.2,0.1,-0.2,9.600000000000001,1.7000000000000002,1.3,1.8,0.1
1698921034548.0,16,0.1,0.2,0.0,-0.2,9.600000000000001,1.7000000000000002,0.2,1.8,0.6000000000000001
1698921034564.0,16,0.1,0.2,0.0,-0.30000000000000004,9.600000000000001,1.6,-0.4,1.9,1.0
1698921034582.0,16,0.0,0.1,0.0,-0.30000000000000004,9.5,1.7000000000000002,-1.2000000000000002,1.6,1.7
1698921034598.0,16,0.2,0.0,0.1,-0.1,9.4,1.8,-0.1,0.8,1.5000000000000002
1698921034614.0,16,0.2,0.0,0.1,-0.1,9.4,1.8,-0.5,1.2000000000000002,2.5
1698921034632.0,16,0.1,0.0,0.1,-0.2,9.4,1.8,-2.1,2.3000000000000003,2.5
1698921034648.0,16,0.0,0.1,0.1,-0.2,9.4,1.8,-3.8,2.5,1.7
1698921034664.0,16,0.1,0.0,0.0,-0.2,9.4,1.7000000000000002,-3.2,2.3000000000000003,0.0
1698921034681.0,16,0.1,0.0,0.0,-0.2,9.4,1.7000000000000002,-2.6,2.7,-0.8
1698921034699.0,16,0.2,-0.1,0.1,-0.1,9.200000000000001,1.8,-1.0999999999999999,3.8,-1.9
1698921034714.0,16,0.2,-0.2,0.1,-0.1,9.200000000000001,1.8,-1.0,5.2,-1.2000000000000002
1698921034732.0,16,0.30000000000000004,-0.2,0.1,0.0,9.1,1.8,-1.6,5.4,-0.5
1698921034748.0,16,0.2,-0.2,0.1,0.0,9.200000000000001,1.8,-2.9,5.2,2.0
1698921034765.0,16,0.1,-0.1,0.0,-0.1,9.200000000000001,1.8,-2.0,4.7,3.3000000000000003
1698921034781.0,16,0.1,0.0,0.0,-0.1,9.3,1.7000000000000002,-0.6000000000000001,4.5,4.0
1698921034798.0,16,0.0,0.1,-0.1,-0.2,9.4,1.7000000000000002,1.8,4.800000000000001,4.5
1698921034814.0,16,0.0,0.1,0.0,-0.2,9.5,1.7000000000000002,2.4000000000000004,4.2,3.4
1698921034831.0,16,-0.1,0.1,0.0,-0.30000000000000004,9.4,1.7000000000000002,2.1999999999999997,3.8,2.7
1698921034849.0,16,-0.1,0.0,0.0,-0.30000000000000004,9.4,1.7000000000000002,1.0,1.9,2.1999999999999997
1698921034865.0,16,-0.1,0.0,0.0,-0.30000000000000004,9.4,1.7000000000000002,0.0,0.1,2.3000000000000003
1698921034882.0,16,-0.1,0.0,0.0,-0.30000000000000004,9.3,1.7000000000000002,-0.30000000000000004,-0.30000000000000004,1.7
1698921034899.0,16,0.0,0.0,0.0,-0.2,9.3,1.8,0.4,-1.0,-0.30000000000000004
1698921034914.0,16,0.0,0.0,0.0,-0.1,9.3,1.8,0.9,-1.9,0.4
1698921034931.0,16,0.0,0.1,0.0,-0.2,9.4,1.8,0.8,-3.1,-0.1
1698921034948.0,16,0.0,0.1,0.0,-0.2,9.5,1.7000000000000002,0.6000000000000001,-3.7000000000000006,-0.1
1698921034965.0,16,0.0,0.1,0.0,-0.2,9.4,1.7000000000000002,-0.2,-6.2,-0.2
1698921034981.0,16,0.0,0.0,0.2,-0.1,9.4,1.9000000000000001,-0.8,-7.500000000000001,-0.4
1698921034998.0,16,0.0,0.0,0.2,-0.1,9.3,1.9000000000000001,-0.7,-7.400000000000001,-0.4
1698921035015.0,16,0.0,0.0,0.2,-0.1,9.3,1.9000000000000001,-0.2,-6.6000000000000005,-0.30000000000000004
1698921035032.0,16,0.1,0.0,0.1,-0.1,9.3,1.8,0.7,-6.6000000000000005,-0.5
1698921035048.0,16,0.1,0.0,0.1,-0.1,9.3,1.8,1.0,-6.6000000000000005,-0.5
1698921035065.0,16,0.1,0.0,0.0,-0.1,9.3,1.8,0.9,-6.9,-1.0999999999999999
1698921035081.0,16,0.1,-0.1,0.0,-0.1,9.3,1.8,0.8,-7.1000000000000005,-1.0999999999999999
1698921035098.0,16,0.0,0.0,0.0,-0.1,9.3,1.8,0.9,-6.9,-1.0999999999999999
1698921035115.0,16,0.1,0.0,0.0,-0.1,9.3,1.8,0.9,-7.699999999999999,-0.6000000000000001
1698921035132.0,16,0.1,0.0,0.1,-0.1,9.4,1.8,0.9,-7.9,0.2
1698921035148.0,16,0.0,0.1,0.0,-0.2,9.4,1.8,0.6000000000000001,-7.1000000000000005,0.7
1698921035165.0,16,0.0,0.1,0.0,-0.2,9.4,1.8,0.2,-6.9,0.30000000000000004
1698921035181.0,16,0.0,0.0,0.0,-0.2,9.4,1.8,0.0,-6.7,-0.2
1698921035199.0,16,0.1,0.0,0.0,0.0,9.3,1.8,-0.2,-6.7,-0.6000000000000001
1698921035215.0,16,0.1,0.0,0.1,0.0,9.3,1.8,-0.4,-6.1000000000000005,-0.1
1698921035231.0,16,0.1,0.0,0.0,0.0,9.3,1.8,-0.2,-5.8,0.6000000000000001
1698921035248.0,16,0.1,0.0,0.0,0.0,9.3,1.8,0.0,-5.500000000000001,0.8
1698921035265.0,16,0.0,0.0,0.0,-0.1,9.4,1.8,0.1,-4.9,1.0
1698921035281.0,16,0.0,0.0,0.0,0.0,9.3,1.8,0.6000000000000001,-4.1000000000000005,1.2000000000000002
1698921035299.0,16,0.0,0.0,0.0,0.0,9.3,1.8,0.8,-3.6,1.2000000000000002
1698921035315.0,16,0.0,0.0,0.0,-0.1,9.3,1.8,1.2000000000000002,-2.6,1.5000000000000002
1698921035331.0,16,0.0,0.0,0.0,-0.1,9.4,1.7000000000000002,1.3,-2.5,1.5000000000000002
1698921035349.0,16,0.0,0.0,0.0,-0.1,9.4,1.7000000000000002,1.3,-2.8,1.2000000000000002
1698921035365.0,16,0.0,0.0,0.0,-0.1,9.4,1.7000000000000002,1.3,-2.8,1.0999999999999999
1698921035381.0,16,0.0,0.0,-0.1,-0.1,9.4,1.7000000000000002,1.0,-3.3000000000000003,0.8
1698921035398.0,16,0.0,0.0,0.0,-0.1,9.4,1.7000000000000002,1.0,-3.3000000000000003,0.7
1698921035415.0,16,0.0,0.0,-0.1,-0.1,9.4,1.7000000000000002,1.0,-3.1,-0.1
1698921035432.0,16,0.0,0.0,0.0,-0.1,9.4,1.7000000000000002,1.3,-2.8,-0.6000000000000001
1698921035448.0,16,0.0,0.0,0.0,-0.1,9.3,1.7000000000000002,1.5000000000000002,-2.4000000000000004,-0.6000000000000001
1698921035465.0,16,-0.1,0.0,0.0,-0.2,9.3,1.7000000000000002,1.8,-1.5000000000000002,-0.8
1698921035482.0,16,-0.1,0.0,0.0,-0.2,9.4,1.7000000000000002,1.9,-1.6,-0.8
1698921035499.0,16,-0.1,0.1,0.0,-0.1,9.4,1.7000000000000002,1.8,-2.1999999999999997,-0.2
1698921035515.0,16,-0.1,0.0,0.0,-0.2,9.4,1.7000000000000002,1.3,-3.0000000000000004,-0.30000000000000004
1698921035532.0,16,-0.1,0.0,0.0,-0.2,9.4,1.7000000000000002,0.9,-3.1,-0.30000000000000004
1698921035548.0,16,-0.1,0.0,-0.1,-0.2,9.4,1.6,0.7,-3.3000000000000003,-0.1
1698921035565.0,16,-0.1,0.0,-0.1,-0.2,9.3,1.6,1.5000000000000002,-3.6,0.1
1698921035581.0,16,-0.1,0.0,0.0,-0.2,9.4,1.7000000000000002,2.1,-3.4,0.0
1698921035598.0,16,-0.1,0.1,0.1,-0.2,9.5,1.8,1.8,-3.2,-0.2
1698921035615.0,16,-0.1,0.1,0.0,-0.2,9.5,1.7000000000000002,0.2,-2.8,-0.7
1698921035631.0,16,0.0,0.0,0.0,-0.1,9.4,1.7000000000000002,-0.4,-3.3000000000000003,-1.2000000000000002
1698921035648.0,16,-0.1,0.0,0.0,-0.2,9.3,1.7000000000000002,0.2,-3.3000000000000003,-0.7
1698921035665.0,16,-0.1,0.0,0.0,-0.2,9.4,1.7000000000000002,0.5,-3.4,-0.4
1698921035681.0,16,-0.1,0.1,0.0,-0.2,9.5,1.7000000000000002,0.4,-3.6,-0.30000000000000004
1698921035698.0,16,-0.1,0.1,-0.1,-0.2,9.5,1.6,0.4,-3.9,-0.2
1698921035714.0,16,-0.1,0.1,-0.1,-0.2,9.5,1.6,0.4,-3.7000000000000006,-0.2
1698921035731.0,16,-0.1,0.1,-0.1,-0.2,9.5,1.6,-0.2,-3.9,-0.4
1698921035748.0,16,0.0,0.1,-0.1,-0.2,9.5,1.6,-1.0999999999999999,-4.0,-0.6000000000000001
1698921035766.0,16,0.0,0.0,0.0,-0.1,9.4,1.6,-2.6,-4.2,-0.30000000000000004
1698921035781.0,16,0.0,-0.1,-0.1,-0.2,9.3,1.6,-2.9,-4.7,-0.4
1698921035798.0,16,0.0,0.0,-0.1,-0.2,9.4,1.6,-2.0,-4.9,-0.8
1698921035815.0,16,0.0,0.0,-0.1,-0.1,9.4,1.6,-1.2000000000000002,-4.7,-1.0
1698921035832.0,16,0.0,0.0,0.0,-0.1,9.4,1.6,0.1,-5.0,-1.0
1698921035848.0,16,0.0,0.1,0.0,-0.1,9.5,1.7000000000000002,-0.1,-4.9,-1.0999999999999999
1698921035865.0,16,0.0,0.1,0.0,-0.1,9.5,1.7000000000000002,-1.5000000000000002,-4.9,-1.0999999999999999
1698921035882.0,16,0.0,0.0,0.0,-0.1,9.4,1.7000000000000002,-2.8,-5.300000000000001,-1.4
1698921035899.0,16,0.0,-0.1,0.0,-0.1,9.3,1.7000000000000002,-2.9,-5.2,-1.5000000000000002
1698921035915.0,16,0.0,-0.1,0.0,-0.1,9.3,1.7000000000000002,-1.6,-5.300000000000001,-1.4
1698921035932.0,16,0.0,-0.1,0.0,-0.1,9.3,1.7000000000000002,-0.4,-5.0,-1.0
1698921035950.0,16,0.1,0.0,0.0,0.0,9.3,1.7000000000000002,0.30000000000000004,-4.9,-1.0999999999999999
1698921035965.0,16,0.1,-0.1,0.0,0.0,9.3,1.7000000000000002,0.2,-4.5,-1.0
1698921035981.0,16,0.1,0.0,0.0,0.0,9.4,1.7000000000000002,0.1,-4.2,-0.7
1698921035998.0,16,0.1,0.0,0.0,0.0,9.4,1.7000000000000002,0.1,-4.0,-0.30000000000000004
1698921036015.0,16,0.1,0.1,0.0,0.0,9.4,1.7000000000000002,-0.2,-3.6,-0.1
1698921036031.0,16,0.0,0.0,0.0,-0.1,9.4,1.7000000000000002,-0.30000000000000004,-3.6,0.30000000000000004
1698921036048.0,16,0.1,0.0,0.0,0.0,9.3,1.7000000000000002,-0.1,-2.9,0.4
1698921036065.0,16,0.1,-0.1,0.0,0.0,9.3,1.7000000000000002,-0.1,-2.5,0.4
1698921036081.0,16,0.1,0.0,0.0,0.0,9.3,1.7000000000000002,0.30000000000000004,-1.4,0.4
1698921036098.0,16,0.1,0.0,0.0,0.0,9.4,1.7000000000000002,0.2,-1.0999999999999999,0.5
1698921036114.0,16,0.1,0.0,0.1,0.0,9.4,1.8,0.0,-0.5,0.7
1698921036132.0,16,0.0,0.0,0.0,0.0,9.4,1.8,-0.2,-0.1,0.8
1698921036148.0,16,0.0,0.0,0.0,-0.1,9.3,1.7000000000000002,-0.1,0.5,0.6000000000000001
1698921036164.0,16,0.0,-0.1,0.0,-0.1,9.3,1.7000000000000002,0.30000000000000004,1.3,0.7
1698921036181.0,16,0.0,0.0,0.0,-0.1,9.4,1.7000000000000002,0.7,1.7,0.8
1698921036198.0,16,0.0,0.0,0.0,-0.1,9.4,1.7000000000000002,1.0,2.0,0.7
1698921036214.0,16,0.0,0.1,0.0,-0.1,9.4,1.7000000000000002,0.8,2.1999999999999997,0.6000000000000001
1698921036231.0,16,0.0,0.0,0.0,-0.1,9.4,1.7000000000000002,0.2,2.3000000000000003,0.2
1698921036248.0,16,0.0,0.0,0.1,-0.1,9.3,1.8,-0.4,3.0000000000000004,0.4
1698921036264.0,16,0.0,-0.1,0.0,-0.1,9.3,1.7000000000000002,-0.4,3.4,0.7
1698921036281.0,16,0.0,-0.1,0.0,-0.1,9.3,1.7000000000000002,-0.2,3.5,0.6000000000000001
1698921036297.0,16,-0.1,0.0,0.0,-0.1,9.3,1.8,0.4,4.1000000000000005,0.5
1698921036314.0,16,-0.1,0.0,0.0,-0.1,9.4,1.8,1.0,4.5,0.4
1698921036331.0,16,-0.1,0.0,0.0,-0.1,9.4,1.7000000000000002,1.0999999999999999,4.300000000000001,0.6000000000000001
1698921036348.0,16,0.0,0.0,0.0,-0.1,9.4,1.7000000000000002,0.30000000000000004,3.9,0.8
1698921036365.0,16,0.0,0.0,0.0,-0.1,9.4,1.8,-0.5,4.5,0.7
1698921036381.0,16,0.0,0.0,0.0,-0.1,9.4,1.7000000000000002,-0.2,4.9,0.8
1698921036398.0,16,0.0,0.0,0.0,-0.1,9.4,1.7000000000000002,0.1,5.300000000000001,1.0
1698921036414.0,16,-0.1,0.0,0.0,-0.2,9.4,1.7000000000000002,0.30000000000000004,5.2,1.3
1698921036431.0,16,-0.1,0.0,0.0,-0.2,9.4,1.8,-0.1,4.800000000000001,1.2000000000000002
1698921036448.0,16,-0.1,0.0,0.0,-0.2,9.4,1.8,-0.6000000000000001,4.1000000000000005,0.9
1698921036464.0,16,-0.1,0.0,0.0,-0.2,9.4,1.7000000000000002,-0.6000000000000001,3.9,0.7
1698921036482.0,16,-0.1,-0.1,0.0,-0.2,9.3,1.7000000000000002,0.0,3.6,0.7
1698921036498.0,16,-0.1,-0.1,0.0,-0.2,9.3,1.7000000000000002,0.4,3.4,0.6000000000000001
1698921036514.0,16,-0.1,0.0,0.0,-0.2,9.4,1.7000000000000002,0.6000000000000001,3.2,0.6000000000000001
1698921036531.0,16,-0.1,0.0,0.0,-0.2,9.4,1.7000000000000002,0.7,2.9,0.4
1698921036548.0,16,0.0,0.0,0.0,-0.2,9.4,1.7000000000000002,0.4,2.1999999999999997,0.2
1698921036564.0,16,-0.1,0.0,0.0,-0.2,9.4,1.7000000000000002,0.2,2.1999999999999997,0.1
1698921036582.0,16,-0.1,0.0,0.0,-0.2,9.4,1.7000000000000002,-0.1,2.0,-0.1
1698921036598.0,16,-0.1,0.0,0.0,-0.2,9.4,1.7000000000000002,0.1,1.6,-0.1
1698921036615.0,16,0.0,0.0,0.0,-0.2,9.4,1.7000000000000002,0.0,1.0999999999999999,-0.1
1698921036631.0,16,0.0,0.0,0.0,-0.2,9.4,1.7000000000000002,-0.1,0.8,-0.1
1698921036648.0,16,0.0,0.0,0.0,-0.1,9.4,1.7000000000000002,-0.30000000000000004,0.4,-0.2
1698921036664.0,16,0.0,0.0,0.0,-0.1,9.4,1.7000000000000002,-0.5,0.30000000000000004,-0.4
1698921036681.0,16,0.0,0.0,0.0,-0.2,9.4,1.7000000000000002,-0.4,0.2,-0.6000000000000001
1698921036698.0,16,0.0,0.0,0.0,-0.2,9.4,1.7000000000000002,-0.30000000000000004,0.6000000000000001,-0.6000000000000001
1698921036714.0,16,0.0,0.1,0.0,-0.1,9.4,1.7000000000000002,-0.4,0.4,-0.8
1698921036733.0,16,0.0,0.0,0.0,-0.1,9.4,1.7000000000000002,-0.5,0.1,-0.9
1698921036748.0,16,0.0,0.0,0.0,-0.1,9.4,1.8,-0.9,-0.30000000000000004,-0.8
1698921036764.0,16,0.0,0.0,0.0,-0.2,9.4,1.8,-0.9,-0.5,-0.8
1698921036782.0,16,0.0,0.0,0.0,-0.2,9.3,1.8,-0.7,-0.5,-0.7
1698921036798.0,16,0.0,0.0,0.0,-0.1,9.3,1.8,-0.30000000000000004,-0.30000000000000004,-0.5
1698921036814.0,16,0.0,0.0,0.1,-0.1,9.4,1.8,-0.4,0.30000000000000004,-0.5
1698921036831.0,16,0.0,0.1,0.0,-0.2,9.4,1.8,-0.6000000000000001,0.4,-0.4
1698921036848.0,16,0.0,0.0,0.0,-0.1,9.4,1.8,-1.0,0.4,-0.4
1698921036865.0,16,0.0,0.0,0.0,-0.2,9.4,1.8,-1.3,0.0,-0.2
1698921036881.0,16,0.0,0.0,0.0,-0.2,9.4,1.7000000000000002,-1.3,0.2,-0.2
1698921036898.0,16,0.0,-0.1,0.0,-0.2,9.3,1.7000000000000002,-0.9,0.1,-0.5
1698921036915.0,16,0.0,0.0,0.0,-0.2,9.4,1.8,-0.4,0.5,-0.5
1698921036931.0,16,0.0,0.0,0.0,-0.2,9.4,1.8,-0.1,0.6000000000000001,-0.5
1698921036948.0,16,0.0,0.0,0.0,-0.2,9.4,1.8,0.2,0.7,-0.5
1698921036964.0,16,0.0,0.0,0.0,-0.2,9.4,1.7000000000000002,-0.1,0.30000000000000004,-0.5
1698921036981.0,16,0.0,0.0,0.0,-0.2,9.4,1.7000000000000002,-0.4,-0.30000000000000004,-0.6000000000000001
1698921036997.0,16,0.0,0.0,0.0,-0.2,9.4,1.7000000000000002,-0.4,-0.2,-0.5
1698921037014.0,16,-0.1,0.0,0.0,-0.2,9.4,1.7000000000000002,-0.2,-0.30000000000000004,-0.5
1698921037031.0,16,0.0,0.0,-0.1,-0.2,9.4,1.7000000000000002,-0.1,-0.4,-0.7
1698921037049.0,16,0.0,0.0,0.0,-0.2,9.3,1.7000000000000002,-0.2,-0.30000000000000004,-0.8
1698921037064.0,16,0.0,0.0,0.0,-0.2,9.3,1.7000000000000002,-0.4,-0.6000000000000001,-0.7
1698921037081.0,16,0.0,0.0,0.0,-0.2,9.4,1.7000000000000002,-0.30000000000000004,-0.8,-0.2
1698921037098.0,16,-0.1,0.0,0.0,-0.2,9.4,1.7000000000000002,-0.2,-0.9,-0.2
1698921037114.0,16,0.0,0.0,0.0,-0.2,9.4,1.7000000000000002,-0.5,-1.3,-0.2
1698921037132.0,16,0.0,0.0,0.0,-0.2,9.3,1.7000000000000002,-0.4,-1.3,-0.5
1698921037148.0,16,0.0,0.0,0.0,-0.2,9.3,1.8,0.2,-1.0999999999999999,-1.5000000000000002
1698921037164.0,16,0.0,0.0,0.0,-0.2,9.3,1.7000000000000002,0.4,-0.8,-0.7
1698921037182.0,16,0.0,0.0,0.0,-0.2,9.4,1.7000000000000002,0.0,-0.9,-0.2
1698921037198.0,16,0.0,0.0,-0.1,-0.2,9.4,1.7000000000000002,-0.30000000000000004,-1.5000000000000002,-0.4
1698921037215.0,16,0.0,0.0,0.0,-0.2,9.4,1.7000000000000002,-0.4,-1.9,-0.5
1698921037231.0,16,0.0,0.0,0.0,-0.2,9.3,1.7000000000000002,-0.2,-1.9,-0.4
1698921037248.0,16,0.0,0.0,0.0,-0.2,9.3,1.8,0.6000000000000001,-1.7,0.0
1698921037265.0,16,0.0,0.0,0.0,-0.2,9.3,1.8,0.7,-1.3,0.0
1698921037281.0,16,0.0,0.0,0.0,-0.2,9.4,1.8,0.7,-1.4,-0.1
1698921037298.0,16,0.0,0.0,0.0,-0.2,9.4,1.8,0.4,-1.0999999999999999,-0.1
1698921037315.0,16,0.0,0.0,0.0,-0.1,9.3,1.7000000000000002,0.4,-1.2000000000000002,-0.1
1698921037331.0,16,0.0,0.0,0.0,-0.2,9.4,1.8,0.4,-1.0999999999999999,0.0
1698921037348.0,16,0.0,0.0,0.0,-0.2,9.4,1.8,0.5,-0.9,0.2
1698921037365.0,16,0.0,0.0,0.0,-0.2,9.3,1.8,0.4,-0.9,0.1
1698921037381.0,16,0.0,0.0,0.0,-0.2,9.4,1.7000000000000002,0.5,-1.0,0.1
1698921037398.0,16,0.0,0.0,0.0,-0.2,9.4,1.7000000000000002,0.8,-0.9,0.2
1698921037415.0,16,0.0,0.0,0.0,-0.2,9.4,1.7000000000000002,1.0,-1.4,0.30000000000000004
1698921037434.0,16,0.0,0.0,0.0,-0.2,9.4,1.8,0.6000000000000001,-0.9,0.1
1698921037448.0,16,0.0,0.0,0.0,-0.2,9.4,1.7000000000000002,0.4,-1.0,-0.1
1698921037465.0,16,0.0,0.0,0.0,-0.2,9.4,1.7000000000000002,0.4,-1.2000000000000002,0.0
1698921037481.0,16,0.0,0.0,0.0,-0.2,9.4,1.7000000000000002,0.7,-1.2000000000000002,-0.1
1698921037498.0,16,0.0,0.0,0.0,-0.2,9.4,1.7000000000000002,0.7,-1.0999999999999999,-0.1
1698921037515.0,16,0.0,0.0,0.0,-0.2,9.4,1.7000000000000002,0.6000000000000001,-1.0999999999999999,0.0
1698921037531.0,16,0.0,0.0,0.0,-0.2,9.4,1.7000000000000002,0.30000000000000004,-0.9,0.1
1698921037548.0,16,0.0,0.0,0.0,-0.2,9.4,1.7000000000000002,0.30000000000000004,-0.6000000000000001,0.1
1698921037565.0,16,0.0,0.0,0.0,-0.2,9.4,1.7000000000000002,0.4,-0.8,-0.1
1698921037581.0,16,0.0,0.0,0.0,-0.2,9.4,1.7000000000000002,0.2,-0.6000000000000001,-0.1
1698921037598.0,16,0.0,0.0,0.0,-0.2,9.4,1.7000000000000002,0.2,-0.6000000000000001,-0.2
1698921037615.0,16,0.0,0.0,0.0,-0.2,9.4,1.7000000000000002,0.4,-0.30000000000000004,-0.30000000000000004
1698921037631.0,16,0.0,0.0,0.0,-0.2,9.4,1.7000000000000002,0.4,0.0,-0.2
1698921037648.0,16,0.0,0.0,-0.1,-0.2,9.4,1.6,0.1,0.6000000000000001,-0.1
1698921037665.0,16,0.0,0.1,-0.2,-0.2,9.5,1.5,-1.3,0.30000000000000004,-0.1
1698921037681.0,16,0.0,0.0,-0.1,-0.2,9.4,1.6,-4.6000000000000005,2.0,0.30000000000000004
1698921037698.0,16,0.0,0.1,-0.1,-0.1,9.4,1.7000000000000002,-5.7,2.7,0.4
1698921037718.0,16,0.1,0.1,0.1,-0.1,9.4,1.9000000000000001,-6.2,4.800000000000001,0.6000000000000001
1698921037731.0,16,0.1,0.0,0.0,-0.1,9.4,1.8,-3.7000000000000006,4.2,0.2
1698921037748.0,16,0.1,0.0,0.0,-0.1,9.4,1.8,-3.1,4.1000000000000005,0.4
1698921037765.0,16,-0.1,-0.1,0.0,-0.30000000000000004,9.3,1.8,-2.4000000000000004,3.3000000000000003,0.4
1698921037781.0,16,-0.1,-0.1,-0.1,-0.30000000000000004,9.3,1.7000000000000002,-2.4000000000000004,2.5,-0.5
1698921037798.0,16,-0.1,0.0,-0.1,-0.30000000000000004,9.4,1.7000000000000002,-2.9,2.1999999999999997,-0.7
1698921037815.0,16,-0.1,0.1,0.0,-0.30000000000000004,9.4,1.8,-3.0000000000000004,2.3000000000000003,-1.0
1698921037831.0,16,0.0,0.0,0.0,-0.2,9.4,1.8,-1.4,1.3,-1.6
1698921037848.0,16,0.0,0.0,0.0,-0.2,9.3,1.8,-1.0,0.6000000000000001,-1.0
1698921037865.0,16,0.0,-0.1,0.0,-0.2,9.3,1.9000000000000001,-1.2000000000000002,0.0,-0.4
1698921037881.0,16,0.0,0.0,0.0,-0.2,9.3,1.8,-1.3,-0.6000000000000001,0.4
1698921037898.0,16,0.0,0.0,0.0,-0.30000000000000004,9.3,1.8,-1.2000000000000002,-0.5,0.30000000000000004
1698921037914.0,16,0.0,0.0,0.0,-0.2,9.3,1.9000000000000001,-0.30000000000000004,0.5,-0.30000000000000004
1698921037931.0,16,0.0,0.1,0.0,-0.2,9.4,1.8,-0.1,1.0999999999999999,-0.6000000000000001
1698921037948.0,16,0.0,0.1,-0.1,-0.2,9.5,1.7000000000000002,-0.7,0.30000000000000004,-0.30000000000000004
1698921037965.0,16,0.0,0.0,-0.1,-0.2,9.4,1.7000000000000002,-1.3,0.2,-0.5
1698921037981.0,16,0.0,-0.1,0.0,-0.2,9.3,1.8,-0.7,-0.4,-0.6000000000000001
1698921037997.0,16,0.0,-0.2,0.0,-0.2,9.200000000000001,1.9000000000000001,0.7,-0.8,-0.30000000000000004
1698921038014.0,16,0.0,-0.1,0.1,-0.2,9.200000000000001,1.9000000000000001,1.0999999999999999,-0.4,0.1
1698921038031.0,16,0.0,0.0,0.1,-0.2,9.4,1.9000000000000001,1.3,0.0,0.6000000000000001
1698921038047.0,16,0.0,0.0,0.0,-0.2,9.4,1.8,1.0,0.2,-0.1
1698921038065.0,16,0.0,0.1,0.0,-0.2,9.4,1.9000000000000001,0.7,0.30000000000000004,-0.6000000000000001
1698921038081.0,16,0.1,0.1,0.0,-0.1,9.5,1.8,-0.1,-0.1,-0.5
1698921038098.0,16,0.0,0.0,0.0,-0.2,9.4,1.8,-0.6000000000000001,-1.2000000000000002,-0.1
1698921038114.0,16,0.0,0.0,0.0,-0.2,9.4,1.9000000000000001,-0.5,-1.6,-0.1
1698921038131.0,16,0.0,-0.1,0.0,-0.30000000000000004,9.3,1.9000000000000001,0.7,-2.0,-0.8
1698921038149.0,16,0.0,0.0,0.0,-0.2,9.4,1.9000000000000001,1.6,-2.1999999999999997,-0.8
1698921038165.0,16,0.0,0.1,0.0,-0.2,9.4,1.9000000000000001,1.4,-1.5000000000000002,-0.4
1698921038181.0,16,0.0,0.1,0.0,-0.2,9.4,1.8,0.4,-1.0999999999999999,-0.7
1698921038197.0,16,0.0,0.1,0.0,-0.1,9.4,1.8,-0.9,-0.5,-0.5
1698921038214.0,16,0.1,0.0,0.0,-0.1,9.4,1.8,-1.4,0.0,-0.4
1698921038231.0,16,0.1,0.0,0.0,-0.1,9.4,1.8,-1.4,-0.2,0.1
1698921038247.0,16,0.1,-0.1,-0.1,-0.1,9.3,1.8,-0.9,-0.6000000000000001,0.30000000000000004
1698921038264.0,16,0.0,0.0,0.0,-0.1,9.3,1.8,-0.5,-1.0,0.4
1698921038281.0,16,0.0,0.0,0.0,-0.2,9.3,1.8,-0.1,-1.4,0.6000000000000001
1698921038298.0,16,0.0,0.0,0.1,-0.2,9.4,1.9000000000000001,0.2,-0.9,1.0
1698921038314.0,16,0.0,0.0,0.0,-0.2,9.4,1.9000000000000001,0.2,-0.6000000000000001,1.0
1698921038331.0,16,0.0,0.0,0.1,-0.1,9.3,1.9000000000000001,0.2,-0.2,1.2000000000000002
1698921038348.0,16,0.0,0.0,0.1,-0.1,9.3,1.9000000000000001,0.0,0.30000000000000004,1.0999999999999999
1698921038364.0,16,0.0,0.0,0.1,-0.2,9.4,1.9000000000000001,-0.1,0.5,1.2000000000000002
1698921038382.0,16,-0.1,0.0,0.0,-0.2,9.4,1.8,-0.2,0.2,1.2000000000000002
1698921038398.0,16,-0.1,0.0,0.0,-0.2,9.4,1.8,-0.4,-0.30000000000000004,1.0999999999999999
1698921038415.0,16,0.0,0.0,0.0,-0.2,9.4,1.8,-0.2,-0.30000000000000004,1.0
1698921038431.0,16,0.0,0.0,0.0,-0.2,9.4,1.8,-0.30000000000000004,-0.6000000000000001,0.6000000000000001
1698921038448.0,16,0.0,0.0,0.0,-0.2,9.4,1.9000000000000001,-0.6000000000000001,-0.30000000000000004,0.2
1698921038465.0,16,0.0,0.0,0.0,-0.2,9.4,1.9000000000000001,-0.9,-0.2,0.1
1698921038481.0,16,0.0,0.0,0.0,-0.2,9.4,1.8,-1.3,0.0,0.1
1698921038498.0,16,0.0,0.0,0.0,-0.2,9.3,1.8,-1.2000000000000002,0.5,0.4
1698921038514.0,16,0.0,0.0,0.0,-0.2,9.3,1.8,-1.2000000000000002,0.7,0.5
1698921038531.0,16,0.0,-0.1,0.0,-0.2,9.3,1.8,-0.7,0.6000000000000001,0.6000000000000001
1698921038548.0,16,0.0,0.0,0.0,-0.2,9.3,1.9000000000000001,-0.4,0.4,0.4
1698921038565.0,16,0.0,0.0,0.0,-0.2,9.3,1.9000000000000001,-0.4,0.5,0.6000000000000001
1698921038581.0,16,-0.1,0.0,0.0,-0.2,9.3,1.9000000000000001,-0.2,0.5,0.6000000000000001
1698921038598.0,16,0.0,0.0,0.0,-0.2,9.4,1.9000000000000001,0.30000000000000004,0.30000000000000004,0.6000000000000001
1698921038614.0,16,0.0,0.0,0.0,-0.2,9.4,1.8,0.4,0.0,0.2
1698921038633.0,16,0.0,0.0,0.0,-0.2,9.3,1.8,0.4,0.0,0.1
1698921038649.0,16,0.0,0.0,0.0,-0.2,9.4,1.8,0.4,0.5,0.1
1698921038664.0,16,0.0,0.0,0.0,-0.2,9.3,1.9000000000000001,0.30000000000000004,1.0999999999999999,0.4
1698921038681.0,16,0.0,0.0,0.0,-0.2,9.3,1.9000000000000001,0.2,1.2000000000000002,0.6000000000000001
1698921038698.0,16,0.0,0.0,0.0,-0.2,9.3,1.8,-0.2,1.6,0.7
1698921038715.0,16,0.0,0.0,0.1,-0.1,9.3,1.9000000000000001,-0.4,1.7,0.6000000000000001
1698921038731.0,16,0.0,0.0,0.1,-0.2,9.3,1.9000000000000001,0.6000000000000001,1.7,0.6000000000000001
1698921038748.0,16,0.0,0.0,0.0,-0.2,9.4,1.9000000000000001,1.0,1.3,1.2000000000000002
1698921038765.0,16,0.0,0.0,0.0,-0.2,9.4,1.9000000000000001,0.7,1.0,1.3
1698921038782.0,16,0.0,0.0,0.0,-0.2,9.4,1.9000000000000001,0.1,0.2,1.2000000000000002
1698921038798.0,16,-0.1,0.0,0.0,-0.2,9.4,1.8,-0.2,-0.5,0.8
1698921038814.0,16,-0.1,0.0,0.0,-0.2,9.4,1.8,0.2,-0.30000000000000004,0.30000000000000004
1698921038832.0,16,0.0,0.0,0.0,-0.2,9.4,1.8,0.4,-0.2,0.2
1698921038848.0,16,0.0,0.0,0.0,-0.2,9.4,1.8,0.6000000000000001,-0.6000000000000001,-0.2
1698921038864.0,16,0.0,0.0,0.0,-0.2,9.4,1.8,0.2,-0.9,-0.6000000000000001
1698921038881.0,16,0.0,0.0,0.0,-0.2,9.4,1.8,0.0,-1.3,-0.7
1698921038898.0,16,0.0,0.0,0.0,-0.2,9.4,1.8,-0.2,-2.0,-1.0
1698921038914.0,16,0.0,0.0,0.0,-0.2,9.3,1.9000000000000001,-0.4,-2.3000000000000003,-1.0999999999999999
1698921038931.0,16,0.0,0.0,0.0,-0.2,9.4,1.8,-0.5,-2.1999999999999997,-1.0999999999999999
1698921038948.0,16,0.0,0.0,0.0,-0.1,9.4,1.8,-0.9,-2.4000000000000004,-1.0
1698921038965.0,16,0.0,0.0,0.0,-0.2,9.3,1.9000000000000001,-0.6000000000000001,-1.8,-0.8
1698921038981.0,16,0.0,0.0,0.0,-0.1,9.3,1.9000000000000001,-0.2,-1.5000000000000002,-0.9
1698921038997.0,16,0.0,-0.1,0.0,-0.1,9.3,1.9000000000000001,0.30000000000000004,-0.9,-1.0
1698921039014.0,16,0.0,0.0,0.1,-0.2,9.3,1.9000000000000001,0.9,-0.7,-1.3
1698921039031.0,16,0.0,0.0,0.0,-0.1,9.4,1.9000000000000001,0.4,-0.2,-1.0999999999999999
1698921039048.0,16,0.0,0.1,0.0,-0.1,9.4,1.9000000000000001,0.0,-0.2,-1.0999999999999999
1698921039064.0,16,0.1,0.0,-0.1,-0.1,9.4,1.8,-0.5,-0.1,-0.8
1698921039081.0,16,0.0,0.0,0.0,-0.1,9.4,1.8,-0.9,0.0,-0.6000000000000001
1698921039098.0,16,0.0,0.0,0.0,-0.2,9.4,1.8,-0.6000000000000001,-0.8,-0.1
1698921039114.0,16,0.0,0.0,0.0,-0.2,9.3,1.9000000000000001,-0.4,-1.0999999999999999,0.7
1698921039132.0,16,0.0,0.0,0.1,-0.2,9.4,1.9000000000000001,-0.4,-0.9,0.9
1698921039148.0,16,0.0,0.0,0.0,-0.2,9.4,1.9000000000000001,-0.6000000000000001,0.8,0.7
1698921039164.0,16,0.0,0.0,0.0,-0.2,9.4,1.9000000000000001,-1.3,1.0999999999999999,0.6000000000000001
1698921039181.0,16,0.0,0.0,0.0,-0.2,9.3,1.8,-1.7,0.8,1.0
1698921039198.0,16,0.1,0.1,0.1,-0.1,9.5,2.0,-1.8,0.9,0.6000000000000001
1698921039215.0,16,0.0,0.0,0.0,-0.2,9.4,1.9000000000000001,-1.3,2.4000000000000004,0.2
1698921039231.0,16,0.0,0.0,0.0,-0.2,9.3,1.9000000000000001,-1.6,2.1999999999999997,0.1
1698921039249.0,16,0.0,0.0,0.0,-0.2,9.3,1.9000000000000001,-1.5000000000000002,2.7,0.4
1698921039265.0,16,0.0,0.0,0.0,-0.2,9.3,1.9000000000000001,-1.0999999999999999,3.1,0.4
1698921039281.0,16,0.0,0.0,0.0,-0.2,9.4,1.9000000000000001,-1.0999999999999999,3.5,0.4
1698921039298.0,16,0.0,0.0,-0.1,-0.2,9.3,1.8,-1.7,3.6,0.4
1698921039315.0,16,0.0,-0.1,0.0,-0.2,9.3,1.9000000000000001,-1.9,3.5,0.30000000000000004
1698921039331.0,16,0.0,-0.1,0.0,-0.2,9.3,1.9000000000000001,-0.8,3.4,-0.2
1698921039348.0,16,0.0,0.0,0.0,-0.2,9.3,1.9000000000000001,-0.4,3.4,-0.4
1698921039365.0,16,0.0,0.0,0.0,-0.2,9.4,1.9000000000000001,-0.30000000000000004,3.3000000000000003,-0.2
1698921039381.0,16,0.0,0.0,0.0,-0.2,9.4,1.9000000000000001,-0.7,3.0000000000000004,-0.1
1698921039398.0,16,0.0,0.0,0.0,-0.2,9.3,1.9000000000000001,-1.2000000000000002,2.3000000000000003,0.1
1698921039415.0,16,0.0,-0.1,0.0,-0.2,9.3,1.9000000000000001,-1.0999999999999999,0.5,1.0
1698921039431.0,16,0.0,0.1,0.0,-0.2,9.5,2.0,-0.5,0.2,0.6000000000000001
1698921039448.0,16,-0.1,0.0,0.0,-0.30000000000000004,9.4,1.9000000000000001,0.1,0.30000000000000004,0.4
1698921039465.0,16,-0.1,0.0,0.0,-0.30000000000000004,9.3,1.9000000000000001,-0.4,-0.7,0.30000000000000004
1698921039481.0,16,0.0,0.0,0.0,-0.30000000000000004,9.3,1.9000000000000001,-0.5,-0.8,0.2
1698921039499.0,16,0.0,0.0,0.0,-0.2,9.3,1.9000000000000001,-0.7,-1.0999999999999999,0.30000000000000004
1698921039515.0,16,0.0,0.0,0.0,-0.2,9.4,1.9000000000000001,-1.0,-1.3,0.30000000000000004
1698921039531.0,16,0.0,0.0,0.0,-0.2,9.4,2.0,-1.3,-1.3,0.30000000000000004
1698921039548.0,16,0.0,0.0,0.0,-0.2,9.3,2.0,-1.3,-1.4,0.1
1698921039564.0,16,0.0,-0.1,0.0,-0.2,9.3,1.9000000000000001,-0.8,-1.2000000000000002,0.5
1698921039581.0,16,0.0,0.0,0.0,-0.2,9.3,1.9000000000000001,-0.8,-1.0999999999999999,0.8
1698921039598.0,16,0.0,0.0,0.0,-0.2,9.3,1.9000000000000001,-1.0,-1.4,0.7
1698921039615.0,16,0.0,0.1,0.0,-0.2,9.4,2.0,-1.0999999999999999,-1.6,0.5
1698921039631.0,16,0.0,0.0,0.0,-0.2,9.4,1.9000000000000001,-1.2000000000000002,-1.4,0.5
1698921039649.0,16,0.0,0.0,0.0,-0.2,9.3,2.0,-1.0,-0.6000000000000001,0.7
1698921039664.0,16,0.0,0.0,0.0,-0.2,9.3,2.0,-0.4,-0.30000000000000004,0.7
1698921039681.0,16,0.0,0.0,0.1,-0.2,9.3,2.0,-0.30000000000000004,-0.30000000000000004,0.7
1698921039698.0,16,0.0,0.0,0.0,-0.2,9.3,2.0,-0.1,-0.30000000000000004,0.30000000000000004
1698921039715.0,16,0.0,0.0,0.1,-0.2,9.3,2.0,-0.5,0.1,0.2
1698921039731.0,16,0.0,0.0,0.0,-0.2,9.3,2.0,-0.6000000000000001,0.1,0.2
1698921039748.0,16,0.0,-0.1,0.0,-0.2,9.3,2.0,0.0,0.0,0.1
1698921039764.0,16,0.0,0.0,0.0,-0.2,9.3,2.0,0.6000000000000001,-0.2,0.2
1698921039781.0,16,0.0,0.0,0.0,-0.2,9.3,2.0,0.6000000000000001,-0.5,0.2
1698921039798.0,16,0.0,0.0,0.0,-0.2,9.3,2.0,0.7,-0.6000000000000001,0.1
1698921039814.0,16,0.0,0.0,0.0,-0.2,9.3,2.0,0.6000000000000001,-0.1,-0.2
1698921039831.0,16,0.0,0.0,0.0,-0.1,9.3,2.0,0.7,0.4,-0.2
1698921039848.0,16,0.0,0.0,0.0,-0.1,9.4,2.0,0.8,0.5,-0.4
1698921039865.0,16,0.0,0.0,0.0,-0.2,9.3,2.0,0.4,0.7,-0.1
1698921039881.0,16,0.0,0.0,0.0,-0.2,9.3,1.9000000000000001,0.1,0.6000000000000001,0.1
1698921039898.0,16,0.0,0.0,0.0,-0.2,9.3,1.9000000000000001,0.1,0.6000000000000001,0.2
1698921039914.0,16,0.0,0.0,0.0,-0.2,9.3,2.0,0.1,0.5,0.30000000000000004
1698921039931.0,16,0.0,0.0,0.0,-0.2,9.3,2.0,-0.2,0.4,0.30000000000000004
1698921039948.0,16,0.0,0.0,0.0,-0.2,9.3,2.0,-0.5,0.6000000000000001,0.30000000000000004
1698921039965.0,16,0.0,0.0,0.0,-0.2,9.3,1.9000000000000001,-0.30000000000000004,0.7,0.2
1698921039981.0,16,0.0,0.0,0.0,-0.2,9.3,2.0,0.1,1.0,0.1
1698921039999.0,16,0.0,0.0,0.0,-0.2,9.3,2.0,0.1,1.0999999999999999,0.1
1698921040014.0,16,0.0,0.0,0.0,-0.2,9.4,2.0,-0.30000000000000004,1.4,0.2
1698921040031.0,16,0.0,0.0,0.0,-0.2,9.3,2.0,-0.2,1.6,0.30000000000000004
1698921040048.0,16,0.0,0.0,0.0,-0.2,9.3,2.0,-0.1,1.6,0.30000000000000004
1698921040064.0,16,0.0,-0.1,0.0,-0.2,9.3,2.0,0.2,1.4,0.2
1698921040081.0,16,0.0,0.0,0.0,-0.2,9.3,2.0,0.4,1.6,0.1
1698921040098.0,16,0.0,0.0,0.0,-0.2,9.3,2.0,0.6000000000000001,1.5000000000000002,-0.1
1698921040115.0,16,0.0,0.0,0.0,-0.2,9.4,2.0,0.6000000000000001,1.3,-0.1
1698921040132.0,16,0.0,0.0,0.0,-0.2,9.3,2.0,0.4,0.9,-0.1
1698921040147.0,16,0.0,0.0,0.0,-0.2,9.3,2.0,0.5,0.8,0.0
1698921040164.0,16,0.0,0.0,0.0,-0.2,9.3,2.0,0.4,0.8,-0.1
1698921040181.0,16,0.0,0.0,0.0,-0.2,9.3,2.0,0.2,0.8,0.0
1698921040198.0,16,0.0,0.0,0.0,-0.2,9.3,1.9000000000000001,0.2,0.7,0.1
1698921040215.0,16,0.0,0.0,0.0,-0.2,9.4,2.0,0.2,0.4,0.1
1698921040232.0,16,0.0,0.1,0.0,-0.2,9.4,2.0,0.0,0.30000000000000004,0.1
1698921040248.0,16,0.0,0.0,0.0,-0.2,9.4,1.9000000000000001,-0.2,0.30000000000000004,0.2
1698921040264.0,16,0.0,0.0,-0.1,-0.2,9.3,1.9000000000000001,-0.5,0.0,0.4
1698921040281.0,16,0.0,0.0,0.0,-0.2,9.3,1.9000000000000001,-0.8,-0.5,0.30000000000000004
1698921040298.0,16,0.0,0.0,0.0,-0.2,9.3,1.9000000000000001,-0.7,-0.7,0.1
1698921040314.0,16,0.0,0.0,0.0,-0.2,9.3,1.9000000000000001,-0.7,-0.6000000000000001,0.1
1698921040332.0,16,0.0,0.0,0.0,-0.2,9.3,2.0,-0.5,-1.0999999999999999,0.1
1698921040348.0,16,0.0,-0.1,0.0,-0.30000000000000004,9.200000000000001,1.9000000000000001,-0.9,-1.9,0.7
1698921040365.0,16,0.0,0.1,0.1,-0.2,9.4,2.0,-0.7,-2.0,-0.1
1698921040381.0,16,0.0,0.0,0.0,-0.1,9.3,2.0,0.1,-0.8,-0.7
1698921040398.0,16,0.0,0.0,0.0,-0.2,9.3,2.0,0.4,-0.5,-0.5
1698921040414.0,16,0.0,0.0,0.0,-0.2,9.3,2.0,0.4,-0.30000000000000004,-0.2
1698921040432.0,16,0.0,0.0,0.0,-0.2,9.3,1.9000000000000001,0.1,-0.2,-0.1
1698921040448.0,16,0.0,0.0,0.0,-0.2,9.4,1.9000000000000001,-0.1,-0.5,-0.2
1698921040464.0,16,0.0,0.0,0.0,-0.1,9.3,1.9000000000000001,0.0,-0.6000000000000001,-0.4
1698921040481.0,16,0.0,0.0,0.0,-0.2,9.3,1.9000000000000001,-0.5,-1.0999999999999999,0.30000000000000004
1698921040498.0,16,0.0,0.1,0.0,-0.2,9.4,2.0,0.7,-1.0,0.1
1698921040514.0,16,0.0,0.0,0.0,-0.2,9.4,1.9000000000000001,0.2,-0.5,0.4
1698921040532.0,16,0.0,0.0,0.1,-0.2,9.3,2.0,-0.1,-0.6000000000000001,-0.1
1698921040548.0,16,0.0,0.0,0.0,-0.2,9.3,2.0,0.1,-0.5,-0.1
1698921040564.0,16,0.0,0.0,0.0,-0.2,9.3,2.0,0.0,-0.5,-0.1
1698921040581.0,16,0.0,0.0,0.0,-0.2,9.3,2.0,0.1,-0.2,0.1
1698921040598.0,16,0.0,0.0,0.0,-0.2,9.3,2.0,0.2,-0.1,0.0
1698921040614.0,16,0.0,0.0,0.0,-0.2,9.3,2.0,0.30000000000000004,-0.1,0.0
1698921040631.0,16,0.0,0.0,0.0,-0.2,9.3,2.0,0.1,-0.2,-0.1
1698921040648.0,16,0.0,0.0,0.0,-0.2,9.4,2.0,0.1,-0.1,-0.4
1698921040664.0,16,0.0,0.0,0.0,-0.2,9.3,2.0,0.2,0.1,-0.5
1698921040681.0,16,0.0,0.0,0.0,-0.2,9.3,1.9000000000000001,0.4,0.2,-0.5
1698921040698.0,16,0.0,0.0,0.0,-0.2,9.3,2.0,0.5,0.30000000000000004,-0.2
1698921040715.0,16,0.0,0.0,0.0,-0.2,9.4,2.0,0.4,0.1,-0.1
1698921040732.0,16,0.0,0.0,0.0,-0.2,9.4,2.0,0.1,0.1,-0.1
1698921040748.0,16,0.0,0.0,0.0,-0.2,9.3,2.0,-0.2,0.1,0.1
1698921040764.0,16,0.0,0.0,0.0,-0.2,9.4,2.0,-0.2,0.0,0.1
1698921040781.0,16,0.0,0.0,0.0,-0.2,9.3,2.0,-0.2,-0.1,0.30000000000000004
1698921040798.0,16,0.0,0.0,0.0,-0.2,9.3,2.0,-0.30000000000000004,0.0,0.30000000000000004
1698921040816.0,16,0.0,0.0,0.0,-0.2,9.3,2.0,-0.4,0.0,0.1
1698921040831.0,16,0.0,0.0,0.0,-0.2,9.3,2.0,-0.2,-0.1,0.1
1698921040848.0,16,0.0,0.0,0.0,-0.2,9.3,2.0,-0.1,-0.2,0.2
1698921040864.0,16,0.0,0.0,0.0,-0.2,9.3,2.0,-0.2,-0.2,0.2
1698921040881.0,16,0.0,0.0,0.0,-0.2,9.3,2.0,-0.5,-0.30000000000000004,0.4
1698921040898.0,16,0.0,0.0,0.0,-0.2,9.3,2.0,-0.7,-0.6000000000000001,0.30000000000000004
1698921040914.0,16,0.0,0.0,0.0,-0.2,9.3,2.0,-0.8,-0.6000000000000001,0.1
1698921040932.0,16,0.0,0.0,0.0,-0.2,9.3,2.0,-0.7,-0.5,0.0
1698921040948.0,16,0.0,0.0,0.0,-0.2,9.3,2.0,-0.7,-0.2,0.1
1698921040964.0,16,0.0,0.0,0.0,-0.2,9.4,2.0,-0.5,-0.4,0.1
1698921040981.0,16,0.0,0.0,0.0,-0.2,9.4,2.0,-0.4,-0.6000000000000001,0.1
1698921040999.0,16,0.0,0.0,0.0,-0.2,9.3,2.0,-0.4,-0.30000000000000004,-0.2
1698921041014.0,16,0.0,0.0,0.0,-0.2,9.3,2.0,-0.2,-0.4,-0.2
1698921041032.0,16,0.0,0.0,0.0,-0.2,9.3,2.0,-0.4,-0.30000000000000004,-0.2
1698921041048.0,16,0.0,0.0,0.0,-0.2,9.3,2.0,-0.7,-0.5,-0.30000000000000004
1698921041064.0,16,0.0,0.0,0.0,-0.2,9.3,2.0,-0.7,-0.5,-0.4
1698921041082.0,16,0.0,0.0,0.0,-0.2,9.3,2.0,-0.2,-0.2,-0.2
1698921041098.0,16,0.0,0.0,0.0,-0.2,9.3,2.0,0.0,-0.30000000000000004,0.0
1698921041114.0,16,0.0,0.0,0.0,-0.2,9.4,2.0,-0.1,-0.30000000000000004,0.30000000000000004
1698921041132.0,16,0.0,0.0,0.0,-0.2,9.3,2.0,-0.30000000000000004,-0.30000000000000004,0.4
1698921041148.0,16,0.0,0.0,0.0,-0.2,9.4,2.0,-0.6000000000000001,-0.30000000000000004,0.30000000000000004
1698921041164.0,16,0.0,0.0,0.0,-0.2,9.3,2.0,-0.2,-0.1,0.4
1698921041181.0,16,0.0,0.0,0.0,-0.2,9.3,2.0,-0.1,-0.2,0.30000000000000004
1698921041199.0,16,0.0,0.0,0.0,-0.2,9.3,2.0,0.1,-0.30000000000000004,0.4
1698921041215.0,16,0.0,0.0,0.0,-0.2,9.3,2.0,-0.1,0.0,0.30000000000000004
1698921041231.0,16,0.0,0.0,0.0,-0.2,9.3,2.0,-0.1,0.1,-0.1
1698921041248.0,16,0.0,0.0,0.0,-0.2,9.4,2.0,-0.1,0.4,0.1
1698921041266.0,16,0.0,0.0,-0.1,-0.2,9.3,1.9000000000000001,-0.1,0.6000000000000001,0.4
1698921041282.0,16,0.0,0.0,-0.1,-0.2,9.3,1.9000000000000001,-0.2,0.6000000000000001,0.4
1698921041299.0,16,0.0,0.0,-0.1,-0.2,9.3,1.9000000000000001,-0.1,-0.2,0.30000000000000004
1698921041315.0,16,0.0,0.0,0.0,-0.2,9.3,2.0,0.1,-0.4,0.2
1698921041331.0,16,0.0,0.0,0.0,-0.2,9.3,2.0,0.4,-0.2,0.2
1698921041352.0,16,0.0,0.0,0.0,-0.2,9.3,2.0,0.4,0.5,0.0
1698921041365.0,16,0.0,0.0,0.0,-0.2,9.3,2.0,0.4,0.5,0.0
1698921041382.0,16,0.0,0.0,0.0,-0.2,9.3,2.0,0.6000000000000001,0.5,0.0
1698921041399.0,16,0.0,0.0,0.0,-0.2,9.3,1.9000000000000001,0.5,0.5,-0.1
1698921041415.0,16,0.0,0.0,0.0,-0.2,9.3,2.0,0.6000000000000001,0.6000000000000001,0.1
1698921041432.0,16,0.0,0.0,0.0,-0.2,9.3,1.9000000000000001,0.5,0.6000000000000001,0.30000000000000004
1698921041448.0,16,0.0,0.0,0.0,-0.2,9.4,2.0,0.4,0.5,0.2
1698921041464.0,16,0.0,0.0,0.0,-0.2,9.3,2.0,0.4,0.30000000000000004,0.30000000000000004
1698921041481.0,16,0.0,0.0,0.0,-0.2,9.4,2.0,0.4,0.30000000000000004,0.2
1698921041498.0,16,0.0,0.0,0.0,-0.2,9.3,2.0,0.2,0.5,0.0
1698921041514.0,16,0.0,0.0,0.0,-0.2,9.3,1.9000000000000001,0.2,0.8,0.1
1698921041531.0,16,0.0,0.0,0.0,-0.2,9.4,1.9000000000000001,0.1,1.0,0.30000000000000004
1698921041549.0,16,0.0,0.0,0.0,-0.2,9.3,2.0,-0.30000000000000004,1.4,0.1
1698921041564.0,16,0.0,0.0,0.0,-0.2,9.3,2.0,-0.4,0.8,0.30000000000000004
1698921041582.0,16,0.0,0.0,0.0,-0.2,9.3,2.0,-0.4,0.7,0.30000000000000004
1698921041598.0,16,0.0,0.0,0.0,-0.2,9.3,2.0,-0.2,0.6000000000000001,0.1
1698921041614.0,16,0.0,0.0,0.0,-0.2,9.3,1.9000000000000001,0.1,0.5,0.2
1698921041631.0,16,0.0,0.0,0.0,-0.2,9.3,2.0,0.1,0.30000000000000004,-0.1
1698921041649.0,16,0.0,0.0,0.0,-0.2,9.3,2.0,0.30000000000000004,0.2,-0.1
1698921041664.0,16,0.0,0.0,0.0,-0.2,9.3,2.0,0.7,-0.2,-0.1
1698921041682.0,16,0.0,0.0,0.0,-0.2,9.3,2.0,0.6000000000000001,0.0,0.0
1698921041698.0,16,0.0,0.0,0.0,-0.2,9.4,2.0,0.5,0.0,-0.1
1698921041714.0,16,0.0,0.0,0.0,-0.2,9.4,2.0,0.5,-0.1,-0.30000000000000004
1698921041731.0,16,0.0,0.0,0.0,-0.2,9.4,2.0,0.30000000000000004,-0.2,-0.4
1698921041748.0,16,0.0,0.0,0.0,-0.2,9.3,2.0,0.1,-0.30000000000000004,-0.4
1698921041764.0,16,0.0,0.0,0.0,-0.2,9.3,2.0,0.1,-0.5,-0.4
1698921041781.0,16,0.0,0.0,0.0,-0.2,9.3,2.0,0.4,-0.5,-0.5
1698921041798.0,16,0.0,0.0,0.0,-0.2,9.3,2.0,0.7,-0.7,-0.4
1698921041814.0,16,0.0,0.0,0.0,-0.2,9.3,2.0,0.6000000000000001,-0.8,-0.30000000000000004
1698921041831.0,16,0.0,0.0,0.1,-0.2,9.4,2.0,0.4,-0.8,-0.2
1698921041848.0,16,0.0,0.0,0.0,-0.2,9.4,2.0,0.1,-0.6000000000000001,-0.2
1698921041864.0,16,0.0,0.0,0.0,-0.2,9.3,2.0,-0.1,-0.6000000000000001,-0.1
1698921041881.0,16,0.0,0.0,0.0,-0.2,9.3,2.0,-0.2,-0.7,-0.2
1698921041898.0,16,0.0,0.0,0.0,-0.2,9.3,2.0,-0.2,-0.7,-0.1
1698921041914.0,16,0.0,0.0,0.0,-0.2,9.3,2.0,0.0,-0.6000000000000001,-0.1
1698921041931.0,16,0.0,0.0,0.0,-0.2,9.3,2.0,0.1,-0.8,0.0
1698921041949.0,16,0.0,0.0,0.0,-0.2,9.4,2.0,-0.2,-0.8,-0.1
1698921041964.0,16,0.0,0.0,0.0,-0.2,9.4,2.0,-0.5,-1.0999999999999999,0.0
1698921041981.0,16,0.0,0.0,0.0,-0.2,9.3,2.0,-0.5,-0.9,-0.1
1698921041997.0,16,0.0,0.0,0.0,-0.2,9.3,1.9000000000000001,-0.6000000000000001,-0.7,-0.2
1698921042014.0,16,0.0,0.0,0.0,-0.2,9.3,1.9000000000000001,-0.4,-0.9,0.0
1698921042031.0,16,0.0,0.0,0.0,-0.2,9.3,2.0,-0.2,-1.4,0.1
1698921042048.0,16,0.0,0.0,0.0,-0.2,9.3,2.0,-0.1,-1.6,0.1
1698921042065.0,16,0.0,0.0,0.0,-0.2,9.3,2.0,-0.1,-1.2000000000000002,-0.30000000000000004
1698921042081.0,16,0.0,0.0,0.0,-0.2,9.3,2.0,0.0,-0.9,-0.4
1698921042098.0,16,0.0,0.0,0.0,-0.2,9.3,2.0,0.1,-0.2,0.2
1698921042114.0,16,0.0,0.0,0.0,-0.2,9.3,2.0,-0.1,-0.5,0.5
1698921042131.0,16,0.0,0.0,0.0,-0.2,9.3,1.9000000000000001,0.0,-0.9,0.30000000000000004
1698921042149.0,16,0.0,0.0,0.0,-0.2,9.3,1.9000000000000001,0.2,-0.9,0.30000000000000004
1698921042165.0,16,0.0,0.0,0.0,-0.2,9.3,1.9000000000000001,0.6000000000000001,-0.6000000000000001,0.4
1698921042181.0,16,-0.1,0.0,0.0,-0.2,9.3,2.0,0.6000000000000001,-0.6000000000000001,0.4
1698921042198.0,16,0.0,0.0,0.0,-0.2,9.3,2.0,0.5,-0.6000000000000001,0.30000000000000004
1698921042215.0,16,0.0,0.0,0.0,-0.2,9.3,2.0,0.4,-0.6000000000000001,0.1
1698921042233.0,16,0.0,0.0,0.0,-0.2,9.3,2.0,0.30000000000000004,-0.6000000000000001,0.0
1698921042250.0,16,0.0,0.0,0.0,-0.2,9.3,2.0,0.2,-0.30000000000000004,0.1
1698921042265.0,16,0.0,0.0,0.0,-0.2,9.3,2.0,0.4,-0.1,0.30000000000000004
1698921042281.0,16,0.0,0.0,0.0,-0.2,9.3,2.0,0.5,0.2,0.30000000000000004
1698921042298.0,16,0.0,0.0,0.0,-0.2,9.3,2.0,0.5,0.30000000000000004,0.4
1698921042316.0,16,0.0,0.0,0.0,-0.2,9.3,2.0,0.2,0.5,0.4
1698921042332.0,16,0.0,0.0,0.0,-0.2,9.3,2.0,0.0,0.30000000000000004,0.30000000000000004
1698921042349.0,16,0.0,0.0,0.0,-0.2,9.3,2.0,0.1,0.4,0.2
1698921042365.0,16,0.0,0.0,0.0,-0.2,9.3,1.9000000000000001,0.6000000000000001,0.6000000000000001,0.0
1698921042381.0,16,0.0,0.0,0.0,-0.2,9.3,2.0,0.9,0.8,0.30000000000000004
1698921042398.0,16,0.0,0.0,0.0,-0.2,9.3,2.0,0.4,0.7,0.30000000000000004
1698921042414.0,16,0.0,0.0,0.0,-0.2,9.4,1.9000000000000001,0.2,0.5,0.4
1698921042431.0,16,0.0,0.0,0.0,-0.2,9.4,2.0,-0.2,0.4,0.4
1698921042448.0,16,0.0,0.0,0.0,-0.2,9.3,2.0,-0.1,0.6000000000000001,0.5
1698921042464.0,16,-0.1,0.0,0.0,-0.2,9.3,2.0,0.2,0.9,0.6000000000000001
1698921042481.0,16,-0.1,0.0,0.0,-0.2,9.4,2.0,0.0,0.6000000000000001,0.6000000000000001
1698921042497.0,16,0.0,0.0,0.0,-0.2,9.4,2.0,-0.2,0.8,0.6000000000000001
1698921042514.0,16,0.0,0.0,0.0,-0.2,9.3,2.0,-0.30000000000000004,0.6000000000000001,0.7
1698921042531.0,16,0.0,0.0,0.0,-0.2,9.3,2.0,0.0,0.0,0.4
1698921042548.0,16,0.0,0.0,0.0,-0.2,9.3,2.0,0.2,-0.1,0.30000000000000004
1698921042564.0,16,0.0,0.0,0.0,-0.2,9.3,2.0,0.6000000000000001,-0.2,0.4
1698921042581.0,16,0.0,0.0,0.0,-0.1,9.3,1.9000000000000001,0.5,-0.6000000000000001,0.30000000000000004
1698921042597.0,16,0.0,0.0,0.0,-0.1,9.3,2.0,0.6000000000000001,-1.6,-0.1
1698921042614.0,16,0.1,0.0,0.0,-0.1,9.3,2.0,0.7,-1.9,-0.30000000000000004
1698921042631.0,16,0.1,-0.1,0.1,-0.1,9.200000000000001,2.0,1.2000000000000002,-1.6,-0.4
1698921042648.0,16,0.1,-0.1,0.2,-0.1,9.200000000000001,2.1,1.8,-1.4,-0.4
1698921042665.0,16,0.2,0.0,0.0,0.0,9.3,2.0,2.7,-1.5000000000000002,0.0
1698921042681.0,16,0.2,0.1,0.0,0.1,9.4,2.0,1.3,0.0,0.4
1698921042698.0,16,0.2,0.1,0.1,0.1,9.4,2.1,0.0,1.4,0.0
1698921042714.0,16,0.2,0.1,0.1,0.1,9.4,2.1,0.30000000000000004,1.3,-0.1
1698921042731.0,16,0.2,0.1,0.0,0.1,9.4,2.0,0.6000000000000001,1.5000000000000002,-0.1
1698921042747.0,16,0.1,0.0,0.0,0.0,9.4,1.9000000000000001,0.0,1.0999999999999999,-0.5
1698921042764.0,16,0.1,0.0,0.0,0.0,9.4,2.0,-0.1,0.9,-1.0999999999999999
1698921042781.0,16,0.1,0.1,0.0,0.0,9.4,2.0,-0.1,0.30000000000000004,-2.3000000000000003
1698921042797.0,16,0.1,0.0,0.0,0.0,9.4,1.9000000000000001,-0.9,-0.6000000000000001,-2.4000000000000004
1698921042814.0,16,0.1,0.0,0.0,0.0,9.4,1.9000000000000001,-1.3,-1.0999999999999999,-2.3000000000000003
1698921042831.0,16,0.0,0.0,0.0,-0.1,9.4,2.0,-1.9,-2.4000000000000004,-1.9
1698921042847.0,16,0.0,0.0,0.0,-0.1,9.4,2.0,-1.9,-4.0,-1.9
1698921042864.0,16,0.0,0.0,0.0,-0.1,9.3,2.0,-1.8,-4.7,-1.9
1698921042881.0,16,0.1,0.0,0.0,-0.1,9.4,2.0,-2.1,-5.500000000000001,-2.5
1698921042897.0,16,0.1,0.1,0.0,0.0,9.4,2.0,-2.3000000000000003,-6.5,-3.8
1698921042914.0,16,0.1,0.0,0.0,0.0,9.4,2.0,-2.3000000000000003,-7.1000000000000005,-4.3999999999999995
1698921042931.0,16,0.2,0.0,0.1,0.0,9.4,2.1,-2.6,-8.3,-4.5
1698921042948.0,16,0.2,0.0,0.0,0.0,9.4,2.0,-3.1,-8.9,-4.2
1698921042964.0,16,0.2,0.0,0.0,0.1,9.3,2.0,-3.8,-9.1,-4.2
1698921042981.0,16,0.2,0.0,-0.1,0.1,9.3,2.0,-4.1000000000000005,-9.200000000000001,-4.2
1698921042998.0,16,0.2,0.0,-0.1,0.1,9.4,1.9000000000000001,-4.300000000000001,-8.700000000000001,-4.1000000000000005
1698921043014.0,16,0.2,0.1,-0.1,0.1,9.4,1.9000000000000001,-4.300000000000001,-9.0,-4.1000000000000005
1698921043031.0,16,0.2,0.1,-0.1,0.1,9.5,1.9000000000000001,-4.3999999999999995,-9.200000000000001,-4.3999999999999995
1698921043048.0,16,0.2,0.1,-0.1,0.1,9.5,1.9000000000000001,-5.6,-10.1,-4.9
1698921043064.0,16,0.1,0.1,0.0,0.0,9.5,2.0,-7.300000000000001,-11.000000000000002,-5.300000000000001
1698921043080.0,16,0.1,0.1,-0.1,0.0,9.5,2.0,-7.8,-11.5,-5.4
1698921043097.0,16,0.0,0.0,-0.1,-0.1,9.4,2.1,-8.600000000000001,-12.3,-5.1
1698921043115.0,16,0.0,0.1,-0.1,-0.1,9.4,2.1,-9.5,-13.8,-5.0
1698921043131.0,16,0.0,0.1,-0.1,-0.1,9.4,2.1,-9.8,-14.3,-5.6
1698921043148.0,16,0.0,0.0,-0.1,-0.1,9.4,2.1,-10.3,-14.100000000000001,-6.8
1698921043164.0,16,0.0,0.0,-0.1,-0.1,9.3,2.2,-10.600000000000001,-15.399999999999999,-7.1000000000000005
1698921043181.0,16,0.1,0.0,0.0,-0.1,9.3,2.2,-10.3,-15.399999999999999,-7.1000000000000005
1698921043198.0,16,0.1,0.0,-0.1,-0.1,9.3,2.2,-10.2,-14.100000000000001,-7.1000000000000005
1698921043214.0,16,0.0,-0.1,0.0,-0.2,9.200000000000001,2.3000000000000003,-10.4,-13.3,-6.000000000000001
1698921043231.0,16,-0.1,-0.1,0.1,-0.2,9.200000000000001,2.4000000000000004,-10.4,-12.8,-5.4
1698921043248.0,16,-0.1,-0.1,0.0,-0.30000000000000004,9.200000000000001,2.4000000000000004,-11.1,-12.4,-5.2
1698921043264.0,16,-0.1,0.0,0.0,-0.30000000000000004,9.3,2.4000000000000004,-11.8,-11.9,-6.5
1698921043281.0,16,-0.1,0.0,0.0,-0.30000000000000004,9.3,2.4000000000000004,-11.5,-12.100000000000001,-6.9
1698921043298.0,16,-0.2,0.0,0.0,-0.4,9.200000000000001,2.4000000000000004,-10.3,-11.8,-6.8
1698921043314.0,16,-0.2,0.0,-0.1,-0.4,9.200000000000001,2.4000000000000004,-9.5,-11.700000000000001,-6.3
1698921043332.0,16,-0.30000000000000004,0.0,-0.1,-0.5,9.200000000000001,2.4000000000000004,-8.9,-11.2,-6.1000000000000005
1698921043348.0,16,-0.2,0.0,-0.1,-0.5,9.3,2.5,-9.200000000000001,-10.4,-7.1000000000000005
1698921043365.0,16,-0.2,0.0,0.0,-0.5,9.3,2.5,-9.8,-9.8,-8.4
1698921043382.0,16,-0.2,0.0,0.0,-0.5,9.3,2.5,-10.1,-10.1,-8.600000000000001
1698921043397.0,16,-0.1,0.0,0.0,-0.5,9.200000000000001,2.6,-11.1,-10.8,-8.4
1698921043415.0,16,-0.1,0.0,0.0,-0.5,9.200000000000001,2.7,-11.2,-10.600000000000001,-8.4
1698921043431.0,16,-0.1,0.0,0.0,-0.5,9.200000000000001,2.6,-10.700000000000001,-9.1,-8.5
1698921043448.0,16,-0.2,-0.1,0.0,-0.6000000000000001,9.1,2.7,-10.1,-6.000000000000001,-9.0
1698921043464.0,16,-0.1,-0.1,0.0,-0.5,9.1,2.7,-9.3,-3.3000000000000003,-9.3
1698921043481.0,16,-0.1,0.0,0.0,-0.5,9.1,2.8000000000000003,-8.600000000000001,-2.4000000000000004,-9.8
1698921043498.0,16,-0.1,0.0,0.1,-0.6000000000000001,9.200000000000001,2.8000000000000003,-7.0,-0.5,-10.1
1698921043515.0,16,-0.1,0.0,0.1,-0.7000000000000001,9.1,2.9000000000000004,-6.2,1.4,-9.600000000000001
1698921043531.0,16,-0.2,0.0,0.2,-0.8,9.1,2.9000000000000004,-6.000000000000001,3.0000000000000004,-9.5
1698921043548.0,16,-0.4,0.1,0.2,-1.0,9.200000000000001,3.0,-5.9,7.500000000000001,-9.1
1698921043564.0,16,-0.5,0.2,0.2,-1.1,9.3,3.0,-6.4,8.600000000000001,-9.200000000000001
1698921043581.0,16,-0.5,0.1,0.2,-1.2000000000000002,9.200000000000001,3.0,-7.1000000000000005,8.600000000000001,-9.3
1698921043598.0,16,-0.5,0.0,0.2,-1.2000000000000002,9.1,3.0,-8.4,8.9,-8.700000000000001
1698921043615.0,16,-0.7000000000000001,-0.1,0.1,-1.4000000000000001,9.0,3.0,-9.200000000000001,8.9,-8.799999999999999
1698921043631.0,16,-0.8,-0.2,0.1,-1.5,8.9,3.0,-9.4,9.9,-8.5
1698921043648.0,16,-1.0,-0.30000000000000004,-0.1,-1.8,8.8,2.9000000000000004,-8.3,10.3,-6.7
1698921043664.0,16,-1.2000000000000002,-0.4,-0.2,-2.1,8.700000000000001,2.7,-6.3,9.200000000000001,-4.3999999999999995
1698921043681.0,16,-1.3,-0.5,-0.30000000000000004,-2.1,8.6,2.7,-5.4,8.0,-3.6
1698921043698.0,16,-1.3,-0.5,-0.4,-2.2,8.5,2.6,-3.4,4.5,-2.4000000000000004
1698921043714.0,16,-1.3,-0.4,-0.30000000000000004,-2.2,8.700000000000001,2.6,-0.6000000000000001,0.5,-1.9
1698921043732.0,16,-1.2000000000000002,-0.2,-0.30000000000000004,-2.2,8.9,2.6,1.0,-1.4,-1.9
1698921043748.0,16,-1.2000000000000002,0.2,-0.30000000000000004,-2.1,9.3,2.6,2.7,-3.8,-2.1
1698921043765.0,16,-1.2000000000000002,-0.2,-0.4,-2.1,8.8,2.6,1.2000000000000002,-5.6,-0.5
1698921043781.0,16,-1.4000000000000001,-0.2,-0.5,-2.3000000000000003,8.8,2.4000000000000004,8.0,-9.9,-1.0
1698921043798.0,16,-1.2000000000000002,-0.2,-0.1,-2.2,8.8,2.8000000000000003,8.9,-6.6000000000000005,-1.2000000000000002
1698921043815.0,16,-0.9,-0.2,0.2,-1.8,8.9,3.1,6.1000000000000005,-7.699999999999999,4.0
1698921043831.0,16,-0.4,0.2,0.1,-1.3,9.200000000000001,3.0,7.300000000000001,-10.3,7.8
1698921043848.0,16,-0.30000000000000004,0.30000000000000004,-0.1,-1.2000000000000002,9.4,2.8000000000000003,5.2,-10.0,8.4
1698921043865.0,16,-0.4,-0.1,0.1,-1.2000000000000002,9.0,2.9000000000000004,5.1,-12.8,8.1
1698921043881.0,16,-0.4,-0.30000000000000004,0.0,-1.2000000000000002,8.8,2.9000000000000004,7.9,-10.8,4.1000000000000005
1698921043898.0,16,-0.30000000000000004,-0.4,0.2,-1.2000000000000002,8.700000000000001,3.0,8.1,-11.5,4.7
1698921043914.0,16,-0.1,-0.2,0.2,-0.9,8.9,3.0,7.9,-15.399999999999999,9.3
1698921043931.0,16,0.2,0.0,0.2,-0.7000000000000001,8.9,3.0,7.2,-17.7,11.000000000000002
1698921043948.0,16,0.2,0.4,0.2,-0.5,9.5,3.0,3.5,-14.700000000000001,12.9
1698921043964.0,16,0.30000000000000004,0.5,0.2,-0.4,9.700000000000001,3.0,0.1,-9.700000000000001,10.700000000000001
1698921043982.0,16,0.2,0.5,0.2,-0.4,9.600000000000001,3.0,-0.1,-8.3,6.6000000000000005
1698921043998.0,16,0.2,0.5,0.30000000000000004,-0.30000000000000004,9.600000000000001,3.1,-0.2,-7.0,5.9
