msFromStart,interval,accx,accy,accz,accGx,accGy,accGz,rotRate_alpha,rotRate_beta,rotRate_gamma
1,0.01666666753590107,-0.3946056131608784,-0.11718377940058708,-0.7919739690333605,1.1634322231017054,-5.844844802856445,-8.598176712036132,-3.744788243129714,8.656347820095087,-2.7174714428991438
178,0.01666666753590107,-0.031736725598387416,0.09137947605848312,-0.01145429095029831,-0.5701193068573251,-3.5573350464418527,-9.09811594619751,-4.624023127059823,-0.16730796499912176,-2.0601472706686335
195,0.01666666753590107,-0.010584814639389515,0.07801204496324061,-0.12532090862691403,-0.5493196799347176,-3.5564372208192943,-9.217676391601563,-5.24431614804464,-1.3167800038122992,-3.6617258857463657
211,0.01666666753590107,-0.004609612687304616,0.09976853421926497,-0.15974340271055698,-0.5397428002288565,-3.5209731087282297,-9.25777868488729,-6.844010057798272,1.1861438847559311,-3.9852749349376317
228,0.01666666753590107,0.007512092663161456,0.11247077940404414,-0.24290333195626734,-0.5184943335602059,-3.4917934837341305,-9.348010744476317,-6.923022539890625,3.174787825994405,-3.4829446170042244
245,0.01666666753590107,0.1048055420057848,0.12648907562345266,-0.352993353703618,-0.40806181851811707,-3.464410094507038,-9.464129524993895,-1.021353724920032,2.602865137494561,-2.12452265736965
261,0.01666666753590107,0.12703746675383298,0.1543631709769368,-0.24089199213385581,-0.43245271139834074,-3.3839047714233397,-9.369857834625243,4.064309188257965,0.9530392400586222,-1.8862109539255583
278,0.01666666753590107,0.11838376630749553,0.13802140024602413,-0.19302257197797298,-0.4321534727234393,-3.4024604188114402,-9.321674526214599,5.68306572909828,-1.1310349303245064,-2.200576813777742
294,0.01666666753590107,0.12237988673895597,0.08442541913688183,-0.11932020690739154,-0.4213795287201181,-3.441814524078369,-9.253888691711426,5.486464710254986,0.6673451269599767,-2.1957393322980803
311,0.01666666753590107,0.05886668805368244,0.0374006331115961,0.09299860169291496,-0.4547487143585458,-3.454833287866413,-9.056367054748534,4.545032416195449,2.3512411819147028,-1.56273330155546
328,0.01666666753590107,0.042690008223988114,-0.04117138382196426,0.08130465676784515,-0.4445733573028818,-3.5223198471620676,-9.073725016784667,3.0465360832886064,2.9017164360904726,-2.083011969245486
344,0.01666666753590107,0.06808868990726769,-0.05335749617815017,0.17315934912264347,-0.39234983359072356,-3.505410797937214,-8.994267449188232,1.566479660315212,2.8362533417641314,-1.3726685603044575
361,0.01666666753590107,0.11572879481930284,-0.051210255016386506,0.11788988184332846,-0.32890345306396485,-3.491943413598835,-9.054571403503417,1.5032777854909685,1.9158887661994983,-1.0117067230476235
378,0.01666666753590107,0.1337707205316052,-0.05099222835153341,0.12859656929671764,-0.30511103753354396,-3.4946365982055663,-9.043049308013915,2.909068280958345,0.05970777949653252,-0.8531249917238543
395,0.01666666753590107,0.12057367756720631,-0.021472119356691837,0.21786182968020437,-0.3215712470123544,-3.48236660695821,-8.947131604003905,4.721256846310478,-2.2811534091900287,-0.9327584874221503
411,0.01666666753590107,0.1738893804302439,-0.047859775544703005,0.15966098512411117,-0.27129301214907314,-3.530849190576374,-8.996811288452149,3.3150299657881614,-2.9253128186821624,-0.1652406054755764
428,0.01666666753590107,0.14754216585047542,-0.020327040974795818,0.07460720495581627,-0.3003226707458496,-3.513341298675537,-9.07791428516805,1.629975339995472,-1.326930732135996,1.2451824391159347
445,0.01666666753590107,0.07303630237728356,-0.04176321223527193,0.011009469792246818,-0.36332013846132905,-3.54641150136739,-9.137620273590088,2.7944564260250617,2.4632447583586874,2.4020866042001585
461,0.01666666753590107,0.05791830128766596,-0.09919102659225464,0.05521802935302257,-0.36272151498105376,-3.614945231628418,-9.089885877990723,4.0995559525829925,2.017596686243335,2.6394980033342783
478,0.01666666753590107,0.10149513881616294,-0.11228636274784803,0.08273673539757728,-0.3173813575744629,-3.6418802925661202,-9.057115242767333,6.515487350230767,-2.116108504642429,2.831514471140612
495,0.01666666753590107,0.1322553840652108,-0.1274912384033203,0.306655380898714,-0.29388829031679775,-3.6903628761842846,-8.819939640808105,12.174235898336509,-6.78437567615489,3.077539379148352
511,0.01666666753590107,0.20709826094042508,-0.2172577263072133,0.38567514159977434,-0.2314893730163574,-3.8079777404785156,-8.729408890533447,13.98891641551864,-5.6596590976994685,6.277869764761078
528,0.01666666753590107,0.31391653100810946,-0.2565434425130486,0.39329146182239055,-0.14170677422787994,-3.879953135626018,-8.70801012867391,15.773591057903257,-4.809751338518102,9.596180996115196
544,0.01666666753590107,0.5510941422613337,-0.5694988003388047,0.3879810804545879,0.06584050912167877,-4.247762950189411,-8.689754925537109,22.429176687068388,-7.322844738430247,14.949742177952782
561,0.01666666753590107,0.8007569949477911,-0.8350339430809021,0.35055998907685276,0.27997195663452146,-4.5739729263857,-8.700379195404052,32.01774116848537,-12.46458297108552,22.93536712909991
578,0.01666666753590107,0.9765228733070194,-0.9060659198984503,0.2055003607571125,0.39668928756713867,-4.736180088861286,-8.8036285574764,49.11000611359172,-16.941293858786977,28.44084281713598
594,0.01666666753590107,1.1856424474745988,-1.2223349323168395,0.2784019308388233,0.4990413354735821,-5.233276208551228,-8.64411545639038,68.51445401728748,-27.56134155582824,30.56096768645379
611,0.01666666753590107,1.4345079027056693,-1.8080732120558618,-0.3261918560177088,0.6376058296203613,-5.983858429010212,-9.163507579040527,78.8475671748438,-38.510638521809966,32.88989485379347
628,0.01666666753590107,1.7316697713330387,-2.0573452022612093,-0.46935120367407795,0.7950245157103986,-6.417208929498493,-9.203460819244384,88.25434958659548,-50.385789827901725,35.05384904701525
645,0.01666666753590107,2.4690789142251015,-2.0756942211613056,-0.9061077132135629,1.2990037459775805,-6.6947866844728585,-9.477297634124755,90.31015456449927,-65.15090003975801,38.303161280487075
661,0.01666666753590107,2.848375752964616,-2.0857795618459583,-1.9597376454681157,1.4797661174498498,-6.889165931756794,-10.399214910888672,87.82093993281232,-67.29098955201977,43.81585477092856
678,0.01666666753590107,2.8538287576735017,-2.000810245090723,-2.5494056658715007,1.2832922359742223,-6.97805037612915,-10.851868077740072,88.40309744634001,-60.371304413312345,51.639235408531206
695,0.01666666753590107,2.7457416001811623,-1.8023668171077967,-3.41154330445528,0.9133876410886644,-7.012766884723305,-11.514912884521484,102.01053499010875,-54.93310096595902,61.77667047655583
711,0.01666666753590107,2.3643764307349917,-1.6380109521657227,-4.148564617073536,0.3104977355405688,-7.04823099681437,-12.065728903961181,120.75565448793941,-81.75905142177763,67.73584660285188
728,0.01666666753590107,2.1415711533032358,-1.185867488402128,-4.675603455084562,-0.19647446599751708,-6.822577490344643,-12.352284915161132,137.77074854070838,-94.11537589451844,64.04877388509559
745,0.01666666753590107,1.4048428322821855,-0.6443646562308073,-5.079035787171125,-1.2762594147279858,-6.592734130969643,-12.400168948364257,137.6697710240189,-73.52459584897775,54.607820036926334
761,0.01666666753590107,0.41546266935914755,-0.041083705538511275,-5.068050867298245,-2.4582465545654295,-6.207715991973877,-12.13097031467855,136.32478383303834,-44.33636299700772,50.15916756633529
778,0.01666666753590107,0.23317922579944134,0.16828151395320892,-5.078142053201795,-2.781164503479004,-6.209961140552163,-11.890053188103437,138.39154443437084,-23.856303733007532,46.86907910351849
795,0.01666666753590107,0.12353344068825244,1.1020137316733598,-5.434080228185653,-3.0217823548465965,-5.553351335254312,-11.9135474609375,145.49218177475942,-2.23193549291774,46.75634341617284
811,0.01666666753590107,-0.3830924316301942,1.8176076408594846,-5.427258273211121,-3.606715163421631,-5.0499704362064595,-11.641356075176596,154.9526494733874,1.417121672578722,40.21254749315331
828,0.01666666753590107,-0.5144570043355227,2.1268699893862006,-5.397698416727781,-3.8001968773439523,-4.963480485755205,-11.322329288482665,166.05195276146824,5.008919227828851,34.02533867122722
845,0.01666666753590107,-0.9417878061428665,2.6858576248437163,-4.696809909242392,-4.2931031441286205,-4.7128374994575974,-10.192115882763266,181.01742998772144,10.076099115504265,30.62173587949939
862,0.01666666753590107,-1.1706757644891739,3.0404905624479053,-3.6431115879267453,-4.566640976062417,-4.589685167041421,-8.782978568157553,186.41128501679387,0.5036506788773355,23.652038388141836
879,0.01666666753590107,-1.222576632118225,3.1963948253870007,-3.39229675219357,-4.665551139886677,-4.6600154253304,-8.145522376140951,190.37961126419293,-9.777109292134249,16.41726296264338
895,0.01666666753590107,-1.5188427209496498,3.5326451340824363,-2.2110610152453183,-5.013757843835651,-4.603153135901689,-6.42588674147278,186.78273802461584,-6.094933820012865,10.606792861183207
911,0.01666666753590107,-1.4307324758201836,3.634628421741724,-1.4583657481551169,-4.94402730500549,-4.6845571613907815,-5.281758499908447,176.67023314706177,6.846232857486288,6.62182571164505
928,0.01666666753590107,-1.321578858140111,3.549693299517035,-1.32704530685246,-4.8380832970216865,-4.925921447211504,-4.786607084545492,163.73459251948796,11.762440378181855,5.778397240665086
945,0.01666666753590107,-1.0771055003881453,3.389901966011524,-1.2526245643794536,-4.595969946399331,-5.2578176523506635,-4.253448302349448,154.1620823977151,7.838827110410629,2.4263320682064116
961,0.01666666753590107,-0.9070677904173732,3.16802973164618,-0.34653351003974675,-4.421941120965778,-5.590909789276123,-3.0105583655208346,148.15247215458768,10.003057072520148,-0.44351024958556506
978,0.01666666753590107,-0.7798986235752702,3.23188816357255,-0.24030381698235867,-4.282628219604492,-5.622184632983803,-2.586934163146466,135.86791247945618,12.481290467569018,-3.5075271081573347
994,0.01666666753590107,-0.6226560977697372,3.1593045733988285,0.03976736224293709,-4.103961505237222,-5.795465562659501,-1.9256855921320617,121.43219838560752,14.158647470167102,-3.482492970745357
1011,0.01666666753590107,-0.6416428300514817,3.0381741021990774,0.4139436430983245,-4.109648026441038,-5.975480769026279,-1.2882295462459326,115.54871441569355,17.781425909718763,-1.2064995560298617
1028,0.01666666753590107,-0.5284317536741495,3.0476328354179856,0.504860908472538,-3.988141999927163,-6.012440088111162,-0.9497485558889806,107.85264167403078,16.575093266436742,0.42348920422011227
1044,0.01666666753590107,-0.07842062576413154,2.4349597870022057,0.23790099362432957,-3.5420720108583565,-6.668900840327144,-0.8993209026176482,103.44570116870099,6.004585358332405,5.172742168845253
1061,0.01666666753590107,-0.244737269385159,2.362246432968974,0.6525082151979208,-3.719392863574624,-6.764668322211503,-0.2400177665825933,105.19888095504903,4.375755142239968,4.536236840091765
1078,0.01666666753590107,-0.3821408299937844,2.2003332850039006,0.8053087399680167,-3.8642417717531323,-6.944232862201333,0.15547478548064828,103.38974825902025,11.281105848313656,2.563191556813719
1095,0.01666666753590107,-0.6243842367365956,1.6578589774519203,1.080426169243455,-4.105756571960449,-7.503278949847817,0.7282869846837595,92.63881193936675,14.518909213034009,-1.3284010370765469
1111,0.01666666753590107,-0.44547523804605005,1.4066571882277725,1.3966460818231106,-3.9209544235780833,-7.762151419830322,1.2404968676796182,82.91205565556747,16.076076230581027,-2.7065427133403004
1128,0.01666666753590107,-0.17631255245655775,1.0632540851682424,1.5209972686350344,-3.638288990075886,-8.111706031256913,1.5933427437705219,71.1532976031219,11.660283800086914,-5.406568572438762
1145,0.01666666753590107,-0.14072744433432816,0.950813700902462,1.524241365122795,-3.5887586509704588,-8.226925817108153,1.749115941375587,63.53983599947043,7.398158673087039,-6.5092620596891235
1161,0.01666666753590107,-0.2694385799214244,0.9369336441099643,1.583684903216362,-3.7027830895572897,-8.241891915571689,1.9466367563545703,55.15676575561484,2.361613891386425,-6.225875803478002
1178,0.01666666753590107,-0.34865123284608124,0.9364128351062536,1.2795277688741684,-3.7579990730836985,-8.243836619898676,1.798944222247973,42.88376959074818,-4.410113981972894,-9.315817952385451
1195,0.01666666753590107,-0.3396528106153011,0.8389724515736102,1.127789393442869,-3.722684598596394,-8.344841417914628,1.746721136927232,36.8143610414373,-5.4066005889504964,-11.59234305463915
1212,0.01666666753590107,-0.12526684035211802,0.6822995423495769,0.8202865288693457,-3.4787758889898655,-8.506151923811435,1.5251079918894916,32.43859351947946,-4.974307671096635,-12.116355167762528
1228,0.01666666753590107,0.05360299537181854,0.7131050149798392,0.6801076583284884,-3.261501796069741,-8.480414255964755,1.4923376489270477,31.39930852027574,-5.991831687604699,-10.895669735713373
1245,0.01666666753590107,-0.007998597538471222,0.8073895648300647,0.6909037776309996,-3.297265183368325,-8.38823749204874,1.5806228122320025,29.841448238527963,-2.725306310207383,-9.11828034385222
1261,0.01666666753590107,-0.1502498904392123,0.9886772753506898,0.885955298153311,-3.422512149976194,-8.206278165876865,1.8427878940191118,26.852448174703664,0.5443776027942406,-5.2578219933546935
1278,0.01666666753590107,-0.06690291418880223,0.9550941547006369,1.0504501331746579,-3.3206086495548486,-8.237551256018877,2.089242123389989,26.375004291341433,-2.376101362946257,-7.041961319663112
1295,0.01666666753590107,0.1101239240169525,0.9531219778448343,1.10100871934928,-3.1254806297302244,-8.237998415264487,2.207605175703019,28.23722121759956,-6.810761123805473,-6.280358088053078
1312,0.01666666753590107,0.25091829610764976,0.8773428065001964,1.3530980319976806,-2.971354190118611,-8.309526943427324,2.5315706609081476,29.405972452520878,-6.573583231763603,-2.6962577291107306
1328,0.01666666753590107,0.1351230484560132,0.7210621114641428,1.6105271713040767,-3.080739278466999,-8.455871350860596,2.880375111554563,26.46821076030272,-2.2946338547341067,-0.21049882629825606
1345,0.01666666753590107,0.08372428513020276,0.715768681231141,1.9892096775375305,-3.1323639595031736,-8.452879183307289,3.317017931586504,22.436747951763348,2.326276840498306,0.2654228053331351
1361,0.01666666753590107,0.13433160581737755,0.6496341210663318,2.450929655680805,-3.0826848595768213,-8.513185475710033,3.8162101467728613,10.462596468746836,-0.7486896384062138,0.38634871658684566
1378,0.01666666753590107,0.1107362106963992,0.7100093870520592,2.211769894167036,-3.105279553222656,-8.450933894458412,3.591901479040831,-1.2324624924472554,-7.7995321783419,0.29080208074161
1395,0.01666666753590107,0.1253705929875374,0.7236053662061691,2.0174163658462465,-3.0870240578249093,-8.438363751220702,3.3991680992677806,-3.902516094085526,-11.461153049929777,-0.20145037311272299
1411,0.01666666753590107,0.013355448396503924,0.6288590440630912,1.1646353152811526,-3.193266756494343,-8.53562936270833,2.5430919526800513,-5.738997294437867,-11.036592759990015,0.7106855587297638
1428,0.01666666753590107,-0.10619389109164476,0.5713549495995044,0.5629762667022645,-3.3123779968261715,-8.593986859130858,1.9367602361150085,-3.5395568533832864,-7.755862510109776,1.7845540468570849
1445,0.01666666753590107,-0.030623686322569846,0.6195499484479426,0.38848829932436346,-3.2390555709838864,-8.544307174682617,1.7669221403695643,2.9767008141198112,-6.474641965220445,2.0917432988822893
1460,0.01666666753590107,0.24082827924787997,0.5806225441604852,0.2919277673661709,-2.970606002099812,-8.579024267798662,1.6912050744757054,9.472244652304376,-6.997133507479849,2.8813552152878414
1478,0.01666666753590107,0.29249533812105655,0.5796007998973131,0.5447801002763212,-2.9242180526733397,-8.569746151843667,1.9982614373907446,12.725344225670973,-7.439194449620476,3.1446794983593427
1495,0.01666666753590107,0.2750190104022622,0.5036556243360042,0.7174540039695799,-2.946813915362954,-8.638281927931308,2.205808647675067,8.487552501362917,-7.486790622851709,2.8772854897595717
1512,0.01666666753590107,0.3779094760343432,0.5755968249529599,0.8068386529490351,-2.8467051894038913,-8.560466866844893,2.3249198880068955,4.3968834786637565,-5.692947732166819,1.283122539129769
1528,0.01666666753590107,0.5814280153244733,0.5179518607139587,0.9886519947789609,-2.648286311340332,-8.614039467078447,2.520346452386677,2.78322887569003,1.672208747511188,3.203090635811057
1545,0.01666666753590107,0.600244651736319,0.5832903020650148,1.048322619626671,-2.6408050156742333,-8.545357560518383,2.5760120793767274,-2.5947269670984907,12.066586140601585,3.9274791548414534
1561,0.01666666753590107,0.7362213944122195,0.3743208038926124,1.2270282046996057,-2.5185505088806153,-8.75320126953125,2.7320848307505248,-10.839020146737287,12.82479604885459,4.647678633476516
1578,0.01666666753590107,0.975715210185945,0.48760289967954157,1.406502436057478,-2.299930554309487,-8.640376854383945,2.8627183127023277,-14.66726945954315,10.29110578661345,5.612795889143542
1595,0.01666666753590107,1.074730003428459,0.5166951386511326,1.4184921490587292,-2.218527697864175,-8.610748608839511,2.837878616608679,-13.597436439276542,7.39269879061926,7.512058053912525
1611,0.01666666753590107,1.0865513741254806,0.6197212133616209,1.4479156658113002,-2.2360350052431226,-8.50345727789998,2.825757532312721,-13.371709786265022,6.589293093741456,10.782588270040996
1628,0.01666666753590107,1.019967901149392,0.509115058785677,1.5056430476367473,-2.328810611835122,-8.608353822657465,2.8576315109573303,-15.044497392308369,5.757946373629599,12.880953864210436
1644,0.01666666753590107,0.9335095148801803,0.39859307536184785,1.5362848541378975,-2.4474729393556713,-8.712950507685541,2.847454400335997,-20.285385212276484,9.29803384733403,14.085348441315464
1661,0.01666666753590107,0.6780664348244667,0.2669470553666353,1.6516741513371467,-2.750638724572956,-8.840141886359453,2.8663090306706724,-31.446979825587842,15.681303249385337,12.036342916730414
1678,0.01666666753590107,0.632352731397748,0.4749795649498701,1.4629472307264804,-2.8266549195438624,-8.633043442755937,2.580800921088457,-35.80899476165186,18.577344438605763,9.161052695982132
1694,0.01666666753590107,0.7091548160493374,0.6163426768392324,1.3935516229391096,-2.7745810334354637,-8.494179746466875,2.4096163791701195,-34.7796032914609,19.688182499554543,7.453737629910725
1711,0.01666666753590107,0.8703168533861637,0.8117500981271266,1.2509458175122736,-2.643049287469685,-8.301446512824297,2.132037455151975,-33.28611412754591,25.702910261917594,6.633799887033728
1728,0.01666666753590107,1.1917562541797757,0.9297159678161143,1.4848834604635834,-2.342727201245725,-8.184730935457349,2.262522249348089,-33.63062545418677,25.81628286440334,6.8836853460264065
1744,0.01666666753590107,1.3071654251232743,0.9080512484967708,1.6687293310344218,-2.2504007997259494,-8.205679615461825,2.342577125250548,-35.3295530479574,21.873076345224288,8.718314711340028
1761,0.01666666753590107,1.4366782324820757,0.9457312830716371,2.0765373939871785,-2.1594205521181227,-8.162582816535235,2.6029476152384654,-42.69821384156645,20.927993315053378,12.350511981757137
1777,0.01666666753590107,1.2132508776292203,0.9069400723844766,2.054502087789774,-2.414253683581948,-8.195653896009922,2.4474744006603957,-51.651078956552006,24.640776572392884,11.352801490257633
1795,0.01666666753590107,1.1786395829752088,0.9084633364289999,1.9780337651371955,-2.4772511147648095,-8.188172015821934,2.2149375644177196,-56.093901860686444,33.557661958378105,11.178778515489462
1811,0.01666666753590107,1.1062146904945374,0.8939636864334344,1.8928771091163157,-2.588730545043945,-8.189965913501382,1.8957598240895444,-60.558157898436384,44.725752081590144,11.957553269559732
1828,0.01666666753590107,1.066451127643883,0.8350380347341299,1.8879571883708237,-2.653972832544148,-8.236503208270669,1.698237913988251,-64.89668722903932,45.38251916651648,10.598269638872678
1845,0.01666666753590107,1.0320090520769356,0.8536620711833238,2.068666222220659,-2.708141352844238,-8.20328424475789,1.6769896482490003,-70.13530571865569,41.6747407302913,8.731116193391925
1861,0.01666666753590107,1.032670438595116,1.1867179677516222,2.0675538770645856,-2.7232547508239744,-7.847595076099037,1.4007587778389452,-70.06657352503785,40.59577916219897,6.2221554848144605
1878,0.01666666753590107,0.9320704219877719,1.1803723981171845,2.156366717505455,-2.8278517281129956,-7.834577189093828,1.282245795661211,-68.16697497345224,52.124008084872855,5.0708797157714445
1894,0.01666666753590107,0.9078983960226178,1.0381202284336088,2.403157120028138,-2.8462574456363914,-7.955334735327958,1.3102282467599957,-70.09420847041973,62.11254502899121,2.3739842177469646
1911,0.01666666753590107,0.9676923549890518,0.47530923529565333,2.9649224035054442,-2.761711907251179,-8.485051852637529,1.5599730421088636,-80.32126245054408,58.100136740688875,-0.7865957475567565
1927,0.01666666753590107,0.8866115701049566,0.3652344111174345,2.9144208812803027,-2.8187238342836496,-8.56181594336629,1.2565075432926416,-89.16230029334362,54.744871197717224,-0.6173025720671148
1945,0.01666666753590107,0.748240333507955,0.364976052442193,2.7348469889402387,-2.928407905578613,-8.520365742602944,0.8104384310066699,-90.96754661173466,61.36543161681853,-1.0661358602132205
1961,0.01666666753590107,0.03344751157164574,-0.046456046226620674,2.1346254258185624,-3.5881603928163646,-8.870966648212075,-0.1418557177118957,-81.4978035162138,68.61728934543119,-3.7425462335346573
1978,0.01666666753590107,-0.5737731166571378,-1.2407488331466912,1.6552379812985658,-4.136582210595906,-10.024672573199867,-0.8586199858516455,-69.3168373202239,66.39902831811864,-11.146461475431547
1995,0.01666666753590107,-0.5756184522628783,-1.7100895154267548,1.786819119364023,-4.0583217438295485,-10.465804813605546,-0.9295479177728295,-55.42407203897246,67.13238572930291,-18.580467542603753
2011,0.01666666753590107,0.1306201840788126,-2.463386255541444,1.7714166753098368,-3.229329126739502,-11.188853130450845,-1.1861764082208275,-46.79089392808935,79.84841528449327,-10.313909226931184
2028,0.01666666753590107,0.24897739117294548,-4.849592825290561,1.3589952733427286,-3.0410853134706612,-13.544299235755204,-1.7631793005794285,-26.13626527418739,102.88621305302857,12.689052869289757
2045,0.01666666753590107,-0.8779127153426408,-6.219826701006293,2.0161530679121613,-4.119223664037883,-14.88789469539225,-1.228673487688601,3.29861147168392,126.15452287586263,27.583053019652418
2061,0.01666666753590107,-3.061346011210978,-7.7850366208553305,2.8073887857988473,-6.266523570251464,-16.42841382609904,-0.5376473257869482,23.888762499490724,124.67380616569557,47.23776929982119
2078,0.01666666753590107,-5.3533332053005696,-9.942139835941791,1.9622899602994321,-8.568548174230754,-18.57152417166829,-1.4091364378228783,38.187406649528285,106.31301458227234,48.72904206735051
2117,0.01666666753590107,-6.311189225929975,-10.180554624307154,1.4212570837274192,-9.536553832952677,-18.81498396846354,-1.9274808049857615,47.04349822925852,82.89343655989002,30.82717089426045
2117,0.01666666753590107,-7.8773676985502235,-11.011697989690303,0.129933078597486,-11.06375550918579,-19.686622425842284,-3.150768800243735,50.491883156279535,71.48422026840902,4.743300001196225
2128,0.01666666753590107,-5.623596253347396,-10.281592740070819,-1.0995932265281676,-8.766669238391518,-18.988712641906737,-4.336497172436117,41.029410797130154,75.20758861141475,17.319940763352268
2144,0.01666666753590107,-4.047851787741482,-9.178727360004187,-2.1910130834728476,-7.202057868957519,-17.89650894110799,-5.38815025165975,39.886873828243345,35.13635090199983,34.43056696449491
2161,0.01666666753590107,-3.3186899564519523,-3.966664327612519,-4.167163226820528,-6.599617168481648,-12.695553578186034,-7.202355975121259,74.96029478232526,-10.048447094649468,55.774030441476405
2177,0.01666666753590107,-3.0566897098377344,-1.416158591544628,-5.250032989823818,-6.488286791284382,-10.152762946540117,-8.090156462749839,75.23269638680372,-23.995866695865693,62.54199317305576
2194,0.01666666753590107,-3.225598415778577,-1.041085507979989,-5.886968957358598,-6.809708071899414,-9.76654829123616,-8.56854788196981,40.68271380995489,-26.345508119410734,51.511066908755915
2211,0.01666666753590107,-2.6314289923027157,-1.3092980532377958,-7.650811690282821,-6.353612655639648,-10.013000840106606,-10.212316374748944,20.489688123182614,-37.95046055703137,15.609389895161565
2228,0.01666666753590107,-2.554021050712466,0.05113397490978241,-8.611015150821208,-6.294057181604206,-8.672247910419106,-11.077820274895428,31.30743906084448,-34.434617266672724,-19.94419677266684
2245,0.01666666753590107,-1.9090081597059965,1.0658370873987675,-8.79803526751399,-5.593154353332519,-7.710676668658852,-11.158175960375369,31.97330395774527,-33.02621518434317,-46.122033993237515
2261,0.01666666753590107,-0.41374475952535866,3.815152746674418,-7.683836592528223,-3.92948376699239,-5.064785143500566,-9.910198345018923,21.091438034344492,-50.35907354296322,-87.48563228607806
2278,0.01666666753590107,-1.116901796464622,7.351292152613401,-4.992888951069117,-4.425382785852253,-1.630153224402666,-7.127837032970786,15.878120272961132,-54.013340862135934,-113.85562663366328
2295,0.01666666753590107,-2.2304119046643374,9.024798196530341,-4.014791521921754,-5.272630898340046,-0.061651861792802805,-6.100873573845624,-14.54292757325036,-45.95045622619221,-137.66509917462662
2311,0.01666666753590107,-0.7188371288910508,9.957261417227983,-5.046437001383304,-3.303250102996826,0.7438479437679052,-7.192180618065596,-35.53814019502042,-21.413775151844902,-162.30532079414945
2328,0.01666666753590107,1.4291172957085072,9.096610802331567,-5.093925313267111,-0.7493851196289062,-0.2014127991825342,-7.323562872558087,-36.01689205960871,29.91244463985566,-170.53748825357735
2345,0.01666666753590107,1.757462384237349,8.446744041553139,-3.698564595079422,0.03127425918579101,-0.9062064974129199,-6.088753658593446,-75.71470283653152,92.04843087807835,-170.57554606763267
2361,0.01666666753590107,2.6896137625068426,8.11402366054952,-1.2356100089535116,1.6476598011292516,-1.2250830619812012,-4.040214132469893,-142.48456261525766,127.78823582343799,-187.24921262417104
2378,0.01666666753590107,3.708432493621111,7.157562309148907,0.49563978340178727,3.2270846722809594,-2.089541836988926,-2.7338781439080835,-187.55280087239976,103.91303637209161,-195.90060343447598
2395,0.01666666753590107,1.1435824442498386,3.7273645731061693,-1.128783372916281,1.3670894036775454,-5.28624762802124,-4.9856248052850365,-185.4016191329259,47.16735687966753,-196.5373546500396
2411,0.01666666753590107,-1.9961701641999183,2.8818139121860264,-1.0752250934690237,-1.250371597820893,-5.949293019324541,-5.273527554918825,-104.48951799841903,53.916700515569424,-205.54007673087165
2428,0.01666666753590107,-4.873276190955937,0.5067278713881969,1.7771689552262424,-3.608360738671571,-8.20358293544352,-2.5472803442806002,-25.95342794029532,36.871533139884896,-197.18051258304467
2444,0.01666666753590107,-5.0226019522875545,-1.473979496872425,3.404989937289059,-3.3087864020749924,-10.084527614703774,-0.9644134794488549,-36.11675967055805,3.4099062025581044,-188.15190408525825
2461,0.01666666753590107,-2.0134929087921978,1.4390455461353062,6.188004160287976,0.3214220112673938,-6.846969004279375,1.491139305987954,-214.52305956500237,28.586158506822585,-218.7772975310582
2478,0.01666666753590107,3.653453241460025,4.831314825800061,1.592356869971752,6.484995056262612,-2.953098694720864,-3.656993398284912,-308.66608406528104,33.17089225134238,-207.09018816300605
2495,0.01666666753590107,8.0706451220721,1.7761732221871613,-4.608766884130239,11.332355592456459,-5.33084021846354,-10.526705564770102,-178.26792367695447,-26.892075224720784,-106.94097534437415
2511,0.01666666753590107,7.3250512114197015,2.3240654631346462,-6.34920769867897,10.646416524560749,-4.5603561967045065,-12.492794040569663,-37.227136693737855,-49.79277231359371,-38.30875520541732
2528,0.01666666753590107,5.6865288026005025,0.8088292422443628,-6.597195202031731,8.970475654712319,-6.053739482226968,-12.785186502838133,26.240722772258984,-52.06108496714412,-17.589043386461597
2544,0.01666666753590107,6.547288138568401,0.9893658421367406,-4.015826710188389,9.713425772857665,-5.954230475726724,-10.174757920727133,53.73995571041701,-72.09283793478134,17.34436381227694
2562,0.01666666753590107,7.523375981459021,0.47678398402333255,-2.634568751633167,10.491242329461873,-6.616676147571206,-8.72102860020101,77.38512805089569,-51.58749672556836,92.629140391502
2578,0.01666666753590107,6.3239481697380535,-3.049651774024963,1.0442699832350015,8.956110152490437,-10.34848893225789,-4.953154322052002,46.53591613618361,-52.52817086863002,176.32928376407307
2595,0.01666666753590107,2.1897579688452184,-7.241878422692418,0.5410398908346891,4.216189561926574,-14.689773923492432,-5.508159025353193,-52.80889505861213,-52.879761686345596,179.85926213091906
2611,0.01666666753590107,-0.1391001353934407,-8.59709826914966,-0.12795651782751083,1.533037688910216,-15.973814785876868,-6.3696232947200535,-126.68841144252585,-14.665406525447029,125.4570785993343
2628,0.01666666753590107,-3.311503259818256,-7.423399357447027,-4.2362569290518755,-1.8122607268735766,-14.591462602344155,-10.758644435119628,-162.91663638524392,23.159144616877036,68.50998024338112
2645,0.01666666753590107,-1.0248460285797714,-3.455055698445439,-6.7520736290544265,0.4269162296570837,-10.307786919513344,-13.615225706371664,-110.36298891100975,25.856184829534556,32.77914333640172
2662,0.01666666753590107,0.5853244382411241,-1.7738152608841657,-6.106077572229505,1.9698297081544993,-8.495974813190102,-13.110797344097493,-44.643455132280664,-24.459368455584638,46.16211354328715
2678,0.01666666753590107,0.464184176299721,0.34188334614634514,-5.629303525078297,1.6098015604432672,-6.436961385455727,-12.622530427551268,63.51636746948227,-44.623476828958374,72.56599245934481
2695,0.01666666753590107,-3.307765534594655,-0.10855039108991622,-2.653310276982188,-2.327313432079926,-7.076213228717446,-9.484179794853926,121.83063064065104,-14.260683666177922,47.627134478741525
2711,0.01666666753590107,-3.9710330442160364,-0.9332131622821092,-0.7944698775023221,-3.0725086988035586,-8.145822820392251,-7.377882053375243,144.999424607278,-26.58532801400093,9.738562265779635
2728,0.01666666753590107,-3.1402792626723643,-0.47842122983634466,1.91759887791872,-2.332251399938762,-7.995138337928056,-4.32871601704061,114.30860477941853,-67.93985752317099,-17.611297850324792
2745,0.01666666753590107,0.49947351634576914,0.17592530670464038,3.5197926667720076,1.221940964563191,-7.460332957568764,-2.5905256117671724,30.513426154735914,-72.77029707779823,-10.544045620825592
2761,0.01666666753590107,1.460535931801051,0.5670715731918812,3.535005433472991,2.089539791162312,-7.026832819476724,-2.638110954284668,-82.86888202982382,-31.93251065292737,16.555198632931788
2778,0.01666666753590107,2.016848210569471,1.7384645460397004,2.2349422415703533,2.556708317035064,-5.575348063006997,-4.275594083184004,-156.99618743154184,26.76079728132585,48.632131928311786
2900,0.01666666753590107,0.5558033063329756,2.5541847168415783,2.6771716295629737,1.4118310837343335,-4.109049183765054,-4.466981747436523,-32.35253655103189,19.996801182106985,-27.225789729831146
2911,0.01666666753590107,0.2952377686969936,3.2907173691600557,2.535827806895971,1.2021888008669017,-3.3358722696602343,-4.636071655163168,-18.61820946040995,8.622792808250107,-30.485125265909968
2928,0.01666666753590107,-0.2807809349298477,3.7607518789231773,1.9894412943363189,0.7004539154604077,-2.856283165088296,-5.181500720867514,22.854625755373895,-10.826907660017916,-36.225219659483265
2944,0.01666666753590107,-0.9538232579819858,3.8745892705053087,2.488577395421266,0.06284815890528261,-2.811990434375405,-4.612578551372885,61.09730571076051,-14.017462337381062,-32.75670616497822
2961,0.01666666753590107,-1.0202306437388062,3.7992940832853317,3.161812172305584,0.02947890020161867,-3.011906272998452,-3.8150101233333347,78.95779276766946,-13.36200237990714,-34.88258205357718
2978,0.01666666753590107,0.022528496541827914,2.725467750698328,3.9327451068758963,1.1266218840334563,-4.236540422168374,-2.8850124159663912,50.548447367890994,-15.621149773365035,-34.4133958689215
2995,0.01666666753590107,0.8434536155756562,1.6339625535577535,3.4066561169356104,1.969081593200937,-5.377078822547197,-3.357119055828452,16.52645890445167,-19.71497562412121,-24.67793792411963
3011,0.01666666753590107,1.156281986020878,1.4130202935189007,2.835540236788988,2.279280345794931,-5.606323046985268,-3.9200563056945796,5.105908767816678,-28.82637284483735,-18.99496098748056
3028,0.01666666753590107,1.4948805383428931,1.2796283066391945,1.3884791419804094,2.5692778757508843,-5.763742390662431,-5.349992662701011,23.56188501373955,-37.74155239107736,-7.632721883337263
3047,0.01666666753590107,1.4205382679335772,0.9688625678122043,1.0589607718884944,2.434753743036091,-6.121824591937661,-5.6390925131648775,26.57894520222155,-30.37734146571258,7.582213488198665
3063,0.01666666753590107,1.0906624627061188,0.5747194575965404,0.8883943618685006,2.036867281573638,-6.55023646697998,-5.783193525585532,6.780440206532494,-19.00485793158791,16.282385509555848
3078,0.01666666753590107,-0.25425715820677575,-0.2253203289926052,1.0917676474690436,0.6398506128724664,-7.337330847278237,-5.6007852866023775,-16.896667110297408,-4.013128446372944,1.647848664392926
3095,0.01666666753590107,-0.31373379485234615,-0.9035223728954791,1.0334802936732768,0.5798460798952728,-7.982419141608476,-5.6941591513484715,-18.34957982790064,-6.26323523069068,-6.360848879213917
3111,0.01666666753590107,-0.08362506253942847,-1.057045878177881,0.7882020492792129,0.8020577753480523,-8.104523426276446,-5.973382919964194,-15.54636944723715,-14.69851928254325,-5.585866160793474
3128,0.01666666753590107,0.22917598150745033,-0.8671732946634292,0.1413952605932951,1.0940006672181188,-7.885154114642739,-6.653485829052329,-6.162923657445287,-10.638615566299944,-4.954895846588635
3145,0.01666666753590107,-0.02519289344549179,-0.7679542110204696,0.15118775581121444,0.8376715981081128,-7.78205380565226,-6.647949237713218,2.1047676158558573,-3.9234864823847575,-5.239980258582151
3168,0.01666666753590107,-0.0610658055331558,-0.5781266356915236,0.41991526485383507,0.8043023394044488,-7.594259197455644,-6.376805899700522,0.214695924182376,-2.8283612716215933,-4.90636948696981
3182,0.01666666753590107,-0.19938830761760473,-0.281640182107687,0.9315122035831213,0.6818987795289605,-7.283311087799071,-5.878063181847334,-11.637339487117547,1.9335100139278965,-9.587140386975038
3193,0.01666666753590107,-0.1625430433664471,0.4433241974920034,1.0243640902817248,0.7423524445131421,-6.527043222919106,-5.814168509563803,-19.06150410546941,0.769859542934404,-10.914075387979265
3211,0.01666666753590107,-0.11089848858602344,0.6416624115347862,0.844217366489768,0.8014593710634857,-6.295853709632158,-6.026653906902671,-13.427189705345743,-10.107399311149495,-5.664780885803332
3228,0.01666666753590107,-0.17574037859179079,0.8703139307767153,0.37983284531235695,0.710329924243316,-6.053590429145097,-6.508188300323486,4.101243863081632,-21.791933697884538,-8.575459597301919
3245,0.01666666753590107,-0.33967465712092815,0.5989034662604331,-0.17491525287926196,0.5265749468263239,-6.3431386078983545,-7.047182364544272,19.502380863562685,-21.174691210137777,-13.431631035853544
3261,0.01666666753590107,-0.2594149793613702,0.4246598290324211,-0.014605448457598685,0.6012441111024469,-6.561010958972573,-6.843226310619712,30.49869002160161,-13.260663716965308,-13.508133423425917
3278,0.01666666753590107,0.5035311942387372,0.18832126241922378,0.4420347422033548,1.3596075600221753,-6.849063346210122,-6.333860491943359,9.490155115855442,-11.24580743068303,-5.801068346067651
3295,0.01666666753590107,0.7999646755263209,-0.100111648568511,0.5613759918987751,1.6421232097901404,-7.127987839618325,-6.226120832714438,-20.019489362982473,-5.56389173468625,4.770815418267621
3311,0.01666666753590107,0.7036568031549454,-0.05246610029637813,0.4620084396958351,1.528099428790435,-7.025486081042885,-6.383988504680991,-41.23769400077511,5.370219159449601,11.880548863083362
3328,0.01666666753590107,-0.0534961009312421,0.14652619374096393,-0.015583353579044341,0.7685389521058649,-6.72202102061808,-6.966677333721518,-42.37354079936989,7.197418559606718,4.115275206070954
3345,0.01666666753590107,-0.5174632734794169,0.3755103059381246,-0.31390520589649673,0.315286723382771,-6.434267908588051,-7.321318454632163,-20.85609020611336,3.5583420080349373,-2.978314659754638
3361,0.01666666753590107,-0.38288536475077267,0.5704103622257709,-0.2105705036282539,0.43858810888081784,-6.216395557513833,-7.241561611828208,-3.115958766342851,-21.03088157716316,-2.0555928151527043
3378,0.01666666753590107,0.24300986107066272,0.02116612214744091,-0.4229828357309103,1.0039189758852123,-6.781127874103188,-7.445817525482178,9.233783965359013,-15.307406741387792,11.543123857706393
3394,0.01666666753590107,0.16999664730802178,0.113444592872262,0.09267302300035953,0.8816649805482476,-6.6997256021797655,-6.9247793891906735,-2.5210531316161484,-2.27760555280303,25.726153395663147
3412,0.01666666753590107,-0.04661401326730847,-0.2240688676267862,0.17909399986863137,0.6172553347047418,-7.026234853583574,-6.853700942882895,-14.767237815782748,6.97911888354394,32.288561584170964
3428,0.01666666753590107,-0.6762731947321444,-0.7972288208216428,0.21228081467747686,-0.055216129656881094,-7.5550535607486955,-6.867019274139404,-25.217075491160003,14.765904221347304,24.104007373447214
3445,0.01666666753590107,-0.9860379398230462,-0.6395224768966437,0.02455108841061592,-0.36870690953359003,-7.354090258899331,-7.096114445495605,-23.24700134017091,15.654677464453336,14.379446995466104
3461,0.01666666753590107,-0.9879444310314953,-0.5973077215015888,0.038760231027007104,-0.3691557492796331,-7.27762544337809,-7.113921320343017,-15.070218177175343,6.3542342678895825,8.037062252012849
3478,0.01666666753590107,-0.6152678872145712,-0.35742169153988357,-0.20668694019317627,-0.0016457944456487893,-7.013664710345864,-7.382220959362387,-6.3169683288911695,1.458146883663286,3.0018297204065227
3495,0.01666666753590107,-0.501198732703179,-0.15949614995121955,-0.18328677538335322,0.11222827588506042,-6.80551821899414,-7.368304662212729,-5.623029220067513,5.066270618742156,4.176100175064033
3512,0.01666666753590107,-0.467933738091588,-0.16580021853148935,-0.1021551370948553,0.14933854774795471,-6.800580178070068,-7.297226800426841,-7.663536281777775,9.02610864855019,6.4747721657014985
3528,0.01666666753590107,-0.28753691199608145,-0.10040858568847179,-0.026411621585488317,0.33488910334482785,-6.713191817474365,-7.241262336620688,-10.975106543307914,7.422749915420024,10.634146915035462
3545,0.01666666753590107,-0.18504947420693932,0.11540274120271206,-0.02588029118776321,0.4201826105531305,-6.478261364093423,-7.259667761883139,-11.290408565963213,-0.43644364515681994,15.906375058010182
3562,0.01666666753590107,-0.30132227624244984,0.1623819345206022,0.12554244242310522,0.2714428324159235,-6.411971905627846,-7.128435583385825,-11.871367381291572,-0.39498562419445904,19.371046571107094
3578,0.01666666753590107,-0.9815835907626896,0.4556073404818773,0.16948270643651484,-0.443376037277095,-6.093393447223305,-7.110030742645264,-9.499656762764575,4.934784781464356,10.65000490674094
3595,0.01666666753590107,-1.2677908615902065,0.22074352259635924,0.13788579116761684,-0.7215524157317355,-6.315455066680908,-7.152526653069257,-4.549812267953988,10.176315919874924,-2.0841105624848
3612,0.01666666753590107,-1.0482827260077,0.2166898632913828,0.010171265402436255,-0.47240573240648953,-6.314707463183999,-7.2822630400508634,0.3619351658939871,10.922549945191959,-6.852429973497605
3628,0.01666666753590107,-0.528012213087827,0.3166746706098318,0.1084732342004776,0.08304916234761477,-6.2208846856266256,-7.175571428570151,3.9461341090120508,8.502638681692181,-3.6062549312889303
3645,0.01666666753590107,0.009887114698812365,0.24808278042078016,0.1075058504730463,0.626083953326568,-6.298396964374184,-7.1680901329040525,5.593523229739882,0.9036424582074437,0.339827230932831
3661,0.01666666753590107,0.1048879230596125,0.24231530293524264,0.18169161514639853,0.7085342364655807,-6.31351036235392,-7.08653763885498,3.6101003277916477,-2.0229026760113773,4.76774097936747
3678,0.01666666753590107,-0.035916458968445655,0.10140285742282867,0.1066039331972599,0.5428853725709021,-6.455965945655107,-7.162254266357421,-3.709478299554864,7.386362936390427,10.225615371530429
3695,0.01666666753590107,-0.2846284041382372,0.22629823411405084,0.19620938532054424,0.2874540925508365,-6.318897316089272,-7.0841434371948235,-9.752751983780337,13.231120587484064,11.035246358949877
3712,0.01666666753590107,-0.3868484962280839,0.2290449024736881,0.07874328184723854,0.1937809160646051,-6.287323781695962,-7.22674807357788,-12.147579377553242,11.09486195757304,6.815142263271213
3728,0.01666666753590107,-0.2686509366750717,0.21537878069281577,-0.0023719898283481597,0.3193269386842847,-6.282685015979409,-7.323563603210449,-7.246472978225749,8.404283103870352,6.954390183653909
3745,0.01666666753590107,-0.3576336537901312,0.23390520198643205,-0.24292437474429607,0.23178890395220367,-6.2588926369816065,-7.568669998168945,0.5895308094584314,5.617173186627874,8.854029716374535
3761,0.01666666753590107,-0.6390552977763116,0.23477672412395476,-0.31269992175996303,-0.06269790024701506,-6.277596752929687,-7.622090038189292,11.552387301768222,3.197080069341446,9.674639379111133
3778,0.01666666753590107,-0.7771553162164986,0.22600305055975914,-0.18558453093171118,-0.21727365452870726,-6.313659999957681,-7.471853884014487,14.938612384700246,0.428872273740155,9.369395663782324
3795,0.01666666753590107,-0.9699133920393883,0.23087328694462775,0.22276363024711607,-0.43439774451889096,-6.3362558626472945,-7.040598894500732,13.445373376463609,-1.8511112521110973,8.384318460926405
3812,0.01666666753590107,-1.220896423946321,0.3240127584129572,0.44758302398025984,-0.7121250640317798,-6.2689189409554,-6.7942953987121575,8.321841866814651,-2.6013970737098315,7.814516759607261
3828,0.01666666753590107,-1.2534877570800482,0.3673468732267618,0.5046902280807495,-0.7653960509702563,-6.238692144995928,-6.726659201812744,6.949947572485639,-2.52808801301785,8.537432519097873
3845,0.01666666753590107,-1.3320932378917931,0.17443652945160865,0.693541651853919,-0.8667008913787081,-6.441899426379799,-6.529885752868652,6.475717720014722,-1.6235089651204682,7.585875323367438
3861,0.01666666753590107,-1.5867127266049383,0.10400982505083084,0.8296645250022411,-1.140537633193843,-6.521207356372475,-6.386831619152426,0.19417049869518688,1.7065599032812977,2.7498917895682555
3878,0.01666666753590107,-1.650037051654607,0.1845341450959444,0.7950935623586177,-1.199195537335053,-6.435315956336259,-6.426037255859375,-4.938511076543421,6.150532840517238,-2.7859771730573137
3894,0.01666666753590107,-1.4828072387114166,0.5698007058948278,0.8257166641592979,-1.017685050909221,-6.038327393561601,-6.405237628936767,-6.544590359397368,8.953876836756367,-5.381497082429761
3911,0.01666666753590107,-1.3059857138194142,0.8353501694232225,0.7665525275290012,-0.8162729093138128,-5.759252678027749,-6.475117805370688,-3.6658380865135367,6.16593534398244,-3.332093272438734
3928,0.01666666753590107,-1.244935032790154,0.8851952735662459,0.73813190420866,-0.7445964971128851,-5.7061319132149215,-6.50579409866333,0.06873125980291273,0.828483270024035,-4.151345008190968
3945,0.01666666753590107,-1.1799641095772384,0.8705477395325899,0.689550536391139,-0.6792048642698675,-5.728576969256997,-6.5472431303828955,6.9854107684299915,-8.59237797587604,-8.377114318899334
3961,0.01666666753590107,-0.8734143810100853,0.6163169578760862,0.8066986599564552,-0.38157556079383936,-6.001665596118569,-6.413467112621665,13.227183837201197,-16.68269265152654,-13.940532209211915
3978,0.01666666753590107,-0.7147324700511991,0.5535024820446968,0.9107873954623937,-0.23044169059433042,-6.087557580676674,-6.28866993560791,12.127548994038532,-17.776499635779892,-18.061723212877745
3995,0.01666666753590107,-0.5295363539151847,0.5663163709104061,1.245344928765297,-0.032620741891302166,-6.082919399482011,-5.945700547790527,-5.305792119442986,-6.304632580363304,-21.824523945509252
4012,0.01666666753590107,0.15683478525485842,0.3744575820147991,1.24254156178236,0.6833951190339401,-6.244826117706299,-5.973981470379233,-22.407354232670198,-4.575933899547879,-24.382095110409697
4028,0.01666666753590107,0.6418115376818925,0.15842764393687248,1.0461311009317635,1.1959039484437555,-6.404938938251138,-6.219238087463379,-31.77200120743207,-11.043118151968315,-22.959061055330682
4045,0.01666666753590107,1.2849749283641576,0.012065700846910476,0.30811200944781303,1.839644883285649,-6.466290355792641,-7.033116429790854,-30.99280981182243,-18.85401491131547,-12.06414776306789
4061,0.01666666753590107,1.0814224137391895,-0.03850128782987594,-0.5287339514911175,1.6153381152497603,-6.457311515045165,-7.923610394287109,-29.90502705441703,-16.889971817363502,-6.170497910348008
4079,0.01666666753590107,0.8808832555860281,-0.026418635848164555,-0.8829968867391348,1.3940241723543032,-6.386533512988686,-8.329876488494872,-28.992629894519215,-15.128302105877133,-6.121846046003184
4094,0.01666666753590107,0.4246510612040758,0.014369301614165305,-1.1467162122309207,0.9193736932283267,-6.278495163074135,-8.651748143225907,-21.47414377882406,-13.450148532467095,-13.386967575097184
4112,0.01666666753590107,0.27701975576542315,0.04417699537873268,-0.799668030667305,0.7775172448640689,-6.207268248206376,-8.338854744720459,-19.13523087491782,-7.233732967876383,-19.06756931345238
4127,0.01666666753590107,0.34485527462922033,-0.05558861623108387,-0.5101093305200338,0.8698436463838443,-6.267272342792153,-8.080430603027343,-18.17966179682365,-5.953855835819428,-25.8908190112684
4144,0.01666666753590107,1.0027559965204447,-0.4096054677635431,-0.06530746169090271,1.5596729997163639,-6.5821098611027,-7.665335305675864,-17.36035328512394,-8.840470937098415,-31.21854756389135
4161,0.01666666753590107,1.4236273199900984,-0.4199462445139885,0.2029810714125633,2.026392722375691,-6.536171116748452,-7.4389336111873385,-21.421179076905197,-8.024815722831015,-32.283616527211876
4178,0.01666666753590107,1.613562885738164,-0.4246007923215627,0.051178983095288275,2.248454780224711,-6.488136861419678,-7.630020831188559,-25.60044717908365,-9.14742817613525,-28.777267199799542
4195,0.01666666753590107,1.8059683487311005,-0.4791138882756233,-0.3964636621177196,2.463633800561726,-6.471227812194824,-8.131606663513184,-21.539713594856185,-13.876934610302634,-20.461569941916963
4211,0.01666666753590107,1.622880749181658,-0.2588824068546295,-0.8838584720045327,2.2720975946839896,-6.21175737631917,-8.649951322937012,-14.693569102942284,-19.323131086532165,-12.754127496607055
4228,0.01666666753590107,1.315268213688582,-0.14817629903554916,-0.9334107306808233,1.9400516788758337,-6.0721449074894185,-8.723573023986816,-13.340307991555887,-18.157004351799426,-6.1430051182782375
4245,0.01666666753590107,0.6768082514569163,0.11608663181364536,-0.8888643174678087,1.26443793443311,-5.767632383838295,-8.712350203704833,-15.221103886130095,-16.277491679015533,-3.1481445387026548
4262,0.01666666753590107,0.3094838823229074,0.2885293570995331,-0.7233019993454217,0.8675989727295934,-5.565621034240722,-8.571092305755615,-12.405334495130244,-18.99280606279742,-4.436862710309957
4278,0.01666666753590107,0.27029906920827923,0.28571196159124373,-0.6646674395471811,0.7918823452271521,-5.548711985015869,-8.52964268951416,-5.643164190853888,-24.674186442718,-6.305419759665147
4295,0.01666666753590107,0.3258628067264333,0.44716976700425143,-0.4342278678447008,0.7818566257752477,-5.387103957477212,-8.303389463585615,6.71978940736325,-34.511624234470034,-7.006592038819847
4310,0.01666666753590107,0.3815458963079378,0.6058481708317994,0.10904197399914264,0.7706337689606473,-5.247042575836181,-7.749880551800131,11.20684973920457,-40.15287554546949,-7.039139597762251
4327,0.01666666753590107,0.40407391792573033,0.6288830094605684,0.41815585396587845,0.7217023821290582,-5.244798596301674,-7.428459563446045,8.68536502501024,-38.756344331917425,-6.290024513275939
4345,0.01666666753590107,0.4352805917680263,0.5957616611033678,1.0409364548981188,0.6681320103852078,-5.287295675769448,-6.8016276412963865,-2.8679795704588407,-31.46344058148757,-4.929183599458122
4361,0.01666666753590107,0.5811462757736444,0.1029348892956972,1.1463994013667107,0.7604584484376012,-5.762245430102944,-6.710947253417968,-14.338219973635907,-28.59830258316687,-4.624987464393264
4378,0.01666666753590107,0.5783523342061787,-0.007479542100429534,1.1232155096560716,0.7058406956658233,-5.831677278247475,-6.765564394268393,-25.189150262738405,-28.840395223203387,-4.636147566610242
4395,0.01666666753590107,0.30557101972810924,0.1421522164404392,0.6818564747571945,0.3625720326409209,-5.596147689929604,-7.2704416693538425,-35.578212914880886,-32.06059719043262,-9.457531571058523
4411,0.01666666753590107,0.16669271039180455,0.443975939399004,0.06493161411583423,0.1693898676353434,-5.220856579700112,-7.940070530700683,-33.311870770906026,-36.39093370912612,-12.168941647956103
4428,0.01666666753590107,0.1328080860445276,0.5676607712566852,-0.1874094082713127,0.07601601230781525,-5.0396454415470355,-8.232612046051026,-19.962231887170258,-37.05310347368593,-13.085888567614791
4445,0.01666666753590107,0.19551603276152163,0.6136234810084105,-0.18969488885998725,0.05985510543598793,-4.975600547137856,-8.246527758678793,6.554673426159599,-40.76788285381037,-15.472104800391602
4461,0.01666666753590107,0.4303528530422598,0.10098960044682025,0.29660803413689135,0.23029232698520644,-5.513846423339843,-7.7410525177001945,14.320072161011183,-41.802465267770536,-17.140788316517416
4478,0.01666666753590107,0.5641387711429968,-0.2254635368555784,0.6370306600809097,0.3045125967163592,-5.865196101489663,-7.381473355865478,7.294362849591294,-41.252525756557795,-17.28165413795976
4495,0.01666666753590107,0.5880606948046013,-0.5196458051502705,1.1991320436447859,0.24361009198613465,-6.14771131286621,-6.824371972545981,-22.004883628279902,-39.69179338026403,-19.32779439818799
4511,0.01666666753590107,0.5848169271104038,-0.4558744669854641,0.7328957571208476,0.2006640997070819,-6.011092180633544,-7.339425189208984,-46.13964563601239,-25.437627422101592,-17.566502054653263
4528,0.01666666753590107,0.3664175564873963,-0.2392892331123352,0.6046089844256639,-0.04085102929379791,-5.68817481624186,-7.538742477416991,-53.84651690675296,-19.414341432708515,-16.503876591508313
4545,0.01666666753590107,0.5430014001660048,0.1709007565408945,-0.12310089448988437,0.10833766165468842,-5.141997562518716,-8.354417055511474,-38.99441740562739,-21.95385016234886,-10.84546528399284
4561,0.01666666753590107,0.5215718413094058,0.46164135994911193,-0.3624240298718214,0.03591309796757996,-4.791994622802734,-8.628851836284994,-15.845967157443297,-34.95163526608601,-3.4932556413300047
4578,0.01666666753590107,0.4874306483851745,0.37705753538012504,-0.306800926849246,-0.08155242098383605,-4.875342768096924,-8.568697519573568,15.128303813424425,-45.6063205599557,-3.8834671233771836
4595,0.01666666753590107,0.427196361772716,-0.4219751199930906,0.2520855863213539,-0.2859574607849121,-5.769128759875893,-7.9375266914367675,45.646024449600986,-70.46484868573047,-17.15323292118518
4611,0.01666666753590107,0.3825812672376632,-0.7569768899321556,0.6073445468693971,-0.4713585249084979,-6.209661865344644,-7.498789237213134,46.49815202026261,-86.89626209278683,-22.356708379974553
4628,0.01666666753590107,0.44108423654548823,-0.6655600044727326,0.5924369005948305,-0.5693711553711444,-6.20517273723185,-7.436389771923422,28.07382601717993,-93.30319810031223,-26.92644473662429
4644,0.01666666753590107,0.5349341213054954,-0.7347615509927272,0.4380962337106466,-0.6564603138245642,-6.312313261523842,-7.539490665435791,-7.926419163874165,-71.07330242756271,-25.87728499142802
4661,0.01666666753590107,0.7329039404273032,-0.4262608344882726,0.04484510389864445,-0.5575498577393591,-5.979370177680254,-7.934384301757812,-19.625889466776734,-58.39316551646076,-19.090281399989966
4678,0.01666666753590107,1.0260833152897655,-0.35738135952949523,-0.2613677939295769,-0.36212329335957766,-5.880459137073159,-8.245031967163085,-11.482067942942,-57.44713650508981,-11.672111980182082
4695,0.01666666753590107,1.3570713195428252,-0.37146599898338317,-0.4638993680089712,-0.1794156330384314,-5.905448616901039,-8.412775720977782,16.632536864903845,-62.84285617580565,-6.68005734318764
4711,0.01666666753590107,1.2850421483814716,-0.38675066187679763,-0.3749421506613493,-0.3809776314333081,-5.972186988177895,-8.261492103576659,27.765670079943757,-71.04779850120188,-7.213337169241079
4728,0.01666666753590107,1.1645355081684887,-0.41750645014643667,-0.3343734089076519,-0.6361095997132361,-6.05867810767293,-8.151358242687582,21.10616392219504,-69.06620352863028,-6.9701218168597405
4745,0.01666666753590107,0.851667974756658,-0.36698563869893547,-0.4212485592842102,-1.102829285839945,-6.040421150970459,-8.177695045471191,-1.362116238201905,-52.861859760531,-6.876563593156199
4761,0.01666666753590107,0.5608256645396351,-0.4243640609562397,-0.9401894310355186,-1.4775219917848705,-6.086060620117187,-8.683619783782959,-11.666938965659444,-40.5264629874071,-6.403902976647092
4779,0.01666666753590107,0.4686049153514206,-0.24305647669136524,-1.285477617189288,-1.6364369808472692,-5.887790795135498,-9.023446197399496,-5.643227370103711,-35.49841581480762,-6.360812166947128
4794,0.01666666753590107,0.12536504002958535,0.23135668654739855,-1.7346014408707617,-2.051082926996052,-5.439926031604409,-9.433304178619384,22.309622763383775,-28.232380321025314,-8.673434392077521
4811,0.01666666753590107,0.11163754345029592,0.28867490305006505,-1.5134604433894157,-2.0973209465578195,-5.449802113452553,-9.152883309173584,38.389593909339006,-15.625401566123369,-7.841571138909681
4829,0.01666666753590107,0.2037196148201823,0.21340894192457197,-1.2081143915235995,-2.0106807739809156,-5.613206376758217,-8.77893835285604,45.478148645085824,-0.3224803647099969,-4.6648428988607575
4845,0.01666666753590107,0.5040307412587106,-0.1936310592651367,-0.6155091486245393,-1.6938979668214915,-6.133795600238442,-8.10242733078003,35.90181361737775,5.790761163723278,-2.2431741423101728
4862,0.01666666753590107,0.6624022710941732,-0.6024076749891042,-0.2933949173092842,-1.5209168968752025,-6.595577245441079,-7.742249034008383,16.359003156570466,7.194207516923165,-0.5413056184933216
4878,0.01666666753590107,0.5257369616322219,-0.7618553096234798,-0.34970191094279285,-1.6371853149965405,-6.763769912067056,-7.7974653097957365,-7.540640688041736,14.35866614491634,-1.0590210442538885
4895,0.01666666753590107,-0.12245762815028428,-0.9155898273080587,-0.751011844047904,-2.2076037143982945,-6.86911478511393,-8.259546230205894,-28.214789168817944,40.70991503832447,-7.15401185365764
4911,0.01666666753590107,-0.2128973391406238,-0.23273908081650732,-1.2707283763468264,-2.19144285319224,-6.13544102935791,-8.84792128818929,-24.96465219000384,52.16779984273639,-7.804921197597039
4928,0.01666666753590107,-0.0022458792306482792,-0.034629414832592006,-1.4695833077400922,-1.8742111332215368,-5.907244268146157,-9.09706848297119,-6.972923901966738,42.527756225545026,-4.552704853067489
4945,0.01666666753590107,0.5122502880714833,-0.0745189421504736,-1.201757715973258,-1.262193187713623,-5.963806697845459,-8.839691219982504,14.278624011806608,30.009306967570197,-0.7722342076097469
4961,0.01666666753590107,0.6945357774578035,-0.16167524755597112,-0.5346902295470237,-1.0232220806397496,-6.075885263061523,-8.166322587585448,8.319712555340901,29.547538368353145,4.601904413206383
4978,0.01666666753590107,0.5424456659793854,-0.29275135870873925,-0.3497568560004234,-1.1260231144227086,-6.199636145892739,-7.997979698833823,-13.761274748218577,31.127688972457257,9.748766568399635
4994,0.01666666753590107,0.26878917610198255,-0.44747079577744003,-0.12831599878966807,-1.3337201084412633,-6.266224879565835,-7.857769848632812,-45.67213626279794,34.55845201141964,9.964852409397682
5011,0.01666666753590107,-0.20412293492406605,0.1864420245438814,-0.44904082157313824,-1.7474680828370153,-5.525220050269365,-8.269871809387206,-52.99340920394544,36.89121432997828,8.955865275578487
5027,0.01666666753590107,-0.3311398338139057,0.4829278936058283,-0.6907429610460997,-1.8188452198304235,-5.128978506469727,-8.594135912212728,-36.90315350064747,28.704829628556972,9.841821065651889
5044,0.01666666753590107,-0.04324322165995836,0.8203712114781141,-0.42020752579867837,-1.5078982792176305,-4.746954288592934,-8.359355096435547,9.318044594054875,-2.241801914617235,8.029304864663006
5061,0.01666666753590107,0.17452552290931342,1.0439788913339376,0.2915659483164549,-1.328632283782959,-4.573374083709717,-7.605031351360679,39.13312830238659,-24.17921800149281,4.252146647509309
5078,0.01666666753590107,0.37668709463253613,0.8582435537546873,0.9617582887649535,-1.2086232178285716,-4.882525373077392,-6.829310597991943,47.459798259170796,-28.115078652219513,3.082176437264556
5094,0.01666666753590107,0.5441029316671192,0.8633861773401498,1.229717736044526,-1.102530156762898,-4.966172793579101,-6.482300994873047,41.42133729698924,-26.284026171596864,5.957645737035139
5112,0.01666666753590107,0.8884824785433709,0.666922524997592,1.7008020471215246,-0.8231567505434155,-5.233126863208413,-5.943156124004721,31.814218606691917,-29.16422815213203,7.424229505148977
5128,0.01666666753590107,0.8883405858546495,0.1887643300116062,1.6883710200935602,-0.9220670604981481,-5.771822236743569,-5.885546231079101,16.810796264504713,-32.71551670918846,5.526559628230253
5145,0.01666666753590107,0.7047868300981819,0.17761749757528303,1.549952144962549,-1.1713633083619177,-5.80264758311808,-5.992386895641684,5.002902258056893,-28.008051295472708,1.103627515619361
5161,0.01666666753590107,0.28137992373630405,0.1835626697152853,0.8560761465877295,-1.6424226311281322,-5.797410266986489,-6.673687490081787,-3.9198895340131,-23.50327686801896,-3.5460822453615877
5178,0.01666666753590107,0.1975403416633606,0.13345043906867504,0.02957213144302368,-1.778592850549519,-5.840505896869302,-7.492205182647704,-1.0675266574829643,-25.55273147754194,-5.497343494055524
5195,0.01666666753590107,0.22556173653304576,0.18767711929678915,-0.331452553024888,-1.7932571895875036,-5.797708957672119,-7.832779784283042,10.818678989615343,-25.092832642610176,-3.9083862147903288
5211,0.01666666753590107,0.18380217755958436,0.32057576970160007,-0.563321280747652,-1.88004714589864,-5.698649448505043,-8.02521432723999,21.578932541070397,-25.627943813134827,-0.6634675005021136
5228,0.01666666753590107,0.15548618365749717,0.18447101673185826,-0.28384032250046726,-1.9786583267763256,-5.896021447864174,-7.6759601600646965,24.0408503217394,-25.89758602118859,1.922977221897502
5244,0.01666666753590107,0.15190613321363924,0.05710077435970306,-0.015887304961681364,-2.0328269932068883,-6.063914839282631,-7.359626265716552,19.13024483682371,-22.530830392485687,3.484731992132652
5262,0.01666666753590107,0.23456059715524313,-0.19797697951495646,0.4019692737966776,-2.0163667106628416,-6.3531643273502585,-6.893055632671714,10.794413888815226,-20.414344306448204,7.5114809029276595
5279,0.01666666753590107,0.1185138589605689,-0.31705168722867966,0.6164350312978029,-2.183362568719685,-6.481852666583657,-6.654533876800537,4.987682035265165,-19.38759953456062,8.497882308708915
5295,0.01666666753590107,0.032631519013643265,-0.3094149087399244,0.5490402419388294,-2.3196824257448316,-6.478859914508462,-6.701818775066733,6.012673582970169,-22.809703601202724,5.376558001886195
5311,0.01666666753590107,0.0576904108159244,-0.29694588778913017,0.5244260251641273,-2.370409573419392,-6.49262657405436,-6.678924221691489,17.467670924910472,-32.86976287121486,-0.29717510080448145
5328,0.01666666753590107,0.24781127000302075,-0.4896399584650993,0.8302005315750837,-2.2451626068115234,-6.726060651397705,-6.315603535240888,23.702624476682246,-40.191981793562405,-2.8608347657001842
5345,0.01666666753590107,0.46207507519125934,-0.5969394727110863,0.8562176008850335,-2.1064488403871655,-6.878841229358315,-6.222679752349853,21.580240522296453,-46.979653035991824,-4.192199784711399
5361,0.01666666753590107,0.6799871737539768,-0.9421078318774699,0.7880155867964029,-1.9948191879823802,-7.2716399392277,-6.208613233074545,14.424270111894312,-47.51727430103645,-5.441499867401499
5378,0.01666666753590107,0.5657917625144123,-1.1961691021859646,0.6127601421773433,-2.1881512643009424,-7.555801748767495,-6.325629839214682,12.25150668219051,-57.282436738538706,-13.588650254682967
5395,0.01666666753590107,0.6895595964804291,-1.2477870612204074,0.6045441024959087,-2.146103097644448,-7.645135398212075,-6.265925019836425,13.592475160618173,-69.3153756597415,-25.44504159244564
5411,0.01666666753590107,1.1840128004461525,-1.4357295534551142,0.1920978583484888,-1.755548659570515,-7.898322223773598,-6.572831745147704,16.881480184677883,-71.4131384897167,-33.03081873184376
5428,0.01666666753590107,1.4131182009354233,-1.3501958808153867,-0.31833120564520356,-1.5855603416994213,-7.8743802071720355,-6.99765231769979,25.522654739531788,-56.40515016606934,-29.443798040144408
5445,0.01666666753590107,1.5118459939301012,-1.1392542057871817,-0.43057752864360804,-1.5269024010255932,-7.735666148486733,-7.020247595867514,33.037481581379105,-43.28709567633202,-23.746798725139303
5461,0.01666666753590107,1.400606509886682,-1.2044722356289626,-0.41506782482266424,-1.6724997894838451,-7.904756640735268,-6.882880275616049,37.23912367573123,-31.438838240097187,-21.2478459512432
5478,0.01666666753590107,0.7904448597699403,-1.233691900372505,-0.16068974364995955,-2.290653022876382,-8.017284118762612,-6.537217410930991,37.90473585563272,-34.50065153556841,-31.063000250828065
5495,0.01666666753590107,0.96194212089926,-1.1459674396902322,-0.4647171141326427,-2.126350933948159,-8.027758751025795,-6.731597242736816,42.44284331378343,-65.40647888831073,-49.739725649404804
5512,0.01666666753590107,1.7422241908341645,-0.965771031537652,-1.2868079890102146,-1.402553552301228,-8.018481804114579,-7.331643449291587,62.25418949199893,-109.84073215650307,-58.673995574375006
5528,0.01666666753590107,1.6336664932206273,-0.6288514452785253,-1.443130769622326,-1.5777794785648585,-7.836970806232094,-7.26550421295166,76.80088049948196,-103.70448337597445,-51.697022224004094
5545,0.01666666753590107,1.1653329421564935,-0.36897067503631115,-1.2199725870996714,-2.0872952271059155,-7.728184268298745,-6.826466898998618,68.6725660663841,-68.46261288148708,-41.579073685681514
5561,0.01666666753590107,0.5645628052413463,-0.31319501180052756,-0.8349369124472141,-2.672977100482583,-7.810485534888506,-6.264428059276938,29.23029998706815,-11.682206146001715,-30.76228409714533
5578,0.01666666753590107,0.25475743587911126,-0.5633657044112682,-0.838641027662158,-2.9180832031801343,-8.102129224616288,-6.248866333007812,-0.6620583470989754,23.695239334642167,-24.325218417643708
5595,0.01666666753590107,0.08831833492219447,-0.37075697393119333,-0.6651730509817599,-3.0018805535465476,-7.916877871161699,-6.112845751190185,-9.713375943215214,28.820058334949675,-17.637064738968665
5611,0.01666666753590107,0.21702128720283506,-0.15475217029452323,-1.0007762939453124,-2.8110926087528467,-7.711724131885171,-6.468234475597739,4.981486199914317,-17.601341142062207,-20.563211694503217
5628,0.01666666753590107,-0.2737166956320405,-0.01637888787090778,-1.0052338578760622,-3.2981630089908838,-7.6117667970955365,-6.421248852539062,20.662838541284316,-41.79305326709426,-28.595531233911135
5645,0.01666666753590107,-0.5053127438932657,0.31262042678296564,-0.7768617400974035,-3.5299513649538157,-7.339127083045244,-6.112845166668295,24.20975236217735,-38.298301600892614,-27.854880888240587
5661,0.01666666753590107,-0.575962443394959,0.4000900359213352,-0.31898645468354225,-3.5939962593629953,-7.300370359149575,-5.588215143364668,0.21126079259710917,-16.24562713899013,-14.384772835471422
5678,0.01666666753590107,-1.2207447405159473,0.2205056221872568,-0.19974457370936868,-4.22651470271647,-7.4708075898319475,-5.4893058563232415,-24.342754928337715,6.1095021866256785,-5.825846564829165
5695,0.01666666753590107,-1.7504066205069422,0.21244681889414785,-0.16725100186169148,-4.723311547198891,-7.436241303363442,-5.536590754589438,-41.50849392589319,21.255948263146127,-7.449550723949507
5711,0.01666666753590107,-2.211821185962856,0.30649755998849865,-0.6558510958850383,-5.108778014484048,-7.274034725409746,-6.161627025493979,-44.12252001937838,10.273453162703552,-25.36310152052029
5728,0.01666666753590107,-1.6440484787642955,0.4681944348543882,-1.1528823336452245,-4.476708191680908,-7.078608014899491,-6.737881437572836,-31.216314092032757,-0.9436636314840161,-31.4693794309709
5745,0.01666666753590107,-1.2282564313203095,0.6128256086289883,-1.1056289995610713,-4.008342784173786,-6.921188671222329,-6.734140497478842,-17.132540863094626,-7.257708639410421,-27.699710943128945
5761,0.01666666753590107,-0.8240180435478687,0.8476222064971923,-1.0726379995852708,-3.5607767113283275,-6.6814686454772945,-6.728902596825361,-12.84909017795868,-10.95693140992651,-17.478520680407037
5778,0.01666666753590107,-1.39814859534055,0.9129074563562869,-0.9758318223029374,-4.121618450219929,-6.604555501666665,-6.653934741863608,-19.06567222841041,-12.32233830520448,-15.897340425285549
5795,0.01666666753590107,-1.8084014210969208,0.952605845016241,-0.712833212301135,-4.508880861011147,-6.541857345691323,-6.432171813091635,-27.547039139706232,1.4038288437934077,-16.55434656683283
5811,0.01666666753590107,-2.5513550463736054,1.2982032432496546,-0.6224152747511863,-5.186739206042885,-6.149507548633218,-6.432471672821045,-31.183973146312745,19.07963484262121,-16.442838605990495
5828,0.01666666753590107,-2.3428388449266553,1.5236001446098089,-0.5401368045151234,-4.90916145106852,-5.8945250718265765,-6.4185547911494965,-20.167129024534177,31.65153374594597,-14.109633178909444
5845,0.01666666753590107,-1.9182383448660372,1.6217144818812608,-0.36806349706351754,-4.408025116077066,-5.783194694629311,-6.2958525405883785,-7.289625259628243,37.087251004441406,-8.112319837608988
5861,0.01666666753590107,-1.349044664953649,1.6991308990389107,-0.18082886083722113,-3.7557546551577743,-5.698949308234453,-6.151302030834556,-1.676371107480076,45.570926519676696,9.395103642044605
5878,0.01666666753590107,-1.404667621845752,1.7473884417295455,0.1963449943989515,-3.7605427662171422,-5.634006003680825,-5.814916113060712,-8.93036561808589,53.688018951968225,18.27555936031792
5894,0.01666666753590107,-1.475923762807995,1.6719260812491177,0.22752339199483393,-3.7825394939698276,-5.6774009087711566,-5.84185146625936,-15.448252072262624,56.23820668237589,20.597220913928002
5917,0.01666666753590107,-1.5943211557820438,1.5350661259979008,0.4495762436240911,-3.8346135262086984,-5.764938906970619,-5.7035863203853365,-14.342121719199277,53.08002283281037,19.22079948483974
5928,0.01666666753590107,-1.5319770739413796,1.5456857196897267,0.4301233551353216,-3.7256773506715892,-5.725733270263672,-5.773467081341147,-7.035313411166574,48.443854348745795,17.979588480561052
5944,0.01666666753590107,-1.3752762537971137,1.428475052282214,0.5214402873516083,-3.526360208594054,-5.8273377877384425,-5.715258053478598,-0.009644013664646442,46.847034667972274,18.61455872429858
5961,0.01666666753590107,-0.919893661981821,1.0224527037024498,0.5610100811958313,-3.020285686548054,-6.222231424060464,-5.7058314689636225,3.556910869960408,48.479309860727334,23.916156680704354
5978,0.01666666753590107,-0.7828048664107918,0.8008055102646351,0.728286802020669,-2.8502978070683778,-6.437410882788896,-5.556942053222656,5.906878648481727,51.80391126942021,27.94827689495134
5994,0.01666666753590107,-0.6668930066421628,0.6899731457173824,0.9441185871779918,-2.704849617822468,-6.54395227214396,-5.355679476165771,6.996613986216105,47.34107932611222,28.726378875388363
6011,0.01666666753590107,-0.7225608255892991,0.2714046192973852,1.0138017797350882,-2.747197059686482,-6.9617404618412255,-5.2911850844234225,9.920802811892976,24.694245000763036,21.63158134674015
6028,0.01666666753590107,-0.7573860552549362,-0.04376140031516552,1.096947680455446,-2.783409359796345,-7.287501525226235,-5.195417602539062,15.087001659513358,17.339113104352492,15.944127221100135
6044,0.01666666753590107,-0.7034772088043392,-0.03282967193424702,1.0031237338542938,-2.7325325745180247,-7.29722796947062,-5.264399953350424,20.31790545046221,15.97580905356524,16.79293361227784
6062,0.01666666753590107,-0.45750864405855535,-0.17599661837518213,0.9163555509835482,-2.5008934177674353,-7.474996858215332,-5.306148844799399,23.358876423681135,18.529249661565117,23.412746125665027
6078,0.01666666753590107,-0.4740590891040861,-0.4064765220880508,0.9519348138868808,-2.532616735894978,-7.726538254657387,-5.240757211956382,19.02762807473344,24.648522006911676,28.284422947406224
6095,0.01666666753590107,-0.6927282896444201,-0.49799394531249996,0.9962754753947257,-2.7596169807985422,-7.825149435535073,-5.185242245483398,8.81904292612479,34.42251075636888,29.86344486274999
6111,0.01666666753590107,-0.7844137629121541,-0.745916566735506,1.0457336260467767,-2.8508959190919994,-8.055142432513833,-5.157109791454673,-4.351113100375032,31.572692872356512,28.74535997109183
6128,0.01666666753590107,-0.7509953313045203,-0.8951461742162704,0.8840636391878127,-2.828749553735554,-8.179042368426918,-5.344755346569419,-7.998253970922481,17.40682930733129,24.031798613541838
6145,0.01666666753590107,-0.8352227436512708,-0.7943132256358861,0.8403916707217692,-2.930952037103474,-8.054543882098793,-5.409997341808676,-6.949436588958357,9.822191101977271,17.192982914607363
6161,0.01666666753590107,-0.9584428806066513,-0.4713543601900339,0.5379132832467556,-3.0683193573549388,-7.711125581470132,-5.731419499206543,-2.009642077181209,8.572676295215139,10.36247272570362
6178,0.01666666753590107,-0.6392405912153423,-0.3053659256100654,0.21249825682044027,-2.7563248073853552,-7.541436538806558,-6.05867635410726,5.002295651881231,6.9737051048530585,11.649701275741625
6195,0.01666666753590107,-0.44590851489678024,-0.1977618754595518,0.07381108614206314,-2.577956929834187,-7.4413289818912745,-6.1836243377685545,13.038117370786075,5.94728434006423,15.177718524522174
6211,0.01666666753590107,-0.3109481096565723,-0.18794015414714813,0.07925181589126587,-2.471265318353474,-7.455394916644692,-6.140678345489501,19.440291028912686,7.300238519824798,17.864924972322168
6228,0.01666666753590107,-0.4197812632106244,-0.2608335409224033,0.24678163469433784,-2.6005519157409664,-7.549666022491454,-5.940911559948325,18.660949369141306,9.928763397370627,17.65474980627712
6245,0.01666666753590107,-0.46918154619559643,-0.33164719881415367,0.2626391290396452,-2.6644479031987487,-7.636905330005288,-5.900509991455078,13.868045972871508,12.232892709154932,16.2598919890717
6262,0.01666666753590107,-0.5146357219032943,-0.33907530298829075,0.20295242983996867,-2.723404680688679,-7.6580048166573045,-5.9391164932250975,10.066498430852166,9.19069315565905,12.782885154333746
6278,0.01666666753590107,-0.5155456763550639,-0.11212415792346,0.23250176492929459,-2.732981487329304,-7.439533330646157,-5.896319554027914,8.660000263753751,6.415913864302559,9.375262796279365
6295,0.01666666753590107,-0.4801913082487881,-0.08176759810447692,0.21115853264927864,-2.7039517921999097,-7.420081026679277,-5.9023056427001945,7.028254410659366,7.158912941273948,6.548727319600281
6311,0.01666666753590107,-0.4509738354623317,-0.13012626308202743,0.16766835049092768,-2.6735752125062047,-7.474847805133462,-5.9385167737662785,5.443093862799051,8.150704646970812,4.979934893199078
6329,0.01666666753590107,-0.24127193136215208,-0.1773965483009815,0.03431961823105812,-2.460042351941019,-7.527519657135009,-6.066756784710288,4.987435721568222,8.083154076079387,5.038680923363535
6346,0.01666666753590107,-0.24651187784224748,-0.11414485009610652,-0.10846797350347041,-2.461538727978617,-7.471256502643227,-6.202478091320395,5.659982251024575,9.353219214506796,5.294189335590427
6361,0.01666666753590107,-0.23183277962654827,-0.01634673916697502,-0.12483517093658447,-2.4392428711488843,-7.38012778647542,-6.213551858520508,6.601951568707605,12.437790700292497,5.2193863844609165
6378,0.01666666753590107,-0.16704349659085274,0.12897183234989643,-0.08683715645372866,-2.3645737068727612,-7.243209379035234,-6.168959268078208,7.7970750177879875,12.881513939722376,5.6540988968282555
6394,0.01666666753590107,-0.08854206067547202,0.12136427995562553,0.00016366612911224363,-2.2773348377503453,-7.260267481341957,-6.073640114483237,7.688521967535328,11.197882554597989,5.134960123677681
6411,0.01666666753590107,0.022981354875862597,0.0616693974494934,0.0175894327044487,-2.1672017075136303,-7.331046652442216,-6.0422168022155756,5.6924986472288905,8.713075956246628,4.347169519902995
6428,0.01666666753590107,-0.010079933857172726,0.0429079983562231,-0.022214169895648957,-2.205060021264851,-7.353042795673012,-6.076333591350913,4.866356958151406,7.3288288379168245,3.6568922462481126
6445,0.01666666753590107,0.014851970564574003,0.09303834918141364,-0.016571195572614668,-2.1805194542482496,-7.305159346991777,-6.067804247936606,6.076599030959612,9.431648569198758,3.2407636113953204
6461,0.01666666753590107,-0.0017810381978750228,0.15208967308700083,-0.01805821925997734,-2.191742274530232,-7.251738722449541,-6.064362583050132,8.13525561284189,11.111495175749313,4.937104057574398
6478,0.01666666753590107,0.07384834941253066,0.16688626020252703,-0.06436988857984542,-2.113332024029642,-7.250989949908853,-6.094440325927734,12.26624110777752,6.896903469617674,5.136832449283911
6495,0.01666666753590107,0.01589315018057823,0.13523498439788817,0.15444588082432745,-2.172588661248982,-7.299323480445146,-5.8545712471008295,13.79920876509518,2.8831775951357654,3.5320871877522313
6511,0.01666666753590107,-0.026796383119374514,0.14467384387254714,0.21599778937399386,-2.217479796246439,-7.307402742004394,-5.770473744744062,11.920938332966585,1.535378820816382,1.8713531580466647
6527,0.01666666753590107,-0.04807385668680072,0.1056149221599102,0.40351708776056766,-2.240523987225443,-7.357680976867675,-5.568313926586509,7.505548029859857,0.1597532154881323,0.999526894931904
6545,0.01666666753590107,-0.013677519957721233,0.028053543573617935,0.4614402844190597,-2.206556251171976,-7.439532746124267,-5.5048669980704785,0.8604697395982922,2.705784989229252,0.7508575831374582
6561,0.01666666753590107,0.008893208290636539,0.06730477298796177,0.4672445867836475,-2.1790230782106517,-7.396138425555825,-5.506065267944336,-2.861662499250225,5.985716533863422,2.2406164499094143
6578,0.01666666753590107,-0.00040828853994607925,0.05236556253135204,0.38728666844964027,-2.1847091610230502,-7.400179225379228,-5.600935508728027,-3.7951988811858164,5.869932874600658,4.631797162995767
6595,0.01666666753590107,0.0713717301659286,0.03808978441953659,0.32881811286807056,-2.115576588086039,-7.408109433856606,-5.666326557049155,-1.9369453856370014,3.823352920944609,5.196220517230349
6611,0.01666666753590107,0.05620952460840344,0.04060498211085796,0.27182547505795956,-2.1369747654236853,-7.403021170806884,-5.724236309704184,1.4405893487932393,2.214183190934642,5.020871205102727
6628,0.01666666753590107,0.006964139924198388,0.05242693732976913,0.47607788158059117,-2.193537633514404,-7.394342774310708,-5.513396926006674,1.910285449759149,1.3370010990152392,4.237179568603695
6645,0.01666666753590107,-0.15128361740112303,0.02883621838390827,0.4849392334282398,-2.359485882214457,-7.414544435340166,-5.5059150458186865,-4.750175440369489,1.7398081969438621,3.8899647677119815
6661,0.01666666753590107,-0.17923399286121128,-0.048398412466049194,0.46153030079007146,-2.3918077507570383,-7.479187295642495,-5.543324446758628,-9.442535036962113,0.6782466958446989,2.3728589440812047
6678,0.01666666753590107,-0.25370208160728214,-0.06322831732928752,0.33336335508227344,-2.466177639825642,-7.474698752051592,-5.6953562521785495,-9.292210257292949,1.0449694241404683,-1.4195818213403957
6695,0.01666666753590107,-0.18529723842293022,-0.043971828195452686,0.24944004024863242,-2.3903112285889683,-7.445818694525957,-5.793817795452475,-6.957035174409996,2.749528935768599,-2.413676581448024
6711,0.01666666753590107,-0.10034648023769259,-0.03039338469803333,0.2126321123331785,-2.298284248407185,-7.425168120685219,-5.84185146625936,-5.904508572839732,2.7289156382969115,-0.9473271742000816
6728,0.01666666753590107,-0.12833426509872078,-0.032064532780647276,0.2428969022154808,-2.3180362659730016,-7.414394213214516,-5.82973023583293,-10.40269912482041,5.876756233581501,-0.7567095611522782
6744,0.01666666753590107,-0.0923812004469335,0.016436171016097068,0.2325181315422058,-2.275240057428181,-7.352295192176103,-5.859060375213622,-12.234577204558986,4.15513789761444,-1.247172692207053
6761,0.01666666753590107,-0.09319792365729808,-0.009492050966620445,0.2828185782372951,-2.2710502045229077,-7.362320327106118,-5.829731404876709,-10.893024744957286,1.8978291057037497,-1.7358353747244417
6778,0.01666666753590107,-0.17309607462808488,0.011533201405405997,0.23750001160800455,-2.345120672253519,-7.324162738147377,-5.897666292461753,-10.528410464041787,1.855838810233804,-3.8342718321065203
6795,0.01666666753590107,-0.18699410546869039,-0.01393733993768692,0.1075058504730463,-2.348263061932474,-7.3382286729007955,-6.045059916687011,-12.438139039940168,4.378416781582158,-4.774123791146846
6811,0.01666666753590107,-0.14314911852329967,0.005415595307946205,0.03937105640172958,-2.288108891351521,-7.301268184772133,-6.139779935345054,-16.05940715391161,7.885942609079023,-3.8068806391006538
6828,0.01666666753590107,0.001514642346650362,0.08737783920168876,-0.09428338080644608,-2.1220110050477086,-7.1893398416817185,-6.316053032574057,-16.783875073891107,8.357855746760837,-1.5323979768522005
6845,0.01666666753590107,0.12007906245067715,0.17672376360595224,-0.1554717167407274,-1.9948190418519078,-7.082347785949707,-6.400747916302085,-12.769882181701334,4.153571222973569,-1.5287054058321623
6861,0.01666666753590107,0.06171411337405443,0.20360300270318984,-0.17789572999477385,-2.047641115979105,-7.042096439582109,-6.440551518902182,-7.002756460714062,0.8743936671907451,-2.705451590620391
6878,0.01666666753590107,0.02554097623080015,0.21541092939674852,-0.23494272834062574,-2.082506823785603,-7.0286284707218405,-6.499957647594809,1.58768238176793,-2.9616048153936134,-2.888724989402285
6895,0.01666666753590107,0.09751184133365749,0.1507967106670141,-0.17366788316667078,-2.01412243886739,-7.101053655463457,-6.428430872997641,5.3176113349148695,-4.510979654314704,-2.2189519436357803
6911,0.01666666753590107,0.12258373874798416,0.12948095091581344,-0.1332861884176731,-1.992873753003031,-7.130681316486001,-6.377104590386152,4.358599841479012,-2.1826578124902136,-0.2538401652025422
6928,0.01666666753590107,0.07998392955809831,0.13183189795613287,-0.006737199300527573,-2.035370978601277,-7.127239651599526,-6.251858500561117,-1.8108660699740897,3.3392015783740137,1.772446255892768
6944,0.01666666753590107,0.002917202620953321,0.11253449229001998,0.05291910476088524,-2.107346666009724,-7.1332251557499164,-6.2093614210933445,-5.5872027434366816,7.903044548987089,2.284043006095767
6961,0.01666666753590107,-0.016786591888964177,0.1265636021643877,0.06802490395605564,-2.117970789746195,-7.1032970504760735,-6.215646200451254,-7.663752286510277,9.48383036068401,3.12676263150593
6978,0.01666666753590107,-0.026281711595505474,0.10296937608718872,-0.015529577565193175,-2.1172226017273963,-7.10524292384684,-6.327426074981689,-5.783617639625091,4.755613978496112,1.871406305456144
6995,0.01666666753590107,0.06806304400935768,0.10880056645870208,-0.04236965369582176,-2.018611274719238,-7.091774954986572,-6.364385978588461,-2.158782886246434,0.6891719035872517,0.018458399468974342
7011,0.01666666753590107,0.0741591689273715,0.15637889471352098,-0.05048690917789936,-2.0117280910767614,-7.043142733764648,-6.373962785229087,0.24951126601178217,-0.06771158726502387,-0.11667238426765866
7028,0.01666666753590107,0.10074702386260032,0.18286182796955108,0.02474456515610218,-1.9849431061342357,-7.017406234961748,-6.297946882519126,-0.1008802331845421,2.6277330024889314,1.5221447956909535
7043,0.01666666753590107,0.18890446913465855,0.11792436863481998,0.08728782283067703,-1.8962080071046947,-7.078308739691972,-6.2401873519897455,-2.7424208432767307,4.922029403189357,2.889408648649521
7061,0.01666666753590107,0.19616846878826616,0.12120762808918953,0.11748305460810661,-1.887828301294148,-7.065888234058022,-6.2207344635009765,-4.855325348868189,5.720755993598879,4.838263536321497
7078,0.01666666753590107,-0.0019391513690352438,0.08453764733970165,0.16211130088567732,-2.0846017502382397,-7.087436633521318,-6.1936500572204585,-5.154375790167089,5.998711395646194,3.2435693250403146
7095,0.01666666753590107,-0.07471124985218047,0.06182721835970878,0.144004566308856,-2.1493948326662182,-7.098509231677651,-6.227467571148276,-6.723092657600597,7.320380747687165,1.0926582318123204
7111,0.01666666753590107,-0.07090498943701386,0.03141337539553642,0.09527648349702357,-2.1344307800292968,-7.115418280902505,-6.29495413044393,-8.487247704171205,8.753480794055486,2.0530743963396736
7128,0.01666666753590107,-0.024039193365722893,0.019289222359657285,0.06651859104633331,-2.0735284214295446,-7.10569183665812,-6.35256460789144,-10.052696326086862,7.822495274331482,3.377956071724666
7144,0.01666666753590107,0.04258636518642306,0.06204524502456188,0.03445931896269321,-1.9970636059083042,-7.046734620776772,-6.4056853727042675,-9.625176002915547,8.83230629971931,2.609660748831901
7161,0.01666666753590107,0.012045388711243867,0.12215163094103336,0.08511632401049136,-2.0169655533388258,-6.969072704425454,-6.377704309844971,-10.977976076532965,10.087940102204128,2.9767230122346136
7179,0.01666666753590107,0.07996186385676264,0.025142040041089057,-0.03887830444872379,-1.9367597977235913,-7.0377563645511865,-6.536469222912192,-13.280974138235987,10.949450645238054,4.714324204302915
7195,0.01666666753590107,0.14673691388219595,0.019686697244644166,-0.1453115572541952,-1.8634372257508336,-7.020248764911294,-6.669796912384033,-12.864001334690464,10.553799130960371,5.781977540450642
7211,0.01666666753590107,0.09295183994174003,0.0217938986569643,-0.17786007415950297,-1.9104237255923449,-6.99705493632853,-6.7271081146240235,-9.714866632001568,10.53885979969826,5.979214620660393
7228,0.01666666753590107,0.0576721445068717,0.1030441948890686,-0.2030477069079876,-1.938256173761189,-6.897247239142656,-6.774393597412109,-5.706960719022746,6.758891386587926,3.7629381901885535
7245,0.01666666753590107,0.03355579425171017,0.036649522483348844,-0.29041619375944133,-1.9584571041382848,-6.955455682483315,-6.871657455334067,-3.720891545657955,4.48417201559605,2.2736805419078
7261,0.01666666753590107,0.05622092278525233,0.08977905512452125,-0.3092155867755413,-1.9334677704408765,-6.8981444802433245,-6.8956000564575195,-0.24278910588844668,2.985475899655985,3.0021375058059965
7280,0.01666666753590107,0.12065803138241171,0.0579746345847845,-0.2743938642412424,-1.868973817089945,-6.932261853900552,-6.858340293121337,2.8118469414255602,1.7938283765329044,3.137090090974401
7295,0.01666666753590107,0.12999416113495826,0.014582067582011223,-0.2325660623371601,-1.8592475189760327,-6.976255309405922,-6.815992266735434,0.7095350987414397,5.17976274953838,3.544617383228031
7311,0.01666666753590107,0.008448094871640204,-0.010145546439290045,-0.2672270413517952,-1.9731217354372144,-6.99690529872477,-6.857292245373129,-1.1342032843257461,10.069762407501784,3.216804161560562
7328,0.01666666753590107,-0.14970540829896925,0.025443068814277648,-0.5806435869485139,-2.1116860103882846,-6.963386475482583,-7.174374327740073,7.295804019506167,12.275359410319487,3.6121288939751413
7345,0.01666666753590107,-0.05725318844243884,0.130113988122344,-0.7299439215779304,-2.005293527984619,-6.870610576629638,-7.315183312878013,10.16060733855754,9.59710051033221,1.9751434320137091
7361,0.01666666753590107,-0.03552271041050553,0.024938626423478126,-0.5096048881292343,-1.972971951702982,-6.992416755133867,-7.08025227497518,10.070176487720216,5.309009138542062,0.8104700334703014
7379,0.01666666753590107,-0.06810527571588754,-0.010637129348516464,-0.17173370023369788,-1.9948191879823802,-7.046884842902421,-6.725311878857016,6.382901425609772,3.0537709611669426,-2.479973172296518
7395,0.01666666753590107,0.0667116294004023,-0.08780454018115996,0.3026590047389269,-1.8483239739015698,-7.130681316486001,-6.247219734844565,2.2876429426751868,7.989340574055615,-1.4536779122336878
7411,0.01666666753590107,0.2311727082826197,-0.0727758978754282,0.32864918604195115,-1.6660652263917028,-7.112575750952959,-6.229712719726562,-3.361920068213945,13.64754185325411,3.9550218926695297
7428,0.01666666753590107,0.31134339258447286,0.15585633214414119,0.13636135807931424,-1.5737388248719275,-6.865822173309326,-6.444891009411215,-5.147090112756801,11.148951933157663,7.0093936970400215
7445,0.01666666753590107,0.029040947175770996,0.16424422126114369,0.009942717343568802,-1.8493712909974156,-6.844724440222978,-6.586747457775473,-4.85462482759144,9.171000866508257,3.927972636008987
7462,0.01666666753590107,-0.051033583275228736,0.22191958063840864,-0.07857961571812629,-1.9165585750855505,-6.778584034839272,-6.687903062438965,-3.1957823333991437,12.045109464530125,2.081471761587648
7479,0.01666666753590107,-0.06536255287900566,0.2252630458474159,-0.05157295084893703,-1.9087771274290979,-6.769007228198647,-6.673686905559897,-1.9015355505455396,10.566183971472897,2.2902185643225166
7495,0.01666666753590107,0.051200610405206674,0.09562135141193866,-0.1589841087758541,-1.7790416172303258,-6.8975459298282855,-6.785915108379721,0.0561597897074018,7.7804725354629785,2.2291218818665177
7511,0.01666666753590107,-0.0834653419330716,0.10496259573101997,-0.1880196491241455,-1.902193365124613,-6.890363324847817,-6.815842629131675,2.833139202389429,8.209298278539412,0.7247008934632184
7528,0.01666666753590107,-0.24310996044427155,0.17927812426388262,-0.25164427229464054,-2.037615542657673,-6.828413356891274,-6.873004778289794,7.9304011641602825,8.916294574622018,-2.5945555720390057
7544,0.01666666753590107,-0.11138181512355803,0.0507815082103014,-0.27572072893083094,-1.8888756183899937,-6.972514953833818,-6.885124839672446,10.939998517200403,7.388844002606434,-3.5027741502686522
7561,0.01666666753590107,0.0711921358153224,-0.010806640696525573,-0.17969898002445697,-1.6873137661255895,-7.058706213599443,-6.767958595928549,12.108384337001123,8.124113866758307,-0.19744806902208065
7579,0.01666666753590107,0.12663155283406377,0.0161690445125103,-0.1269195759952068,-1.6184804683960974,-7.051971936908364,-6.697030956268311,13.722722599222086,9.199054160976791,1.5032122583636187
7595,0.01666666753590107,0.02693184606730938,0.2086193695604801,-0.11223170995116233,-1.7096097690857945,-6.878392901068925,-6.664260321044922,14.597487124340422,8.071027928981675,2.1287753039016293
7612,0.01666666753590107,0.016066753181815146,0.0406295320302248,0.3391396003961563,-1.7087117973327637,-7.075913953509926,-6.183923028454184,16.099976770034193,8.382998526869299,0.6968073080273854
7628,0.01666666753590107,-0.10716156708002089,0.28698329670131206,0.37154081778526304,-1.8330607921876012,-6.853402836719155,-6.125116034698486,17.125616758823526,-11.498982052647891,-0.7171812820738575
7645,0.01666666753590107,0.18834873494803905,-0.07741933976709842,0.6542062512874602,-1.559673036248982,-7.2539827019840475,-5.796511272320151,24.018500235227823,-15.292149806329276,-5.3201931464211345
7661,0.01666666753590107,-0.7731368743553757,0.41410862440168855,0.15698387486934662,-2.5112182662963867,-6.799084971076249,-6.255450387573242,3.722638366538186,20.8710466128484,3.1469951459313887
7678,0.01666666753590107,-0.6363030764587223,0.1795756459057331,0.0034919337689876553,-2.3385366176880895,-7.027880282703042,-6.424988623589277,-6.550013102711535,28.98039702571572,3.959068352865939
7695,0.01666666753590107,-0.1919736474469304,-0.21470424243211744,-0.0014472761988639832,-1.8611928078249096,-7.410353997913003,-6.451774339184165,-4.14469155016573,15.453584742457112,2.1423298143095195
7711,0.01666666753590107,-0.08243059205785393,0.032417584002017975,-0.2628729377955198,-1.7341503361023962,-7.16928781825602,-6.710946668896079,10.028484159252812,4.692982851354388,-0.27453302370588917
7728,0.01666666753590107,-0.09235226661339402,0.07649696422517299,-0.2033259393274784,-1.7381905514039098,-7.146991815295815,-6.628496933746337,14.84253382119297,2.84785057608799,0.6048832604436217
7745,0.01666666753590107,0.03358984265178442,-0.031036358776688575,-0.1638981843024492,-1.6098013412475585,-7.27822340927124,-6.56295507877767,13.287907634017197,3.2912709393168607,2.0216465615343293
7761,0.01666666753590107,0.001751665972918272,-0.03337152372598648,0.051423897767066955,-1.637633935546875,-7.303063836017251,-6.3230859999507665,8.585021862139937,5.951516496028699,2.853922827703543
7778,0.01666666753590107,-0.13784472850486634,0.01582125398814678,0.16094225710630417,-1.7714100994385777,-7.265804072681069,-6.2014306280940765,6.858142146077851,6.575704005500892,1.687535478565285
7795,0.01666666753590107,-0.12514891306087375,0.018952537751197814,0.4983224466145038,-1.7459717067994176,-7.273136899787187,-5.855319435119629,2.906696070882235,6.283108092967654,1.5824620895296304
7812,0.01666666753590107,-0.027249533714354037,-0.08814064026772975,0.4349900843888521,-1.6443677738465368,-7.381474524909257,-5.91816664417684,0.9585329533071338,2.5479634366157637,2.222204821227999
7828,0.01666666753590107,-0.09060586133748293,-0.1935562404632568,0.4286041827440262,-1.7046717281617223,-7.486220263019204,-5.926098021697998,-0.29350667557037635,5.8650561195332696,1.9220308138106321
7845,0.01666666753590107,-0.08678425722271203,0.13286650170087813,0.40929859377145766,-1.6941970958985386,-7.157616669684648,-5.949590540966391,0.17151445439335047,5.532767843298972,4.419699725586184
7861,0.01666666753590107,-0.035936551908403634,-0.009392682245373726,0.47734220242798325,-1.646462554168701,-7.29752724467814,-5.883450720104575,-1.7228794663642797,4.352882119370065,4.819998756707237
7878,0.01666666753590107,-0.09317088951990007,0.026471827340126035,0.5044938287258148,-1.7043724529542028,-7.2551798028141254,-5.863548918804526,-4.880833117210425,6.90217722943057,5.586872333035582
7894,0.01666666753590107,0.022554800026863813,0.048107320564985276,0.4317307903319597,-1.586607512664795,-7.2155252532958984,-5.9573711118400094,-9.955931328568,9.49283169623644,5.362715769759518
7912,0.01666666753590107,-0.1642094422087073,0.1643172864973545,0.19255670803189276,-1.765424595288187,-7.081450544849038,-6.21878859013021,-10.931999511908671,11.256287502190768,3.9691723370825036
7928,0.01666666753590107,-0.29693668156936764,0.16931377961039543,0.07444178526103497,-1.8870798210144042,-7.059153957366943,-6.35914866245687,-8.511404375718246,8.700799544987177,2.020782329160911
7945,0.01666666753590107,-0.12326236866191029,0.22640987779498098,0.11070143164396286,-1.7046717281617223,-6.9903212441593405,-6.338199397930502,-2.870235453875649,1.9634680774012185,0.49862952934202415
7961,0.01666666753590107,0.09859744461327791,0.13138415418863295,0.16141338174939154,-1.4820109737671912,-7.083395833697915,-6.289866451916098,-2.1467856589693066,0.594724207826874,-0.33768946176389636
7978,0.01666666753590107,0.10969050103574991,0.14947569119632242,0.21034137104749678,-1.470638515881449,-7.06095019313395,-6.245873580932617,-3.953023635450478,1.4605363826557327,1.8776691620382224
7995,0.01666666753590107,-0.023403379680216312,0.0691682287722826,0.18103344349861145,-1.6047138088501989,-7.125444000354409,-6.292559928783774,-9.184213013684,5.224156844709347,2.9337831070266245
8011,0.01666666753590107,-0.09949424732252955,0.1961889270544052,-0.012459668600559234,-1.6745945698060094,-6.980894659644365,-6.506990614971518,-9.154741601189041,7.5485833442728145,0.7676617161255408
8028,0.01666666753590107,-0.15856120718866587,0.24151743055582045,-0.08730477396547794,-1.7214309936523438,-6.9253779396057125,-6.596024989208579,-2.836231143649329,5.2674764657465065,-2.106381248047273
8045,0.01666666753590107,0.021356384022533894,0.1989648215085268,-0.20643559578061102,-1.5301942821778356,-6.9717661812931295,-6.713640145763755,3.599222397764756,-0.42891365508157175,-1.8004466163952353
8061,0.01666666753590107,0.1327986971616745,0.07183189502358436,-0.07473813785910606,-1.4191631801880895,-7.107337850299477,-6.572531885418296,3.97649600742005,-2.1133008700067304,-0.6254893008393155
8078,0.01666666753590107,0.11645371156036853,0.06718319243490696,-0.013730419188737868,-1.4378678806580603,-7.117064294543862,-6.50534518585205,1.0261552411848451,-1.2830777160133406,-0.35301261764084974
8094,0.01666666753590107,0.01841682343930006,0.025793197426199913,0.0028366847306489943,-1.5375265247620642,-7.157466447558999,-6.489483599853515,-1.185729804537499,-0.021567176077961513,-0.8324174589859623
8111,0.01666666753590107,0.041491117295622826,0.074531217110157,0.00291617970764637,-1.5102926270082593,-7.100754380255937,-6.4992100440979,-2.8614535381503052,4.28073483116722,0.07579292835276544
8128,0.01666666753590107,-0.06278305777981877,0.017855390164256094,-0.01889817721545696,-1.6062100387573242,-7.1498343452453605,-6.53138154438436,-3.468168356508548,7.0117377325858055,1.4983972951638769
8145,0.01666666753590107,-0.0688306673809886,0.004286299017071724,-0.06215104348659515,-1.5970822910584508,-7.153725507465005,-6.58884296875,-3.2509147666058404,5.415975450473162,-0.4686788296664009
8161,0.01666666753590107,-0.048347266800701616,-0.04130173220336437,-0.1496037014901638,-1.5661073070801794,-7.19532476131022,-6.683114074596762,-2.2573845643217956,4.067846372474385,-1.451192363706038
8178,0.01666666753590107,-0.05737856838777661,-0.029490298378467557,-0.2001589997291565,-1.5656583942689,-7.181258826556801,-6.738330350384116,-1.5077491047980938,3.771776028087727,-1.7168135113293679
8194,0.01666666753590107,0.024401889198273418,-0.026976854252815246,-0.2108808847516775,-1.4761749610900878,-7.1782660744816065,-6.751348237389326,0.5740029079889363,-0.1731576885179071,-1.3970568179530458
8211,0.01666666753590107,0.18904680021479725,0.01764379324018955,-0.13552490725517272,-1.3121721473693846,-7.135619357410073,-6.673686905559897,1.4954142100438739,-0.683216725682941,-0.623294035351391
8228,0.01666666753590107,0.17267931052073834,0.08861001134514808,-0.10097615644335746,-1.3296798931397498,-7.067983160510659,-6.635230041393637,2.701885804986821,-0.7484401230580968,-0.12014516193463992
8245,0.01666666753590107,0.03706540980786085,0.18850421777069568,-0.008552724289894103,-1.4670472133912145,-6.975956034198403,-6.533776330566406,4.410388897086987,-1.334932725635489,-1.205899353156547
8261,0.01666666753590107,0.022536241456866262,0.10339899967610836,0.08432546589374541,-1.4815620609559117,-7.06723497249186,-6.434117101940513,3.713993054596242,-2.1305716436533424,-1.9558383292114914
8278,0.01666666753590107,-0.001713672050088644,0.023355741146206855,0.11004676712751388,-1.505354293823242,-7.151331305804848,-6.40403935906291,1.2512129625445272,-1.2561789369579495,-1.7457166307410403
8294,0.01666666753590107,-0.03165872845873236,0.09276420841515064,0.18637948070168495,-1.5282489933289587,-7.081749820056557,-6.329521001434326,-0.9968645085377743,-0.23173428463422238,-3.1491434538687693
8311,0.01666666753590107,0.001418050104379654,0.11840192301869391,0.10185177023410796,-1.4885950283326208,-7.054066863361,-6.4178071876525875,-1.094559479000817,-1.742646353987414,-3.5559864465449293
8328,0.01666666753590107,0.015020897390693426,0.0969873790681362,0.0800742381900549,-1.4727334423340857,-7.074118302264809,-6.4415989821285,-1.5550898929873926,-2.8162274405610654,-3.3777018606214946
8345,0.01666666753590107,0.05065642052590847,0.04452244781553745,0.16308043817877768,-1.4350247661866247,-7.1236489336311815,-6.3622910521358245,-1.826353310473682,-1.6300472704251687,-2.7913518916038793
8361,0.01666666753590107,-0.04284253190457821,-0.008446925827860831,0.1986860045671463,-1.526752617291361,-7.174675356513261,-6.329221141704917,-2.3555279793925323,0.1702914503255215,-1.2077794694472987
8378,0.01666666753590107,-0.08855930407121777,-0.01795066723227501,0.13756605769395827,-1.5705962890624998,-7.180809913745522,-6.394463136944174,-2.2309722228013564,0.850533628624922,-0.27222153828036877
8394,0.01666666753590107,-0.11377382482662796,-0.08342530218362808,0.09583587094545364,-1.5910967869080601,-7.23931880133748,-6.444891009411215,-4.292395244740901,3.4771818583354377,0.31132503828935293
8411,0.01666666753590107,-0.008684972367435694,-0.008691255977749824,0.008373276069760321,-1.4821604652404785,-7.15626993125081,-6.542305673980713,-5.452070438915741,2.1709933434917126,0.8374017895327791
8428,0.01666666753590107,0.019903262604773042,-0.03031856589615345,-0.0314537074059248,-1.452981132507324,-7.168838905444741,-6.592134411510825,-5.3856865497119175,0.43973867782282217,0.8695668578816617
8444,0.01666666753590107,-0.025240531979501248,0.04701718724071979,-0.06722177087962627,-1.499967486218363,-7.081899457660317,-6.637924102783202,-4.0770001066226715,0.6081103113830412,0.047565970988497706
8461,0.01666666753590107,0.039313627126067875,0.1240408056885004,-0.10952829621136188,-1.4372691841125487,-7.001693702045083,-6.683263712200522,-1.799000323838485,-1.8212567086923832,-0.44904657147510996
8478,0.01666666753590107,0.10814940907359123,0.15949673447310925,-0.11354103898406027,-1.37262573928833,-6.965481401935219,-6.687153705376386,-0.3685651718243803,-3.1553023635094166,-0.6392779053088374
8495,0.01666666753590107,0.11322671233788131,0.09925240139067172,0.01628010367155075,-1.3726258854188025,-7.026383906665444,-6.555473783111572,-0.6723771621092779,-3.3365947939885956,-1.6720117392423155
8511,0.01666666753590107,0.017202771474421022,0.05928747074902057,0.01887771894931793,-1.4697406902588903,-7.064691133227944,-6.554425735363364,-2.234333102759826,-1.9234570426866955,-1.5988433377585538
8528,0.01666666753590107,-0.016733546527475118,0.026619126856327054,-0.0006482347756624221,-1.5020624126709996,-7.0923740899235,-6.579715074920654,-3.7173599109702353,0.8971133309694405,-1.3031926231190283
8545,0.01666666753590107,-0.07847118690758943,0.012895137408375739,-0.02366261513829231,-1.5521910099305212,-7.094768291583657,-6.617573388671874,-4.998167229414782,5.040362857446651,-1.039841232734258
8561,0.01666666753590107,-0.001615764633566141,0.019850363373756407,-0.03803542388379574,-1.4657004749573765,-7.079804531207681,-6.642712506103515,-2.975370634778951,1.6647220064072077,-0.9218450190672335
8578,0.01666666753590107,0.04921469728499651,-0.025826515173912046,0.01412029528915882,-1.4127287632264196,-7.123200020819902,-6.593481734466552,-0.23543912865042538,-0.45982594400671234,-0.8585176928778437
8594,0.01666666753590107,0.0021354045934975146,0.08232347842156887,0.017227029132843016,-1.4568718563355505,-7.014712173572183,-6.591386223492026,-0.5199736570549024,0.8951656064780761,-0.578694287453383
8611,0.01666666753590107,-0.038179362399131056,0.034335984843969346,-0.02847147672474384,-1.4960767623901365,-7.062146709442138,-6.637923518261313,-0.40873548868478227,-0.20208403324080035,-0.569855275615446
8628,0.01666666753590107,0.05037614227980375,0.04593114556968212,-0.00871931302845478,-1.407940359906107,-7.050326507788896,-6.618321576690674,0.10976845039895093,-0.20992694469761294,-0.08308156729038885
8645,0.01666666753590107,0.0013338789522647856,0.13427812206447123,0.07580489030778408,-1.4552259888246655,-6.962638871985673,-6.533477055358886,0.40713114128176975,0.6236469106715574,-0.7913482785586161
8661,0.01666666753590107,0.018096651574224232,0.0825572871774435,0.04327507810294628,-1.4357729542054236,-7.01635818721354,-6.564451454815268,0.9169883276805313,-0.2538860288556018,-0.8405120869260736
8678,0.01666666753590107,0.06110036538988352,0.044216742867231366,0.00813420661687851,-1.3935750038146972,-7.056460480499267,-6.597521365246176,1.0059324384346124,-1.424190918369685,-0.07220206311833702
8695,0.01666666753590107,-0.01895326840355992,0.004099836534261703,-0.07267360654473304,-1.4773722080506384,-7.097761628180741,-6.676230744823813,0.6699388379364363,-0.9901852238597365,-0.30792291039159897
8712,0.01666666753590107,-0.028690964694321155,-0.002305354332923889,0.027170915520191193,-1.486649739483744,-7.104644373431801,-6.57597413482666,0.20206036770254332,-0.3274571180157032,-0.5838586575178532
8728,0.01666666753590107,0.03664338500350713,0.01779635345339775,0.04803659341633319,-1.4215573818482459,-7.0842936593204735,-6.555324145507812,-0.4467699040061007,-1.0931997377474556,-0.5053295180309836
8745,0.01666666753590107,0.04899550157636404,-0.024780805513262748,-0.011498714613914489,-1.4116813000001012,-7.126342410498857,-6.614879327282309,-0.4139426808336972,-1.6966714969104117,-0.9210436457785206
8760,0.01666666753590107,-0.1216192776300013,-0.023031916019320486,0.039705987444519995,-1.5806220085144043,-7.123797986713051,-6.564899783104658,-0.6574118974726626,0.6787099747694962,-1.2639849894056279
8778,0.01666666753590107,-0.08404884090945124,0.01862812810242176,0.07253916651010513,-1.5381250751771032,-7.081002216559648,-6.534374296459555,-0.8393388952144182,1.6487107623322286,-1.4278862641540735
8795,0.01666666753590107,0.06946312006562948,0.04789806172847748,0.06048398705720901,-1.381903416851908,-7.053617950549722,-6.544998566326498,1.9537331368432465,-1.9790202046979262,-1.0715716235754928
8811,0.01666666753590107,0.07002133847028016,-0.016265490624308584,0.008345219019055366,-1.3835494304932654,-7.121703644782304,-6.592433686718344,1.5362758167534751,-1.3953326220744406,-0.27300340817735014
8828,0.01666666753590107,-0.022944383866339922,-0.016442016234993934,0.025132103168964384,-1.4755765568055212,-7.120655597034096,-6.577171235656738,-3.057258839955292,3.2987681391480073,1.1419940755694977
8845,0.01666666753590107,-0.15988427248597145,-0.1175572888880968,-0.011248539245128631,-1.6060605472840368,-7.208193595233559,-6.629544396972656,-7.318278756970093,6.620475895510325,2.5126978892705187
8861,0.01666666753590107,-0.1614149891845882,0.029314357289671897,-0.1908861444711685,-1.601421781567484,-7.0482315813362595,-6.82452161014974,-6.750330598236962,4.985893379476269,0.6861748912846442
8878,0.01666666753590107,-0.06269260301738977,0.14995792175531386,-0.16216156976819038,-1.4951790828980505,-6.91999215491414,-6.805517634472251,-2.2697102810093184,2.5507943365833228,-1.5476961064891481
8894,0.01666666753590107,0.16745865326300263,0.32177462409734725,-0.25068974804878236,-1.2584523937501013,-6.750153474646806,-6.893354907879233,2.3149760790731087,-2.8155388721153636,-3.5109528749129195
8911,0.01666666753590107,0.16991276841685174,0.3122866647839546,0.07691548189818859,-1.256058192089945,-6.768706783947348,-6.556071749004722,5.6830076724903344,-3.52588537598586,-3.355880900327185
8928,0.01666666753590107,0.08902487575635314,0.1674456476509571,0.11108546252548694,-1.3404536544799803,-6.931663303485513,-6.501753883361816,7.965119869485103,-4.3700374201310215,-2.4607549409628064
8944,0.01666666753590107,-0.006872954509407282,0.05002689045071602,0.09016600861549377,-1.4387657062806187,-7.060950777655839,-6.509385401153564,5.691229512703737,-0.3811137234335747,-0.6336607150467366
8961,0.01666666753590107,-0.07957213388681411,-0.023691256710886954,0.1850000090420246,-1.5078981330871581,-7.138611524963379,-6.411072910961509,1.9653077461654793,3.486257045308269,0.294729839720764
8978,0.01666666753590107,-0.09148995069563388,0.012493570870161055,0.270468799751997,-1.512536898803711,-7.101502568274736,-6.328173678478598,0.6411625572720849,1.475429823584357,0.664661236142132
8995,0.01666666753590107,-0.05629471867382526,0.09010463381707667,0.2349707853913307,-1.4764743824280797,-7.023540792194009,-6.364236340984702,-0.008092760310260187,-0.44348578363451463,0.13801473773217834
9011,0.01666666753590107,0.06372779128402471,0.17556173408925532,0.19896774411797521,-1.3555670524597168,-6.937649392157793,-6.400898138427734,0.018455317879719903,1.102967335147397,-0.9675793254194042
9028,0.01666666753590107,0.09448518698886037,0.05604688139259815,0.23697218834161757,-1.3181577976502477,-7.057658165851235,-6.363788012695312,-1.2228239215896037,1.6027920408724674,-1.2845200598669768
9045,0.01666666753590107,0.14451923783272505,0.064601943770051,0.15098551123738288,-1.2648868107117712,-7.045388466864824,-6.4544678160518405,-3.389177645644174,3.2147207404202964,1.349204726071348
9062,0.01666666753590107,0.00815554166585207,-0.07730126634538173,0.04379822519421577,-1.3979146404542029,-7.180061725726723,-6.570137683758139,-4.504259601945058,4.809782928143013,2.447868081546285
9078,0.01666666753590107,-0.11041560043990611,0.025397476106882092,-0.058875967338681216,-1.5143328423097728,-7.068881570655107,-6.682366471099853,-1.8479399099020957,2.9612020476759944,2.6789767101803634
9095,0.01666666753590107,-0.06282572787776589,0.08149170377254486,-0.07430325357317924,-1.4661492416381836,-7.010821595874428,-6.700023123821616,0.3099479013979491,2.8345387508390467,2.018298488180554
9111,0.01666666753590107,-0.05206204954013228,0.05861468605399132,-0.07682429648339748,-1.453429899188131,-7.034763027954101,-6.701818190544843,0.11739725143353949,3.3628282699301453,1.847872888670865
9128,0.01666666753590107,0.026791122422367333,0.2028986538261175,0.012568974193930625,-1.3703811752319335,-6.891111512866616,-6.612634763225913,0.31159749880421295,1.8997488157473466,1.0146862863513357
9145,0.01666666753590107,0.041306846769899125,0.16092822858095168,-0.01567746160328388,-1.356015965270996,-6.93315967952311,-6.640766048210859,-0.2634525625618509,1.5731731389801187,1.9183418713285907
9161,0.01666666753590107,-0.0351896790638566,0.1382096162945032,0.02513327221274376,-1.4312838260926306,-6.953361340552568,-6.602908318981528,-1.2145176645069278,6.234260287571016,2.3267585822782038
9178,0.01666666753590107,-0.1284450319968164,0.19116554593443869,0.16708733573257922,-1.509244871520996,-6.895749694061279,-6.469132301220298,-0.9712943079976564,11.306135076527166,1.6469449449883686
9194,0.01666666753590107,-0.04476356309503317,0.1384323191344738,0.12426760018169879,-1.4097358650207519,-6.947225029754638,-6.516567421612143,0.644647661296084,9.122248683759997,1.4418783335556677
9211,0.01666666753590107,0.030010961251705884,-0.05971884790360927,-0.001875146222114563,-1.3269861240111291,-7.145645076861977,-6.644058660015464,0.6420899688953258,3.9126674627394573,3.203638971935362
9228,0.01666666753590107,0.025496990958601234,-0.05645312410593033,-0.026614450681209562,-1.3317748195923864,-7.140407760730385,-6.6708443756103515,-0.9678954351119288,3.499078164154029,3.090983325869053
9245,0.01666666753590107,0.007440379133820533,-0.055007016950845714,-0.022224106767773626,-1.3491327816285192,-7.134272618976235,-6.67159256362915,-2.837030489225632,4.603614521819825,3.269354996704405
9261,0.01666666753590107,-0.04759016482308507,-0.04551847311556339,0.03118716542422771,-1.4018050720214843,-7.114969368091225,-6.629094899639487,-4.177771010089748,6.832162240909239,3.7566834444561144
9278,0.01666666753590107,-0.03730257956460118,-0.02796118911504745,0.03098550537228584,-1.3860932697571813,-7.088333874621987,-6.640019029235839,-4.9105132773618925,7.002846960720564,3.985458496271576
9294,0.01666666753590107,0.009394143550097942,-0.027960604593157766,0.03287526464164257,-1.3370119895935058,-7.079355033874512,-6.648098875316977,-3.841881943502384,4.65619417182423,4.3054870098325235
9311,0.01666666753590107,0.10723229422867298,-0.0005161328285932541,0.01789572217464447,-1.24004696848765,-7.045088607135415,-6.6700956030696625,-0.8920139544237912,1.66204008994092,3.141460558269563
9328,0.01666666753590107,0.10803498891368507,0.10861001232266425,-0.11555822402536868,-1.2434886333741246,-6.935553881183266,-6.8031240173339835,0.994591016039512,0.8193213183044034,3.540140834557323
9345,0.01666666753590107,0.05786299090385437,0.050584524333477016,-0.10951134507656096,-1.2988544006347655,-6.994511097064614,-6.795043586730957,0.9395911311913959,1.61139487757551,3.9216564185740173
9361,0.01666666753590107,-0.09070318423211574,-0.019724106645584105,0.021640753921866415,-1.449838742828369,-7.065139461517334,-6.663062635692953,0.4851435876300984,4.04636329310058,3.970008181482184
9378,0.01666666753590107,-0.08666618380099535,0.01765431463420391,0.0006739537388086318,-1.445349906976521,-7.027581592017412,-6.68431175994873,0.21512409166597118,3.580710877566729,3.203910045068047
9395,0.01666666753590107,-0.034936142694205044,0.025744682109355925,0.0071878656774759285,-1.392677324322611,-7.0186027512699365,-6.678924806213378,-0.49317455607271116,3.345619181429475,2.5077844219363405
9411,0.01666666753590107,0.04589665877819061,0.06948971581161022,0.00836509276330471,-1.305887514141947,-6.97161654368937,-6.682366471099853,-0.5466188653373568,3.9274633600289977,1.498018859995176
9428,0.01666666753590107,0.03870163270756602,0.11938859596848488,-0.056393502873182295,-1.3106759174622595,-6.92044048320353,-6.748954620251059,0.5081538546136367,2.5635448056598555,1.8831245621943586
9445,0.01666666753590107,0.0185359197743237,0.09206570475697518,-0.016989713245630263,-1.3319243110656738,-6.950068728747963,-6.706907038116455,2.86981219559052,1.5221646459282288,2.355052000584747
9461,0.01666666753590107,-0.029639789851754902,0.08743804495632648,-0.0012210662275552748,-1.3833997928895057,-6.9632368378788225,-6.681468060955405,5.171907178219219,1.5544313133410153,2.5786277843379475
9478,0.01666666753590107,-0.0063292030215263365,0.014583821147680281,0.02561374920606613,-1.3628994411744177,-7.043292955890298,-6.646453446197509,3.9497238003077153,1.740085033048659,3.3189080191328477
9495,0.01666666753590107,-0.03355097194612026,-0.04925473703444004,0.0395534272313118,-1.3902831226624548,-7.110330602374672,-6.629095484161376,1.4628455202037258,6.399160264042164,3.542719444412414
9511,0.01666666753590107,-0.03352452233061194,-0.012337503525614737,0.043703532648086546,-1.3850456604003905,-7.072472288623452,-6.627000557708739,0.20139026211194158,3.946708698675978,3.027880275344363
9528,0.01666666753590107,0.11700418504998088,0.06839841344356537,-0.02023497877717018,-1.2352585651673376,-6.991069432178139,-6.691493780407309,0.9112205530915728,2.4481861122295134,3.7614931782922727
9544,0.01666666753590107,0.08872750024497508,0.07469079158604144,-0.06407996572256087,-1.2678795627869666,-6.984934874945878,-6.7342901350826025,1.008341574220923,0.9908367598735323,3.563200406968932
9561,0.01666666753590107,-0.011137626216560602,0.11299743362665175,-0.09375263493061065,-1.372027188873291,-6.947824164691567,-6.761823454174399,1.9508650977220758,3.318831179504685,3.430945106192448
9578,0.01666666753590107,0.02582797647863626,0.17836100941896438,-0.030627777975797653,-1.3361141639709473,-6.887220935168862,-6.693439069256186,4.313322517470997,2.0301196246431417,3.339285675078169
9595,0.01666666753590107,0.05559709179848432,0.1655769311696291,-0.08982698591947555,-1.3111246841430664,-6.908470059424638,-6.742670425415039,6.734050415463414,-0.728724301771179,4.0609619686778355
9625,0.01666666753590107,0.05093801394626498,0.21332301720678806,0.6490004993379116,-1.3221980129517614,-6.866870221057534,-5.995978198131919,-1.4980490622379121,4.599440422463301,4.6548225844615265
9634,0.01666666753590107,-0.1331659230388701,-0.05060205999016761,0.10897884563505648,-1.5055039314270018,-7.120804650115966,-6.546794217571616,-5.784647717529294,9.17774226321906,6.179491561937622
9644,0.01666666753590107,-0.19640198528319597,0.050017538100481033,0.07603811454176902,-1.562815133666992,-7.00992377025187,-6.591835136303305,-2.495261056649711,6.757670063386963,4.146356835662743
9662,0.01666666753590107,-0.07779840221256017,-0.11150924089550972,-0.35865327916145323,-1.4477439625062047,-7.172879705268144,-7.024287811169028,6.142702028633818,-2.4517941596585726,3.0466609476843707
9678,0.01666666753590107,0.09076718937903643,0.16896072838902473,-0.34270635296702384,-1.2954128818787634,-6.9060752732425925,-6.990469712719321,10.024141012714331,-7.086681556366948,3.196334298061445
9706,0.01666666753590107,-0.054608957543969154,-0.009573884031176566,0.046106502136588096,-1.4555251179017126,-7.104644373431801,-6.577171235656738,0.08973134341677806,7.467417645044614,4.068572080073699
9710,0.01666666753590107,-0.05678045636415481,-0.01063245317339897,0.047699324285984036,-1.4555249717712402,-7.104644957953691,-6.577170651134848,-2.042440218688787,8.895426639160336,4.1432943495936385
9730,0.01666666753590107,0.04924392337948084,0.12123393157422542,-0.0005792611926794052,-1.3431471313476562,-6.96488226699829,-6.635230041393637,-4.143029252876477,7.042943586243124,4.0865235247597855
9744,0.01666666753590107,0.022614567390084266,0.004676175117492676,0.06298223361372947,-1.3655929180420934,-7.072472873145341,-6.58210927658081,-4.569796974578622,6.933033035892925,3.98013564447402
9761,0.01666666753590107,-0.11301672284901142,0.02918693151772022,-0.010175941577553749,-1.4917374180115759,-7.034315284186601,-6.6717422012329095,-4.088837251341127,8.625037379166104,3.613430045012029
9778,0.01666666753590107,0.020253391216695307,0.02397416530549526,0.0859247177839279,-1.3503298824585974,-7.031471585193276,-6.585850216674804,-2.959595245673749,6.473532486367141,3.3467064621679765
9794,0.01666666753590107,-0.07879252781644464,-0.06645429363846779,0.037138182783126826,-1.4474446872986853,-7.116615381732583,-6.640616995128989,-2.1396493919471125,4.008310174800323,3.529989679346803
9811,0.01666666753590107,-0.13215733051821588,0.06655833853483199,0.03968494465649128,-1.501014803314209,-6.977601463317871,-6.644357935222983,-2.709169134519582,5.5768268323137855,3.626852647391573
9828,0.01666666753590107,-0.20131474563553928,0.07670739210546017,0.0970879168331623,-1.5656583942689,-6.960992858344316,-6.59467883529663,-2.6312486289207837,7.770279331900381,5.75881508831466
9845,0.01666666753590107,-0.21740327225774525,0.10391747059226035,0.1353033734589815,-1.584213457135111,-6.929120048743486,-6.560860736846924,-0.2012328075752743,2.3785489185466484,5.939844983397617
9861,0.01666666753590107,-0.2332289101600647,0.008622282394766806,0.08797638961672782,-1.6096518497742711,-7.024288980212807,-6.606350568389892,1.7732978951049039,1.8429099024652045,4.818625888684064
9878,0.01666666753590107,-0.33939868972375986,0.13378420106768607,0.22450375191271305,-1.7184380954466758,-6.900837957111,-6.46748628757894,1.346280658054642,5.953322227290521,4.456076886218849
9894,0.01666666753590107,-0.1498689282976091,0.26399638886749743,0.19963117646276948,-1.5251063113890588,-6.771401429858804,-6.492326129803061,1.4796431965286088,6.698530870458408,3.619528550167204
9911,0.01666666753590107,-0.0001356090784072876,0.2142483153581619,0.2344394549936056,-1.372176972607523,-6.82467241679728,-6.45446840057373,2.562550372805384,4.306312608948448,2.3073755726307654
9929,0.01666666753590107,0.02812953141927719,0.2683417245954275,0.18857494491934776,-1.3412019886292517,-6.775441645160317,-6.495768379211426,3.734020449903189,3.799274369686198,1.618090277231121
9946,0.01666666753590107,-0.018030892861634493,0.20530279235839843,0.18930209015011787,-1.3857939945496618,-6.845472628241777,-6.487987223815917,4.722877735577887,2.4765173100199034,1.529993750264356
9961,0.01666666753590107,-0.07218845337629318,0.055957449543476104,0.22112229278087614,-1.4390649814881384,-7.004237541308998,-6.446387385448813,3.224924189266649,2.790522877393369,1.161147099940977
9978,0.01666666753590107,-0.0362016325853765,-0.10582184290885925,0.13385142108500003,-1.4004583335876464,-7.1683905771553516,-6.531681404113769,0.13770496464093446,3.379527442120592,1.1364277915610548
9994,0.01666666753590107,-0.059357905636727805,-0.09034136518239974,0.1192307750582695,-1.420210643414408,-7.15013478949666,-6.549937191772461,-2.5721702673645237,3.871167660229283,2.008364618363005
10011,0.01666666753590107,-0.07261413144245743,-0.052636780688166615,0.09156476949751377,-1.4318822303771972,-7.104794011035561,-6.585999269756674,-2.0195462783645506,3.1008845388446327,3.242197951121023
10028,0.01666666753590107,-0.1562216583251953,-0.026803251251578328,0.06446575016975402,-1.5174749397277831,-7.075614093780517,-6.616226065716147,-0.788926763054435,2.1158434079252677,3.383154699456692
10045,0.01666666753590107,-0.1225887071840465,-0.02108428908288479,0.03098199824094772,-1.4865001018799842,-7.0669356972843405,-6.652288728222251,-1.829903941625031,2.776936777360567,4.121985013156845
10062,0.01666666753590107,-0.09112067899182438,-0.07619009023308754,0.08681319105625152,-1.459714970806986,-7.112875026160478,-6.6051534675598145,-5.00969061231824,3.310896634123246,5.175085777504214
10078,0.01666666753590107,-0.014240268407016992,0.016231003832817077,0.1154880813986063,-1.3859436321534215,-7.00992377025187,-6.5868976799011225,-5.251359353739392,4.723051905401722,5.30306132443545
10096,0.01666666753590107,-0.028369916046410797,0.1577940222084522,0.06085457393527031,-1.4006081173218785,-6.856545810919999,-6.6537856887817375,-3.700672051280602,4.808751142691518,3.8322936385681556
10112,0.01666666753590107,-0.04236059360653162,0.18742460584044454,0.05640343974530697,-1.4133271675109862,-6.8216802492439745,-6.663960461315512,-1.5506857016332039,4.059156237416014,3.0883662961998803
10131,0.01666666753590107,0.07372077751010656,0.15153145468235016,-0.005781506010890006,-1.3002011390686035,-6.855497763171791,-6.727706080517172,0.1183014911064125,0.9660122238917094,2.989985532055486
10144,0.01666666753590107,0.04255465487390756,0.16804419806599616,-0.016373627173900604,-1.3338695999145507,-6.839037626758217,-6.737731799969077,0.2834761692482424,1.6180103426734906,2.8674839548571915
10161,0.01666666753590107,-0.05768164298757911,0.07441723534166812,-0.010021043276786804,-1.434875128582865,-6.93330931712687,-6.730549779510498,0.4427529790417663,2.2541634897979,1.8996916129130477
10178,0.01666666753590107,-0.13760229805111884,0.01883504885137081,-0.05048164848089218,-1.5147816089905797,-6.988375955310463,-6.771550482940674,-0.36577970862305803,2.7601904341761654,1.9867886911051693
10195,0.01666666753590107,-0.10859423023164272,-0.02102174524068832,-0.03112988227903843,-1.4841059002198278,-7.025785940772295,-6.7550903465270995,-1.2317537535991607,4.115024196618956,2.7236198938126246
10211,0.01666666753590107,-0.02744783276543021,0.00961772317290306,0.04954933606684207,-1.3997101455688477,-6.9897226937443016,-6.680719872936606,-1.396448184064974,3.991034918842068,2.708319843184973
10228,0.01666666753590107,0.08283829607591033,0.08397650632560252,0.0288654444783926,-1.2880804931640624,-6.912060777392983,-6.705110802349448,-0.46656483275742905,2.837407430290452,2.3276723335231044
10246,0.01666666753590107,-0.0017383680999279022,0.12713175744116306,-0.03073766809105873,-1.3733739273071288,-6.868666456824541,-6.764816206249594,1.5351699664381677,2.0424639109074705,2.108770960483131
10261,0.01666666753590107,-0.06923004196211695,0.1275572893768549,-0.04505962343215942,-1.441608674621582,-6.871508986774087,-6.775590113720297,3.24801812606752,1.8204225718399953,1.7105554572240496
10278,0.01666666753590107,-0.04770414659157395,0.07130114914774895,0.10251812518835067,-1.4206594100952148,-6.934805693164467,-6.620565556225181,4.993211500285114,1.9471163910847966,1.719451351731168
