msFromStart,interval,accx,accy,accz,accGx,accGy,accGz,rotRate_alpha,rotRate_beta,rotRate_gamma
1698744354008.0,16,0.0,0.0,0.0,-0.2,9.1,2.6,0.4,0.1,0.1
1698744354023.0,16,0.0,0.0,0.0,-0.2,9.1,2.6,0.5,0.1,0.1
1698744354039.0,16,0.0,0.0,0.0,-0.2,9.1,2.6,0.7,0.0,0.1
1698744354056.0,16,0.0,0.0,0.0,-0.2,9.200000000000001,2.6,0.6000000000000001,0.1,0.0
1698744354072.0,16,0.0,0.0,0.0,-0.1,9.1,2.6,0.7,0.1,0.0
1698744354090.0,16,0.0,0.0,0.0,-0.1,9.1,2.6,0.9,0.1,0.1
1698744354106.0,16,0.0,0.0,0.0,-0.1,9.1,2.6,1.0999999999999999,0.1,0.1
1698744354123.0,16,0.0,-0.1,0.0,-0.1,9.1,2.6,1.0,0.4,0.1
1698744354139.0,16,0.0,0.0,0.0,-0.2,9.1,2.6,1.3,0.6000000000000001,0.2
1698744354156.0,16,0.0,0.0,0.0,-0.2,9.1,2.6,1.6,0.5,0.0
1698744354173.0,16,0.0,0.0,0.0,-0.2,9.1,2.6,1.7,0.6000000000000001,0.1
1698744354190.0,16,0.0,0.0,0.0,-0.2,9.1,2.6,2.1,0.30000000000000004,-0.1
1698744354206.0,16,-0.1,0.0,0.0,-0.2,9.1,2.6,2.1,0.2,0.0
1698744354222.0,16,-0.1,0.0,0.0,-0.2,9.200000000000001,2.6,2.1999999999999997,0.1,0.0
1698744354239.0,16,0.0,0.0,0.0,-0.2,9.200000000000001,2.5,1.9,0.0,0.2
1698744354256.0,16,0.0,0.1,0.0,-0.2,9.200000000000001,2.5,1.7,-0.30000000000000004,0.30000000000000004
1698744354273.0,16,0.0,0.0,0.0,-0.2,9.200000000000001,2.5,1.4,-0.5,0.30000000000000004
1698744354289.0,16,0.0,0.1,0.0,-0.2,9.200000000000001,2.5,1.0999999999999999,-0.9,0.30000000000000004
1698744354306.0,16,0.0,0.1,-0.1,-0.2,9.200000000000001,2.5,0.8,-1.0,0.30000000000000004
1698744354323.0,16,0.0,0.1,-0.1,-0.2,9.3,2.4000000000000004,-0.1,-1.0999999999999999,0.2
1698744354339.0,16,0.1,0.1,-0.1,-0.1,9.3,2.4000000000000004,-0.6000000000000001,-1.0,0.0
1698744354355.0,16,0.0,0.0,-0.1,-0.1,9.200000000000001,2.4000000000000004,-0.8,-0.8,0.0
1698744354373.0,16,0.0,0.1,-0.1,-0.2,9.200000000000001,2.4000000000000004,-0.7,-0.6000000000000001,0.0
1698744354389.0,16,0.0,0.0,0.0,-0.2,9.200000000000001,2.5,-0.30000000000000004,-0.2,0.30000000000000004
1698744354406.0,16,0.0,0.0,0.0,-0.2,9.200000000000001,2.5,0.30000000000000004,0.1,0.8
1698744354422.0,16,0.0,0.0,0.0,-0.2,9.200000000000001,2.5,0.30000000000000004,0.30000000000000004,0.8
1698744354439.0,16,0.0,0.0,0.0,-0.2,9.1,2.6,0.7,0.30000000000000004,1.0999999999999999
1698744354456.0,16,0.0,-0.1,0.1,-0.2,9.1,2.6,0.8,0.2,0.9
1698744354474.0,16,0.0,-0.1,0.0,-0.2,9.1,2.6,0.7,-0.2,0.7
1698744354490.0,16,0.0,-0.1,0.1,-0.1,9.1,2.6,0.5,-0.5,0.7
1698744354506.0,16,0.0,-0.1,0.1,-0.1,9.1,2.6,0.30000000000000004,-0.6000000000000001,0.5
1698744354523.0,16,0.0,-0.1,0.1,-0.1,9.1,2.6,0.2,-0.5,0.4
1698744354539.0,16,0.0,0.0,0.0,-0.1,9.1,2.6,0.30000000000000004,-0.5,0.30000000000000004
1698744354555.0,16,0.0,-0.1,0.0,-0.1,9.1,2.5,0.6000000000000001,-0.30000000000000004,0.2
1698744354572.0,16,0.0,0.0,0.0,-0.1,9.1,2.5,0.7,-0.1,0.30000000000000004
1698744354589.0,16,0.0,-0.1,0.0,-0.2,9.1,2.5,1.0,-0.2,0.30000000000000004
1698744354606.0,16,0.0,-0.1,0.0,-0.2,9.1,2.5,1.2000000000000002,-0.2,0.30000000000000004
1698744354622.0,16,0.0,0.0,0.0,-0.2,9.1,2.5,1.6,-0.5,0.4
1698744354639.0,16,0.0,0.0,0.0,-0.2,9.200000000000001,2.5,2.0,-1.0,0.30000000000000004
1698744354656.0,16,-0.1,0.0,0.0,-0.2,9.1,2.5,1.9,-1.2000000000000002,0.2
1698744354673.0,16,0.0,0.0,0.1,-0.2,9.1,2.6,2.1,-1.9,0.0
1698744354690.0,16,0.0,0.0,0.1,-0.2,9.1,2.6,2.3000000000000003,-2.0,0.0
1698744354706.0,16,0.0,0.0,0.0,-0.1,9.200000000000001,2.5,2.3000000000000003,-1.4,0.0
1698744354722.0,16,0.1,0.0,0.0,-0.1,9.200000000000001,2.5,2.0,-1.3,0.0
1698744354739.0,16,0.0,0.0,0.0,-0.1,9.200000000000001,2.5,1.4,-0.30000000000000004,0.1
1698744354756.0,16,0.0,0.0,-0.1,-0.1,9.200000000000001,2.4000000000000004,1.8,-0.2,0.1
1698744354774.0,16,0.0,0.0,-0.1,-0.1,9.200000000000001,2.4000000000000004,2.1,-0.30000000000000004,0.1
1698744354791.0,16,0.0,0.1,-0.1,-0.2,9.3,2.3000000000000003,1.8,-0.30000000000000004,0.1
1698744354805.0,16,0.0,0.2,-0.1,-0.2,9.3,2.3000000000000003,1.0999999999999999,-0.5,0.1
1698744354822.0,16,0.0,0.2,-0.2,-0.2,9.4,2.3000000000000003,0.5,-1.0,0.1
1698744354840.0,16,0.0,0.2,-0.1,-0.2,9.4,2.3000000000000003,0.4,-1.0999999999999999,0.30000000000000004
1698744354856.0,16,0.0,0.2,-0.2,-0.2,9.4,2.3000000000000003,0.5,-1.0,0.4
1698744354872.0,16,0.0,0.2,-0.2,-0.2,9.4,2.3000000000000003,-0.9,-1.0,0.5
1698744354889.0,16,0.0,0.1,-0.2,-0.2,9.4,2.3000000000000003,-1.3,-1.0999999999999999,0.5
1698744354905.0,16,0.0,0.1,-0.1,-0.2,9.3,2.3000000000000003,-2.1,-1.0,0.4
1698744354922.0,16,0.0,0.0,-0.1,-0.2,9.200000000000001,2.3000000000000003,-2.6,-1.2000000000000002,0.4
1698744354940.0,16,0.0,0.0,-0.1,-0.1,9.200000000000001,2.4000000000000004,-2.9,-1.0,0.4
1698744354956.0,16,0.0,0.0,0.0,-0.2,9.200000000000001,2.4000000000000004,-3.1,-0.5,0.6000000000000001
1698744354972.0,16,0.0,0.0,0.0,-0.1,9.200000000000001,2.5,-3.5,-0.30000000000000004,0.6000000000000001
1698744354989.0,16,0.0,0.0,0.1,-0.1,9.200000000000001,2.5,-3.9,-0.30000000000000004,0.7
1698744355006.0,16,0.0,0.0,0.0,-0.1,9.200000000000001,2.5,-4.5,0.30000000000000004,1.0
1698744355024.0,16,0.0,0.0,0.0,-0.1,9.200000000000001,2.5,-4.7,0.6000000000000001,1.2000000000000002
1698744355040.0,16,0.0,0.0,0.0,-0.1,9.200000000000001,2.5,-5.0,1.0999999999999999,1.6
1698744355056.0,16,0.0,0.0,0.0,-0.1,9.200000000000001,2.5,-5.6,1.6,2.0
1698744355072.0,16,0.0,0.0,0.0,-0.1,9.200000000000001,2.5,-6.2,1.6,1.5000000000000002
1698744355089.0,16,0.0,0.0,-0.1,-0.1,9.200000000000001,2.5,-6.4,1.5000000000000002,0.9
1698744355106.0,16,0.0,0.0,-0.1,-0.1,9.200000000000001,2.4000000000000004,-6.1000000000000005,1.9,1.6
1698744355122.0,16,0.1,0.0,-0.1,0.0,9.200000000000001,2.5,-5.9,2.1999999999999997,1.6
1698744355140.0,16,0.0,-0.1,-0.1,-0.1,9.1,2.5,-6.3,2.8,1.6
1698744355156.0,16,0.0,0.2,-0.1,-0.1,9.3,2.5,-6.9,3.1,1.8
1698744355172.0,16,-0.1,0.1,0.0,-0.2,9.3,2.6,-7.500000000000001,3.1,2.0
1698744355189.0,16,-0.1,0.1,0.0,-0.2,9.3,2.6,-8.0,3.0000000000000004,2.1999999999999997
1698744355205.0,16,-0.1,0.1,0.0,-0.1,9.3,2.6,-8.600000000000001,2.7,2.0
1698744355222.0,16,0.0,-0.1,0.1,-0.1,9.1,2.7,-9.200000000000001,2.7,3.4
1698744355239.0,16,0.0,0.1,0.0,-0.1,9.3,2.7,-9.200000000000001,2.1999999999999997,1.9
1698744355256.0,16,-0.1,-0.1,0.0,-0.2,9.1,2.8000000000000003,-9.5,2.3000000000000003,2.3000000000000003
1698744355272.0,16,0.0,0.1,0.0,0.0,9.200000000000001,2.7,-9.700000000000001,2.3000000000000003,2.6
1698744355289.0,16,0.0,0.0,0.0,-0.1,9.200000000000001,2.8000000000000003,-9.600000000000001,1.7,2.4000000000000004
1698744355307.0,16,0.0,0.0,0.1,-0.1,9.1,2.9000000000000004,-9.200000000000001,1.6,2.7
1698744355322.0,16,0.0,-0.2,0.1,-0.1,9.0,2.9000000000000004,-9.3,0.8,2.6
1698744355339.0,16,0.0,-0.1,0.1,-0.1,9.0,2.9000000000000004,-9.1,0.7,2.5
1698744355355.0,16,0.0,-0.2,0.1,0.0,8.9,3.0,-8.9,0.30000000000000004,1.7
1698744355372.0,16,0.1,-0.1,0.1,0.0,8.9,3.0,-8.1,0.5,1.9
1698744355391.0,16,0.0,-0.1,0.1,0.0,8.9,3.0,-7.2,0.5,2.0
1698744355405.0,16,0.1,-0.1,0.0,0.0,8.9,3.0,-6.6000000000000005,0.6000000000000001,2.1999999999999997
1698744355422.0,16,0.0,-0.1,0.1,0.0,8.9,3.1,-6.1000000000000005,0.30000000000000004,2.0
1698744355439.0,16,0.0,-0.1,0.1,0.0,8.9,3.1,-5.4,0.30000000000000004,1.5000000000000002
1698744355455.0,16,0.1,-0.1,0.1,0.1,8.9,3.1,-5.300000000000001,0.1,1.3
1698744355472.0,16,0.0,-0.1,0.1,0.0,8.9,3.1,-4.9,0.30000000000000004,1.0999999999999999
1698744355489.0,16,0.0,-0.1,0.1,0.0,8.9,3.2,-4.0,0.7,0.9
1698744355506.0,16,0.0,-0.1,0.1,0.0,8.9,3.2,-3.7000000000000006,0.8,0.9
1698744355522.0,16,0.0,-0.1,0.1,0.0,8.9,3.2,-3.4,0.6000000000000001,1.0
1698744355539.0,16,0.0,-0.1,0.1,0.0,8.9,3.2,-2.9,0.9,1.4
1698744355556.0,16,0.0,-0.1,0.1,0.0,8.9,3.2,-2.6,1.0,1.5000000000000002
1698744355572.0,16,0.0,-0.1,0.0,0.0,8.9,3.1,-2.7,0.9,0.6000000000000001
1698744355589.0,16,0.0,0.1,0.0,0.0,9.0,3.2,-2.5,1.2000000000000002,0.7
1698744355605.0,16,0.0,0.0,0.0,0.0,9.0,3.1,-2.4000000000000004,0.9,1.0
1698744355622.0,16,-0.1,0.0,0.0,-0.1,8.9,3.2,-2.1,0.8,0.7
1698744355639.0,16,0.0,0.0,0.0,0.0,8.9,3.1,-2.1,0.6000000000000001,0.5
1698744355656.0,16,0.0,0.0,0.0,0.0,8.9,3.1,-2.1,0.5,0.4
1698744355672.0,16,0.0,0.0,0.0,0.0,9.0,3.1,-1.8,0.1,0.2
1698744355690.0,16,0.0,0.0,0.0,0.0,9.0,3.1,-1.7,0.0,0.0
1698744355705.0,16,0.0,0.0,0.0,0.0,9.0,3.2,-1.7,0.1,0.0
1698744355722.0,16,0.0,0.0,0.0,0.0,8.9,3.2,-1.5000000000000002,0.1,-0.1
1698744355739.0,16,0.0,0.0,0.0,0.0,8.9,3.2,-1.0999999999999999,0.5,-0.2
1698744355755.0,16,0.0,0.0,0.0,0.0,8.9,3.1,-1.0,0.30000000000000004,0.0
1698744355772.0,16,0.0,0.0,-0.1,0.0,9.0,3.1,-0.9,0.30000000000000004,-0.1
1698744355789.0,16,0.0,0.0,0.0,0.0,9.0,3.1,-1.3,0.5,-0.4
1698744355805.0,16,0.0,0.0,0.0,0.0,9.0,3.2,-1.0,0.6000000000000001,-0.4
1698744355822.0,16,0.0,0.0,0.0,0.0,9.0,3.2,-0.9,0.7,-0.6000000000000001
1698744355839.0,16,0.0,0.0,0.0,0.0,9.0,3.2,-0.8,0.8,-0.6000000000000001
1698744355856.0,16,0.0,0.0,0.0,0.0,9.0,3.2,-0.9,0.6000000000000001,-0.6000000000000001
1698744355872.0,16,0.0,0.0,0.0,0.0,9.0,3.2,-0.9,0.5,-0.8
1698744355888.0,16,0.0,0.0,0.0,0.0,9.0,3.2,-0.9,0.2,-0.7
1698744355905.0,16,0.0,0.0,0.0,0.0,8.9,3.2,-0.6000000000000001,0.1,-0.8
1698744355922.0,16,0.0,0.0,0.0,0.0,8.9,3.2,-0.4,0.1,-0.8
1698744355938.0,16,0.0,0.0,0.0,0.0,8.9,3.2,-0.30000000000000004,0.4,-0.9
1698744355955.0,16,0.0,0.0,0.0,0.0,9.0,3.2,-0.1,0.30000000000000004,-1.0999999999999999
1698744355972.0,16,0.0,0.0,0.0,0.0,9.0,3.2,-0.30000000000000004,0.30000000000000004,-1.0999999999999999
1698744355989.0,16,0.0,0.0,0.0,0.0,9.0,3.2,-0.5,0.30000000000000004,-1.2000000000000002
1698744356005.0,16,0.0,0.0,0.0,0.0,9.0,3.2,-0.7,0.2,-1.3
1698744356022.0,16,0.0,0.0,0.0,0.0,9.0,3.2,-0.8,0.2,-1.4
1698744356039.0,16,0.0,0.0,0.0,-0.1,9.0,3.2,-0.8,0.2,-1.4
1698744356055.0,16,0.0,0.0,0.0,-0.1,9.0,3.2,-0.9,0.5,-1.3
1698744356072.0,16,0.0,0.0,0.0,-0.1,9.0,3.2,-1.0,0.6000000000000001,-1.3
1698744356089.0,16,0.0,0.1,-0.1,0.0,9.0,3.1,-1.0999999999999999,0.5,-1.0999999999999999
1698744356106.0,16,0.0,0.1,0.0,-0.1,9.0,3.2,-1.0999999999999999,0.6000000000000001,-1.0999999999999999
1698744356122.0,16,0.0,0.1,-0.1,-0.1,9.0,3.1,-1.8,0.6000000000000001,-0.8
1698744356139.0,16,0.0,0.1,-0.1,-0.1,9.1,3.1,-2.7,0.5,-0.9
1698744356156.0,16,0.0,0.1,-0.1,-0.1,9.1,3.1,-3.5,0.6000000000000001,-0.7
1698744356172.0,16,0.0,0.2,-0.1,-0.1,9.200000000000001,3.1,-3.9,0.9,-0.8
1698744356191.0,16,0.0,0.2,0.0,-0.1,9.200000000000001,3.2,-5.4,1.3,-0.30000000000000004
1698744356208.0,16,0.0,0.1,-0.1,-0.1,9.1,3.2,-5.500000000000001,1.2000000000000002,-0.1
1698744356224.0,16,0.0,0.1,-0.1,-0.1,9.1,3.1,-6.000000000000001,1.0999999999999999,-0.5
1698744356239.0,16,0.0,0.1,-0.1,0.0,9.1,3.1,-6.3,1.0,-0.4
1698744356256.0,16,0.0,0.1,-0.1,-0.1,9.1,3.1,-6.3,0.7,-0.5
1698744356274.0,16,0.0,0.2,-0.1,-0.1,9.1,3.2,-6.7,0.9,-0.7
1698744356291.0,16,0.0,0.1,-0.1,-0.1,9.1,3.2,-7.0,0.9,-0.5
1698744356307.0,16,0.0,0.0,-0.1,-0.1,9.0,3.2,-6.9,0.6000000000000001,-0.5
1698744356323.0,16,0.0,0.0,0.0,-0.1,9.0,3.3000000000000003,-7.300000000000001,0.9,-0.4
1698744356339.0,16,0.0,-0.2,0.0,-0.1,8.8,3.4000000000000004,-6.7,0.8,0.0
1698744356355.0,16,0.0,-0.1,0.0,-0.1,8.8,3.4000000000000004,-5.300000000000001,0.1,-0.4
1698744356374.0,16,0.0,-0.1,0.0,-0.1,8.8,3.4000000000000004,-4.7,0.1,-0.4
1698744356389.0,16,0.0,-0.1,0.0,-0.1,8.8,3.4000000000000004,-4.2,0.0,-0.5
1698744356406.0,16,0.0,0.0,0.1,-0.1,8.9,3.5,-4.3999999999999995,0.30000000000000004,-0.4
1698744356422.0,16,0.0,-0.1,0.0,-0.1,8.8,3.5,-4.5,0.8,-0.2
1698744356439.0,16,0.0,0.0,0.1,-0.1,8.9,3.5,-4.7,0.30000000000000004,-0.7
1698744356455.0,16,0.0,0.0,0.1,-0.1,8.9,3.5,-4.9,0.0,-0.4
1698744356472.0,16,-0.1,0.0,0.1,-0.2,8.9,3.5,-5.1,-0.2,-0.30000000000000004
1698744356489.0,16,0.0,0.0,0.0,-0.1,8.8,3.5,-5.8,-0.2,0.0
1698744356507.0,16,0.0,0.0,0.0,-0.1,8.9,3.5,-5.9,0.2,0.4
1698744356522.0,16,0.0,0.0,0.0,-0.1,8.9,3.5,-6.000000000000001,0.2,0.5
1698744356539.0,16,0.0,0.0,0.0,-0.1,8.9,3.5,-6.000000000000001,0.6000000000000001,1.0999999999999999
1698744356555.0,16,0.0,0.0,0.1,-0.1,8.9,3.6,-6.6000000000000005,0.30000000000000004,0.6000000000000001
1698744356572.0,16,0.0,0.0,0.1,-0.1,8.8,3.6,-6.7,0.8,0.8
1698744356590.0,16,0.0,-0.1,0.0,-0.1,8.8,3.6,-6.2,0.9,1.0999999999999999
1698744356607.0,16,0.0,0.0,0.0,-0.1,8.9,3.6,-5.9,1.3,1.4
1698744356622.0,16,-0.1,0.1,0.0,-0.1,8.8,3.6,-5.8,1.3,1.8
1698744356640.0,16,0.0,0.0,0.0,-0.1,8.8,3.7,-5.6,0.9,1.2000000000000002
1698744356656.0,16,0.0,-0.1,0.0,-0.1,8.700000000000001,3.7,-4.9,0.9,0.9
1698744356675.0,16,0.0,-0.1,0.1,-0.1,8.700000000000001,3.7,-4.2,0.8,1.2000000000000002
1698744356689.0,16,0.0,-0.2,0.0,-0.1,8.6,3.7,-4.1000000000000005,0.6000000000000001,1.0
1698744356706.0,16,0.0,-0.1,0.1,-0.1,8.700000000000001,3.8000000000000003,-3.6,0.5,0.9
1698744356723.0,16,0.0,-0.1,0.1,-0.1,8.6,3.8000000000000003,-3.4,0.4,0.9
1698744356739.0,16,0.0,-0.1,0.1,-0.1,8.6,3.8000000000000003,-2.7,0.2,0.7
1698744356755.0,16,0.0,-0.1,0.1,-0.1,8.6,3.8000000000000003,-2.4000000000000004,0.0,0.7
1698744356772.0,16,0.0,-0.1,0.1,-0.1,8.6,3.8000000000000003,-2.0,0.1,0.8
1698744356789.0,16,0.0,-0.1,0.1,-0.1,8.6,3.8000000000000003,-1.8,0.0,0.4
1698744356805.0,16,0.0,-0.1,0.1,-0.1,8.6,3.9000000000000004,-1.7,-0.30000000000000004,0.1
1698744356822.0,16,0.0,-0.1,0.1,-0.1,8.6,3.9000000000000004,-1.3,-0.5,0.0
1698744356839.0,16,0.0,-0.1,0.1,0.0,8.6,3.9000000000000004,-0.6000000000000001,-0.7,-0.4
1698744356856.0,16,0.0,-0.1,0.1,-0.1,8.6,3.8000000000000003,0.1,-1.0,-0.8
1698744356872.0,16,0.0,-0.1,0.1,-0.1,8.6,3.8000000000000003,0.4,-1.0999999999999999,-1.0
1698744356893.0,16,0.0,-0.1,0.0,-0.1,8.6,3.8000000000000003,1.0,-1.6,-1.0999999999999999
1698744356906.0,16,0.0,-0.1,0.0,-0.1,8.6,3.8000000000000003,1.9,-1.8,-1.2000000000000002
1698744356922.0,16,0.0,0.0,0.0,-0.1,8.700000000000001,3.8000000000000003,2.7,-1.9,-1.3
1698744356939.0,16,0.0,0.0,0.0,-0.1,8.700000000000001,3.8000000000000003,2.8,-1.8,-1.4
1698744356955.0,16,0.0,0.1,0.0,-0.1,8.8,3.8000000000000003,2.4000000000000004,-1.6,-1.0999999999999999
1698744356974.0,16,0.0,0.0,0.0,-0.1,8.700000000000001,3.8000000000000003,2.4000000000000004,-1.4,-1.0999999999999999
1698744356989.0,16,0.0,0.0,0.0,-0.1,8.700000000000001,3.7,2.4000000000000004,-1.4,-1.0
1698744357006.0,16,0.0,0.0,0.0,-0.1,8.700000000000001,3.8000000000000003,2.3000000000000003,-1.4,-0.8
1698744357022.0,16,0.0,0.0,0.0,-0.1,8.8,3.7,2.4000000000000004,-1.0,-0.7
1698744357039.0,16,0.0,0.0,0.0,-0.1,8.700000000000001,3.7,2.4000000000000004,-0.6000000000000001,-0.6000000000000001
1698744357056.0,16,0.0,0.0,0.0,-0.1,8.700000000000001,3.7,2.7,-0.30000000000000004,-0.5
1698744357073.0,16,0.0,0.0,0.0,-0.1,8.700000000000001,3.7,2.6,0.30000000000000004,-0.5
1698744357089.0,16,0.0,0.0,0.0,-0.1,8.700000000000001,3.7,2.6,0.8,-0.5
1698744357106.0,16,0.0,0.0,0.0,-0.1,8.8,3.7,3.1,0.8,-0.8
1698744357122.0,16,0.0,0.1,0.0,-0.1,8.8,3.7,3.3000000000000003,0.5,-1.0
1698744357139.0,16,0.0,0.1,-0.1,-0.1,8.8,3.6,3.4,0.2,-1.0999999999999999
1698744357155.0,16,0.0,0.0,-0.1,-0.1,8.8,3.6,3.6,-0.2,-1.3
1698744357172.0,16,0.0,0.1,-0.1,-0.1,8.8,3.6,4.0,-0.4,-1.2000000000000002
1698744357189.0,16,0.0,0.1,-0.1,-0.1,8.8,3.6,4.1000000000000005,-0.2,-1.0
1698744357205.0,16,0.0,0.0,0.0,-0.1,8.8,3.6,4.300000000000001,-0.1,-1.0
1698744357222.0,16,0.0,0.1,0.0,-0.1,8.9,3.6,4.6000000000000005,-0.2,-0.8
1698744357239.0,16,0.0,0.1,0.0,-0.1,8.8,3.6,4.3999999999999995,-0.2,-0.8
1698744357256.0,16,0.0,0.1,0.0,-0.1,8.9,3.5,4.2,0.1,-0.8
1698744357272.0,16,0.0,0.1,0.0,-0.1,8.9,3.5,3.8,0.30000000000000004,-1.0999999999999999
1698744357289.0,16,0.0,0.1,-0.1,-0.1,8.9,3.5,3.5,0.4,-1.3
1698744357306.0,16,0.0,0.1,0.0,-0.1,8.9,3.5,3.4,0.0,-1.4
1698744357322.0,16,0.0,0.1,-0.1,-0.1,8.9,3.5,3.8,-0.2,-1.8
1698744357339.0,16,0.0,0.1,-0.1,-0.1,8.9,3.5,3.5,-0.2,-1.8
1698744357356.0,16,0.0,0.1,-0.1,-0.1,8.9,3.5,3.3000000000000003,-0.30000000000000004,-1.8
1698744357372.0,16,0.0,0.0,-0.1,-0.1,8.9,3.4000000000000004,3.6,-0.30000000000000004,-1.6
1698744357389.0,16,0.0,0.0,-0.1,-0.2,8.9,3.4000000000000004,3.8,-0.30000000000000004,-1.6
1698744357405.0,16,0.0,0.0,0.0,-0.1,8.9,3.4000000000000004,3.9,-0.5,-1.5000000000000002
1698744357422.0,16,0.0,0.0,-0.1,-0.1,8.9,3.4000000000000004,3.6,-0.4,-1.5000000000000002
1698744357439.0,16,0.0,0.0,-0.1,-0.1,8.9,3.4000000000000004,3.6,-0.5,-1.6
1698744357455.0,16,0.0,0.1,0.0,-0.2,9.0,3.4000000000000004,3.2,-0.4,-1.8
1698744357472.0,16,0.0,0.1,-0.1,-0.2,9.0,3.4000000000000004,3.0000000000000004,0.1,-1.8
1698744357490.0,16,0.0,0.1,-0.1,-0.2,9.0,3.4000000000000004,2.9,0.2,-1.7
1698744357506.0,16,0.0,0.1,0.0,-0.2,9.0,3.4000000000000004,2.6,0.1,-1.6
1698744357522.0,16,0.0,0.0,0.0,-0.2,8.9,3.4000000000000004,2.4000000000000004,0.4,-1.3
1698744357540.0,16,0.0,0.0,0.0,-0.2,8.9,3.4000000000000004,2.4000000000000004,0.5,-1.2000000000000002
1698744357557.0,16,0.0,0.0,0.0,-0.2,8.9,3.4000000000000004,2.5,0.6000000000000001,-1.0
1698744357572.0,16,0.0,0.0,0.0,-0.2,8.9,3.3000000000000003,2.6,0.6000000000000001,-0.7
1698744357589.0,16,0.0,0.0,0.0,-0.2,8.9,3.3000000000000003,2.7,0.6000000000000001,-0.6000000000000001
1698744357605.0,16,0.0,0.0,0.0,-0.2,8.9,3.3000000000000003,2.5,0.6000000000000001,-0.4
1698744357622.0,16,-0.1,0.0,0.0,-0.30000000000000004,8.9,3.3000000000000003,2.1,0.5,-0.30000000000000004
1698744357639.0,16,-0.1,0.0,-0.1,-0.30000000000000004,8.9,3.3000000000000003,2.0,0.2,-0.30000000000000004
1698744357656.0,16,-0.1,0.0,0.0,-0.30000000000000004,9.0,3.3000000000000003,2.0,0.0,-0.2
1698744357672.0,16,0.0,0.0,0.0,-0.2,8.9,3.3000000000000003,1.8,-0.2,-0.30000000000000004
1698744357689.0,16,0.0,0.0,0.0,-0.2,8.9,3.3000000000000003,1.6,-0.30000000000000004,-0.2
1698744357706.0,16,0.0,0.0,0.0,-0.2,8.9,3.3000000000000003,1.6,-0.5,-0.30000000000000004
1698744357722.0,16,0.0,0.0,0.0,-0.2,8.9,3.3000000000000003,1.9,-0.30000000000000004,-0.1
1698744357739.0,16,0.0,0.0,0.0,-0.2,8.9,3.3000000000000003,1.9,-0.2,0.0
1698744357756.0,16,0.0,0.0,0.0,-0.2,9.0,3.3000000000000003,1.6,-0.30000000000000004,0.1
1698744357772.0,16,0.0,0.0,0.0,-0.2,9.0,3.3000000000000003,1.3,-0.30000000000000004,0.2
1698744357789.0,16,0.0,0.0,0.0,-0.2,9.0,3.3000000000000003,1.3,-0.5,0.1
1698744357805.0,16,0.0,0.0,0.0,-0.2,8.9,3.3000000000000003,1.3,-0.4,0.1
1698744357822.0,16,0.0,0.0,0.0,-0.2,8.9,3.3000000000000003,1.3,-0.30000000000000004,0.2
1698744357839.0,16,0.0,0.0,0.0,-0.2,8.9,3.3000000000000003,1.0999999999999999,-0.2,0.2
1698744357855.0,16,0.0,0.0,0.0,-0.2,8.9,3.3000000000000003,1.0,0.5,0.4
1698744357872.0,16,0.0,0.0,0.0,-0.2,9.0,3.3000000000000003,1.0999999999999999,0.1,0.5
1698744357889.0,16,0.0,0.0,0.0,-0.2,9.0,3.3000000000000003,1.2000000000000002,0.0,0.5
1698744357906.0,16,0.0,0.0,0.0,-0.2,8.9,3.3000000000000003,1.0999999999999999,0.0,0.4
1698744357923.0,16,0.0,0.0,0.0,-0.2,9.0,3.3000000000000003,0.9,0.1,0.4
1698744357939.0,16,0.0,0.0,0.0,-0.2,9.0,3.2,0.8,0.1,0.30000000000000004
1698744357956.0,16,0.0,0.0,0.0,-0.2,9.0,3.3000000000000003,0.9,0.1,0.30000000000000004
1698744357974.0,16,0.0,0.0,0.0,-0.2,9.0,3.2,0.8,0.30000000000000004,0.4
1698744357989.0,16,0.0,0.0,0.0,-0.2,9.0,3.2,0.8,0.30000000000000004,0.30000000000000004
1698744358007.0,16,0.0,0.0,0.0,-0.2,9.0,3.2,0.7,0.30000000000000004,0.30000000000000004
1698744358023.0,16,0.0,0.0,0.0,-0.2,8.9,3.2,0.5,0.30000000000000004,0.4
1698744358039.0,16,0.0,0.0,0.0,-0.2,8.9,3.3000000000000003,0.7,0.1,0.4
1698744358056.0,16,0.0,0.0,0.0,-0.2,9.0,3.2,0.7,0.1,0.4
1698744358072.0,16,0.0,0.0,0.0,-0.2,8.9,3.2,0.6000000000000001,0.1,0.4
1698744358089.0,16,0.0,0.0,0.0,-0.2,9.0,3.2,0.5,0.0,0.7
1698744358105.0,16,0.0,0.0,0.0,-0.2,9.0,3.2,0.30000000000000004,0.0,0.6000000000000001
1698744358122.0,16,0.0,0.0,0.0,-0.2,9.0,3.2,0.4,-0.2,0.6000000000000001
1698744358139.0,16,0.0,0.0,0.0,-0.2,9.0,3.2,0.5,-0.2,0.7
1698744358155.0,16,0.0,0.0,0.0,-0.2,9.0,3.2,0.5,-0.2,0.7
1698744358173.0,16,0.0,0.0,0.0,-0.2,9.0,3.2,0.30000000000000004,-0.30000000000000004,0.7
1698744358189.0,16,0.0,0.0,-0.1,-0.2,9.0,3.2,0.0,-0.30000000000000004,0.6000000000000001
1698744358206.0,16,0.0,0.0,0.0,-0.2,9.0,3.2,-0.1,-0.30000000000000004,0.6000000000000001
1698744358222.0,16,0.0,0.0,0.0,-0.2,9.0,3.2,-0.1,-0.2,0.5
1698744358239.0,16,0.0,0.0,0.0,-0.2,9.0,3.2,-0.2,-0.1,0.4
1698744358255.0,16,0.0,0.0,0.0,-0.2,9.0,3.2,-0.2,-0.30000000000000004,0.4
1698744358273.0,16,0.0,0.0,0.0,-0.2,9.0,3.2,-0.1,-0.1,0.4
1698744358292.0,16,0.0,0.0,0.0,-0.1,9.0,3.2,-0.1,0.0,0.4
1698744358306.0,16,0.0,0.0,0.0,-0.1,9.0,3.2,-0.1,0.0,0.4
1698744358323.0,16,0.0,0.0,0.0,-0.2,9.0,3.2,-0.4,0.1,0.4
1698744358339.0,16,0.0,0.0,0.0,-0.2,9.0,3.2,-0.7,0.2,0.30000000000000004
1698744358355.0,16,0.0,0.0,0.0,-0.2,9.0,3.2,-0.8,0.5,0.30000000000000004
1698744358372.0,16,0.0,0.0,0.0,-0.2,9.0,3.2,-0.7,0.30000000000000004,0.4
1698744358389.0,16,0.0,0.0,0.0,-0.2,9.0,3.2,-0.6000000000000001,0.30000000000000004,0.30000000000000004
1698744358406.0,16,0.0,0.0,0.0,-0.2,8.9,3.2,-0.6000000000000001,0.2,0.4
1698744358422.0,16,0.0,0.0,0.0,-0.2,8.9,3.2,-0.5,0.0,0.30000000000000004
1698744358439.0,16,0.0,0.0,0.0,-0.2,8.9,3.3000000000000003,-0.4,-0.2,0.30000000000000004
1698744358456.0,16,0.0,0.0,0.0,-0.2,8.9,3.3000000000000003,-0.4,-0.2,0.30000000000000004
1698744358472.0,16,0.0,0.0,0.0,-0.2,9.0,3.3000000000000003,-0.4,-0.30000000000000004,0.2
1698744358489.0,16,0.0,0.0,0.0,-0.2,8.9,3.2,-0.4,-0.2,0.30000000000000004
1698744358505.0,16,0.0,0.0,0.0,-0.2,8.9,3.3000000000000003,-0.30000000000000004,-0.2,0.30000000000000004
1698744358522.0,16,0.0,0.0,0.0,-0.2,9.0,3.3000000000000003,-0.30000000000000004,-0.30000000000000004,0.30000000000000004
1698744358539.0,16,0.0,0.0,0.0,-0.2,9.0,3.2,-0.6000000000000001,-0.30000000000000004,0.1
1698744358571.0,16,0.0,0.0,0.0,-0.2,8.9,3.3000000000000003,-0.8,-0.2,0.1
1698744358572.0,16,0.0,0.0,0.0,-0.2,8.9,3.3000000000000003,-0.8,-0.2,0.1
1698744358589.0,16,0.0,0.0,0.0,-0.2,8.9,3.2,-0.4,-0.2,0.0
1698744358605.0,16,0.0,0.0,0.0,-0.2,8.9,3.2,-0.4,-0.2,0.0
1698744358622.0,16,0.0,0.0,0.0,-0.1,8.9,3.3000000000000003,-0.4,0.1,0.1
1698744358639.0,16,0.0,0.0,0.0,-0.2,8.9,3.3000000000000003,-0.1,0.5,0.2
1698744358656.0,16,0.0,0.0,0.0,-0.2,9.0,3.2,0.0,0.30000000000000004,0.1
1698744358673.0,16,0.0,0.0,0.0,-0.2,9.0,3.2,-0.2,0.1,0.1
1698744358690.0,16,0.0,0.0,0.0,-0.1,8.9,3.3000000000000003,-0.4,0.2,-0.2
1698744358705.0,16,0.0,0.0,0.0,-0.2,8.9,3.3000000000000003,-0.30000000000000004,0.1,0.0
1698744358722.0,16,0.0,0.0,0.0,-0.2,8.9,3.3000000000000003,-0.30000000000000004,0.30000000000000004,0.0
1698744358739.0,16,0.0,0.0,0.0,-0.2,8.9,3.3000000000000003,0.1,0.2,0.0
1698744358755.0,16,0.0,0.0,0.0,-0.2,8.9,3.3000000000000003,0.1,0.0,0.1
1698744358772.0,16,0.0,0.0,0.0,-0.2,8.9,3.3000000000000003,0.0,0.1,0.1
1698744358789.0,16,0.0,0.0,0.0,-0.2,8.9,3.3000000000000003,-0.1,0.1,-0.1
1698744358807.0,16,0.0,0.0,0.0,-0.2,8.9,3.3000000000000003,-0.2,0.0,0.0
1698744358822.0,16,0.0,0.0,0.0,-0.2,8.9,3.3000000000000003,-0.2,-0.2,-0.1
1698744358839.0,16,0.0,0.0,0.0,-0.2,9.0,3.3000000000000003,0.0,0.1,0.0
1698744358855.0,16,0.0,0.0,0.0,-0.2,8.9,3.3000000000000003,0.0,0.0,0.0
1698744358872.0,16,0.0,0.0,0.0,-0.2,8.9,3.2,0.0,-0.1,0.0
1698744358890.0,16,0.0,0.0,0.0,-0.2,8.9,3.3000000000000003,-0.1,0.1,0.0
1698744358906.0,16,0.0,0.0,0.0,-0.2,8.9,3.3000000000000003,0.0,0.1,0.0
1698744358922.0,16,0.0,0.0,0.0,-0.2,9.0,3.3000000000000003,0.4,0.2,0.1
1698744358939.0,16,0.0,0.0,0.0,-0.2,8.9,3.3000000000000003,0.30000000000000004,0.1,0.2
1698744358955.0,16,0.0,0.0,0.0,-0.2,9.0,3.3000000000000003,0.2,0.0,0.1
1698744358972.0,16,0.0,0.0,0.0,-0.2,9.0,3.3000000000000003,0.2,-0.1,0.1
1698744358990.0,16,0.0,0.0,0.0,-0.2,9.0,3.3000000000000003,0.2,-0.1,0.0
1698744359005.0,16,0.0,0.0,0.0,-0.2,9.0,3.3000000000000003,0.0,-0.2,0.0
1698744359022.0,16,0.0,0.0,0.0,-0.2,8.9,3.2,0.0,0.0,0.0
1698744359039.0,16,0.0,0.0,0.0,-0.2,8.9,3.2,0.0,0.1,0.0
1698744359055.0,16,0.0,0.0,0.0,-0.2,8.9,3.2,0.1,0.0,0.0
1698744359072.0,16,0.0,0.0,0.0,-0.2,8.9,3.3000000000000003,0.2,0.0,0.0
1698744359089.0,16,0.0,0.0,0.0,-0.2,9.0,3.2,0.2,0.1,0.1
1698744359105.0,16,0.0,0.0,0.0,-0.2,9.0,3.3000000000000003,0.1,0.0,0.0
1698744359122.0,16,0.0,0.0,0.0,-0.2,9.0,3.2,0.0,0.0,0.0
1698744359139.0,16,0.0,0.0,0.0,-0.2,9.0,3.3000000000000003,0.0,0.1,0.2
1698744359155.0,16,0.0,0.0,0.0,-0.2,8.9,3.2,-0.1,0.1,0.1
1698744359172.0,16,0.0,0.0,0.0,-0.2,9.0,3.2,-0.1,0.1,0.0
1698744359189.0,16,0.0,0.0,0.0,-0.2,9.0,3.3000000000000003,-0.1,0.1,0.0
1698744359205.0,16,0.0,0.0,0.0,-0.2,9.0,3.2,-0.1,0.1,0.1
1698744359222.0,16,0.0,0.0,0.0,-0.2,9.0,3.2,-0.1,0.0,0.0
1698744359240.0,16,0.0,0.0,0.0,-0.2,8.9,3.2,0.0,0.1,0.0
1698744359255.0,16,0.0,0.0,0.0,-0.2,9.0,3.3000000000000003,-0.2,-0.1,0.0
1698744359272.0,16,0.0,0.0,0.0,-0.2,8.9,3.3000000000000003,-0.2,0.0,0.0
1698744359289.0,16,0.0,0.0,0.0,-0.2,9.0,3.3000000000000003,0.0,0.0,0.1
1698744359306.0,16,0.0,0.0,0.0,-0.2,8.9,3.3000000000000003,0.0,0.1,0.2
1698744359322.0,16,0.0,0.0,0.0,-0.2,9.0,3.2,-0.1,-0.1,0.30000000000000004
1698744359339.0,16,0.0,0.0,0.0,-0.2,9.0,3.3000000000000003,-0.1,-0.2,0.1
1698744359357.0,16,0.0,0.0,0.0,-0.2,9.0,3.3000000000000003,-0.4,-0.2,0.1
1698744359372.0,16,0.0,0.0,0.0,-0.2,9.0,3.2,-0.5,-0.1,0.0
1698744359389.0,16,0.0,0.0,0.0,-0.2,8.9,3.2,-0.30000000000000004,0.0,0.0
1698744359406.0,16,0.0,0.0,-0.1,-0.2,9.0,3.1,-0.9,-0.2,0.0
1698744359423.0,16,0.0,0.1,-0.1,-0.1,9.0,3.2,-1.0999999999999999,0.4,0.0
1698744359439.0,16,0.0,0.0,0.0,-0.2,8.9,3.3000000000000003,0.7,1.7,-0.30000000000000004
1698744359456.0,16,0.1,0.0,0.0,-0.1,8.9,3.3000000000000003,2.7,1.8,0.8
1698744359472.0,16,0.0,-0.1,0.0,-0.2,8.9,3.3000000000000003,3.9,-0.2,0.7
1698744359489.0,16,-0.1,-0.1,0.1,-0.2,8.9,3.3000000000000003,4.6000000000000005,-1.0,0.30000000000000004
1698744359505.0,16,0.0,0.0,0.1,-0.2,8.9,3.3000000000000003,5.500000000000001,-1.4,-0.5
1698744359524.0,16,0.0,0.0,0.1,-0.2,8.9,3.3000000000000003,4.6000000000000005,-0.9,-0.7
1698744359539.0,16,0.0,-0.1,0.1,-0.2,8.9,3.3000000000000003,3.9,-0.5,-0.5
1698744359555.0,16,-0.1,-0.1,0.1,-0.30000000000000004,8.8,3.3000000000000003,3.9,-0.4,0.1
1698744359573.0,16,-0.1,-0.2,0.1,-0.30000000000000004,8.8,3.3000000000000003,3.8,-1.0999999999999999,0.6000000000000001
1698744359589.0,16,-0.1,-0.2,0.1,-0.30000000000000004,8.8,3.3000000000000003,3.5,-1.6,0.7
1698744359606.0,16,0.0,-0.1,0.1,-0.2,8.8,3.2,3.4,-2.4000000000000004,0.9
1698744359623.0,16,0.0,-0.1,0.0,-0.2,8.8,3.2,3.8,-2.5,0.7
1698744359639.0,16,0.0,0.0,0.0,-0.1,8.9,3.1,5.2,-1.7,0.4
1698744359656.0,16,0.1,0.0,-0.1,-0.1,9.0,3.1,5.4,-1.3,0.4
1698744359672.0,16,0.1,0.1,-0.1,0.0,9.0,3.0,5.8,-0.8,0.4
1698744359689.0,16,0.1,0.1,-0.1,-0.1,9.0,3.0,6.1000000000000005,0.1,0.4
1698744359705.0,16,0.1,0.0,-0.1,-0.1,9.0,3.0,6.5,0.2,0.5
1698744359722.0,16,0.0,0.0,-0.1,-0.1,9.0,3.0,7.1000000000000005,0.30000000000000004,0.6000000000000001
1698744359739.0,16,0.0,0.0,-0.1,-0.1,9.0,3.0,7.500000000000001,0.1,0.2
1698744359755.0,16,0.0,0.0,-0.1,-0.1,9.0,3.0,7.400000000000001,-0.2,0.2
1698744359772.0,16,0.0,0.0,0.0,-0.2,9.0,3.0,6.9,-0.30000000000000004,0.0
1698744359789.0,16,-0.1,0.1,0.0,-0.2,9.1,3.0,6.6000000000000005,-0.4,-0.1
1698744359806.0,16,-0.1,0.1,0.0,-0.2,9.1,3.0,6.5,-0.8,0.0
1698744359822.0,16,-0.1,0.1,0.0,-0.30000000000000004,9.1,2.9000000000000004,6.1000000000000005,-1.2000000000000002,0.1
1698744359839.0,16,-0.1,0.1,0.0,-0.30000000000000004,9.1,2.9000000000000004,5.8,-1.3,0.30000000000000004
1698744359855.0,16,-0.1,0.1,0.0,-0.30000000000000004,9.200000000000001,2.9000000000000004,4.9,-1.6,0.30000000000000004
1698744359872.0,16,0.0,0.1,0.0,-0.2,9.1,2.9000000000000004,4.6000000000000005,-1.7,0.5
1698744359889.0,16,0.0,0.0,0.0,-0.1,9.1,2.9000000000000004,4.300000000000001,-1.7,0.30000000000000004
1698744359906.0,16,0.1,0.0,0.0,-0.1,9.0,2.9000000000000004,4.1000000000000005,-1.6,0.4
1698744359922.0,16,0.1,0.0,-0.1,-0.1,9.0,2.8000000000000003,4.1000000000000005,-1.6,0.2
1698744359939.0,16,0.1,0.0,-0.1,-0.1,9.0,2.8000000000000003,4.3999999999999995,-1.4,0.1
1698744359955.0,16,0.1,0.0,0.0,-0.1,9.0,2.8000000000000003,4.7,-1.0999999999999999,0.1
1698744359972.0,16,0.1,0.0,0.0,-0.1,9.1,2.8000000000000003,4.7,-1.0,-0.6000000000000001
1698744359989.0,16,0.1,0.0,0.0,-0.1,9.1,2.8000000000000003,4.9,-0.9,-0.4
1698744360005.0,16,0.1,0.0,0.0,-0.1,9.1,2.8000000000000003,5.2,-0.7,-0.30000000000000004
1698744360022.0,16,0.1,0.0,0.0,-0.1,9.1,2.8000000000000003,5.2,-0.30000000000000004,-0.5
1698744360039.0,16,0.0,0.0,0.0,-0.1,9.1,2.8000000000000003,4.800000000000001,-0.30000000000000004,-0.7
1698744360056.0,16,0.0,0.1,0.0,-0.1,9.1,2.8000000000000003,4.9,-0.2,-0.4
1698744360072.0,16,0.0,0.0,0.0,-0.1,9.1,2.8000000000000003,5.0,-0.2,-0.6000000000000001
1698744360088.0,16,0.0,0.0,0.0,-0.1,9.1,2.7,5.0,-0.2,-0.8
1698744360105.0,16,0.0,0.0,0.0,-0.1,9.1,2.7,5.0,0.0,-1.0
1698744360122.0,16,0.0,0.0,0.0,-0.2,9.1,2.7,5.0,0.1,-0.9
1698744360139.0,16,0.0,0.0,0.0,-0.1,9.1,2.7,5.2,0.1,-0.8
1698744360156.0,16,0.0,0.0,0.0,-0.2,9.200000000000001,2.7,5.1,0.0,-0.7
1698744360172.0,16,-0.1,0.0,-0.1,-0.2,9.200000000000001,2.6,4.9,-0.1,-0.8
1698744360189.0,16,0.0,0.0,0.0,-0.2,9.200000000000001,2.6,4.3999999999999995,-0.5,-0.7
1698744360206.0,16,0.0,0.1,-0.1,-0.2,9.200000000000001,2.6,4.5,-0.2,-0.6000000000000001
1698744360222.0,16,0.0,0.0,0.0,-0.2,9.1,2.6,4.7,0.0,-0.8
1698744360238.0,16,0.0,0.0,0.0,-0.1,9.1,2.6,4.6000000000000005,-0.30000000000000004,-0.9
1698744360255.0,16,0.0,0.0,0.0,-0.2,9.200000000000001,2.6,4.3999999999999995,-0.2,-0.8
1698744360272.0,16,0.0,0.0,-0.1,-0.2,9.200000000000001,2.5,4.1000000000000005,0.1,-0.6000000000000001
1698744360289.0,16,0.0,0.1,-0.1,-0.2,9.3,2.5,4.2,0.0,-0.5
1698744360306.0,16,0.0,0.1,-0.1,-0.2,9.3,2.5,4.1000000000000005,-0.2,-0.5
1698744360323.0,16,0.0,0.1,-0.1,-0.2,9.3,2.5,3.8,-0.6000000000000001,-0.6000000000000001
1698744360339.0,16,0.0,0.0,-0.1,-0.2,9.200000000000001,2.5,3.5,-0.8,-0.5
1698744360355.0,16,0.0,0.0,0.0,-0.2,9.200000000000001,2.5,3.0000000000000004,-1.0,-0.4
1698744360374.0,16,0.0,0.0,-0.1,-0.2,9.200000000000001,2.5,2.9,-0.9,-0.4
1698744360390.0,16,0.0,0.0,0.0,-0.2,9.200000000000001,2.4000000000000004,2.6,-0.8,-0.4
1698744360406.0,16,0.0,0.0,-0.1,-0.2,9.200000000000001,2.4000000000000004,2.7,-0.9,-0.4
1698744360422.0,16,0.0,0.0,-0.1,-0.2,9.200000000000001,2.4000000000000004,2.7,-1.0,-0.4
1698744360439.0,16,0.0,0.0,-0.1,-0.2,9.200000000000001,2.4000000000000004,2.1999999999999997,-1.0999999999999999,-0.2
1698744360455.0,16,0.0,0.0,0.0,-0.2,9.200000000000001,2.4000000000000004,2.1,-1.0999999999999999,-0.2
1698744360473.0,16,0.0,0.0,-0.1,-0.2,9.200000000000001,2.4000000000000004,2.0,-1.0999999999999999,-0.1
1698744360489.0,16,0.0,0.0,-0.1,-0.2,9.200000000000001,2.4000000000000004,1.9,-0.9,0.0
1698744360506.0,16,0.0,0.0,-0.1,-0.2,9.200000000000001,2.4000000000000004,1.6,-0.9,0.0
1698744360522.0,16,0.0,0.0,0.0,-0.1,9.3,2.4000000000000004,1.4,-0.5,0.1
1698744360538.0,16,0.0,0.0,0.0,-0.1,9.200000000000001,2.4000000000000004,1.4,-0.4,0.1
1698744360555.0,16,0.0,0.0,0.0,-0.1,9.200000000000001,2.4000000000000004,1.5000000000000002,0.0,0.2
1698744360572.0,16,0.0,0.0,0.0,-0.1,9.200000000000001,2.4000000000000004,1.3,0.1,0.0
1698744360589.0,16,0.0,0.0,0.0,-0.1,9.200000000000001,2.4000000000000004,1.2000000000000002,0.1,0.0
1698744360605.0,16,0.0,0.0,0.0,-0.2,9.200000000000001,2.4000000000000004,1.0,0.2,0.0
1698744360622.0,16,0.0,0.0,0.0,-0.2,9.200000000000001,2.4000000000000004,0.8,0.0,0.0
1698744360639.0,16,0.0,0.0,0.0,-0.2,9.200000000000001,2.4000000000000004,0.7,0.1,-0.1
1698744360655.0,16,0.0,0.0,0.0,-0.2,9.200000000000001,2.4000000000000004,0.5,0.2,0.0
1698744360672.0,16,0.0,0.0,0.0,-0.2,9.200000000000001,2.4000000000000004,0.30000000000000004,0.2,0.0
1698744360689.0,16,0.0,0.0,0.0,-0.2,9.200000000000001,2.4000000000000004,0.2,0.2,0.2
1698744360705.0,16,0.0,0.0,0.0,-0.2,9.200000000000001,2.4000000000000004,0.1,0.1,0.30000000000000004
1698744360722.0,16,0.0,0.0,0.0,-0.2,9.200000000000001,2.4000000000000004,0.0,0.1,0.4
1698744360739.0,16,0.0,0.0,0.0,-0.2,9.200000000000001,2.4000000000000004,0.0,-0.2,0.30000000000000004
1698744360755.0,16,0.0,0.0,0.0,-0.2,9.200000000000001,2.4000000000000004,-0.1,-0.1,0.30000000000000004
1698744360772.0,16,0.0,0.0,0.0,-0.2,9.200000000000001,2.4000000000000004,-0.30000000000000004,-0.1,0.30000000000000004
1698744360789.0,16,0.0,0.0,0.0,-0.2,9.200000000000001,2.4000000000000004,-0.30000000000000004,-0.2,0.2
1698744360806.0,16,0.0,0.0,0.0,-0.2,9.200000000000001,2.4000000000000004,-0.30000000000000004,0.0,0.1
1698744360822.0,16,0.0,0.0,0.0,-0.1,9.200000000000001,2.4000000000000004,-0.2,-0.1,0.30000000000000004
1698744360839.0,16,0.0,0.0,0.0,-0.2,9.200000000000001,2.4000000000000004,-0.4,-0.1,0.30000000000000004
1698744360855.0,16,0.0,0.0,0.0,-0.2,9.200000000000001,2.4000000000000004,-0.6000000000000001,0.0,0.2
1698744360872.0,16,0.0,0.0,0.0,-0.1,9.200000000000001,2.4000000000000004,-0.6000000000000001,-0.1,0.30000000000000004
1698744360889.0,16,0.0,0.0,0.0,-0.2,9.200000000000001,2.4000000000000004,-0.5,-0.2,0.1
1698744360906.0,16,0.0,0.0,0.0,-0.1,9.200000000000001,2.4000000000000004,-0.4,-0.1,0.1
1698744360922.0,16,0.0,0.0,0.0,-0.1,9.200000000000001,2.4000000000000004,-0.8,0.0,0.2
1698744360939.0,16,0.0,0.0,0.0,-0.1,9.200000000000001,2.4000000000000004,-0.6000000000000001,-0.1,0.1
1698744360955.0,16,0.0,0.0,0.0,-0.2,9.200000000000001,2.4000000000000004,-0.4,0.0,0.0
1698744360972.0,16,0.0,0.0,0.0,-0.2,9.200000000000001,2.4000000000000004,-0.6000000000000001,0.2,0.0
1698744360989.0,16,0.0,0.0,-0.1,-0.2,9.200000000000001,2.4000000000000004,-0.8,-0.2,0.0
1698744361006.0,16,0.0,0.0,0.0,-0.2,9.200000000000001,2.4000000000000004,-1.0,-0.5,0.0
1698744361022.0,16,0.0,0.0,0.0,-0.2,9.200000000000001,2.4000000000000004,-0.8,0.1,-0.1
1698744361039.0,16,0.0,-0.1,0.0,-0.2,9.200000000000001,2.4000000000000004,-0.6000000000000001,0.30000000000000004,0.0
1698744361055.0,16,0.0,0.0,0.0,-0.2,9.200000000000001,2.4000000000000004,-0.9,0.1,0.0
1698744361073.0,16,0.0,0.0,0.0,-0.2,9.200000000000001,2.4000000000000004,-1.0999999999999999,0.30000000000000004,0.1
1698744361090.0,16,0.0,0.0,0.0,-0.2,9.200000000000001,2.4000000000000004,-1.0,0.30000000000000004,0.1
1698744361105.0,16,0.0,0.0,0.0,-0.2,9.200000000000001,2.4000000000000004,-0.8,0.1,0.0
1698744361122.0,16,0.0,0.0,0.0,-0.2,9.200000000000001,2.4000000000000004,-0.8,0.1,0.0
1698744361139.0,16,0.0,0.0,0.0,-0.2,9.200000000000001,2.4000000000000004,-0.9,0.0,0.0
1698744361155.0,16,0.0,0.0,0.0,-0.2,9.200000000000001,2.5,-0.9,-0.30000000000000004,0.0
1698744361173.0,16,0.0,0.0,0.0,-0.2,9.200000000000001,2.5,-0.9,-0.30000000000000004,0.0
1698744361189.0,16,0.0,0.0,0.0,-0.2,9.200000000000001,2.5,-1.0999999999999999,-0.2,0.1
1698744361205.0,16,0.0,0.0,0.0,-0.2,9.200000000000001,2.5,-1.0999999999999999,-0.1,0.1
1698744361222.0,16,0.0,0.0,0.0,-0.2,9.200000000000001,2.5,-1.2000000000000002,-0.1,0.1
1698744361239.0,16,0.0,0.0,0.0,-0.2,9.200000000000001,2.4000000000000004,-1.4,0.1,0.2
1698744361255.0,16,0.0,0.0,0.0,-0.2,9.200000000000001,2.4000000000000004,-1.7,0.0,0.1
1698744361272.0,16,0.0,0.0,0.0,-0.2,9.200000000000001,2.4000000000000004,-1.9,0.1,0.1
1698744361289.0,16,0.0,0.0,0.0,-0.2,9.200000000000001,2.4000000000000004,-2.1,0.30000000000000004,0.1
1698744361305.0,16,0.0,0.1,0.0,-0.1,9.3,2.4000000000000004,-2.6,0.1,-0.1
1698744361322.0,16,0.0,0.1,0.0,-0.1,9.200000000000001,2.5,-3.2,0.30000000000000004,0.0
1698744361339.0,16,0.0,0.0,-0.1,-0.2,9.200000000000001,2.4000000000000004,-3.3000000000000003,0.4,0.1
1698744361356.0,16,0.0,0.0,-0.1,-0.2,9.200000000000001,2.4000000000000004,-3.6,0.8,0.1
1698744361372.0,16,0.0,0.1,-0.1,-0.1,9.3,2.4000000000000004,-5.2,1.4,0.0
1698744361389.0,16,0.1,0.2,0.0,-0.1,9.4,2.5,-6.5,1.4,0.0
1698744361406.0,16,0.0,0.30000000000000004,0.0,-0.1,9.5,2.5,-8.700000000000001,1.0999999999999999,0.1
1698744361423.0,16,-0.1,0.1,0.0,-0.30000000000000004,9.3,2.5,-9.600000000000001,0.2,0.0
1698744361440.0,16,-0.1,0.0,-0.1,-0.30000000000000004,9.3,2.5,-9.600000000000001,-0.5,-0.1
1698744361456.0,16,-0.1,0.1,-0.1,-0.2,9.3,2.5,-9.700000000000001,-2.0,-0.5
1698744361474.0,16,0.0,0.0,-0.2,-0.2,9.200000000000001,2.5,-9.8,-2.1,-0.7
1698744361489.0,16,0.0,0.0,-0.2,-0.2,9.200000000000001,2.4000000000000004,-9.700000000000001,-1.5000000000000002,-0.5
1698744361506.0,16,0.1,0.2,-0.30000000000000004,-0.1,9.4,2.3000000000000003,-10.2,-2.5,-0.2
1698744361522.0,16,0.0,0.2,-0.1,-0.1,9.4,2.5,-9.4,-2.0,-0.30000000000000004
1698744361539.0,16,0.1,0.1,-0.1,-0.1,9.3,2.5,-8.0,-2.4000000000000004,-0.2
1698744361555.0,16,0.0,0.0,0.0,-0.2,9.200000000000001,2.7,-7.2,-2.1999999999999997,-0.8
1698744361572.0,16,-0.1,-0.1,0.0,-0.30000000000000004,9.1,2.7,-8.4,-0.7,-1.0
1698744361588.0,16,-0.1,-0.1,0.0,-0.30000000000000004,9.0,2.7,-8.700000000000001,-0.6000000000000001,-1.0
1698744361605.0,16,-0.1,-0.1,0.0,-0.2,9.0,2.8000000000000003,-7.6,-1.3,-0.8
1698744361622.0,16,0.0,-0.1,0.1,-0.2,9.0,2.9000000000000004,-7.400000000000001,-1.6,-0.5
1698744361638.0,16,0.0,-0.1,0.2,-0.2,9.0,3.0,-8.700000000000001,-2.5,-0.2
1698744361657.0,16,0.0,-0.1,0.2,-0.2,9.0,3.0,-8.600000000000001,-2.7,-0.1
1698744361672.0,16,-0.1,-0.1,0.2,-0.30000000000000004,9.0,3.0,-8.1,-2.7,-0.4
1698744361690.0,16,-0.1,-0.1,0.2,-0.2,9.0,3.1,-8.5,-3.2,-0.6000000000000001
1698744361707.0,16,0.0,-0.1,0.2,-0.2,9.0,3.1,-8.600000000000001,-3.5,-0.8
1698744361722.0,16,0.0,-0.1,0.1,-0.2,8.9,3.1,-8.200000000000001,-3.5,-0.8
1698744361739.0,16,0.1,-0.1,0.1,0.0,8.9,3.1,-8.1,-3.3000000000000003,-0.8
1698744361755.0,16,0.2,0.0,0.1,0.1,9.0,3.1,-8.3,-3.2,-0.4
1698744361772.0,16,0.1,0.1,0.2,-0.1,9.1,3.2,-7.9,-3.3000000000000003,1.0
1698744361789.0,16,-0.1,0.1,0.1,-0.2,9.1,3.1,-7.699999999999999,-3.8,1.7
1698744361805.0,16,-0.30000000000000004,0.2,0.2,-0.4,9.3,3.2,-7.2,-6.3,1.5000000000000002
1698744361822.0,16,-0.4,0.4,0.0,-0.6000000000000001,9.4,3.1,-9.1,-9.1,0.30000000000000004
1698744361839.0,16,-0.4,0.4,-0.1,-0.5,9.4,3.1,-11.1,-10.8,-0.7
1698744361856.0,16,-0.30000000000000004,0.1,-0.2,-0.4,9.200000000000001,2.9000000000000004,-13.0,-12.200000000000001,-2.4000000000000004
1698744361872.0,16,0.0,-0.1,-0.30000000000000004,-0.2,8.9,2.9000000000000004,-12.200000000000001,-12.200000000000001,-3.6
1698744361889.0,16,0.2,-0.1,-0.30000000000000004,0.1,8.9,3.0,-12.8,-9.9,-3.5
1698744361905.0,16,0.2,0.0,-0.2,0.1,8.9,3.0,-12.8,-8.9,-2.9
1698744361922.0,16,0.2,0.1,-0.2,0.1,9.1,3.1,-11.1,-8.3,-1.8
1698744361939.0,16,0.1,0.2,-0.1,0.0,9.200000000000001,3.2,-10.8,-8.200000000000001,-1.8
1698744361957.0,16,-0.2,0.2,-0.1,-0.30000000000000004,9.1,3.3000000000000003,-11.700000000000001,-8.3,-2.3000000000000003
1698744361972.0,16,-0.4,0.1,-0.1,-0.5,9.1,3.3000000000000003,-14.700000000000001,-9.3,-4.1000000000000005
1698744361989.0,16,-0.4,0.1,0.0,-0.5,9.1,3.3000000000000003,-16.5,-11.4,-6.000000000000001
1698744362008.0,16,-0.30000000000000004,0.1,0.0,-0.4,9.1,3.5,-17.200000000000003,-13.100000000000001,-6.9
1698744362024.0,16,0.0,0.1,0.0,-0.1,9.0,3.5,-18.5,-14.700000000000001,-7.8
1698744362039.0,16,0.1,0.1,0.1,-0.1,9.0,3.6,-19.200000000000003,-14.800000000000002,-7.699999999999999
1698744362055.0,16,0.0,0.1,0.0,-0.1,8.9,3.6,-21.0,-14.4,-7.1000000000000005
1698744362073.0,16,0.0,0.0,-0.1,-0.1,8.8,3.6,-22.2,-13.5,-5.7
1698744362089.0,16,0.0,0.0,-0.1,-0.1,8.8,3.6,-22.4,-13.200000000000001,-4.9
1698744362107.0,16,0.2,0.0,-0.1,0.0,8.8,3.7,-22.900000000000002,-11.4,-3.3000000000000003
1698744362122.0,16,0.2,-0.1,-0.2,0.1,8.700000000000001,3.7,-23.6,-9.700000000000001,-1.8
1698744362139.0,16,0.2,-0.1,-0.2,0.1,8.700000000000001,3.7,-23.5,-7.500000000000001,0.0
1698744362155.0,16,0.2,-0.1,-0.2,0.0,8.5,3.8000000000000003,-23.8,-5.500000000000001,2.1
1698744362172.0,16,0.1,-0.1,-0.2,0.0,8.6,3.9000000000000004,-24.1,-4.6000000000000005,3.1
1698744362189.0,16,0.1,0.0,-0.2,0.0,8.700000000000001,3.9000000000000004,-24.8,-3.5,5.1
1698744362205.0,16,0.1,0.1,-0.2,0.0,8.700000000000001,3.9000000000000004,-25.400000000000002,-2.9,5.9
1698744362222.0,16,0.1,0.1,-0.1,0.1,8.700000000000001,4.1000000000000005,-26.3,-1.6,7.6
1698744362239.0,16,0.1,0.2,-0.2,0.1,8.8,4.1000000000000005,-28.8,0.2,8.200000000000001
1698744362256.0,16,0.0,0.30000000000000004,-0.1,0.1,8.8,4.2,-32.4,1.7,9.4
1698744362272.0,16,-0.1,0.4,-0.2,0.0,8.9,4.3,-34.1,2.3000000000000003,9.8
1698744362288.0,16,-0.30000000000000004,0.4,-0.1,-0.2,8.9,4.4,-37.6,1.8,10.600000000000001
1698744362305.0,16,-0.30000000000000004,0.4,-0.1,-0.2,8.9,4.4,-39.50000000000001,0.9,11.1
1698744362322.0,16,-0.2,0.4,-0.1,-0.1,8.700000000000001,4.6000000000000005,-43.2,0.0,11.2
1698744362339.0,16,-0.2,0.5,-0.2,-0.1,8.8,4.7,-47.400000000000006,-0.6000000000000001,11.8
1698744362355.0,16,-0.30000000000000004,0.5,-0.2,-0.1,8.8,4.7,-50.300000000000004,-0.30000000000000004,12.5
1698744362372.0,16,-0.30000000000000004,0.6000000000000001,-0.5,-0.1,8.8,4.6000000000000005,-54.2,0.30000000000000004,13.8
1698744362392.0,16,-0.30000000000000004,0.7000000000000001,-0.4,-0.1,8.700000000000001,4.800000000000001,-54.9,-1.6,15.000000000000002
1698744362405.0,16,-0.4,0.8,-0.5,-0.1,8.8,4.800000000000001,-55.6,-3.4,15.6
1698744362422.0,16,-0.30000000000000004,1.0,-0.6000000000000001,0.1,8.9,4.800000000000001,-60.599999999999994,-3.5,17.8
1698744362439.0,16,-0.2,1.0,-0.6000000000000001,0.1,8.9,5.0,-63.2,-5.300000000000001,20.6
1698744362457.0,16,-0.30000000000000004,1.0,-0.5,0.2,8.700000000000001,5.2,-65.60000000000001,-6.5,24.6
1698744362472.0,16,-0.2,1.0,-0.6000000000000001,0.30000000000000004,8.700000000000001,5.2,-66.1,-7.6,26.400000000000002
1698744362489.0,16,0.2,1.1,-0.30000000000000004,0.7000000000000001,8.700000000000001,5.6000000000000005,-63.300000000000004,-10.5,27.8
1698744362505.0,16,0.30000000000000004,1.2000000000000002,-0.2,0.9,8.700000000000001,5.800000000000001,-62.0,-10.9,29.300000000000004
1698744362523.0,16,0.0,1.8,0.30000000000000004,0.7000000000000001,9.1,6.5,-64.10000000000001,-10.1,33.2
1698744362538.0,16,-0.30000000000000004,1.5,0.4,0.5,8.8,6.800000000000001,-61.50000000000001,-13.6,31.3
1698744362555.0,16,-0.1,1.4000000000000001,0.8,0.8,8.6,7.2,-54.3,-11.8,22.3
1698744362572.0,16,0.7000000000000001,1.3,1.0,1.7000000000000002,8.4,7.6000000000000005,-53.9,-6.4,18.1
1698744362590.0,16,1.1,0.8,1.1,2.1,7.800000000000001,7.800000000000001,-53.50000000000001,2.1,13.5
1698744362605.0,16,0.9,0.6000000000000001,1.1,1.9000000000000001,7.5,7.9,-51.0,4.300000000000001,11.9
1698744362622.0,16,0.0,0.1,1.1,1.0,6.9,8.0,-45.1,6.6000000000000005,7.9
1698744362639.0,16,-0.2,-0.30000000000000004,1.4000000000000001,0.8,6.300000000000001,8.4,-42.400000000000006,5.9,5.0
1698744362655.0,16,0.4,-0.4,1.7000000000000002,1.5,6.2,8.9,-39.300000000000004,5.500000000000001,5.1
1698744362673.0,16,0.8,-0.1,1.9000000000000001,1.8,6.4,9.1,-37.4,6.6000000000000005,6.1000000000000005
1698744362689.0,16,1.0,0.2,1.8,2.0,6.6000000000000005,9.1,-31.900000000000002,7.6,7.500000000000001
1698744362705.0,16,0.7000000000000001,0.2,1.7000000000000002,1.7000000000000002,6.6000000000000005,9.0,-25.0,7.1000000000000005,5.300000000000001
1698744362722.0,16,0.5,0.1,1.6,1.6,6.4,8.9,-21.3,8.0,5.4
1698744362739.0,16,0.6000000000000001,-0.1,1.5,1.6,6.1000000000000005,9.0,-15.6,9.8,4.0
1698744362755.0,16,0.7000000000000001,-0.1,1.4000000000000001,1.7000000000000002,6.1000000000000005,9.0,-13.4,11.2,3.5
1698744362772.0,16,0.7000000000000001,-0.1,1.5,1.7000000000000002,6.2,9.0,-9.5,14.200000000000001,3.6
1698744362789.0,16,0.7000000000000001,0.0,1.4000000000000001,1.6,6.2,8.9,-5.2,19.1,5.300000000000001
1698744362807.0,16,0.6000000000000001,-0.2,1.2000000000000002,1.5,6.0,8.8,-3.1,21.3,6.2
1698744362822.0,16,0.4,-0.4,1.0,1.3,5.800000000000001,8.5,0.2,23.0,7.8
1698744362838.0,16,0.0,-0.6000000000000001,0.6000000000000001,0.9,5.6000000000000005,8.200000000000001,3.5,22.000000000000004,10.0
1698744362855.0,16,-0.2,-0.9,0.2,0.6000000000000001,5.300000000000001,7.800000000000001,5.0,22.900000000000002,7.699999999999999
1698744362872.0,16,-0.2,-0.9,0.0,0.6000000000000001,5.300000000000001,7.6000000000000005,6.2,23.5,7.400000000000001
1698744362890.0,16,-0.2,-1.1,-0.4,0.5,5.1000000000000005,7.1000000000000005,9.0,23.6,6.5
1698744362905.0,16,-0.30000000000000004,-1.3,-0.5,0.5,5.0,7.0,12.5,22.5,4.7
1698744362923.0,16,-0.5,-1.6,-0.7000000000000001,0.2,4.7,6.800000000000001,15.000000000000002,20.3,4.0
1698744362939.0,16,-0.6000000000000001,-2.0,-1.0,0.0,4.3,6.5,19.9,19.3,1.6
1698744362956.0,16,-0.7000000000000001,-2.1,-1.2000000000000002,-0.1,4.2,6.2,22.2,19.1,-1.3
1698744362973.0,16,-0.6000000000000001,-2.2,-1.2000000000000002,-0.1,4.1000000000000005,6.2,23.5,18.900000000000002,-2.5
1698744362990.0,16,-0.7000000000000001,-2.2,-1.4000000000000001,-0.2,4.2,5.9,27.5,17.200000000000003,-3.5
1698744363006.0,16,-0.8,-2.2,-1.3,-0.4,4.3,5.9,29.000000000000004,15.000000000000002,-3.0000000000000004
1698744363022.0,16,-0.8,-2.1,-1.1,-0.4,4.4,6.0,32.5,12.5,-2.3000000000000003
1698744363039.0,16,-0.5,-2.2,-1.0,-0.2,4.4,6.1000000000000005,35.4,12.200000000000001,-2.5
1698744363056.0,16,-0.4,-2.1,-1.0,-0.1,4.5,6.1000000000000005,36.2,10.8,-2.3000000000000003
1698744363072.0,16,-0.4,-1.8,-0.8,-0.1,4.9,6.2,36.2,10.1,-2.1999999999999997
1698744363089.0,16,-0.4,-1.5,-0.5,-0.1,5.300000000000001,6.300000000000001,36.800000000000004,8.4,-2.6
1698744363106.0,16,-0.30000000000000004,-1.3,-0.4,0.0,5.5,6.4,38.300000000000004,6.7,-2.8
1698744363122.0,16,-0.2,-1.3,-0.2,0.0,5.5,6.5,38.6,5.6,-4.0
1698744363139.0,16,-0.2,-1.3,0.0,0.1,5.7,6.6000000000000005,37.5,4.2,-5.7
1698744363155.0,16,0.0,-0.8,0.1,0.2,6.2,6.7,36.5,3.5,-6.9
1698744363172.0,16,0.0,-0.6000000000000001,0.30000000000000004,0.1,6.4,6.800000000000001,37.1,2.7,-7.1000000000000005
1698744363189.0,16,0.1,-0.4,0.4,0.2,6.7,6.800000000000001,37.800000000000004,0.2,-6.8
1698744363205.0,16,0.30000000000000004,-0.5,0.4,0.5,6.800000000000001,6.7,37.800000000000004,-0.7,-7.500000000000001
1698744363222.0,16,0.4,-0.2,0.4,0.6000000000000001,7.1000000000000005,6.7,36.4,-1.0,-8.9
1698744363239.0,16,0.6000000000000001,0.0,0.4,0.7000000000000001,7.4,6.6000000000000005,33.7,1.3,-9.9
1698744363255.0,16,0.7000000000000001,-0.30000000000000004,0.30000000000000004,0.8,7.1000000000000005,6.4,33.900000000000006,3.8,-10.4
1698744363272.0,16,0.7000000000000001,-0.4,0.1,0.8,7.1000000000000005,6.2,34.900000000000006,4.7,-9.700000000000001
1698744363289.0,16,0.6000000000000001,-1.1,-0.1,0.6000000000000001,6.4,5.9,35.7,5.0,-7.2
1698744363305.0,16,0.6000000000000001,-0.8,-0.4,0.6000000000000001,6.7,5.5,35.1,3.9,-5.6
1698744363323.0,16,0.5,-0.9,-0.5,0.5,6.7,5.4,35.1,3.1,-5.1
1698744363338.0,16,0.4,-1.1,-0.6000000000000001,0.4,6.6000000000000005,5.1000000000000005,38.0,1.6,-3.5
1698744363356.0,16,0.30000000000000004,-1.0,-0.5,0.30000000000000004,6.7,5.1000000000000005,43.300000000000004,0.7,-1.3
1698744363373.0,16,0.2,-0.9,-0.6000000000000001,0.2,6.9,5.0,46.6,0.30000000000000004,0.6000000000000001
1698744363389.0,16,0.2,-1.0,-0.7000000000000001,0.2,6.9,4.800000000000001,47.5,0.7,3.3000000000000003
1698744363408.0,16,-0.30000000000000004,-0.8,-0.6000000000000001,-0.2,7.1000000000000005,4.7,41.9,7.8,7.500000000000001
1698744363422.0,16,-0.30000000000000004,-0.5,-0.6000000000000001,-0.30000000000000004,7.5,4.6000000000000005,37.900000000000006,11.4,10.700000000000001
1698744363438.0,16,-0.2,-0.1,-0.2,-0.2,7.9,5.0,27.3,13.4,10.8
1698744363456.0,16,0.4,-0.2,0.30000000000000004,0.4,7.9,5.4,16.5,17.9,7.8
1698744363472.0,16,0.7000000000000001,-0.1,0.5,0.7000000000000001,8.0,5.6000000000000005,12.3,20.3,4.7
1698744363490.0,16,0.9,-0.30000000000000004,0.1,0.9,7.800000000000001,5.1000000000000005,7.699999999999999,29.800000000000004,3.2
1698744363505.0,16,0.1,0.2,-0.4,0.1,8.3,4.6000000000000005,6.8,34.50000000000001,7.0
1698744363522.0,16,-0.7000000000000001,1.0,-0.5,-0.8,9.1,4.6000000000000005,2.1,31.900000000000002,11.2
1698744363539.0,16,-0.9,1.1,-0.4,-1.0,9.200000000000001,4.7,0.0,29.300000000000004,13.4
1698744363556.0,16,-0.7000000000000001,1.1,-0.2,-0.8,9.3,4.9,1.0999999999999999,25.2,14.100000000000001
1698744363573.0,16,-0.1,0.4,-0.4,-0.2,8.5,4.6000000000000005,4.800000000000001,21.5,10.2
1698744363590.0,16,-0.1,0.4,-0.4,-0.2,8.6,4.6000000000000005,5.2,20.0,8.200000000000001
1698744363606.0,16,-0.6000000000000001,1.0,-0.6000000000000001,-0.8,9.200000000000001,4.4,3.5,20.2,6.4
1698744363622.0,16,-0.9,1.0,-0.5,-0.9,9.0,4.3,0.8,20.0,6.4
1698744363639.0,16,-0.9,0.8,-0.7000000000000001,-1.1,9.0,4.3,-0.5,17.5,5.7
1698744363656.0,16,-0.7000000000000001,-0.30000000000000004,-0.8,-0.9,7.9,4.2,2.7,12.100000000000001,4.300000000000001
1698744363674.0,16,-0.7000000000000001,-0.30000000000000004,-0.8,-0.9,7.9,4.2,2.8,6.7,2.1999999999999997
1698744363689.0,16,-0.7000000000000001,-0.6000000000000001,-0.7000000000000001,-0.9,7.6000000000000005,4.2,1.6,3.6,1.7
1698744363705.0,16,-0.8,-0.2,-0.8,-1.1,8.0,4.2,-0.4,-3.1,-0.30000000000000004
1698744363722.0,16,-0.9,0.2,-0.6000000000000001,-1.1,8.4,4.3,-2.0,-9.4,-3.3000000000000003
1698744363739.0,16,-1.0,0.5,-0.5,-1.2000000000000002,8.700000000000001,4.4,-1.4,-12.5,-4.6000000000000005
1698744363755.0,16,-0.4,-0.30000000000000004,-0.7000000000000001,-0.6000000000000001,7.800000000000001,4.2,1.6,-17.599999999999998,-7.2
1698744363772.0,16,-0.2,-0.1,-0.8,-0.4,8.1,4.1000000000000005,3.6,-22.1,-9.8
1698744363789.0,16,-0.1,0.0,-0.7000000000000001,-0.30000000000000004,8.200000000000001,4.3,3.9,-22.4,-9.9
1698744363805.0,16,0.1,0.30000000000000004,-0.6000000000000001,-0.1,8.5,4.3,3.4,-21.200000000000003,-9.1
1698744363822.0,16,0.1,0.4,-0.7000000000000001,-0.1,8.6,4.2,2.0,-19.8,-8.799999999999999
1698744363839.0,16,0.0,0.5,-0.7000000000000001,-0.1,8.700000000000001,4.1000000000000005,2.5,-19.200000000000003,-9.0
1698744363855.0,16,0.0,0.30000000000000004,-0.7000000000000001,-0.2,8.5,4.2,3.9,-19.200000000000003,-9.700000000000001
1698744363872.0,16,-0.30000000000000004,0.4,-0.9,-0.5,8.6,4.0,4.1000000000000005,-18.3,-10.1
1698744363891.0,16,-0.30000000000000004,0.7000000000000001,-0.8,-0.4,8.9,4.0,3.2,-17.7,-9.9
1698744363906.0,16,-0.30000000000000004,0.7000000000000001,-0.30000000000000004,-0.5,8.9,4.5,4.7,-17.400000000000002,-11.2
1698744363922.0,16,-0.2,0.5,-0.2,-0.30000000000000004,8.8,4.6000000000000005,6.2,-15.7,-11.2
1698744363938.0,16,0.30000000000000004,0.30000000000000004,0.2,0.1,8.6,5.0,7.6,-11.9,-13.4
1698744363956.0,16,0.4,0.2,0.2,0.2,8.5,5.0,7.9,-10.0,-13.6
1698744363972.0,16,0.0,0.4,0.2,-0.1,8.0,4.3,6.3,-1.0999999999999999,-8.700000000000001
1698744363989.0,16,-0.7000000000000001,0.1,-0.5,-0.5,8.200000000000001,4.4,1.9,0.6000000000000001,-8.0
1698744364005.0,16,-1.1,0.4,-0.4,-1.4000000000000001,8.6,4.3,-0.2,-5.500000000000001,-5.4
1698744364022.0,16,-1.5,0.9,0.1,-1.7000000000000002,9.200000000000001,4.9,0.8,-13.200000000000001,-6.5
1698744364038.0,16,-1.3,1.0,0.30000000000000004,-1.6,9.3,5.0,6.6000000000000005,-19.500000000000004,-11.9
1698744364056.0,16,-0.7000000000000001,0.8,0.6000000000000001,-1.0,9.1,5.4,9.1,-22.900000000000002,-14.4
1698744364073.0,16,0.5,1.0,0.8,0.2,9.3,5.5,8.3,-25.700000000000003,-20.4
1698744364089.0,16,0.8,1.0,0.7000000000000001,0.5,9.4,5.4,7.699999999999999,-23.6,-21.900000000000002
1698744364106.0,16,0.5,0.5,-0.30000000000000004,0.1,8.9,4.4,8.700000000000001,-15.5,-18.2
1698744364122.0,16,-0.5,0.6000000000000001,-0.30000000000000004,-0.9,8.9,4.4,5.9,-15.000000000000002,-14.100000000000001
1698744364138.0,16,-0.8,0.2,-0.2,-1.1,8.6,4.5,5.6,-17.9,-11.3
1698744364155.0,16,-0.7000000000000001,0.30000000000000004,-0.1,-1.1,8.700000000000001,4.6000000000000005,6.6000000000000005,-20.2,-10.1
1698744364172.0,16,-0.2,-0.1,0.2,-0.6000000000000001,8.3,4.800000000000001,11.2,-20.4,-12.100000000000001
1698744364190.0,16,0.5,-0.7000000000000001,-0.2,0.1,7.7,4.3,14.200000000000001,-20.4,-9.0
1698744364205.0,16,0.4,-0.8,-0.30000000000000004,0.1,7.6000000000000005,4.2,13.3,-21.8,-6.1000000000000005
1698744364222.0,16,0.1,-0.9,-0.2,-0.2,7.5,4.4,11.4,-25.5,-1.0999999999999999
1698744364238.0,16,0.2,-0.9,0.0,-0.1,7.6000000000000005,4.5,12.4,-27.400000000000002,-0.4
1698744364255.0,16,0.30000000000000004,-1.0,0.2,0.1,7.5,4.6000000000000005,12.9,-28.200000000000003,-0.5
1698744364276.0,16,0.4,-1.0,0.5,0.2,7.5,4.9,14.600000000000001,-29.800000000000004,-0.2
1698744364288.0,16,0.4,-1.0,0.5,0.2,7.5,4.9,13.200000000000001,-31.8,-0.2
1698744364306.0,16,0.2,-1.0,0.5,0.1,7.5,4.9,12.100000000000001,-32.1,-0.4
1698744364323.0,16,0.2,-1.1,0.5,0.2,7.4,4.9,11.8,-28.500000000000004,-1.5000000000000002
1698744364339.0,16,0.7000000000000001,-1.0,0.4,0.7000000000000001,7.5,4.800000000000001,12.700000000000001,-24.3,-3.9
1698744364355.0,16,1.0,-1.0,0.4,1.0,7.5,4.7,12.9,-22.1,-4.9
1698744364373.0,16,1.2000000000000002,-0.9,0.5,1.2000000000000002,7.6000000000000005,4.7,13.200000000000001,-16.8,-5.6
1698744364389.0,16,1.0,-0.8,0.4,1.0,7.800000000000001,4.7,12.100000000000001,-7.8,-3.9
1698744364406.0,16,0.9,-0.4,0.1,0.8,8.200000000000001,4.3,11.3,-6.1000000000000005,-2.6
1698744364422.0,16,0.30000000000000004,-0.30000000000000004,0.1,0.30000000000000004,8.3,4.3,11.5,-7.6,-1.0999999999999999
1698744364439.0,16,0.1,-0.2,0.30000000000000004,0.1,8.4,4.5,11.3,-8.600000000000001,-0.5
1698744364455.0,16,-0.30000000000000004,-0.1,0.2,-0.30000000000000004,8.5,4.4,8.600000000000001,-8.5,3.8
1698744364472.0,16,0.0,0.2,0.30000000000000004,0.0,8.8,4.4,6.6000000000000005,-13.200000000000001,4.300000000000001
1698744364490.0,16,1.0,0.7000000000000001,0.2,1.1,9.3,4.4,7.2,-13.5,1.8
1698744364505.0,16,1.1,0.9,0.2,1.3,9.5,4.3,7.6,-12.3,1.8
1698744364522.0,16,0.7000000000000001,0.7000000000000001,0.2,0.8,9.4,4.3,8.3,-8.9,4.7
1698744364539.0,16,0.2,0.2,0.2,0.4,8.8,4.3,8.5,-3.9,8.9
1698744364555.0,16,0.2,0.0,0.1,0.4,8.700000000000001,4.2,7.9,-1.3,11.4
1698744364574.0,16,0.30000000000000004,0.0,-0.1,0.5,8.700000000000001,3.9000000000000004,6.4,1.2000000000000002,15.9
1698744364589.0,16,0.4,0.1,-0.30000000000000004,0.7000000000000001,8.8,3.7,6.3,3.0000000000000004,19.200000000000003
1698744364606.0,16,0.4,0.2,-0.4,0.7000000000000001,8.8,3.6,6.6000000000000005,5.0,20.0
1698744364622.0,16,0.30000000000000004,0.2,-0.5,0.7000000000000001,8.9,3.5,7.0,11.700000000000001,20.8
1698744364639.0,16,-0.1,0.2,-0.6000000000000001,0.30000000000000004,8.8,3.4000000000000004,3.2,9.4,18.900000000000002
1698744364655.0,16,-0.2,0.0,-0.7000000000000001,0.30000000000000004,8.700000000000001,3.2,-3.0000000000000004,8.200000000000001,16.3
1698744364672.0,16,-0.1,0.0,-0.7000000000000001,0.30000000000000004,8.700000000000001,3.3000000000000003,-6.2,8.200000000000001,14.700000000000001
1698744364688.0,16,0.2,0.1,-0.7000000000000001,0.7000000000000001,8.700000000000001,3.3000000000000003,-11.2,11.3,11.700000000000001
1698744364705.0,16,0.2,0.1,-0.7000000000000001,0.7000000000000001,8.700000000000001,3.3000000000000003,-10.600000000000001,11.3,9.1
1698744364721.0,16,0.1,0.0,-0.7000000000000001,0.6000000000000001,8.700000000000001,3.3000000000000003,-9.8,10.8,7.6
1698744364738.0,16,-0.1,-0.30000000000000004,-0.8,0.4,8.3,3.3000000000000003,-11.000000000000002,11.8,5.0
1698744364755.0,16,-0.1,-0.30000000000000004,-0.9,0.4,8.3,3.2,-16.2,14.100000000000001,3.3000000000000003
1698744364772.0,16,-0.1,-0.4,-0.8,0.30000000000000004,8.200000000000001,3.3000000000000003,-18.1,14.900000000000002,2.5
1698744364789.0,16,0.4,-0.1,-0.9,0.9,8.4,3.3000000000000003,-19.200000000000003,18.900000000000002,1.2000000000000002
1698744364805.0,16,0.5,-0.1,-0.9,1.0,8.4,3.3000000000000003,-18.0,20.4,1.5000000000000002
1698744364822.0,16,0.7000000000000001,-0.30000000000000004,-1.0,1.1,8.200000000000001,3.2,-14.200000000000001,23.3,3.7000000000000006
1698744364838.0,16,0.5,-0.2,-1.1,1.0,8.3,3.2,-9.8,24.000000000000004,6.1000000000000005
1698744364855.0,16,0.1,-0.2,-1.4000000000000001,0.5,8.3,2.9000000000000004,-9.200000000000001,21.8,8.3
1698744364872.0,16,0.0,-0.1,-1.5,0.5,8.3,2.8000000000000003,-10.3,19.1,7.8
1698744364889.0,16,0.0,-0.2,-1.5,0.4,8.3,2.8000000000000003,-10.8,17.8,6.9
1698744364906.0,16,0.0,0.2,-1.8,0.5,8.6,2.6,-8.9,17.5,4.3999999999999995
1698744364922.0,16,0.4,0.2,-2.0,0.8,8.700000000000001,2.3000000000000003,-5.1,16.0,3.1
1698744364939.0,16,0.7000000000000001,0.2,-2.2,1.1,8.6,2.1,-0.6000000000000001,21.700000000000003,2.1999999999999997
1698744364955.0,16,1.0,0.30000000000000004,-1.9000000000000001,1.4000000000000001,8.8,2.4000000000000004,1.4,22.7,2.0
1698744364973.0,16,-0.1,3.0,1.5,0.2,11.4,5.800000000000001,14.700000000000001,12.700000000000001,10.5
1698744364989.0,16,-1.2000000000000002,1.8,0.1,-0.8,10.3,4.3,14.800000000000002,-11.6,22.5
1698744365006.0,16,-0.8,0.4,0.4,-0.4,8.9,4.7,0.0,-23.700000000000003,9.8
1698744365022.0,16,-1.2000000000000002,1.5,0.5,-0.7000000000000001,10.0,4.800000000000001,-13.4,-21.3,-1.9
1698744365039.0,16,-0.1,0.6000000000000001,-1.0,0.4,9.1,3.3000000000000003,-15.5,-13.3,-9.4
1698744365056.0,16,0.4,0.4,-0.8,0.9,8.9,3.5,-10.8,-7.400000000000001,-12.6
1698744365072.0,16,1.8,0.6000000000000001,0.1,2.3000000000000003,9.1,4.4,8.600000000000001,-8.4,-3.8
1698744365088.0,16,0.8,1.0,2.1,1.4000000000000001,9.600000000000001,6.4,21.200000000000003,-19.9,10.700000000000001
1698744365105.0,16,-0.1,1.2000000000000002,1.9000000000000001,0.5,9.8,6.1000000000000005,9.4,-18.6,14.100000000000001
1698744365122.0,16,0.1,0.4,1.4000000000000001,0.7000000000000001,8.9,5.7,-1.3,-14.200000000000001,10.600000000000001
1698744365139.0,16,1.0,-0.7000000000000001,1.6,1.7000000000000002,7.9,5.9,-2.1,-4.9,4.6000000000000005
1698744365155.0,16,1.0,-1.0,1.7000000000000002,1.4000000000000001,7.4,5.9,12.9,3.5,6.2
1698744365173.0,16,0.4,-1.0,1.6,1.1,7.5,5.9,15.399999999999999,4.5,8.200000000000001
1698744365192.0,16,0.1,-1.0,1.4000000000000001,0.8,7.6000000000000005,5.6000000000000005,7.500000000000001,3.5,7.300000000000001
1698744365205.0,16,0.0,-1.1,1.5,0.7000000000000001,7.4,5.7,1.7,6.000000000000001,1.9
1698744365221.0,16,-0.5,-1.1,1.5,0.2,7.5,5.7,3.0000000000000004,9.700000000000001,-2.1999999999999997
1698744365238.0,16,-0.7000000000000001,-1.0,1.3,-0.1,7.5,5.5,3.0000000000000004,11.000000000000002,-3.3000000000000003
1698744365255.0,16,-0.7000000000000001,-1.0,1.0,-0.1,7.6000000000000005,5.2,0.5,13.9,-4.9
1698744365272.0,16,0.0,-0.9,1.0,0.6000000000000001,7.6000000000000005,5.2,1.0,16.5,-7.1000000000000005
1698744365288.0,16,0.2,-0.8,1.0,0.8,7.800000000000001,5.2,2.4000000000000004,17.400000000000002,-8.5
1698744365308.0,16,0.0,-0.5,0.8,0.5,8.0,5.0,3.0000000000000004,18.8,-8.1
1698744365322.0,16,-0.9,-0.4,0.6000000000000001,-0.4,8.1,4.9,1.7,19.6,-6.8
1698744365338.0,16,-1.3,-0.4,0.6000000000000001,-0.9,8.200000000000001,4.800000000000001,1.4,17.8,-6.9
1698744365355.0,16,-1.7000000000000002,-0.30000000000000004,0.5,-1.3,8.200000000000001,4.800000000000001,2.1,6.1000000000000005,-6.5
1698744365374.0,16,-1.8,-0.30000000000000004,0.5,-1.4000000000000001,8.200000000000001,4.7,2.5,-1.4,-7.2
1698744365389.0,16,-1.7000000000000002,-0.30000000000000004,0.5,-1.3,8.200000000000001,4.7,3.0000000000000004,-15.7,-10.600000000000001
1698744365405.0,16,-1.5,-0.2,0.4,-1.1,8.3,4.6000000000000005,2.0,-26.200000000000003,-17.200000000000003
1698744365423.0,16,-1.0,0.0,0.30000000000000004,-0.8,8.6,4.6000000000000005,0.2,-27.8,-25.2
1698744365440.0,16,-0.6000000000000001,0.1,0.30000000000000004,-0.30000000000000004,8.700000000000001,4.5,0.0,-27.400000000000002,-29.300000000000004
1698744365455.0,16,0.30000000000000004,0.0,0.2,0.5,8.6,4.5,1.9,-27.2,-35.0
1698744365472.0,16,0.4,-0.30000000000000004,0.1,0.8,8.0,4.2,0.8,-25.5,-29.800000000000004
1698744365488.0,16,1.0,-0.7000000000000001,-0.2,1.1,7.800000000000001,4.0,-2.0,-22.6,-25.3
1698744365505.0,16,1.1,-1.1,-0.30000000000000004,1.2000000000000002,7.5,3.9000000000000004,-6.1000000000000005,-19.0,-19.3
1698744365522.0,16,0.8,-1.0,-0.30000000000000004,0.9,7.5,3.9000000000000004,-6.3,-15.000000000000002,-16.400000000000002
1698744365539.0,16,0.4,-0.7000000000000001,-0.2,0.4,7.800000000000001,4.1000000000000005,-6.6000000000000005,-5.0,-15.000000000000002
1698744365555.0,16,0.1,-0.4,-0.30000000000000004,0.1,8.1,4.0,-7.8,0.5,-11.700000000000001
1698744365572.0,16,-0.30000000000000004,-0.1,-0.30000000000000004,-0.30000000000000004,8.4,4.0,-7.400000000000001,2.0,-10.1
1698744365589.0,16,-0.4,0.1,-0.5,-0.4,8.6,3.8000000000000003,-5.1,2.3000000000000003,-7.400000000000001
1698744365605.0,16,-0.2,0.30000000000000004,-0.6000000000000001,-0.30000000000000004,8.8,3.7,-4.300000000000001,-1.8,-2.5
1698744365622.0,16,-0.4,0.4,-0.8,-0.4,8.9,3.6,-2.6,-6.1000000000000005,0.30000000000000004
1698744365639.0,16,-0.2,0.4,-0.9,-0.2,8.9,3.4000000000000004,-2.3000000000000003,-7.699999999999999,-0.2
1698744365655.0,16,-0.2,0.4,-1.0,-0.30000000000000004,8.8,3.4000000000000004,-0.9,-14.200000000000001,-0.8
1698744365672.0,16,-0.5,0.2,-1.0,-0.5,8.700000000000001,3.3000000000000003,0.8,-18.7,-2.7
1698744365689.0,16,-0.6000000000000001,0.2,-0.9,-0.6000000000000001,8.700000000000001,3.4000000000000004,1.3,-20.1,-3.7000000000000006
1698744365706.0,16,-0.6000000000000001,0.30000000000000004,-0.9,-0.6000000000000001,8.8,3.4000000000000004,-0.8,-19.0,-2.7
1698744365722.0,16,-0.5,0.4,-0.8,-0.4,8.9,3.5,-2.0,-19.3,-1.0999999999999999
1698744365739.0,16,-0.2,0.4,-0.9,-0.1,8.8,3.4000000000000004,-2.5,-20.0,0.0
1698744365755.0,16,0.0,0.2,-0.7000000000000001,0.1,8.700000000000001,3.6,-4.0,-18.1,-0.2
1698744365772.0,16,0.5,0.2,-0.4,0.6000000000000001,8.700000000000001,3.9000000000000004,-5.500000000000001,-13.3,-1.8
1698744365788.0,16,0.8,0.30000000000000004,-0.5,0.9,8.8,3.9000000000000004,-6.2,-11.2,-4.2
1698744365806.0,16,1.1,0.8,-1.1,1.2000000000000002,9.3,3.2,-10.5,-9.700000000000001,-9.8
1698744365822.0,16,0.9,1.4000000000000001,-1.2000000000000002,1.0,9.8,3.2,-12.700000000000001,-13.0,-11.6
1698744365838.0,16,-0.30000000000000004,2.3000000000000003,-0.4,-0.2,10.8,4.0,-12.3,-17.599999999999998,-12.100000000000001
1698744365856.0,16,-1.6,1.5,-0.2,-1.5,10.0,4.2,-9.200000000000001,-16.400000000000002,-10.4
1698744365872.0,16,-1.6,0.2,0.7000000000000001,-1.5,8.700000000000001,5.1000000000000005,-2.7,-9.5,-11.000000000000002
1698744365889.0,16,-0.6000000000000001,-0.30000000000000004,0.4,-0.5,8.200000000000001,4.800000000000001,-2.8,-2.5,-11.4
1698744365908.0,16,1.9000000000000001,-0.30000000000000004,-0.5,1.9000000000000001,8.1,4.0,-8.3,6.7,-7.699999999999999
1698744365922.0,16,1.4000000000000001,-0.8,-0.7000000000000001,1.4000000000000001,7.6000000000000005,3.8000000000000003,-5.8,6.000000000000001,-6.6000000000000005
1698744365939.0,16,0.5,-0.8,-0.8,0.5,7.6000000000000005,3.7,-4.1000000000000005,8.4,-2.8
1698744365955.0,16,-0.5,-0.30000000000000004,-0.2,-0.5,8.1,4.3,-5.4,8.0,-1.0
1698744365972.0,16,-0.9,0.30000000000000004,0.4,-1.0,8.700000000000001,4.800000000000001,-3.4,7.400000000000001,-6.5
1698744365988.0,16,0.0,0.4,1.0,-0.1,8.8,5.5,1.2000000000000002,12.3,-12.4
1698744366005.0,16,0.5,0.4,1.2000000000000002,0.30000000000000004,8.9,5.7,3.7000000000000006,15.6,-12.4
1698744366022.0,16,0.8,0.2,0.6000000000000001,0.6000000000000001,8.6,5.1000000000000005,1.8,16.900000000000002,-8.3
1698744366038.0,16,-0.1,0.4,0.5,0.1,8.8,5.0,-2.3000000000000003,14.900000000000002,-6.4
1698744366055.0,16,-0.30000000000000004,0.0,0.6000000000000001,-0.6000000000000001,8.4,5.2,-9.1,12.6,-2.4000000000000004
1698744366072.0,16,-0.4,-0.5,0.6000000000000001,-0.6000000000000001,7.9,5.1000000000000005,-5.4,12.4,-1.7
1698744366088.0,16,-0.6000000000000001,-0.2,1.3,-0.9,8.200000000000001,5.9,1.8,9.200000000000001,-5.2
1698744366105.0,16,0.30000000000000004,-0.1,1.2000000000000002,0.0,8.3,5.800000000000001,4.7,8.0,-2.1999999999999997
1698744366122.0,16,0.8,-0.30000000000000004,1.2000000000000002,0.5,8.3,5.800000000000001,-4.2,3.6,-3.4
1698744366139.0,16,0.7000000000000001,0.0,1.0,0.30000000000000004,8.4,5.6000000000000005,-10.0,4.1000000000000005,-3.8
1698744366155.0,16,0.1,0.2,1.2000000000000002,-0.2,8.6,5.800000000000001,-13.6,1.9,-1.9
1698744366176.0,16,-0.1,0.1,1.7000000000000002,-0.4,8.5,6.300000000000001,-9.5,-4.6000000000000005,-0.8
1698744366189.0,16,-0.1,-0.1,2.0,-0.4,8.3,6.7,-9.1,-8.3,-1.6
1698744366205.0,16,0.0,-0.8,1.9000000000000001,-0.30000000000000004,7.5,6.7,-11.700000000000001,-11.8,-3.2
1698744366222.0,16,0.4,-1.0,1.3,0.1,7.300000000000001,6.1000000000000005,-10.3,-11.9,-5.300000000000001
1698744366238.0,16,0.7000000000000001,-0.9,0.9,0.4,7.4,5.7,-4.0,-11.3,-6.5
1698744366256.0,16,0.8,-0.9,0.7000000000000001,0.5,7.300000000000001,5.6000000000000005,-1.7,-11.2,-6.6000000000000005
1698744366272.0,16,0.7000000000000001,-1.0,0.7000000000000001,0.4,7.300000000000001,5.5,0.5,-12.5,-5.7
1698744366289.0,16,0.4,-1.3,0.5,0.0,7.0,5.4,1.2000000000000002,-18.0,-4.3999999999999995
1698744366306.0,16,-0.1,-1.3,0.6000000000000001,-0.30000000000000004,7.0,5.4,1.6,-21.6,-3.7000000000000006
1698744366322.0,16,-0.7000000000000001,-0.7000000000000001,0.30000000000000004,-0.9,7.6000000000000005,5.1000000000000005,0.2,-27.6,-0.7
1698744366339.0,16,-0.9,0.0,0.0,-1.1,8.3,4.800000000000001,-3.0000000000000004,-35.3,0.30000000000000004
1698744366355.0,16,-0.8,0.2,-0.30000000000000004,-1.0,8.4,4.6000000000000005,-3.0000000000000004,-37.0,-1.0999999999999999
1698744366372.0,16,-0.30000000000000004,0.1,-1.0,-0.4,8.3,3.9000000000000004,-0.4,-42.300000000000004,-6.1000000000000005
1698744366388.0,16,0.0,-0.30000000000000004,-0.8,-0.1,8.0,4.1000000000000005,3.5,-46.5,-11.6
1698744366405.0,16,0.1,-0.4,-0.7000000000000001,0.1,7.800000000000001,4.1000000000000005,5.2,-45.7,-13.100000000000001
1698744366422.0,16,0.0,-0.4,-0.7000000000000001,0.0,7.800000000000001,4.1000000000000005,4.5,-42.6,-14.100000000000001
1698744366439.0,16,0.1,-0.30000000000000004,-0.7000000000000001,0.2,8.0,4.1000000000000005,3.0000000000000004,-39.50000000000001,-12.100000000000001
1698744366455.0,16,0.0,-0.1,-0.7000000000000001,0.1,8.1,4.1000000000000005,2.5,-39.6,-10.600000000000001
1698744366472.0,16,0.1,0.1,-0.8,0.2,8.3,4.0,3.4,-37.800000000000004,-7.2
1698744366488.0,16,0.1,0.1,-0.9,0.30000000000000004,8.3,3.8000000000000003,3.9,-35.3,-6.5
1698744366505.0,16,0.7000000000000001,0.0,-1.2000000000000002,0.8,8.200000000000001,3.5,3.9,-31.5,-6.000000000000001
1698744366522.0,16,0.8,0.1,-1.0,1.0,8.4,3.8000000000000003,2.5,-30.100000000000005,-5.500000000000001
1698744366539.0,16,0.9,0.30000000000000004,-1.0,1.2000000000000002,8.6,3.7,2.7,-23.900000000000002,-3.5
1698744366556.0,16,0.9,0.30000000000000004,-1.1,1.2000000000000002,8.6,3.6,2.3000000000000003,-20.900000000000002,-2.4000000000000004
1698744366573.0,16,1.1,0.4,-1.0,1.4000000000000001,8.6,3.7,2.1999999999999997,-12.8,0.2
1698744366589.0,16,1.1,0.30000000000000004,-0.9,1.4000000000000001,8.6,3.7,4.0,-1.7,2.3000000000000003
1698744366605.0,16,1.2000000000000002,0.2,-1.0,1.5,8.5,3.6,4.7,4.1000000000000005,2.9
1698744366622.0,16,1.2000000000000002,0.0,-1.2000000000000002,1.6,8.3,3.4000000000000004,4.6000000000000005,14.200000000000001,4.7
1698744366639.0,16,1.3,-0.1,-1.2000000000000002,1.6,8.200000000000001,3.4000000000000004,3.9,24.6,6.8
1698744366655.0,16,1.3,-0.1,-1.3,1.6,8.200000000000001,3.3000000000000003,4.5,29.900000000000006,8.9
1698744366674.0,16,1.4000000000000001,0.1,-1.4000000000000001,1.7000000000000002,8.4,3.1,6.5,35.199999999999996,13.0
1698744366688.0,16,0.9,0.0,-1.6,1.2000000000000002,8.3,3.0,10.8,38.7,16.6
1698744366705.0,16,0.7000000000000001,0.0,-1.7000000000000002,1.0,8.3,2.8000000000000003,12.8,39.300000000000004,16.5
1698744366722.0,16,0.7000000000000001,0.0,-1.5,0.9,8.4,3.0,15.299999999999999,38.5,13.200000000000001
1698744366738.0,16,0.9,0.30000000000000004,-1.7000000000000002,1.2000000000000002,8.700000000000001,2.7,15.9,41.800000000000004,8.200000000000001
1698744366755.0,16,1.1,0.6000000000000001,-1.4000000000000001,1.3,9.0,2.9000000000000004,15.000000000000002,42.6,6.7
1698744366772.0,16,0.9,1.3,-1.8,1.1,9.700000000000001,2.6,15.9,50.2,9.600000000000001
1698744366789.0,16,0.7000000000000001,1.6,-0.6000000000000001,0.8,10.0,3.7,19.6,58.9,13.0
1698744366806.0,16,-0.6000000000000001,2.2,-0.5,-0.5,10.700000000000001,3.7,30.599999999999998,48.1,25.0
1698744366822.0,16,-0.5,1.6,-0.4,-0.4,10.100000000000001,3.8000000000000003,27.900000000000002,40.2,26.0
1698744366838.0,16,-0.9,1.3,1.0,-0.7000000000000001,9.9,5.1000000000000005,22.4,26.8,27.1
1698744366856.0,16,-1.5,1.3,1.2000000000000002,-1.3,9.9,5.300000000000001,22.000000000000004,26.3,29.1
1698744366873.0,16,-0.9,0.7000000000000001,1.6,-0.6000000000000001,9.3,5.6000000000000005,16.6,26.9,27.1
1698744366889.0,16,0.1,-0.30000000000000004,2.5,0.4,8.4,6.5,19.500000000000004,22.2,25.0
1698744366909.0,16,-0.2,-0.4,1.9000000000000001,0.2,8.3,5.800000000000001,19.8,17.8,30.5
1698744366923.0,16,-0.30000000000000004,-0.5,1.9000000000000001,0.0,8.200000000000001,5.800000000000001,13.700000000000001,19.700000000000003,29.900000000000006
1698744366939.0,16,-1.0,0.1,2.1,-0.5,8.8,6.0,4.7,20.0,29.1
1698744366955.0,16,-1.3,0.5,2.0,-0.9,9.200000000000001,5.9,1.6,17.599999999999998,28.200000000000003
1698744366973.0,16,-1.5,0.8,1.9000000000000001,-1.0,9.5,5.9,-3.0000000000000004,11.2,23.2
1698744366989.0,16,-1.3,0.6000000000000001,1.8,-0.8,9.3,5.7,-4.300000000000001,5.9,14.4
1698744367005.0,16,-0.9,-0.1,1.8,-0.4,8.6,5.800000000000001,-4.3999999999999995,5.500000000000001,10.0
1698744367022.0,16,-0.8,-0.4,1.9000000000000001,-0.30000000000000004,8.3,5.9,-6.2,7.500000000000001,2.1
1698744367039.0,16,-0.8,-0.5,1.4000000000000001,-0.30000000000000004,8.200000000000001,5.5,-14.0,12.3,-3.9
1698744367055.0,16,-0.5,-1.4000000000000001,0.6000000000000001,0.0,7.2,4.7,-21.200000000000003,17.0,-7.300000000000001
1698744367073.0,16,-0.2,-2.1,0.4,0.2,6.5,4.6000000000000005,-18.7,20.5,-9.0
1698744367089.0,16,0.1,-2.5,0.4,0.5,6.1000000000000005,4.6000000000000005,-12.5,24.3,-9.0
1698744367105.0,16,-0.6000000000000001,-1.2000000000000002,0.5,-0.30000000000000004,7.4,4.800000000000001,0.30000000000000004,31.6,-0.1
1698744367122.0,16,-1.0,-0.5,0.5,-0.7000000000000001,8.0,4.800000000000001,-3.4,32.300000000000004,3.1
1698744367139.0,16,-1.1,0.1,0.4,-0.8,8.6,4.7,-11.9,33.5,5.300000000000001
1698744367155.0,16,-0.7000000000000001,0.0,0.5,-0.2,8.4,4.800000000000001,-5.4,27.5,2.0
1698744367173.0,16,-0.4,-0.2,0.4,-0.2,8.3,4.7,0.30000000000000004,22.4,0.9
1698744367189.0,16,-0.7000000000000001,-0.1,0.6000000000000001,-0.6000000000000001,8.5,4.800000000000001,4.0,17.5,-2.3000000000000003
1698744367206.0,16,-0.9,0.1,0.6000000000000001,-0.7000000000000001,8.6,4.9,2.1999999999999997,16.900000000000002,-4.9
1698744367222.0,16,-0.8,0.2,0.30000000000000004,-0.8,8.700000000000001,4.6000000000000005,-2.1999999999999997,16.900000000000002,-11.000000000000002
1698744367239.0,16,-0.7000000000000001,-0.1,0.0,-0.7000000000000001,8.5,4.3,-1.2000000000000002,12.8,-14.3
1698744367255.0,16,-0.4,-0.30000000000000004,-0.1,-0.5,8.200000000000001,4.2,3.0000000000000004,8.700000000000001,-14.900000000000002
1698744367272.0,16,-0.30000000000000004,-0.5,-0.2,-0.4,8.1,4.1000000000000005,4.6000000000000005,6.5,-14.500000000000002
1698744367289.0,16,-0.4,-0.5,-0.30000000000000004,-0.5,8.0,4.0,3.8,3.5,-11.6
1698744367305.0,16,-0.5,-0.30000000000000004,-0.5,-0.7000000000000001,8.3,3.8000000000000003,1.0999999999999999,-1.3,-8.0
1698744367321.0,16,-1.0,-0.30000000000000004,-0.7000000000000001,-1.2000000000000002,8.3,3.6,-1.4,-3.9,-5.6
1698744367339.0,16,-1.1,-0.30000000000000004,-0.7000000000000001,-1.3,8.200000000000001,3.6,-1.9,-5.8,-5.1
1698744367355.0,16,-1.1,-0.2,-0.6000000000000001,-1.3,8.3,3.7,-0.9,-14.4,-3.8
1698744367372.0,16,-0.9,-0.30000000000000004,-0.6000000000000001,-1.2000000000000002,8.3,3.6,-0.7,-19.0,-3.6
1698744367389.0,16,-0.30000000000000004,-0.5,-0.7000000000000001,-0.5,8.0,3.6,0.30000000000000004,-25.900000000000002,-6.7
1698744367405.0,16,0.0,-0.5,-0.7000000000000001,-0.2,8.0,3.5,5.0,-24.7,-11.9
1698744367422.0,16,0.0,-0.1,-0.6000000000000001,-0.1,8.4,3.6,7.1000000000000005,-21.5,-12.3
1698744367438.0,16,0.1,0.30000000000000004,-0.5,-0.1,8.8,3.7,6.3,-14.100000000000001,-10.700000000000001
1698744367455.0,16,-0.1,0.2,-0.5,-0.30000000000000004,8.700000000000001,3.7,1.3,-8.0,-6.9
1698744367483.0,16,-0.5,0.30000000000000004,-0.6000000000000001,-0.7000000000000001,8.8,3.6,-1.6,-8.200000000000001,0.0
1698744367488.0,16,-0.5,0.30000000000000004,-0.6000000000000001,-0.7000000000000001,8.8,3.6,-1.6,-8.200000000000001,0.0
1698744367505.0,16,-0.6000000000000001,0.30000000000000004,-0.6000000000000001,-0.8,8.9,3.6,-0.4,-9.600000000000001,0.9
1698744367522.0,16,-0.7000000000000001,0.4,-0.6000000000000001,-0.9,8.9,3.5,0.9,-11.6,0.6000000000000001
1698744367539.0,16,-0.7000000000000001,0.6000000000000001,-0.7000000000000001,-0.8,9.1,3.5,0.9,-12.700000000000001,0.4
1698744367555.0,16,-0.5,0.6000000000000001,-0.7000000000000001,-0.7000000000000001,9.200000000000001,3.5,1.2000000000000002,-15.399999999999999,1.3
1698744367572.0,16,-0.4,0.5,-0.6000000000000001,-0.5,9.1,3.5,0.8,-17.3,1.9
1698744367590.0,16,-0.4,0.4,-0.6000000000000001,-0.5,9.0,3.6,0.0,-17.200000000000003,2.5
1698744367605.0,16,-0.4,0.4,-0.8,-0.5,9.0,3.4000000000000004,-2.6,-16.0,3.6
1698744367623.0,16,-0.2,0.5,-0.9,-0.2,9.1,3.3000000000000003,-5.9,-20.8,5.1
1698744367639.0,16,-0.4,0.6000000000000001,-1.0,-0.4,9.1,3.2,-6.7,-22.4,5.7
1698744367655.0,16,-0.4,0.6000000000000001,-1.3,-0.30000000000000004,9.1,2.9000000000000004,-8.700000000000001,-26.700000000000003,4.2
1698744367672.0,16,-1.0,0.6000000000000001,-1.7000000000000002,-0.9,9.1,2.5,-6.9,-31.4,2.1999999999999997
1698744367688.0,16,-1.0,0.8,-1.9000000000000001,-0.9,9.3,2.3000000000000003,-5.500000000000001,-33.400000000000006,0.9
1698744367705.0,16,-0.5,1.3,-0.1,-0.30000000000000004,9.9,4.1000000000000005,0.9,-39.699999999999996,-5.8
1698744367722.0,16,0.8,0.9,0.5,0.9,9.5,4.7,6.5,-20.2,-14.100000000000001
1698744367738.0,16,1.0,0.4,0.30000000000000004,1.2000000000000002,9.0,4.5,4.300000000000001,-11.000000000000002,-9.4
1698744367755.0,16,1.6,-0.2,0.1,1.7000000000000002,8.3,4.3,1.0,-0.5,-1.4
1698744367772.0,16,1.3,0.2,-0.7000000000000001,1.4000000000000001,8.700000000000001,3.5,1.5000000000000002,6.4,2.1
1698744367788.0,16,0.5,0.7000000000000001,-0.9,0.6000000000000001,9.3,3.3000000000000003,-0.8,8.9,2.3000000000000003
1698744367805.0,16,-1.2000000000000002,1.0,-0.8,-1.1,9.600000000000001,3.3000000000000003,-3.2,12.200000000000001,-4.3999999999999995
1698744367822.0,16,-2.0,0.5,-0.8,-1.7000000000000002,9.4,3.3000000000000003,-0.9,11.700000000000001,-8.200000000000001
1698744367839.0,16,-1.8,0.2,-0.4,-1.7000000000000002,8.8,3.7,10.600000000000001,4.3999999999999995,-14.700000000000001
1698744367855.0,16,-1.2000000000000002,0.1,0.2,-1.3,8.8,4.3,19.6,-2.5,-18.8
1698744367873.0,16,-0.1,0.2,0.9,-0.2,8.9,4.9,12.5,-0.9,-19.8
1698744367889.0,16,0.5,0.30000000000000004,1.0,0.4,8.9,5.0,9.0,0.9,-20.6
1698744367905.0,16,1.1,0.30000000000000004,0.8,1.0,8.9,4.800000000000001,8.5,3.1,-22.5
1698744367922.0,16,0.1,0.2,0.7000000000000001,-0.1,8.9,4.7,7.300000000000001,0.6000000000000001,-19.6
1698744367940.0,16,-0.4,0.0,0.7000000000000001,-0.7000000000000001,8.700000000000001,4.6000000000000005,5.500000000000001,0.30000000000000004,-18.1
1698744367955.0,16,-1.0,-0.30000000000000004,1.0,-1.3,8.4,5.0,4.7,-2.8,-18.1
1698744367972.0,16,-1.0,-0.6000000000000001,1.4000000000000001,-1.4000000000000001,8.1,5.300000000000001,9.700000000000001,-8.700000000000001,-19.1
1698744367989.0,16,-0.7000000000000001,-0.7000000000000001,1.4000000000000001,-1.1,7.9,5.300000000000001,10.4,-10.0,-18.2
1698744368005.0,16,0.5,-0.9,1.4000000000000001,0.1,7.800000000000001,5.300000000000001,7.1000000000000005,-9.0,-14.0
1698744368022.0,16,1.1,-1.0,1.1,0.6000000000000001,7.7,5.0,4.800000000000001,-5.8,-8.200000000000001
1698744368039.0,16,1.1,-1.0,1.0,0.7000000000000001,7.7,5.0,3.8,-5.2,-5.7
1698744368056.0,16,1.0,-1.1,1.0,0.6000000000000001,7.6000000000000005,4.9,1.0,-5.6,-3.0000000000000004
1698744368075.0,16,0.6000000000000001,-1.0,1.0,0.2,7.7,4.9,-1.8,-4.5,-0.9
1698744368092.0,16,0.4,-0.9,1.0,0.0,7.800000000000001,4.9,-1.7,-2.0,0.0
1698744368105.0,16,0.30000000000000004,-0.9,0.9,-0.1,7.7,4.9,-0.30000000000000004,-0.7,-0.6000000000000001
1698744368122.0,16,0.4,-0.7000000000000001,0.9,-0.1,7.9,4.9,3.0000000000000004,1.9,-0.9
1698744368139.0,16,0.30000000000000004,-0.5,0.9,-0.1,8.200000000000001,4.9,3.0000000000000004,3.7000000000000006,0.6000000000000001
1698744368156.0,16,0.30000000000000004,-0.1,1.1,-0.1,8.6,5.0,0.8,5.8,4.2
1698744368172.0,16,0.5,0.0,1.1,0.1,8.6,5.0,1.5000000000000002,6.9,8.4
1698744368189.0,16,0.6000000000000001,0.0,0.9,0.2,8.700000000000001,4.9,1.8,7.300000000000001,11.1
1698744368206.0,16,0.30000000000000004,0.1,0.4,-0.1,8.700000000000001,4.4,-2.1,7.6,16.2
1698744368222.0,16,0.0,0.0,0.30000000000000004,-0.6000000000000001,8.5,4.3,-6.1000000000000005,5.500000000000001,20.4
1698744368239.0,16,-0.30000000000000004,-0.2,0.2,-0.6000000000000001,8.4,4.3,-6.4,4.0,21.400000000000002
1698744368256.0,16,0.2,-0.30000000000000004,0.2,0.0,8.3,4.2,-4.5,2.3000000000000003,18.900000000000002
1698744368274.0,16,0.6000000000000001,-0.1,-0.1,0.4,8.5,4.0,-4.2,2.3000000000000003,15.5
1698744368289.0,16,0.30000000000000004,-0.1,0.1,0.1,8.6,4.1000000000000005,-5.300000000000001,2.7,14.0
1698744368305.0,16,0.4,-0.1,-0.2,0.2,8.5,3.9000000000000004,-4.6000000000000005,8.799999999999999,16.0
1698744368322.0,16,0.4,-0.2,-0.1,0.30000000000000004,8.5,4.0,-4.300000000000001,13.6,17.8
1698744368339.0,16,0.6000000000000001,-0.2,-0.2,0.5,8.4,3.9000000000000004,-4.0,18.400000000000002,20.0
1698744368355.0,16,0.7000000000000001,-0.2,-0.30000000000000004,0.7000000000000001,8.4,3.8000000000000003,-3.8,20.8,21.6
1698744368372.0,16,0.6000000000000001,-0.1,-0.30000000000000004,0.7000000000000001,8.5,3.8000000000000003,-2.3000000000000003,24.1,24.200000000000003
1698744368388.0,16,0.8,-0.1,-0.30000000000000004,0.9,8.5,3.8000000000000003,-1.0999999999999999,26.3,24.400000000000002
1698744368406.0,16,0.7000000000000001,0.0,-0.4,0.7000000000000001,8.6,3.7,1.0,31.0,22.000000000000004
1698744368422.0,16,0.6000000000000001,0.0,-0.5,0.7000000000000001,8.700000000000001,3.6,1.8,32.9,23.2
1698744368440.0,16,0.5,-0.1,-0.5,0.6000000000000001,8.5,3.6,2.0,33.2,22.7
1698744368455.0,16,0.4,0.1,-0.6000000000000001,0.6000000000000001,8.700000000000001,3.4000000000000004,2.7,36.0,21.5
1698744368472.0,16,0.30000000000000004,0.1,-0.6000000000000001,0.5,8.8,3.4000000000000004,2.4000000000000004,39.6,21.6
1698744368488.0,16,0.4,0.2,-0.6000000000000001,0.6000000000000001,8.8,3.5,2.4000000000000004,41.800000000000004,22.000000000000004
1698744368505.0,16,0.4,0.1,-0.6000000000000001,0.6000000000000001,8.8,3.4000000000000004,2.6,43.50000000000001,21.400000000000002
1698744368522.0,16,0.6000000000000001,0.1,-0.8,0.7000000000000001,8.700000000000001,3.3000000000000003,2.1999999999999997,46.4,21.900000000000002
1698744368539.0,16,0.5,0.2,-0.8,0.6000000000000001,8.8,3.3000000000000003,1.4,48.7,23.8
1698744368556.0,16,0.5,0.1,-0.8,0.6000000000000001,8.700000000000001,3.2,0.8,50.0,23.900000000000002
1698744368573.0,16,0.5,0.0,-0.8,0.7000000000000001,8.6,3.2,0.1,53.2,23.0
1698744368591.0,16,0.6000000000000001,0.2,-0.9,0.7000000000000001,8.700000000000001,3.1,-0.1,55.7,22.4
1698744368605.0,16,0.7000000000000001,0.2,-1.0,0.9,8.8,2.9000000000000004,0.0,62.0,21.200000000000003
1698744368622.0,16,0.6000000000000001,0.2,-1.1,0.7000000000000001,8.9,2.9000000000000004,0.2,66.2,22.4
1698744368638.0,16,0.7000000000000001,0.2,-1.1,0.9,8.8,2.8000000000000003,1.8,71.4,21.900000000000002
1698744368655.0,16,0.8,0.1,-1.1,0.9,8.700000000000001,2.8000000000000003,2.1,73.9,22.2
1698744368672.0,16,0.7000000000000001,0.2,-1.2000000000000002,0.8,8.9,2.7,2.8,76.3,23.6
1698744368689.0,16,0.7000000000000001,0.5,-1.4000000000000001,0.7000000000000001,9.1,2.5,2.1999999999999997,81.8,22.7
1698744368705.0,16,0.7000000000000001,0.5,-1.5,0.8,9.1,2.4000000000000004,1.4,86.9,21.200000000000003
1698744368722.0,16,1.1,0.8,-1.4000000000000001,1.1,9.4,2.5,1.5000000000000002,93.0,21.1
1698744368738.0,16,-0.2,2.1,-0.1,-0.30000000000000004,10.8,3.8000000000000003,4.5,94.60000000000001,26.6
1698744368755.0,16,-1.0,2.5,0.1,-1.1,11.200000000000001,4.0,2.6,94.0,30.5
1698744368772.0,16,-1.0,1.1,-0.2,-1.1,9.8,3.7,-13.200000000000001,84.7,30.000000000000004
1698744368790.0,16,-0.8,0.4,0.2,-0.9,9.1,4.1000000000000005,-12.3,80.8,26.500000000000004
1698744368805.0,16,-0.8,0.7000000000000001,0.0,-1.0,9.4,4.0,-7.699999999999999,81.30000000000001,26.9
1698744368822.0,16,-0.5,0.8,-0.2,-0.8,9.4,3.8000000000000003,-6.8,80.30000000000001,26.9
1698744368838.0,16,-0.30000000000000004,0.5,-0.1,-0.6000000000000001,9.1,3.8000000000000003,-7.1000000000000005,77.1,27.900000000000002
1698744368855.0,16,-0.4,0.1,-0.1,-0.7000000000000001,8.8,3.9000000000000004,-2.3000000000000003,69.9,30.799999999999997
1698744368872.0,16,-1.0,0.4,0.4,-1.3,9.1,4.4,2.4000000000000004,65.5,33.5
1698744368889.0,16,-1.1,0.5,0.7000000000000001,-1.3,9.200000000000001,4.800000000000001,1.9,59.9,34.7
1698744368906.0,16,-1.0,0.4,0.9,-1.2000000000000002,9.1,4.800000000000001,-0.1,59.7,34.7
1698744368922.0,16,-0.5,0.1,1.0,-0.8,8.8,4.9,1.0999999999999999,64.50000000000001,35.7
1698744368938.0,16,-0.2,-0.1,1.3,-0.4,8.6,5.300000000000001,8.700000000000001,71.6,38.6
1698744368955.0,16,-0.1,-0.5,1.5,-0.4,8.5,5.300000000000001,9.9,82.50000000000001,43.800000000000004
1698744368972.0,16,-0.2,-0.7000000000000001,1.5,-0.4,8.1,5.4,7.6,88.2,45.7
1698744368988.0,16,-0.4,-0.7000000000000001,1.2000000000000002,-0.5,8.0,5.1000000000000005,1.9,95.5,48.00000000000001
1698744369005.0,16,-0.5,-0.7000000000000001,1.0,-0.6000000000000001,8.1,4.9,-0.6000000000000001,96.60000000000001,48.50000000000001
1698744369022.0,16,-0.8,-0.5,0.8,-0.9,8.200000000000001,4.800000000000001,-3.3000000000000003,96.2,48.2
1698744369038.0,16,-0.9,-0.4,0.7000000000000001,-1.1,8.3,4.6000000000000005,-3.1,93.80000000000001,46.6
1698744369055.0,16,-1.1,-0.4,0.5,-1.1,8.3,4.6000000000000005,-2.9,93.2,45.7
1698744369072.0,16,-1.3,-0.4,0.5,-1.4000000000000001,8.3,4.4,-2.5,90.5,44.3
1698744369089.0,16,-1.4000000000000001,-0.6000000000000001,0.2,-1.5,8.1,4.2,-2.7,88.4,42.1
1698744369112.0,16,-1.4000000000000001,-0.7000000000000001,0.2,-1.5,8.0,4.1000000000000005,-4.300000000000001,86.9,41.6
1698744369122.0,16,-1.2000000000000002,-0.6000000000000001,0.30000000000000004,-1.4000000000000001,8.0,4.3,-3.4,88.3,41.2
1698744369139.0,16,-0.6000000000000001,-0.7000000000000001,0.30000000000000004,-0.8,8.0,4.3,0.8,90.7,39.6
1698744369155.0,16,-0.4,-0.5,0.2,-0.6000000000000001,8.200000000000001,4.2,1.5000000000000002,96.5,40.8
1698744369172.0,16,-0.4,-0.4,0.2,-0.6000000000000001,8.3,4.2,0.1,99.9,42.400000000000006
1698744369188.0,16,-0.7000000000000001,-0.30000000000000004,0.1,-0.8,8.4,4.1000000000000005,-3.3000000000000003,104.3,46.5
1698744369204.0,16,-0.6000000000000001,-0.5,0.2,-0.8,8.200000000000001,4.1000000000000005,-4.0,104.7,50.1
1698744369222.0,16,-0.6000000000000001,-0.5,0.1,-0.8,8.200000000000001,4.1000000000000005,-3.0000000000000004,102.2,50.300000000000004
1698744369238.0,16,-0.30000000000000004,-0.5,0.30000000000000004,-0.5,8.200000000000001,4.3,-2.8,102.4,48.9
1698744369255.0,16,-0.2,-0.4,0.4,-0.4,8.200000000000001,4.4,-3.4,106.2,47.1
1698744369272.0,16,-0.2,-0.30000000000000004,0.4,-0.4,8.3,4.4,-3.7000000000000006,108.7,46.6
1698744369289.0,16,-0.6000000000000001,0.0,0.30000000000000004,-0.8,8.700000000000001,4.3,-5.7,111.2,47.0
1698744369305.0,16,-0.9,0.1,0.1,-1.1,8.700000000000001,4.1000000000000005,-9.8,111.80000000000001,50.4
1698744369322.0,16,-1.0,0.0,0.1,-1.2000000000000002,8.6,4.1000000000000005,-10.3,109.8,52.300000000000004
1698744369338.0,16,-1.2000000000000002,0.1,0.2,-1.4000000000000001,8.8,4.2,-9.600000000000001,104.4,53.7
1698744369355.0,16,-1.1,0.4,0.4,-1.3,9.0,4.4,-11.700000000000001,101.30000000000001,53.50000000000001
1698744369372.0,16,-1.1,0.30000000000000004,0.4,-1.3,8.9,4.5,-13.6,97.9,52.800000000000004
1698744369389.0,16,-1.5,0.1,0.4,-1.7000000000000002,8.700000000000001,4.5,-16.400000000000002,90.7,49.3
1698744369406.0,16,-1.6,0.2,0.30000000000000004,-1.8,8.8,4.5,-16.900000000000002,89.9,46.300000000000004
1698744369422.0,16,-1.5,0.1,0.30000000000000004,-1.8,8.700000000000001,4.5,-17.7,84.9,39.699999999999996
1698744369438.0,16,-1.4000000000000001,-0.1,0.2,-1.7000000000000002,8.5,4.5,-18.400000000000002,82.10000000000001,35.199999999999996
1698744369455.0,16,-1.5,-0.1,0.0,-1.8,8.4,4.3,-17.0,80.8,32.1
1698744369472.0,16,-1.4000000000000001,-0.2,0.0,-1.7000000000000002,8.4,4.4,-16.6,79.8,30.7
1698744369489.0,16,-1.5,-0.2,0.2,-1.8,8.3,4.5,-17.400000000000002,76.80000000000001,30.7
1698744369506.0,16,-1.9000000000000001,-0.2,0.2,-2.3000000000000003,8.3,4.6000000000000005,-21.700000000000003,75.2,33.900000000000006
1698744369522.0,16,-2.0,-0.1,0.2,-2.3000000000000003,8.3,4.7,-23.6,74.4,34.7
1698744369539.0,16,-1.9000000000000001,0.0,0.2,-2.4000000000000004,8.4,4.7,-22.8,69.7,32.0
1698744369557.0,16,-1.9000000000000001,0.0,0.2,-2.3000000000000003,8.4,4.7,-19.1,62.8,29.1
1698744369572.0,16,-1.8,0.1,0.2,-2.3000000000000003,8.5,4.800000000000001,-18.3,56.7,27.6
1698744369589.0,16,-1.9000000000000001,0.2,0.30000000000000004,-2.4000000000000004,8.5,4.9,-19.1,54.7,26.700000000000003
1698744369605.0,16,-1.8,0.0,0.30000000000000004,-2.3000000000000003,8.3,5.0,-19.3,49.2,24.6
1698744369622.0,16,-1.9000000000000001,0.2,0.30000000000000004,-2.4000000000000004,8.5,5.0,-18.0,46.0,23.3
1698744369639.0,16,-1.8,0.0,0.30000000000000004,-2.4000000000000004,8.3,5.1000000000000005,-16.3,44.5,20.2
1698744369655.0,16,-1.6,-0.30000000000000004,0.1,-2.2,7.9,4.9,-16.700000000000003,40.1,19.400000000000002
1698744369671.0,16,-1.5,-0.30000000000000004,0.1,-2.1,7.9,4.9,-17.0,34.50000000000001,18.0
1698744369688.0,16,-1.2000000000000002,-0.6000000000000001,0.0,-1.8,7.6000000000000005,4.800000000000001,-15.5,30.4,17.5
1698744369705.0,16,-1.6,0.0,0.0,-2.2,8.200000000000001,4.9,-12.3,28.200000000000003,17.200000000000003
1698744369722.0,16,-1.3,-0.5,-0.30000000000000004,-2.1,8.0,4.9,-11.6,27.7,17.3
1698744369739.0,16,-1.4000000000000001,-0.4,-0.2,-2.0,7.800000000000001,4.7,-12.700000000000001,24.000000000000004,18.0
1698744369755.0,16,-1.3,-0.30000000000000004,-0.2,-1.9000000000000001,7.800000000000001,4.800000000000001,-10.5,18.900000000000002,19.6
1698744369772.0,16,-1.5,0.1,-0.1,-1.9000000000000001,7.9,4.800000000000001,-8.3,15.8,19.1
1698744369789.0,16,-1.2000000000000002,0.0,0.1,-1.8,8.200000000000001,5.1000000000000005,-5.500000000000001,17.400000000000002,19.400000000000002
1698744369805.0,16,-1.1,-0.2,0.2,-1.7000000000000002,7.9,5.2,-5.6,18.3,21.3
1698744369822.0,16,-1.2000000000000002,-0.4,0.0,-1.7000000000000002,7.800000000000001,5.0,-8.3,16.900000000000002,21.900000000000002
1698744369839.0,16,-1.3,-0.30000000000000004,0.1,-1.9000000000000001,7.800000000000001,5.2,-9.200000000000001,16.2,22.000000000000004
1698744369855.0,16,-1.4000000000000001,-0.5,0.0,-1.9000000000000001,7.6000000000000005,5.0,-7.300000000000001,14.800000000000002,21.1
1698744369872.0,16,-1.4000000000000001,-0.2,0.0,-1.9000000000000001,7.800000000000001,5.0,-2.1999999999999997,12.3,19.200000000000003
1698744369889.0,16,-1.4000000000000001,-0.1,0.0,-1.9000000000000001,8.0,5.0,0.4,10.1,18.0
1698744369905.0,16,-1.6,0.0,0.1,-2.1,8.1,5.1000000000000005,1.7,8.9,16.1
1698744369922.0,16,-1.4000000000000001,0.2,0.30000000000000004,-1.8,8.3,5.300000000000001,4.5,9.9,12.5
1698744369938.0,16,-1.2000000000000002,0.4,0.5,-1.7000000000000002,8.5,5.5,8.0,10.3,10.2
1698744369955.0,16,-1.1,0.6000000000000001,0.5,-1.6,8.700000000000001,5.5,12.6,13.8,6.6000000000000005
1698744369972.0,16,-0.9,0.6000000000000001,0.7000000000000001,-1.4000000000000001,8.700000000000001,5.6000000000000005,12.6,21.6,4.7
1698744369988.0,16,-0.5,0.7000000000000001,0.9,-1.0,8.8,5.9,14.0,25.6,3.3000000000000003
1698744370005.0,16,-0.7000000000000001,0.6000000000000001,0.30000000000000004,-1.3,8.8,5.2,15.2,32.4,4.7
1698744370022.0,16,-1.2000000000000002,-0.1,-0.2,-1.5,8.5,4.9,11.5,34.6,12.3
1698744370039.0,16,-1.5,-0.4,-0.30000000000000004,-2.1,7.800000000000001,4.5,11.2,33.300000000000004,13.9
1698744370055.0,16,-1.5,-0.6000000000000001,-0.1,-2.1,7.7,4.7,15.9,27.1,15.399999999999999
1698744370072.0,16,-1.3,-0.6000000000000001,0.1,-1.9000000000000001,7.7,4.800000000000001,20.0,22.900000000000002,14.100000000000001
1698744370088.0,16,-0.6000000000000001,-0.5,0.4,-1.2000000000000002,7.800000000000001,5.0,24.7,15.7,13.0
1698744370124.0,16,0.5,-0.5,0.8,-0.1,7.9,5.300000000000001,17.400000000000002,17.7,16.400000000000002
1698744370138.0,16,0.8,-0.5,0.8,0.30000000000000004,7.9,5.4,13.700000000000001,19.400000000000002,20.2
1698744370155.0,16,0.9,-0.5,1.0,0.30000000000000004,7.9,5.5,12.5,20.7,22.4
1698744370172.0,16,0.6000000000000001,-0.8,1.2000000000000002,0.1,7.6000000000000005,5.7,10.1,23.0,25.700000000000003
1698744370188.0,16,0.5,-1.0,1.3,0.1,7.4,5.7,8.9,23.5,25.8
1698744370206.0,16,0.7000000000000001,-1.3,1.2000000000000002,0.30000000000000004,7.1000000000000005,5.7,7.699999999999999,24.1,25.8
1698744370221.0,16,1.2000000000000002,-1.4000000000000001,1.2000000000000002,0.8,7.1000000000000005,5.6000000000000005,9.600000000000001,28.8,26.0
1698744370239.0,16,2.0,-1.4000000000000001,1.3,1.7000000000000002,7.1000000000000005,5.7,12.5,36.7,27.1
1698744370255.0,16,2.4000000000000004,-1.5,1.3,2.0,7.0,5.7,13.200000000000001,41.6,28.200000000000003
1698744370272.0,16,2.9000000000000004,-1.5,1.4000000000000001,2.6,7.0,5.7,13.9,52.50000000000001,31.2
1698744370289.0,16,2.9000000000000004,-1.3,1.3,2.6,7.2,5.7,14.200000000000001,58.3,33.400000000000006
1698744370305.0,16,2.5,-0.6000000000000001,1.5,2.2,7.9,5.800000000000001,13.100000000000001,67.0,38.800000000000004
1698744370322.0,16,1.9000000000000001,0.2,1.5,1.7000000000000002,8.700000000000001,5.800000000000001,11.3,73.50000000000001,42.5
1698744370339.0,16,1.4000000000000001,0.1,0.9,1.2000000000000002,8.700000000000001,5.2,11.4,78.80000000000001,45.5
1698744370355.0,16,1.4000000000000001,-0.1,0.8,1.3,8.4,5.0,13.8,82.0,46.6
1698744370372.0,16,1.8,-0.5,0.9,1.6,8.1,5.0,22.900000000000002,89.6,48.800000000000004
1698744370390.0,16,1.8,-0.4,1.1,1.7000000000000002,8.200000000000001,5.2,26.8,95.7,50.1
1698744370405.0,16,1.9000000000000001,-0.4,1.0,1.9000000000000001,8.3,5.0,25.700000000000003,102.60000000000001,54.3
1698744370422.0,16,1.1,-0.1,0.9,1.0,8.6,4.9,15.9,101.9,62.0
1698744370438.0,16,0.30000000000000004,0.2,0.7000000000000001,0.30000000000000004,8.9,4.6000000000000005,9.4,98.8,65.3
1698744370455.0,16,0.1,0.30000000000000004,0.7000000000000001,0.1,9.0,4.6000000000000005,8.0,96.5,65.2
1698744370472.0,16,-0.1,0.2,0.30000000000000004,0.0,8.9,4.2,8.3,94.4,61.8
1698744370489.0,16,-0.1,0.2,0.30000000000000004,0.0,8.9,4.2,8.600000000000001,95.1,58.9
1698744370506.0,16,0.0,0.2,0.30000000000000004,0.2,8.9,4.2,9.4,98.6,53.50000000000001
1698744370522.0,16,0.0,0.2,0.4,0.1,8.9,4.3,6.8,102.30000000000001,52.900000000000006
1698744370538.0,16,0.1,-0.1,0.1,0.4,8.6,4.0,3.0000000000000004,104.2,56.5
1698744370555.0,16,0.0,-0.1,0.1,0.30000000000000004,8.6,4.0,1.8,103.0,58.2
1698744370572.0,16,-0.6000000000000001,0.2,0.1,-0.30000000000000004,8.9,4.0,1.4,97.7,57.800000000000004
1698744370588.0,16,-0.8,0.2,0.1,-0.6000000000000001,9.1,3.8000000000000003,1.6,95.1,59.20000000000001
1698744370605.0,16,-1.0,0.5,-0.1,-0.6000000000000001,9.200000000000001,3.8000000000000003,0.7,91.9,57.9
1698744370622.0,16,-1.1,0.5,-0.2,-0.7000000000000001,9.200000000000001,3.7,-1.0,85.1,53.50000000000001
1698744370638.0,16,-1.3,0.4,-0.2,-0.9,9.1,3.7,-2.1999999999999997,77.1,49.1
1698744370655.0,16,-1.3,0.30000000000000004,-0.2,-0.9,9.0,3.7,-2.1999999999999997,73.0,47.2
1698744370672.0,16,-1.4000000000000001,0.1,-0.2,-0.9,8.8,3.8000000000000003,-3.1,66.1,43.800000000000004
1698744370689.0,16,-1.4000000000000001,0.2,-0.2,-0.9,8.9,3.8000000000000003,-4.2,62.900000000000006,42.300000000000004
1698744370705.0,16,-1.4000000000000001,0.2,-0.30000000000000004,-0.9,8.9,3.7,-7.0,55.900000000000006,39.1
1698744370722.0,16,-1.4000000000000001,0.1,-0.30000000000000004,-0.9,8.8,3.7,-8.0,48.2,35.0
1698744370738.0,16,-1.2000000000000002,0.0,-0.5,-0.6000000000000001,8.6,3.6,-8.1,41.300000000000004,30.5
1698744370756.0,16,-1.0,-0.1,-0.5,-0.5,8.5,3.6,-8.600000000000001,38.7,28.6
1698744370771.0,16,-0.8,0.0,-0.4,-0.2,8.6,3.7,-10.1,34.800000000000004,25.2
1698744370788.0,16,-0.9,-0.1,-0.4,-0.30000000000000004,8.5,3.8000000000000003,-11.4,31.2,22.900000000000002
1698744370806.0,16,-0.9,-0.1,-0.5,-0.30000000000000004,8.4,3.6,-11.8,27.900000000000002,20.6
1698744370821.0,16,-1.0,-0.30000000000000004,-0.6000000000000001,-0.30000000000000004,8.200000000000001,3.6,-11.3,26.9,19.3
1698744370838.0,16,-0.8,-0.30000000000000004,-0.6000000000000001,-0.2,8.200000000000001,3.6,-10.2,25.400000000000002,16.400000000000002
1698744370855.0,16,-0.7000000000000001,-0.30000000000000004,-0.6000000000000001,-0.1,8.3,3.6,-9.700000000000001,24.5,15.000000000000002
1698744370872.0,16,-0.6000000000000001,-0.30000000000000004,-0.7000000000000001,0.0,8.200000000000001,3.6,-8.3,22.900000000000002,11.700000000000001
1698744370888.0,16,-0.4,-0.4,-0.6000000000000001,0.2,8.1,3.6,-5.7,23.1,9.5
1698744370905.0,16,-0.4,-0.5,-0.6000000000000001,0.2,8.0,3.7,-4.300000000000001,24.200000000000003,8.9
1698744370921.0,16,-0.4,-0.5,-0.7000000000000001,0.2,7.9,3.6,-1.4,26.1,8.200000000000001
1698744370938.0,16,-0.6000000000000001,-0.30000000000000004,-0.8,-0.1,8.200000000000001,3.5,0.30000000000000004,27.8,8.600000000000001
1698744370955.0,16,-0.7000000000000001,-0.1,-0.9,-0.1,8.3,3.4000000000000004,0.9,28.3,9.3
1698744370972.0,16,-0.5,0.0,-1.1,0.0,8.5,3.2,3.9,29.800000000000004,8.700000000000001
1698744370989.0,16,-0.2,0.2,-1.3,0.30000000000000004,8.6,2.9000000000000004,9.3,34.6,8.9
1698744371005.0,16,-0.1,0.2,-1.3,0.4,8.700000000000001,3.0,12.4,36.3,9.3
1698744371022.0,16,-1.3,2.1,1.1,-0.8,10.600000000000001,5.300000000000001,20.7,29.500000000000004,15.5
1698744371039.0,16,-2.6,1.3,0.0,-2.1,9.9,4.1000000000000005,12.700000000000001,7.8,22.8
1698744371055.0,16,-1.8,-0.2,-0.1,-1.3,8.4,4.0,1.8,-0.2,17.3
1698744371072.0,16,-1.6,0.2,1.1,-1.0,8.8,5.2,8.600000000000001,-4.9,6.8
1698744371088.0,16,-0.9,0.8,0.1,-0.4,9.4,4.2,10.9,-3.9,2.1999999999999997
1698744371105.0,16,0.0,0.8,-0.30000000000000004,0.6000000000000001,9.4,3.8000000000000003,2.4000000000000004,-0.6000000000000001,-4.3999999999999995
1698744371122.0,16,0.2,0.8,-0.30000000000000004,0.8,9.4,3.7,6.3,1.2000000000000002,-3.3000000000000003
1698744371138.0,16,-0.1,0.8,-0.2,0.4,9.5,3.8000000000000003,20.5,-0.30000000000000004,2.3000000000000003
1698744371155.0,16,-0.4,0.6000000000000001,1.3,0.1,9.3,5.2,29.600000000000005,-10.3,9.1
1698744371172.0,16,-0.7000000000000001,0.7000000000000001,1.9000000000000001,-0.1,9.4,5.800000000000001,29.600000000000005,-16.8,13.200000000000001
1698744371188.0,16,-0.5,0.0,1.2000000000000002,0.2,8.700000000000001,5.1000000000000005,17.0,-13.0,16.2
1698744371205.0,16,1.0,-0.5,1.2000000000000002,1.7000000000000002,8.200000000000001,5.0,16.1,-3.8,11.3
1698744371222.0,16,1.1,-0.5,1.4000000000000001,1.9000000000000001,8.200000000000001,5.2,22.1,2.0,10.1
1698744371239.0,16,0.8,-0.8,2.0,1.6,8.0,5.7,28.400000000000002,12.000000000000002,15.000000000000002
1698744371255.0,16,-0.1,-1.2000000000000002,1.9000000000000001,1.1,7.7,5.800000000000001,24.9,15.2,18.0
1698744371272.0,16,-0.2,-1.3,1.8,0.6000000000000001,7.5,5.4,11.6,17.8,21.5
1698744371289.0,16,-0.4,-1.4000000000000001,1.6,0.5,7.4,5.300000000000001,10.2,13.4,18.8
1698744371305.0,16,-0.5,-1.3,1.6,0.4,7.5,5.2,16.0,10.9,14.500000000000002
1698744371322.0,16,-0.6000000000000001,-1.1,1.6,0.30000000000000004,7.7,5.2,16.0,10.8,12.200000000000001
1698744371338.0,16,-0.8,-0.8,1.5,0.1,8.0,5.1000000000000005,12.700000000000001,12.6,8.600000000000001
1698744371356.0,16,-0.9,-0.6000000000000001,1.4000000000000001,0.0,8.200000000000001,5.0,11.6,17.400000000000002,5.8
1698744371372.0,16,-0.7000000000000001,-0.5,1.4000000000000001,0.2,8.3,4.9,12.700000000000001,20.4,4.7
1698744371389.0,16,-0.2,-0.4,1.4000000000000001,0.6000000000000001,8.4,4.9,14.900000000000002,24.400000000000002,2.6
1698744371405.0,16,0.0,-0.4,1.3,0.8,8.4,4.9,14.0,25.8,1.5000000000000002
1698744371422.0,16,-0.2,-0.30000000000000004,1.1,0.7000000000000001,8.5,4.6000000000000005,7.500000000000001,28.500000000000004,-1.3
1698744371439.0,16,-0.5,-0.2,0.8,0.30000000000000004,8.700000000000001,4.3,1.0999999999999999,30.299999999999997,-4.7
1698744371456.0,16,-0.7000000000000001,-0.1,0.8,0.1,8.8,4.3,-1.0999999999999999,30.4,-8.4
1698744371474.0,16,-0.9,-0.1,0.7000000000000001,-0.2,8.8,4.3,-1.4,29.900000000000006,-10.2
1698744371489.0,16,-1.0,-0.2,0.6000000000000001,-0.5,8.6,4.2,-3.8,28.0,-13.3
1698744371505.0,16,-1.1,0.0,0.4,-0.6000000000000001,8.8,4.0,-8.3,24.3,-14.700000000000001
1698744371522.0,16,-1.1,0.0,0.30000000000000004,-0.6000000000000001,8.8,3.9000000000000004,-11.2,22.3,-14.900000000000002
1698744371538.0,16,-1.0,0.1,0.1,-0.6000000000000001,8.9,3.7,-13.700000000000001,20.3,-14.900000000000002
1698744371555.0,16,-0.8,0.1,-0.1,-0.5,9.0,3.6,-12.200000000000001,15.7,-14.3
1698744371572.0,16,-0.8,0.2,-0.1,-0.5,9.0,3.6,-12.3,13.700000000000001,-13.5
1698744371589.0,16,-0.8,0.1,-0.30000000000000004,-0.6000000000000001,8.9,3.5,-14.700000000000001,11.3,-11.8
1698744371605.0,16,-0.8,0.0,-0.5,-0.6000000000000001,8.700000000000001,3.3000000000000003,-16.5,8.0,-11.5
1698744371621.0,16,-0.8,-0.1,-0.6000000000000001,-0.6000000000000001,8.6,3.3000000000000003,-16.400000000000002,5.2,-10.3
1698744371639.0,16,-0.7000000000000001,-0.1,-0.6000000000000001,-0.6000000000000001,8.6,3.3000000000000003,-15.9,4.300000000000001,-9.5
1698744371655.0,16,-0.7000000000000001,-0.30000000000000004,-0.6000000000000001,-0.6000000000000001,8.4,3.3000000000000003,-14.700000000000001,2.1999999999999997,-7.1000000000000005
1698744371672.0,16,-0.6000000000000001,-0.4,-0.7000000000000001,-0.6000000000000001,8.3,3.2,-13.9,1.4,-6.000000000000001
1698744371689.0,16,-0.6000000000000001,-0.6000000000000001,-0.8,-0.6000000000000001,8.1,3.1,-11.700000000000001,-0.5,-3.1
1698744371705.0,16,-0.8,-0.4,-0.9,-0.7000000000000001,8.3,3.1,-10.3,-3.1,-1.0
1698744371722.0,16,-0.8,-0.30000000000000004,-0.8,-0.8,8.3,3.2,-10.3,-4.1000000000000005,0.2
1698744371739.0,16,-1.0,-0.30000000000000004,-0.8,-1.0,8.4,3.3000000000000003,-9.3,-7.2,2.0
1698744371755.0,16,-1.2000000000000002,-0.4,-0.9,-1.1,8.200000000000001,3.2,-7.8,-11.5,3.8
1698744371772.0,16,-1.3,-0.5,-0.9,-1.2000000000000002,8.1,3.2,-6.1000000000000005,-13.6,4.0
1698744371789.0,16,-1.0,-0.4,-0.9,-0.9,8.200000000000001,3.2,-3.4,-17.7,2.6
1698744371806.0,16,-1.1,-0.2,-0.9,-1.0,8.4,3.2,-3.1,-21.900000000000002,2.8
1698744371822.0,16,-1.1,0.0,-0.7000000000000001,-1.0,8.6,3.3000000000000003,-3.5,-22.900000000000002,3.1
1698744371838.0,16,-1.2000000000000002,0.1,-0.6000000000000001,-1.0,8.700000000000001,3.5,-4.5,-23.2,3.3000000000000003
1698744371855.0,16,-1.0,0.1,-0.5,-0.8,8.700000000000001,3.5,-5.2,-22.8,3.9
1698744371873.0,16,-0.8,0.2,-0.6000000000000001,-0.6000000000000001,8.700000000000001,3.5,-5.1,-23.8,3.7000000000000006
1698744371889.0,16,-0.6000000000000001,0.4,-0.9,-0.4,8.8,3.4000000000000004,-4.7,-25.900000000000002,2.5
1698744371907.0,16,-0.8,0.6000000000000001,-1.1,-0.5,9.200000000000001,3.0,-3.1,-28.900000000000002,0.30000000000000004
1698744371922.0,16,-1.0,0.7000000000000001,-1.2000000000000002,-0.7000000000000001,9.200000000000001,2.8000000000000003,1.2000000000000002,-33.400000000000006,-3.0000000000000004
1698744371938.0,16,-1.0,0.9,-0.9,-0.7000000000000001,9.5,3.2,3.4,-36.4,-5.0
1698744371955.0,16,0.1,1.6,1.0,0.4,10.200000000000001,5.0,5.0,-32.4,-15.2
1698744371971.0,16,0.6000000000000001,1.1,0.9,0.9,9.700000000000001,5.0,-1.4,-12.5,-17.9
1698744371988.0,16,0.2,0.5,0.5,0.5,9.1,4.5,-3.1,-6.1000000000000005,-12.6
1698744372007.0,16,0.4,0.4,0.6000000000000001,0.7000000000000001,9.0,4.7,1.3,-0.6000000000000001,-7.6
1698744372024.0,16,0.4,1.2000000000000002,0.5,0.8,9.4,4.6000000000000005,1.6,3.4,-5.4
1698744372038.0,16,0.30000000000000004,1.5,0.5,0.5,10.100000000000001,4.6000000000000005,-5.4,9.9,-4.0
1698744372055.0,16,0.0,0.8,1.0,0.30000000000000004,9.5,5.1000000000000005,-1.8,4.2,-11.000000000000002
1698744372075.0,16,-0.6000000000000001,0.8,1.4000000000000001,-0.5,9.4,5.5,1.0999999999999999,-1.5000000000000002,-14.800000000000002
1698744372089.0,16,-0.9,0.8,1.7000000000000002,-0.7000000000000001,9.5,5.800000000000001,-1.9,-1.6,-15.9
1698744372105.0,16,-0.7000000000000001,0.6000000000000001,2.2,-0.6000000000000001,9.3,6.300000000000001,-6.2,3.2,-17.7
1698744372122.0,16,-0.4,0.1,1.9000000000000001,-0.4,8.8,6.1000000000000005,-6.3,9.1,-17.400000000000002
1698744372138.0,16,-0.5,-0.1,1.8,-0.5,8.5,6.0,-8.4,6.9,-14.900000000000002
1698744372155.0,16,-0.6000000000000001,-0.30000000000000004,1.4000000000000001,-0.6000000000000001,8.3,5.6000000000000005,-12.6,2.8,-8.200000000000001
1698744372171.0,16,-0.30000000000000004,-0.4,1.1,-0.4,8.200000000000001,5.4,-7.8,-5.2,-2.7
1698744372188.0,16,-0.2,-0.6000000000000001,1.1,-0.2,8.0,5.4,-2.1999999999999997,-8.0,-1.4
1698744372205.0,16,0.2,-1.3,1.0,0.1,7.300000000000001,5.300000000000001,6.9,-9.700000000000001,1.0
1698744372222.0,16,0.5,-1.7000000000000002,1.0,0.5,6.9,5.2,9.600000000000001,-9.3,4.300000000000001
1698744372238.0,16,0.6000000000000001,-1.8,0.8,0.6000000000000001,6.800000000000001,5.1000000000000005,9.4,-8.799999999999999,6.1000000000000005
1698744372255.0,16,0.9,-1.8,0.9,0.9,6.800000000000001,5.1000000000000005,10.3,-7.400000000000001,9.600000000000001
1698744372272.0,16,1.0,-1.7000000000000002,0.8,1.1,6.9,5.0,11.3,-7.2,11.6
1698744372289.0,16,1.0,-1.6,0.8,1.1,7.0,5.0,11.000000000000002,-6.000000000000001,12.000000000000002
1698744372305.0,16,0.9,-1.4000000000000001,0.9,1.1,7.2,5.0,10.700000000000001,-2.1999999999999997,12.5
1698744372322.0,16,1.0,-1.3,0.9,1.2000000000000002,7.300000000000001,5.1000000000000005,11.1,0.8,13.100000000000001
1698744372338.0,16,1.1,-1.1,1.0,1.3,7.5,5.1000000000000005,12.9,7.8,14.200000000000001
1698744372355.0,16,1.0,-1.0,1.1,1.3,7.6000000000000005,5.2,14.4,11.4,15.2
1698744372372.0,16,0.8,-0.4,1.0,1.1,8.3,5.1000000000000005,14.600000000000001,18.0,18.8
1698744372389.0,16,0.9,-0.2,0.9,1.2000000000000002,8.4,4.9,13.200000000000001,24.1,22.7
1698744372405.0,16,0.9,-0.4,0.7000000000000001,1.3,8.200000000000001,4.800000000000001,13.5,28.200000000000003,26.500000000000004
1698744372421.0,16,0.8,-0.7000000000000001,0.6000000000000001,1.3,8.0,4.6000000000000005,13.700000000000001,33.2,29.300000000000004
1698744372438.0,16,0.9,-0.8,0.5,1.3,7.9,4.4,11.5,36.3,31.099999999999998
1698744372455.0,16,0.4,-0.6000000000000001,0.5,0.9,8.1,4.5,9.8,37.4,31.8
1698744372471.0,16,0.2,-0.4,0.6000000000000001,0.7000000000000001,8.3,4.5,8.799999999999999,40.8,36.3
1698744372488.0,16,0.1,-0.30000000000000004,0.5,0.7000000000000001,8.4,4.4,9.0,42.1,37.1
1698744372505.0,16,0.30000000000000004,-0.1,0.30000000000000004,0.9,8.6,4.2,9.1,45.0,38.2
1698744372522.0,16,0.30000000000000004,-0.30000000000000004,0.30000000000000004,1.0,8.4,4.2,6.9,43.800000000000004,36.3
1698744372538.0,16,0.1,-0.30000000000000004,0.2,0.8,8.4,4.1000000000000005,5.4,42.400000000000006,34.900000000000006
1698744372555.0,16,-0.5,-0.2,0.1,0.30000000000000004,8.5,4.0,4.1000000000000005,41.9,34.50000000000001
1698744372572.0,16,-0.9,-0.1,0.0,-0.1,8.5,3.9000000000000004,1.5000000000000002,39.50000000000001,33.300000000000004
1698744372588.0,16,-1.0,-0.30000000000000004,-0.1,-0.1,8.5,3.9000000000000004,0.1,38.1,32.6
1698744372605.0,16,-1.2000000000000002,-0.4,0.0,-0.30000000000000004,8.3,3.9000000000000004,-1.6,32.800000000000004,31.099999999999998
1698744372623.0,16,-0.8,-0.30000000000000004,0.1,0.1,8.4,4.0,-2.1999999999999997,27.8,26.400000000000002
1698744372638.0,16,-0.30000000000000004,0.0,-0.1,0.7000000000000001,8.6,3.8000000000000003,-4.3999999999999995,24.6,20.2
1698744372655.0,16,-0.5,0.0,-0.30000000000000004,0.5,8.6,3.7,-4.9,24.200000000000003,18.6
1698744372672.0,16,-0.8,-0.4,-0.30000000000000004,0.1,8.200000000000001,3.6,-3.6,19.8,15.8
1698744372688.0,16,-0.5,-0.2,-0.4,0.5,8.4,3.6,-1.5000000000000002,18.3,12.200000000000001
1698744372705.0,16,-0.30000000000000004,-0.1,-0.4,0.6000000000000001,8.5,3.5,-1.9,17.8,10.0
1698744372722.0,16,-0.5,-0.1,-0.5,0.4,8.5,3.5,-3.3000000000000003,16.3,6.9
1698744372738.0,16,-0.5,0.0,-0.4,0.5,8.5,3.6,-2.3000000000000003,13.6,3.6
1698744372755.0,16,-0.5,0.1,-0.4,0.4,8.700000000000001,3.6,-1.5000000000000002,12.9,2.1999999999999997
1698744372771.0,16,-0.4,0.2,-0.5,0.5,8.8,3.5,-1.4,9.9,-0.1
1698744372788.0,16,-0.4,0.0,-0.5,0.5,8.6,3.5,-1.9,7.500000000000001,-2.0
1698744372805.0,16,-0.30000000000000004,-0.1,-0.5,0.6000000000000001,8.5,3.5,-2.0,6.1000000000000005,-3.2
1698744372822.0,16,-0.2,-0.1,-0.6000000000000001,0.6000000000000001,8.4,3.5,-2.0,5.4,-6.000000000000001
1698744372839.0,16,-0.2,-0.2,-0.7000000000000001,0.7000000000000001,8.4,3.3000000000000003,-2.4000000000000004,5.300000000000001,-6.5
1698744372855.0,16,-0.30000000000000004,-0.30000000000000004,-0.6000000000000001,0.6000000000000001,8.200000000000001,3.4000000000000004,-3.3000000000000003,3.3000000000000003,-4.300000000000001
1698744372872.0,16,-0.1,-0.2,-0.7000000000000001,0.7000000000000001,8.3,3.3000000000000003,-3.1,5.2,-3.5
1698744372888.0,16,0.4,-0.1,-1.0,0.9,8.4,3.1,-3.2,6.3,-4.6000000000000005
1698744372905.0,16,0.5,-0.1,-1.0,1.3,8.5,3.0,-3.6,5.6,-6.7
1698744372922.0,16,0.4,0.0,-1.0,1.2000000000000002,8.5,3.0,-2.3000000000000003,9.5,-6.4
1698744372938.0,16,0.2,-0.1,-1.0,0.9,8.4,3.0,0.6000000000000001,15.000000000000002,-5.8
1698744372955.0,16,0.4,0.0,-1.3,1.1,8.6,2.7,1.7,15.399999999999999,-5.7
1698744372972.0,16,0.30000000000000004,0.0,-1.2000000000000002,1.0,8.6,2.8000000000000003,3.8,19.3,-4.9
1698744372989.0,16,0.5,0.2,-1.3,1.1,8.8,2.6,5.8,22.7,-5.500000000000001
1698744373005.0,16,0.6000000000000001,0.30000000000000004,-1.4000000000000001,1.2000000000000002,8.9,2.6,6.5,24.9,-4.7
1698744373022.0,16,1.0,0.8,-0.30000000000000004,1.5,9.3,3.6,9.3,26.0,-4.7
1698744373038.0,16,-1.0,2.6,1.2000000000000002,-0.5,11.3,5.0,27.6,12.5,5.9
1698744373056.0,16,-1.7000000000000002,2.6,0.30000000000000004,-1.2000000000000002,11.3,4.1000000000000005,30.299999999999997,6.3,10.3
1698744373072.0,16,-1.3,0.5,0.5,-0.7000000000000001,9.200000000000001,4.3,13.9,-8.5,3.3000000000000003
1698744373090.0,16,-1.1,0.5,0.0,-0.6000000000000001,9.200000000000001,3.7,3.9,-13.5,-2.0
1698744373105.0,16,-0.4,0.5,-0.5,0.1,9.200000000000001,3.3000000000000003,-3.1,-12.100000000000001,-4.300000000000001
1698744373122.0,16,0.7000000000000001,0.9,0.4,1.2000000000000002,9.600000000000001,4.2,-5.1,-12.9,-7.6
1698744373138.0,16,-0.2,2.1,2.4000000000000004,0.4,10.8,6.1000000000000005,17.8,-21.8,4.0
1698744373156.0,16,-0.4,1.7000000000000002,1.7000000000000002,0.2,10.5,5.4,28.900000000000002,-23.6,12.8
1698744373172.0,16,0.7000000000000001,0.4,1.4000000000000001,1.3,9.200000000000001,5.0,23.1,-15.299999999999999,13.6
1698744373188.0,16,1.4000000000000001,0.0,1.5,2.1,8.8,5.2,19.8,-6.1000000000000005,12.4
1698744373206.0,16,1.9000000000000001,-0.2,1.4000000000000001,2.7,8.700000000000001,4.9,22.2,8.0,13.4
1698744373221.0,16,0.9,-0.6000000000000001,1.7000000000000002,1.7000000000000002,8.3,5.2,29.000000000000004,14.4,20.5
1698744373238.0,16,-0.4,-1.3,1.9000000000000001,0.4,7.5,5.4,28.500000000000004,16.5,23.1
1698744373255.0,16,-1.3,-1.4000000000000001,2.1,-0.4,7.5,5.4,17.5,13.3,17.8
1698744373272.0,16,-1.6,-1.3,2.0,-0.7000000000000001,7.6000000000000005,5.300000000000001,10.5,11.2,12.700000000000001
1698744373289.0,16,-2.0,-1.2000000000000002,2.0,-1.1,7.7,5.300000000000001,2.9,3.7000000000000006,1.8
1698744373305.0,16,-2.2,-1.1,1.7000000000000002,-1.4000000000000001,7.7,5.0,3.6,-5.2,-8.0
1698744373323.0,16,-2.2,-1.1,1.5,-1.4000000000000001,7.7,4.9,3.5,-9.1,-11.8
1698744373338.0,16,-2.0,-0.9,1.4000000000000001,-1.2000000000000002,7.9,4.800000000000001,1.8,-16.5,-17.9
1698744373355.0,16,-1.8,-0.8,1.4000000000000001,-1.0,8.1,4.800000000000001,0.7,-20.3,-20.1
1698744373372.0,16,-1.5,-0.6000000000000001,1.4000000000000001,-0.8,8.200000000000001,4.800000000000001,-1.0999999999999999,-24.400000000000002,-24.200000000000003
1698744373388.0,16,-1.1,-0.6000000000000001,1.2000000000000002,-0.5,8.3,4.6000000000000005,-0.9,-24.3,-26.200000000000003
1698744373405.0,16,-1.0,-0.5,1.1,-0.4,8.3,4.5,-0.2,-23.5,-27.0
1698744373421.0,16,-0.8,-0.30000000000000004,1.1,-0.2,8.6,4.5,0.8,-19.500000000000004,-26.1
1698744373438.0,16,-0.4,0.0,1.0,0.1,8.9,4.5,-0.4,-16.6,-24.000000000000004
1698744373455.0,16,-0.2,0.2,1.0,0.2,9.1,4.4,-3.4,-13.5,-22.4
1698744373472.0,16,-0.1,0.30000000000000004,1.0,0.30000000000000004,9.1,4.4,-5.300000000000001,-11.6,-22.8
1698744373490.0,16,-0.2,0.1,1.0,0.2,8.9,4.4,-8.600000000000001,-9.600000000000001,-26.200000000000003
1698744373505.0,16,-0.30000000000000004,-0.2,0.7000000000000001,0.0,8.6,4.3,-11.700000000000001,-7.699999999999999,-29.400000000000002
1698744373522.0,16,-0.2,-0.4,0.8,0.0,8.4,4.3,-13.0,-7.699999999999999,-31.3
1698744373538.0,16,0.30000000000000004,-0.8,0.8,0.4,8.1,4.4,-11.6,-5.8,-37.300000000000004
1698744373555.0,16,0.2,-0.6000000000000001,0.8,0.4,8.1,4.3,-10.4,-5.0,-38.7
1698744373572.0,16,-0.1,-0.30000000000000004,0.8,-0.1,8.5,4.4,-10.8,-0.2,-34.800000000000004
1698744373589.0,16,-0.5,0.6000000000000001,0.4,-0.7000000000000001,9.4,4.0,-15.6,6.8,-25.700000000000003
1698744373605.0,16,-0.4,0.9,0.1,-0.6000000000000001,9.700000000000001,3.8000000000000003,-18.8,9.5,-20.4
1698744373622.0,16,-0.2,0.7000000000000001,0.0,-0.5,9.5,3.8000000000000003,-17.599999999999998,6.7,-19.0
1698744373640.0,16,0.0,-0.1,-0.2,-0.30000000000000004,8.700000000000001,3.6,-13.9,-1.4,-14.0
1698744373655.0,16,0.0,-0.2,-0.2,-0.30000000000000004,8.5,3.6,-13.6,-4.9,-12.100000000000001
1698744373671.0,16,-0.1,-0.2,-0.2,-0.4,8.5,3.7,-14.200000000000001,-9.600000000000001,-11.1
1698744373688.0,16,-0.2,0.0,-0.30000000000000004,-0.5,8.700000000000001,3.6,-15.000000000000002,-11.700000000000001,-11.3
1698744373704.0,16,-0.4,-0.2,-0.30000000000000004,-0.8,8.5,3.6,-14.600000000000001,-13.0,-11.1
1698744373722.0,16,-0.4,-0.30000000000000004,-0.4,-0.8,8.4,3.5,-14.200000000000001,-13.8,-11.1
1698744373738.0,16,-0.6000000000000001,-0.5,-0.5,-1.0,8.1,3.5,-13.200000000000001,-14.3,-9.8
1698744373755.0,16,-0.6000000000000001,-0.5,-0.5,-1.0,8.1,3.5,-12.700000000000001,-14.700000000000001,-6.3
1698744373772.0,16,-0.6000000000000001,-0.30000000000000004,-0.5,-0.9,8.3,3.6,-12.000000000000002,-14.4,-4.7
1698744373788.0,16,-0.4,-0.30000000000000004,-0.5,-0.8,8.3,3.6,-11.3,-16.6,-2.1999999999999997
1698744373805.0,16,-0.30000000000000004,-0.2,-0.5,-0.7000000000000001,8.3,3.7,-12.100000000000001,-18.1,-1.4
1698744373821.0,16,-0.2,-0.1,-0.4,-0.6000000000000001,8.4,3.8000000000000003,-14.100000000000001,-21.200000000000003,0.30000000000000004
1698744373838.0,16,-0.30000000000000004,0.0,-0.4,-0.6000000000000001,8.5,3.8000000000000003,-13.4,-20.1,1.0999999999999999
1698744373855.0,16,-0.1,0.0,-0.4,-0.4,8.5,3.8000000000000003,-11.700000000000001,-18.5,2.6
1698744373871.0,16,0.0,0.0,-0.6000000000000001,-0.2,8.5,3.7,-11.2,-17.5,3.4
1698744373888.0,16,0.0,0.1,-0.7000000000000001,-0.30000000000000004,8.6,3.6,-11.6,-16.8,3.1
1698744373905.0,16,-0.30000000000000004,0.30000000000000004,-0.8,-0.5,8.8,3.6,-12.700000000000001,-15.2,2.5
1698744373921.0,16,-0.6000000000000001,0.5,-0.9,-0.8,8.9,3.5,-13.200000000000001,-14.700000000000001,1.5000000000000002
1698744373938.0,16,-0.8,0.5,-0.9,-1.0,8.9,3.4000000000000004,-12.700000000000001,-15.299999999999999,0.7
1698744373955.0,16,-0.9,0.4,-1.1,-1.1,8.8,3.3000000000000003,-9.5,-17.1,-1.6
1698744373972.0,16,-0.9,0.4,-1.1,-1.1,8.8,3.2,-4.2,-19.6,-3.1
1698744373989.0,16,-0.8,0.4,-1.2000000000000002,-1.0,8.9,3.2,-2.0,-20.2,-3.7000000000000006
1698744374005.0,16,-0.7000000000000001,0.5,-1.1,-0.8,8.9,3.3000000000000003,-1.5000000000000002,-20.0,-5.2
1698744374022.0,16,-0.7000000000000001,0.5,-1.1,-0.8,8.9,3.2,-2.4000000000000004,-19.400000000000002,-5.7
1698744374038.0,16,-0.7000000000000001,0.5,-1.3,-0.9,8.9,3.1,-2.1,-19.9,-5.4
1698744374055.0,16,-0.9,0.5,-1.4000000000000001,-1.0,9.0,2.9000000000000004,-0.5,-27.0,-5.1
1698744374071.0,16,-0.2,1.7000000000000002,0.8,-0.30000000000000004,10.200000000000001,5.1000000000000005,5.500000000000001,-25.400000000000002,-10.3
1698744374088.0,16,1.0,1.7000000000000002,1.4000000000000001,0.9,10.200000000000001,5.800000000000001,12.4,-21.1,-19.500000000000004
1698744374105.0,16,1.0,0.0,-0.30000000000000004,0.8,8.5,4.0,17.1,0.5,-20.8
1698744374122.0,16,0.30000000000000004,-0.2,0.0,0.1,8.3,4.3,11.2,10.3,-3.1
1698744374138.0,16,0.5,0.1,-0.1,0.30000000000000004,8.6,4.1000000000000005,10.9,9.3,-4.3999999999999995
1698744374155.0,16,0.1,0.1,-1.4000000000000001,-0.1,8.6,2.9000000000000004,3.6,2.5,-0.5
1698744374172.0,16,-1.2000000000000002,0.5,-1.2000000000000002,-1.4000000000000001,9.0,3.0,-2.7,-5.8,0.4
1698744374189.0,16,-1.6,0.6000000000000001,-1.1,-1.8,9.1,3.2,1.0,-11.000000000000002,-5.500000000000001
1698744374205.0,16,-1.1,1.1,0.6000000000000001,-1.4000000000000001,9.600000000000001,4.7,20.0,-12.4,-19.700000000000003
1698744374221.0,16,0.30000000000000004,1.1,0.7000000000000001,-0.1,9.8,4.800000000000001,40.1,-2.9,-35.0
1698744374238.0,16,0.5,0.6000000000000001,0.9,0.1,9.200000000000001,5.0,39.300000000000004,-4.2,-36.0
1698744374255.0,16,0.1,0.1,1.0,-0.4,8.700000000000001,5.0,20.7,-3.5,-28.900000000000002
1698744374272.0,16,-0.2,-0.1,1.0,-0.8,8.6,5.0,4.300000000000001,-8.0,-23.900000000000002
1698744374288.0,16,-0.30000000000000004,0.0,1.2000000000000002,-0.9,8.700000000000001,5.2,3.9,-11.000000000000002,-23.8
1698744374305.0,16,-0.1,0.0,1.5,-0.7000000000000001,8.700000000000001,5.4,12.100000000000001,-19.1,-25.8
1698744374322.0,16,0.2,-0.30000000000000004,1.6,-0.5,8.4,5.5,14.900000000000002,-21.3,-26.700000000000003
1698744374339.0,16,0.6000000000000001,-1.0,1.5,-0.1,7.7,5.4,11.6,-21.1,-24.5
1698744374356.0,16,0.8,-1.4000000000000001,1.5,0.0,7.300000000000001,5.4,3.3000000000000003,-19.8,-18.1
1698744374372.0,16,0.9,-1.2000000000000002,1.6,0.2,7.4,5.5,-2.1999999999999997,-19.8,-12.200000000000001
1698744374388.0,16,1.0,-1.1,1.6,0.2,7.6000000000000005,5.5,-3.4,-20.2,-10.700000000000001
1698744374405.0,16,1.0,-0.8,1.5,0.2,7.9,5.4,-4.1000000000000005,-22.6,-9.0
1698744374421.0,16,1.0,-0.8,1.3,0.30000000000000004,7.9,5.300000000000001,-4.0,-22.6,-9.1
1698744374439.0,16,1.0,-0.8,1.2000000000000002,0.30000000000000004,7.800000000000001,5.2,-3.9,-21.6,-9.9
1698744374455.0,16,1.0,-0.9,1.2000000000000002,0.30000000000000004,7.7,5.2,-3.4,-17.1,-10.4
1698744374471.0,16,0.6000000000000001,-0.5,1.1,-0.1,8.1,5.1000000000000005,-3.6,-13.100000000000001,-7.2
1698744374488.0,16,0.4,-0.1,1.0,-0.30000000000000004,8.4,5.1000000000000005,-5.1,-11.4,-4.2
1698744374505.0,16,0.30000000000000004,0.1,1.0,-0.30000000000000004,8.700000000000001,5.1000000000000005,-6.7,-10.2,0.0
1698744374522.0,16,0.5,0.0,0.9,-0.2,8.6,5.0,-4.5,-12.700000000000001,2.0
1698744374538.0,16,0.5,0.0,0.8,-0.2,8.5,4.9,-3.9,-14.0,2.9
1698744374555.0,16,0.1,0.1,0.6000000000000001,-0.5,8.6,4.800000000000001,-7.300000000000001,-14.600000000000001,3.7000000000000006
1698744374572.0,16,-0.2,0.0,0.5,-0.8,8.5,4.7,-12.8,-19.0,2.4000000000000004
1698744374588.0,16,-0.30000000000000004,0.2,0.4,-0.9,8.8,4.7,-14.900000000000002,-19.0,2.3000000000000003
1698744374605.0,16,-0.2,0.4,0.30000000000000004,-0.7000000000000001,9.0,4.6000000000000005,-15.6,-20.7,1.2000000000000002
1698744374622.0,16,0.2,0.0,0.30000000000000004,-0.30000000000000004,8.5,4.6000000000000005,-14.0,-22.3,0.8
1698744374638.0,16,0.30000000000000004,0.0,0.2,-0.2,8.5,4.6000000000000005,-15.299999999999999,-22.4,0.9
1698744374655.0,16,0.30000000000000004,0.0,0.2,-0.2,8.4,4.6000000000000005,-17.0,-21.200000000000003,1.2000000000000002
1698744374672.0,16,0.30000000000000004,0.0,-0.2,-0.1,8.4,4.2,-20.3,-17.599999999999998,2.6
1698744374688.0,16,0.4,-0.1,-0.30000000000000004,0.0,8.3,4.2,-20.5,-16.2,2.1999999999999997
1698744374705.0,16,0.4,-0.1,-0.4,0.1,8.3,4.2,-19.9,-15.5,1.0999999999999999
1698744374721.0,16,0.5,0.0,-0.4,0.2,8.4,4.2,-20.1,-13.200000000000001,-2.1
1698744374738.0,16,0.6000000000000001,0.0,-0.5,0.2,8.3,4.1000000000000005,-20.6,-11.700000000000001,-4.1000000000000005
1698744374756.0,16,0.5,-0.1,-0.4,0.2,8.200000000000001,4.3,-20.8,-9.600000000000001,-7.0
1698744374772.0,16,0.4,-0.1,-0.30000000000000004,0.1,8.200000000000001,4.4,-20.0,-8.700000000000001,-7.699999999999999
1698744374788.0,16,0.30000000000000004,-0.1,-0.30000000000000004,0.0,8.200000000000001,4.5,-20.6,-8.200000000000001,-8.700000000000001
1698744374805.0,16,0.4,-0.1,-0.4,0.0,8.1,4.5,-20.5,-7.699999999999999,-8.9
1698744374821.0,16,0.30000000000000004,-0.1,-0.30000000000000004,0.0,8.0,4.5,-19.500000000000004,-6.7,-9.4
1698744374838.0,16,-0.1,0.0,-0.5,-0.4,8.1,4.5,-19.1,-8.4,-9.600000000000001
1698744374855.0,16,-0.2,0.0,-0.5,-0.5,8.1,4.5,-19.9,-8.5,-10.1
1698744374872.0,16,-0.2,0.0,-0.6000000000000001,-0.6000000000000001,8.1,4.5,-18.900000000000002,-8.9,-10.8
1698744374889.0,16,0.0,0.2,-0.8,-0.4,8.200000000000001,4.3,-15.5,-8.5,-10.4
1698744374905.0,16,0.1,0.2,-0.9,-0.30000000000000004,8.3,4.2,-13.5,-8.200000000000001,-10.3
1698744374922.0,16,0.4,0.2,-1.1,0.0,8.200000000000001,4.0,-8.200000000000001,-7.699999999999999,-10.4
1698744374938.0,16,0.5,0.1,-1.2000000000000002,0.1,8.1,3.9000000000000004,-2.5,-6.1000000000000005,-9.5
1698744374955.0,16,0.6000000000000001,0.1,-1.3,0.1,8.200000000000001,3.8000000000000003,-0.1,-5.0,-8.600000000000001
1698744374972.0,16,0.7000000000000001,0.1,-1.4000000000000001,0.2,8.1,3.7,4.300000000000001,-2.0,-5.8
1698744374988.0,16,0.8,0.1,-1.5,0.30000000000000004,8.1,3.5,6.8,-0.6000000000000001,-4.2
1698744375005.0,16,0.8,0.1,-1.6,0.4,8.200000000000001,3.4000000000000004,11.8,2.4000000000000004,-1.6
1698744375021.0,16,0.8,0.1,-1.6,0.4,8.200000000000001,3.3000000000000003,16.8,4.9,0.1
1698744375039.0,16,0.0,1.1,0.30000000000000004,0.4,8.4,4.1000000000000005,19.200000000000003,4.1000000000000005,0.7
1698744375055.0,16,-0.8,2.2,0.7000000000000001,-1.3,10.3,5.6000000000000005,20.900000000000002,-12.700000000000001,10.5
1698744375071.0,16,-1.5,0.5,-0.4,-1.9000000000000001,8.700000000000001,4.4,-1.2000000000000002,-27.7,7.9
1698744375090.0,16,-0.9,-1.0,-0.2,-1.2000000000000002,7.2,4.7,4.3999999999999995,-34.300000000000004,-6.9
1698744375105.0,16,-1.0,-0.4,0.2,-1.3,7.800000000000001,5.1000000000000005,14.200000000000001,-40.5,-9.9
1698744375122.0,16,-0.8,0.1,0.30000000000000004,-1.1,8.3,5.1000000000000005,8.9,-45.4,-15.000000000000002
1698744375138.0,16,0.4,0.0,-0.1,0.1,8.200000000000001,4.800000000000001,-3.4,-41.2,-15.2
1698744375155.0,16,1.1,0.2,0.0,0.9,8.4,4.9,0.1,-40.0,-14.200000000000001
1698744375171.0,16,1.8,1.0,0.30000000000000004,1.6,9.200000000000001,5.1000000000000005,13.4,-37.300000000000004,-10.4
1698744375188.0,16,1.3,1.3,0.8,1.2000000000000002,9.600000000000001,5.6000000000000005,15.7,-29.800000000000004,-3.3000000000000003
1698744375205.0,16,0.8,1.3,0.9,0.7000000000000001,9.600000000000001,5.7,13.9,-24.8,0.9
1698744375222.0,16,0.1,1.0,1.0,0.1,9.3,5.7,12.4,-21.6,3.0000000000000004
1698744375238.0,16,-0.30000000000000004,0.8,0.9,-0.30000000000000004,9.200000000000001,5.6000000000000005,14.0,-23.3,2.4000000000000004
1698744375256.0,16,-0.5,0.6000000000000001,0.8,-0.5,9.0,5.5,13.3,-25.700000000000003,0.6000000000000001
1698744375272.0,16,-0.9,-0.30000000000000004,0.8,-0.9,8.1,5.5,10.8,-29.500000000000004,-5.7
1698744375288.0,16,-1.0,-1.1,0.7000000000000001,-0.9,7.300000000000001,5.300000000000001,9.4,-33.0,-11.9
1698744375305.0,16,-1.0,-1.4000000000000001,0.7000000000000001,-1.1,6.9,5.2,7.699999999999999,-38.400000000000006,-15.100000000000001
1698744375322.0,16,-1.3,-1.5,0.5,-1.2000000000000002,6.800000000000001,5.1000000000000005,6.5,-41.4,-16.2
1698744375338.0,16,-1.6,-1.4000000000000001,0.5,-1.5,7.0,5.1000000000000005,4.9,-50.4,-20.1
1698744375354.0,16,-1.8,-1.0,0.5,-1.8,7.300000000000001,5.1000000000000005,3.5,-60.00000000000001,-24.6
1698744375371.0,16,-1.9000000000000001,-0.8,0.5,-1.8,7.5,5.1000000000000005,2.7,-64.50000000000001,-26.9
1698744375388.0,16,-1.7000000000000002,-0.7000000000000001,0.5,-1.6,7.7,5.1000000000000005,1.8,-72.8,-32.300000000000004
1698744375405.0,16,-1.6,-0.6000000000000001,0.5,-1.5,7.800000000000001,5.1000000000000005,2.1999999999999997,-77.60000000000001,-36.4
1698744375422.0,16,-1.3,-0.30000000000000004,0.6000000000000001,-1.2000000000000002,8.1,5.1000000000000005,2.5,-80.10000000000001,-37.7
1698744375438.0,16,-1.0,0.1,0.6000000000000001,-0.9,8.5,5.2,3.2,-86.1,-39.6
1698744375455.0,16,-0.9,0.4,0.6000000000000001,-0.6000000000000001,8.8,5.0,2.1999999999999997,-91.7,-41.1
1698744375472.0,16,-0.7000000000000001,0.4,0.4,-0.6000000000000001,8.8,5.0,1.3,-93.80000000000001,-41.6
1698744375488.0,16,-0.7000000000000001,0.30000000000000004,0.30000000000000004,-0.6000000000000001,8.6,4.800000000000001,0.6000000000000001,-97.9,-43.0
