ts,interval,accx,accy,accz,accGx,accGy,accGz,alpha,beta,gamma
1698419978016.0,16,0.0,0.0,0.0,-1.0,9.5,-0.30000000000000004,0.4,0.2,0.2
1698419978033.0,16,0.0,0.0,0.0,-1.0,9.5,-0.30000000000000004,0.30000000000000004,0.2,0.1
1698419978049.0,16,0.0,0.0,0.0,-1.0,9.5,-0.30000000000000004,0.4,0.30000000000000004,0.30000000000000004
1698419978066.0,16,0.0,0.0,0.0,-1.0,9.5,-0.30000000000000004,0.5,0.30000000000000004,0.1
1698419978083.0,16,0.0,0.0,0.0,-1.0,9.5,-0.30000000000000004,0.5,0.2,0.1
1698419978099.0,16,0.0,0.0,0.0,-1.1,9.5,-0.4,0.5,0.0,-0.1
1698419978116.0,16,0.0,0.0,0.0,-1.1,9.5,-0.30000000000000004,0.6000000000000001,-0.30000000000000004,-0.1
1698419978133.0,16,0.0,0.0,0.0,-1.0,9.5,-0.30000000000000004,0.6000000000000001,-0.4,-0.1
1698419978149.0,16,0.0,0.0,0.0,-1.0,9.5,-0.30000000000000004,0.8,-0.5,-0.4
1698419978166.0,16,0.0,0.0,0.0,-1.0,9.5,-0.30000000000000004,0.8,-0.6000000000000001,-0.4
1698419978186.0,16,0.0,0.0,0.0,-1.1,9.5,-0.30000000000000004,0.8,-0.7,-0.2
1698419978199.0,16,0.0,0.0,0.0,-1.0,9.600000000000001,-0.30000000000000004,0.5,-0.9,-0.2
1698419978216.0,16,0.0,0.0,0.0,-1.0,9.600000000000001,-0.30000000000000004,0.5,-0.7,-0.2
1698419978233.0,16,0.0,0.0,0.0,-1.0,9.5,-0.30000000000000004,0.5,-0.5,-0.2
1698419978249.0,16,0.0,0.0,0.0,-1.0,9.5,-0.30000000000000004,0.6000000000000001,-0.6000000000000001,0.0
1698419978266.0,16,0.0,0.0,0.0,-1.0,9.5,-0.30000000000000004,0.5,-0.6000000000000001,0.1
1698419978283.0,16,0.0,0.0,0.0,-1.0,9.5,-0.30000000000000004,0.6000000000000001,-0.7,0.1
1698419978299.0,16,0.0,0.0,0.0,-1.0,9.5,-0.30000000000000004,0.8,-0.8,0.1
1698419978316.0,16,0.0,0.0,0.0,-1.0,9.5,-0.30000000000000004,0.6000000000000001,-0.9,0.1
1698419978333.0,16,0.0,0.0,0.0,-1.1,9.5,-0.30000000000000004,0.6000000000000001,-1.0,0.2
1698419978350.0,16,0.0,0.0,0.0,-1.0,9.5,-0.30000000000000004,0.4,-1.0999999999999999,-0.1
1698419978366.0,16,0.0,0.0,0.0,-1.0,9.5,-0.30000000000000004,0.4,-0.9,-0.1
1698419978383.0,16,0.0,0.0,0.0,-1.0,9.5,-0.30000000000000004,0.6000000000000001,-0.9,-0.2
1698419978399.0,16,0.0,0.0,0.0,-1.0,9.5,-0.30000000000000004,0.5,-0.8,-0.1
1698419978416.0,16,0.0,0.0,0.0,-1.0,9.5,-0.30000000000000004,0.5,-0.8,0.0
1698419978433.0,16,0.0,0.0,0.0,-1.0,9.5,-0.30000000000000004,0.5,-0.6000000000000001,-0.1
1698419978449.0,16,0.0,0.0,0.0,-1.0,9.5,-0.30000000000000004,0.30000000000000004,-0.8,0.1
1698419978466.0,16,0.1,0.0,0.0,-1.0,9.5,-0.30000000000000004,0.30000000000000004,-0.6000000000000001,0.1
1698419978483.0,16,0.0,0.0,0.0,-1.1,9.5,-0.30000000000000004,0.30000000000000004,-0.5,-0.1
1698419978500.0,16,0.0,0.0,0.0,-1.1,9.5,-0.4,0.4,-0.5,0.0
1698419978517.0,16,0.0,0.0,0.0,-1.0,9.5,-0.30000000000000004,0.2,-0.30000000000000004,0.2
1698419978533.0,16,0.0,0.0,0.0,-1.0,9.5,-0.30000000000000004,0.2,-0.30000000000000004,0.2
1698419978549.0,16,0.0,0.0,0.0,-1.0,9.5,-0.30000000000000004,0.1,-0.5,0.2
1698419978566.0,16,0.0,0.0,0.0,-1.0,9.5,-0.30000000000000004,0.1,-0.30000000000000004,-0.1
1698419978583.0,16,0.0,0.0,0.0,-1.0,9.5,-0.30000000000000004,0.1,-0.4,0.0
1698419978600.0,16,0.0,0.0,0.0,-1.0,9.5,-0.30000000000000004,0.2,-0.30000000000000004,0.0
1698419978617.0,16,0.0,0.0,0.0,-1.0,9.5,-0.30000000000000004,0.0,-0.1,-0.2
1698419978633.0,16,0.0,0.0,0.0,-1.0,9.5,-0.30000000000000004,0.0,-0.1,-0.1
1698419978649.0,16,0.0,0.0,0.0,-1.0,9.5,-0.30000000000000004,0.0,-0.1,-0.1
1698419978666.0,16,0.0,0.0,0.0,-1.0,9.5,-0.30000000000000004,0.0,0.0,-0.1
1698419978683.0,16,0.0,0.0,0.0,-1.0,9.5,-0.4,0.0,-0.1,-0.1
1698419978700.0,16,0.0,0.0,0.0,-1.1,9.5,-0.30000000000000004,0.0,-0.2,-0.1
1698419978716.0,16,0.0,0.0,0.0,-1.1,9.5,-0.30000000000000004,0.0,-0.30000000000000004,0.0
1698419978733.0,16,0.0,0.0,0.0,-1.1,9.5,-0.30000000000000004,0.0,-0.4,0.0
1698419978749.0,16,0.0,0.0,0.0,-1.0,9.5,-0.4,0.2,-0.5,0.1
1698419978766.0,16,0.0,0.0,0.0,-1.0,9.5,-0.4,-0.1,-0.30000000000000004,-0.1
1698419978783.0,16,0.0,0.0,0.0,-1.0,9.5,-0.4,0.0,-0.30000000000000004,-0.1
1698419978799.0,16,0.0,0.0,0.0,-1.0,9.5,-0.4,0.0,-0.30000000000000004,-0.1
1698419978816.0,16,0.0,0.0,0.0,-1.0,9.5,-0.4,0.1,-0.4,-0.1
1698419978833.0,16,0.0,0.0,0.0,-1.0,9.5,-0.4,0.0,-0.2,-0.1
1698419978852.0,16,0.0,0.0,0.0,-1.0,9.5,-0.30000000000000004,0.1,-0.30000000000000004,0.0
1698419978866.0,16,0.0,0.0,0.0,-1.0,9.5,-0.4,0.30000000000000004,-0.1,0.1
1698419978883.0,16,0.0,0.0,0.0,-1.0,9.5,-0.4,0.30000000000000004,0.0,-0.1
1698419978899.0,16,0.0,0.0,0.0,-1.0,9.5,-0.4,0.2,0.0,0.0
1698419978916.0,16,0.0,0.0,0.0,-1.1,9.5,-0.4,0.30000000000000004,0.0,-0.2
1698419978933.0,16,0.0,0.0,0.0,-1.0,9.5,-0.4,0.30000000000000004,0.0,0.1
1698419978949.0,16,0.0,0.0,0.0,-1.0,9.5,-0.4,0.30000000000000004,-0.1,0.1
1698419978966.0,16,0.0,0.0,0.0,-1.0,9.5,-0.30000000000000004,0.5,0.0,0.0
1698419978983.0,16,0.0,0.0,0.0,-1.0,9.5,-0.4,0.30000000000000004,-0.1,0.0
1698419978999.0,16,0.0,0.0,0.0,-1.0,9.5,-0.4,0.2,-0.2,0.0
1698419979016.0,16,0.0,0.1,0.0,-1.0,9.600000000000001,-0.30000000000000004,0.0,-0.30000000000000004,0.1
1698419979033.0,16,0.0,0.0,0.0,-1.0,9.5,-0.30000000000000004,0.30000000000000004,-0.2,0.0
1698419979050.0,16,0.0,0.0,0.0,-1.0,9.5,-0.4,0.2,-0.1,0.0
1698419979066.0,16,0.0,0.0,0.0,-1.0,9.5,-0.4,-0.1,-0.1,0.0
1698419979083.0,16,0.0,0.0,0.0,-1.0,9.5,-0.4,0.0,-0.1,0.1
1698419979100.0,16,0.0,-0.1,0.0,-1.0,9.5,-0.4,0.2,0.0,-0.1
1698419979116.0,16,0.0,0.0,0.0,-1.0,9.5,-0.4,0.30000000000000004,0.1,-0.1
1698419979133.0,16,0.0,0.0,0.0,-1.0,9.5,-0.4,0.4,0.0,-0.1
1698419979149.0,16,0.0,0.0,0.0,-1.0,9.5,-0.4,0.4,0.0,-0.1
1698419979166.0,16,0.0,0.0,0.0,-1.0,9.5,-0.30000000000000004,0.30000000000000004,0.1,-0.30000000000000004
1698419979183.0,16,0.0,0.0,0.0,-1.0,9.5,-0.4,0.4,0.2,-0.30000000000000004
1698419979199.0,16,0.0,0.0,0.0,-1.0,9.5,-0.4,0.5,0.30000000000000004,-0.2
1698419979216.0,16,0.0,0.0,0.0,-1.0,9.5,-0.4,0.30000000000000004,0.30000000000000004,-0.2
1698419979233.0,16,0.0,0.0,0.0,-1.1,9.5,-0.4,0.30000000000000004,0.30000000000000004,-0.2
1698419979249.0,16,0.0,0.0,0.0,-1.0,9.5,-0.4,0.30000000000000004,0.30000000000000004,-0.1
1698419979266.0,16,0.0,0.0,0.0,-1.0,9.5,-0.30000000000000004,0.2,0.2,-0.1
1698419979283.0,16,0.0,0.0,0.0,-1.0,9.5,-0.30000000000000004,0.1,0.5,-0.1
1698419979299.0,16,0.0,0.0,0.0,-1.0,9.5,-0.30000000000000004,0.1,0.4,-0.1
1698419979316.0,16,0.0,0.0,0.0,-1.0,9.5,-0.4,0.1,0.30000000000000004,-0.1
1698419979333.0,16,0.0,0.0,0.0,-1.0,9.5,-0.30000000000000004,-0.1,0.30000000000000004,0.0
1698419979349.0,16,0.0,0.0,0.0,-1.0,9.5,-0.4,-0.2,0.30000000000000004,0.0
1698419979366.0,16,0.0,0.0,0.0,-1.0,9.5,-0.30000000000000004,-0.30000000000000004,0.4,-0.1
1698419979383.0,16,0.0,0.0,0.0,-1.1,9.5,-0.4,-0.30000000000000004,0.30000000000000004,-0.2
1698419979399.0,16,0.0,0.0,0.0,-1.1,9.5,-0.30000000000000004,-0.4,0.30000000000000004,-0.2
1698419979416.0,16,0.0,0.0,0.0,-1.1,9.5,-0.4,-0.30000000000000004,0.2,-0.2
1698419979433.0,16,0.0,0.0,0.0,-1.1,9.5,-0.4,-0.30000000000000004,0.1,-0.30000000000000004
1698419979450.0,16,0.0,0.0,0.0,-1.0,9.5,-0.4,-0.30000000000000004,0.2,-0.2
1698419979466.0,16,0.0,0.0,0.0,-1.1,9.5,-0.4,-0.2,0.2,-0.30000000000000004
1698419979483.0,16,0.0,0.0,0.0,-1.1,9.5,-0.4,-0.1,0.1,-0.2
1698419979499.0,16,0.0,0.0,0.0,-1.0,9.5,-0.4,-0.1,0.2,-0.2
1698419979516.0,16,0.0,0.0,0.0,-1.1,9.5,-0.4,0.0,0.2,-0.2
1698419979533.0,16,0.0,0.0,0.0,-1.1,9.5,-0.4,0.0,0.30000000000000004,-0.2
1698419979549.0,16,0.0,0.0,0.0,-1.0,9.5,-0.4,0.0,0.30000000000000004,-0.1
1698419979566.0,16,0.0,0.0,0.0,-1.1,9.5,-0.4,0.0,0.5,-0.1
1698419979583.0,16,0.0,0.0,0.0,-1.0,9.5,-0.4,0.2,0.4,-0.2
1698419979599.0,16,0.0,0.0,0.0,-1.0,9.5,-0.4,0.30000000000000004,0.30000000000000004,-0.2
1698419979616.0,16,0.0,0.0,0.0,-1.0,9.5,-0.4,0.30000000000000004,0.4,-0.2
1698419979633.0,16,0.0,0.0,0.0,-1.0,9.5,-0.4,0.30000000000000004,0.4,-0.1
1698419979649.0,16,0.0,0.0,0.0,-1.1,9.5,-0.4,0.4,0.5,-0.2
1698419979666.0,16,0.0,0.0,0.0,-1.1,9.5,-0.4,0.30000000000000004,0.5,-0.2
1698419979683.0,16,0.0,0.0,0.0,-1.1,9.5,-0.30000000000000004,0.5,0.7,-0.30000000000000004
1698419979699.0,16,0.0,0.0,0.1,-1.1,9.5,-0.30000000000000004,0.6000000000000001,1.0,-0.6000000000000001
1698419979716.0,16,-0.1,0.0,0.1,-1.1,9.600000000000001,-0.30000000000000004,0.6000000000000001,1.3,-0.7
1698419979733.0,16,-0.1,0.0,0.0,-1.2000000000000002,9.5,-0.30000000000000004,0.2,1.4,-0.9
1698419979749.0,16,-0.1,0.0,0.1,-1.2000000000000002,9.600000000000001,-0.30000000000000004,-0.2,1.4,-1.3
1698419979766.0,16,-0.2,0.1,0.1,-1.3,9.600000000000001,-0.30000000000000004,-0.5,1.9,-1.7
1698419979783.0,16,-0.2,0.0,0.1,-1.3,9.5,-0.30000000000000004,-0.9,2.4000000000000004,-2.1
1698419979799.0,16,-0.2,0.0,0.0,-1.4000000000000001,9.5,-0.30000000000000004,-1.0,2.4000000000000004,-1.8
1698419979816.0,16,-0.2,0.1,0.1,-1.4000000000000001,9.600000000000001,-0.2,-1.0999999999999999,2.1,-1.8
1698419979833.0,16,-0.30000000000000004,0.0,0.1,-1.4000000000000001,9.600000000000001,-0.2,-0.8,2.1999999999999997,-1.5000000000000002
1698419979849.0,16,-0.30000000000000004,0.0,0.0,-1.5,9.600000000000001,-0.4,-1.0999999999999999,1.3,-1.4
1698419979867.0,16,-0.30000000000000004,0.0,0.0,-1.5,9.600000000000001,-0.30000000000000004,-1.9,-0.1,-1.0
1698419979883.0,16,-0.2,0.0,0.0,-1.4000000000000001,9.5,-0.30000000000000004,-2.3000000000000003,-0.8,-0.7
1698419979899.0,16,-0.2,0.0,0.0,-1.4000000000000001,9.5,-0.4,-3.1,-1.9,-0.4
1698419979916.0,16,-0.2,0.0,0.0,-1.4000000000000001,9.4,-0.30000000000000004,-3.4,-2.1,-0.2
1698419979932.0,16,-0.2,-0.1,-0.1,-1.4000000000000001,9.4,-0.4,-3.4,-3.1,0.4
1698419979949.0,16,-0.2,0.0,0.0,-1.4000000000000001,9.5,-0.30000000000000004,-3.6,-3.6,1.0
1698419979966.0,16,-0.1,0.0,0.0,-1.4000000000000001,9.5,-0.30000000000000004,-3.6,-3.9,1.0999999999999999
1698419979982.0,16,-0.1,0.0,0.0,-1.4000000000000001,9.5,-0.30000000000000004,-3.7000000000000006,-4.3999999999999995,1.0999999999999999
1698419979999.0,16,-0.1,0.0,0.0,-1.4000000000000001,9.5,-0.30000000000000004,-3.7000000000000006,-5.0,1.2000000000000002
1698419980016.0,16,-0.1,0.0,0.0,-1.4000000000000001,9.5,-0.30000000000000004,-3.7000000000000006,-5.300000000000001,1.4
1698419980035.0,16,-0.1,0.0,0.0,-1.4000000000000001,9.5,-0.30000000000000004,-3.9,-6.3,1.7
1698419980049.0,16,-0.1,-0.1,0.0,-1.4000000000000001,9.5,-0.30000000000000004,-3.9,-7.300000000000001,1.8
1698419980066.0,16,0.0,0.0,-0.1,-1.3,9.5,-0.30000000000000004,-4.1000000000000005,-7.8,1.8
1698419980082.0,16,0.0,0.0,0.0,-1.2000000000000002,9.5,-0.2,-4.1000000000000005,-8.1,1.7
1698419980099.0,16,0.0,0.0,0.0,-1.3,9.5,-0.2,-4.0,-8.600000000000001,1.5000000000000002
1698419980116.0,16,0.0,0.0,0.0,-1.2000000000000002,9.5,-0.2,-4.1000000000000005,-8.9,1.5000000000000002
1698419980133.0,16,0.0,0.0,0.0,-1.2000000000000002,9.5,-0.2,-4.1000000000000005,-8.9,1.5000000000000002
1698419980150.0,16,0.1,0.0,0.0,-1.2000000000000002,9.5,-0.1,-4.3999999999999995,-8.600000000000001,1.7
1698419980166.0,16,0.1,0.0,0.1,-1.2000000000000002,9.5,-0.1,-4.5,-8.4,1.6
1698419980182.0,16,0.1,0.0,0.0,-1.1,9.5,-0.1,-4.300000000000001,-8.3,1.8
1698419980199.0,16,0.1,0.0,0.0,-1.1,9.5,0.0,-3.9,-8.1,1.8
1698419980216.0,16,0.1,0.0,0.0,-1.1,9.5,0.0,-3.4,-7.8,2.0
1698419980233.0,16,0.1,0.0,0.0,-1.1,9.5,0.0,-3.4,-7.500000000000001,2.0
1698419980249.0,16,0.1,0.0,0.0,-1.1,9.5,-0.1,-3.4,-7.2,2.0
1698419980266.0,16,0.1,0.0,0.0,-1.0,9.5,0.0,-3.3000000000000003,-7.400000000000001,2.1
1698419980283.0,16,0.1,0.0,0.0,-1.0,9.5,-0.1,-3.4,-7.2,2.0
1698419980300.0,16,0.2,0.0,-0.1,-1.0,9.5,-0.1,-3.5,-7.2,2.1999999999999997
1698419980316.0,16,0.2,0.0,-0.1,-0.9,9.5,-0.1,-3.8,-7.500000000000001,2.5
1698419980332.0,16,0.2,0.0,-0.1,-0.9,9.600000000000001,-0.1,-3.9,-7.6,2.4000000000000004
1698419980350.0,16,0.30000000000000004,0.0,-0.1,-0.8,9.600000000000001,0.0,-4.1000000000000005,-8.0,2.6
1698419980366.0,16,0.30000000000000004,0.0,-0.1,-0.7000000000000001,9.5,-0.1,-4.2,-8.3,2.9
1698419980382.0,16,0.4,0.0,-0.1,-0.7000000000000001,9.5,-0.1,-4.300000000000001,-8.600000000000001,3.1
1698419980399.0,16,0.4,0.1,-0.1,-0.6000000000000001,9.600000000000001,0.0,-4.7,-8.799999999999999,3.2
1698419980416.0,16,0.5,0.1,-0.1,-0.5,9.600000000000001,-0.1,-4.7,-9.700000000000001,3.3000000000000003
1698419980432.0,16,0.5,0.0,-0.1,-0.5,9.600000000000001,0.0,-4.6000000000000005,-10.3,3.4
1698419980449.0,16,0.6000000000000001,0.0,-0.1,-0.4,9.600000000000001,0.0,-4.3999999999999995,-11.4,3.4
1698419980466.0,16,0.7000000000000001,0.0,-0.1,-0.2,9.5,0.0,-4.1000000000000005,-12.4,3.8
1698419980483.0,16,0.7000000000000001,0.0,-0.1,-0.2,9.5,0.0,-3.7000000000000006,-12.700000000000001,3.9
1698419980499.0,16,0.8,-0.1,-0.1,0.0,9.5,0.0,-2.8,-11.9,3.2
1698419980517.0,16,1.0,-0.1,-0.1,0.1,9.4,0.0,-1.4,-9.5,2.5
1698419980533.0,16,1.0,-0.1,-0.1,0.2,9.4,0.0,-0.5,-7.699999999999999,2.1999999999999997
1698419980549.0,16,1.0,0.0,-0.2,0.2,9.5,-0.1,1.8,-2.3000000000000003,2.5
1698419980566.0,16,0.9,-0.1,-0.30000000000000004,0.1,9.4,-0.2,4.7,3.7000000000000006,2.5
1698419980583.0,16,0.9,-0.2,-0.4,0.0,9.3,-0.30000000000000004,6.1000000000000005,6.1000000000000005,2.3000000000000003
1698419980600.0,16,0.8,-0.2,-0.5,0.0,9.3,-0.4,7.8,9.9,1.7
1698419980617.0,16,0.8,-0.1,-0.4,0.0,9.4,-0.4,8.700000000000001,13.5,0.0
1698419980633.0,16,0.6000000000000001,0.0,-0.5,-0.1,9.4,-0.4,8.9,15.000000000000002,-1.4
1698419980649.0,16,0.4,0.0,-0.4,-0.4,9.600000000000001,-0.4,8.9,17.200000000000003,-4.1000000000000005
1698419980666.0,16,0.0,0.30000000000000004,-0.2,-0.8,9.9,-0.30000000000000004,8.4,16.0,-5.500000000000001
1698419980683.0,16,-0.5,0.4,0.0,-1.1,10.0,-0.1,8.3,14.600000000000001,-6.000000000000001
1698419980700.0,16,-0.5,0.30000000000000004,0.0,-1.4000000000000001,9.8,-0.2,9.1,10.4,-6.8
1698419980716.0,16,0.0,0.2,-0.1,-0.9,9.700000000000001,-0.2,8.600000000000001,7.1000000000000005,-5.6
1698419980733.0,16,0.30000000000000004,0.1,0.0,-0.5,9.600000000000001,-0.2,8.200000000000001,5.0,-5.2
1698419980750.0,16,0.5,-0.1,0.1,-0.4,9.5,-0.1,7.400000000000001,3.3000000000000003,-4.7
1698419980767.0,16,0.6000000000000001,-0.1,0.1,-0.30000000000000004,9.5,-0.1,6.7,3.8,-3.7000000000000006
1698419980783.0,16,0.4,0.0,0.2,-0.4,9.5,0.0,6.4,4.6000000000000005,-2.1
1698419980799.0,16,0.30000000000000004,0.0,0.2,-0.6000000000000001,9.5,0.0,6.2,5.4,-1.6
1698419980816.0,16,-0.1,0.0,0.2,-1.0,9.5,-0.1,5.300000000000001,7.6,-1.0999999999999999
1698419980833.0,16,-0.2,0.0,0.2,-1.2000000000000002,9.600000000000001,-0.1,4.5,8.799999999999999,-0.4
1698419980849.0,16,-0.4,0.1,0.1,-1.3,9.600000000000001,-0.2,4.2,8.9,-0.1
1698419980866.0,16,-0.30000000000000004,0.1,0.1,-1.3,9.600000000000001,-0.2,3.4,8.799999999999999,-0.5
1698419980883.0,16,-0.30000000000000004,0.0,0.1,-1.2000000000000002,9.5,-0.30000000000000004,2.8,8.5,-1.0
1698419980899.0,16,-0.30000000000000004,0.0,0.0,-1.2000000000000002,9.5,-0.30000000000000004,2.7,8.1,-1.3
1698419980916.0,16,-0.30000000000000004,0.0,0.0,-1.2000000000000002,9.5,-0.30000000000000004,2.4000000000000004,7.500000000000001,-1.4
1698419980932.0,16,-0.30000000000000004,0.0,0.0,-1.2000000000000002,9.5,-0.4,2.0,6.9,-1.5000000000000002
1698419980949.0,16,-0.30000000000000004,0.0,0.0,-1.2000000000000002,9.5,-0.4,1.7,6.4,-1.6
1698419980966.0,16,-0.30000000000000004,0.0,0.0,-1.3,9.5,-0.30000000000000004,0.8,5.4,-2.1
1698419980983.0,16,-0.4,0.0,0.0,-1.4000000000000001,9.600000000000001,-0.30000000000000004,0.1,4.6000000000000005,-2.1999999999999997
1698419980999.0,16,-0.30000000000000004,0.0,0.1,-1.3,9.600000000000001,-0.30000000000000004,-0.1,4.300000000000001,-2.1999999999999997
1698419981016.0,16,-0.30000000000000004,0.0,0.1,-1.3,9.5,-0.2,0.0,3.6,-2.5
1698419981033.0,16,-0.2,0.0,0.1,-1.3,9.5,-0.30000000000000004,0.2,3.3000000000000003,-2.4000000000000004
1698419981049.0,16,-0.2,0.0,0.1,-1.3,9.5,-0.30000000000000004,0.2,3.0000000000000004,-2.1999999999999997
1698419981066.0,16,-0.2,0.0,0.0,-1.2000000000000002,9.5,-0.30000000000000004,-0.1,3.0000000000000004,-1.9
1698419981082.0,16,-0.1,0.0,0.0,-1.2000000000000002,9.5,-0.30000000000000004,-0.8,2.3000000000000003,-1.4
1698419981099.0,16,-0.1,0.0,0.0,-1.2000000000000002,9.5,-0.30000000000000004,-1.0999999999999999,2.3000000000000003,-1.3
1698419981116.0,16,-0.1,0.0,0.1,-1.2000000000000002,9.5,-0.2,-1.8,2.7,-1.0
1698419981132.0,16,-0.2,0.0,0.1,-1.3,9.5,-0.2,-2.1999999999999997,2.6,-1.0
1698419981149.0,16,-0.2,0.0,0.1,-1.3,9.600000000000001,-0.2,-2.1999999999999997,2.3000000000000003,-1.0
1698419981166.0,16,-0.2,0.0,0.0,-1.3,9.5,-0.30000000000000004,-2.5,1.9,-0.9
1698419981183.0,16,-0.1,0.0,0.0,-1.3,9.5,-0.30000000000000004,-2.7,1.4,-0.8
1698419981199.0,16,-0.1,0.0,0.0,-1.3,9.5,-0.30000000000000004,-2.7,1.2000000000000002,-0.5
1698419981216.0,16,-0.1,0.0,0.1,-1.2000000000000002,9.5,-0.2,-2.7,1.0999999999999999,-0.5
1698419981233.0,16,-0.1,0.0,0.0,-1.2000000000000002,9.5,-0.2,-2.7,0.9,-0.30000000000000004
1698419981250.0,16,-0.1,0.0,0.0,-1.2000000000000002,9.5,-0.2,-2.7,0.9,-0.30000000000000004
1698419981266.0,16,-0.1,0.0,0.0,-1.2000000000000002,9.5,-0.2,-2.5,1.0999999999999999,-0.4
1698419981283.0,16,-0.1,0.0,0.1,-1.3,9.5,-0.2,-2.4000000000000004,0.5,-0.4
1698419981299.0,16,-0.1,0.0,0.0,-1.3,9.5,-0.2,-2.3000000000000003,0.4,-0.5
1698419981316.0,16,0.0,0.0,0.0,-1.2000000000000002,9.5,-0.2,-2.0,0.30000000000000004,-0.5
1698419981333.0,16,0.0,0.0,0.0,-1.2000000000000002,9.5,-0.2,-1.9,0.6000000000000001,-0.7
1698419981349.0,16,0.0,0.0,0.0,-1.2000000000000002,9.5,-0.30000000000000004,-1.9,0.6000000000000001,-0.8
1698419981366.0,16,0.0,0.0,0.0,-1.2000000000000002,9.5,-0.2,-1.9,0.8,-0.9
1698419981383.0,16,0.0,0.0,0.0,-1.1,9.5,-0.2,-1.4,1.0999999999999999,-1.0
1698419981400.0,16,0.1,-0.1,0.0,-1.1,9.5,-0.2,-1.2000000000000002,1.4,-1.0
1698419981416.0,16,0.1,-0.1,0.0,-1.1,9.4,-0.2,-1.2000000000000002,1.3,-0.9
1698419981433.0,16,0.1,0.0,0.0,-1.1,9.5,-0.2,-1.0999999999999999,1.5000000000000002,-1.0
1698419981449.0,16,0.0,0.0,0.0,-1.1,9.5,-0.2,-1.0999999999999999,1.8,-1.0
1698419981466.0,16,0.0,0.0,0.0,-1.2000000000000002,9.5,-0.2,-1.0999999999999999,2.0,-0.7
1698419981483.0,16,0.0,0.0,0.0,-1.2000000000000002,9.5,-0.2,-0.9,1.9,-0.4
1698419981500.0,16,0.0,0.0,0.0,-1.1,9.5,-0.2,-0.8,1.7,-0.30000000000000004
1698419981516.0,16,0.0,0.0,0.0,-1.1,9.5,-0.1,-0.9,1.6,-0.5
1698419981533.0,16,0.0,0.0,0.0,-1.2000000000000002,9.5,-0.2,-1.0999999999999999,1.4,-0.6000000000000001
1698419981549.0,16,0.0,0.0,0.1,-1.2000000000000002,9.5,-0.1,-1.0999999999999999,1.4,-0.5
1698419981566.0,16,0.0,0.0,0.1,-1.2000000000000002,9.5,-0.1,-0.9,1.4,-0.30000000000000004
1698419981582.0,16,0.0,0.0,0.1,-1.1,9.5,-0.1,-0.8,1.7,-0.2
1698419981599.0,16,0.1,0.0,0.1,-1.1,9.5,-0.1,-0.4,1.9,-0.1
1698419981616.0,16,0.1,0.0,0.1,-1.1,9.5,-0.1,-0.30000000000000004,2.0,-0.2
1698419981633.0,16,0.0,0.0,0.1,-1.1,9.5,-0.1,-0.1,1.9,-0.30000000000000004
1698419981650.0,16,0.0,0.0,0.0,-1.1,9.5,-0.1,-0.1,1.8,0.1
1698419981666.0,16,0.1,0.0,0.0,-1.1,9.5,-0.1,-0.30000000000000004,1.5000000000000002,0.2
1698419981683.0,16,0.1,0.1,0.0,-1.1,9.600000000000001,-0.1,-0.4,1.3,0.0
1698419981699.0,16,0.0,0.0,0.0,-1.1,9.5,-0.1,-0.5,1.4,-0.30000000000000004
1698419981716.0,16,0.0,0.0,0.0,-1.2000000000000002,9.5,-0.2,-0.5,1.2000000000000002,-0.30000000000000004
1698419981733.0,16,0.0,0.0,0.0,-1.1,9.5,-0.1,-0.5,1.0,-0.1
1698419981753.0,16,0.1,0.0,0.0,-1.1,9.5,-0.1,-0.1,0.9,0.0
1698419981766.0,16,0.1,0.0,0.0,-1.1,9.5,-0.1,0.0,0.9,0.1
1698419981783.0,16,0.1,0.0,0.0,-1.1,9.5,-0.1,0.8,1.0999999999999999,0.30000000000000004
1698419981800.0,16,0.1,-0.1,0.0,-1.1,9.5,-0.1,1.2000000000000002,1.6,0.30000000000000004
1698419981816.0,16,0.1,-0.1,0.0,-1.1,9.4,-0.2,1.4,1.8,0.30000000000000004
1698419981833.0,16,0.0,-0.1,0.0,-1.1,9.4,-0.2,1.7,1.8,0.2
1698419981849.0,16,0.0,0.0,-0.1,-1.1,9.5,-0.30000000000000004,1.7,1.8,0.2
1698419981866.0,16,0.0,0.0,-0.1,-1.1,9.5,-0.2,1.7,1.5000000000000002,0.30000000000000004
1698419981883.0,16,0.0,0.0,-0.1,-1.1,9.5,-0.30000000000000004,1.9,1.0,0.30000000000000004
1698419981899.0,16,0.0,0.0,-0.1,-1.1,9.5,-0.30000000000000004,2.0,0.6000000000000001,0.2
1698419981917.0,16,0.0,0.0,-0.1,-1.1,9.5,-0.30000000000000004,2.1,0.4,0.2
1698419981933.0,16,0.0,0.0,-0.1,-1.1,9.5,-0.30000000000000004,2.0,-0.30000000000000004,0.30000000000000004
1698419981949.0,16,0.0,0.0,-0.1,-1.1,9.5,-0.30000000000000004,2.0,-1.0,0.1
1698419981967.0,16,0.0,0.0,-0.1,-1.1,9.5,-0.30000000000000004,2.0,-1.0,0.1
1698419981982.0,16,0.0,0.0,0.0,-1.1,9.5,-0.30000000000000004,2.0,-1.3,0.1
1698419981999.0,16,0.1,0.0,0.0,-1.1,9.5,-0.30000000000000004,1.9,-1.6,0.1
1698419982016.0,16,0.0,0.0,0.0,-1.1,9.5,-0.30000000000000004,1.5000000000000002,-1.5000000000000002,-0.1
1698419982032.0,16,0.0,0.1,0.0,-1.1,9.600000000000001,-0.30000000000000004,1.3,-1.6,0.0
1698419982049.0,16,0.1,0.0,0.0,-1.1,9.5,-0.2,1.2000000000000002,-1.6,-0.1
1698419982066.0,16,0.1,0.0,0.0,-1.1,9.5,-0.2,1.0999999999999999,-1.0999999999999999,-0.1
1698419982082.0,16,0.0,0.0,0.0,-1.1,9.5,-0.30000000000000004,1.0,-1.0999999999999999,-0.1
1698419982099.0,16,0.1,0.0,0.0,-1.0,9.600000000000001,-0.2,1.2000000000000002,-0.5,-0.1
1698419982116.0,16,0.1,0.0,0.0,-1.0,9.5,-0.30000000000000004,1.0999999999999999,0.0,-0.30000000000000004
1698419982133.0,16,0.1,0.0,0.0,-1.1,9.5,-0.30000000000000004,1.0999999999999999,0.1,-0.5
1698419982149.0,16,0.0,0.0,0.0,-1.1,9.5,-0.2,1.0999999999999999,0.0,-0.7
1698419982166.0,16,0.0,0.0,0.0,-1.1,9.5,-0.2,1.0,-0.1,-0.7
1698419982183.0,16,0.0,0.0,0.0,-1.1,9.5,-0.30000000000000004,0.8,-0.30000000000000004,-0.4
1698419982199.0,16,0.0,0.0,0.0,-1.1,9.5,-0.30000000000000004,0.6000000000000001,-0.5,-0.2
1698419982217.0,16,0.0,0.0,0.0,-1.0,9.600000000000001,-0.30000000000000004,0.6000000000000001,-0.4,-0.1
1698419982233.0,16,0.1,0.1,-0.1,-1.1,9.600000000000001,-0.4,0.7,-0.2,-0.1
1698419982250.0,16,0.0,0.0,0.0,-1.1,9.5,-0.30000000000000004,0.5,-0.1,0.1
1698419982266.0,16,0.1,0.0,0.0,-1.0,9.5,-0.30000000000000004,0.6000000000000001,-0.1,0.4
1698419982283.0,16,0.0,0.0,0.0,-1.1,9.5,-0.30000000000000004,0.4,0.2,0.30000000000000004
1698419982299.0,16,0.0,0.0,0.0,-1.1,9.5,-0.30000000000000004,0.2,0.5,0.1
1698419982316.0,16,0.0,0.0,0.0,-1.1,9.5,-0.30000000000000004,0.30000000000000004,0.6000000000000001,0.2
1698419982333.0,16,0.0,0.0,0.0,-1.1,9.5,-0.2,0.7,0.5,0.4
1698419982349.0,16,0.0,0.0,0.0,-1.1,9.5,-0.30000000000000004,1.0,0.6000000000000001,0.6000000000000001
1698419982366.0,16,0.0,-0.1,0.0,-1.1,9.5,-0.30000000000000004,1.4,0.6000000000000001,0.30000000000000004
1698419982382.0,16,0.0,0.0,0.0,-1.1,9.5,-0.30000000000000004,1.6,0.6000000000000001,0.4
1698419982399.0,16,0.0,0.0,-0.1,-1.1,9.5,-0.4,1.8,0.30000000000000004,0.4
1698419982416.0,16,0.0,0.0,0.0,-1.1,9.5,-0.30000000000000004,2.1,0.4,0.5
1698419982433.0,16,0.0,0.0,0.0,-1.1,9.5,-0.30000000000000004,2.4000000000000004,0.30000000000000004,0.4
1698419982449.0,16,0.0,0.0,0.0,-1.1,9.5,-0.30000000000000004,3.1,0.8,0.2
1698419982466.0,16,0.0,0.0,0.0,-1.1,9.5,-0.4,3.8,0.8,0.30000000000000004
1698419982483.0,16,0.0,0.0,0.0,-1.1,9.5,-0.4,3.9,0.6000000000000001,0.4
1698419982499.0,16,0.0,0.0,0.0,-1.1,9.5,-0.4,4.0,0.30000000000000004,0.5
1698419982516.0,16,0.0,0.0,0.0,-1.1,9.5,-0.4,4.1000000000000005,0.2,0.6000000000000001
1698419982533.0,16,0.0,0.0,0.0,-1.1,9.5,-0.4,4.3999999999999995,0.30000000000000004,0.2
1698419982549.0,16,0.0,0.0,0.0,-1.1,9.5,-0.4,4.7,0.5,0.2
1698419982566.0,16,0.0,0.0,0.0,-1.1,9.5,-0.4,4.300000000000001,0.2,0.0
1698419982583.0,16,0.0,0.0,0.0,-1.1,9.5,-0.4,4.0,0.0,0.0
1698419982599.0,16,0.0,0.1,0.0,-1.1,9.600000000000001,-0.5,3.1,-0.30000000000000004,-0.4
1698419982616.0,16,0.0,0.1,0.0,-1.1,9.600000000000001,-0.4,2.4000000000000004,-0.4,-0.4
1698419982633.0,16,0.0,0.1,0.0,-1.1,9.600000000000001,-0.5,2.0,-0.30000000000000004,-0.30000000000000004
1698419982649.0,16,0.0,0.1,0.0,-1.1,9.600000000000001,-0.5,1.2000000000000002,-0.2,-0.4
1698419982666.0,16,0.0,0.1,-0.1,-1.1,9.600000000000001,-0.5,0.4,0.0,-0.4
1698419982683.0,16,0.0,0.0,0.0,-1.1,9.600000000000001,-0.5,0.0,0.1,-0.4
1698419982699.0,16,0.0,0.0,0.0,-1.1,9.600000000000001,-0.5,-0.6000000000000001,0.2,-0.2
1698419982716.0,16,0.0,0.0,0.0,-1.1,9.5,-0.5,-1.0999999999999999,0.5,0.1
1698419982733.0,16,0.0,0.0,0.0,-1.1,9.5,-0.5,-1.6,0.7,-0.1
1698419982749.0,16,0.0,0.0,0.0,-1.1,9.5,-0.5,-1.7,0.7,-0.1
1698419982766.0,16,0.0,0.0,0.0,-1.1,9.5,-0.5,-1.7,0.5,-0.2
1698419982782.0,16,0.0,0.0,0.0,-1.1,9.5,-0.5,-1.9,-0.1,0.1
1698419982799.0,16,0.0,0.0,-0.1,-1.1,9.5,-0.5,-1.8,-0.2,0.0
1698419982816.0,16,0.0,0.0,-0.1,-1.1,9.5,-0.5,-1.8,-0.30000000000000004,0.0
1698419982833.0,16,0.0,0.0,-0.1,-1.1,9.5,-0.5,-1.6,-0.5,0.1
1698419982849.0,16,0.0,-0.1,-0.1,-1.1,9.5,-0.5,-1.6,-0.30000000000000004,0.1
1698419982866.0,16,0.0,0.0,-0.1,-1.1,9.5,-0.5,-1.4,-0.1,0.1
1698419982882.0,16,0.0,0.0,-0.1,-1.1,9.5,-0.5,-1.4,-0.2,0.0
1698419982900.0,16,0.0,0.0,-0.1,-1.1,9.5,-0.6000000000000001,-1.4,-0.30000000000000004,-0.2
1698419982916.0,16,0.0,0.0,0.0,-1.1,9.5,-0.5,-1.6,-0.6000000000000001,-0.2
1698419982933.0,16,0.0,0.0,-0.1,-1.1,9.5,-0.5,-1.0999999999999999,-0.7,-0.1
1698419982949.0,16,0.0,0.0,0.0,-1.1,9.5,-0.5,-1.0,-0.8,-0.1
1698419982966.0,16,0.0,0.0,-0.1,-1.1,9.5,-0.5,-0.9,-0.9,-0.1
1698419982983.0,16,0.0,0.0,0.0,-1.1,9.5,-0.5,-1.4,-1.0999999999999999,-0.2
1698419982999.0,16,0.0,0.0,0.0,-1.1,9.5,-0.4,-1.3,-1.0999999999999999,-0.30000000000000004
1698419983016.0,16,0.0,0.0,0.0,-1.1,9.5,-0.5,-1.2000000000000002,-0.8,-0.2
1698419983032.0,16,0.0,0.0,-0.1,-1.1,9.5,-0.5,-0.9,-0.5,-0.2
1698419983050.0,16,0.0,0.0,0.0,-1.1,9.5,-0.5,-1.0,-0.30000000000000004,-0.30000000000000004
1698419983066.0,16,0.0,0.0,0.0,-1.1,9.600000000000001,-0.5,-1.0999999999999999,0.0,-0.4
1698419983082.0,16,0.0,0.0,0.1,-1.1,9.5,-0.4,-1.2000000000000002,0.0,-0.30000000000000004
1698419983099.0,16,0.0,0.0,0.1,-1.1,9.5,-0.30000000000000004,-1.2000000000000002,0.2,-0.2
1698419983118.0,16,0.1,0.0,0.2,-1.0,9.5,-0.30000000000000004,-0.8,0.2,-0.2
1698419983133.0,16,0.0,0.0,0.1,-1.1,9.5,-0.30000000000000004,-0.1,0.1,-0.30000000000000004
1698419983149.0,16,0.0,-0.1,0.1,-1.1,9.4,-0.30000000000000004,-0.1,-0.2,-0.1
1698419983166.0,16,0.0,0.0,0.1,-1.1,9.5,-0.30000000000000004,-0.6000000000000001,-0.5,-0.2
1698419983183.0,16,0.0,0.1,0.0,-1.1,9.600000000000001,-0.4,-0.9,0.0,-0.2
1698419983202.0,16,0.0,0.1,0.0,-1.1,9.600000000000001,-0.30000000000000004,-1.2000000000000002,0.6000000000000001,-0.30000000000000004
1698419983216.0,16,0.0,0.0,0.0,-1.1,9.5,-0.30000000000000004,-1.2000000000000002,0.7,-0.1
1698419983232.0,16,0.0,0.0,0.0,-1.1,9.5,-0.4,-1.4,0.8,-0.2
1698419983249.0,16,0.0,0.0,0.0,-1.1,9.5,-0.30000000000000004,-1.5000000000000002,0.6000000000000001,-0.2
1698419983266.0,16,0.0,-0.1,0.1,-1.1,9.5,-0.30000000000000004,-1.8,0.4,-0.30000000000000004
1698419983283.0,16,0.0,0.0,0.1,-1.1,9.5,-0.30000000000000004,-1.9,0.30000000000000004,-0.4
1698419983300.0,16,0.0,0.0,0.0,-1.1,9.5,-0.30000000000000004,-1.9,0.5,-0.5
1698419983316.0,16,0.0,0.0,0.0,-1.1,9.5,-0.30000000000000004,-1.9,0.6000000000000001,-0.5
1698419983332.0,16,0.0,0.0,0.1,-1.1,9.5,-0.2,-1.7,1.0999999999999999,-0.8
1698419983349.0,16,0.0,0.0,0.2,-1.1,9.5,-0.1,-1.0999999999999999,0.9,-0.5
1698419983366.0,16,0.0,-0.1,0.0,-1.1,9.4,-0.30000000000000004,-0.8,0.9,-0.2
1698419983382.0,16,0.0,0.0,0.0,-1.1,9.5,-0.30000000000000004,-1.3,0.6000000000000001,-0.2
1698419983399.0,16,0.0,0.0,0.0,-1.1,9.5,-0.30000000000000004,-1.3,0.5,-0.2
1698419983416.0,16,0.0,0.0,0.0,-1.1,9.5,-0.30000000000000004,-1.4,0.6000000000000001,-0.1
1698419983432.0,16,0.0,0.0,0.0,-1.1,9.5,-0.30000000000000004,-1.4,0.6000000000000001,-0.1
1698419983449.0,16,0.0,0.0,0.0,-1.1,9.5,-0.30000000000000004,-1.6,0.6000000000000001,-0.1
1698419983466.0,16,0.0,0.0,0.0,-1.2000000000000002,9.600000000000001,-0.30000000000000004,-2.0,0.6000000000000001,0.1
1698419983483.0,16,0.0,0.0,0.0,-1.1,9.600000000000001,-0.30000000000000004,-1.9,0.6000000000000001,0.1
1698419983499.0,16,0.0,0.0,0.0,-1.1,9.5,-0.30000000000000004,-1.9,0.5,0.1
1698419983516.0,16,0.0,0.0,0.0,-1.2000000000000002,9.5,-0.2,-1.7,-0.1,0.1
1698419983532.0,16,0.0,0.0,0.1,-1.2000000000000002,9.5,-0.2,-1.6,-0.30000000000000004,0.1
1698419983549.0,16,0.0,0.0,0.0,-1.2000000000000002,9.5,-0.2,-1.5000000000000002,-0.5,0.1
1698419983566.0,16,0.0,0.0,0.0,-1.1,9.5,-0.2,-1.6,-0.8,0.1
1698419983583.0,16,0.0,0.0,0.0,-1.1,9.5,-0.2,-1.5000000000000002,-1.0,0.1
1698419983599.0,16,0.0,0.0,0.0,-1.1,9.5,-0.2,-1.3,-1.0,-0.1
1698419983616.0,16,0.0,0.0,0.0,-1.2000000000000002,9.5,-0.2,-1.2000000000000002,-1.4,-0.1
1698419983633.0,16,0.0,0.0,0.0,-1.2000000000000002,9.5,-0.2,-0.9,-1.5000000000000002,0.1
1698419983649.0,16,0.0,0.0,0.0,-1.1,9.5,-0.2,-0.8,-1.6,0.1
1698419983666.0,16,0.0,0.0,-0.1,-1.1,9.5,-0.30000000000000004,-0.9,-1.4,0.2
1698419983683.0,16,0.0,0.0,0.1,-1.1,9.5,-0.2,-1.0999999999999999,-1.0999999999999999,0.1
1698419983699.0,16,0.0,0.0,0.0,-1.1,9.5,-0.2,-0.8,-0.8,0.1
1698419983716.0,16,0.0,0.0,0.0,-1.1,9.5,-0.2,-0.7,-0.6000000000000001,-0.1
1698419983734.0,16,0.0,0.0,0.0,-1.1,9.5,-0.2,-0.7,-0.6000000000000001,0.30000000000000004
1698419983750.0,16,0.0,0.0,0.0,-1.1,9.5,-0.2,-0.6000000000000001,-0.6000000000000001,0.30000000000000004
1698419983766.0,16,0.0,0.0,0.0,-1.1,9.5,-0.2,-0.6000000000000001,-0.4,0.4
1698419983782.0,16,0.0,0.0,0.0,-1.1,9.5,-0.2,-1.3,-0.1,0.4
1698419983799.0,16,0.0,0.0,0.0,-1.1,9.600000000000001,-0.2,-1.9,-0.5,0.4
1698419983816.0,16,0.0,0.0,0.0,-1.1,9.5,-0.2,-1.9,-0.7,0.5
1698419983833.0,16,0.0,0.0,0.0,-1.1,9.5,-0.2,-1.9,-1.2000000000000002,0.6000000000000001
1698419983849.0,16,0.1,0.0,0.0,-1.0,9.5,-0.2,-1.6,-1.6,0.30000000000000004
1698419983866.0,16,0.1,0.0,0.0,-1.0,9.5,-0.2,-1.6,-1.4,0.2
1698419983882.0,16,0.1,0.0,0.0,-1.0,9.5,-0.2,-1.4,-0.8,-0.4
1698419983899.0,16,0.1,0.0,0.0,-1.1,9.5,-0.2,-1.4,-0.9,-0.7
1698419983916.0,16,0.0,0.0,0.0,-1.1,9.5,-0.2,-1.4,-0.9,-0.7
1698419983935.0,16,0.0,0.0,0.0,-1.1,9.5,-0.2,-1.3,-1.0,-0.4
1698419983949.0,16,0.1,0.0,0.0,-1.1,9.5,-0.2,-1.2000000000000002,-0.8,-0.30000000000000004
1698419983966.0,16,0.1,0.0,0.0,-1.0,9.5,-0.2,-1.2000000000000002,-0.8,-0.4
1698419983983.0,16,0.1,0.0,0.0,-1.1,9.5,-0.2,-1.0999999999999999,-0.8,-0.5
1698419983999.0,16,0.0,0.0,-0.1,-1.1,9.5,-0.2,-1.0999999999999999,-0.8,-0.4
1698419984016.0,16,0.0,0.0,-0.1,-1.1,9.5,-0.2,-1.2000000000000002,-0.9,-0.1
1698419984033.0,16,0.0,0.0,-0.1,-1.1,9.600000000000001,-0.2,-1.3,-0.8,-0.1
1698419984049.0,16,0.0,0.0,-0.1,-1.1,9.5,-0.30000000000000004,-1.7,-0.30000000000000004,0.0
1698419984066.0,16,0.1,0.0,-0.1,-1.0,9.5,-0.2,-1.9,-0.30000000000000004,0.0
1698419984082.0,16,0.1,0.0,0.0,-1.0,9.5,-0.2,-2.1,-0.6000000000000001,0.0
1698419984099.0,16,0.1,0.1,0.0,-1.0,9.600000000000001,-0.2,-2.1999999999999997,-0.30000000000000004,-0.2
1698419984116.0,16,0.0,0.1,0.0,-1.1,9.600000000000001,-0.2,-2.1999999999999997,0.0,-0.2
1698419984132.0,16,0.0,0.1,-0.1,-1.1,9.600000000000001,-0.2,-1.8,0.4,-0.1
1698419984149.0,16,0.0,0.0,0.0,-1.1,9.5,-0.1,-1.6,0.5,0.1
1698419984166.0,16,0.0,0.0,0.0,-1.1,9.5,-0.1,-1.5000000000000002,0.4,0.0
1698419984182.0,16,-0.1,0.0,0.1,-1.2000000000000002,9.5,-0.1,-1.2000000000000002,0.6000000000000001,-0.1
1698419984199.0,16,0.0,0.0,0.0,-1.1,9.5,-0.1,-0.8,0.7,-0.1
1698419984216.0,16,0.0,-0.1,0.0,-1.1,9.4,-0.1,-0.9,0.4,-0.2
1698419984233.0,16,-0.1,-0.1,0.0,-1.2000000000000002,9.4,-0.2,-1.0999999999999999,0.2,-0.4
1698419984249.0,16,-0.1,-0.1,-0.1,-1.2000000000000002,9.4,-0.2,-1.4,-0.30000000000000004,-0.2
1698419984266.0,16,-0.1,0.1,-0.1,-1.2000000000000002,9.600000000000001,-0.2,-1.7,-1.0999999999999999,-0.1
1698419984283.0,16,0.0,0.1,-0.2,-1.1,9.600000000000001,-0.30000000000000004,-1.7,-1.6,-0.2
1698419984299.0,16,0.0,0.1,-0.2,-1.1,9.600000000000001,-0.30000000000000004,-1.6,-1.9,-0.5
1698419984316.0,16,-0.1,0.0,-0.1,-1.2000000000000002,9.5,-0.2,-2.1,-1.7,-0.5
1698419984333.0,16,-0.1,0.0,-0.1,-1.2000000000000002,9.5,-0.2,-3.7000000000000006,-1.2000000000000002,-0.5
1698419984349.0,16,0.0,0.0,-0.1,-1.2000000000000002,9.5,-0.2,-5.4,-0.5,-0.6000000000000001
1698419984366.0,16,0.0,0.0,-0.1,-1.1,9.5,-0.2,-6.4,-0.30000000000000004,-0.7
1698419984383.0,16,0.0,0.0,0.0,-1.1,9.5,-0.1,-8.0,-1.5000000000000002,-0.30000000000000004
1698419984399.0,16,0.1,-0.1,-0.2,-1.0,9.5,-0.2,-8.5,-3.6,0.2
1698419984416.0,16,0.1,0.0,-0.2,-1.0,9.5,-0.30000000000000004,-10.2,-5.2,0.30000000000000004
1698419984433.0,16,0.2,0.0,-0.2,-1.0,9.5,-0.2,-11.000000000000002,-5.6,0.2
1698419984449.0,16,0.2,-0.2,-0.2,-0.9,9.3,-0.2,-12.000000000000002,-6.9,-0.5
1698419984466.0,16,0.30000000000000004,-0.2,-0.30000000000000004,-0.8,9.3,-0.2,-13.6,-7.6,-0.9
1698419984486.0,16,0.4,-0.2,-0.4,-0.7000000000000001,9.3,-0.30000000000000004,-14.100000000000001,-7.9,-1.6
1698419984499.0,16,0.30000000000000004,-0.1,-0.6000000000000001,-0.8,9.3,-0.4,-14.100000000000001,-7.400000000000001,-2.1
1698419984516.0,16,0.2,0.0,-0.8,-0.9,9.4,-0.7000000000000001,-13.9,-5.6,-2.0
1698419984533.0,16,0.2,0.0,-1.0,-0.9,9.5,-0.8,-13.9,-4.7,-1.6
1698419984549.0,16,0.2,0.1,-1.0,-0.8,9.600000000000001,-0.8,-13.6,-5.0,-0.1
1698419984566.0,16,0.30000000000000004,0.1,-1.0,-0.7000000000000001,9.600000000000001,-0.8,-13.5,-5.6,0.5
1698419984582.0,16,0.5,0.2,-1.0,-0.6000000000000001,9.700000000000001,-0.7000000000000001,-12.700000000000001,-7.1000000000000005,1.2000000000000002
1698419984599.0,16,0.6000000000000001,0.1,-1.1,-0.5,9.600000000000001,-0.8,-10.5,-8.9,1.7
1698419984616.0,16,0.6000000000000001,-0.30000000000000004,-1.2000000000000002,-0.5,9.200000000000001,-0.9,-7.2,-10.700000000000001,2.6
1698419984633.0,16,0.5,-0.30000000000000004,-1.3,-0.6000000000000001,9.200000000000001,-1.0,-5.4,-11.4,2.9
1698419984649.0,16,0.4,-0.2,-1.6,-0.6000000000000001,9.3,-1.2000000000000002,-3.8,-11.2,3.1
1698419984666.0,16,0.30000000000000004,-0.1,-1.6,-0.8,9.4,-1.3,-2.7,-10.4,2.7
1698419984682.0,16,0.2,0.0,-1.6,-0.8,9.5,-1.3,-2.1999999999999997,-10.700000000000001,2.8
1698419984699.0,16,0.2,-0.2,-1.7000000000000002,-0.8,9.3,-1.3,-0.2,-13.700000000000001,3.2
1698419984716.0,16,0.30000000000000004,-0.2,-1.5,-0.7000000000000001,9.3,-1.2000000000000002,0.30000000000000004,-13.6,3.3000000000000003
1698419984732.0,16,0.2,-0.4,-1.5,-0.7000000000000001,9.1,-1.2000000000000002,0.7,-13.8,3.1
1698419984749.0,16,0.1,-0.5,-1.3,-0.8,9.0,-1.0,-2.5,-10.2,3.9
1698419984766.0,16,-0.1,-1.0,-0.5,-1.1,8.5,-0.2,-10.700000000000001,0.2,2.9
1698419984782.0,16,-0.4,-1.3,-0.30000000000000004,-1.4000000000000001,8.1,0.0,-14.900000000000002,9.4,4.0
1698419984799.0,16,-1.2000000000000002,-1.5,-0.7000000000000001,-2.1,7.9,-0.30000000000000004,-22.6,26.500000000000004,7.8
1698419984816.0,16,-1.4000000000000001,0.0,-1.3,-2.3000000000000003,9.5,-0.8,-34.7,40.4,13.100000000000001
1698419984832.0,16,-0.4,1.6,-1.1,-1.3,11.100000000000001,-0.6000000000000001,-38.400000000000006,42.0,14.0
1698419984849.0,16,1.4000000000000001,2.8000000000000003,-0.8,0.5,12.3,-0.2,-29.300000000000004,41.300000000000004,8.799999999999999
1698419984866.0,16,1.0,1.4000000000000001,-1.9000000000000001,0.1,10.8,-1.2000000000000002,-18.5,38.2,-7.9
1698419984883.0,16,0.30000000000000004,1.2000000000000002,-2.5,-0.6000000000000001,10.700000000000001,-1.8,-19.9,43.800000000000004,-14.100000000000001
1698419984899.0,16,-0.30000000000000004,1.8,-2.6,-1.3,11.3,-1.9000000000000001,-26.3,57.5,-18.1
1698419984916.0,16,-0.1,0.7000000000000001,-2.1,-1.2000000000000002,10.200000000000001,-1.3,-28.400000000000002,60.599999999999994,-21.5
1698419984933.0,16,-0.30000000000000004,0.30000000000000004,-1.9000000000000001,-1.5,9.700000000000001,-1.1,-30.5,60.00000000000001,-23.900000000000002
1698419984949.0,16,-0.7000000000000001,-0.30000000000000004,-1.5,-1.9000000000000001,9.1,-0.7000000000000001,-37.300000000000004,53.9,-29.300000000000004
1698419984966.0,16,-0.9,-0.30000000000000004,-1.1,-2.2,9.1,-0.1,-42.400000000000006,43.7,-35.0
1698419984982.0,16,-1.1,-0.4,-1.0,-2.5,9.0,0.0,-42.1,38.5,-41.4
1698419984999.0,16,-1.5,0.2,-1.5,-3.1,9.5,-0.30000000000000004,-38.2,31.6,-50.800000000000004
1698419985016.0,16,-1.2000000000000002,0.6000000000000001,-2.3000000000000003,-3.0,9.9,-1.1,-35.4,24.9,-50.800000000000004
1698419985032.0,16,-1.3,0.8,-2.5,-3.2,10.100000000000001,-1.2000000000000002,-34.400000000000006,21.0,-50.6
1698419985049.0,16,-1.3,0.8,-2.2,-3.4000000000000004,10.100000000000001,-0.8,-31.4,18.2,-46.2
1698419985066.0,16,-0.8,0.2,-2.0,-3.1,9.4,-0.6000000000000001,-19.1,11.8,-39.8
1698419985083.0,16,-0.6000000000000001,0.4,-2.4000000000000004,-2.9000000000000004,9.600000000000001,-1.0,-12.700000000000001,8.799999999999999,-36.9
1698419985099.0,16,-0.7000000000000001,0.5,-2.7,-3.1,9.600000000000001,-1.3,-3.3000000000000003,11.8,-32.0
1698419985116.0,16,-0.9,1.0,-3.7,-3.4000000000000004,10.100000000000001,-2.4000000000000004,6.000000000000001,11.8,-23.6
1698419985133.0,16,-1.2000000000000002,1.7000000000000002,-3.1,-3.8000000000000003,10.9,-1.9000000000000001,10.0,7.699999999999999,-11.6
1698419985151.0,16,-1.4000000000000001,0.8,-3.1,-4.0,10.0,-1.8,13.3,7.699999999999999,-7.9
1698419985166.0,16,-1.3,2.8000000000000003,-1.7000000000000002,-3.9000000000000004,12.0,-0.6000000000000001,7.699999999999999,-2.0,-3.5
1698419985182.0,16,-0.5,3.7,2.4000000000000004,-0.9,11.4,4.4,12.100000000000001,-14.4,2.9
1698419985199.0,16,3.1,-0.7000000000000001,0.4,0.5,8.5,1.6,22.7,-11.2,2.5
1698419985216.0,16,0.7000000000000001,-3.0,-0.8,-1.9000000000000001,6.2,0.30000000000000004,24.400000000000002,-48.9,-2.4000000000000004
1698419985233.0,16,-0.4,-2.0,-1.1,-3.0,7.2,0.0,20.1,-73.0,1.7
1698419985249.0,16,-1.0,0.2,1.1,-3.5,9.4,2.3000000000000003,-4.3999999999999995,-62.8,21.400000000000002
1698419985266.0,16,0.2,0.1,0.6000000000000001,-2.2,9.4,1.8,-10.3,-47.0,19.8
1698419985283.0,16,0.6000000000000001,-0.9,0.30000000000000004,-1.6,8.3,1.6,-11.9,-42.800000000000004,30.799999999999997
1698419985299.0,16,0.4,0.1,-0.8,-1.8,9.3,0.5,-12.8,-42.900000000000006,32.5
1698419985316.0,16,-0.4,1.2000000000000002,-0.6000000000000001,-2.5,10.5,0.8,-21.700000000000003,-30.299999999999997,31.2
1698419985333.0,16,-0.9,0.7000000000000001,-0.9,-3.0,10.0,0.5,-18.1,-40.2,28.200000000000003
1698419985349.0,16,-1.3,-0.7000000000000001,-1.6,-3.3000000000000003,8.6,0.0,-19.400000000000002,-47.5,19.1
1698419985366.0,16,-0.6000000000000001,-1.3,-1.8,-2.5,8.0,-0.2,-20.1,-45.9,18.8
1698419985382.0,16,0.4,-2.1,-1.8,-1.3,7.2,-0.1,-19.400000000000002,-47.800000000000004,27.7
1698419985399.0,16,0.7000000000000001,-2.5,-1.9000000000000001,-1.0,6.800000000000001,-0.1,-18.0,-48.9,33.7
1698419985416.0,16,0.7000000000000001,-2.8000000000000003,-1.2000000000000002,-0.8,6.4,0.6000000000000001,-15.8,-49.9,44.7
1698419985433.0,16,0.5,-2.7,-0.6000000000000001,-0.8,6.5,1.2000000000000002,-5.9,-54.9,55.4
1698419985449.0,16,0.5,-2.1,-1.1,-0.7000000000000001,7.2,0.8,-0.1,-57.2,58.7
1698419985466.0,16,0.5,-0.2,-2.6,-0.5,9.1,-0.7000000000000001,2.0,-42.0,54.9
1698419985482.0,16,1.9000000000000001,0.8,-2.6,1.1,10.100000000000001,-0.7000000000000001,0.2,-23.700000000000003,36.4
1698419985499.0,16,2.9000000000000004,1.3,-2.1,2.1,10.600000000000001,-0.2,5.0,-22.2,29.400000000000002
1698419985516.0,16,2.6,1.6,-2.0,1.9000000000000001,10.9,-0.2,26.8,-17.5,17.9
1698419985532.0,16,1.1,0.9,-3.4000000000000004,0.5,10.3,-1.8,41.9,16.0,18.6
1698419985549.0,16,0.7000000000000001,1.1,-4.0,0.2,10.5,-2.5,45.4,32.4,22.8
1698419985566.0,16,-0.4,2.9000000000000004,-4.4,-0.9,12.3,-3.1,50.2,20.0,19.700000000000003
1698419985583.0,16,-1.6,1.7000000000000002,-2.0,-2.2,11.200000000000001,-0.9,51.400000000000006,12.200000000000001,-18.1
1698419985599.0,16,-1.6,2.7,-0.6000000000000001,-2.2,12.100000000000001,0.4,51.400000000000006,45.4,-30.599999999999998
1698419985616.0,16,-3.7,4.4,16.3,-4.4,13.9,17.3,20.4,-40.1,-17.1
1698419985632.0,16,1.0,-1.9000000000000001,-4.0,0.2,7.6000000000000005,-3.2,55.800000000000004,-0.30000000000000004,-35.4
1698419985649.0,16,5.9,-1.2000000000000002,6.0,5.1000000000000005,8.3,6.800000000000001,23.0,43.800000000000004,-26.700000000000003
1698419985666.0,16,4.7,3.2,2.6,3.8000000000000003,12.700000000000001,3.4000000000000004,5.1,41.5,-29.900000000000006
1698419985682.0,16,-3.0,12.200000000000001,2.8000000000000003,-3.9000000000000004,21.8,3.7,-10.3,39.00000000000001,-5.2
1698419985699.0,16,-4.2,10.8,3.1,-3.6,14.4,4.3,3.8,8.600000000000001,10.9
1698419985716.0,16,-0.7000000000000001,2.0,2.7,-1.6,11.700000000000001,3.5,5.7,-12.100000000000001,20.7
1698419985732.0,16,0.8,3.0,-0.1,-0.1,12.700000000000001,0.8,-12.4,-8.5,9.700000000000001
1698419985749.0,16,0.7000000000000001,1.8,0.2,-0.2,9.9,1.6,-23.700000000000003,2.3000000000000003,-10.1
1698419985766.0,16,0.9,-1.1,0.6000000000000001,0.0,8.6,1.6,-25.2,9.4,-14.700000000000001
1698419985782.0,16,1.3,-3.4000000000000004,-0.2,0.30000000000000004,6.2,0.9,-25.400000000000002,15.7,-27.900000000000002
1698419985799.0,16,0.30000000000000004,-4.1000000000000005,-1.4000000000000001,-0.8,5.5,-0.30000000000000004,-18.2,27.1,-34.50000000000001
1698419985816.0,16,-0.5,-4.6000000000000005,-1.7000000000000002,-1.6,5.0,-0.6000000000000001,-13.5,22.5,-26.1
1698419985832.0,16,-1.2000000000000002,-6.7,-2.1,-2.4000000000000004,2.8000000000000003,-0.9,-8.3,7.0,8.200000000000001
1698419985850.0,16,-1.9000000000000001,-8.700000000000001,-1.6,-3.0,0.8,-0.4,-0.2,-14.600000000000001,15.2
1698419985866.0,16,-1.8,-9.200000000000001,-1.7000000000000002,-2.9000000000000004,0.2,-0.5,3.5,-15.299999999999999,9.5
1698419985883.0,16,-1.3,-8.700000000000001,-1.9000000000000001,-2.4000000000000004,0.6000000000000001,-0.8,4.7,-9.3,-5.8
1698419985900.0,16,-0.8,-8.0,-1.9000000000000001,-2.0,1.3,-0.8,7.2,-4.3999999999999995,-8.3
1698419985916.0,16,-0.1,-5.9,-1.9000000000000001,-1.2000000000000002,3.3000000000000003,-0.9,5.6,0.9,5.2
1698419985932.0,16,-0.4,-0.6000000000000001,-1.1,-1.5,8.6,0.0,1.4,-20.7,14.200000000000001
1698419985949.0,16,-0.7000000000000001,2.5,-0.4,-2.0,13.3,1.6,3.5,-33.7,4.1000000000000005
1698419985966.0,16,-0.5,5.5,0.8,-1.7000000000000002,14.8,1.8,12.4,-10.5,-43.900000000000006
1698419985982.0,16,2.0,8.5,-4.1000000000000005,0.6000000000000001,17.900000000000002,-3.2,27.8,48.00000000000001,-29.500000000000004
1698419985999.0,16,3.7,5.1000000000000005,-4.6000000000000005,2.4000000000000004,14.5,-3.8000000000000003,37.2,46.6,4.5
1698419986016.0,16,-0.1,7.1000000000000005,-0.30000000000000004,-1.4000000000000001,16.6,0.4,27.0,0.2,10.1
1698419986035.0,16,1.4000000000000001,5.5,10.5,0.2,15.0,11.200000000000001,31.7,25.0,-8.3
1698419986049.0,16,-1.1,-0.8,-4.0,-2.5,8.700000000000001,-3.5,62.300000000000004,-23.1,-32.5
1698419986066.0,16,-3.9000000000000004,-2.9000000000000004,-0.7000000000000001,-5.300000000000001,6.6000000000000005,-0.30000000000000004,25.900000000000002,-26.400000000000002,-31.8
1698419986082.0,16,-0.30000000000000004,4.1000000000000005,4.4,-1.7000000000000002,13.600000000000001,4.9,-21.0,-43.400000000000006,-6.9
1698419986099.0,16,0.6000000000000001,9.8,5.5,-0.8,19.400000000000002,6.1000000000000005,-26.8,-45.800000000000004,22.1
1698419986116.0,16,1.9000000000000001,8.700000000000001,3.5,0.6000000000000001,18.400000000000002,4.2,-10.3,-38.400000000000006,30.000000000000004
1698419986133.0,16,-1.3,1.1,3.5,-2.6,10.8,4.2,-2.8,-15.2,-0.9
1698419986149.0,16,-2.6,0.4,0.5,-4.0,10.100000000000001,1.3,-4.3999999999999995,27.0,3.9
1698419986166.0,16,-1.6,0.1,-1.0,-2.9000000000000004,9.8,-0.2,-11.000000000000002,28.400000000000002,11.2
1698419986182.0,16,-0.7000000000000001,-2.1,0.30000000000000004,-2.0,7.6000000000000005,1.1,-21.6,13.0,25.1
1698419986199.0,16,-0.8,-3.8000000000000003,-0.30000000000000004,-1.9000000000000001,5.800000000000001,0.7000000000000001,-21.0,4.6000000000000005,41.5
1698419986216.0,16,-0.4,-4.2,-0.5,-1.5,5.4,0.5,-24.9,3.6,44.6
1698419986233.0,16,1.2000000000000002,-4.4,0.6000000000000001,0.30000000000000004,5.2,1.7000000000000002,-24.000000000000004,6.1000000000000005,44.1
1698419986249.0,16,2.3000000000000003,-4.5,0.0,1.5,5.0,1.1,-16.900000000000002,0.8,27.8
1698419986266.0,16,2.0,-4.7,-0.5,1.3,4.800000000000001,0.6000000000000001,-10.8,3.8,19.500000000000004
1698419986282.0,16,0.8,-5.1000000000000005,-1.8,0.1,4.4,-0.7000000000000001,1.5000000000000002,11.1,11.8
1698419986299.0,16,-0.5,-5.6000000000000005,-2.6,-1.2000000000000002,3.8000000000000003,-1.5,6.8,18.3,7.8
1698419986316.0,16,-0.7000000000000001,-5.800000000000001,-1.8,-1.4000000000000001,3.6,-0.8,8.799999999999999,20.7,8.3
1698419986333.0,16,0.0,-4.7,-1.5,-0.6000000000000001,4.7,-0.6000000000000001,22.8,13.8,9.600000000000001
1698419986349.0,16,0.8,-3.4000000000000004,-2.6,0.2,6.0,-1.8,36.5,25.2,13.200000000000001
1698419986366.0,16,1.4000000000000001,-2.9000000000000004,-3.0,0.8,6.5,-2.3000000000000003,39.9,42.0,22.1
1698419986383.0,16,2.1,-1.6,-1.9000000000000001,1.7000000000000002,7.7,-1.3,33.900000000000006,71.0,42.0
1698419986399.0,16,2.3000000000000003,1.4000000000000001,-1.3,2.1,10.8,-0.8,16.8,1.0999999999999999,65.2
1698419986416.0,16,-0.6000000000000001,3.6,-1.1,-0.7000000000000001,13.0,-0.6000000000000001,14.100000000000001,-35.8,54.3
1698419986433.0,16,-5.300000000000001,2.5,-1.2000000000000002,-5.6000000000000005,12.0,-0.8,37.300000000000004,-15.8,-19.9
1698419986449.0,16,-0.9,8.3,8.700000000000001,-1.2000000000000002,17.8,9.0,21.6,117.8,-0.2
1698419986466.0,16,-3.8000000000000003,10.4,12.600000000000001,-4.1000000000000005,20.0,12.9,11.6,35.8,16.900000000000002
1698419986483.0,16,-0.8,-1.9000000000000001,-2.4000000000000004,-1.0,7.6000000000000005,-2.2,75.80000000000001,-36.0,14.600000000000001
1698419986499.0,16,9.4,0.30000000000000004,5.300000000000001,9.3,9.8,5.5,12.700000000000001,38.1,6.4
1698419986516.0,16,5.2,3.5,3.7,5.1000000000000005,13.0,3.8000000000000003,-2.5,33.7,-16.2
1698419986533.0,16,-2.6,13.4,3.2,-2.7,23.0,3.5,-23.5,35.0,0.30000000000000004
1698419986550.0,16,-0.5,6.9,1.1,-0.7000000000000001,16.7,1.4000000000000001,2.1999999999999997,-9.1,15.100000000000001
1698419986566.0,16,1.4000000000000001,3.7,0.9,2.1,13.100000000000001,0.9,3.0000000000000004,-20.0,17.7
1698419986583.0,16,1.8,3.0,-0.1,1.7000000000000002,12.8,0.2,-11.3,-23.8,6.1000000000000005
1698419986599.0,16,0.5,0.30000000000000004,0.6000000000000001,0.4,10.100000000000001,1.0,-20.8,-10.600000000000001,-20.6
1698419986616.0,16,0.4,-0.9,0.9,0.30000000000000004,7.9,1.2000000000000002,-22.000000000000004,-3.3000000000000003,-27.5
1698419986633.0,16,0.6000000000000001,-2.8000000000000003,0.6000000000000001,0.30000000000000004,6.9,1.1,-20.8,7.0,-46.2
1698419986649.0,16,-0.2,-5.0,0.1,-0.7000000000000001,4.7,0.7000000000000001,-19.0,14.500000000000002,-62.4
1698419986666.0,16,-1.0,-5.2,-0.4,-2.0,3.9000000000000004,-0.2,-13.4,15.9,-56.800000000000004
1698419986682.0,16,-1.8,-6.4,-1.0,-2.5,3.2,-0.4,-13.0,11.1,-45.800000000000004
1698419986699.0,16,-1.3,-7.0,-1.1,-2.1,2.5,-0.5,-12.700000000000001,-0.7,-4.9
1698419986716.0,16,-1.5,-6.5,-1.0,-2.3000000000000003,2.9000000000000004,-0.30000000000000004,-8.200000000000001,-7.0,6.7
1698419986733.0,16,-1.9000000000000001,-6.2,-1.1,-2.8000000000000003,3.3000000000000003,-0.4,-8.700000000000001,-4.300000000000001,-2.1
1698419986749.0,16,-1.5,-4.800000000000001,-1.2000000000000002,-2.4000000000000004,4.6000000000000005,-0.5,-8.9,-2.7,-19.6
1698419986766.0,16,-0.1,-2.5,-0.2,-1.0,6.9,0.5,4.0,-2.8,-6.3
1698419986782.0,16,0.0,-1.4000000000000001,-0.5,-0.9,7.9,0.1,15.5,-8.600000000000001,-7.9
1698419986799.0,16,0.0,-0.6000000000000001,-2.4000000000000004,-1.0,8.8,-1.9000000000000001,31.8,-29.500000000000004,-30.299999999999997
1698419986816.0,16,1.0,2.7,0.0,-0.2,12.100000000000001,0.4,28.0,-16.6,-48.7
1698419986832.0,16,1.2000000000000002,3.1,-1.0,0.0,12.5,-0.6000000000000001,24.3,15.5,-47.5
1698419986849.0,16,1.7000000000000002,0.30000000000000004,-3.2,0.5,9.700000000000001,-2.9000000000000004,25.0,32.4,5.6
1698419986866.0,16,1.5,9.3,5.9,0.30000000000000004,18.7,6.2,4.9,-73.9,16.2
1698419986882.0,16,5.5,8.0,12.9,4.4,17.400000000000002,13.200000000000001,2.1999999999999997,-42.300000000000004,12.100000000000001
1698419986899.0,16,0.6000000000000001,-2.1,0.2,-0.5,7.4,0.4,63.50000000000001,-1.9,-15.5
1698419986916.0,16,-6.4,-1.3,-1.0,-7.6000000000000005,8.200000000000001,-0.8,6.9,-6.1000000000000005,0.7
1698419986933.0,16,-4.800000000000001,6.1000000000000005,2.2,-6.0,15.600000000000001,2.4000000000000004,-16.3,-43.50000000000001,13.3
1698419986949.0,16,0.1,16.1,7.1000000000000005,-1.1,25.700000000000003,7.5,-32.2,-67.80000000000001,5.300000000000001
1698419986966.0,16,3.2,3.2,2.6,2.1,12.8,3.0,7.300000000000001,-33.400000000000006,-11.4
1698419986982.0,16,0.30000000000000004,1.6,1.9000000000000001,-0.9,11.200000000000001,2.4000000000000004,6.6000000000000005,-10.8,-21.8
1698419986999.0,16,-3.1,2.0,-0.7000000000000001,-4.4,11.700000000000001,-0.2,-11.000000000000002,-2.8,-7.400000000000001
1698419987016.0,16,-1.1,0.2,0.0,-2.4000000000000004,9.9,0.5,-21.6,-6.2,15.000000000000002
1698419987033.0,16,-0.7000000000000001,-1.4000000000000001,-0.30000000000000004,-1.9000000000000001,8.200000000000001,0.2,-21.200000000000003,-1.7,21.6
1698419987049.0,16,-0.4,-2.9000000000000004,-0.6000000000000001,-1.5,6.800000000000001,-0.1,-22.4,2.1,30.599999999999998
1698419987066.0,16,1.0,-4.7,-0.2,0.1,4.9,0.5,-29.1,0.30000000000000004,51.0
1698419987082.0,16,1.7000000000000002,-5.2,0.0,0.9,4.5,0.7000000000000001,-29.300000000000004,-2.3000000000000003,49.5
1698419987099.0,16,2.1,-5.800000000000001,-0.1,1.4000000000000001,3.8000000000000003,0.7000000000000001,-28.700000000000003,-7.500000000000001,37.5
1698419987116.0,16,1.9000000000000001,-6.0,0.4,1.3,3.5,1.3,-26.500000000000004,-16.900000000000002,19.9
1698419987133.0,16,1.7000000000000002,-5.800000000000001,0.6000000000000001,1.2000000000000002,3.7,1.6,-19.700000000000003,-24.6,12.9
1698419987149.0,16,0.0,-5.2,-1.2000000000000002,-0.5,4.2,-0.2,-6.4,-13.100000000000001,14.800000000000002
1698419987166.0,16,-0.7000000000000001,-3.5,-1.8,-1.1,5.9,-0.8,0.9,5.6,30.200000000000003
1698419987182.0,16,-0.2,-2.2,-2.7,-0.5,7.2,-1.7000000000000002,6.6000000000000005,10.2,22.8
1698419987199.0,16,0.9,-1.2000000000000002,-4.1000000000000005,0.6000000000000001,8.200000000000001,-3.2,20.8,27.7,2.3000000000000003
1698419987215.0,16,2.1,-0.2,-2.9000000000000004,1.8,9.200000000000001,-2.1,31.3,69.3,4.0
1698419987232.0,16,1.9000000000000001,0.9,-3.6,1.6,10.3,-3.0,38.7,79.3,21.900000000000002
1698419987249.0,16,0.8,1.0,-3.3000000000000003,0.5,10.4,-2.8000000000000003,36.5,66.2,31.5
1698419987267.0,16,-2.4000000000000004,1.8,-1.8,-2.5,11.200000000000001,-1.5,43.7,38.900000000000006,29.1
1698419987282.0,16,-3.3000000000000003,2.3000000000000003,-1.8,-3.5,11.8,-1.5,51.1,32.0,10.1
1698419987299.0,16,-4.4,8.0,7.7,-4.7,17.5,7.800000000000001,24.1,77.5,-4.300000000000001
1698419987316.0,16,-7.4,0.8,10.3,-7.7,10.4,10.5,39.50000000000001,-58.9,-7.400000000000001
1698419987332.0,16,-0.30000000000000004,-3.7,2.3000000000000003,7.9,7.5,-1.3,72.8,-49.2,-1.3
1698419987349.0,16,10.700000000000001,0.0,4.7,10.5,9.5,4.800000000000001,13.200000000000001,17.5,-8.4
1698419987366.0,16,3.0,7.0,4.5,2.7,16.5,4.6000000000000005,-27.400000000000002,27.6,-36.6
1698419987383.0,16,-3.1,10.5,3.8000000000000003,-5.7,22.0,2.3000000000000003,-21.5,36.3,2.7
1698419987402.0,16,-3.0,9.0,1.2000000000000002,-3.3000000000000003,18.7,1.4000000000000001,-11.000000000000002,15.100000000000001,14.500000000000002
1698419987416.0,16,0.5,3.4000000000000004,0.30000000000000004,0.30000000000000004,13.200000000000001,0.6000000000000001,-13.100000000000001,-0.30000000000000004,12.200000000000001
1698419987432.0,16,0.8,3.3000000000000003,-0.7000000000000001,0.5,13.0,-0.4,-25.3,8.3,-0.7
1698419987449.0,16,0.5,1.6,-0.2,0.2,11.3,0.2,-27.6,13.200000000000001,-10.600000000000001
1698419987466.0,16,0.5,-1.2000000000000002,0.0,0.1,8.6,0.4,-28.3,17.400000000000002,-30.599999999999998
1698419987482.0,16,1.1,-3.7,0.1,0.6000000000000001,6.0,0.6000000000000001,-29.800000000000004,27.3,-43.800000000000004
1698419987499.0,16,0.9,-4.2,-0.2,0.30000000000000004,5.5,0.5,-29.400000000000002,29.1,-45.7
1698419987516.0,16,-0.6000000000000001,-4.9,-0.6000000000000001,-1.4000000000000001,4.7,0.1,-21.700000000000003,24.200000000000003,-43.1
1698419987532.0,16,-1.2000000000000002,-6.800000000000001,-1.1,-2.1,2.7,-0.4,-16.900000000000002,11.4,-4.0
1698419987549.0,16,-1.3,-7.4,-1.1,-2.1,2.1,-0.30000000000000004,-16.8,4.300000000000001,10.3
1698419987566.0,16,-2.0,-7.6000000000000005,-1.3,-2.8000000000000003,1.9000000000000001,-0.5,-16.5,1.4,4.0
1698419987582.0,16,-2.4000000000000004,-6.300000000000001,-1.5,-3.2,3.1,-0.6000000000000001,-17.5,3.2,-9.5
1698419987599.0,16,-2.1,-4.9,-1.9000000000000001,-3.0,4.5,-1.0,-16.1,1.0999999999999999,-12.4
1698419987616.0,16,-0.9,-3.4000000000000004,-1.0,-1.8,5.9,-0.1,-8.799999999999999,-9.0,-0.7
1698419987632.0,16,-0.7000000000000001,-2.4000000000000004,-0.9,-1.6,6.9,0.0,17.599999999999998,-37.300000000000004,5.9
1698419987649.0,16,-1.0,-2.4000000000000004,-1.5,-1.8,6.9,-0.7000000000000001,32.800000000000004,-48.9,0.4
1698419987676.0,16,0.1,1.2000000000000002,-1.8,-0.9,10.5,-1.2000000000000002,31.5,-54.3,-28.500000000000004
1698419987682.0,16,0.4,3.4000000000000004,-0.6000000000000001,-0.6000000000000001,12.8,0.0,23.700000000000003,-26.3,-34.0
1698419987699.0,16,1.2000000000000002,4.0,-1.8,0.2,13.4,-1.2000000000000002,19.1,0.9,-25.400000000000002
1698419987715.0,16,2.4000000000000004,2.0,-4.800000000000001,1.5,11.4,-4.4,34.50000000000001,4.5,23.400000000000002
1698419987732.0,16,2.3000000000000003,10.0,7.0,1.5,19.5,7.300000000000001,13.700000000000001,-101.2,12.8
1698419987749.0,16,5.0,6.7,11.9,4.2,16.2,12.4,1.6,-35.9,2.7
1698419987766.0,16,-1.6,-2.4000000000000004,-0.30000000000000004,-2.5,7.1000000000000005,0.0,65.60000000000001,-33.7,-11.9
1698419987782.0,16,-6.6000000000000005,2.0,1.6,-7.6000000000000005,11.5,1.9000000000000001,8.200000000000001,-51.0,6.2
1698419987799.0,16,-2.9000000000000004,9.200000000000001,4.2,-3.8000000000000003,18.7,4.5,-12.8,-63.50000000000001,13.0
1698419987816.0,16,1.6,12.4,4.6000000000000005,0.6000000000000001,22.0,5.0,-12.000000000000002,-63.50000000000001,-2.7
1698419987833.0,16,2.5,3.4000000000000004,2.5,1.7000000000000002,13.100000000000001,2.9000000000000004,12.700000000000001,-29.800000000000004,-7.2
1698419987849.0,16,-0.4,2.0,1.7000000000000002,-1.3,11.700000000000001,2.1,8.0,-14.0,-8.5
1698419987866.0,16,-2.0,3.3000000000000003,-0.1,-3.0,13.0,0.30000000000000004,-10.700000000000001,-4.5,2.9
1698419987883.0,16,-1.1,0.30000000000000004,1.3,-2.0,10.0,1.8,-16.2,-13.6,13.100000000000001
1698419987899.0,16,-1.0,-1.5,1.1,-1.9000000000000001,8.200000000000001,1.6,-13.8,-11.6,18.900000000000002
1698419987916.0,16,-0.8,-3.9000000000000004,0.4,-1.6,5.800000000000001,1.0,-11.9,-8.5,30.000000000000004
1698419987932.0,16,0.6000000000000001,-4.2,0.1,0.0,5.5,0.7000000000000001,-10.9,-4.1000000000000005,37.7
1698419987949.0,16,1.6,-4.4,-0.5,1.0,5.2,0.2,-11.1,-3.7000000000000006,36.0
1698419987966.0,16,2.4000000000000004,-5.2,-0.9,1.9000000000000001,4.4,-0.30000000000000004,-18.400000000000002,1.4,27.1
1698419987983.0,16,2.4000000000000004,-5.300000000000001,-0.4,2.0,4.3,0.30000000000000004,-21.1,-0.8,20.1
1698419987999.0,16,2.0,-5.4,-0.6000000000000001,1.7000000000000002,4.1000000000000005,0.2,-19.8,-1.6,16.1
1698419988016.0,16,1.0,-5.4,-1.0,0.7000000000000001,4.0,-0.1,-12.700000000000001,2.0,18.900000000000002
1698419988032.0,16,-0.30000000000000004,-4.2,-1.3,-0.5,5.300000000000001,-0.5,-3.6,13.0,33.2
1698419988049.0,16,-0.4,-2.8000000000000003,-1.8,-0.5,6.6000000000000005,-1.0,10.1,23.400000000000002,28.900000000000002
1698419988066.0,16,-0.2,-2.5,-2.0,-0.30000000000000004,6.9,-1.2000000000000002,16.900000000000002,33.2,26.9
1698419988082.0,16,1.4000000000000001,-2.7,-2.6,1.4000000000000001,6.7,-2.0,32.1,60.00000000000001,24.9
1698419988099.0,16,2.5,-3.1,-2.8000000000000003,3.3000000000000003,6.0,-2.0,35.8,94.3,23.6
1698419988116.0,16,3.1,-3.2,-2.3000000000000003,3.3000000000000003,6.2,-1.9000000000000001,34.50000000000001,101.60000000000001,24.9
1698419988133.0,16,0.4,-0.5,-2.0,0.7000000000000001,8.8,-1.7000000000000002,25.5,42.400000000000006,39.6
1698419988149.0,16,-4.800000000000001,6.1000000000000005,-2.3000000000000003,-1.5,12.600000000000001,-1.4000000000000001,21.8,0.30000000000000004,40.7
1698419988170.0,16,-5.5,7.4,3.2,-5.300000000000001,16.900000000000002,3.4000000000000004,30.200000000000003,-5.6,-30.599999999999998
1698419988182.0,16,-6.300000000000001,8.1,10.0,-6.2,17.6,10.3,-8.200000000000001,19.3,-29.700000000000003
1698419988199.0,16,0.4,-1.2000000000000002,5.2,0.5,8.3,5.4,46.7,-61.8,-3.9
1698419988216.0,16,7.0,0.8,-2.9000000000000004,7.1000000000000005,10.3,-2.8000000000000003,34.6,14.4,16.700000000000003
1698419988232.0,16,9.0,6.1000000000000005,4.0,9.200000000000001,15.600000000000001,4.2,-6.7,29.800000000000004,-2.9
1698419988249.0,16,-1.2000000000000002,13.200000000000001,4.4,-1.0,22.8,4.7,-20.5,24.1,-15.9
1698419988266.0,16,-4.7,10.600000000000001,2.6,-4.6000000000000005,20.200000000000003,2.8000000000000003,-6.7,21.5,-13.200000000000001
1698419988282.0,16,-1.3,3.4000000000000004,1.2000000000000002,-1.2000000000000002,13.100000000000001,1.6,-13.3,35.199999999999996,8.0
1698419988299.0,16,1.8,4.5,0.4,1.9000000000000001,14.200000000000001,0.8,-21.400000000000002,11.9,-2.6
1698419988315.0,16,1.3,3.4000000000000004,0.1,1.4000000000000001,13.100000000000001,0.6000000000000001,-23.900000000000002,8.3,-12.4
1698419988333.0,16,-0.2,0.6000000000000001,0.5,-0.2,10.3,1.0,-21.6,-6.4,-26.1
1698419988349.0,16,-0.2,-2.1,0.30000000000000004,-0.30000000000000004,7.7,0.9,-21.200000000000003,-3.4,-39.1
1698419988366.0,16,-0.2,-3.3000000000000003,0.1,-0.4,6.5,0.8,-19.9,-0.30000000000000004,-47.400000000000006
1698419988382.0,16,-0.6000000000000001,-4.9,-0.30000000000000004,-1.0,4.800000000000001,0.30000000000000004,-14.700000000000001,-10.8,-58.9
1698419988399.0,16,-0.9,-5.9,-0.6000000000000001,-1.4000000000000001,3.7,0.2,-13.700000000000001,-16.6,-46.4
1698419988417.0,16,-1.1,-6.0,-0.4,-1.7000000000000002,3.6,0.4,-13.4,-15.8,-40.7
1698419988433.0,16,-1.2000000000000002,-6.4,-0.5,-1.9000000000000001,3.2,0.30000000000000004,-9.4,-13.700000000000001,-27.900000000000002
1698419988449.0,16,-1.2000000000000002,-6.5,-1.2000000000000002,-2.0,3.0,-0.4,-5.8,-12.200000000000001,-17.200000000000003
1698419988466.0,16,-1.1,-6.2,-1.7000000000000002,-1.9000000000000001,3.3000000000000003,-0.9,-4.1000000000000005,-10.600000000000001,-8.3
1698419988482.0,16,-0.7000000000000001,-5.1000000000000005,-1.8,-1.6,4.3,-1.0,-1.6,-11.9,-6.7
1698419988499.0,16,0.1,-4.0,-1.8,-0.7000000000000001,5.4,-1.0,4.7,-20.3,0.7
1698419988516.0,16,0.4,-3.4000000000000004,-1.5,-0.5,5.9,-0.8,10.700000000000001,-27.400000000000002,5.300000000000001
1698419988533.0,16,-0.4,-1.9000000000000001,-1.5,-1.2000000000000002,7.5,-0.8,30.9,-44.6,5.500000000000001
1698419988549.0,16,-1.1,-1.2000000000000002,-3.5,-1.9000000000000001,8.1,-3.0,45.800000000000004,-59.80000000000001,-14.900000000000002
1698419988566.0,16,-0.8,0.30000000000000004,-2.2,-1.7000000000000002,9.700000000000001,-1.7000000000000002,37.1,-55.5,-27.3
1698419988582.0,16,-0.4,3.1,0.30000000000000004,-1.4000000000000001,12.4,0.7000000000000001,16.3,0.5,-52.1
1698419988599.0,16,3.1,1.2000000000000002,-3.5,2.0,10.600000000000001,-3.2,29.200000000000003,18.5,-4.5
1698419988616.0,16,3.4000000000000004,2.0,-4.2,2.3000000000000003,11.4,-4.0,40.1,1.3,19.8
1698419988633.0,16,4.9,10.4,8.1,4.0,19.900000000000002,8.3,-3.6,-51.7,0.9
1698419988649.0,16,5.2,-1.8,7.5,4.3,7.6000000000000005,7.800000000000001,25.400000000000002,42.5,-17.0
1698419988666.0,16,-1.5,-4.9,7.5,-2.5,4.6000000000000005,7.7,49.7,-14.500000000000002,-35.199999999999996
1698419988682.0,16,-9.9,0.7000000000000001,-5.9,-11.100000000000001,10.100000000000001,-5.800000000000001,14.200000000000001,14.900000000000002,-3.3000000000000003
1698419988699.0,16,-1.5,13.100000000000001,4.0,-2.6,22.6,4.1000000000000005,-34.0,-50.0,26.400000000000002
1698419988716.0,16,1.5,11.700000000000001,6.2,0.5,21.3,6.4,-26.700000000000003,-50.0,15.2
1698419988732.0,16,4.0,3.4000000000000004,2.1,3.0,13.0,2.4000000000000004,-4.5,-27.7,-6.3
1698419988749.0,16,-0.6000000000000001,2.4000000000000004,2.3000000000000003,-1.6,12.0,2.6,-15.8,-11.3,-7.400000000000001
1698419988766.0,16,-2.1,3.0,0.7000000000000001,-3.1,12.600000000000001,1.1,-18.3,-4.2,3.5
1698419988782.0,16,-1.1,0.8,0.4,-2.2,10.5,0.9,-24.400000000000002,-2.0,18.400000000000002
1698419988799.0,16,-0.2,-0.9,0.5,-1.1,8.700000000000001,1.0,-20.5,1.0,32.6
1698419988816.0,16,0.0,-2.8000000000000003,-0.1,-1.0,7.7,0.8,-16.5,-0.9,33.6
1698419988833.0,16,0.30000000000000004,-3.0,-1.0,-0.5,6.6000000000000005,-0.30000000000000004,-11.700000000000001,-5.300000000000001,44.5
1698419988849.0,16,0.7000000000000001,-4.1000000000000005,-1.3,0.2,5.5,-0.6000000000000001,-15.6,-9.600000000000001,45.800000000000004
1698419988866.0,16,1.8,-4.2,-0.9,0.8,5.300000000000001,-0.2,-19.1,-13.200000000000001,38.5
1698419988882.0,16,2.2,-4.1000000000000005,-0.6000000000000001,1.8,5.4,0.2,-18.0,-12.4,31.7
1698419988899.0,16,2.2,-4.4,0.30000000000000004,1.9000000000000001,5.2,1.1,-4.5,-10.5,10.3
1698419988915.0,16,1.1,-4.4,-1.3,0.9,5.1000000000000005,-0.6000000000000001,17.200000000000003,13.3,12.6
1698419988932.0,16,0.2,-4.1000000000000005,-2.0,0.0,5.4,-1.4000000000000001,22.900000000000002,22.4,19.400000000000002
1698419988949.0,16,-0.4,-2.6,-2.6,-0.5,6.800000000000001,-2.1,28.1,35.4,23.8
1698419988966.0,16,1.5,-2.1,-3.0,1.4000000000000001,7.300000000000001,-2.6,33.400000000000006,55.5,14.4
1698419988982.0,16,2.3000000000000003,-2.3000000000000003,-2.9000000000000004,2.2,7.1000000000000005,-2.5,42.0,70.0,5.4
1698419988999.0,16,2.7,-3.8000000000000003,-3.3000000000000003,2.7,5.6000000000000005,-3.2,65.8,106.2,-6.4
1698419989016.0,16,1.4000000000000001,-3.5,-3.0,1.4000000000000001,5.9,-3.2,71.9,124.7,1.8
1698419989032.0,16,-0.4,-2.0,-2.7,-0.5,7.4,-3.0,66.9,107.5,7.500000000000001
1698419989049.0,16,-3.1,-0.4,-0.7000000000000001,-3.0,9.0,-1.2000000000000002,51.7,39.1,24.7
1698419989065.0,16,-4.0,2.1,0.1,-4.0,11.5,-0.5,40.1,-2.8,5.0
1698419989083.0,16,-6.0,8.8,4.6000000000000005,-6.0,18.2,4.0,-17.9,10.4,-11.6
1698419989099.0,16,-11.700000000000001,0.0,8.6,-11.9,9.5,8.200000000000001,-14.600000000000001,-34.50000000000001,-17.1
1698419989116.0,16,8.700000000000001,0.1,0.7000000000000001,8.6,9.5,0.30000000000000004,16.5,25.2,15.000000000000002
1698419989134.0,16,12.700000000000001,2.5,1.3,12.700000000000001,11.9,1.0,-2.3000000000000003,25.700000000000003,9.0
1698419989149.0,16,6.7,13.4,3.9000000000000004,6.7,23.0,3.7,-40.6,14.4,6.5
1698419989166.0,16,-4.1000000000000005,7.800000000000001,3.0,-4.0,17.5,2.9000000000000004,-15.8,33.2,22.3
1698419989182.0,16,-4.7,4.4,2.0,-4.5,14.0,1.9000000000000001,-14.200000000000001,38.6,25.1
1698419989199.0,16,-1.4000000000000001,3.7,1.9000000000000001,-1.2000000000000002,13.4,2.0,-22.1,30.9,20.0
1698419989216.0,16,-1.3,5.300000000000001,1.7000000000000002,-1.1,15.0,1.8,-22.000000000000004,16.700000000000003,-2.9
1698419989232.0,16,-1.1,4.9,1.6,-0.9,14.700000000000001,1.7000000000000002,-20.2,1.9,-9.0
1698419989249.0,16,-1.2000000000000002,2.1,1.3,-1.1,11.9,1.6,-17.8,-16.6,-21.8
1698419989266.0,16,-0.9,0.0,1.5,-0.9,9.8,1.8,-23.8,-10.8,-37.1
1698419989283.0,16,-1.0,-0.30000000000000004,1.2000000000000002,-1.5,9.600000000000001,1.3,-25.8,-5.300000000000001,-44.2
1698419989299.0,16,-1.4000000000000001,-0.7000000000000001,0.6000000000000001,-1.7000000000000002,9.0,1.0,-22.5,-12.200000000000001,-48.7
1698419989315.0,16,-0.9,-3.0,-0.2,-1.4000000000000001,6.800000000000001,0.30000000000000004,-16.6,-20.900000000000002,-38.400000000000006
1698419989332.0,16,-0.5,-3.8000000000000003,-0.1,-0.7000000000000001,5.5,0.4,-15.7,-24.5,-29.600000000000005
1698419989349.0,16,-0.1,-4.3,-0.30000000000000004,-0.6000000000000001,5.4,0.30000000000000004,-12.5,-29.600000000000005,-20.6
1698419989366.0,16,0.0,-4.7,-0.6000000000000001,-0.6000000000000001,4.9,0.0,-7.400000000000001,-24.7,-13.4
1698419989383.0,16,-0.4,-4.9,-0.9,-1.1,4.6000000000000005,-0.30000000000000004,-0.9,-17.599999999999998,-7.9
1698419989400.0,16,-0.7000000000000001,-5.0,-1.1,-1.4000000000000001,4.5,-0.5,3.0000000000000004,-15.2,-5.6
1698419989415.0,16,-0.7000000000000001,-5.0,-1.5,-1.4000000000000001,4.5,-0.9,10.8,-14.600000000000001,4.0
1698419989432.0,16,-0.8,-5.0,-0.8,-1.4000000000000001,4.5,-0.30000000000000004,22.5,-29.1,11.700000000000001
1698419989449.0,16,-0.8,-5.1000000000000005,-0.7000000000000001,-1.4000000000000001,4.4,-0.30000000000000004,30.100000000000005,-35.7,13.5
1698419989467.0,16,-1.4000000000000001,-4.800000000000001,-0.6000000000000001,-2.0,4.7,-0.30000000000000004,39.6,-51.300000000000004,10.4
1698419989482.0,16,-2.3000000000000003,-4.7,-1.3,-2.8000000000000003,4.7,-1.1,44.5,-63.300000000000004,3.4
1698419989499.0,16,-2.1,-4.0,-0.4,-2.6,5.4,-0.30000000000000004,40.3,-63.6,-1.4
1698419989516.0,16,-0.30000000000000004,-1.9000000000000001,2.3000000000000003,-0.9,7.5,2.3000000000000003,24.9,-21.3,-18.900000000000002
1698419989532.0,16,3.5,-0.6000000000000001,-1.9000000000000001,2.9000000000000004,8.8,-1.9000000000000001,24.6,10.0,9.0
1698419989549.0,16,5.800000000000001,1.9000000000000001,-2.8000000000000003,5.2,11.200000000000001,-2.8000000000000003,25.8,-5.6,31.0
1698419989565.0,16,5.1000000000000005,5.2,-0.2,4.7,14.600000000000001,-0.30000000000000004,27.2,-37.2,31.8
1698419989582.0,16,0.5,5.300000000000001,1.7000000000000002,0.1,14.8,1.5,32.0,-14.800000000000002,-3.7000000000000006
1698419989599.0,16,-4.0,2.8000000000000003,2.3000000000000003,-4.4,12.3,2.0,42.800000000000004,-15.7,-20.6
1698419989615.0,16,-4.7,4.7,1.4000000000000001,-5.2,14.200000000000001,1.0,27.7,-33.1,-24.3
1698419989632.0,16,1.2000000000000002,7.2,2.3000000000000003,0.6000000000000001,16.8,1.9000000000000001,-16.400000000000002,-51.7,-27.2
1698419989649.0,16,3.5,7.1000000000000005,5.0,2.9000000000000004,16.6,4.7,-4.800000000000001,-86.4,-13.200000000000001
1698419989666.0,16,2.6,5.6000000000000005,1.2000000000000002,1.9000000000000001,15.200000000000001,1.0,7.2,-77.60000000000001,-27.5
1698419989682.0,16,0.0,3.8000000000000003,3.8000000000000003,-0.8,13.4,3.6,-1.5000000000000002,-49.8,-28.1
1698419989699.0,16,0.0,2.6,2.9000000000000004,-0.8,12.3,2.7,-2.0,-31.2,-13.4
1698419989716.0,16,0.7000000000000001,1.4000000000000001,1.9000000000000001,-0.1,11.0,1.7000000000000002,-7.2,-17.8,17.7
1698419989733.0,16,0.0,0.8,1.9000000000000001,-0.9,10.100000000000001,1.6,-12.4,-13.9,35.8
1698419989750.0,16,0.0,0.0,1.2000000000000002,0.1,9.1,0.6000000000000001,-13.100000000000001,-16.1,41.6
1698419989766.0,16,1.2000000000000002,-1.2000000000000002,0.5,0.8,8.5,0.5,-18.0,-21.5,45.7
1698419989782.0,16,1.4000000000000001,-1.8,0.5,1.1,7.9,0.5,-19.1,-13.9,38.6
1698419989799.0,16,1.4000000000000001,-2.5,0.30000000000000004,1.2000000000000002,7.2,0.4,-19.1,-8.5,33.2
1698419989816.0,16,1.0,-3.1,0.4,0.9,6.5,0.5,-16.8,0.8,25.700000000000003
1698419989832.0,16,0.9,-3.3000000000000003,-0.1,0.8,6.300000000000001,0.1,-15.6,9.600000000000001,18.0
1698419989849.0,16,0.8,-3.5,-0.2,0.8,6.1000000000000005,0.1,-16.3,10.700000000000001,14.500000000000002
1698419989865.0,16,0.8,-3.3000000000000003,-0.1,0.8,6.300000000000001,0.2,-15.7,15.7,9.700000000000001
1698419989882.0,16,0.7000000000000001,-2.9000000000000004,-0.1,0.7000000000000001,6.6000000000000005,0.2,-12.5,15.6,3.7000000000000006
1698419989899.0,16,0.6000000000000001,-2.8000000000000003,-0.1,0.7000000000000001,6.7,0.2,-9.4,15.399999999999999,0.6000000000000001
1698419989915.0,16,0.6000000000000001,-2.7,-0.4,0.6000000000000001,6.800000000000001,-0.1,-0.5,16.1,-6.8
1698419989932.0,16,0.4,-2.6,-0.9,0.4,6.9,-0.6000000000000001,10.5,22.900000000000002,-13.8
1698419989949.0,16,0.4,-2.5,-1.3,0.4,7.2,-1.4000000000000001,15.5,29.600000000000005,-15.6
1698419989965.0,16,0.6000000000000001,-1.8,-1.7000000000000002,0.5,7.7,-1.5,19.400000000000002,41.9,-15.100000000000001
1698419989982.0,16,0.7000000000000001,-0.4,-1.4000000000000001,0.6000000000000001,9.0,-1.2000000000000002,20.4,36.7,-16.0
1698419989999.0,16,0.4,0.2,-0.9,0.30000000000000004,9.700000000000001,-0.9,21.5,27.1,-15.7
1698419990015.0,16,-0.6000000000000001,1.0,-1.1,-0.8,10.5,-1.1,21.0,8.0,-15.9
1698419990032.0,16,-1.4000000000000001,2.4000000000000004,-0.7000000000000001,-1.7000000000000002,11.8,-0.8,9.9,4.0,-17.1
1698419990049.0,16,-1.7000000000000002,3.1,-0.30000000000000004,-2.0,12.600000000000001,-0.30000000000000004,6.000000000000001,7.500000000000001,-18.900000000000002
1698419990066.0,16,-1.3,2.1,0.5,-1.7000000000000002,11.600000000000001,0.4,15.100000000000001,14.4,-14.0
1698419990082.0,16,1.7000000000000002,2.6,0.2,1.3,12.100000000000001,0.1,14.600000000000001,24.1,4.9
1698419990099.0,16,0.7000000000000001,4.3,1.9000000000000001,0.4,13.8,1.8,7.400000000000001,33.300000000000004,11.5
1698419990115.0,16,-0.8,4.7,1.9000000000000001,-1.1,14.3,1.7000000000000002,10.3,28.400000000000002,13.4
1698419990132.0,16,0.0,0.2,2.0,-0.30000000000000004,9.700000000000001,1.8,26.1,17.400000000000002,9.0
1698419990151.0,16,2.9000000000000004,-0.30000000000000004,-0.4,2.7,9.3,-0.8,14.900000000000002,49.2,2.4000000000000004
1698419990165.0,16,2.4000000000000004,0.2,0.9,2.2,9.8,0.6000000000000001,1.4,57.3,-2.7
1698419990182.0,16,-0.1,0.5,1.7000000000000002,-0.30000000000000004,10.0,1.4000000000000001,-3.0000000000000004,59.400000000000006,-5.4
1698419990199.0,16,-1.2000000000000002,0.30000000000000004,1.2000000000000002,-2.3000000000000003,10.0,1.2000000000000002,-4.5,50.800000000000004,-3.7000000000000006
1698419990216.0,16,-2.4000000000000004,0.7000000000000001,1.7000000000000002,-2.7,10.3,1.4000000000000001,-9.700000000000001,48.400000000000006,-0.7
1698419990232.0,16,-1.9000000000000001,0.2,1.7000000000000002,-2.1,9.8,1.5,-5.300000000000001,35.5,-3.5
1698419990249.0,16,-1.3,-0.1,1.6,-1.6,9.5,1.4000000000000001,-0.6000000000000001,18.3,-10.5
1698419990266.0,16,-0.4,-0.1,0.9,-0.7000000000000001,9.5,0.7000000000000001,-1.0,14.0,-13.700000000000001
1698419990282.0,16,-0.30000000000000004,0.2,1.0,-0.7000000000000001,9.8,0.8,-2.4000000000000004,10.0,-16.400000000000002
1698419990299.0,16,-0.5,-0.1,0.7000000000000001,-0.9,9.5,0.6000000000000001,-1.3,9.9,-17.599999999999998
1698419990315.0,16,-0.5,-0.5,0.5,-1.0,9.1,0.4,-1.7,11.8,-17.8
1698419990332.0,16,-0.7000000000000001,-1.1,0.4,-1.2000000000000002,8.5,0.30000000000000004,-3.1,14.200000000000001,-17.400000000000002
1698419990349.0,16,-0.9,-1.1,0.30000000000000004,-1.5,8.5,0.2,-6.9,13.5,-15.9
1698419990365.0,16,-0.9,-0.9,0.2,-1.5,8.6,0.1,-8.600000000000001,11.9,-14.600000000000001
1698419990382.0,16,-1.0,-0.6000000000000001,0.30000000000000004,-1.7000000000000002,9.0,0.2,-11.000000000000002,8.3,-12.4
1698419990399.0,16,-1.0,-0.7000000000000001,0.4,-1.7000000000000002,8.8,0.4,-12.000000000000002,3.9,-10.700000000000001
1698419990416.0,16,-1.0,-0.7000000000000001,0.5,-1.8,8.8,0.4,-12.3,2.7,-10.0
1698419990432.0,16,-1.0,-0.9,0.30000000000000004,-1.7000000000000002,8.6,0.30000000000000004,-10.1,-0.8,-6.000000000000001
1698419990449.0,16,-1.1,-1.1,0.2,-1.9000000000000001,8.4,0.2,-5.0,-5.500000000000001,-0.7
1698419990465.0,16,-1.2000000000000002,-1.1,-0.2,-2.0,8.4,-0.1,-2.1999999999999997,-7.699999999999999,2.5
1698419990482.0,16,-1.2000000000000002,-0.9,-0.4,-2.0,8.6,-0.4,0.2,-10.1,8.700000000000001
1698419990499.0,16,-1.0,-0.8,-0.2,-1.8,8.700000000000001,-0.2,2.9,-10.2,13.100000000000001
1698419990515.0,16,-0.9,-0.6000000000000001,-0.5,-1.6,8.9,-0.5,4.6000000000000005,-11.1,14.200000000000001
1698419990532.0,16,-0.6000000000000001,0.1,0.0,-1.3,9.600000000000001,0.0,6.5,-14.4,13.5
1698419990549.0,16,-0.8,-0.1,-0.4,-1.4000000000000001,9.4,-0.4,11.1,-13.6,14.0
1698419990566.0,16,-0.7000000000000001,-0.30000000000000004,-0.6000000000000001,-1.4000000000000001,9.200000000000001,-0.6000000000000001,12.4,-14.3,16.6
1698419990582.0,16,-0.6000000000000001,-0.6000000000000001,-1.1,-1.2000000000000002,8.9,-1.2000000000000002,12.6,-20.8,24.3
1698419990599.0,16,-0.30000000000000004,0.0,-0.5,-0.8,9.5,-0.6000000000000001,11.5,-28.0,27.8
1698419990616.0,16,-0.1,0.5,-0.6000000000000001,-0.6000000000000001,10.100000000000001,-0.7000000000000001,10.5,-28.700000000000003,26.700000000000003
1698419990632.0,16,0.9,2.0,0.30000000000000004,0.5,11.5,0.1,3.7000000000000006,-30.299999999999997,19.500000000000004
1698419990649.0,16,1.8,2.0,1.0,1.5,11.5,0.8,4.0,-31.2,10.5
1698419990666.0,16,1.2000000000000002,1.2000000000000002,1.2000000000000002,0.9,10.8,1.0,4.2,-29.800000000000004,5.500000000000001
1698419990682.0,16,-0.7000000000000001,0.1,1.0,-1.0,9.600000000000001,0.8,5.2,-27.2,2.6
1698419990699.0,16,-1.2000000000000002,-0.30000000000000004,0.6000000000000001,-1.5,9.200000000000001,0.4,3.1,-27.7,3.5
1698419990716.0,16,-0.9,-0.5,0.5,-1.2000000000000002,9.0,0.4,0.5,-29.400000000000002,4.800000000000001
1698419990732.0,16,0.4,-1.1,0.8,0.2,8.5,0.6000000000000001,-5.0,-35.7,7.300000000000001
1698419990749.0,16,1.4000000000000001,-0.4,0.8,1.2000000000000002,9.1,0.7000000000000001,-10.1,-37.0,8.600000000000001
1698419990765.0,16,1.6,0.1,0.8,1.4000000000000001,9.600000000000001,0.7000000000000001,-11.4,-35.0,8.5
1698419990782.0,16,1.5,0.9,0.5,1.3,10.5,0.5,-9.700000000000001,-26.700000000000003,6.7
1698419990799.0,16,1.0,0.9,0.5,0.8,10.5,0.5,-7.400000000000001,-16.700000000000003,7.6
1698419990815.0,16,0.9,0.9,0.4,0.8,10.5,0.5,-5.4,-12.6,9.9
1698419990832.0,16,0.8,0.7000000000000001,0.4,0.7000000000000001,10.3,0.4,-1.4,-7.400000000000001,13.700000000000001
1698419990849.0,16,0.6000000000000001,0.1,0.5,0.6000000000000001,9.700000000000001,0.5,1.6,-8.0,16.2
1698419990866.0,16,0.6000000000000001,-0.2,0.4,0.7000000000000001,9.1,0.30000000000000004,1.9,-9.1,16.700000000000003
1698419990882.0,16,0.8,-0.7000000000000001,0.4,0.9,8.8,0.4,-0.8,-10.4,15.5
1698419990899.0,16,1.1,-1.0,0.6000000000000001,1.2000000000000002,8.6,0.6000000000000001,-2.3000000000000003,-8.3,12.4
1698419990916.0,16,1.2000000000000002,-1.1,0.5,1.4000000000000001,8.5,0.6000000000000001,-0.7,-2.1999999999999997,7.2
1698419990932.0,16,1.2000000000000002,-1.1,0.5,1.3,8.4,0.5,1.2000000000000002,1.5000000000000002,5.1
1698419990949.0,16,1.2000000000000002,-1.0,0.0,1.4000000000000001,8.5,0.1,6.000000000000001,7.9,2.6
1698419990965.0,16,1.3,-0.9,-0.2,1.5,8.9,-0.2,7.6,11.8,1.7
1698419990982.0,16,1.2000000000000002,-0.5,-0.2,1.5,9.1,-0.2,10.8,15.8,-1.0999999999999999
1698419990999.0,16,0.9,0.5,-0.5,1.2000000000000002,10.0,-0.5,9.8,19.3,-2.1999999999999997
1698419991015.0,16,0.5,1.4000000000000001,0.2,0.7000000000000001,10.9,0.1,8.799999999999999,12.700000000000001,-1.3
1698419991032.0,16,0.1,1.1,-0.2,0.4,10.600000000000001,-0.30000000000000004,10.8,7.699999999999999,-3.8
1698419991049.0,16,-1.4000000000000001,0.4,0.30000000000000004,-1.2000000000000002,9.9,0.2,8.700000000000001,8.0,-8.9
1698419991065.0,16,-0.30000000000000004,-0.2,-0.5,-0.1,9.4,-0.7000000000000001,11.6,14.600000000000001,-4.1000000000000005
1698419991082.0,16,0.7000000000000001,0.0,-0.5,0.8,9.5,-0.7000000000000001,9.4,14.0,-0.9
1698419991099.0,16,1.0,-0.4,0.0,1.1,9.200000000000001,-0.2,7.500000000000001,9.4,-0.9
1698419991115.0,16,0.7000000000000001,-0.4,0.2,0.6000000000000001,9.200000000000001,0.0,5.1,10.5,-1.5000000000000002
1698419991136.0,16,0.2,-0.4,0.2,0.30000000000000004,9.1,-0.1,3.5,8.4,-1.3
1698419991149.0,16,-0.1,-0.30000000000000004,0.2,0.1,9.200000000000001,0.0,2.7,7.699999999999999,-1.5000000000000002
1698419991165.0,16,-0.2,-0.1,0.2,-0.1,9.5,-0.1,2.3000000000000003,9.600000000000001,-1.0999999999999999
1698419991182.0,16,-0.2,0.1,0.2,-0.1,9.700000000000001,-0.1,2.7,10.700000000000001,-1.7
1698419991199.0,16,-0.4,0.30000000000000004,0.1,-0.30000000000000004,9.8,-0.2,3.3000000000000003,9.9,-3.8
1698419991215.0,16,-0.5,0.30000000000000004,0.0,-0.4,9.9,-0.30000000000000004,3.1,7.699999999999999,-5.7
1698419991233.0,16,-0.5,0.0,-0.2,-0.4,9.5,-0.4,2.7,5.0,-5.8
1698419991249.0,16,-0.2,-0.1,-0.1,-0.1,9.4,-0.30000000000000004,0.1,-1.7,-3.3000000000000003
1698419991266.0,16,0.0,-0.1,0.0,0.1,9.4,-0.30000000000000004,-1.0,-4.800000000000001,-0.7
1698419991282.0,16,0.0,0.0,0.0,0.1,9.5,-0.30000000000000004,-1.0999999999999999,-4.6000000000000005,-0.30000000000000004
1698419991299.0,16,-0.1,0.0,-0.1,0.0,9.5,-0.4,-0.5,-2.0,-0.4
1698419991315.0,16,-0.30000000000000004,-0.1,-0.30000000000000004,-0.2,9.4,-0.5,-0.30000000000000004,-0.5,-0.4
1698419991333.0,16,-0.30000000000000004,-0.2,-0.30000000000000004,-0.2,9.3,-0.6000000000000001,-0.5,-0.1,-0.1
1698419991349.0,16,-0.2,-0.1,-0.4,-0.2,9.4,-0.7000000000000001,-0.4,-0.30000000000000004,1.0999999999999999
1698419991365.0,16,-0.2,0.0,-0.4,-0.1,9.600000000000001,-0.7000000000000001,0.2,-0.1,1.2000000000000002
1698419991382.0,16,-0.2,0.1,-0.5,-0.1,9.600000000000001,-0.8,0.4,0.0,0.7
1698419991399.0,16,-0.2,0.1,-0.5,-0.2,9.600000000000001,-0.7000000000000001,0.2,-0.30000000000000004,0.1
1698419991415.0,16,-0.2,0.1,-0.30000000000000004,-0.2,9.600000000000001,-0.6000000000000001,-0.4,-1.5000000000000002,-0.5
1698419991432.0,16,-0.30000000000000004,0.1,-0.30000000000000004,-0.2,9.600000000000001,-0.6000000000000001,-0.8,-1.6,-0.6000000000000001
1698419991449.0,16,-0.2,0.1,-0.30000000000000004,-0.2,9.600000000000001,-0.6000000000000001,-1.3,-2.5,0.5
1698419991466.0,16,-0.2,0.0,-0.30000000000000004,-0.1,9.5,-0.6000000000000001,-1.4,-2.7,1.7
1698419991482.0,16,-0.1,-0.1,-0.30000000000000004,0.0,9.4,-0.6000000000000001,-1.6,-2.5,2.1
1698419991499.0,16,0.0,-0.1,-0.30000000000000004,0.0,9.4,-0.6000000000000001,-2.0,-2.1999999999999997,1.8
1698419991515.0,16,-0.1,0.0,-0.30000000000000004,0.0,9.5,-0.7000000000000001,-2.3000000000000003,-1.4,1.3
1698419991532.0,16,-0.1,0.0,-0.2,0.0,9.5,-0.6000000000000001,-2.3000000000000003,-1.0999999999999999,1.0
1698419991549.0,16,-0.1,0.0,-0.2,0.0,9.5,-0.6000000000000001,-1.9,-0.9,0.8
1698419991566.0,16,-0.1,0.0,-0.2,0.0,9.5,-0.6000000000000001,-1.5000000000000002,-0.6000000000000001,0.9
1698419991582.0,16,0.0,0.0,-0.2,0.0,9.5,-0.6000000000000001,-1.3,0.4,0.4
1698419991599.0,16,0.0,0.0,-0.2,0.0,9.5,-0.6000000000000001,-1.0999999999999999,0.5,0.30000000000000004
1698419991616.0,16,0.0,0.0,-0.2,0.0,9.5,-0.6000000000000001,-1.6,0.4,0.1
1698419991632.0,16,0.0,-0.1,-0.1,0.0,9.5,-0.5,-1.7,0.5,-0.1
1698419991648.0,16,0.0,0.0,-0.2,0.0,9.5,-0.6000000000000001,-1.7,0.5,0.0
1698419991666.0,16,0.0,-0.1,-0.2,0.1,9.4,-0.6000000000000001,-1.7,0.8,0.1
1698419991682.0,16,0.1,-0.1,-0.2,0.1,9.4,-0.6000000000000001,-1.8,1.3,0.0
1698419991701.0,16,0.1,0.0,-0.2,0.1,9.5,-0.6000000000000001,-1.9,1.7,-0.1
1698419991715.0,16,0.0,0.0,-0.2,0.0,9.5,-0.6000000000000001,-1.7,2.1999999999999997,0.1
1698419991733.0,16,0.0,0.0,-0.2,0.0,9.5,-0.6000000000000001,-2.0,2.1,0.30000000000000004
1698419991749.0,16,0.0,0.0,-0.2,0.0,9.5,-0.6000000000000001,-2.0,2.4000000000000004,0.2
1698419991765.0,16,0.0,-0.1,-0.2,0.0,9.4,-0.6000000000000001,-2.0,2.4000000000000004,0.1
1698419991782.0,16,0.0,-0.1,-0.2,0.0,9.4,-0.6000000000000001,-2.0,2.1999999999999997,0.1
1698419991799.0,16,0.0,-0.1,-0.1,0.0,9.5,-0.5,-2.3000000000000003,1.7,0.2
1698419991816.0,16,0.0,0.0,-0.1,0.1,9.5,-0.6000000000000001,-2.3000000000000003,1.7,0.30000000000000004
1698419991832.0,16,0.0,0.0,-0.2,0.1,9.5,-0.6000000000000001,-2.3000000000000003,1.3,0.2
1698419991849.0,16,0.0,0.0,-0.2,0.1,9.5,-0.6000000000000001,-2.4000000000000004,1.0999999999999999,0.1
1698419991865.0,16,0.0,0.0,-0.2,0.0,9.5,-0.6000000000000001,-2.6,0.9,0.1
1698419991882.0,16,0.0,0.0,-0.1,0.1,9.5,-0.5,-2.7,0.8,0.30000000000000004
1698419991899.0,16,0.0,0.0,-0.1,0.1,9.5,-0.5,-2.4000000000000004,0.6000000000000001,0.4
1698419991915.0,16,0.0,0.0,-0.1,0.0,9.5,-0.5,-1.8,0.7,0.30000000000000004
1698419991932.0,16,0.0,0.0,-0.1,0.1,9.5,-0.6000000000000001,-1.9,0.5,0.30000000000000004
1698419991949.0,16,0.0,0.0,-0.2,0.1,9.5,-0.6000000000000001,-1.9,0.4,0.2
1698419991965.0,16,0.0,0.0,-0.2,0.1,9.5,-0.6000000000000001,-1.7,0.2,0.1
1698419991982.0,16,0.0,0.0,-0.2,0.1,9.5,-0.6000000000000001,-1.7,0.2,0.1
1698419991999.0,16,0.0,0.0,-0.2,0.1,9.5,-0.6000000000000001,-1.7,0.30000000000000004,0.1
1698419992015.0,16,0.0,0.0,-0.1,0.1,9.5,-0.6000000000000001,-1.9,0.6000000000000001,0.30000000000000004
1698419992032.0,16,0.0,0.0,-0.1,0.1,9.5,-0.6000000000000001,-1.6,0.30000000000000004,0.30000000000000004
1698419992049.0,16,0.0,0.0,-0.1,0.1,9.5,-0.5,-1.4,0.5,0.4
1698419992065.0,16,0.1,0.0,-0.1,0.1,9.5,-0.6000000000000001,-1.4,0.5,0.2
1698419992082.0,16,0.1,0.0,-0.2,0.2,9.5,-0.6000000000000001,-2.1999999999999997,0.7,0.1
1698419992099.0,16,0.1,0.0,-0.1,0.2,9.5,-0.5,-1.9,0.4,0.1
1698419992116.0,16,0.0,0.0,0.0,0.1,9.5,-0.4,-1.0999999999999999,0.30000000000000004,0.2
1698419992132.0,16,0.0,0.0,-0.1,0.1,9.5,-0.5,-0.9,0.7,0.2
1698419992149.0,16,0.0,0.0,-0.1,0.1,9.5,-0.5,-0.8,0.8,0.30000000000000004
1698419992165.0,16,0.0,0.0,-0.1,0.1,9.5,-0.5,-0.6000000000000001,0.6000000000000001,0.4
1698419992182.0,16,0.1,0.0,-0.1,0.2,9.5,-0.5,-0.5,0.6000000000000001,0.30000000000000004
1698419992199.0,16,0.1,-0.1,-0.1,0.2,9.4,-0.5,-0.4,0.6000000000000001,0.30000000000000004
1698419992216.0,16,0.0,-0.1,0.0,0.1,9.4,-0.4,0.0,0.9,0.1
1698419992232.0,16,0.0,-0.1,0.0,0.1,9.4,-0.4,0.2,1.3,-0.1
1698419992249.0,16,0.0,0.0,0.0,0.1,9.4,-0.4,0.30000000000000004,1.3,-0.1
1698419992265.0,16,0.1,0.0,0.1,0.2,9.5,-0.30000000000000004,1.0,2.0,-0.2
1698419992282.0,16,0.0,0.0,-0.1,0.2,9.5,-0.5,0.7,1.3,-0.2
1698419992300.0,16,0.0,0.1,0.0,0.1,9.5,-0.5,0.5,1.6,-0.4
1698419992315.0,16,0.0,0.0,0.0,0.1,9.5,-0.5,0.8,1.6,-0.5
1698419992332.0,16,0.0,0.0,-0.1,0.1,9.5,-0.5,0.6000000000000001,1.6,-0.6000000000000001
1698419992349.0,16,0.0,0.0,0.0,0.1,9.5,-0.5,0.5,1.7,-0.5
1698419992366.0,16,0.0,-0.1,0.1,0.1,9.4,-0.4,0.4,1.7,-0.5
1698419992382.0,16,0.0,0.0,0.0,0.1,9.5,-0.5,0.5,2.1,-0.6000000000000001
1698419992399.0,16,0.0,0.0,0.0,0.1,9.5,-0.5,0.30000000000000004,2.1,-0.5
1698419992416.0,16,0.0,0.1,-0.1,0.1,9.5,-0.5,0.30000000000000004,2.0,-0.4
1698419992432.0,16,0.0,0.0,0.0,0.1,9.5,-0.5,0.0,1.6,-0.4
1698419992449.0,16,0.0,0.0,0.0,0.1,9.5,-0.5,-0.2,1.6,-0.7
1698419992465.0,16,0.0,0.0,0.0,0.1,9.5,-0.5,-0.2,1.6,-0.8
1698419992482.0,16,0.0,0.0,0.0,0.1,9.5,-0.5,-0.1,1.8,-0.8
1698419992499.0,16,0.0,0.0,0.1,0.0,9.5,-0.4,0.2,2.0,-0.8
1698419992515.0,16,0.0,0.0,0.0,0.1,9.4,-0.4,0.30000000000000004,1.9,-0.7
1698419992532.0,16,-0.1,0.0,0.0,0.0,9.5,-0.5,0.6000000000000001,1.7,-0.6000000000000001
1698419992549.0,16,-0.1,0.0,0.0,0.0,9.5,-0.5,0.6000000000000001,1.0999999999999999,-0.4
1698419992585.0,16,0.0,0.0,0.0,0.0,9.5,-0.5,1.0999999999999999,0.30000000000000004,-0.30000000000000004
1698419992599.0,16,0.0,0.0,0.0,0.0,9.5,-0.4,1.2000000000000002,0.30000000000000004,-0.2
1698419992615.0,16,0.0,0.0,0.0,0.0,9.5,-0.5,1.3,0.2,-0.1
1698419992632.0,16,0.0,0.0,0.0,0.1,9.5,-0.5,1.0999999999999999,0.1,-0.1
1698419992649.0,16,0.0,0.0,0.0,0.1,9.5,-0.5,0.9,-0.30000000000000004,0.1
1698419992665.0,16,0.0,0.0,0.0,0.1,9.5,-0.5,0.8,-0.30000000000000004,0.2
1698419992682.0,16,0.0,0.0,0.0,0.1,9.5,-0.5,0.5,-0.5,0.2
1698419992699.0,16,0.0,0.0,0.0,0.1,9.5,-0.5,0.4,-0.6000000000000001,0.2
1698419992716.0,16,0.0,0.0,0.0,0.1,9.5,-0.5,0.30000000000000004,-0.8,0.30000000000000004
1698419992732.0,16,0.0,0.0,0.0,0.1,9.5,-0.5,0.5,-0.9,0.6000000000000001
1698419992749.0,16,0.0,0.0,0.0,0.1,9.5,-0.5,0.5,-0.7,0.7
1698419992766.0,16,0.0,0.0,0.0,0.1,9.5,-0.5,0.5,-0.9,0.7
1698419992782.0,16,0.0,0.0,0.0,0.1,9.5,-0.5,0.2,-1.4,1.0
1698419992799.0,16,0.0,0.0,0.0,0.1,9.5,-0.5,0.0,-1.3,1.0
1698419992816.0,16,0.0,0.0,0.0,0.1,9.5,-0.5,0.0,-1.2000000000000002,1.0
1698419992832.0,16,0.0,0.0,-0.1,0.1,9.5,-0.6000000000000001,-0.5,-1.0,1.0
1698419992849.0,16,0.0,0.0,0.0,0.1,9.5,-0.5,-0.6000000000000001,-1.0999999999999999,1.4
1698419992866.0,16,0.0,0.0,0.0,0.1,9.5,-0.5,-0.6000000000000001,-1.2000000000000002,1.0999999999999999
1698419992883.0,16,0.0,0.0,0.0,0.1,9.5,-0.5,-0.4,-1.4,1.0999999999999999
1698419992899.0,16,0.0,0.0,0.0,0.1,9.5,-0.5,-0.30000000000000004,-1.3,1.0
1698419992915.0,16,0.0,0.0,0.0,0.1,9.5,-0.5,-0.4,-1.6,1.0
1698419992933.0,16,0.0,0.0,0.0,0.1,9.5,-0.6000000000000001,-0.5,-1.7,0.9
1698419992949.0,16,0.0,0.0,0.0,0.1,9.4,-0.5,-0.30000000000000004,-1.7,1.0
1698419992965.0,16,0.1,0.0,0.0,0.2,9.5,-0.5,-0.30000000000000004,-1.6,1.0
1698419992982.0,16,0.0,0.0,0.0,0.2,9.5,-0.6000000000000001,0.1,-1.5000000000000002,0.6000000000000001
1698419992999.0,16,0.0,0.0,-0.1,0.2,9.5,-0.6000000000000001,0.30000000000000004,-1.4,0.5
1698419993016.0,16,0.0,0.0,-0.1,0.1,9.5,-0.6000000000000001,0.30000000000000004,-1.4,0.6000000000000001
1698419993032.0,16,0.0,0.0,0.0,0.1,9.5,-0.6000000000000001,0.6000000000000001,-1.0999999999999999,0.9
1698419993049.0,16,0.0,-0.1,0.0,0.2,9.4,-0.5,0.6000000000000001,-0.9,0.6000000000000001
1698419993066.0,16,0.1,-0.1,0.0,0.2,9.4,-0.5,0.6000000000000001,-0.8,0.6000000000000001
1698419993082.0,16,0.0,0.0,0.0,0.1,9.5,-0.5,0.9,-0.30000000000000004,0.4
1698419993099.0,16,0.0,0.0,0.0,0.1,9.5,-0.5,1.0999999999999999,-0.30000000000000004,0.6000000000000001
1698419993119.0,16,0.0,0.0,0.0,0.1,9.5,-0.6000000000000001,1.0999999999999999,-0.1,0.8
1698419993132.0,16,0.0,0.1,-0.1,0.2,9.5,-0.6000000000000001,1.2000000000000002,-0.2,0.9
1698419993148.0,16,0.0,0.0,-0.1,0.1,9.5,-0.6000000000000001,1.2000000000000002,-0.1,0.4
1698419993165.0,16,0.0,0.0,0.0,0.1,9.5,-0.6000000000000001,1.3,0.0,0.4
1698419993182.0,16,0.0,0.0,0.0,0.2,9.5,-0.6000000000000001,1.0999999999999999,0.1,0.30000000000000004
1698419993199.0,16,0.0,0.0,0.0,0.1,9.5,-0.5,1.0999999999999999,0.30000000000000004,0.30000000000000004
1698419993216.0,16,0.0,0.0,0.0,0.1,9.5,-0.6000000000000001,1.2000000000000002,0.4,0.2
1698419993232.0,16,0.0,0.0,0.0,0.1,9.5,-0.6000000000000001,1.2000000000000002,0.5,0.0
1698419993249.0,16,0.0,0.0,0.0,0.1,9.5,-0.6000000000000001,1.0999999999999999,0.5,0.0
1698419993265.0,16,0.0,0.0,0.0,0.1,9.5,-0.6000000000000001,1.0999999999999999,0.6000000000000001,0.0
1698419993282.0,16,0.0,0.0,0.0,0.1,9.5,-0.6000000000000001,1.0999999999999999,0.5,-0.2
1698419993299.0,16,-0.1,0.0,0.0,0.1,9.5,-0.6000000000000001,1.0999999999999999,0.7,-0.4
1698419993315.0,16,0.0,0.0,0.0,0.1,9.5,-0.6000000000000001,1.0999999999999999,0.8,-0.4
1698419993332.0,16,-0.1,0.0,0.0,0.1,9.5,-0.6000000000000001,1.0,0.8,-0.4
1698419993349.0,16,0.0,0.0,0.0,0.1,9.5,-0.6000000000000001,1.0,0.7,-0.5
1698419993365.0,16,0.0,0.0,0.0,0.1,9.5,-0.6000000000000001,0.8,0.6000000000000001,-0.5
1698419993383.0,16,0.0,0.0,0.0,0.1,9.5,-0.6000000000000001,0.7,0.6000000000000001,-0.5
1698419993399.0,16,-0.1,0.0,0.0,0.0,9.5,-0.6000000000000001,0.6000000000000001,0.5,-0.4
1698419993415.0,16,0.0,0.0,0.0,0.1,9.5,-0.6000000000000001,0.5,0.30000000000000004,-0.2
1698419993432.0,16,0.0,0.0,0.0,0.1,9.5,-0.6000000000000001,0.6000000000000001,0.4,-0.4
1698419993449.0,16,0.0,0.0,-0.1,0.1,9.5,-0.7000000000000001,0.6000000000000001,0.4,-0.4
1698419993465.0,16,0.0,0.0,0.0,0.1,9.5,-0.6000000000000001,0.2,0.30000000000000004,-0.30000000000000004
1698419993482.0,16,0.0,0.0,0.0,0.1,9.5,-0.6000000000000001,0.2,0.2,-0.2
1698419993499.0,16,0.0,0.0,-0.1,0.1,9.5,-0.7000000000000001,0.30000000000000004,0.4,-0.2
1698419993515.0,16,0.0,0.1,-0.1,0.1,9.600000000000001,-0.7000000000000001,0.4,0.30000000000000004,-0.1
1698419993532.0,16,0.0,0.0,-0.1,0.1,9.5,-0.7000000000000001,0.4,0.4,0.1
1698419993549.0,16,0.0,-0.1,0.0,0.1,9.4,-0.6000000000000001,0.30000000000000004,0.30000000000000004,0.1
1698419993567.0,16,0.0,0.0,0.0,0.1,9.4,-0.6000000000000001,0.30000000000000004,0.2,-0.1
1698419993582.0,16,0.0,0.0,0.0,0.1,9.4,-0.6000000000000001,0.2,0.2,0.0
1698419993599.0,16,0.0,0.0,0.0,0.1,9.4,-0.6000000000000001,0.5,0.0,-0.1
1698419993615.0,16,0.0,0.0,0.0,0.1,9.5,-0.6000000000000001,0.6000000000000001,0.0,-0.1
1698419993632.0,16,0.0,0.0,0.0,0.1,9.4,-0.6000000000000001,0.8,-0.1,-0.1
1698419993649.0,16,0.0,0.0,0.0,0.1,9.5,-0.6000000000000001,0.8,-0.1,-0.2
1698419993666.0,16,0.0,0.0,0.0,0.1,9.5,-0.6000000000000001,0.8,-0.30000000000000004,-0.30000000000000004
1698419993682.0,16,0.0,0.0,0.0,0.1,9.5,-0.6000000000000001,0.6000000000000001,-0.4,-0.2
1698419993699.0,16,0.0,0.0,0.0,0.1,9.4,-0.6000000000000001,0.4,-0.6000000000000001,0.1
1698419993716.0,16,0.0,0.0,0.0,0.1,9.5,-0.6000000000000001,0.2,-0.5,0.1
1698419993732.0,16,0.0,0.0,0.1,0.2,9.5,-0.6000000000000001,0.1,-0.5,0.2
1698419993749.0,16,0.0,0.0,0.0,0.1,9.5,-0.6000000000000001,0.1,-0.4,0.2
1698419993766.0,16,0.0,0.0,0.0,0.1,9.5,-0.6000000000000001,-0.1,-0.6000000000000001,0.4
1698419993782.0,16,0.0,0.1,0.0,0.1,9.5,-0.6000000000000001,-0.30000000000000004,-0.8,0.5
1698419993799.0,16,0.0,0.0,0.0,0.2,9.5,-0.6000000000000001,-0.5,-0.7,0.4
1698419993816.0,16,0.0,0.0,0.0,0.1,9.5,-0.6000000000000001,-0.6000000000000001,-0.8,0.5
1698419993833.0,16,0.0,0.0,0.0,0.2,9.4,-0.6000000000000001,-0.7,-0.7,0.4
1698419993849.0,16,0.0,0.0,0.0,0.1,9.5,-0.6000000000000001,-0.8,-0.9,0.4
1698419993866.0,16,0.0,0.0,0.0,0.1,9.5,-0.6000000000000001,-0.7,-0.8,0.4
1698419993882.0,16,0.0,0.0,0.0,0.1,9.5,-0.6000000000000001,-0.7,-0.9,0.4
1698419993900.0,16,0.0,0.0,0.0,0.2,9.5,-0.7000000000000001,-0.6000000000000001,-0.9,0.4
1698419993915.0,16,0.0,0.0,0.0,0.2,9.5,-0.6000000000000001,-0.6000000000000001,-0.9,0.4
1698419993932.0,16,0.0,0.0,0.0,0.2,9.5,-0.6000000000000001,-0.7,-0.9,0.30000000000000004
1698419993949.0,16,0.0,0.0,0.0,0.2,9.5,-0.6000000000000001,-0.6000000000000001,-0.9,0.30000000000000004
1698419993965.0,16,0.0,0.0,0.0,0.2,9.5,-0.6000000000000001,-0.5,-0.7,0.30000000000000004
1698419993982.0,16,0.0,0.0,0.0,0.2,9.5,-0.6000000000000001,-0.5,-0.6000000000000001,0.2
1698419993999.0,16,0.0,0.0,0.0,0.2,9.5,-0.6000000000000001,-0.5,-0.5,0.30000000000000004
1698419994015.0,16,0.0,0.0,0.0,0.2,9.5,-0.6000000000000001,-0.5,-0.30000000000000004,0.30000000000000004
1698419994032.0,16,0.0,0.0,0.0,0.1,9.5,-0.6000000000000001,-0.6000000000000001,-0.30000000000000004,0.4
1698419994049.0,16,0.0,0.0,0.0,0.2,9.5,-0.6000000000000001,-0.6000000000000001,-0.2,0.30000000000000004
1698419994066.0,16,0.0,0.0,0.0,0.2,9.5,-0.6000000000000001,-0.6000000000000001,-0.1,0.2
1698419994083.0,16,0.0,0.0,0.0,0.1,9.5,-0.6000000000000001,-0.6000000000000001,-0.1,0.30000000000000004
1698419994099.0,16,0.0,0.0,0.0,0.2,9.5,-0.6000000000000001,-0.6000000000000001,-0.1,0.4
1698419994116.0,16,0.0,0.0,0.0,0.2,9.5,-0.6000000000000001,-0.5,0.2,0.1
1698419994132.0,16,0.0,0.0,-0.1,0.2,9.5,-0.7000000000000001,-0.5,0.4,0.1
1698419994149.0,16,0.0,0.0,0.0,0.2,9.5,-0.6000000000000001,-0.6000000000000001,0.30000000000000004,0.1
1698419994165.0,16,0.0,0.0,0.0,0.2,9.5,-0.6000000000000001,-0.7,0.2,0.2
1698419994182.0,16,0.0,0.0,0.0,0.2,9.5,-0.6000000000000001,-0.9,0.5,0.2
1698419994199.0,16,0.0,0.0,0.0,0.2,9.5,-0.6000000000000001,-0.8,0.8,0.1
1698419994216.0,16,0.0,0.0,-0.1,0.1,9.5,-0.7000000000000001,-0.9,1.0,0.2
1698419994232.0,16,0.0,0.0,0.0,0.2,9.5,-0.6000000000000001,-1.0999999999999999,0.9,0.2
1698419994250.0,16,0.0,0.0,0.0,0.1,9.4,-0.6000000000000001,-1.2000000000000002,1.0999999999999999,0.1
1698419994266.0,16,0.0,0.0,0.0,0.2,9.4,-0.6000000000000001,-0.9,1.0999999999999999,0.0
1698419994282.0,16,0.0,0.0,0.0,0.1,9.5,-0.6000000000000001,-0.7,1.0999999999999999,0.1
1698419994299.0,16,0.0,0.0,0.0,0.1,9.4,-0.6000000000000001,-0.6000000000000001,1.0,0.1
1698419994317.0,16,0.0,0.0,0.0,0.2,9.5,-0.6000000000000001,-0.6000000000000001,1.0999999999999999,-0.1
1698419994332.0,16,0.0,0.0,0.0,0.1,9.5,-0.6000000000000001,-0.6000000000000001,1.0999999999999999,-0.2
1698419994349.0,16,0.0,0.0,0.0,0.1,9.5,-0.6000000000000001,-0.30000000000000004,1.4,-0.30000000000000004
1698419994365.0,16,0.0,0.0,0.0,0.2,9.5,-0.6000000000000001,-0.2,1.3,-0.2
1698419994382.0,16,0.0,0.0,0.0,0.1,9.4,-0.6000000000000001,-0.30000000000000004,1.3,-0.2
1698419994399.0,16,0.0,0.0,0.0,0.2,9.4,-0.6000000000000001,-0.2,1.4,-0.2
1698419994415.0,16,0.0,0.0,0.0,0.2,9.5,-0.5,-0.1,1.6,-0.30000000000000004
1698419994432.0,16,0.0,0.0,0.0,0.2,9.5,-0.6000000000000001,0.0,1.7,-0.2
1698419994449.0,16,0.0,0.0,0.0,0.1,9.5,-0.6000000000000001,0.0,1.7,-0.2
1698419994465.0,16,0.0,0.0,0.0,0.1,9.5,-0.6000000000000001,-0.1,1.6,0.1
1698419994482.0,16,0.0,0.0,0.0,0.2,9.5,-0.6000000000000001,-0.1,1.7,0.0
1698419994499.0,16,0.0,0.0,0.0,0.2,9.5,-0.6000000000000001,0.1,1.7,0.0
1698419994516.0,16,0.0,0.0,0.0,0.2,9.5,-0.6000000000000001,0.0,2.0,-0.1
1698419994532.0,16,0.0,0.0,0.0,0.1,9.4,-0.5,0.0,1.4,-0.2
1698419994549.0,16,0.0,0.0,0.0,0.1,9.5,-0.5,0.0,1.4,-0.2
1698419994565.0,16,0.0,0.0,0.0,0.1,9.5,-0.6000000000000001,0.2,1.2000000000000002,-0.1
1698419994582.0,16,0.0,0.0,0.0,0.1,9.5,-0.6000000000000001,0.2,1.3,-0.2
1698419994599.0,16,0.0,0.0,0.0,0.1,9.5,-0.6000000000000001,0.30000000000000004,1.3,0.1
1698419994615.0,16,0.0,0.0,0.0,0.1,9.5,-0.6000000000000001,0.30000000000000004,1.2000000000000002,-0.1
1698419994632.0,16,0.0,0.0,0.0,0.2,9.5,-0.5,0.30000000000000004,1.0,-0.1
1698419994649.0,16,0.0,0.0,0.0,0.1,9.5,-0.5,0.4,0.9,-0.2
1698419994665.0,16,0.0,0.0,0.0,0.1,9.5,-0.5,0.30000000000000004,0.8,-0.30000000000000004
1698419994682.0,16,0.0,0.0,0.0,0.1,9.5,-0.6000000000000001,0.30000000000000004,0.7,-0.30000000000000004
1698419994699.0,16,0.0,0.0,0.0,0.2,9.5,-0.6000000000000001,0.2,0.6000000000000001,-0.2
1698419994716.0,16,0.0,0.0,0.0,0.2,9.5,-0.6000000000000001,0.2,0.7,-0.30000000000000004
1698419994732.0,16,0.0,0.0,0.0,0.1,9.5,-0.6000000000000001,0.0,0.6000000000000001,-0.1
1698419994749.0,16,0.0,0.0,0.0,0.1,9.5,-0.5,0.0,0.6000000000000001,-0.1
1698419994765.0,16,0.0,0.0,0.0,0.1,9.5,-0.6000000000000001,-0.1,0.6000000000000001,0.0
1698419994782.0,16,0.0,0.0,0.0,0.2,9.5,-0.5,0.1,0.4,-0.1
1698419994799.0,16,0.0,0.0,0.0,0.1,9.5,-0.6000000000000001,0.1,0.2,-0.1
1698419994816.0,16,0.0,0.0,0.0,0.1,9.5,-0.6000000000000001,0.1,0.1,0.0
1698419994832.0,16,0.0,0.0,0.0,0.2,9.5,-0.5,-0.1,0.1,-0.1
1698419994849.0,16,0.0,0.0,0.1,0.2,9.5,-0.5,-0.30000000000000004,0.0,-0.2
1698419994865.0,16,0.0,0.0,0.0,0.2,9.5,-0.5,-0.30000000000000004,0.2,-0.2
1698419994882.0,16,0.1,0.0,0.1,0.2,9.5,-0.5,-0.5,0.2,-0.2
1698419994899.0,16,0.0,0.0,0.0,0.2,9.5,-0.5,-0.6000000000000001,0.30000000000000004,-0.2
1698419994915.0,16,0.0,0.1,0.0,0.2,9.5,-0.6000000000000001,-0.7,0.5,-0.2
1698419994932.0,16,0.0,0.0,0.0,0.1,9.5,-0.6000000000000001,-0.6000000000000001,0.7,-0.2
1698419994949.0,16,0.0,0.0,0.0,0.2,9.5,-0.5,-0.9,0.4,-0.1
1698419994965.0,16,0.0,0.0,0.0,0.2,9.4,-0.5,-0.8,0.5,-0.1
1698419994982.0,16,0.0,-0.1,0.0,0.2,9.4,-0.5,-0.8,0.5,-0.5
1698419994999.0,16,0.0,0.0,0.0,0.1,9.4,-0.5,-0.7,0.5,-0.4
1698419995016.0,16,0.0,0.0,0.0,0.1,9.5,-0.5,-0.6000000000000001,0.4,-0.4
1698419995032.0,16,0.0,0.0,0.0,0.2,9.5,-0.5,-0.6000000000000001,0.30000000000000004,-0.30000000000000004
1698419995049.0,16,0.1,0.0,0.0,0.2,9.5,-0.6000000000000001,-0.30000000000000004,0.5,-0.5
1698419995065.0,16,0.1,0.0,0.0,0.2,9.5,-0.5,-0.5,0.8,-0.7
1698419995082.0,16,0.1,0.0,0.0,0.2,9.5,-0.5,-0.4,0.8,-0.8
1698419995099.0,16,0.0,0.0,0.0,0.2,9.5,-0.5,-0.5,1.0999999999999999,-0.8
1698419995115.0,16,0.0,0.0,0.0,0.2,9.4,-0.5,-0.5,1.0999999999999999,-0.9
1698419995132.0,16,0.0,0.0,0.0,0.2,9.4,-0.5,-0.5,1.4,-0.8
1698419995149.0,16,0.1,0.0,0.0,0.2,9.5,-0.5,-0.5,1.9,-1.0
1698419995165.0,16,0.1,0.0,0.0,0.2,9.5,-0.5,-0.5,2.0,-1.0
1698419995182.0,16,0.0,0.0,0.0,0.2,9.5,-0.5,-0.5,2.1,-0.9
1698419995199.0,16,0.1,0.0,0.0,0.2,9.5,-0.5,-0.6000000000000001,2.3000000000000003,-1.0
1698419995215.0,16,0.0,0.0,0.0,0.2,9.5,-0.5,-0.8,2.4000000000000004,-1.0
1698419995232.0,16,0.0,0.0,0.0,0.2,9.5,-0.5,-1.0,2.5,-1.2000000000000002
1698419995249.0,16,0.0,0.0,0.0,0.2,9.4,-0.5,-0.8,2.7,-1.2000000000000002
1698419995265.0,16,0.0,0.0,0.0,0.2,9.5,-0.5,-0.8,2.8,-1.3
1698419995282.0,16,0.0,0.0,0.0,0.2,9.5,-0.5,-0.8,3.0000000000000004,-1.3
1698419995299.0,16,0.0,0.0,0.0,0.2,9.5,-0.5,-0.7,3.4,-1.6
1698419995315.0,16,0.0,0.0,0.0,0.2,9.5,-0.5,-0.5,3.5,-1.8
1698419995332.0,16,0.0,0.0,0.0,0.1,9.5,-0.5,-0.4,3.9,-2.1999999999999997
1698419995349.0,16,0.0,0.0,0.0,0.1,9.5,-0.5,-0.2,4.300000000000001,-2.1999999999999997
1698419995365.0,16,-0.1,0.0,0.0,0.0,9.5,-0.5,-0.1,4.5,-2.1999999999999997
1698419995382.0,16,-0.1,0.0,0.0,0.0,9.5,-0.5,-0.1,4.6000000000000005,-2.1999999999999997
1698419995399.0,16,-0.1,0.0,0.0,0.0,9.5,-0.4,0.0,4.7,-2.1999999999999997
1698419995415.0,16,0.0,0.0,0.0,0.0,9.5,-0.5,0.1,4.6000000000000005,-2.1999999999999997
1698419995432.0,16,0.0,0.0,0.0,0.0,9.5,-0.5,0.0,4.3999999999999995,-2.4000000000000004
1698419995449.0,16,0.0,0.0,0.0,0.0,9.5,-0.5,0.1,4.5,-2.1999999999999997
1698419995465.0,16,0.0,0.0,0.0,0.1,9.5,-0.5,0.1,4.1000000000000005,-2.1999999999999997
1698419995482.0,16,0.0,0.0,0.0,0.0,9.5,-0.5,0.0,3.9,-2.1999999999999997
1698419995499.0,16,-0.1,0.0,0.0,0.0,9.5,-0.5,-0.1,3.9,-2.1
1698419995515.0,16,-0.1,0.0,0.0,-0.1,9.5,-0.5,-0.1,3.6,-1.8
1698419995532.0,16,-0.1,0.0,0.0,-0.1,9.5,-0.5,-0.1,3.4,-1.6
1698419995549.0,16,-0.1,0.0,0.0,0.0,9.5,-0.5,0.1,3.0000000000000004,-1.0999999999999999
1698419995565.0,16,0.0,0.0,0.0,0.0,9.5,-0.5,0.2,2.8,-1.0
1698419995582.0,16,-0.1,0.0,0.0,0.0,9.5,-0.5,0.1,2.6,-1.0
1698419995598.0,16,0.0,0.0,0.0,0.0,9.5,-0.5,0.2,2.1,-1.0
1698419995615.0,16,0.0,0.0,0.1,0.0,9.5,-0.4,0.1,1.9,-1.0
1698419995632.0,16,0.0,0.0,0.0,0.0,9.5,-0.5,0.30000000000000004,1.8,-1.0999999999999999
1698419995649.0,16,0.0,0.0,0.0,0.0,9.5,-0.5,0.30000000000000004,1.8,-1.0999999999999999
1698419995665.0,16,0.0,0.0,0.0,0.0,9.5,-0.5,0.2,1.4,-1.0999999999999999
1698419995682.0,16,0.0,0.1,0.0,0.0,9.5,-0.5,0.2,1.4,-1.0
1698419995699.0,16,0.0,0.1,0.0,0.0,9.5,-0.5,-0.1,1.4,-1.0
1698419995715.0,16,0.0,0.0,0.0,0.0,9.5,-0.5,-0.30000000000000004,0.9,-0.8
1698419995732.0,16,0.0,0.0,0.0,0.0,9.5,-0.5,-0.4,0.6000000000000001,-0.8
1698419995749.0,16,0.0,0.0,0.0,0.0,9.5,-0.5,-0.6000000000000001,0.2,-0.8
1698419995766.0,16,0.0,0.0,0.0,0.0,9.5,-0.4,-0.8,0.0,-0.8
1698419995782.0,16,0.0,0.0,0.0,0.0,9.5,-0.4,-1.0999999999999999,-0.30000000000000004,-0.7
1698419995799.0,16,0.0,0.0,0.0,-0.1,9.5,-0.5,-1.4,-0.9,-0.30000000000000004
1698419995816.0,16,0.0,0.0,0.0,0.0,9.5,-0.5,-2.0,-1.6,-0.1
1698419995832.0,16,0.0,0.1,0.0,0.0,9.5,-0.5,-2.3000000000000003,-2.1,0.1
1698419995849.0,16,0.1,0.1,0.0,0.1,9.600000000000001,-0.4,-3.2,-2.6,0.30000000000000004
1698419995865.0,16,0.0,0.1,0.0,0.0,9.600000000000001,-0.4,-3.8,-3.1,0.6000000000000001
1698419995882.0,16,0.0,0.0,0.0,0.0,9.600000000000001,-0.4,-4.0,-3.5,0.7
1698419995899.0,16,0.0,0.0,0.0,0.0,9.5,-0.4,-4.300000000000001,-4.5,1.0999999999999999
1698419995915.0,16,0.0,-0.1,0.0,0.0,9.4,-0.4,-4.9,-5.2,0.9
1698419995932.0,16,0.0,0.0,0.1,0.0,9.5,-0.30000000000000004,-5.2,-5.8,0.8
1698419995949.0,16,0.0,0.0,0.0,0.0,9.5,-0.30000000000000004,-4.9,-6.9,0.30000000000000004
1698419995965.0,16,-0.1,0.1,0.0,-0.1,9.600000000000001,-0.30000000000000004,-4.5,-8.5,0.1
1698419995982.0,16,-0.2,0.1,0.1,-0.2,9.600000000000001,-0.30000000000000004,-4.2,-9.700000000000001,0.0
1698419995999.0,16,-0.4,0.1,0.0,-0.4,9.600000000000001,-0.30000000000000004,-3.9,-12.4,-0.4
1698419996016.0,16,-0.5,0.1,0.0,-0.5,9.600000000000001,-0.30000000000000004,-4.5,-16.0,-1.5000000000000002
1698419996032.0,16,-0.5,0.0,0.1,-0.5,9.5,-0.2,-4.9,-17.5,-2.1
1698419996048.0,16,-0.5,0.1,0.1,-0.6000000000000001,9.600000000000001,-0.2,-5.6,-20.7,-2.9
1698419996066.0,16,-0.5,0.1,0.2,-0.6000000000000001,9.600000000000001,-0.1,-6.3,-23.1,-3.7000000000000006
1698419996082.0,16,-0.5,0.1,0.2,-0.6000000000000001,9.600000000000001,-0.1,-6.8,-24.400000000000002,-4.6000000000000005
1698419996099.0,16,-0.6000000000000001,0.1,0.1,-0.7000000000000001,9.600000000000001,-0.2,-6.8,-24.9,-4.3999999999999995
1698419996115.0,16,-0.8,0.0,0.1,-0.9,9.600000000000001,-0.1,-7.2,-26.400000000000002,-3.3000000000000003
1698419996132.0,16,-0.9,0.0,0.0,-1.1,9.5,-0.2,-7.2,-28.500000000000004,-1.0
1698419996149.0,16,-1.1,-0.2,0.0,-1.3,9.3,-0.2,-7.2,-30.7,0.2
1698419996165.0,16,-1.2000000000000002,-0.2,-0.1,-1.4000000000000001,9.3,-0.2,-7.2,-34.7,2.3000000000000003
1698419996182.0,16,-1.1,-0.2,-0.30000000000000004,-1.2000000000000002,9.4,-0.4,-6.7,-40.6,4.0
1698419996199.0,16,-1.1,-0.1,-0.2,-1.2000000000000002,9.5,-0.4,-6.9,-43.300000000000004,4.0
1698419996215.0,16,-1.0,0.1,-0.30000000000000004,-1.1,9.600000000000001,-0.4,-5.6,-50.1,4.5
1698419996232.0,16,-1.0,0.2,-0.4,-1.2000000000000002,9.700000000000001,-0.5,-4.300000000000001,-56.900000000000006,4.1000000000000005
1698419996249.0,16,-1.1,0.2,-0.4,-1.2000000000000002,9.8,-0.5,-3.8,-59.9,3.7000000000000006
1698419996265.0,16,-1.1,0.30000000000000004,-0.4,-1.3,9.8,-0.5,-3.5,-65.5,2.6
1698419996282.0,16,-1.1,0.30000000000000004,-0.30000000000000004,-1.3,9.8,-0.30000000000000004,-3.9,-69.4,1.2000000000000002
1698419996299.0,16,-1.1,0.30000000000000004,-0.30000000000000004,-1.3,9.8,-0.30000000000000004,-3.6,-71.30000000000001,0.6000000000000001
1698419996316.0,16,-1.2000000000000002,0.1,-0.30000000000000004,-1.4000000000000001,9.600000000000001,-0.30000000000000004,-3.4,-75.60000000000001,-0.7
1698419996332.0,16,-1.2000000000000002,0.0,-0.30000000000000004,-1.4000000000000001,9.5,-0.30000000000000004,-3.4,-80.2,-1.5000000000000002
1698419996349.0,16,-1.2000000000000002,-0.1,-0.30000000000000004,-1.4000000000000001,9.5,-0.30000000000000004,-3.7000000000000006,-82.60000000000001,-1.3
1698419996365.0,16,-1.2000000000000002,-0.2,-0.1,-1.4000000000000001,9.4,-0.1,-4.2,-86.2,0.9
1698419996382.0,16,-0.9,-0.30000000000000004,-0.1,-1.1,9.200000000000001,0.0,-5.1,-88.5,4.7
1698419996400.0,16,-0.8,-0.4,0.0,-1.0,9.200000000000001,0.0,-6.1000000000000005,-88.7,7.0
1698419996415.0,16,-0.6000000000000001,-0.2,0.1,-0.8,9.3,0.2,-9.9,-87.2,10.9
1698419996432.0,16,-0.6000000000000001,-0.1,0.0,-0.7000000000000001,9.4,0.2,-12.200000000000001,-84.60000000000001,15.8
1698419996452.0,16,-0.7000000000000001,0.0,0.1,-0.8,9.5,0.30000000000000004,-15.399999999999999,-83.30000000000001,20.2
1698419996465.0,16,-0.7000000000000001,0.1,0.1,-0.7000000000000001,9.600000000000001,0.30000000000000004,-17.3,-83.50000000000001,21.900000000000002
1698419996482.0,16,-0.4,0.4,0.1,-0.4,10.0,0.30000000000000004,-21.900000000000002,-84.60000000000001,22.5
1698419996499.0,16,-0.2,0.6000000000000001,0.1,-0.1,10.100000000000001,0.5,-24.000000000000004,-85.9,22.000000000000004
1698419996515.0,16,0.30000000000000004,0.7000000000000001,0.30000000000000004,0.5,10.200000000000001,0.7000000000000001,-28.400000000000002,-88.10000000000001,20.5
1698419996532.0,16,0.9,0.4,0.5,1.2000000000000002,9.9,1.0,-31.3,-93.0,19.0
1698419996549.0,16,1.0,0.2,0.4,1.3,9.700000000000001,1.0,-32.4,-94.3,17.0
1698419996565.0,16,0.5,-0.1,0.4,0.9,9.4,1.0,-33.900000000000006,-95.2,12.700000000000001
1698419996582.0,16,-0.30000000000000004,-0.4,0.0,0.2,9.1,0.7000000000000001,-31.8,-100.8,8.600000000000001
1698419996599.0,16,-0.5,-0.5,-0.4,-0.1,9.0,0.4,-31.099999999999998,-103.5,6.5
1698419996615.0,16,-0.7000000000000001,-0.4,-1.1,-0.2,9.1,-0.30000000000000004,-30.799999999999997,-106.4,2.9
1698419996632.0,16,-0.30000000000000004,0.0,-1.4000000000000001,0.30000000000000004,9.4,-0.5,-31.8,-107.9,1.5000000000000002
1698419996649.0,16,0.0,0.0,-1.5,0.5,9.5,-0.5,-31.900000000000002,-108.5,1.2000000000000002
1698419996665.0,16,0.5,0.1,-1.5,1.1,9.600000000000001,-0.5,-31.099999999999998,-108.30000000000001,2.4000000000000004
1698419996682.0,16,0.9,0.30000000000000004,-1.6,1.6,9.8,-0.5,-30.4,-107.30000000000001,5.8
1698419996699.0,16,1.0,0.30000000000000004,-1.5,1.7000000000000002,9.700000000000001,-0.2,-30.299999999999997,-105.60000000000001,7.300000000000001
1698419996715.0,16,0.9,0.2,-1.2000000000000002,1.7000000000000002,9.600000000000001,0.0,-29.200000000000003,-102.5,10.700000000000001
1698419996732.0,16,0.8,0.1,-0.9,1.7000000000000002,9.5,0.30000000000000004,-28.6,-99.5,14.600000000000001
1698419996749.0,16,0.8,0.1,-0.8,1.7000000000000002,9.5,0.5,-27.6,-96.80000000000001,17.8
1698419996765.0,16,0.6000000000000001,-0.1,-0.8,1.7000000000000002,9.3,0.5,-26.500000000000004,-96.2,18.7
1698419996782.0,16,0.30000000000000004,-0.30000000000000004,-0.9,1.5,9.0,0.4,-24.6,-94.0,19.700000000000003
1698419996799.0,16,0.2,-0.4,-1.0,1.4000000000000001,9.0,0.4,-23.6,-93.5,19.400000000000002
1698419996815.0,16,0.0,-0.4,-1.2000000000000002,1.3,8.9,0.2,-22.000000000000004,-94.0,17.5
1698419996832.0,16,0.0,-0.6000000000000001,-1.3,1.4000000000000001,8.700000000000001,0.1,-20.5,-96.3,13.700000000000001
1698419996849.0,16,0.1,-0.6000000000000001,-1.3,1.5,8.700000000000001,0.1,-20.2,-96.3,11.5
1698419996865.0,16,0.30000000000000004,-0.5,-1.2000000000000002,1.8,8.700000000000001,0.2,-18.3,-95.60000000000001,6.000000000000001
1698419996882.0,16,0.30000000000000004,-0.4,-1.1,1.9000000000000001,8.9,0.30000000000000004,-15.9,-93.80000000000001,1.2000000000000002
1698419996898.0,16,0.4,-0.30000000000000004,-1.1,2.0,9.0,0.30000000000000004,-13.0,-91.2,-1.8
1698419996915.0,16,0.4,-0.2,-1.0,2.0,9.1,0.30000000000000004,-11.700000000000001,-89.4,-3.2
1698419996932.0,16,0.4,-0.1,-1.0,2.1,9.1,0.4,-8.799999999999999,-85.7,-6.000000000000001
1698419996949.0,16,0.30000000000000004,-0.2,-0.9,1.9000000000000001,9.0,0.4,-7.1000000000000005,-81.9,-8.700000000000001
1698419996965.0,16,0.30000000000000004,-0.2,-1.0,2.0,9.1,0.4,-6.7,-80.0,-9.9
1698419996982.0,16,0.4,-0.1,-0.9,2.0,9.200000000000001,0.4,-5.9,-76.7,-11.6
1698419996999.0,16,0.4,-0.1,-0.8,2.1,9.200000000000001,0.4,-5.500000000000001,-75.4,-12.100000000000001
