msFromStart,interval,accx,accy,accz,accGx,accGy,accGz,rotRate_alpha,rotRate_beta,rotRate_gamma
1698419347004.0,16,0.0,0.0,0.0,0.0,9.3,1.7000000000000002,-0.5,0.5,0.1
1698419347021.0,16,0.0,0.0,0.0,0.0,9.4,1.7000000000000002,-0.30000000000000004,0.5,0.1
1698419347038.0,16,0.0,0.0,0.0,0.0,9.4,1.7000000000000002,-0.1,0.1,-0.2
1698419347056.0,16,0.0,0.0,0.0,0.0,9.3,1.6,-0.2,0.0,-0.4
1698419347071.0,16,0.0,0.0,0.0,0.0,9.4,1.6,-0.2,0.0,-0.4
1698419347088.0,16,0.0,0.0,0.0,0.0,9.4,1.7000000000000002,-0.5,-0.1,-0.4
1698419347105.0,16,0.0,0.0,0.0,0.0,9.4,1.7000000000000002,-0.30000000000000004,-0.1,-0.6000000000000001
1698419347122.0,16,0.0,0.0,0.0,0.0,9.4,1.7000000000000002,-0.6000000000000001,0.2,-0.5
1698419347137.0,16,0.0,0.0,0.0,0.0,9.4,1.7000000000000002,-0.5,0.2,-0.4
1698419347154.0,16,0.0,0.0,0.0,0.0,9.4,1.7000000000000002,-0.30000000000000004,0.0,-0.4
1698419347171.0,16,0.0,0.0,0.0,0.0,9.4,1.6,-0.30000000000000004,-0.2,-0.4
1698419347188.0,16,0.0,0.0,0.0,0.0,9.4,1.7000000000000002,-0.30000000000000004,-0.2,-0.5
1698419347204.0,16,0.0,0.0,0.0,0.0,9.4,1.7000000000000002,-0.30000000000000004,-0.30000000000000004,-0.5
1698419347221.0,16,0.0,0.0,0.0,0.0,9.4,1.7000000000000002,-0.5,-0.1,-0.7
1698419347238.0,16,0.0,0.0,0.0,0.0,9.3,1.7000000000000002,-0.5,0.2,-0.4
1698419347255.0,16,0.0,0.0,0.0,-0.1,9.3,1.7000000000000002,-0.30000000000000004,0.0,-0.2
1698419347272.0,16,0.0,0.0,0.0,0.0,9.3,1.7000000000000002,-0.1,0.0,-0.1
1698419347288.0,16,0.0,0.0,0.0,-0.1,9.4,1.7000000000000002,0.2,0.2,0.1
1698419347304.0,16,0.0,0.0,0.0,0.0,9.4,1.7000000000000002,0.5,0.5,0.1
1698419347321.0,16,0.0,0.0,0.0,0.0,9.4,1.7000000000000002,0.6000000000000001,0.5,0.1
1698419347338.0,16,0.0,0.0,0.0,0.0,9.4,1.7000000000000002,0.4,0.5,0.30000000000000004
1698419347354.0,16,0.0,0.0,0.0,-0.1,9.4,1.7000000000000002,0.0,0.5,0.30000000000000004
1698419347371.0,16,-0.1,0.0,0.0,-0.1,9.4,1.7000000000000002,-0.1,0.4,0.4
1698419347388.0,16,0.0,0.0,0.0,0.0,9.4,1.7000000000000002,-0.6000000000000001,0.30000000000000004,0.1
1698419347405.0,16,0.0,0.0,0.0,-0.1,9.3,1.7000000000000002,-0.6000000000000001,0.6000000000000001,0.1
1698419347421.0,16,0.0,0.0,0.0,-0.1,9.4,1.7000000000000002,-0.4,0.4,0.1
1698419347438.0,16,0.0,0.0,0.0,-0.1,9.4,1.7000000000000002,-0.1,-0.30000000000000004,0.0
1698419347454.0,16,0.0,0.0,0.0,-0.1,9.4,1.7000000000000002,-0.30000000000000004,-0.30000000000000004,-0.2
1698419347471.0,16,0.0,0.0,0.0,0.0,9.4,1.7000000000000002,-0.5,-0.1,-0.4
1698419347488.0,16,0.0,0.0,0.0,-0.1,9.3,1.7000000000000002,-0.9,-0.6000000000000001,-0.4
1698419347505.0,16,0.0,0.0,0.0,0.0,9.3,1.7000000000000002,-0.9,-0.9,-0.5
1698419347521.0,16,0.0,0.0,0.0,-0.1,9.3,1.7000000000000002,-0.8,-1.0,-0.4
1698419347538.0,16,0.0,0.0,0.0,0.0,9.4,1.7000000000000002,-0.6000000000000001,-1.0999999999999999,-0.4
1698419347555.0,16,0.0,0.0,0.0,0.0,9.4,1.6,-0.4,-1.0,-0.5
1698419347571.0,16,0.0,0.0,0.0,0.0,9.4,1.7000000000000002,-0.30000000000000004,-0.9,-0.6000000000000001
1698419347589.0,16,0.0,0.0,0.0,0.0,9.4,1.7000000000000002,-0.4,-1.0,-0.6000000000000001
1698419347604.0,16,0.0,0.0,0.0,0.0,9.4,1.7000000000000002,-0.5,-0.6000000000000001,-0.5
1698419347621.0,16,0.0,0.0,0.0,0.0,9.4,1.7000000000000002,-0.6000000000000001,-0.5,-0.5
1698419347637.0,16,0.0,0.0,0.0,0.0,9.4,1.7000000000000002,-0.5,-0.30000000000000004,-0.1
1698419347655.0,16,0.0,0.0,0.0,0.0,9.3,1.7000000000000002,-0.4,-0.5,-0.2
1698419347672.0,16,0.0,0.0,0.0,0.0,9.4,1.7000000000000002,-0.5,-0.4,-0.1
1698419347688.0,16,0.0,0.0,0.0,0.0,9.4,1.7000000000000002,-0.30000000000000004,0.1,-0.2
1698419347704.0,16,0.0,0.0,0.0,0.0,9.3,1.7000000000000002,-0.2,0.2,-0.1
1698419347721.0,16,0.0,0.0,0.0,0.0,9.3,1.7000000000000002,-0.30000000000000004,0.1,-0.1
1698419347738.0,16,0.0,0.0,0.0,0.0,9.4,1.7000000000000002,-0.30000000000000004,-0.1,0.30000000000000004
1698419347755.0,16,0.0,0.0,0.0,-0.1,9.4,1.7000000000000002,-0.5,-0.1,0.30000000000000004
1698419347771.0,16,0.0,0.0,0.0,0.0,9.4,1.7000000000000002,-0.2,0.1,0.30000000000000004
1698419347789.0,16,0.0,0.0,0.0,0.0,9.4,1.7000000000000002,-0.1,0.0,0.1
1698419347805.0,16,0.0,0.0,0.0,0.0,9.3,1.7000000000000002,-0.30000000000000004,-0.1,0.0
1698419347821.0,16,0.0,0.0,0.0,-0.1,9.4,1.7000000000000002,-0.30000000000000004,0.0,0.1
1698419347838.0,16,0.0,0.0,0.0,-0.1,9.3,1.7000000000000002,-0.30000000000000004,0.0,0.1
1698419347856.0,16,0.0,0.0,0.0,0.0,9.3,1.7000000000000002,-0.1,0.0,0.1
1698419347872.0,16,0.0,0.0,0.0,0.0,9.4,1.7000000000000002,-0.1,0.1,0.1
1698419347888.0,16,0.0,0.0,0.0,0.0,9.4,1.7000000000000002,-0.1,0.0,0.0
1698419347905.0,16,0.0,0.0,0.0,0.0,9.4,1.7000000000000002,-0.2,0.1,0.0
1698419347921.0,16,0.0,0.0,0.0,-0.1,9.3,1.7000000000000002,-0.2,0.0,0.1
1698419347938.0,16,0.0,0.0,0.0,0.0,9.4,1.7000000000000002,-0.30000000000000004,0.0,0.1
1698419347954.0,16,0.0,0.0,0.0,0.0,9.4,1.7000000000000002,-0.30000000000000004,0.0,-0.1
1698419347971.0,16,0.0,0.0,0.0,0.0,9.4,1.7000000000000002,-0.5,0.2,-0.1
1698419347989.0,16,0.0,0.0,0.0,0.0,9.3,1.7000000000000002,-0.5,0.2,0.1
1698419348005.0,16,0.0,0.0,0.0,0.0,9.4,1.7000000000000002,-0.2,0.2,0.1
1698419348021.0,16,0.0,0.0,0.0,0.0,9.4,1.7000000000000002,0.1,0.2,0.1
1698419348039.0,16,0.0,0.0,0.0,-0.1,9.4,1.7000000000000002,0.2,0.0,0.1
1698419348055.0,16,0.0,0.0,0.0,0.0,9.3,1.7000000000000002,-0.2,-0.1,0.1
1698419348072.0,16,0.0,0.0,0.0,0.0,9.4,1.7000000000000002,-0.2,0.0,0.1
1698419348088.0,16,0.0,0.0,0.0,0.0,9.3,1.7000000000000002,-0.30000000000000004,0.2,0.1
1698419348105.0,16,0.0,0.0,0.0,0.0,9.4,1.8,-0.2,0.1,-0.1
1698419348121.0,16,0.0,0.0,0.0,0.0,9.4,1.7000000000000002,-0.1,0.0,-0.1
1698419348138.0,16,0.0,0.0,0.0,0.0,9.3,1.7000000000000002,0.0,0.0,0.0
1698419348155.0,16,0.0,0.0,0.0,0.0,9.3,1.7000000000000002,-0.1,0.0,0.0
1698419348171.0,16,0.0,0.0,0.0,0.0,9.3,1.7000000000000002,-0.1,0.0,0.1
1698419348188.0,16,0.0,0.0,0.0,0.0,9.3,1.7000000000000002,-0.1,0.1,0.0
1698419348205.0,16,0.0,0.0,0.0,0.0,9.4,1.7000000000000002,0.2,0.4,0.1
1698419348222.0,16,0.0,0.0,0.0,0.0,9.3,1.8,0.4,0.4,0.2
1698419348238.0,16,0.0,0.0,0.0,0.0,9.3,1.7000000000000002,0.4,0.30000000000000004,0.2
1698419348255.0,16,0.0,0.0,0.0,-0.1,9.4,1.7000000000000002,0.1,0.0,0.30000000000000004
1698419348272.0,16,0.0,0.0,0.0,0.0,9.4,1.8,-0.5,-0.1,0.4
1698419348288.0,16,0.0,0.0,0.0,0.0,9.4,1.8,-0.5,-0.1,0.30000000000000004
1698419348305.0,16,0.0,0.0,0.0,0.0,9.4,1.8,-0.9,0.0,0.30000000000000004
1698419348324.0,16,0.0,0.0,0.0,-0.1,9.3,1.7000000000000002,-0.8,0.0,0.1
1698419348338.0,16,0.0,0.0,0.0,0.0,9.4,1.7000000000000002,-0.9,-0.1,0.1
1698419348355.0,16,0.0,0.0,0.0,0.0,9.3,1.7000000000000002,-0.8,-0.1,-0.1
1698419348371.0,16,0.0,-0.1,0.0,0.0,9.3,1.8,-0.2,0.0,-0.4
1698419348388.0,16,0.0,-0.1,0.1,0.0,9.200000000000001,1.8,0.30000000000000004,0.0,-0.30000000000000004
1698419348405.0,16,0.0,-0.1,0.1,0.0,9.3,1.8,0.5,-0.30000000000000004,-0.30000000000000004
1698419348421.0,16,0.0,0.0,0.0,0.0,9.3,1.8,1.0999999999999999,-0.6000000000000001,-0.2
1698419348438.0,16,0.0,0.0,0.0,0.0,9.4,1.8,1.3,-0.7,-0.2
1698419348455.0,16,0.0,0.0,0.0,0.0,9.4,1.8,1.0999999999999999,-0.6000000000000001,0.0
1698419348471.0,16,0.1,0.0,0.0,0.0,9.4,1.7000000000000002,0.4,-0.5,0.0
1698419348492.0,16,0.0,0.0,0.0,0.0,9.4,1.7000000000000002,0.30000000000000004,0.1,0.1
1698419348504.0,16,0.0,0.0,0.0,0.0,9.3,1.7000000000000002,0.6000000000000001,0.5,0.2
1698419348521.0,16,0.0,0.0,0.0,0.0,9.3,1.7000000000000002,0.7,0.8,0.2
1698419348538.0,16,0.0,0.0,0.0,0.0,9.3,1.7000000000000002,0.9,0.8,0.2
1698419348554.0,16,0.0,0.0,0.1,0.0,9.3,1.8,0.8,0.9,0.30000000000000004
1698419348571.0,16,0.0,0.0,0.0,0.0,9.4,1.8,0.7,0.6000000000000001,0.30000000000000004
1698419348587.0,16,0.0,0.0,0.0,0.0,9.4,1.7000000000000002,0.6000000000000001,0.5,0.2
1698419348604.0,16,0.0,0.0,0.1,0.0,9.3,1.8,0.7,0.5,0.2
1698419348621.0,16,0.0,0.0,0.0,0.0,9.4,1.8,1.0,0.30000000000000004,0.2
1698419348637.0,16,0.0,0.0,0.0,0.0,9.4,1.7000000000000002,0.7,0.30000000000000004,0.30000000000000004
1698419348654.0,16,0.0,0.0,0.0,0.0,9.3,1.8,0.7,0.4,0.30000000000000004
1698419348675.0,16,0.0,0.0,0.0,-0.1,9.4,1.7000000000000002,0.8,0.30000000000000004,0.4
1698419348688.0,16,0.0,0.0,0.0,0.0,9.4,1.7000000000000002,0.7,0.4,0.4
1698419348705.0,16,0.0,0.0,0.0,0.0,9.4,1.7000000000000002,0.5,0.30000000000000004,0.30000000000000004
1698419348721.0,16,0.0,0.0,0.0,0.0,9.4,1.7000000000000002,0.5,-0.1,0.1
1698419348738.0,16,0.0,0.0,0.0,0.0,9.4,1.7000000000000002,0.30000000000000004,-0.2,0.0
1698419348755.0,16,0.0,0.0,0.0,0.0,9.4,1.7000000000000002,0.2,-0.30000000000000004,-0.1
1698419348772.0,16,0.0,0.0,0.0,0.0,9.4,1.7000000000000002,0.1,-0.1,-0.2
1698419348787.0,16,0.0,0.0,0.0,-0.1,9.4,1.7000000000000002,-0.1,-0.1,-0.2
1698419348805.0,16,0.0,0.0,0.0,0.0,9.4,1.7000000000000002,0.0,-0.1,-0.30000000000000004
1698419348821.0,16,0.0,0.0,-0.1,0.0,9.4,1.7000000000000002,0.2,-0.2,-0.1
1698419348838.0,16,0.0,0.0,0.0,0.0,9.4,1.7000000000000002,0.2,-0.30000000000000004,-0.1
1698419348855.0,16,0.0,0.0,0.0,0.0,9.4,1.7000000000000002,0.2,-0.5,-0.1
1698419348871.0,16,0.0,0.0,0.0,0.0,9.3,1.7000000000000002,0.2,-0.30000000000000004,0.0
1698419348887.0,16,0.0,0.0,0.0,0.0,9.3,1.7000000000000002,0.2,-0.1,0.1
1698419348904.0,16,0.0,0.0,0.0,0.0,9.3,1.7000000000000002,0.4,0.0,0.30000000000000004
1698419348921.0,16,0.0,0.0,0.0,0.0,9.4,1.7000000000000002,0.4,0.0,0.4
1698419348938.0,16,0.0,0.0,0.0,0.0,9.4,1.7000000000000002,0.30000000000000004,0.0,0.30000000000000004
1698419348955.0,16,0.0,0.0,0.0,-0.1,9.4,1.7000000000000002,0.2,0.0,0.30000000000000004
1698419348971.0,16,0.0,0.0,0.0,0.0,9.4,1.7000000000000002,0.2,-0.1,0.1
1698419348988.0,16,0.0,0.0,0.0,-0.1,9.4,1.7000000000000002,0.1,-0.2,0.0
1698419349004.0,16,0.0,0.0,0.0,0.0,9.4,1.6,0.0,0.0,-0.1
1698419349021.0,16,0.0,0.0,0.0,0.0,9.4,1.7000000000000002,0.0,0.0,-0.2
1698419349038.0,16,0.0,0.0,0.0,0.0,9.3,1.6,0.1,-0.2,-0.2
1698419349055.0,16,0.0,0.0,0.0,0.0,9.4,1.7000000000000002,0.30000000000000004,-0.2,-0.1
1698419349072.0,16,0.0,0.0,0.0,0.0,9.4,1.7000000000000002,0.4,0.0,-0.1
1698419349088.0,16,0.0,0.0,-0.1,0.0,9.4,1.6,0.4,0.1,-0.1
1698419349104.0,16,0.0,0.0,0.0,0.0,9.4,1.6,0.30000000000000004,-0.2,0.0
1698419349121.0,16,0.0,0.0,0.0,0.0,9.3,1.6,0.2,-0.1,-0.1
1698419349138.0,16,0.0,0.0,0.0,0.0,9.4,1.7000000000000002,0.2,-0.1,0.0
1698419349154.0,16,0.0,0.0,0.0,0.0,9.4,1.6,0.5,0.0,-0.1
1698419349172.0,16,0.0,0.0,0.0,0.0,9.4,1.7000000000000002,0.6000000000000001,0.2,0.1
1698419349187.0,16,0.0,0.0,0.0,0.0,9.4,1.6,0.4,0.30000000000000004,0.1
1698419349204.0,16,0.0,0.0,0.0,0.0,9.4,1.7000000000000002,0.30000000000000004,0.1,0.30000000000000004
1698419349221.0,16,0.0,0.0,0.0,0.0,9.4,1.6,0.2,0.1,0.30000000000000004
1698419349238.0,16,0.0,0.0,0.0,0.0,9.4,1.6,0.2,0.30000000000000004,0.2
1698419349254.0,16,0.0,0.0,0.0,0.0,9.4,1.7000000000000002,0.2,0.6000000000000001,0.2
1698419349271.0,16,0.0,0.0,0.0,0.0,9.3,1.6,0.4,0.5,0.1
1698419349289.0,16,0.0,0.1,-0.1,-0.1,9.4,1.6,-0.4,0.5,0.30000000000000004
1698419349304.0,16,0.0,0.0,-0.1,-0.1,9.4,1.6,-2.3000000000000003,0.0,0.5
1698419349321.0,16,0.0,0.0,-0.1,0.0,9.4,1.6,-2.9,0.0,0.6000000000000001
1698419349338.0,16,0.0,0.0,0.1,0.0,9.4,1.7000000000000002,-2.7,1.9,1.0
1698419349354.0,16,0.1,0.0,0.2,0.1,9.3,1.8,-1.2000000000000002,3.8,1.7
1698419349371.0,16,0.1,0.0,0.1,0.1,9.3,1.8,-0.30000000000000004,3.8,1.8
1698419349389.0,16,0.1,0.0,0.0,0.1,9.3,1.7000000000000002,0.5,3.0000000000000004,1.6
1698419349404.0,16,0.0,0.0,0.0,0.0,9.4,1.7000000000000002,0.0,3.1,1.7
1698419349421.0,16,-0.1,0.0,-0.1,-0.1,9.4,1.6,-1.3,2.4000000000000004,1.4
1698419349438.0,16,-0.1,-0.1,0.0,-0.1,9.3,1.7000000000000002,-0.8,0.9,0.5
1698419349455.0,16,0.0,-0.1,0.0,0.0,9.3,1.7000000000000002,0.8,-0.5,0.2
1698419349471.0,16,0.0,0.0,0.1,0.0,9.3,1.8,0.8,-0.6000000000000001,0.2
1698419349488.0,16,0.1,0.0,0.1,0.1,9.4,1.8,1.0,-1.0,0.30000000000000004
1698419349504.0,16,0.1,0.0,0.1,0.1,9.3,1.8,1.0,-0.5,0.30000000000000004
1698419349521.0,16,0.0,0.0,0.1,0.0,9.4,1.7000000000000002,0.6000000000000001,-0.30000000000000004,0.2
1698419349537.0,16,0.0,0.1,0.0,0.0,9.5,1.7000000000000002,-0.5,-0.30000000000000004,0.0
1698419349554.0,16,0.0,0.1,0.0,0.0,9.5,1.7000000000000002,-0.6000000000000001,0.1,-0.1
1698419349573.0,16,0.0,0.1,0.0,0.0,9.4,1.7000000000000002,-0.5,0.30000000000000004,-0.1
1698419349587.0,16,0.0,0.0,-0.1,0.0,9.4,1.6,-1.0999999999999999,0.6000000000000001,0.1
1698419349604.0,16,0.0,0.1,0.0,0.0,9.5,1.7000000000000002,-2.3000000000000003,0.1,-0.2
1698419349621.0,16,0.0,0.1,0.0,0.0,9.4,1.7000000000000002,-2.6,0.2,-0.4
1698419349638.0,16,0.0,0.0,0.0,0.0,9.4,1.7000000000000002,-2.3000000000000003,0.30000000000000004,-0.8
1698419349654.0,16,0.0,0.0,0.1,0.0,9.4,1.8,-2.5,0.0,-1.0
1698419349671.0,16,0.0,0.0,0.0,0.0,9.3,1.8,-2.3000000000000003,-0.30000000000000004,-1.0
1698419349690.0,16,0.0,0.0,0.0,0.0,9.3,1.7000000000000002,-2.1999999999999997,-0.5,-0.8
1698419349704.0,16,0.0,-0.1,-0.1,0.0,9.3,1.7000000000000002,-2.5,-0.5,-0.8
1698419349721.0,16,0.0,-0.1,-0.1,0.0,9.3,1.7000000000000002,-2.3000000000000003,-0.6000000000000001,-0.9
1698419349738.0,16,0.0,-0.1,0.0,0.0,9.200000000000001,1.7000000000000002,-1.5000000000000002,-0.7,-1.0
1698419349754.0,16,0.0,-0.1,0.0,0.0,9.200000000000001,1.7000000000000002,-0.2,-0.7,-0.7
1698419349771.0,16,0.0,-0.1,0.0,0.0,9.200000000000001,1.8,0.2,-0.5,-0.5
1698419349789.0,16,0.0,0.0,0.0,0.0,9.3,1.7000000000000002,1.0,-0.30000000000000004,-0.2
1698419349804.0,16,0.1,0.0,0.0,0.0,9.3,1.7000000000000002,1.2000000000000002,-0.8,-0.2
1698419349821.0,16,0.0,0.0,0.0,0.0,9.4,1.7000000000000002,1.3,-0.8,-0.30000000000000004
1698419349838.0,16,0.0,0.0,0.0,0.0,9.4,1.7000000000000002,1.3,-0.5,0.1
1698419349854.0,16,0.0,0.0,0.0,0.0,9.3,1.8,1.9,0.4,0.4
1698419349871.0,16,0.0,0.0,0.0,0.0,9.3,1.7000000000000002,1.9,0.5,0.6000000000000001
1698419349889.0,16,0.0,0.0,0.1,0.0,9.3,1.8,1.9,0.0,0.30000000000000004
1698419349904.0,16,0.0,0.0,0.0,0.0,9.4,1.8,2.1,0.0,0.1
1698419349921.0,16,0.0,0.0,0.0,0.0,9.4,1.7000000000000002,2.3000000000000003,0.2,-0.1
1698419349938.0,16,0.0,0.1,0.0,0.0,9.4,1.7000000000000002,2.4000000000000004,0.8,0.2
1698419349955.0,16,0.0,0.1,0.0,0.0,9.4,1.7000000000000002,1.6,0.9,0.6000000000000001
1698419349971.0,16,0.0,0.1,0.0,0.0,9.4,1.7000000000000002,1.0999999999999999,0.7,0.5
1698419349988.0,16,0.0,0.0,0.0,0.0,9.4,1.7000000000000002,0.2,0.2,0.30000000000000004
1698419350004.0,16,0.0,0.0,0.0,0.0,9.4,1.7000000000000002,0.2,0.2,0.2
1698419350021.0,16,0.0,0.0,0.0,0.0,9.4,1.7000000000000002,0.2,0.2,0.2
1698419350039.0,16,0.0,0.0,0.0,0.0,9.3,1.7000000000000002,0.0,-0.1,0.30000000000000004
1698419350054.0,16,0.0,0.0,0.0,0.0,9.3,1.7000000000000002,-0.30000000000000004,-0.5,0.1
1698419350071.0,16,0.0,0.0,0.0,0.0,9.3,1.7000000000000002,-0.2,-0.6000000000000001,-0.1
1698419350088.0,16,0.0,0.0,0.0,0.0,9.4,1.7000000000000002,0.0,-0.6000000000000001,-0.2
1698419350104.0,16,0.0,0.0,0.0,0.0,9.4,1.7000000000000002,0.0,-0.6000000000000001,-0.2
1698419350121.0,16,0.0,0.0,0.0,0.0,9.4,1.7000000000000002,0.2,-0.5,-0.30000000000000004
1698419350138.0,16,0.0,0.0,0.0,0.0,9.4,1.7000000000000002,0.2,-0.5,-0.2
1698419350155.0,16,0.0,0.0,0.0,0.0,9.3,1.7000000000000002,0.30000000000000004,-0.8,-0.2
1698419350172.0,16,0.0,0.0,0.0,0.0,9.3,1.7000000000000002,0.30000000000000004,-0.9,-0.2
1698419350188.0,16,0.0,0.0,0.0,0.0,9.3,1.7000000000000002,0.30000000000000004,-1.0,-0.30000000000000004
1698419350204.0,16,0.0,0.0,0.0,0.0,9.4,1.7000000000000002,0.1,-0.5,-0.30000000000000004
1698419350221.0,16,0.0,0.0,0.0,0.0,9.3,1.7000000000000002,0.30000000000000004,-0.2,-0.1
1698419350238.0,16,0.0,0.0,0.0,0.0,9.3,1.7000000000000002,0.30000000000000004,-0.30000000000000004,0.0
1698419350255.0,16,0.0,0.0,0.0,0.0,9.3,1.7000000000000002,0.30000000000000004,-0.5,0.0
1698419350271.0,16,0.0,0.0,0.0,0.0,9.4,1.7000000000000002,0.1,-0.2,0.1
1698419350287.0,16,0.0,0.0,0.0,0.0,9.4,1.7000000000000002,0.0,-0.1,0.2
1698419350304.0,16,0.0,0.0,0.0,0.0,9.4,1.7000000000000002,0.2,-0.30000000000000004,0.1
1698419350321.0,16,0.0,0.0,0.0,0.0,9.4,1.7000000000000002,0.0,-0.30000000000000004,-0.1
1698419350338.0,16,0.0,0.0,0.0,0.0,9.4,1.7000000000000002,0.0,-0.5,-0.2
1698419350355.0,16,0.0,0.0,0.0,0.0,9.4,1.7000000000000002,0.0,-0.30000000000000004,0.0
1698419350372.0,16,0.0,0.0,-0.1,0.0,9.4,1.6,-0.1,-0.4,0.0
1698419350387.0,16,0.0,0.0,0.0,0.0,9.4,1.7000000000000002,-0.30000000000000004,-0.30000000000000004,0.0
1698419350404.0,16,0.0,0.0,0.0,0.0,9.4,1.7000000000000002,-0.30000000000000004,-0.2,-0.1
1698419350421.0,16,0.0,0.0,0.0,0.0,9.3,1.7000000000000002,-0.2,0.0,-0.2
1698419350438.0,16,0.0,0.0,0.0,0.0,9.4,1.7000000000000002,-0.1,-0.1,-0.4
1698419350455.0,16,0.0,0.0,0.0,0.0,9.3,1.7000000000000002,0.2,0.0,-0.4
1698419350471.0,16,0.0,0.0,0.0,0.0,9.3,1.7000000000000002,0.1,-0.30000000000000004,-0.4
1698419350487.0,16,0.0,0.0,0.0,0.0,9.4,1.7000000000000002,0.0,-0.30000000000000004,-0.30000000000000004
1698419350504.0,16,0.0,0.0,0.0,0.0,9.4,1.7000000000000002,-0.1,-0.1,-0.4
1698419350521.0,16,0.0,0.0,0.0,0.0,9.4,1.7000000000000002,-0.1,0.30000000000000004,-0.2
1698419350538.0,16,0.0,0.0,0.0,0.0,9.4,1.7000000000000002,-0.2,0.5,-0.2
1698419350556.0,16,0.0,0.0,0.0,0.0,9.4,1.7000000000000002,-0.1,0.30000000000000004,-0.1
1698419350571.0,16,0.0,0.0,0.0,0.0,9.4,1.7000000000000002,-0.2,0.30000000000000004,-0.2
1698419350588.0,16,0.0,0.0,0.0,0.0,9.4,1.7000000000000002,-0.30000000000000004,0.5,-0.1
1698419350605.0,16,0.0,0.0,0.0,0.0,9.4,1.7000000000000002,-0.4,0.30000000000000004,-0.1
1698419350621.0,16,0.0,0.0,0.0,0.0,9.4,1.7000000000000002,-0.4,0.2,-0.2
1698419350637.0,16,0.0,0.0,0.0,0.0,9.3,1.7000000000000002,-0.30000000000000004,0.0,-0.4
1698419350654.0,16,0.0,0.0,0.0,0.0,9.4,1.7000000000000002,-0.4,-0.1,-0.4
1698419350671.0,16,0.0,0.0,0.0,0.0,9.3,1.7000000000000002,-0.30000000000000004,0.0,-0.4
1698419350688.0,16,0.0,0.0,0.0,0.0,9.4,1.7000000000000002,-0.2,0.0,-0.4
1698419350705.0,16,0.0,0.0,0.0,0.0,9.4,1.7000000000000002,-0.1,0.0,-0.2
1698419350721.0,16,0.0,0.0,0.0,0.0,9.4,1.7000000000000002,-0.2,0.0,-0.4
1698419350737.0,16,0.0,0.0,0.0,0.0,9.4,1.7000000000000002,-0.1,0.2,-0.4
1698419350756.0,16,0.0,0.0,0.0,0.0,9.3,1.7000000000000002,0.0,0.1,-0.4
1698419350771.0,16,0.0,0.0,0.0,-0.1,9.3,1.7000000000000002,-0.1,0.2,-0.4
1698419350788.0,16,0.0,0.0,0.0,0.0,9.4,1.7000000000000002,-0.1,-0.1,-0.30000000000000004
1698419350804.0,16,0.0,0.0,0.0,0.0,9.3,1.7000000000000002,0.2,0.0,-0.30000000000000004
1698419350821.0,16,0.0,0.0,0.0,0.0,9.3,1.7000000000000002,0.2,0.0,-0.30000000000000004
1698419350837.0,16,0.0,0.0,0.0,0.0,9.4,1.8,0.0,0.0,-0.2
1698419350855.0,16,0.0,0.0,0.0,0.0,9.4,1.7000000000000002,0.1,0.2,-0.2
1698419350872.0,16,0.0,0.0,0.0,0.0,9.3,1.7000000000000002,0.0,0.0,-0.2
1698419350888.0,16,0.0,0.0,0.0,0.0,9.3,1.7000000000000002,0.0,0.0,-0.2
1698419350904.0,16,0.0,0.0,0.0,0.0,9.3,1.7000000000000002,0.1,0.0,-0.2
1698419350921.0,16,0.0,0.0,0.0,0.0,9.4,1.8,0.30000000000000004,-0.1,-0.30000000000000004
1698419350938.0,16,0.0,0.0,0.0,0.0,9.4,1.7000000000000002,0.4,-0.1,-0.2
1698419350954.0,16,0.0,0.0,0.0,0.0,9.4,1.7000000000000002,0.2,-0.1,-0.1
1698419350971.0,16,0.0,0.0,0.0,0.0,9.4,1.7000000000000002,0.0,0.1,-0.30000000000000004
1698419350989.0,16,0.0,0.0,0.0,0.0,9.4,1.7000000000000002,-0.2,-0.1,-0.4
1698419351005.0,16,0.0,0.0,0.0,-0.1,9.4,1.7000000000000002,-0.1,0.0,-0.2
1698419351021.0,16,0.0,0.0,0.0,-0.1,9.4,1.7000000000000002,0.30000000000000004,-0.4,-0.2
1698419351037.0,16,0.0,0.0,0.0,0.0,9.4,1.7000000000000002,0.0,-0.4,-0.1
1698419351054.0,16,0.0,0.0,0.0,0.0,9.3,1.8,-0.1,-0.30000000000000004,-0.1
1698419351071.0,16,0.0,0.0,0.0,0.0,9.4,1.7000000000000002,-0.1,-0.30000000000000004,-0.1
1698419351088.0,16,0.0,0.0,0.0,0.0,9.3,1.7000000000000002,0.0,-0.30000000000000004,-0.30000000000000004
1698419351104.0,16,0.0,0.0,0.0,0.0,9.3,1.7000000000000002,0.1,-0.2,-0.1
1698419351121.0,16,0.0,0.0,0.0,0.0,9.4,1.7000000000000002,0.2,-0.2,0.1
1698419351137.0,16,0.0,0.0,0.0,-0.1,9.4,1.7000000000000002,0.4,-0.30000000000000004,-0.1
1698419351154.0,16,0.0,0.0,0.0,-0.1,9.4,1.7000000000000002,0.2,-0.30000000000000004,-0.1
1698419351171.0,16,0.0,0.0,0.0,0.0,9.3,1.7000000000000002,0.1,0.0,-0.1
1698419351188.0,16,0.0,0.0,0.0,0.0,9.3,1.7000000000000002,0.0,-0.1,-0.1
1698419351205.0,16,0.0,0.0,0.0,0.0,9.4,1.7000000000000002,0.0,-0.1,-0.30000000000000004
1698419351221.0,16,0.0,0.1,0.0,0.0,9.4,1.7000000000000002,0.30000000000000004,0.0,-0.1
1698419351238.0,16,0.0,0.0,0.0,0.0,9.4,1.7000000000000002,0.2,-0.1,0.1
1698419351254.0,16,0.0,0.0,0.0,0.0,9.4,1.7000000000000002,0.1,0.0,0.0
1698419351272.0,16,0.0,0.0,0.0,0.0,9.4,1.7000000000000002,0.1,-0.1,0.0
1698419351288.0,16,0.0,0.0,0.0,-0.1,9.4,1.7000000000000002,0.1,-0.1,0.0
1698419351304.0,16,0.0,0.0,0.0,0.0,9.4,1.7000000000000002,0.2,0.0,0.1
1698419351321.0,16,0.0,0.0,0.0,0.0,9.4,1.7000000000000002,0.1,-0.1,0.0
1698419351338.0,16,0.0,0.0,0.0,0.0,9.3,1.7000000000000002,0.2,-0.2,0.0
1698419351355.0,16,0.0,0.0,0.0,-0.1,9.3,1.7000000000000002,0.2,0.0,-0.1
1698419351372.0,16,0.0,0.0,0.0,-0.1,9.4,1.7000000000000002,0.2,0.0,-0.1
1698419351388.0,16,0.0,0.0,0.0,0.0,9.3,1.7000000000000002,0.5,0.0,-0.1
1698419351404.0,16,0.0,0.0,0.0,0.0,9.3,1.7000000000000002,0.5,0.0,0.0
1698419351421.0,16,0.0,0.0,0.0,0.0,9.3,1.7000000000000002,0.6000000000000001,0.2,0.1
1698419351439.0,16,0.0,0.0,0.0,0.0,9.4,1.7000000000000002,0.5,0.1,0.0
1698419351454.0,16,0.0,0.0,0.0,0.0,9.4,1.7000000000000002,0.5,0.2,0.1
1698419351471.0,16,0.0,0.0,0.0,0.0,9.3,1.7000000000000002,0.5,0.30000000000000004,0.2
1698419351487.0,16,0.0,0.0,0.0,0.0,9.4,1.7000000000000002,0.2,0.5,0.0
1698419351505.0,16,0.0,0.0,0.0,0.0,9.4,1.7000000000000002,0.30000000000000004,0.2,0.30000000000000004
1698419351522.0,16,0.0,0.0,0.0,-0.1,9.4,1.7000000000000002,0.4,0.1,0.30000000000000004
1698419351537.0,16,0.0,0.0,0.0,0.0,9.4,1.7000000000000002,0.5,0.0,0.2
1698419351554.0,16,0.0,0.0,0.0,0.0,9.4,1.7000000000000002,0.30000000000000004,0.0,0.1
1698419351573.0,16,0.0,0.0,0.0,0.0,9.4,1.7000000000000002,0.30000000000000004,0.0,0.0
1698419351588.0,16,0.0,0.0,0.0,0.0,9.4,1.7000000000000002,0.30000000000000004,0.0,0.0
1698419351605.0,16,0.0,0.0,0.0,0.0,9.4,1.7000000000000002,0.30000000000000004,0.1,-0.1
1698419351621.0,16,0.0,0.0,0.0,0.0,9.4,1.7000000000000002,0.30000000000000004,0.0,-0.1
1698419351638.0,16,0.0,0.0,0.0,0.0,9.3,1.7000000000000002,0.30000000000000004,0.1,-0.1
1698419351655.0,16,0.0,0.0,0.0,0.0,9.4,1.7000000000000002,0.4,0.2,0.1
1698419351671.0,16,0.0,0.0,0.0,0.0,9.3,1.6,0.2,0.1,0.1
1698419351688.0,16,0.0,0.0,-0.1,0.0,9.3,1.6,0.30000000000000004,0.30000000000000004,0.30000000000000004
1698419351705.0,16,0.0,0.0,-0.1,0.0,9.3,1.6,0.30000000000000004,0.30000000000000004,0.30000000000000004
1698419351721.0,16,0.0,-0.1,0.0,0.0,9.3,1.6,0.8,0.6000000000000001,0.4
1698419351737.0,16,0.0,-0.1,0.0,0.0,9.200000000000001,1.6,1.3,0.7,0.6000000000000001
1698419351754.0,16,0.0,-0.1,0.0,0.0,9.200000000000001,1.6,2.1,0.7,0.9
1698419351771.0,16,0.0,-0.1,0.0,0.0,9.200000000000001,1.6,2.5,0.6000000000000001,1.0
1698419351788.0,16,0.0,-0.1,0.1,-0.1,9.200000000000001,1.7000000000000002,3.8,0.2,1.0
1698419351804.0,16,0.0,-0.1,0.1,-0.1,9.200000000000001,1.7000000000000002,5.4,-0.1,0.7
1698419351821.0,16,0.0,-0.1,0.1,-0.1,9.200000000000001,1.7000000000000002,6.1000000000000005,-0.30000000000000004,0.6000000000000001
1698419351837.0,16,0.0,-0.1,0.2,-0.1,9.200000000000001,1.8,7.0,-0.7,0.30000000000000004
1698419351854.0,16,0.0,0.0,0.1,0.0,9.3,1.7000000000000002,7.699999999999999,-1.3,0.1
1698419351871.0,16,0.0,0.0,0.1,0.0,9.4,1.7000000000000002,8.0,-1.4,0.1
1698419351888.0,16,0.0,0.2,0.1,0.0,9.5,1.6,8.0,-1.9,0.2
1698419351904.0,16,0.0,0.30000000000000004,0.0,0.0,9.700000000000001,1.5,6.9,-1.6,0.1
1698419351921.0,16,0.0,0.30000000000000004,0.0,0.0,9.700000000000001,1.5,6.000000000000001,-1.6,0.1
1698419351938.0,16,0.0,0.4,-0.1,0.0,9.700000000000001,1.5,3.8,-1.0,-0.1
1698419351954.0,16,0.0,0.30000000000000004,0.0,0.0,9.700000000000001,1.5,1.5000000000000002,-0.6000000000000001,-0.1
1698419351971.0,16,0.0,0.2,0.0,0.0,9.600000000000001,1.5,-0.7,-0.1,-0.1
1698419351988.0,16,0.0,0.1,0.0,0.0,9.5,1.5,-1.4,0.30000000000000004,-0.1
1698419352005.0,16,0.0,0.0,0.0,-0.1,9.4,1.5,-2.1,0.5,-0.1
1698419352021.0,16,0.0,0.0,0.0,-0.1,9.3,1.5,-2.3000000000000003,0.1,0.30000000000000004
1698419352038.0,16,0.0,0.0,0.0,0.0,9.4,1.5,-2.1,0.0,0.30000000000000004
1698419352055.0,16,0.0,0.0,0.0,0.0,9.4,1.5,-1.3,-0.5,0.4
1698419352072.0,16,0.0,0.0,0.0,0.0,9.4,1.5,-0.8,-0.6000000000000001,0.1
1698419352087.0,16,0.0,0.0,0.0,0.0,9.3,1.6,-0.6000000000000001,-0.6000000000000001,0.0
1698419352104.0,16,0.0,-0.1,0.0,0.0,9.3,1.6,-0.1,-0.8,0.1
1698419352121.0,16,0.0,0.0,0.0,0.0,9.3,1.5,0.5,-0.6000000000000001,0.2
1698419352138.0,16,0.1,-0.1,-0.1,0.0,9.3,1.5,0.8,-0.5,0.30000000000000004
1698419352154.0,16,0.0,0.0,-0.1,0.0,9.4,1.5,1.6,-0.5,0.6000000000000001
1698419352171.0,16,0.0,0.1,-0.1,0.0,9.4,1.4000000000000001,1.5000000000000002,-0.4,0.7
1698419352188.0,16,0.0,0.1,-0.1,0.0,9.5,1.4000000000000001,1.0999999999999999,-0.2,1.0
1698419352204.0,16,0.0,0.1,-0.1,0.0,9.5,1.4000000000000001,0.7,0.30000000000000004,1.4
1698419352221.0,16,0.0,0.0,-0.1,0.0,9.4,1.4000000000000001,0.5,0.4,1.5000000000000002
1698419352238.0,16,0.0,0.0,0.0,0.0,9.4,1.5,0.2,0.2,1.3
1698419352255.0,16,0.0,0.0,-0.1,0.0,9.4,1.4000000000000001,-0.2,-0.1,0.9
1698419352271.0,16,0.0,0.0,-0.1,0.0,9.4,1.5,-0.2,-0.2,0.7
1698419352288.0,16,0.0,0.0,-0.1,0.0,9.4,1.4000000000000001,-0.1,-0.1,0.30000000000000004
1698419352304.0,16,0.0,0.0,0.0,0.0,9.4,1.5,-0.30000000000000004,-0.1,-0.1
1698419352321.0,16,0.0,0.0,0.0,0.0,9.4,1.5,-0.30000000000000004,-0.2,0.0
1698419352337.0,16,0.0,0.0,0.0,0.0,9.4,1.5,-0.4,-0.30000000000000004,0.0
1698419352354.0,16,0.0,0.0,0.0,0.0,9.3,1.5,-0.2,-0.5,0.1
1698419352371.0,16,0.0,0.0,0.0,0.0,9.4,1.5,0.2,-0.6000000000000001,0.2
1698419352388.0,16,0.0,0.0,0.0,0.0,9.3,1.5,0.30000000000000004,-0.6000000000000001,0.1
1698419352404.0,16,0.0,0.0,0.0,0.0,9.4,1.5,0.30000000000000004,-0.9,0.1
1698419352421.0,16,0.0,0.0,0.0,0.0,9.4,1.5,0.30000000000000004,-0.6000000000000001,0.0
1698419352437.0,16,0.0,0.0,0.0,0.1,9.4,1.5,0.30000000000000004,-0.5,0.1
1698419352454.0,16,0.0,0.0,0.0,0.1,9.4,1.5,0.5,0.0,-0.1
1698419352471.0,16,0.0,0.0,0.0,0.0,9.4,1.5,0.30000000000000004,0.4,0.30000000000000004
1698419352488.0,16,0.0,0.0,0.0,0.0,9.4,1.5,0.2,0.6000000000000001,0.4
1698419352504.0,16,0.0,0.0,0.0,0.0,9.4,1.5,0.30000000000000004,0.5,0.1
1698419352521.0,16,0.0,0.0,0.0,0.0,9.4,1.4000000000000001,0.2,0.6000000000000001,-0.1
1698419352537.0,16,0.0,0.0,0.0,0.0,9.4,1.5,0.0,0.5,-0.2
1698419352555.0,16,0.0,0.0,0.0,0.0,9.4,1.5,-0.1,0.4,-0.2
1698419352571.0,16,0.0,0.0,0.0,0.0,9.4,1.5,-0.1,0.4,-0.1
1698419352588.0,16,0.0,0.0,0.0,0.0,9.4,1.5,-0.1,0.30000000000000004,-0.1
1698419352604.0,16,0.0,0.0,0.0,0.0,9.4,1.5,0.0,0.5,-0.2
1698419352621.0,16,0.0,0.0,0.0,0.0,9.4,1.5,0.0,0.6000000000000001,-0.2
1698419352638.0,16,0.0,0.0,0.0,0.0,9.4,1.5,0.1,0.6000000000000001,-0.2
1698419352654.0,16,0.0,0.0,0.0,0.0,9.4,1.5,0.1,0.30000000000000004,-0.2
1698419352670.0,16,0.0,0.0,0.0,0.0,9.4,1.5,0.0,-0.1,-0.2
1698419352687.0,16,0.0,0.0,0.0,0.0,9.4,1.4000000000000001,0.1,-0.2,-0.2
1698419352704.0,16,0.0,0.0,0.0,0.0,9.4,1.5,-0.1,-0.1,-0.2
1698419352721.0,16,0.0,0.0,0.0,0.1,9.4,1.5,-0.30000000000000004,0.0,-0.2
1698419352737.0,16,0.0,0.0,0.0,0.1,9.4,1.5,-0.30000000000000004,0.2,-0.1
1698419352754.0,16,0.0,0.0,0.0,0.0,9.4,1.5,-0.4,0.2,0.0
1698419352771.0,16,0.0,0.0,0.0,0.0,9.4,1.5,-0.5,0.1,0.1
1698419352787.0,16,0.0,0.0,0.0,0.0,9.4,1.5,-0.5,-0.1,-0.1
1698419352804.0,16,0.0,0.0,0.0,0.0,9.4,1.5,-0.5,-0.1,-0.4
1698419352821.0,16,0.0,0.0,0.0,0.0,9.4,1.5,-0.5,0.5,-0.30000000000000004
1698419352838.0,16,0.0,0.0,0.0,0.0,9.4,1.5,-0.7,0.6000000000000001,-0.1
1698419352854.0,16,0.0,0.0,0.0,0.1,9.4,1.5,-1.2000000000000002,0.1,0.0
1698419352871.0,16,0.0,0.0,0.0,0.0,9.4,1.5,-1.2000000000000002,0.2,0.1
1698419352887.0,16,0.0,0.0,0.0,0.0,9.4,1.5,-1.0999999999999999,-0.1,0.30000000000000004
1698419352905.0,16,-0.1,0.0,0.0,0.0,9.4,1.5,-1.6,-0.9,-0.1
1698419352921.0,16,-0.1,0.0,0.0,-0.1,9.4,1.5,-1.9,-1.5000000000000002,-0.4
1698419352937.0,16,-0.1,0.1,-0.1,0.0,9.5,1.4000000000000001,-2.6,-1.4,-0.8
1698419352954.0,16,0.0,0.1,-0.1,0.0,9.5,1.4000000000000001,-2.9,-1.2000000000000002,-1.0999999999999999
1698419352970.0,16,0.0,0.0,-0.1,0.0,9.4,1.4000000000000001,-3.0000000000000004,-0.30000000000000004,-1.3
1698419352987.0,16,-0.1,0.1,-0.1,-0.1,9.5,1.4000000000000001,-3.7000000000000006,0.2,-1.5000000000000002
1698419353004.0,16,-0.1,0.1,-0.1,-0.1,9.5,1.4000000000000001,-4.1000000000000005,0.5,-1.6
1698419353022.0,16,-0.1,0.1,-0.1,-0.1,9.5,1.5,-4.9,0.30000000000000004,-1.6
1698419353037.0,16,-0.2,0.1,0.0,-0.2,9.5,1.6,-6.1000000000000005,0.0,-1.3
1698419353054.0,16,-0.2,0.1,0.0,-0.30000000000000004,9.5,1.6,-6.6000000000000005,-0.30000000000000004,-1.0
1698419353070.0,16,-0.2,0.1,0.1,-0.30000000000000004,9.5,1.7000000000000002,-7.300000000000001,-2.5,-1.5000000000000002
1698419353089.0,16,-0.2,0.1,0.1,-0.30000000000000004,9.5,1.7000000000000002,-8.1,-4.1000000000000005,-2.0
1698419353104.0,16,-0.2,0.1,0.1,-0.30000000000000004,9.5,1.7000000000000002,-8.600000000000001,-4.9,-2.5
1698419353121.0,16,-0.2,0.1,0.1,-0.30000000000000004,9.5,1.7000000000000002,-9.9,-6.1000000000000005,-3.4
1698419353137.0,16,-0.1,0.0,0.1,-0.2,9.4,1.8,-9.700000000000001,-5.300000000000001,-3.8
1698419353154.0,16,-0.1,0.0,0.1,-0.2,9.4,1.8,-9.200000000000001,-5.0,-3.8
1698419353171.0,16,-0.1,0.1,0.0,-0.2,9.5,1.8,-8.200000000000001,-4.7,-3.0000000000000004
1698419353187.0,16,-0.1,0.2,-0.1,-0.30000000000000004,9.600000000000001,1.7000000000000002,-7.6,-3.4,-1.6
1698419353204.0,16,-0.2,0.2,-0.30000000000000004,-0.30000000000000004,9.600000000000001,1.5,-7.8,-3.6,-0.7
1698419353220.0,16,-0.30000000000000004,0.4,-0.5,-0.5,9.8,1.3,-11.6,-5.300000000000001,-0.6000000000000001
1698419353237.0,16,-0.30000000000000004,0.5,-0.8,-0.5,9.9,1.1,-18.7,-5.8,-4.0
1698419353254.0,16,-0.30000000000000004,0.6000000000000001,-0.9,-0.5,10.0,1.0,-23.0,-4.800000000000001,-5.7
1698419353271.0,16,-0.2,0.5,-1.0,-0.4,9.9,1.0,-29.000000000000004,-2.9,-7.0
1698419353287.0,16,-0.2,0.1,-1.1,-0.4,9.5,1.0,-29.800000000000004,0.5,-5.300000000000001
1698419353304.0,16,-0.1,0.0,-1.0,-0.30000000000000004,9.3,1.1,-28.0,2.5,-3.2
1698419353320.0,16,0.1,-0.2,-0.8,-0.1,9.1,1.4000000000000001,-22.1,5.500000000000001,1.6
1698419353337.0,16,0.2,-0.5,-0.6000000000000001,0.0,8.9,1.6,-16.8,9.3,5.9
1698419353354.0,16,0.30000000000000004,-0.7000000000000001,-0.5,0.1,8.700000000000001,1.7000000000000002,-16.1,10.5,7.8
1698419353370.0,16,0.30000000000000004,-0.9,-0.4,0.1,8.4,1.9000000000000001,-16.900000000000002,12.000000000000002,11.1
1698419353387.0,16,0.30000000000000004,-1.0,-0.5,0.1,8.3,1.9000000000000001,-13.6,11.2,13.700000000000001
1698419353404.0,16,0.1,-1.0,-0.30000000000000004,-0.2,8.3,2.2,-9.700000000000001,10.0,14.500000000000002
1698419353420.0,16,-0.2,-0.8,0.0,-0.2,8.4,2.4000000000000004,2.0,7.2,15.299999999999999
1698419353438.0,16,-0.2,-0.8,0.30000000000000004,-0.2,8.5,2.6,11.4,2.7,15.000000000000002
1698419353454.0,16,-0.1,-0.8,0.30000000000000004,-0.1,8.4,2.7,13.5,-0.30000000000000004,14.600000000000001
1698419353471.0,16,0.1,-1.1,0.30000000000000004,0.1,8.200000000000001,2.5,14.4,-6.6000000000000005,12.000000000000002
1698419353487.0,16,0.2,-1.3,0.0,0.30000000000000004,7.9,2.3000000000000003,12.100000000000001,-11.6,5.300000000000001
1698419353504.0,16,0.1,-1.2000000000000002,-0.2,0.30000000000000004,7.800000000000001,2.1,10.600000000000001,-13.8,0.1
1698419353521.0,16,-0.2,-0.5,-0.4,-0.1,8.700000000000001,1.8,9.3,-17.400000000000002,-10.5
1698419353537.0,16,-0.30000000000000004,1.6,-0.6000000000000001,-0.2,10.9,1.5,8.799999999999999,-15.299999999999999,-13.9
1698419353554.0,16,0.0,2.6,-0.8,0.30000000000000004,12.200000000000001,1.1,7.699999999999999,-12.200000000000001,-11.3
1698419353572.0,16,0.6000000000000001,2.4000000000000004,-1.1,0.7000000000000001,11.700000000000001,1.0,3.3000000000000003,-4.3999999999999995,-0.5
1698419353588.0,16,1.1,1.3,-1.1,1.1,10.700000000000001,1.0,-2.1999999999999997,0.8,9.5
1698419353604.0,16,1.1,1.4000000000000001,-0.9,1.2000000000000002,10.700000000000001,1.2000000000000002,-5.0,1.4,12.200000000000001
1698419353621.0,16,0.9,1.4000000000000001,-0.8,1.1,10.700000000000001,1.4000000000000001,-7.0,2.4000000000000004,14.200000000000001
1698419353638.0,16,0.2,1.0,-0.8,0.4,10.3,1.4000000000000001,-7.400000000000001,2.1,13.100000000000001
1698419353655.0,16,-0.1,0.6000000000000001,-0.8,0.0,9.600000000000001,1.3,-9.1,1.3,11.9
1698419353674.0,16,-0.30000000000000004,-0.1,-0.8,-0.1,9.200000000000001,1.4000000000000001,-16.900000000000002,-2.8,12.3
1698419353688.0,16,-0.2,-0.6000000000000001,-0.8,0.1,8.700000000000001,1.5,-25.8,-8.0,14.4
1698419353704.0,16,0.30000000000000004,-0.8,-0.9,0.6000000000000001,8.4,1.4000000000000001,-28.700000000000003,-8.5,14.800000000000002
1698419353721.0,16,0.6000000000000001,-0.9,-1.2000000000000002,0.9,8.4,1.2000000000000002,-31.8,-7.2,13.9
1698419353737.0,16,0.7000000000000001,-0.8,-1.5,1.1,8.4,1.0,-34.6,-4.5,10.2
1698419353754.0,16,0.6000000000000001,-0.7000000000000001,-1.7000000000000002,1.0,8.5,0.8,-35.5,-2.6,8.5
1698419353771.0,16,0.5,-0.6000000000000001,-1.9000000000000001,0.9,8.6,0.7000000000000001,-35.7,0.2,6.4
1698419353787.0,16,0.2,-0.5,-2.1,0.7000000000000001,8.700000000000001,0.6000000000000001,-34.1,-0.2,5.6
1698419353805.0,16,0.0,-0.6000000000000001,-2.2,0.5,8.5,0.6000000000000001,-29.700000000000003,-1.0,4.800000000000001
1698419353821.0,16,-0.1,-0.6000000000000001,-2.3000000000000003,0.4,8.5,0.6000000000000001,-27.2,-0.2,3.7000000000000006
1698419353838.0,16,-0.1,-0.6000000000000001,-2.4000000000000004,0.4,8.5,0.5,-21.8,3.3000000000000003,0.4
1698419353855.0,16,-0.1,-0.5,-2.5,0.4,8.5,0.4,-19.1,4.7,-2.1
1698419353871.0,16,0.1,-0.4,-2.5,0.5,8.6,0.4,-14.4,4.800000000000001,-5.7
1698419353887.0,16,0.2,-0.1,-2.3000000000000003,0.6000000000000001,8.9,0.6000000000000001,-8.4,2.1999999999999997,-6.9
1698419353905.0,16,0.2,0.1,-2.3000000000000003,0.6000000000000001,9.200000000000001,0.6000000000000001,-2.5,-1.5000000000000002,-7.699999999999999
1698419353921.0,16,0.30000000000000004,0.2,-2.3000000000000003,0.7000000000000001,9.200000000000001,0.7000000000000001,-0.9,-2.0,-7.699999999999999
1698419353937.0,16,0.5,0.30000000000000004,-2.3000000000000003,0.9,9.4,0.6000000000000001,-0.1,2.7,-8.5
1698419353954.0,16,1.1,0.6000000000000001,-2.3000000000000003,1.4000000000000001,9.600000000000001,0.7000000000000001,-4.0,6.6000000000000005,-7.6
1698419353971.0,16,1.4000000000000001,0.7000000000000001,-2.2,1.7000000000000002,9.700000000000001,0.7000000000000001,-6.3,6.6000000000000005,-6.9
1698419353987.0,16,2.0,1.0,-2.1,2.3000000000000003,10.0,0.9,-10.3,10.2,-3.6
1698419354004.0,16,2.3000000000000003,1.3,-2.1,2.7,10.3,0.9,-11.5,11.6,2.4000000000000004
1698419354021.0,16,2.2,1.7000000000000002,-2.2,2.6,10.700000000000001,0.8,-13.6,12.4,7.0
1698419354038.0,16,1.9000000000000001,2.5,-0.5,2.2,11.5,2.5,-10.9,10.5,9.8
1698419354054.0,16,-0.1,5.5,-1.4000000000000001,0.30000000000000004,14.5,1.5,27.3,-29.600000000000005,30.100000000000005
1698419354070.0,16,-1.0,5.4,-2.9000000000000004,-0.8,13.200000000000001,0.8,29.1,-43.0,42.900000000000006
1698419354088.0,16,-2.0,2.7,-0.7000000000000001,-1.3,11.8,2.1,8.9,-36.800000000000004,20.8
1698419354104.0,16,-0.5,1.5,-1.5,0.2,10.600000000000001,1.3,4.2,-39.9,-19.400000000000002
1698419354121.0,16,2.0,1.7000000000000002,1.1,2.7,10.9,3.8000000000000003,2.1999999999999997,-4.9,-26.9
1698419354138.0,16,2.9000000000000004,2.4000000000000004,1.5,3.5,11.600000000000001,4.3,16.5,3.8,-27.7
1698419354154.0,16,2.0,2.7,2.7,2.5,12.0,5.300000000000001,58.3,1.7,-15.9
1698419354171.0,16,0.8,2.4000000000000004,3.0,1.4000000000000001,11.700000000000001,5.5,79.00000000000001,0.9,-4.6000000000000005
1698419354188.0,16,-0.9,0.4,3.6,-0.4,9.8,5.800000000000001,93.5,8.700000000000001,12.8
1698419354205.0,16,-1.1,-0.5,5.4,-0.5,8.9,7.6000000000000005,-5.4,6.5,3.2
1698419354221.0,16,0.1,-0.9,2.5,0.6000000000000001,8.5,4.800000000000001,-46.7,23.400000000000002,3.8
1698419354238.0,16,0.4,-1.2000000000000002,0.6000000000000001,1.0,8.1,3.0,-39.400000000000006,21.400000000000002,10.9
1698419354255.0,16,-0.1,-1.1,0.4,0.5,8.200000000000001,2.9000000000000004,-24.6,15.100000000000001,9.8
1698419354271.0,16,-0.2,-1.3,0.2,0.4,8.0,2.7,-5.300000000000001,19.1,3.7000000000000006
1698419354288.0,16,-0.4,-1.5,-0.1,0.2,7.800000000000001,2.4000000000000004,2.6,20.2,-3.0000000000000004
1698419354304.0,16,-0.8,-2.4000000000000004,-0.2,-0.30000000000000004,6.9,2.3000000000000003,6.6000000000000005,28.900000000000002,-11.5
1698419354322.0,16,-0.9,-3.0,-0.30000000000000004,-0.4,6.300000000000001,2.3000000000000003,4.0,35.7,-10.700000000000001
1698419354339.0,16,-0.7000000000000001,-3.8000000000000003,-0.7000000000000001,-0.30000000000000004,5.4,1.9000000000000001,-8.700000000000001,43.1,-3.5
1698419354354.0,16,-0.30000000000000004,-4.0,-1.0,0.1,5.2,1.6,-21.0,42.900000000000006,8.1
1698419354371.0,16,-0.4,-3.3000000000000003,-1.2000000000000002,0.1,5.5,1.5,-23.2,42.1,14.600000000000001
1698419354388.0,16,-0.6000000000000001,-2.8000000000000003,-1.3,-0.2,6.300000000000001,1.4000000000000001,-21.900000000000002,36.5,25.3
1698419354404.0,16,-1.1,-1.9000000000000001,-1.6,-0.6000000000000001,7.1000000000000005,1.1,-17.8,28.500000000000004,28.0
1698419354421.0,16,-1.5,-1.6,-2.1,-1.0,7.4,0.7000000000000001,-15.5,21.700000000000003,22.000000000000004
1698419354437.0,16,-1.8,-1.7000000000000002,-2.2,-1.3,7.300000000000001,0.6000000000000001,-15.5,17.200000000000003,17.200000000000003
1698419354454.0,16,-2.1,-1.8,-2.5,-1.5,7.2,0.4,-15.2,8.600000000000001,9.3
1698419354471.0,16,-2.3000000000000003,-1.4000000000000001,-2.5,-1.8,7.5,0.30000000000000004,-13.4,0.30000000000000004,6.2
1698419354488.0,16,-2.5,-1.1,-2.4000000000000004,-1.9000000000000001,7.800000000000001,0.4,-11.000000000000002,-2.6,6.6000000000000005
1698419354504.0,16,-2.5,-0.6000000000000001,-2.3000000000000003,-1.9000000000000001,8.3,0.6000000000000001,-2.3000000000000003,-13.0,7.500000000000001
1698419354521.0,16,-2.1,0.1,-2.0,-1.5,9.0,0.8,8.5,-24.8,2.1
1698419354538.0,16,-1.8,0.7000000000000001,-1.9000000000000001,-1.2000000000000002,9.700000000000001,0.9,12.700000000000001,-27.400000000000002,-3.2
1698419354555.0,16,-0.6000000000000001,2.3000000000000003,-1.5,-0.1,11.3,1.2000000000000002,18.0,-29.700000000000003,-16.1
1698419354571.0,16,0.6000000000000001,3.8000000000000003,-1.1,1.1,12.8,1.6,20.4,-36.4,-26.200000000000003
1698419354588.0,16,0.6000000000000001,4.2,-1.2000000000000002,1.1,13.200000000000001,1.4000000000000001,18.400000000000002,-39.400000000000006,-30.599999999999998
1698419354605.0,16,0.0,4.4,-2.1,0.4,13.5,0.5,1.3,-32.5,-39.400000000000006
1698419354621.0,16,0.2,4.2,-3.9000000000000004,0.5,13.4,-1.3,-23.8,-33.2,-47.1
1698419354637.0,16,0.30000000000000004,4.2,-4.0,0.5,13.3,-1.4000000000000001,-38.2,-38.7,-47.400000000000006
1698419354654.0,16,0.2,6.2,4.0,0.30000000000000004,15.4,6.7,-37.7,-13.200000000000001,-40.0
1698419354672.0,16,2.7,9.3,-3.4000000000000004,2.6,18.6,-0.7000000000000001,48.9,77.80000000000001,-58.3
1698419354687.0,16,3.6,5.5,0.5,3.4000000000000004,14.8,3.1,47.2,87.00000000000001,-70.10000000000001
1698419354705.0,16,2.9000000000000004,-1.7000000000000002,3.3000000000000003,2.5,7.7,5.6000000000000005,128.60000000000002,56.6,-30.4
1698419354721.0,16,0.6000000000000001,-4.1000000000000005,6.4,0.2,5.300000000000001,8.4,95.0,-26.9,-1.0
1698419354737.0,16,-1.2000000000000002,-3.7,6.0,-1.6,5.800000000000001,7.9,29.400000000000002,-13.6,5.7
1698419354755.0,16,-2.2,0.1,3.1,-2.5,9.5,4.9,28.900000000000002,18.0,31.6
1698419354771.0,16,-4.0,6.800000000000001,3.6,-4.4,16.3,5.300000000000001,78.5,-24.9,4.800000000000001
1698419354787.0,16,-3.2,6.300000000000001,6.800000000000001,-3.5,15.9,8.4,56.2,-14.700000000000001,-14.900000000000002
1698419354804.0,16,-1.8,1.0,1.7000000000000002,-2.4000000000000004,10.600000000000001,3.3000000000000003,-4.5,37.300000000000004,-48.00000000000001
1698419354821.0,16,-1.8,-3.1,1.8,-2.4000000000000004,6.4,3.5,-23.2,-18.6,-41.4
1698419354838.0,16,0.6000000000000001,-3.5,0.4,-0.2,6.0,2.2,-13.9,-4.3999999999999995,-0.1
1698419354854.0,16,2.1,-3.1,0.2,1.5,6.300000000000001,2.0,-12.000000000000002,-2.3000000000000003,17.200000000000003
1698419354872.0,16,3.1,-3.3000000000000003,0.4,2.5,6.2,2.3000000000000003,-19.700000000000003,-3.1,26.700000000000003
1698419354888.0,16,2.6,-3.8000000000000003,0.4,2.1,5.7,2.3000000000000003,-24.000000000000004,-1.0,22.6
1698419354904.0,16,1.6,-4.6000000000000005,-0.30000000000000004,1.1,4.800000000000001,1.7000000000000002,-25.6,0.9,10.600000000000001
1698419354921.0,16,0.8,-4.6000000000000005,-0.7000000000000001,0.4,4.800000000000001,1.4000000000000001,-20.2,-2.0,4.6000000000000005
1698419354937.0,16,0.6000000000000001,-4.1000000000000005,-0.7000000000000001,0.2,5.2,1.4000000000000001,-15.299999999999999,-2.5,6.5
1698419354954.0,16,0.30000000000000004,-3.3000000000000003,-1.0,-0.1,5.9,1.1,-6.2,-5.6,13.700000000000001
1698419354971.0,16,0.2,-2.6,-1.2000000000000002,-0.1,6.6000000000000005,0.9,-3.7000000000000006,-6.9,15.8
1698419354988.0,16,0.1,-2.4000000000000004,-1.3,-0.1,6.9,0.8,-6.6000000000000005,-5.300000000000001,15.000000000000002
1698419355004.0,16,-0.1,-2.2,-1.5,-0.30000000000000004,7.0,0.6000000000000001,-10.700000000000001,2.1999999999999997,9.4
1698419355021.0,16,0.1,-2.5,-1.8,-0.1,6.7,0.4,-15.5,5.8,1.2000000000000002
1698419355037.0,16,0.5,-2.5,-1.6,0.8,6.800000000000001,0.9,-19.200000000000003,5.6,-4.9
1698419355054.0,16,1.8,-1.9000000000000001,-1.0,1.5,7.2,1.2000000000000002,-23.5,8.1,-19.0
1698419355072.0,16,3.4000000000000004,-0.6000000000000001,-1.2000000000000002,3.1,8.5,1.1,-23.400000000000002,27.900000000000002,-25.6
1698419355088.0,16,3.7,0.0,-1.5,2.9000000000000004,9.700000000000001,1.1,-23.0,46.6,-12.700000000000001
1698419355105.0,16,2.5,1.2000000000000002,-1.1,2.0,10.3,1.2000000000000002,-17.599999999999998,51.400000000000006,4.300000000000001
1698419355121.0,16,-0.30000000000000004,2.1,-2.0,-0.6000000000000001,11.200000000000001,0.30000000000000004,-6.1000000000000005,50.800000000000004,46.1
1698419355138.0,16,-1.8,2.7,-2.6,-2.1,11.8,-0.2,-3.0000000000000004,29.600000000000005,60.1
1698419355155.0,16,-3.2,4.4,-2.4000000000000004,-3.2,13.5,-0.1,-1.7,-14.4,65.5
1698419355171.0,16,-3.4000000000000004,5.4,-2.2,-3.4000000000000004,14.600000000000001,0.1,-1.3,-15.000000000000002,53.00000000000001
1698419355187.0,16,-1.5,6.2,-3.4000000000000004,-1.4000000000000001,15.4,-1.1,-3.5,5.7,-7.1000000000000005
1698419355207.0,16,1.2000000000000002,5.5,0.0,1.0,14.8,2.4000000000000004,-21.0,7.2,-65.4
1698419355221.0,16,0.30000000000000004,7.7,2.1,-0.1,17.1,4.4,44.00000000000001,-29.300000000000004,-37.800000000000004
1698419355238.0,16,1.5,-0.30000000000000004,3.8000000000000003,1.3,9.1,5.9,85.2,-45.9,28.900000000000002
1698419355254.0,16,-0.30000000000000004,-2.3000000000000003,4.4,-0.4,7.1000000000000005,6.300000000000001,108.4,-35.0,42.1
1698419355271.0,16,-0.6000000000000001,-2.1,4.5,-0.5,7.4,6.0,117.7,-44.00000000000001,44.6
1698419355287.0,16,0.4,-0.1,3.6,0.6000000000000001,9.4,5.1000000000000005,8.0,-24.5,4.5
1698419355304.0,16,1.0,1.2000000000000002,4.4,1.2000000000000002,10.700000000000001,5.9,8.200000000000001,-1.8,-6.1000000000000005
1698419355320.0,16,2.6,5.7,5.6000000000000005,2.7,15.3,7.2,-4.5,8.0,-12.000000000000002
1698419355337.0,16,1.6,3.9000000000000004,3.9000000000000004,1.8,13.5,5.6000000000000005,-11.4,-4.5,17.7
1698419355354.0,16,2.0,0.8,3.3000000000000003,2.2,10.4,5.0,-6.4,-4.9,44.3
1698419355371.0,16,1.4000000000000001,-0.7000000000000001,1.2000000000000002,1.8,8.8,3.0,-11.700000000000001,4.5,51.7
1698419355388.0,16,0.5,-1.2000000000000002,0.8,1.0,8.4,2.5,-20.1,8.200000000000001,37.1
1698419355404.0,16,-1.4000000000000001,-3.0,0.0,-0.9,6.5,1.9000000000000001,-34.6,18.1,10.700000000000001
1698419355421.0,16,-2.2,-4.4,-0.7000000000000001,-1.7000000000000002,5.0,1.3,-43.800000000000004,21.0,2.9
1698419355438.0,16,-2.1,-4.9,-1.1,-1.6,4.4,1.1,-41.9,25.1,5.0
1698419355456.0,16,-1.7000000000000002,-5.2,-1.6,-1.5,4.2,0.7000000000000001,-38.6,22.000000000000004,6.2
1698419355471.0,16,-1.6,-5.2,-1.6,-1.1,4.1000000000000005,0.7000000000000001,-31.8,8.9,6.5
1698419355488.0,16,-1.3,-5.1000000000000005,-1.8,-0.9,4.1000000000000005,0.6000000000000001,-28.0,4.7,6.2
1698419355504.0,16,-1.2000000000000002,-4.800000000000001,-1.8,-0.7000000000000001,4.4,0.6000000000000001,-21.400000000000002,1.0,4.2
1698419355521.0,16,-1.3,-4.0,-1.7000000000000002,-0.9,5.1000000000000005,0.8,-13.700000000000001,-0.30000000000000004,1.7
1698419355541.0,16,-1.8,-2.7,-1.5,-1.4000000000000001,6.300000000000001,0.9,-5.8,-4.2,4.0
1698419355554.0,16,-2.2,-2.0,-1.5,-1.7000000000000002,7.0,0.9,-2.5,-10.2,7.1000000000000005
1698419355571.0,16,-3.1,-0.6000000000000001,-1.6,-2.6,8.5,0.8,-0.4,-30.799999999999997,17.599999999999998
1698419355587.0,16,-3.7,0.1,-2.0,-3.1,9.1,0.4,-13.200000000000001,-48.1,24.400000000000002
1698419355604.0,16,-3.4000000000000004,0.30000000000000004,-2.2,-2.7,9.3,0.30000000000000004,-24.000000000000004,-55.4,18.7
1698419355621.0,16,-1.9000000000000001,0.9,-1.8,-1.2000000000000002,9.9,0.7000000000000001,-41.7,-69.10000000000001,-14.100000000000001
1698419355637.0,16,0.0,1.9000000000000001,-2.2,0.5,10.9,0.5,-45.9,-70.10000000000001,-48.300000000000004
1698419355655.0,16,0.8,2.5,-2.0,1.9000000000000001,12.100000000000001,0.8,-46.800000000000004,-31.6,-64.30000000000001
1698419355672.0,16,2.3000000000000003,3.9000000000000004,-2.0,2.6,12.9,0.8,-42.800000000000004,-3.6,-67.2
1698419355687.0,16,3.6,5.0,-3.8000000000000003,3.7,14.0,-0.9,-26.400000000000002,23.3,-68.7
1698419355705.0,16,3.4000000000000004,5.0,-4.1000000000000005,3.4000000000000004,14.0,-1.2000000000000002,-22.4,14.800000000000002,-59.1
1698419355721.0,16,2.5,8.4,6.7,2.5,17.5,9.600000000000001,23.700000000000003,25.8,-11.1
1698419355737.0,16,3.6,9.3,-1.1,3.5,18.5,1.4000000000000001,136.9,99.7,-20.6
1698419355754.0,16,0.5,-2.1,7.0,0.30000000000000004,7.300000000000001,9.1,164.60000000000002,81.4,-14.4
1698419355770.0,16,-0.5,-4.7,7.2,-0.8,4.7,9.200000000000001,137.9,3.9,-25.1
1698419355787.0,16,-2.9000000000000004,-3.5,1.9000000000000001,-3.3000000000000003,5.9,3.7,25.6,44.3,-14.600000000000001
1698419355804.0,16,-3.9000000000000004,-2.3000000000000003,3.1,-4.3,7.1000000000000005,4.800000000000001,37.300000000000004,16.5,0.7
1698419355821.0,16,-5.2,7.2,5.800000000000001,-5.6000000000000005,16.7,7.4,97.9,-33.900000000000006,7.500000000000001
1698419355837.0,16,0.8,11.600000000000001,7.1000000000000005,0.30000000000000004,21.200000000000003,8.5,-10.3,15.100000000000001,-24.3
1698419355854.0,16,2.5,9.5,2.9000000000000004,1.9000000000000001,19.1,4.5,-42.800000000000004,21.1,-65.7
1698419355871.0,16,-1.4000000000000001,-1.8,1.5,-2.3000000000000003,7.800000000000001,3.2,-50.9,-7.300000000000001,-97.3
1698419355888.0,16,1.3,-4.4,-0.6000000000000001,0.30000000000000004,5.0,1.3,-40.9,13.6,-15.5
1698419355905.0,16,4.0,-5.5,-0.9,3.1,3.9000000000000004,1.1,-38.400000000000006,-6.7,43.7
1698419355921.0,16,3.4000000000000004,-5.4,-0.9,2.6,4.0,1.2000000000000002,-36.4,-13.5,53.400000000000006
1698419355937.0,16,1.5,-4.7,-0.9,0.9,4.6000000000000005,1.2000000000000002,-31.0,-16.3,53.7
1698419355954.0,16,0.30000000000000004,-4.9,-0.8,-0.2,4.4,1.4000000000000001,-23.8,-12.4,37.1
1698419355971.0,16,0.1,-5.2,-0.9,-0.30000000000000004,4.0,1.4000000000000001,-18.400000000000002,-10.0,28.0
1698419355987.0,16,0.30000000000000004,-5.6000000000000005,-1.3,0.0,3.6,1.0,-8.9,-11.9,13.9
1698419356004.0,16,0.2,-5.800000000000001,-1.3,-0.1,3.4000000000000004,1.0,-6.1000000000000005,-11.6,9.9
1698419356021.0,16,0.5,-5.300000000000001,-1.6,0.2,3.8000000000000003,0.7000000000000001,-5.0,-1.4,8.4
1698419356038.0,16,0.8,-4.4,-1.8,0.6000000000000001,4.7,0.6000000000000001,-8.0,-1.4,6.1000000000000005
1698419356055.0,16,0.9,-2.7,-1.7000000000000002,0.7000000000000001,6.4,0.7000000000000001,-15.000000000000002,-3.0000000000000004,-1.6
1698419356071.0,16,1.0,-1.6,-1.3,0.7000000000000001,7.5,1.1,-18.400000000000002,-0.2,-6.7
1698419356087.0,16,1.5,0.0,-1.0,1.2000000000000002,9.0,1.4000000000000001,-20.4,16.900000000000002,-18.900000000000002
1698419356104.0,16,2.7,0.1,-1.2000000000000002,2.4000000000000004,9.1,1.3,-24.9,35.1,-27.5
1698419356122.0,16,3.5,0.1,-1.5,3.0,9.1,1.0,-28.200000000000003,46.2,-22.8
1698419356138.0,16,4.0,1.2000000000000002,-1.7000000000000002,3.6,10.100000000000001,0.9,-31.900000000000002,51.800000000000004,9.5
1698419356155.0,16,2.9000000000000004,2.0,-2.0,1.0,12.200000000000001,0.6000000000000001,-32.6,53.7,31.900000000000002
1698419356174.0,16,-2.5,4.7,-3.1,-2.6,13.700000000000001,-0.30000000000000004,-22.6,-1.7,68.0
1698419356187.0,16,-3.6,5.1000000000000005,-3.2,-3.6,14.100000000000001,-0.4,-20.6,-25.2,69.10000000000001
1698419356204.0,16,-3.6,5.7,-2.8000000000000003,-3.5,14.700000000000001,0.0,-23.2,-13.3,44.3
1698419356221.0,16,-3.2,7.1000000000000005,2.5,-3.0,16.1,5.300000000000001,-14.4,-3.1,10.9
1698419356237.0,16,-3.6,12.9,0.7000000000000001,-3.5,22.1,3.3000000000000003,94.0,-42.6,-15.7
1698419356254.0,16,2.2,0.2,5.0,2.3000000000000003,9.5,7.2,142.60000000000002,-83.60000000000001,-1.0999999999999999
1698419356271.0,16,2.0,-2.8000000000000003,5.2,2.2,6.6000000000000005,7.300000000000001,156.3,-71.30000000000001,5.9
1698419356287.0,16,2.9000000000000004,-2.6,3.9000000000000004,3.2,6.800000000000001,5.5,85.5,-35.199999999999996,16.3
1698419356305.0,16,3.3000000000000003,0.8,3.8000000000000003,3.7,10.3,5.4,11.8,-13.3,-3.2
1698419356321.0,16,3.7,3.8000000000000003,5.6000000000000005,4.0,13.3,7.300000000000001,23.3,1.2000000000000002,-1.5000000000000002
1698419356338.0,16,2.5,9.200000000000001,6.6000000000000005,3.0,18.8,8.200000000000001,5.7,10.2,28.500000000000004
1698419356355.0,16,0.7000000000000001,1.6,3.1,1.4000000000000001,11.200000000000001,4.800000000000001,-26.0,2.1,77.2
1698419356371.0,16,0.7000000000000001,-0.1,2.4000000000000004,1.4000000000000001,9.4,4.2,-24.7,-7.0,80.0
1698419356388.0,16,-0.1,-1.8,0.5,0.8,7.7,2.4000000000000004,-26.400000000000002,7.9,34.400000000000006
1698419356404.0,16,-1.9000000000000001,-4.2,-0.6000000000000001,-1.0,5.300000000000001,1.4000000000000001,-38.1,18.2,-7.2
1698419356421.0,16,-1.9000000000000001,-4.800000000000001,-0.8,-1.0,4.6000000000000005,1.2000000000000002,-44.2,24.9,-15.100000000000001
1698419356438.0,16,-1.4000000000000001,-5.6000000000000005,-1.2000000000000002,-0.6000000000000001,3.8000000000000003,1.0,-50.1,30.9,-15.2
1698419356455.0,16,-1.3,-5.800000000000001,-1.6,-0.6000000000000001,3.6,0.9,-49.2,28.400000000000002,-9.700000000000001
1698419356471.0,16,-1.4000000000000001,-5.800000000000001,-1.7000000000000002,-0.6000000000000001,3.4000000000000004,0.7000000000000001,-41.5,14.600000000000001,2.3000000000000003
1698419356488.0,16,-1.7000000000000002,-5.800000000000001,-2.0,-1.0,3.3000000000000003,0.5,-31.7,1.6,8.9
1698419356509.0,16,-2.2,-5.4,-1.9000000000000001,-1.5,3.7,0.7000000000000001,-22.1,0.5,9.9
1698419356521.0,16,-2.6,-4.4,-1.8,-1.9000000000000001,4.6000000000000005,0.8,-10.700000000000001,4.1000000000000005,7.8
1698419356539.0,16,-2.7,-3.7,-1.6,-1.9000000000000001,5.300000000000001,1.0,-4.5,5.0,7.300000000000001
1698419356554.0,16,-2.8000000000000003,-2.0,-0.8,-2.0,7.0,1.8,12.200000000000001,-7.0,11.5
1698419356571.0,16,-3.0,-0.9,-0.8,-2.3000000000000003,8.0,1.8,20.5,-23.3,16.2
1698419356587.0,16,-3.6,0.9,-2.2,-2.7,9.9,0.30000000000000004,9.3,-66.80000000000001,26.1
1698419356604.0,16,-3.3000000000000003,1.4000000000000001,-1.2000000000000002,-2.3000000000000003,10.4,1.4000000000000001,-40.3,-85.1,14.600000000000001
1698419356622.0,16,-1.5,1.4000000000000001,-2.8000000000000003,-1.3,10.3,1.0,-56.6,-79.9,-5.300000000000001
1698419356638.0,16,-0.4,1.7000000000000002,-2.3000000000000003,0.5,10.600000000000001,0.4,-80.9,-86.60000000000001,-58.1
1698419356654.0,16,2.5,3.4000000000000004,-1.9000000000000001,3.3000000000000003,12.200000000000001,1.1,-89.0,-25.8,-78.00000000000001
1698419356671.0,16,5.1000000000000005,5.1000000000000005,-3.8000000000000003,5.6000000000000005,13.9,-0.6000000000000001,-76.7,20.5,-82.0
1698419356687.0,16,5.1000000000000005,5.0,-4.3,5.5,13.8,-0.9,-68.4,17.200000000000003,-77.3
1698419356704.0,16,2.2,5.0,-0.30000000000000004,2.5,13.9,3.2,-44.1,-0.6000000000000001,-23.0
1698419356721.0,16,5.300000000000001,11.4,3.1,5.7,20.400000000000002,6.5,96.7,39.6,24.3
1698419356738.0,16,4.1000000000000005,8.3,0.9,4.4,17.400000000000002,4.0,152.8,70.7,-8.700000000000001
1698419356755.0,16,0.1,-3.2,7.2,0.2,6.1000000000000005,9.700000000000001,253.4,61.1,-27.2
1698419356771.0,16,-0.9,-5.300000000000001,3.4000000000000004,-0.7000000000000001,4.0,5.300000000000001,292.8,48.1,-29.200000000000003
1698419356788.0,16,-4.2,-2.5,10.8,-4.2,6.9,12.4,67.4,-27.0,-30.4
1698419356804.0,16,-3.7,3.2,4.1000000000000005,-3.8000000000000003,12.600000000000001,5.6000000000000005,51.900000000000006,46.6,5.8
1698419356821.0,16,-0.6000000000000001,11.0,7.7,-0.7000000000000001,20.5,9.200000000000001,20.7,-25.1,-14.500000000000002
1698419356838.0,16,2.6,11.600000000000001,5.800000000000001,2.4000000000000004,21.200000000000003,7.2,-25.5,24.7,-43.400000000000006
1698419356855.0,16,-0.8,1.0,1.5,-1.2000000000000002,10.600000000000001,3.1,-35.4,18.400000000000002,-96.2
1698419356872.0,16,0.1,-3.3000000000000003,-0.7000000000000001,-0.6000000000000001,6.300000000000001,1.0,-31.8,27.6,-37.0
1698419356888.0,16,1.4000000000000001,-4.7,-1.1,0.8,4.9,0.7000000000000001,-36.1,22.6,2.1999999999999997
1698419356904.0,16,2.7,-5.800000000000001,-1.1,2.2,3.6,0.8,-42.0,8.4,46.4
1698419356920.0,16,1.2000000000000002,-5.0,-1.0,0.8,4.4,1.1,-38.800000000000004,-9.200000000000001,52.0
1698419356937.0,16,0.5,-4.3,-1.0,0.30000000000000004,5.0,1.1,-35.4,-12.8,46.5
1698419356954.0,16,-0.2,-4.1000000000000005,-0.9,-0.30000000000000004,5.2,1.3,-27.7,-7.8,22.6
1698419356971.0,16,-0.1,-4.5,-1.0,-0.30000000000000004,4.800000000000001,1.2000000000000002,-23.2,-1.0,9.200000000000001
1698419356990.0,16,0.4,-5.5,-1.2000000000000002,0.6000000000000001,3.3000000000000003,1.0,-13.4,3.9,-7.1000000000000005
1698419357004.0,16,1.0,-6.1000000000000005,-1.3,0.8,3.1,1.0,-11.1,6.9,-5.500000000000001
1698419357020.0,16,1.1,-5.7,-1.7000000000000002,1.0,3.4000000000000004,0.6000000000000001,-9.9,14.3,3.4
1698419357042.0,16,1.2000000000000002,-4.2,-1.7000000000000002,1.1,4.800000000000001,0.6000000000000001,-13.0,9.3,5.6
1698419357055.0,16,1.2000000000000002,-3.3000000000000003,-1.2000000000000002,1.0,5.800000000000001,1.1,-14.3,5.300000000000001,2.3000000000000003
1698419357071.0,16,1.5,-1.2000000000000002,-0.6000000000000001,1.3,7.800000000000001,1.7000000000000002,-11.000000000000002,16.5,-9.3
1698419357087.0,16,1.9000000000000001,-0.1,-1.0,1.7000000000000002,8.9,1.3,-10.5,35.1,-16.5
1698419357105.0,16,2.6,2.0,-1.8,2.3000000000000003,11.0,0.6000000000000001,-20.4,72.8,-22.1
1698419357120.0,16,2.7,2.3000000000000003,-1.6,2.4000000000000004,11.3,0.9,-26.8,70.5,0.8
1698419357137.0,16,2.0,2.8000000000000003,-2.2,1.7000000000000002,11.8,0.30000000000000004,-22.900000000000002,46.7,55.2
1698419357154.0,16,0.5,3.6,-3.2,0.4,12.600000000000001,-0.6000000000000001,-21.400000000000002,15.000000000000002,73.0
1698419357171.0,16,-3.0,5.1000000000000005,-3.6,-2.9000000000000004,14.100000000000001,-1.0,-30.599999999999998,-30.7,86.0
1698419357187.0,16,-3.9000000000000004,5.5,-3.4000000000000004,-3.3000000000000003,15.0,-0.9,-37.1,-19.200000000000003,76.80000000000001
1698419357204.0,16,-3.0,7.0,0.30000000000000004,-2.7,16.0,3.1,-42.800000000000004,10.8,15.5
1698419357220.0,16,-4.1000000000000005,13.9,0.8,-3.9000000000000004,23.1,3.5,56.0,-38.300000000000004,-35.5
1698419357237.0,16,2.3000000000000003,1.5,3.4000000000000004,2.6,10.8,5.800000000000001,124.50000000000001,-88.9,-4.2
1698419357254.0,16,1.7000000000000002,-2.8000000000000003,4.3,2.0,6.6000000000000005,6.4,152.0,-74.8,6.3
1698419357271.0,16,1.8,-3.2,4.6000000000000005,2.3000000000000003,6.2,6.2,177.1,-69.5,30.000000000000004
1698419357289.0,16,1.7000000000000002,-1.8,6.2,2.9000000000000004,8.9,6.800000000000001,5.2,-30.4,6.000000000000001
1698419357305.0,16,3.1,1.3,6.1000000000000005,3.7,10.8,7.7,5.2,-17.7,-0.7
1698419357320.0,16,3.3000000000000003,7.4,5.6000000000000005,3.9000000000000004,16.900000000000002,7.300000000000001,-19.3,5.9,1.0
1698419357338.0,16,1.6,7.6000000000000005,3.2,2.7,13.9,4.2,-28.700000000000003,11.2,18.5
1698419357355.0,16,2.0,0.7000000000000001,2.3000000000000003,2.9000000000000004,10.200000000000001,4.0,-18.8,-5.500000000000001,75.7
1698419357371.0,16,0.4,-1.9000000000000001,0.2,1.5,7.6000000000000005,2.1,-14.3,7.500000000000001,64.8
1698419357388.0,16,-0.8,-3.1,-0.2,-0.5,5.1000000000000005,1.4000000000000001,-21.3,10.5,44.3
1698419357405.0,16,-2.5,-5.2,-0.6000000000000001,-1.3,4.2,1.4000000000000001,-38.300000000000004,13.4,10.8
1698419357421.0,16,-2.8000000000000003,-6.0,-1.1,-1.6,3.3000000000000003,1.0,-48.6,22.4,-2.7
1698419357437.0,16,-2.6,-6.1000000000000005,-1.5,-1.5,3.1,0.8,-50.7,22.6,-3.6
1698419357454.0,16,-2.5,-6.1000000000000005,-1.6,-1.5,3.1,0.8,-48.00000000000001,16.5,0.1
1698419357471.0,16,-2.5,-5.800000000000001,-1.6,-1.4000000000000001,3.3000000000000003,0.9,-36.4,-2.1999999999999997,7.0
1698419357487.0,16,-2.9000000000000004,-5.0,-1.5,-1.7000000000000002,4.0,1.1,-21.3,-18.400000000000002,9.4
1698419357504.0,16,-3.0,-4.4,-1.3,-2.0,5.300000000000001,1.5,-14.0,-21.6,10.5
1698419357520.0,16,-3.2,-2.8000000000000003,-0.7000000000000001,-2.1,6.1000000000000005,1.8,-0.30000000000000004,-15.5,14.200000000000001
1698419357537.0,16,-3.0,-0.6000000000000001,-0.8,-1.8,8.4,1.7000000000000002,15.000000000000002,-21.1,13.200000000000001
1698419357554.0,16,-2.7,0.5,-1.5,-1.5,9.5,1.0,19.1,-40.2,9.5
1698419357571.0,16,-2.2,1.4000000000000001,-3.0,-0.9,10.3,-0.6000000000000001,-4.2,-84.2,-0.1
1698419357587.0,16,-1.5,1.0,-2.9000000000000004,0.30000000000000004,9.5,-0.30000000000000004,-30.5,-92.30000000000001,-6.6000000000000005
1698419357605.0,16,-0.8,0.2,-2.7,0.4,9.1,-0.1,-78.2,-71.9,-29.800000000000004
1698419357621.0,16,0.4,1.5,-3.2,1.5,10.3,-0.4,-102.0,-63.10000000000001,-56.0
1698419357637.0,16,1.7000000000000002,3.6,-1.1,2.7,12.4,2.0,-104.5,-25.6,-72.0
1698419357654.0,16,3.0,4.6000000000000005,-0.9,5.5,14.600000000000001,0.9,-61.50000000000001,19.400000000000002,-65.2
1698419357673.0,16,5.800000000000001,6.2,-3.9000000000000004,6.5,15.0,-0.6000000000000001,-43.400000000000006,19.6,-62.199999999999996
1698419357688.0,16,3.2,6.0,2.4000000000000004,3.9000000000000004,14.8,5.800000000000001,-16.900000000000002,6.5,-25.3
1698419357705.0,16,6.1000000000000005,10.0,-0.30000000000000004,6.7,19.0,2.9000000000000004,108.9,74.4,13.4
1698419357721.0,16,2.7,5.0,1.3,3.3000000000000003,14.100000000000001,4.4,130.3,102.7,-5.8
1698419357737.0,16,-1.7000000000000002,-3.2,5.1000000000000005,-1.2000000000000002,6.0,7.6000000000000005,220.70000000000002,42.0,-1.9
1698419357754.0,16,-4.5,-4.5,6.1000000000000005,-2.5,5.2,4.5,236.6,18.6,-5.0
1698419357771.0,16,-6.2,-1.8,10.8,-5.7,7.5,12.5,88.8,-38.800000000000004,-12.9
1698419357788.0,16,-4.5,8.0,5.4,-4.2,17.5,7.0,74.30000000000001,52.0,-6.4
1698419357804.0,16,-2.3000000000000003,12.0,2.7,-2.0,21.5,4.2,57.800000000000004,0.2,-32.5
1698419357821.0,16,2.7,8.8,4.7,2.7,18.400000000000002,6.300000000000001,-32.2,40.6,-100.10000000000001
1698419357837.0,16,0.2,-1.5,0.8,-0.1,8.1,2.5,-51.1,24.7,-82.8
1698419357854.0,16,1.7000000000000002,-4.3,-0.7000000000000001,0.1,6.4,1.5,-51.5,26.6,-44.8
1698419357872.0,16,3.0,-5.2,-0.8,2.7,4.3,1.2000000000000002,-60.400000000000006,28.200000000000003,35.8
1698419357887.0,16,2.4000000000000004,-6.0,-0.9,2.3000000000000003,3.4000000000000004,1.3,-61.1,8.9,61.1
1698419357904.0,16,0.6000000000000001,-5.300000000000001,-0.9,0.7000000000000001,4.0,1.5,-57.6,-3.6,63.0
1698419357921.0,16,-0.1,-5.1000000000000005,-0.8,0.0,4.2,1.6,-50.800000000000004,-2.1,51.800000000000004
1698419357938.0,16,-0.6000000000000001,-5.2,-1.3,-0.4,3.9000000000000004,1.3,-41.5,13.0,27.400000000000002
1698419357955.0,16,-0.5,-5.5,-1.5,-0.30000000000000004,3.7,1.1,-36.2,12.700000000000001,16.2
1698419357971.0,16,-0.1,-5.800000000000001,-1.9000000000000001,0.2,3.3000000000000003,0.8,-28.3,11.1,7.6
1698419357987.0,16,0.2,-5.4,-2.0,0.5,3.6,0.8,-20.900000000000002,16.0,12.6
1698419358004.0,16,0.5,-4.9,-2.0,1.2000000000000002,4.800000000000001,0.9,-17.0,16.6,14.500000000000002
1698419358027.0,16,1.3,-2.1,-1.3,1.7000000000000002,6.800000000000001,1.5,-4.2,12.4,2.4000000000000004
1698419358037.0,16,1.6,-1.2000000000000002,-1.2000000000000002,2.0,7.7,1.6,-0.8,22.000000000000004,-5.7
1698419358054.0,16,1.9000000000000001,-0.5,-1.8,2.2,8.4,1.0,-0.30000000000000004,37.900000000000006,-14.500000000000002
1698419358070.0,16,1.9000000000000001,-0.30000000000000004,-2.2,2.1,8.6,0.6000000000000001,-11.8,57.5,-24.8
1698419358087.0,16,1.3,0.0,-2.0,1.5,8.8,0.9,-18.2,59.5,-2.9
1698419358104.0,16,0.9,2.2,-1.8,1.1,11.0,1.1,-18.6,45.6,45.9
1698419358121.0,16,0.0,3.5,-1.9000000000000001,0.30000000000000004,12.3,1.1,-16.2,32.5,65.3
1698419358139.0,16,-2.5,5.800000000000001,-2.3000000000000003,-2.0,14.700000000000001,0.6000000000000001,-6.6000000000000005,-3.4,70.0
1698419358155.0,16,-4.6000000000000005,6.0,-3.2,-4.0,14.9,-0.2,-7.0,-16.1,40.5
1698419358170.0,16,-4.3,6.0,-3.8000000000000003,-3.7,15.0,-0.9,-12.700000000000001,-10.700000000000001,15.000000000000002
1698419358187.0,16,-2.4000000000000004,5.9,0.8,-2.0,14.9,3.8000000000000003,-28.500000000000004,-5.8,-62.300000000000004
1698419358204.0,16,-0.5,10.200000000000001,3.3000000000000003,-0.2,19.3,6.2,69.7,-53.400000000000006,-67.9
1698419358220.0,16,2.9000000000000004,5.7,2.8000000000000003,3.1,14.9,5.6000000000000005,111.10000000000001,-68.3,-26.500000000000004
1698419358238.0,16,4.4,-3.4000000000000004,4.4,4.800000000000001,5.9,6.7,149.10000000000002,-71.8,16.3
1698419358254.0,16,3.0,-2.8000000000000003,2.1,3.6,6.5,4.0,162.70000000000002,-33.7,38.6
1698419358271.0,16,1.7000000000000002,-1.3,5.4,2.3000000000000003,8.1,7.1000000000000005,103.2,-17.200000000000003,24.6
1698419358288.0,16,2.5,4.1000000000000005,7.0,3.2,13.5,8.700000000000001,-15.5,10.1,5.0
1698419358304.0,16,2.7,8.9,4.4,3.5,18.400000000000002,6.2,-35.199999999999996,27.900000000000002,28.400000000000002
1698419358321.0,16,1.8,6.2,2.7,2.7,15.600000000000001,4.6000000000000005,-34.0,15.5,51.900000000000006
1698419358337.0,16,0.7000000000000001,0.8,1.6,1.7000000000000002,10.200000000000001,3.6,-21.1,-13.9,77.5
1698419358354.0,16,-0.9,-2.5,-0.30000000000000004,0.30000000000000004,6.9,1.8,-29.600000000000005,-0.6000000000000001,39.6
1698419358371.0,16,-2.1,-4.0,-0.7000000000000001,-0.8,5.4,1.5,-39.8,7.8,18.3
1698419358387.0,16,-3.2,-5.1000000000000005,-1.1,-2.0,4.1000000000000005,1.2000000000000002,-56.400000000000006,22.1,-6.3
1698419358404.0,16,-2.8000000000000003,-5.5,-1.5,-1.9000000000000001,3.9000000000000004,1.2000000000000002,-61.7,25.900000000000002,-13.3
1698419358422.0,16,-2.5,-5.5,-1.6,-1.4000000000000001,3.6,1.1,-63.10000000000001,18.6,-21.0
1698419358437.0,16,-2.0,-5.300000000000001,-1.7000000000000002,-1.0,3.7,1.1,-52.300000000000004,1.0999999999999999,-13.5
1698419358454.0,16,-2.1,-5.1000000000000005,-1.8,-1.1,3.9000000000000004,1.1,-44.4,-6.5,-6.3
1698419358470.0,16,-2.3000000000000003,-4.800000000000001,-1.8,-1.3,4.1000000000000005,1.1,-27.400000000000002,-14.4,5.2
1698419358487.0,16,-2.6,-3.9000000000000004,-1.3,-1.7000000000000002,5.0,1.7000000000000002,-9.9,-11.2,4.9
1698419358505.0,16,-2.4000000000000004,-2.5,-0.9,-1.4000000000000001,6.300000000000001,2.1,8.9,-7.400000000000001,-1.6
1698419358521.0,16,-2.3000000000000003,-1.0,-1.2000000000000002,-1.3,7.9,1.7000000000000002,17.1,-14.700000000000001,-3.5
1698419358538.0,16,-2.3000000000000003,-0.30000000000000004,-1.9000000000000001,-1.3,8.6,0.9,19.3,-51.2,-0.5
1698419358554.0,16,-2.2,0.4,-2.7,-1.2000000000000002,9.3,0.1,-19.1,-73.0,-1.0999999999999999
1698419358571.0,16,-1.9000000000000001,0.6000000000000001,-2.6,-0.8,9.5,0.30000000000000004,-43.800000000000004,-74.7,-10.0
1698419358587.0,16,-1.4000000000000001,1.6,-3.0,-0.4,10.4,0.1,-81.8,-64.4,-39.50000000000001
1698419358604.0,16,1.0,3.0,-2.2,1.9000000000000001,11.700000000000001,1.1,-99.7,-36.5,-59.60000000000001
1698419358621.0,16,2.6,3.6,-2.1,3.4000000000000004,12.3,1.4000000000000001,-95.9,-12.700000000000001,-63.2
1698419358638.0,16,4.9,4.4,-3.2,5.6000000000000005,13.100000000000001,0.4,-70.10000000000001,17.400000000000002,-56.300000000000004
1698419358654.0,16,4.2,4.3,-4.3,4.800000000000001,12.9,-0.5,-47.7,18.6,-34.300000000000004
1698419358671.0,16,2.4000000000000004,3.7,-1.7000000000000002,2.9000000000000004,12.4,2.2,-35.5,12.200000000000001,-7.1000000000000005
1698419358689.0,16,4.3,8.6,4.2,4.9,17.3,7.9,98.10000000000001,43.50000000000001,25.2
1698419358705.0,16,-0.2,0.6000000000000001,4.6000000000000005,0.2,9.600000000000001,7.800000000000001,189.4,62.900000000000006,-38.2
1698419358721.0,16,-2.2,-3.6,7.1000000000000005,-1.8,5.5,9.9,245.3,58.00000000000001,-26.9
1698419358738.0,16,-2.2,-4.7,2.2,-1.9000000000000001,4.6000000000000005,4.2,274.40000000000003,0.8,-14.900000000000002
1698419358754.0,16,-3.8000000000000003,2.4000000000000004,10.4,-3.5,11.8,12.100000000000001,49.7,9.200000000000001,-13.5
1698419358774.0,16,-3.0,6.9,6.800000000000001,-2.8000000000000003,16.3,8.5,53.7,64.50000000000001,-2.3000000000000003
1698419358790.0,16,1.9000000000000001,13.5,5.300000000000001,2.0,23.0,6.9,16.8,-20.5,-46.4
1698419358804.0,16,0.30000000000000004,2.9000000000000004,2.7,0.1,12.5,4.5,-38.2,32.1,-90.7
1698419358820.0,16,-0.8,-2.1,-0.6000000000000001,-1.3,7.4,1.3,-36.9,28.200000000000003,-51.300000000000004
1698419358838.0,16,0.6000000000000001,-3.4000000000000004,-0.8,0.1,6.1000000000000005,1.2000000000000002,-43.900000000000006,24.3,-14.0
1698419358854.0,16,2.3000000000000003,-5.2,-1.5,1.9000000000000001,4.2,0.6000000000000001,-55.4,12.100000000000001,31.6
1698419358870.0,16,2.1,-5.5,-1.3,1.3,4.2,1.2000000000000002,-58.9,-9.200000000000001,45.3
1698419358887.0,16,0.8,-4.6000000000000005,-0.9,0.7000000000000001,4.7,1.4000000000000001,-56.400000000000006,-10.9,45.7
1698419358904.0,16,0.30000000000000004,-4.2,-0.8,0.30000000000000004,5.0,1.7000000000000002,-46.800000000000004,0.6000000000000001,33.7
1698419358920.0,16,0.5,-5.1000000000000005,-1.2000000000000002,0.5,4.0,1.4000000000000001,-33.400000000000006,8.4,9.3
1698419358937.0,16,0.9,-5.6000000000000005,-1.4000000000000001,0.9,3.5,1.3,-27.900000000000002,4.7,0.4
1698419358955.0,16,1.0,-6.4,-1.6,1.0,2.7,1.1,-21.0,0.9,-3.2
1698419358971.0,16,1.0,-5.6000000000000005,-1.9000000000000001,1.0,3.3000000000000003,0.9,-18.6,11.2,9.9
1698419358988.0,16,0.9,-4.800000000000001,-1.8,1.0,4.1000000000000005,1.0,-17.200000000000003,10.2,14.900000000000002
1698419359004.0,16,0.7000000000000001,-2.6,-1.2000000000000002,0.9,6.300000000000001,1.6,-11.3,2.7,13.100000000000001
1698419359024.0,16,0.8,-0.4,-0.9,1.0,8.5,1.9000000000000001,-7.1000000000000005,21.8,-1.0
1698419359037.0,16,1.2000000000000002,0.0,-1.5,1.3,8.9,1.4000000000000001,-8.9,39.8,-10.5
1698419359055.0,16,2.2,-0.30000000000000004,-2.1,2.2,8.6,0.8,-22.1,66.5,-21.700000000000003
1698419359070.0,16,2.9000000000000004,0.5,-2.6,2.8000000000000003,9.3,0.30000000000000004,-33.5,73.50000000000001,-1.8
1698419359087.0,16,2.9000000000000004,1.6,-2.7,2.8000000000000003,10.5,0.30000000000000004,-36.6,58.9,23.5
1698419359104.0,16,0.9,4.9,-2.3000000000000003,1.0,13.700000000000001,0.8,-33.800000000000004,22.6,68.9
1698419359120.0,16,-3.1,6.5,-3.1,-2.8000000000000003,15.4,0.1,-22.2,-8.9,74.4
1698419359138.0,16,-4.800000000000001,5.7,-3.5,-4.4,14.5,-0.4,-21.6,-9.9,62.8
1698419359154.0,16,-4.3,4.7,-2.1,-3.9000000000000004,13.600000000000001,1.1,-28.200000000000003,8.9,3.9
1698419359170.0,16,-4.0,9.5,4.7,-3.8000000000000003,18.5,7.9,56.400000000000006,-21.5,-60.400000000000006
1698419359187.0,16,2.7,4.3,3.6,2.9000000000000004,13.5,6.300000000000001,150.4,-64.8,-13.3
1698419359204.0,16,3.8000000000000003,-0.5,5.1000000000000005,4.1000000000000005,8.8,7.6000000000000005,176.8,-76.0,2.6
1698419359220.0,16,2.6,-2.8000000000000003,4.7,3.1,6.6000000000000005,6.7,180.50000000000003,-61.900000000000006,34.0
1698419359237.0,16,2.3000000000000003,-2.2,5.1000000000000005,2.8000000000000003,7.2,6.9,79.7,-37.900000000000006,22.2
1698419359255.0,16,3.2,1.0,4.9,3.8000000000000003,10.3,6.800000000000001,-1.9,-15.5,4.1000000000000005
1698419359271.0,16,3.0,4.5,6.9,3.6,13.8,8.8,9.1,-3.8,4.800000000000001
1698419359287.0,16,1.2000000000000002,4.5,2.4000000000000004,2.0,14.0,4.4,-12.000000000000002,6.1000000000000005,40.5
1698419359304.0,16,0.7000000000000001,0.8,2.8000000000000003,1.7000000000000002,10.3,4.800000000000001,-22.900000000000002,-26.6,74.7
1698419359321.0,16,-0.1,-1.1,0.6000000000000001,1.1,8.3,2.7,-21.3,-19.700000000000003,54.5
1698419359338.0,16,-1.1,-2.6,-0.1,0.1,6.7,2.0,-30.7,-9.8,32.0
1698419359355.0,16,-2.2,-4.2,-0.6000000000000001,-1.0,5.1000000000000005,1.6,-51.7,5.500000000000001,0.7
1698419359371.0,16,-2.2,-4.7,-0.9,-1.0,4.5,1.5,-62.50000000000001,10.5,-11.2
1698419359388.0,16,-2.1,-4.9,-1.2000000000000002,-1.0,4.3,1.3,-63.6,8.0,-11.1
1698419359404.0,16,-2.0,-4.7,-1.5,-0.9,4.3,1.2000000000000002,-57.800000000000004,-7.1000000000000005,-2.4000000000000004
1698419359421.0,16,-2.2,-4.800000000000001,-1.8,-1.0,4.2,1.1,-46.7,-20.5,6.3
1698419359437.0,16,-2.2,-4.9,-1.7000000000000002,-1.1,4.1000000000000005,1.2000000000000002,-40.9,-22.2,7.0
1698419359454.0,16,-2.4000000000000004,-4.9,-1.7000000000000002,-1.3,4.0,1.3,-28.0,-16.0,-0.4
1698419359471.0,16,-2.3000000000000003,-4.2,-1.2000000000000002,-1.2000000000000002,4.7,1.8,-12.700000000000001,-10.0,-8.9
1698419359487.0,16,-2.1,-2.7,-0.9,-1.0,6.1000000000000005,2.1,3.9,-18.0,-5.8
1698419359504.0,16,-2.1,-1.7000000000000002,-0.9,-1.1,7.1000000000000005,2.1,9.200000000000001,-30.9,-0.7
1698419359521.0,16,-2.4000000000000004,0.1,-2.0,-1.3,8.9,1.0,0.30000000000000004,-65.3,10.9
1698419359537.0,16,-1.9000000000000001,0.2,-2.6,-0.7000000000000001,9.0,0.4,-43.800000000000004,-82.7,1.0
1698419359554.0,16,-1.6,0.30000000000000004,-2.5,-0.30000000000000004,9.1,0.5,-64.9,-76.2,-17.599999999999998
1698419359571.0,16,-1.0,1.5,-2.9000000000000004,0.1,10.200000000000001,0.4,-89.10000000000001,-55.2,-59.1
1698419359587.0,16,2.3000000000000003,3.2,-2.7,3.3000000000000003,11.8,0.9,-91.60000000000001,-13.5,-81.0
1698419359604.0,16,4.1000000000000005,4.1000000000000005,-2.5,4.9,12.600000000000001,1.1,-82.4,3.6,-81.9
1698419359620.0,16,5.7,5.300000000000001,-3.9000000000000004,6.4,13.9,-0.1,-47.6,11.3,-60.300000000000004
1698419359637.0,16,3.2,4.9,-3.8000000000000003,3.9000000000000004,13.5,0.1,-25.3,-6.7,-8.5
1698419359654.0,16,1.8,5.2,2.7,2.5,13.8,6.6000000000000005,-1.2000000000000002,-9.9,27.900000000000002
1698419359673.0,16,3.5,9.9,0.8,4.3,18.7,4.3,137.20000000000002,66.9,30.000000000000004
1698419359687.0,16,-1.0,-1.1,6.5,-0.4,8.0,9.5,218.4,47.300000000000004,-26.8
1698419359704.0,16,-2.0,-3.9000000000000004,4.9,-1.4000000000000001,5.300000000000001,7.5,268.1,21.5,-25.0
1698419359721.0,16,-3.5,-4.2,8.3,-3.0,5.1000000000000005,10.200000000000001,188.8,-55.6,-19.8
1698419359737.0,16,-4.4,3.4000000000000004,8.1,-3.9000000000000004,12.8,9.9,49.9,56.6,-8.700000000000001
1698419359754.0,16,-3.0,9.8,3.9000000000000004,-2.6,19.200000000000003,5.6000000000000005,62.300000000000004,50.4,-13.200000000000001
1698419359771.0,16,3.7,13.3,7.0,3.9000000000000004,22.8,8.700000000000001,11.6,-21.3,-87.7
1698419359787.0,16,0.30000000000000004,0.2,2.0,0.2,9.8,3.8000000000000003,-31.4,53.6,-89.4
1698419359804.0,16,-0.6000000000000001,-2.9000000000000004,0.4,-0.30000000000000004,5.300000000000001,1.4000000000000001,-30.100000000000005,27.8,-59.300000000000004
1698419359821.0,16,1.3,-4.800000000000001,-0.9,1.1,4.6000000000000005,1.1,-42.300000000000004,30.100000000000005,21.900000000000002
1698419359837.0,16,1.9000000000000001,-5.2,-0.8,1.8,4.2,1.3,-51.2,13.200000000000001,56.5
1698419359855.0,16,1.2000000000000002,-4.9,-0.7000000000000001,1.2000000000000002,4.4,1.5,-50.6,1.3,58.5
1698419359871.0,16,-0.30000000000000004,-4.2,-0.30000000000000004,-0.1,5.1000000000000005,2.0,-44.3,-1.6,49.4
1698419359887.0,16,-0.4,-4.4,-0.6000000000000001,-0.1,4.800000000000001,1.8,-34.7,15.399999999999999,24.9
1698419359904.0,16,-0.1,-5.0,-1.0,0.2,4.2,1.5,-30.4,17.400000000000002,11.4
1698419359921.0,16,0.7000000000000001,-6.0,-1.3,1.0,3.1,1.3,-24.1,11.4,-1.4
1698419359937.0,16,1.2000000000000002,-5.800000000000001,-1.5,1.5,3.2,1.1,-20.6,16.8,5.7
1698419359954.0,16,1.2000000000000002,-4.3,-1.7000000000000002,1.6,4.7,1.0,-18.1,22.900000000000002,17.3
1698419359970.0,16,1.2000000000000002,-3.3000000000000003,-1.6,1.5,5.7,1.1,-16.1,19.500000000000004,20.3
1698419359987.0,16,0.8,-1.3,-1.4000000000000001,1.2000000000000002,7.7,1.3,-14.0,17.400000000000002,16.3
1698419360004.0,16,0.7000000000000001,-0.7000000000000001,-1.4000000000000001,1.1,8.200000000000001,1.4000000000000001,-16.3,29.700000000000003,7.9
1698419360020.0,16,1.2000000000000002,-0.7000000000000001,-2.2,1.6,8.200000000000001,0.6000000000000001,-25.2,56.300000000000004,-14.4
1698419360037.0,16,2.2,-0.9,-2.5,2.4000000000000004,7.9,0.4,-38.7,70.3,-16.700000000000003
1698419360054.0,16,2.3000000000000003,0.6000000000000001,-2.5,2.5,9.4,0.5,-45.1,66.1,22.2
1698419360070.0,16,2.0,1.9000000000000001,-2.4000000000000004,2.2,10.700000000000001,0.7000000000000001,-43.900000000000006,57.400000000000006,51.1
1698419360087.0,16,-0.7000000000000001,5.1000000000000005,-1.9000000000000001,-0.2,13.9,1.3,-28.500000000000004,25.3,85.80000000000001
1698419360104.0,16,-2.6,6.2,-1.8,-4.1000000000000005,15.200000000000001,0.8,-14.500000000000002,2.7,82.9
1698419360120.0,16,-6.2,6.2,-2.9000000000000004,-5.5,15.0,0.30000000000000004,5.0,-15.7,52.1
1698419360137.0,16,-4.6000000000000005,5.5,-3.5,-3.9000000000000004,14.4,-0.4,-1.6,0.5,-16.0
1698419360154.0,16,-2.2,7.800000000000001,2.9000000000000004,-1.7000000000000002,16.8,5.9,36.0,-30.200000000000003,-88.2
1698419360172.0,16,-0.9,9.600000000000001,1.8,-0.6000000000000001,18.6,4.800000000000001,78.00000000000001,-63.0,-76.5
1698419360188.0,16,5.1000000000000005,0.1,4.0,5.5,9.3,6.6000000000000005,126.30000000000001,-65.8,-14.100000000000001
1698419360204.0,16,4.1000000000000005,-3.1,3.2,4.6000000000000005,6.2,5.4,147.4,-55.300000000000004,22.1
1698419360222.0,16,3.9000000000000004,-2.8000000000000003,2.5,4.5,6.6000000000000005,4.4,132.3,-28.6,25.0
1698419360237.0,16,2.5,0.1,5.9,3.1,9.4,7.7,21.3,-16.0,2.0
1698419360254.0,16,2.9000000000000004,2.9000000000000004,6.9,3.5,12.3,8.700000000000001,-0.30000000000000004,-2.4000000000000004,3.5
1698419360271.0,16,1.9000000000000001,9.1,4.800000000000001,2.7,18.5,6.800000000000001,-27.7,24.7,39.1
1698419360287.0,16,0.6000000000000001,2.9000000000000004,2.6,1.6,12.3,4.7,-32.4,5.500000000000001,73.7
1698419360304.0,16,0.30000000000000004,-0.5,1.0,1.4000000000000001,8.8,3.2,-17.7,0.9,51.6
1698419360320.0,16,-0.5,-2.1,0.1,0.8,7.300000000000001,2.3000000000000003,-21.0,8.200000000000001,29.900000000000006
1698419360337.0,16,-2.2,-4.0,-0.6000000000000001,-0.9,5.300000000000001,1.7000000000000002,-37.300000000000004,16.0,0.1
1698419360353.0,16,-2.8000000000000003,-4.5,-1.0,-1.6,4.7,1.5,-49.4,18.3,-9.8
1698419360370.0,16,-2.7,-4.7,-1.2000000000000002,-1.6,4.5,1.3,-52.1,17.1,-11.4
1698419360387.0,16,-2.4000000000000004,-4.800000000000001,-1.6,-1.3,4.3,1.1,-49.0,6.6000000000000005,-10.2
1698419360404.0,16,-2.1,-4.9,-1.9000000000000001,-1.0,4.1000000000000005,1.0,-39.9,-5.2,-6.8
1698419360420.0,16,-2.0,-5.0,-1.9000000000000001,-1.0,4.0,0.9,-35.1,-8.600000000000001,-5.4
1698419360437.0,16,-2.0,-4.800000000000001,-2.1,-1.0,4.1000000000000005,0.9,-26.1,-9.5,-4.6000000000000005
1698419360454.0,16,-2.2,-4.0,-1.7000000000000002,-1.2000000000000002,4.800000000000001,1.2000000000000002,-14.500000000000002,-8.9,-5.500000000000001
1698419360470.0,16,-2.1,-3.5,-1.6,-1.2000000000000002,5.4,1.4000000000000001,-7.400000000000001,-9.0,-5.2
1698419360487.0,16,-2.3000000000000003,-2.1,-1.4000000000000001,-1.3,6.7,1.5,6.1000000000000005,-17.7,0.2
1698419360504.0,16,-2.7,-0.8,-2.0,-1.8,8.0,0.9,10.8,-47.1,13.700000000000001
1698419360520.0,16,-2.8000000000000003,-0.30000000000000004,-2.5,-1.7000000000000002,8.5,0.4,2.7,-64.50000000000001,19.1
1698419360537.0,16,-1.9000000000000001,0.8,-2.3000000000000003,-0.8,9.600000000000001,0.6000000000000001,-33.400000000000006,-69.7,6.2
1698419360554.0,16,-1.1,1.4000000000000001,-2.4000000000000004,0.0,10.100000000000001,0.6000000000000001,-60.900000000000006,-55.6,-35.7
1698419360570.0,16,0.0,1.8,-2.6,1.0,10.5,0.5,-70.5,-45.6,-51.1
1698419360587.0,16,2.6,2.9000000000000004,-2.5,3.5,11.600000000000001,0.8,-78.7,-9.4,-65.5
1698419360604.0,16,4.3,4.4,-3.5,5.0,13.0,0.0,-65.10000000000001,14.600000000000001,-65.0
1698419360620.0,16,4.3,4.7,-4.0,5.0,13.3,-0.4,-56.300000000000004,15.399999999999999,-57.9
1698419360637.0,16,2.0,5.4,1.2000000000000002,2.6,14.0,4.9,-31.3,9.5,-18.8
1698419360654.0,16,6.5,12.3,1.6,7.1000000000000005,21.200000000000003,5.1000000000000005,107.30000000000001,49.2,11.1
1698419360671.0,16,4.2,9.1,1.0,4.7,18.0,4.3,148.5,87.80000000000001,-20.2
1698419360687.0,16,-0.2,-2.2,5.2,0.2,7.0,7.9,235.10000000000002,62.900000000000006,-18.900000000000002
1698419360704.0,16,-3.8000000000000003,-5.9,6.9,-3.5,3.4000000000000004,8.9,183.10000000000002,-39.9,-14.900000000000002
1698419360720.0,16,-5.0,-4.800000000000001,9.0,-4.7,4.5,10.9,78.60000000000001,-39.2,-8.4
1698419360737.0,16,-5.2,2.2,5.1000000000000005,-4.9,11.5,6.9,57.800000000000004,35.3,26.3
1698419360754.0,16,-1.9000000000000001,11.8,3.3000000000000003,-1.6,21.200000000000003,5.0,50.9,-51.900000000000006,-5.8
1698419360770.0,16,1.1,11.100000000000001,7.2,1.3,20.6,8.8,11.6,-12.000000000000002,-42.400000000000006
1698419360788.0,16,-0.4,2.4000000000000004,1.0,-0.5,11.9,2.7,-26.1,19.200000000000003,-84.80000000000001
1698419360804.0,16,0.2,-2.7,-0.2,-0.1,6.800000000000001,1.7000000000000002,-40.5,-17.0,-46.7
1698419360820.0,16,2.7,-4.7,-1.1,2.4000000000000004,4.7,0.9,-44.6,-3.6,12.8
1698419360837.0,16,3.4000000000000004,-5.300000000000001,-1.1,3.2,4.1000000000000005,0.9,-46.5,-1.0999999999999999,32.7
1698419360854.0,16,2.3000000000000003,-5.2,-0.9,2.3000000000000003,4.2,1.3,-42.400000000000006,-12.8,42.5
1698419360870.0,16,1.5,-4.800000000000001,-0.8,1.6,4.5,1.4000000000000001,-38.1,-13.700000000000001,39.00000000000001
1698419360887.0,16,0.4,-4.800000000000001,-1.1,0.5,4.4,1.2000000000000002,-29.000000000000004,-7.8,22.3
1698419360904.0,16,0.1,-5.2,-1.5,0.30000000000000004,3.9000000000000004,0.9,-21.900000000000002,-10.8,8.5
1698419360920.0,16,0.5,-5.4,-1.5,0.7000000000000001,3.7,0.9,-17.1,-17.8,6.8
1698419360939.0,16,0.4,-5.4,-1.4000000000000001,0.7000000000000001,3.7,1.0,-15.2,-17.0,8.200000000000001
1698419360954.0,16,0.5,-4.7,-1.0,0.9,4.4,1.5,-10.1,-7.500000000000001,15.5
1698419360971.0,16,0.9,-2.7,0.2,1.3,6.300000000000001,2.7,-8.799999999999999,-2.7,15.000000000000002
1698419360987.0,16,1.1,-1.2000000000000002,0.9,1.6,7.800000000000001,3.4000000000000004,-18.3,2.1999999999999997,9.700000000000001
1698419361004.0,16,1.8,0.9,-0.30000000000000004,2.2,9.9,2.3000000000000003,-18.2,29.600000000000005,-24.200000000000003
1698419361020.0,16,3.4000000000000004,0.0,-2.7,3.6,8.9,-0.1,-28.900000000000002,69.10000000000001,-55.2
1698419361037.0,16,3.6,-0.6000000000000001,-3.1,3.7,8.3,-0.30000000000000004,-43.800000000000004,80.4,-53.7
1698419361053.0,16,2.0,-1.2000000000000002,-3.5,2.0,7.7,-0.6000000000000001,-65.8,76.5,0.30000000000000004
1698419361070.0,16,1.3,0.8,-3.6,1.4000000000000001,9.600000000000001,-0.5,-78.9,37.800000000000004,82.10000000000001
1698419361087.0,16,-0.30000000000000004,3.0,-3.3000000000000003,0.0,11.8,-0.1,-76.3,4.3999999999999995,101.30000000000001
1698419361104.0,16,-2.4000000000000004,7.800000000000001,-2.1,-1.7000000000000002,16.5,1.3,-49.3,-44.3,102.4
1698419361120.0,16,-4.0,7.7,-2.5,-3.3000000000000003,16.400000000000002,0.9,-19.700000000000003,9.700000000000001,46.800000000000004
1698419361137.0,16,-3.4000000000000004,7.5,0.30000000000000004,-2.6,16.2,3.7,-4.0,25.1,2.1999999999999997
1698419361154.0,16,-5.5,11.3,1.2000000000000002,-4.9,20.3,4.4,106.60000000000001,-13.4,-59.400000000000006
1698419361170.0,16,2.1,0.4,3.7,2.7,9.600000000000001,6.4,174.4,-96.80000000000001,-15.299999999999999
1698419361187.0,16,2.9000000000000004,-3.0,4.800000000000001,3.5,6.2,7.2,202.5,-92.9,-10.700000000000001
1698419361204.0,16,2.8000000000000003,-4.2,6.800000000000001,3.5,5.1000000000000005,8.6,154.1,-40.2,17.1
1698419361221.0,16,3.5,-1.1,2.1,4.2,8.200000000000001,3.9000000000000004,-0.1,-40.2,0.9
1698419361237.0,16,3.9000000000000004,0.2,3.5,4.6000000000000005,9.5,5.300000000000001,9.200000000000001,-17.8,-9.0
1698419361255.0,16,3.5,5.4,6.2,4.3,14.8,8.0,18.2,24.7,-10.9
1698419361270.0,16,1.1,8.4,2.9000000000000004,1.9000000000000001,17.8,4.800000000000001,-11.1,26.0,24.8
1698419361287.0,16,1.2000000000000002,1.0,1.7000000000000002,2.2,10.4,3.6,-14.900000000000002,9.3,81.8
1698419361304.0,16,-0.1,-0.9,0.30000000000000004,1.1,8.5,2.2,-10.0,8.799999999999999,81.6
1698419361320.0,16,-1.1,-3.1,-0.4,0.2,6.2,1.6,-18.2,2.1,51.6
1698419361337.0,16,-2.0,-3.9000000000000004,-0.4,-0.7000000000000001,5.4,1.6,-25.8,6.3,29.500000000000004
1698419361354.0,16,-3.1,-4.6000000000000005,-1.1,-1.7000000000000002,4.7,1.1,-37.300000000000004,14.700000000000001,-2.1999999999999997
1698419361371.0,16,-2.7,-4.7,-1.4000000000000001,-1.4000000000000001,4.5,0.9,-45.0,21.0,-11.5
1698419361387.0,16,-2.5,-4.7,-1.4000000000000001,-1.2000000000000002,4.5,1.0,-45.3,22.900000000000002,-12.000000000000002
1698419361404.0,16,-2.2,-4.6000000000000005,-1.5,-1.0,4.4,1.0,-37.900000000000006,15.9,-9.3
1698419361420.0,16,-2.0,-4.7,-1.6,-0.8,4.3,0.9,-29.1,7.400000000000001,-5.1
1698419361437.0,16,-2.1,-4.6000000000000005,-1.5,-0.9,4.4,1.1,-24.8,6.2,-3.6
1698419361454.0,16,-1.9000000000000001,-3.8000000000000003,-1.3,-0.8,5.2,1.3,-14.600000000000001,3.1,0.1
1698419361475.0,16,-1.8,-2.2,-0.8,-0.7000000000000001,6.7,1.8,-3.8,2.1,4.2
1698419361487.0,16,-1.9000000000000001,-0.30000000000000004,-1.3,-0.8,8.6,1.3,2.1,-17.599999999999998,13.700000000000001
1698419361503.0,16,-2.0,0.4,-1.8,-0.8,9.200000000000001,0.9,-3.9,-34.800000000000004,20.8
1698419361521.0,16,-2.4000000000000004,0.1,-2.5,-1.1,8.9,0.2,-40.5,-51.7,24.8
1698419361537.0,16,-2.5,-0.5,-2.6,-1.2000000000000002,8.1,0.30000000000000004,-62.4,-48.6,17.8
1698419361554.0,16,-2.1,-0.2,-2.6,-0.7000000000000001,8.5,0.30000000000000004,-87.3,-49.9,-9.200000000000001
1698419361570.0,16,-0.2,2.0,-3.1,1.0,10.700000000000001,0.1,-96.3,-48.50000000000001,-48.1
1698419361587.0,16,2.4000000000000004,4.3,-1.7000000000000002,3.5,12.9,1.8,-90.9,-5.0,-68.60000000000001
1698419361604.0,16,3.2,5.300000000000001,-2.1,4.2,13.9,1.4000000000000001,-74.4,20.1,-69.9
1698419361620.0,16,3.4000000000000004,5.0,-4.0,4.3,13.600000000000001,-0.30000000000000004,-42.800000000000004,18.2,-56.5
1698419361637.0,16,2.7,5.300000000000001,4.6000000000000005,3.5,14.0,8.3,6.8,5.1,-12.100000000000001
1698419361655.0,16,5.1000000000000005,8.9,3.2,6.0,17.3,3.2,80.30000000000001,27.8,-1.0
1698419361670.0,16,1.8,3.3000000000000003,3.3000000000000003,2.4000000000000004,12.200000000000001,6.5,158.9,84.80000000000001,-38.0
1698419361687.0,16,-0.1,-2.5,3.9000000000000004,0.4,6.7,6.4,243.40000000000003,31.7,-25.3
1698419361703.0,16,-2.2,-4.4,4.7,-1.8,4.9,6.9,212.3,3.4,-28.400000000000002
1698419361720.0,16,-4.4,-2.7,7.6000000000000005,-4.1000000000000005,6.5,9.600000000000001,70.39999999999999,-4.0,-17.3
1698419361737.0,16,-2.7,7.4,3.8000000000000003,-2.4000000000000004,16.8,5.6000000000000005,75.2,22.000000000000004,-18.1
1698419361754.0,16,-1.2000000000000002,11.5,1.5,-1.0,21.0,3.2,67.80000000000001,-34.800000000000004,-48.800000000000004
1698419361770.0,16,0.7000000000000001,8.9,4.9,0.7000000000000001,18.5,6.5,8.9,39.8,-81.5
1698419361787.0,16,-0.9,-0.9,0.8,-1.2000000000000002,8.700000000000001,2.5,-14.200000000000001,-2.5,-51.400000000000006
1698419361803.0,16,-0.30000000000000004,-2.6,0.4,-0.6000000000000001,7.0,2.2,-20.8,-14.200000000000001,-25.6
1698419361820.0,16,2.2,-4.0,-0.30000000000000004,1.9000000000000001,5.4,1.5,-32.6,-0.8,24.1
1698419361837.0,16,2.4000000000000004,-3.5,-0.30000000000000004,2.2,5.9,1.6,-38.7,-18.3,39.699999999999996
1698419361858.0,16,1.2000000000000002,-3.3000000000000003,-0.2,1.2000000000000002,6.1000000000000005,1.9000000000000001,-42.400000000000006,-19.8,32.2
1698419361870.0,16,0.7000000000000001,-3.7,-0.4,0.7000000000000001,5.6000000000000005,1.8,-44.3,-15.6,25.6
1698419361887.0,16,0.4,-4.800000000000001,-0.9,0.5,4.5,1.4000000000000001,-45.5,-13.200000000000001,11.700000000000001
1698419361904.0,16,0.2,-5.2,-1.2000000000000002,0.4,4.0,1.1,-44.2,-17.1,7.9
1698419361920.0,16,0.4,-5.6000000000000005,-1.5,0.6000000000000001,3.6,1.0,-42.800000000000004,-26.8,10.0
1698419361937.0,16,0.2,-5.5,-1.5,0.5,3.5,1.1,-42.300000000000004,-20.6,15.9
1698419361954.0,16,0.1,-5.300000000000001,-1.7000000000000002,0.4,4.0,0.8,-41.2,-14.4,18.6
1698419361970.0,16,0.0,-4.5,-2.0,0.4,4.5,0.7000000000000001,-39.00000000000001,-9.600000000000001,13.9
1698419361987.0,16,0.2,-3.3000000000000003,-1.8,0.6000000000000001,5.6000000000000005,1.0,-36.5,-7.0,-0.7
1698419362003.0,16,0.6000000000000001,-2.6,-1.6,1.5,6.9,1.5,-34.0,0.1,-10.600000000000001
1698419362020.0,16,1.9000000000000001,-1.1,-1.6,2.2,7.7,1.4000000000000001,-27.2,29.1,-28.200000000000003
1698419362037.0,16,3.7,1.3,-2.3000000000000003,3.9000000000000004,10.100000000000001,0.8,-25.1,60.400000000000006,-32.0
1698419362054.0,16,4.1000000000000005,1.9000000000000001,-2.6,3.9000000000000004,10.600000000000001,0.30000000000000004,-24.400000000000002,59.7,-9.8
1698419362070.0,16,3.1,1.7000000000000002,-2.7,3.1,10.5,0.4,-24.6,53.6,15.000000000000002
1698419362087.0,16,0.9,2.7,-3.3000000000000003,1.1,11.5,-0.1,-20.4,20.3,57.400000000000006
1698419362104.0,16,-2.2,4.7,-3.0,-1.8,13.5,0.2,-14.600000000000001,-29.1,62.6
1698419362120.0,16,-3.4000000000000004,5.2,-2.6,-2.9000000000000004,14.0,0.6000000000000001,-11.6,-26.0,54.800000000000004
1698419362137.0,16,-3.6,5.300000000000001,-0.7000000000000001,-3.1,14.100000000000001,2.5,-3.2,22.1,0.1
1698419362154.0,16,-3.0,10.5,1.7000000000000002,-2.7,19.400000000000002,4.800000000000001,77.2,-10.2,-46.7
1698419362170.0,16,-0.9,9.700000000000001,1.1,-0.5,18.7,4.0,115.0,-48.7,-22.7
1698419362187.0,16,4.0,-0.4,5.0,4.5,8.8,7.4,167.00000000000003,-74.89999999999999,10.3
1698419362204.0,16,3.0,-2.0,4.5,3.6,7.300000000000001,6.7,184.20000000000002,-64.2,24.200000000000003
1698419362221.0,16,2.0,-1.7000000000000002,4.2,2.6,7.6000000000000005,5.9,127.50000000000001,-15.8,30.000000000000004
1698419362237.0,16,2.7,1.7000000000000002,4.800000000000001,3.4000000000000004,11.100000000000001,6.4,11.4,-11.9,-0.1
1698419362253.0,16,1.8,8.200000000000001,6.6000000000000005,2.5,17.6,8.3,14.4,29.300000000000004,22.3
1698419362270.0,16,1.1,10.100000000000001,3.8000000000000003,2.0,19.6,5.4,-3.8,39.699999999999996,53.8
1698419362287.0,16,0.30000000000000004,2.2,2.6,1.4000000000000001,11.600000000000001,4.4,-11.8,-17.5,91.60000000000001
1698419362304.0,16,-0.1,0.1,2.0,1.2000000000000002,9.5,3.7,-6.5,-22.7,84.5
1698419362320.0,16,-0.5,-1.9000000000000001,0.4,1.0,7.5,2.2,-11.9,-2.3000000000000003,36.1
1698419362337.0,16,-1.9000000000000001,-2.9000000000000004,-0.4,-0.5,6.4,1.5,-34.300000000000004,13.4,-10.4
1698419362353.0,16,-1.6,-3.8000000000000003,-0.8,-0.30000000000000004,5.5,1.3,-53.6,21.6,-18.400000000000002
1698419362371.0,16,-1.5,-4.3,-1.0,-0.2,5.0,1.2000000000000002,-57.400000000000006,23.700000000000003,-13.4
1698419362387.0,16,-1.4000000000000001,-4.9,-1.1,-0.2,4.3,1.2000000000000002,-55.1,17.0,0.30000000000000004
1698419362403.0,16,-1.6,-5.300000000000001,-1.3,-0.4,3.8000000000000003,1.1,-45.9,5.300000000000001,7.6
1698419362420.0,16,-1.8,-5.5,-1.5,-0.5,3.6,1.1,-41.7,3.4,8.1
1698419362437.0,16,-2.3000000000000003,-5.4,-1.4000000000000001,-1.1,3.6,1.2000000000000002,-33.5,4.3999999999999995,5.0
1698419362453.0,16,-2.8000000000000003,-4.5,-1.0,-1.6,4.4,1.7000000000000002,-18.7,2.7,1.2000000000000002
1698419362470.0,16,-3.1,-3.5,-0.8,-1.8,5.4,1.8,-9.0,-0.1,0.8
1698419362487.0,16,-3.0,-1.1,-0.8,-1.8,7.800000000000001,1.9000000000000001,7.6,-6.5,4.5
1698419362503.0,16,-2.3000000000000003,0.7000000000000001,-1.7000000000000002,-1.1,9.600000000000001,1.0,7.500000000000001,-30.599999999999998,10.3
1698419362520.0,16,-1.9000000000000001,0.4,-2.0,-0.7000000000000001,9.3,0.6000000000000001,-3.8,-45.1,11.3
1698419362537.0,16,-0.7000000000000001,-1.3,-2.7,0.6000000000000001,7.5,0.0,-42.1,-44.8,5.0
1698419362554.0,16,-0.6000000000000001,-1.7000000000000002,-3.3000000000000003,0.7000000000000001,7.1000000000000005,-0.5,-60.1,-36.1,-4.9
1698419362571.0,16,-0.2,-1.0,-3.3000000000000003,1.1,7.7,-0.30000000000000004,-84.7,-29.000000000000004,-28.6
1698419362587.0,16,0.8,1.7000000000000002,-2.4000000000000004,2.0,10.4,0.8,-88.8,-9.3,-45.800000000000004
1698419362604.0,16,1.1,3.3000000000000003,-1.6,2.7,13.3,2.3000000000000003,-78.10000000000001,3.7000000000000006,-47.7
1698419362621.0,16,2.3000000000000003,5.7,-1.6,3.3000000000000003,14.3,1.9000000000000001,-26.6,15.299999999999999,-34.900000000000006
1698419362637.0,16,3.6,6.0,-3.2,4.6000000000000005,14.700000000000001,0.1,17.9,10.3,-20.900000000000002
1698419362654.0,16,2.7,6.2,2.1,3.7,15.100000000000001,5.300000000000001,57.2,7.2,0.0
1698419362670.0,16,3.7,8.0,0.5,4.6000000000000005,16.900000000000002,3.6,97.9,19.500000000000004,2.3000000000000003
1698419362687.0,16,-0.5,3.1,3.0,0.4,12.200000000000001,5.800000000000001,114.00000000000001,60.00000000000001,-23.2
1698419362704.0,16,-2.0,-0.9,6.5,-1.2000000000000002,8.3,9.0,75.4,33.800000000000004,-14.500000000000002
1698419362721.0,16,-2.9000000000000004,-2.5,2.5,-1.7000000000000002,7.1000000000000005,5.5,63.6,40.0,-15.8
1698419362737.0,16,-3.0,-1.8,4.5,-2.3000000000000003,7.4,6.7,77.9,-3.4,-16.400000000000002
1698419362755.0,16,-3.1,5.1000000000000005,3.8000000000000003,-2.5,14.5,5.7,145.2,-14.3,-31.6
1698419362770.0,16,-1.8,7.6000000000000005,1.4000000000000001,0.0,18.0,13.0,152.8,-41.7,-54.6
1698419362787.0,16,0.0,7.5,6.800000000000001,0.2,17.0,8.4,-9.0,39.00000000000001,-65.7
1698419362804.0,16,-0.6000000000000001,-0.8,1.0,-0.7000000000000001,8.700000000000001,2.7,-28.400000000000002,-4.1000000000000005,-58.800000000000004
1698419362820.0,16,-0.4,-2.1,1.3,-0.5,7.4,3.1,-42.800000000000004,-8.5,-41.6
1698419362837.0,16,1.0,-2.9000000000000004,-0.2,0.9,6.6000000000000005,1.8,-34.6,-3.3000000000000003,2.6
1698419362853.0,16,2.5,-2.5,-0.5,2.5,6.9,1.5,-28.0,4.3999999999999995,35.3
1698419362871.0,16,1.9000000000000001,-2.8000000000000003,-0.5,2.0,6.6000000000000005,1.6,-24.400000000000002,14.3,34.7
1698419362887.0,16,1.4000000000000001,-3.7,-0.7000000000000001,1.6,5.6000000000000005,1.4000000000000001,-27.3,19.0,28.200000000000003
1698419362904.0,16,1.0,-5.5,-1.3,1.2000000000000002,3.7,1.0,-34.1,7.9,20.0
1698419362920.0,16,0.7000000000000001,-5.800000000000001,-1.3,1.1,3.4000000000000004,1.0,-34.900000000000006,-1.6,17.5
1698419362937.0,16,0.7000000000000001,-5.6000000000000005,-1.2000000000000002,1.1,3.5,1.1,-32.9,-1.3,18.400000000000002
1698419362957.0,16,0.6000000000000001,-4.800000000000001,-0.9,1.0,4.3,1.6,-24.000000000000004,8.3,20.8
1698419362970.0,16,0.5,-4.0,-0.8,0.9,5.0,1.7000000000000002,-16.8,12.3,21.1
1698419362987.0,16,0.4,-2.0,-0.6000000000000001,0.9,7.0,1.9000000000000001,-3.1,13.200000000000001,18.7
1698419363003.0,16,0.6000000000000001,0.1,-0.4,1.1,9.1,2.1,-5.9,23.0,8.0
1698419363020.0,16,1.0,-0.2,-1.6,1.4000000000000001,8.8,0.9,-11.5,43.800000000000004,-24.3
1698419363037.0,16,1.2000000000000002,-1.3,-2.0,1.6,7.7,0.5,-17.5,51.2,-37.900000000000006
1698419363054.0,16,1.7000000000000002,-3.1,-3.2,1.9000000000000001,5.800000000000001,-0.6000000000000001,-39.300000000000004,64.0,-33.900000000000006
1698419363070.0,16,2.0,-2.7,-3.9000000000000004,2.2,6.2,-1.1,-65.5,68.3,4.800000000000001
1698419363087.0,16,1.9000000000000001,-1.3,-3.9000000000000004,2.0,7.5,-1.0,-74.4,57.800000000000004,26.400000000000002
1698419363104.0,16,0.4,2.2,-3.1,0.7000000000000001,10.9,0.0,-75.5,32.6,56.0
1698419363120.0,16,-0.9,5.9,-2.3000000000000003,-0.5,14.700000000000001,1.0,-54.2,27.400000000000002,62.8
1698419363137.0,16,-1.1,7.1000000000000005,-1.8,-0.6000000000000001,15.8,1.5,-34.6,24.9,55.900000000000006
1698419363154.0,16,-1.9000000000000001,6.4,-1.9000000000000001,-1.4000000000000001,15.200000000000001,1.4000000000000001,14.100000000000001,20.2,19.6
1698419363170.0,16,-2.3000000000000003,5.300000000000001,-2.6,-2.2,13.200000000000001,1.3,42.300000000000004,23.1,-31.099999999999998
1698419363187.0,16,-2.3000000000000003,4.6000000000000005,1.7000000000000002,-1.9000000000000001,13.600000000000001,4.800000000000001,62.0,12.700000000000001,-47.0
1698419363204.0,16,-2.8000000000000003,8.1,0.2,-2.5,17.2,2.9000000000000004,135.8,-84.9,-14.100000000000001
1698419363220.0,16,1.0,-1.4000000000000001,5.800000000000001,1.5,7.9,8.1,134.4,-68.2,20.5
1698419363237.0,16,0.8,-2.1,7.0,1.3,7.1000000000000005,9.1,117.20000000000002,-33.2,18.1
1698419363254.0,16,1.8,-0.2,2.6,2.4000000000000004,9.1,4.6000000000000005,5.2,-50.4,11.3
1698419363270.0,16,1.9000000000000001,-0.7000000000000001,1.4000000000000001,2.5,8.6,3.4000000000000004,-1.4,-41.2,1.2000000000000002
1698419363287.0,16,2.2,0.0,2.5,2.8000000000000003,9.3,4.6000000000000005,19.0,-3.6,-15.9
1698419363304.0,16,2.7,4.0,4.7,3.3000000000000003,13.3,6.6000000000000005,67.1,-11.9,-3.3000000000000003
1698419363320.0,16,2.1,3.6,3.5,2.9000000000000004,13.0,5.300000000000001,23.700000000000003,5.2,41.5
1698419363337.0,16,2.4000000000000004,1.7000000000000002,2.8000000000000003,3.2,11.100000000000001,4.7,2.1999999999999997,5.2,54.3
1698419363354.0,16,1.6,-0.2,1.2000000000000002,2.6,9.200000000000001,3.0,-6.6000000000000005,11.000000000000002,50.6
1698419363370.0,16,-0.5,-0.8,0.30000000000000004,0.6000000000000001,8.6,2.2,-13.9,22.2,32.2
1698419363387.0,16,-1.3,-1.0,0.1,-0.8,8.0,1.7000000000000002,-18.3,22.7,26.0
1698419363404.0,16,-2.5,-1.7000000000000002,-0.6000000000000001,-1.4000000000000001,7.6000000000000005,1.5,-25.1,14.600000000000001,21.700000000000003
1698419363420.0,16,-2.9000000000000004,-2.7,-0.7000000000000001,-1.6,6.6000000000000005,1.4000000000000001,-27.8,7.2,21.6
1698419363437.0,16,-2.8000000000000003,-3.2,-0.7000000000000001,-1.5,5.7,1.4000000000000001,-26.3,7.1000000000000005,18.3
1698419363453.0,16,-2.6,-4.0,-0.9,-1.3,5.2,1.3,-19.700000000000003,5.300000000000001,7.2
1698419363470.0,16,-2.0,-4.5,-1.2000000000000002,-0.8,4.6000000000000005,1.1,-14.4,5.300000000000001,-4.9
1698419363487.0,16,-1.5,-4.6000000000000005,-1.3,-0.30000000000000004,4.5,1.0,-13.6,5.7,-13.4
1698419363503.0,16,-1.2000000000000002,-4.4,-1.2000000000000002,-0.1,4.7,1.1,-13.3,2.7,-14.600000000000001
1698419363520.0,16,-1.0,-3.6,-0.9,0.1,5.4,1.5,-10.8,-6.3,-12.000000000000002
1698419363537.0,16,-1.1,-2.9000000000000004,-0.7000000000000001,0.0,6.1000000000000005,1.6,-9.600000000000001,-9.8,-7.9
1698419363554.0,16,-1.4000000000000001,-0.5,-0.4,-0.4,8.5,2.0,-10.8,-17.400000000000002,3.3000000000000003
1698419363570.0,16,-2.3000000000000003,1.1,-1.0,-1.1,10.100000000000001,1.4000000000000001,-25.5,-42.5,18.0
1698419363587.0,16,-2.2,0.8,-1.5,-1.1,9.8,0.9,-43.0,-50.800000000000004,24.400000000000002
1698419363604.0,16,-2.0,-0.7000000000000001,-3.0,-0.8,8.200000000000001,-0.4,-79.7,-45.1,16.2
1698419363620.0,16,-2.5,-0.9,-3.8000000000000003,-1.3,7.9,-0.9,-106.80000000000001,-41.800000000000004,-13.4
1698419363637.0,16,-2.2,-0.5,-3.8000000000000003,-1.0,8.3,-0.7000000000000001,-116.00000000000001,-39.2,-29.000000000000004
1698419363654.0,16,-0.2,1.2000000000000002,-3.0,0.9,9.9,0.4,-117.20000000000002,-30.9,-54.7
1698419363670.0,16,1.9000000000000001,4.2,-1.5,2.9000000000000004,12.8,2.1,-86.1,-18.8,-59.60000000000001
1698419363687.0,16,2.7,5.6000000000000005,-1.3,4.4,15.0,1.8,-21.200000000000003,-27.900000000000002,-37.300000000000004
1698419363703.0,16,4.1000000000000005,6.2,-2.2,5.0,14.8,1.4000000000000001,7.8,-34.900000000000006,-23.1
1698419363720.0,16,3.7,5.7,2.0,4.6000000000000005,14.4,5.5,68.3,-20.2,2.8
1698419363737.0,16,5.4,6.1000000000000005,-0.2,6.4,15.0,3.0,131.79999999999998,45.4,-24.1
1698419363754.0,16,2.3000000000000003,2.0,1.6,3.1,11.0,4.5,138.20000000000002,84.1,-38.6
1698419363771.0,16,0.1,-0.1,8.5,0.9,9.0,11.200000000000001,96.60000000000001,49.5,-14.500000000000002
1698419363787.0,16,-0.30000000000000004,-1.3,5.300000000000001,0.30000000000000004,7.9,7.9,76.0,70.39999999999999,-12.000000000000002
1698419363804.0,16,-2.2,-2.2,1.7000000000000002,-1.6,7.0,4.1000000000000005,49.9,34.800000000000004,-8.4
1698419363820.0,16,-3.9000000000000004,0.5,3.2,-3.3000000000000003,9.8,5.5,82.50000000000001,-12.8,7.6
1698419363837.0,16,-3.3000000000000003,6.300000000000001,5.5,-2.7,15.700000000000001,7.5,95.2,-55.0,0.7
1698419363853.0,16,-2.5,8.4,9.5,-1.9000000000000001,17.8,11.4,29.800000000000004,-28.400000000000002,-16.6
1698419363870.0,16,-1.9000000000000001,1.7000000000000002,-0.30000000000000004,-1.6,11.200000000000001,1.6,0.2,10.2,-55.1
1698419363887.0,16,-0.9,-1.7000000000000002,1.2000000000000002,-0.7000000000000001,7.800000000000001,3.3000000000000003,-36.5,-23.8,-63.4
1698419363904.0,16,0.2,-2.0,0.4,0.30000000000000004,7.5,2.5,-41.800000000000004,-26.8,-54.0
1698419363920.0,16,2.1,-2.9000000000000004,-0.5,2.1,6.4,1.7000000000000002,-36.2,-15.8,-30.000000000000004
1698419363937.0,16,3.5,-3.9000000000000004,-0.7000000000000001,3.5,5.4,1.7000000000000002,-26.9,-3.3000000000000003,-7.300000000000001
1698419363953.0,16,3.2,-4.3,-0.9,3.2,5.0,1.5,-21.8,-3.0000000000000004,0.2
1698419363970.0,16,1.9000000000000001,-4.7,-1.5,2.0,4.5,0.9,-16.5,-3.5,8.4
1698419363987.0,16,0.8,-4.800000000000001,-1.7000000000000002,1.0,4.4,0.8,-17.1,-12.5,11.700000000000001
1698419364004.0,16,0.5,-4.6000000000000005,-1.6,0.7000000000000001,4.5,0.9,-17.3,-18.7,14.700000000000001
1698419364020.0,16,-0.1,-4.0,-1.5,0.1,5.1000000000000005,1.0,-16.1,-20.5,21.6
1698419364037.0,16,-0.6000000000000001,-3.1,-1.6,-0.30000000000000004,5.9,0.9,-14.500000000000002,-13.3,24.8
1698419364053.0,16,-0.8,-2.6,-1.7000000000000002,-0.4,6.4,0.8,-13.8,-11.700000000000001,23.400000000000002
1698419364070.0,16,-0.6000000000000001,-2.0,-2.0,-0.2,7.0,0.6000000000000001,-15.5,-10.5,11.3
1698419364087.0,16,0.1,-1.9000000000000001,-2.0,0.5,7.0,0.6000000000000001,-22.000000000000004,-5.1,-14.3
1698419364104.0,16,0.7000000000000001,-1.9000000000000001,-2.0,1.1,7.0,0.6000000000000001,-25.5,-0.5,-27.8
1698419364120.0,16,2.5,-1.4000000000000001,-2.1,2.7,7.5,0.6000000000000001,-36.0,22.6,-42.900000000000006
1698419364137.0,16,4.5,0.30000000000000004,-2.2,4.6000000000000005,9.1,0.6000000000000001,-42.7,54.4,-38.2
1698419364154.0,16,4.5,0.9,-2.5,3.7,10.0,0.4,-42.7,63.4,-28.500000000000004
1698419364171.0,16,2.7,1.4000000000000001,-2.3000000000000003,2.7,10.200000000000001,0.7000000000000001,-37.7,63.4,18.6
1698419364187.0,16,0.4,2.3000000000000003,-3.0,0.5,11.100000000000001,0.1,-22.7,45.9,50.9
1698419364204.0,16,-0.9,2.9000000000000004,-3.7,-0.8,11.700000000000001,-0.6000000000000001,-15.7,17.400000000000002,50.1
1698419364220.0,16,-2.8000000000000003,3.7,-2.5,-2.5,12.5,0.6000000000000001,-9.5,-12.9,30.599999999999998
1698419364237.0,16,-3.2,4.4,1.5,-3.0,13.3,4.6000000000000005,9.9,36.2,-15.6
1698419364253.0,16,-3.4000000000000004,7.9,4.0,-3.2,16.8,7.0,57.5,37.300000000000004,-32.0
1698419364270.0,16,-2.2,8.700000000000001,0.0,-2.0,17.900000000000002,2.6,148.4,-45.6,26.1
1698419364287.0,16,0.0,-0.7000000000000001,7.300000000000001,0.30000000000000004,8.6,9.4,178.0,-100.10000000000001,18.1
1698419364304.0,16,0.8,-0.8,6.800000000000001,1.2000000000000002,8.6,8.6,56.300000000000004,-21.1,21.0
1698419364320.0,16,2.5,-0.30000000000000004,2.5,2.9000000000000004,9.0,4.3,-9.4,-42.6,-3.3000000000000003
1698419364337.0,16,3.3000000000000003,0.6000000000000001,4.0,3.6,9.9,5.9,-8.0,21.900000000000002,-42.7
1698419364354.0,16,4.2,4.3,3.7,4.4,13.700000000000001,5.5,61.0,31.5,-35.5
1698419364370.0,16,4.0,5.300000000000001,2.4000000000000004,4.2,14.700000000000001,4.0,91.60000000000001,17.200000000000003,-6.1000000000000005
1698419364387.0,16,2.1,1.6,4.800000000000001,2.5,11.100000000000001,6.2,59.20000000000001,23.0,69.60000000000001
1698419364404.0,16,1.5,0.8,3.7,1.3,9.3,3.3000000000000003,21.900000000000002,33.800000000000004,82.7
1698419364420.0,16,-0.6000000000000001,-1.1,1.0,0.1,8.3,2.4000000000000004,-5.9,37.300000000000004,80.0
1698419364437.0,16,-2.4000000000000004,-0.7000000000000001,0.5,-1.5,8.700000000000001,2.0,-7.300000000000001,31.8,60.300000000000004
1698419364454.0,16,-2.9000000000000004,-0.4,0.5,-1.9000000000000001,9.1,2.0,-7.300000000000001,32.300000000000004,45.7
1698419364473.0,16,-3.1,-0.8,0.4,-2.0,8.6,2.0,-3.9,18.6,21.1
1698419364487.0,16,-2.3000000000000003,-2.2,0.4,-1.3,7.2,1.9000000000000001,-0.4,6.000000000000001,12.200000000000001
1698419364504.0,16,-1.9000000000000001,-3.2,0.30000000000000004,-0.8,6.2,1.9000000000000001,0.4,4.9,6.1000000000000005
1698419364520.0,16,-1.7000000000000002,-3.5,0.30000000000000004,-0.7000000000000001,5.9,1.8,-0.8,6.3,4.1000000000000005
1698419364537.0,16,-1.2000000000000002,-3.6,0.30000000000000004,-0.1,5.7,1.9000000000000001,-5.9,13.8,2.3000000000000003
1698419364553.0,16,-0.9,-3.1,0.0,0.2,6.2,1.7000000000000002,-8.799999999999999,12.100000000000001,4.2
1698419364570.0,16,-0.9,-2.6,0.0,0.2,6.6000000000000005,1.6,-9.600000000000001,9.200000000000001,6.8
1698419364587.0,16,-1.3,-2.0,0.0,-0.2,7.300000000000001,1.7000000000000002,-10.5,3.6,14.800000000000002
1698419364604.0,16,-2.1,-1.3,-0.1,-0.9,7.9,1.6,-12.4,-0.5,21.1
1698419364620.0,16,-2.5,-1.0,-0.1,-1.3,8.200000000000001,1.6,-15.2,-4.300000000000001,22.2
1698419364637.0,16,-3.2,-0.8,-0.5,-2.0,8.3,1.3,-24.9,-17.8,22.900000000000002
1698419364653.0,16,-3.4000000000000004,-1.1,-0.9,-2.1,8.0,1.0,-38.300000000000004,-29.1,20.0
1698419364671.0,16,-3.6,-1.1,-1.3,-2.3000000000000003,8.0,0.7000000000000001,-45.2,-33.1,16.1
1698419364687.0,16,-2.8000000000000003,-0.8,-2.1,-1.5,8.3,-0.1,-62.4,-41.5,4.5
1698419364703.0,16,-2.0,-0.1,-2.2,-0.7000000000000001,8.9,0.1,-76.7,-48.9,-7.1000000000000005
1698419364720.0,16,-1.3,0.6000000000000001,-2.0,0.0,9.5,0.4,-79.00000000000001,-46.900000000000006,-8.700000000000001
1698419364737.0,16,0.2,1.3,-1.6,1.6,10.200000000000001,1.0,-65.5,-56.1,-5.500000000000001
1698419364754.0,16,0.4,0.9,-1.6,1.8,9.700000000000001,1.1,-41.300000000000004,-76.9,5.1
1698419364770.0,16,0.2,0.5,-1.3,1.7000000000000002,9.4,1.4000000000000001,-31.0,-78.60000000000001,15.2
1698419364787.0,16,-0.5,0.4,-1.2000000000000002,1.1,9.200000000000001,1.5,-11.4,-78.60000000000001,22.7
1698419364804.0,16,-1.2000000000000002,1.0,-1.0,0.6000000000000001,9.8,1.7000000000000002,-1.4,-60.400000000000006,5.0
1698419364820.0,16,-1.3,0.9,-1.5,0.4,9.700000000000001,1.1,-0.9,-53.6,-3.7000000000000006
1698419364837.0,16,-1.7000000000000002,1.0,-2.7,0.0,9.9,-0.1,-16.0,-48.400000000000006,-8.9
1698419364854.0,16,-2.6,2.0,-1.5,-0.9,10.9,1.2000000000000002,-36.3,-53.7,-8.0
1698419364870.0,16,2.2,8.1,1.9000000000000001,3.9000000000000004,17.0,4.5,-28.0,-73.4,-9.5
1698419364887.0,16,2.1,6.300000000000001,3.3000000000000003,3.8000000000000003,15.3,6.0,8.9,-60.8,-61.1
1698419364904.0,16,4.4,-0.2,2.7,5.9,8.8,5.300000000000001,43.2,-37.6,-73.50000000000001
1698419364920.0,16,0.4,-2.4000000000000004,4.7,1.8,6.6000000000000005,7.2,-12.8,-55.800000000000004,-53.300000000000004
1698419364944.0,16,2.5,1.4000000000000001,6.6000000000000005,3.9000000000000004,10.4,9.3,-29.300000000000004,-67.3,-11.8
1698419364953.0,16,3.8000000000000003,7.1000000000000005,7.5,5.300000000000001,16.1,10.200000000000001,4.1000000000000005,-87.2,-28.1
1698419364970.0,16,3.1,9.3,3.0,4.5,18.400000000000002,5.6000000000000005,29.900000000000006,-73.10000000000001,-50.2
1698419364987.0,16,-0.6000000000000001,1.3,4.5,0.7000000000000001,10.5,7.0,31.8,-72.5,-42.400000000000006
1698419365003.0,16,-1.3,1.5,3.5,0.0,10.700000000000001,5.9,12.9,-112.60000000000001,-22.000000000000004
1698419365020.0,16,-0.1,1.1,3.3000000000000003,1.2000000000000002,10.4,5.7,-35.1,-129.8,-23.900000000000002
1698419365037.0,16,0.9,-0.2,0.1,2.2,9.0,2.7,-68.1,-127.00000000000001,-24.9
1698419365054.0,16,0.8,-1.0,0.1,2.2,8.200000000000001,2.9000000000000004,-68.9,-145.0,-30.599999999999998
1698419365070.0,16,0.7000000000000001,-0.1,0.8,2.1,9.0,3.7,-56.2,-137.1,-47.2
1698419365087.0,16,0.9,-0.6000000000000001,0.6000000000000001,2.3000000000000003,8.5,3.5,-49.2,-122.10000000000001,-65.2
1698419365103.0,16,1.5,-2.6,0.2,2.7,6.4,3.3000000000000003,-56.400000000000006,-102.4,-87.5
1698419365120.0,16,2.2,-4.5,-1.4000000000000001,2.9000000000000004,5.4,2.3000000000000003,-52.800000000000004,-91.7,-88.00000000000001
1698419365137.0,16,2.7,-5.2,-1.7000000000000002,3.7,3.8000000000000003,1.5,-45.2,-97.60000000000001,-70.8
1698419365153.0,16,2.7,-5.4,-1.5,3.7,3.4000000000000004,1.8,-38.800000000000004,-107.9,-37.300000000000004
1698419365170.0,16,2.2,-3.4000000000000004,-1.1,3.3000000000000003,5.4,2.3000000000000003,-25.8,-105.9,-7.400000000000001
1698419365187.0,16,1.6,-2.4000000000000004,-0.5,2.8000000000000003,6.4,2.8000000000000003,-19.500000000000004,-105.80000000000001,-5.0
1698419365203.0,16,0.4,-1.0,0.8,1.7000000000000002,7.7,4.2,-17.3,-93.60000000000001,-18.1
1698419365220.0,16,0.2,0.30000000000000004,-0.4,1.4000000000000001,9.0,3.1,-33.5,-98.7,-35.5
1698419365236.0,16,-0.30000000000000004,0.30000000000000004,-0.7000000000000001,0.9,9.0,2.7,-34.400000000000006,-102.9,-44.5
1698419365253.0,16,-1.0,-0.6000000000000001,-1.2000000000000002,0.2,8.1,2.3000000000000003,-25.8,-102.9,-55.4
1698419365270.0,16,-0.8,-1.1,-1.3,0.4,7.7,2.1,-13.6,-110.60000000000001,-58.2
1698419365287.0,16,-0.5,-0.8,-0.8,0.7000000000000001,7.9,2.6,-10.8,-114.00000000000001,-58.60000000000001
1698419365303.0,16,0.2,0.5,0.0,1.3,9.3,3.4000000000000004,-12.4,-117.8,-59.60000000000001
1698419365320.0,16,0.8,0.5,-0.2,1.9000000000000001,9.200000000000001,3.3000000000000003,-19.400000000000002,-125.9,-63.0
1698419365337.0,16,0.9,0.30000000000000004,-0.1,1.9000000000000001,9.0,3.3000000000000003,-20.2,-129.8,-63.6
1698419365353.0,16,0.5,0.1,-0.4,1.5,8.8,3.1,-15.2,-134.9,-60.900000000000006
1698419365370.0,16,-0.30000000000000004,0.2,-0.7000000000000001,0.8,9.0,2.8000000000000003,-12.4,-142.0,-58.2
1698419365387.0,16,-0.6000000000000001,0.2,-0.7000000000000001,0.5,9.0,2.8000000000000003,-12.8,-147.10000000000002,-58.800000000000004
1698419365403.0,16,-0.9,0.2,-0.6000000000000001,0.1,9.0,2.8000000000000003,-14.4,-156.7,-60.7
1698419365420.0,16,-0.6000000000000001,0.7000000000000001,-0.4,0.5,9.4,3.0,-17.9,-161.8,-65.89999999999999
1698419365437.0,16,-0.2,0.8,-0.5,0.8,9.600000000000001,2.9000000000000004,-18.3,-159.6,-70.0
1698419365454.0,16,0.5,0.5,-0.6000000000000001,1.5,9.3,2.8000000000000003,-16.1,-157.3,-74.89999999999999
1698419365470.0,16,1.6,0.1,-0.5,2.5,8.9,2.9000000000000004,-13.9,-148.9,-73.50000000000001
1698419365487.0,16,2.0,0.0,-0.30000000000000004,2.9000000000000004,8.8,3.1,-13.4,-143.6,-71.2
1698419365504.0,16,2.5,-0.30000000000000004,0.0,3.4000000000000004,8.5,3.4000000000000004,-12.200000000000001,-133.50000000000003,-62.199999999999996
1698419365520.0,16,2.3000000000000003,-0.6000000000000001,0.4,3.2,8.200000000000001,3.8000000000000003,-9.8,-121.19999999999999,-48.50000000000001
1698419365537.0,16,1.9000000000000001,-0.8,0.4,2.8000000000000003,8.0,3.8000000000000003,-6.7,-114.80000000000001,-41.2
1698419365553.0,16,0.7000000000000001,-0.5,0.30000000000000004,1.7000000000000002,8.3,3.6,2.7,-102.60000000000001,-28.6
1698419365570.0,16,0.0,0.6000000000000001,0.2,0.9,9.4,3.5,14.600000000000001,-99.0,-20.3
1698419365587.0,16,-0.30000000000000004,1.5,-0.6000000000000001,0.7000000000000001,10.4,2.6,18.900000000000002,-106.7,-16.0
1698419365604.0,16,-0.6000000000000001,2.0,-1.3,0.5,10.9,1.8,13.700000000000001,-132.3,-7.500000000000001
1698419365620.0,16,-0.9,-0.6000000000000001,-2.0,0.4,8.3,1.1,0.2,-133.4,-2.1
1698419365637.0,16,-1.3,-1.3,-2.1,0.0,7.6000000000000005,0.9,-7.699999999999999,-125.30000000000001,-3.4
1698419365654.0,16,-2.8000000000000003,0.30000000000000004,-2.4000000000000004,-1.4000000000000001,9.200000000000001,0.6000000000000001,-18.5,-119.5,-13.3
1698419365670.0,16,-4.0,3.4000000000000004,-2.2,-2.6,12.3,0.8,-22.6,-116.30000000000001,-32.300000000000004
1698419365687.0,16,-3.8000000000000003,4.2,-1.9000000000000001,-2.5,13.100000000000001,1.0,-21.1,-113.3,-47.800000000000004
1698419365704.0,16,-2.4000000000000004,3.0,-2.1,-1.1,12.0,0.8,-15.7,-115.2,-79.7
1698419365720.0,16,-0.6000000000000001,1.9000000000000001,-1.9000000000000001,0.5,10.9,1.0,-10.4,-118.00000000000001,-78.00000000000001
1698419365737.0,16,-0.4,0.7000000000000001,-2.2,0.6000000000000001,9.700000000000001,0.7000000000000001,-7.8,-119.1,-67.0
1698419365754.0,16,-0.7000000000000001,0.5,-2.2,0.30000000000000004,9.5,0.7000000000000001,-5.7,-126.1,-45.6
1698419365770.0,16,-2.1,1.0,-2.2,-1.1,10.0,0.7000000000000001,-5.2,-128.5,-43.300000000000004
1698419365787.0,16,-3.2,1.3,-2.2,-2.3000000000000003,10.4,0.6000000000000001,-6.4,-131.9,-46.7
1698419365804.0,16,-3.3000000000000003,1.3,-2.2,-2.4000000000000004,10.3,0.5,-8.799999999999999,-134.70000000000002,-48.50000000000001
1698419365820.0,16,-3.1,0.9,-2.0,-2.3000000000000003,10.0,0.7000000000000001,-17.7,-143.70000000000002,-57.6
1698419365837.0,16,-2.9000000000000004,0.7000000000000001,-2.0,-2.1,9.700000000000001,0.8,-23.0,-150.0,-62.900000000000006
1698419365854.0,16,-2.0,0.4,-1.8,-1.2000000000000002,9.5,1.0,-33.5,-161.3,-68.60000000000001
1698419365870.0,16,-1.2000000000000002,-0.1,-2.0,-0.6000000000000001,8.9,0.9,-43.50000000000001,-160.4,-71.0
1698419365887.0,16,-0.6000000000000001,-0.6000000000000001,-2.2,-0.1,8.4,0.8,-50.6,-156.6,-69.80000000000001
1698419365903.0,16,-0.5,-0.8,-2.2,0.0,8.200000000000001,0.8,-51.6,-155.0,-67.3
1698419365920.0,16,-0.5,-0.8,-2.3000000000000003,0.0,8.200000000000001,0.8,-47.5,-151.60000000000002,-59.9
1698419365937.0,16,-0.6000000000000001,-0.8,-2.2,-0.2,8.1,1.2000000000000002,-42.2,-151.3,-55.2
1698419365954.0,16,-0.9,-0.9,-2.1,-0.30000000000000004,7.9,1.1,-24.9,-153.60000000000002,-44.6
1698419365970.0,16,-1.2000000000000002,-1.4000000000000001,-2.2,-0.6000000000000001,7.5,1.0,-5.2,-161.8,-35.8
1698419365987.0,16,-1.9000000000000001,-1.6,-1.8,-1.2000000000000002,7.300000000000001,1.3,3.3000000000000003,-164.8,-31.5
1698419366004.0,16,-2.2,-1.5,-1.6,-1.5,7.4,1.4000000000000001,20.8,-165.10000000000002,-22.1
1698419366020.0,16,-2.6,-1.0,-1.3,-1.8,7.9,1.6,36.1,-160.10000000000002,-13.8
1698419366037.0,16,-2.2,-0.1,0.0,-1.3,8.9,2.7,50.9,-157.4,-9.8
1698419366053.0,16,-1.5,0.7000000000000001,0.6000000000000001,-0.5,9.700000000000001,3.2,59.00000000000001,-156.20000000000002,-10.5
1698419366071.0,16,1.3,2.3000000000000003,4.2,2.3000000000000003,11.3,6.6000000000000005,57.3,-131.6,-18.1
1698419366087.0,16,3.6,2.4000000000000004,0.2,3.9000000000000004,11.9,4.1000000000000005,9.0,-104.2,-19.6
1698419366103.0,16,3.3000000000000003,1.3,0.6000000000000001,4.4,10.4,3.0,-39.699999999999996,-172.2,-50.0
1698419366120.0,16,2.6,-0.2,-0.9,3.6,8.9,1.5,-40.0,-93.5,-52.50000000000001
1698419366137.0,16,1.5,0.0,-1.4000000000000001,2.5,9.0,1.2000000000000002,-41.4,-64.50000000000001,-38.900000000000006
1698419366154.0,16,0.30000000000000004,0.1,-1.0,1.2000000000000002,9.1,1.6,-37.900000000000006,-63.900000000000006,-31.7
1698419366171.0,16,-1.0,1.0,-1.0,-0.1,10.0,1.7000000000000002,-20.4,-56.5,-19.700000000000003
1698419366187.0,16,-0.6000000000000001,1.6,-1.3,0.30000000000000004,10.700000000000001,1.4000000000000001,-5.300000000000001,-53.2,-22.8
1698419366204.0,16,-0.1,1.3,-1.0,0.8,10.4,1.7000000000000002,3.6,-58.9,-24.6
1698419366220.0,16,0.5,0.4,-0.6000000000000001,1.4000000000000001,9.4,2.0,22.900000000000002,-56.6,-30.000000000000004
1698419366237.0,16,1.0,-0.1,-0.6000000000000001,2.1,8.5,2.1,34.800000000000004,-47.300000000000004,-36.6
1698419366254.0,16,1.5,-0.9,-0.1,2.3000000000000003,8.3,2.3000000000000003,37.800000000000004,-41.4,-37.300000000000004
1698419366270.0,16,1.7000000000000002,-1.2000000000000002,0.4,2.4000000000000004,7.9,2.6,37.900000000000006,-28.0,-29.1
1698419366287.0,16,1.4000000000000001,-0.9,0.7000000000000001,2.1,8.3,2.9000000000000004,6.000000000000001,-11.9,-8.0
1698419366303.0,16,1.3,-0.9,0.1,2.0,8.200000000000001,2.3000000000000003,-6.3,-22.4,2.3000000000000003
1698419366320.0,16,0.9,-0.4,0.2,1.7000000000000002,8.700000000000001,2.4000000000000004,-1.9,-10.600000000000001,15.399999999999999
1698419366337.0,16,0.8,0.0,-0.1,1.6,9.200000000000001,2.1,11.2,-3.9,17.3
1698419366354.0,16,0.8,0.30000000000000004,-0.1,1.7000000000000002,9.600000000000001,2.1,18.2,-4.9,15.000000000000002
1698419366371.0,16,0.7000000000000001,0.6000000000000001,0.0,1.6,9.8,2.1,27.7,-8.200000000000001,12.200000000000001
1698419366387.0,16,0.5,0.8,0.4,1.4000000000000001,10.0,2.4000000000000004,22.000000000000004,-7.300000000000001,14.0
1698419366404.0,16,0.2,0.7000000000000001,0.2,1.2000000000000002,9.9,2.2,7.500000000000001,-9.600000000000001,15.000000000000002
1698419366420.0,16,-0.6000000000000001,0.1,-0.30000000000000004,0.4,9.3,1.7000000000000002,-5.7,-19.9,8.0
1698419366441.0,16,-0.30000000000000004,-0.30000000000000004,-0.7000000000000001,0.7000000000000001,8.9,1.3,-6.3,-16.6,2.3000000000000003
1698419366455.0,16,0.1,-0.30000000000000004,-0.9,1.2000000000000002,8.9,1.1,-6.1000000000000005,-18.6,-0.4
1698419366471.0,16,0.30000000000000004,0.0,-1.0,1.4000000000000001,9.1,1.1,-6.4,-16.6,-0.2
1698419366487.0,16,0.30000000000000004,0.6000000000000001,-0.9,1.4000000000000001,9.8,1.1,-5.8,-16.5,-0.5
1698419366503.0,16,-0.1,1.0,-1.0,1.0,10.100000000000001,1.1,-4.3999999999999995,-17.7,-1.9
1698419366520.0,16,-0.4,1.0,-0.9,0.7000000000000001,10.100000000000001,1.1,-2.9,-24.3,-3.8
1698419366537.0,16,-0.7000000000000001,0.5,-0.7000000000000001,0.4,9.700000000000001,1.3,-5.8,-27.6,-3.9
1698419366553.0,16,-0.8,0.0,-0.6000000000000001,0.30000000000000004,9.200000000000001,1.4000000000000001,-13.5,-26.0,-4.800000000000001
1698419366570.0,16,-0.7000000000000001,0.0,-0.7000000000000001,0.4,9.200000000000001,1.4000000000000001,-18.3,-24.6,-5.4
1698419366587.0,16,-0.30000000000000004,0.2,-1.0,0.8,9.4,1.2000000000000002,-28.0,-26.3,-6.3
1698419366604.0,16,0.2,0.4,-1.0,1.1,9.5,1.1,-32.4,-28.6,-7.2
1698419366620.0,16,0.2,0.30000000000000004,-1.0,1.3,9.4,1.3,-38.5,-29.500000000000004,-8.9
1698419366637.0,16,0.2,0.1,-1.1,1.3,9.200000000000001,1.2000000000000002,-40.2,-27.0,-7.1000000000000005
1698419366653.0,16,0.2,0.1,-1.1,1.3,9.200000000000001,1.3,-40.5,-24.3,-4.9
1698419366670.0,16,0.1,0.2,-1.2000000000000002,1.2000000000000002,9.3,1.3,-39.6,-15.5,0.7
1698419366687.0,16,0.1,0.0,-1.3,1.2000000000000002,9.0,1.3,-38.1,-14.900000000000002,4.5
1698419366704.0,16,0.1,-0.1,-1.4000000000000001,1.2000000000000002,8.9,1.3,-38.1,-12.8,4.9
1698419366720.0,16,0.1,-0.1,-1.4000000000000001,1.3,8.8,1.4000000000000001,-38.800000000000004,-7.9,5.300000000000001
1698419366737.0,16,0.1,-0.30000000000000004,-1.5,1.3,8.700000000000001,1.4000000000000001,-39.50000000000001,1.3,7.2
1698419366754.0,16,-0.1,-0.4,-1.7000000000000002,1.1,8.5,1.3,-37.900000000000006,7.0,10.3
1698419366770.0,16,-0.1,-0.4,-2.0,1.1,8.5,1.0,-37.300000000000004,9.700000000000001,12.100000000000001
1698419366787.0,16,-0.2,-0.4,-2.5,1.0,8.4,0.6000000000000001,-37.900000000000006,11.1,14.800000000000002
1698419366803.0,16,-0.30000000000000004,-0.30000000000000004,-2.9000000000000004,1.0,8.5,0.4,-39.1,11.1,16.900000000000002
1698419366822.0,16,-0.2,0.0,-2.9000000000000004,1.1,8.8,0.4,-38.800000000000004,10.700000000000001,17.200000000000003
1698419366837.0,16,-0.1,0.6000000000000001,-2.6,1.3,9.3,0.8,-33.0,14.600000000000001,12.5
1698419366853.0,16,0.1,1.1,-2.6,1.5,9.700000000000001,0.8,-19.3,22.000000000000004,4.5
1698419366870.0,16,0.30000000000000004,1.0,-2.7,1.7000000000000002,9.700000000000001,0.8,-11.4,25.900000000000002,2.3000000000000003
1698419366887.0,16,0.6000000000000001,1.2000000000000002,-1.6,1.9000000000000001,9.8,1.8,6.6000000000000005,27.6,3.2
1698419366904.0,16,0.6000000000000001,2.0,-0.5,1.7000000000000002,11.700000000000001,2.9000000000000004,25.1,17.200000000000003,7.6
1698419366920.0,16,0.0,3.5,-1.6,1.4000000000000001,12.3,1.6,70.7,-19.1,26.3
1698419366937.0,16,-0.1,3.1,0.1,1.4000000000000001,12.0,3.1,72.6,-23.0,26.3
1698419366954.0,16,-0.8,4.0,1.4000000000000001,0.7000000000000001,13.0,4.1000000000000005,72.7,-9.4,-4.5
1698419366971.0,16,-0.30000000000000004,4.0,2.0,1.2000000000000002,13.0,4.7,58.800000000000004,5.7,-15.9
1698419366987.0,16,0.4,4.800000000000001,4.800000000000001,1.8,13.9,7.4,30.4,13.6,-23.2
1698419367004.0,16,0.5,4.7,3.5,1.9000000000000001,13.9,6.1000000000000005,13.3,9.3,-12.3
1698419367021.0,16,0.5,3.3000000000000003,3.2,1.8,12.5,5.800000000000001,14.3,17.400000000000002,-0.5
1698419367037.0,16,0.6000000000000001,-0.2,3.7,1.9000000000000001,9.0,6.2,21.0,22.8,11.3
1698419367054.0,16,1.1,-2.0,2.1,2.5,7.2,4.6000000000000005,1.2000000000000002,33.0,9.0
1698419367070.0,16,1.0,-2.1,0.9,2.4000000000000004,7.1000000000000005,3.5,-5.300000000000001,34.2,10.8
1698419367087.0,16,-0.4,-1.2000000000000002,0.2,1.0,8.0,2.8000000000000003,-3.1,20.7,26.6
1698419367104.0,16,-2.5,-0.5,-0.2,-1.0,8.6,2.4000000000000004,0.8,11.1,41.300000000000004
1698419367120.0,16,-2.8000000000000003,-1.0,-0.2,-1.1,8.5,2.4000000000000004,2.7,2.8,42.2
1698419367137.0,16,-2.9000000000000004,-1.6,-0.2,-1.3,7.5,2.4000000000000004,3.5,3.6,17.0
1698419367153.0,16,-3.2,-2.4000000000000004,-0.30000000000000004,-1.4000000000000001,5.9,2.2,1.0,12.100000000000001,-11.3
1698419367171.0,16,-1.7000000000000002,-4.3,-0.30000000000000004,-0.2,4.800000000000001,2.3000000000000003,1.3,22.4,-18.7
1698419367189.0,16,-1.0,-4.5,-0.5,0.5,4.5,2.1,3.5,23.5,-17.599999999999998
1698419367204.0,16,-0.2,-4.7,-0.9,1.2000000000000002,4.3,1.7000000000000002,6.1000000000000005,14.3,-6.2
1698419367220.0,16,-0.2,-4.6000000000000005,-0.9,0.9,4.800000000000001,1.7000000000000002,6.6000000000000005,8.9,2.8
1698419367237.0,16,-1.0,-3.5,-0.9,0.4,5.5,1.7000000000000002,8.9,5.9,16.2
1698419367254.0,16,-1.7000000000000002,-2.1,-0.8,-0.2,6.800000000000001,1.7000000000000002,10.2,9.700000000000001,18.900000000000002
1698419367270.0,16,-1.7000000000000002,-1.6,-0.7000000000000001,-0.2,7.300000000000001,1.8,10.600000000000001,20.2,15.5
1698419367286.0,16,-1.4000000000000001,-1.9000000000000001,-0.9,0.1,7.0,1.6,10.0,21.900000000000002,13.4
1698419367303.0,16,-0.9,-2.5,-1.0,0.6000000000000001,6.4,1.4000000000000001,4.7,22.900000000000002,10.8
1698419367320.0,16,-0.6000000000000001,-2.2,-1.1,0.9,6.7,1.4000000000000001,-2.5,24.1,11.1
1698419367337.0,16,-0.7000000000000001,-1.5,-1.2000000000000002,0.8,7.4,1.3,-5.6,25.700000000000003,14.3
1698419367353.0,16,-1.2000000000000002,0.30000000000000004,-1.3,0.30000000000000004,9.1,1.2000000000000002,-10.5,26.8,26.8
1698419367370.0,16,-2.1,1.6,-1.5,-0.4,10.4,1.0,-13.9,19.700000000000003,40.3
1698419367387.0,16,-2.3000000000000003,2.0,-1.5,-0.6000000000000001,10.8,1.1,-16.2,14.100000000000001,41.0
1698419367403.0,16,-2.0,2.3000000000000003,-1.4000000000000001,-0.30000000000000004,11.100000000000001,1.2000000000000002,-18.2,5.0,29.900000000000006
1698419367420.0,16,-1.1,2.5,-1.0,0.7000000000000001,11.3,1.7000000000000002,-17.3,2.5,12.000000000000002
1698419367437.0,16,-0.8,2.7,-1.0,1.0,11.5,1.7000000000000002,-14.900000000000002,4.2,3.4
1698419367453.0,16,-0.6000000000000001,3.4000000000000004,-1.1,1.1,12.200000000000001,1.6,-11.2,8.5,-8.9
1698419367470.0,16,-1.2000000000000002,4.6000000000000005,-1.6,0.5,13.4,1.1,-9.9,-5.2,-19.6
1698419367487.0,16,-1.9000000000000001,4.7,-1.5,-0.2,13.5,1.3,-11.3,-15.2,-25.3
1698419367503.0,16,-2.7,4.5,-0.9,-1.1,13.4,1.9000000000000001,-15.7,-23.6,-28.200000000000003
1698419367520.0,16,-0.30000000000000004,8.3,4.2,1.1,17.2,7.0,-7.300000000000001,-24.400000000000002,-29.500000000000004
1698419367537.0,16,2.8000000000000003,9.600000000000001,1.1,4.2,18.6,3.8000000000000003,46.1,36.3,-53.6
1698419367553.0,16,4.2,3.4000000000000004,4.1000000000000005,5.300000000000001,12.5,6.800000000000001,-1.0999999999999999,67.3,-96.9
