ts,interval,accx,accy,accz,accGx,accGy,accGz,alpha,beta,gamma
1698420161013.0,16,0.0,0.0,0.0,0.4,9.5,0.0,-0.1,0.2,0.0
1698420161030.0,16,0.0,0.0,0.1,0.4,9.5,0.0,0.0,0.0,0.0
1698420161047.0,16,0.0,0.0,0.0,0.5,9.5,0.0,0.1,0.1,-0.1
1698420161063.0,16,0.0,0.0,0.0,0.4,9.5,0.0,0.0,0.2,-0.1
1698420161080.0,16,0.0,0.0,0.0,0.4,9.5,0.0,0.0,0.2,0.0
1698420161096.0,16,0.0,0.0,0.0,0.4,9.5,0.0,-0.1,0.1,0.0
1698420161113.0,16,0.0,0.0,0.0,0.4,9.5,0.0,-0.2,0.0,0.1
1698420161130.0,16,0.0,0.0,0.0,0.4,9.5,0.0,-0.1,0.1,0.1
1698420161146.0,16,0.0,0.0,0.0,0.5,9.5,0.0,-0.2,0.2,0.30000000000000004
1698420161163.0,16,0.0,0.0,0.0,0.5,9.5,0.0,-0.30000000000000004,0.2,0.1
1698420161179.0,16,0.0,0.0,0.0,0.4,9.5,0.0,-0.5,0.1,0.30000000000000004
1698420161196.0,16,0.0,0.0,0.0,0.4,9.5,0.0,-0.5,0.0,0.4
1698420161213.0,16,0.0,0.0,0.0,0.4,9.5,0.0,-0.5,-0.30000000000000004,0.1
1698420161230.0,16,0.0,0.0,0.0,0.4,9.5,0.0,-0.5,-0.30000000000000004,0.0
1698420161246.0,16,0.0,0.0,0.0,0.4,9.5,0.0,-0.6000000000000001,-0.30000000000000004,0.0
1698420161263.0,16,0.0,0.0,0.0,0.4,9.5,0.0,-0.30000000000000004,-0.5,0.1
1698420161280.0,16,0.0,0.0,0.0,0.5,9.5,0.0,-0.30000000000000004,-0.6000000000000001,0.2
1698420161296.0,16,0.0,0.0,0.0,0.4,9.5,0.0,-0.30000000000000004,-0.5,0.2
1698420161314.0,16,0.0,0.0,0.0,0.4,9.4,0.0,-0.30000000000000004,-0.6000000000000001,0.1
1698420161331.0,16,0.0,0.0,0.0,0.5,9.5,0.0,-0.2,-0.5,0.30000000000000004
1698420161346.0,16,0.0,0.0,0.0,0.5,9.5,0.0,-0.30000000000000004,-0.5,0.30000000000000004
1698420161363.0,16,0.0,0.0,0.0,0.5,9.5,0.0,-0.2,-0.5,0.2
1698420161380.0,16,0.0,0.0,0.0,0.5,9.5,0.0,-0.2,-0.5,0.2
1698420161397.0,16,0.0,0.0,0.0,0.4,9.5,0.0,-0.30000000000000004,-0.6000000000000001,0.1
1698420161413.0,16,0.0,0.0,0.0,0.4,9.5,0.0,-0.1,-0.5,0.0
1698420161430.0,16,0.0,0.0,0.0,0.4,9.5,-0.1,-0.1,-0.7,0.1
1698420161447.0,16,0.0,0.0,0.0,0.4,9.5,0.0,-0.1,-0.6000000000000001,0.1
1698420161463.0,16,0.0,0.0,0.0,0.4,9.5,0.0,-0.1,-0.9,0.0
1698420161480.0,16,0.0,0.0,0.0,0.5,9.5,0.0,-0.1,-1.0,0.1
1698420161496.0,16,0.0,0.0,0.0,0.5,9.5,0.0,0.1,-0.9,0.0
1698420161513.0,16,0.0,0.0,0.0,0.4,9.4,0.0,0.2,-0.9,-0.2
1698420161530.0,16,0.0,0.0,0.0,0.4,9.5,0.0,0.30000000000000004,-0.6000000000000001,-0.1
1698420161547.0,16,0.0,0.0,0.0,0.4,9.5,0.0,0.30000000000000004,-0.8,0.0
1698420161563.0,16,0.0,0.0,0.0,0.4,9.5,0.0,0.30000000000000004,-0.6000000000000001,0.0
1698420161580.0,16,0.0,0.0,0.0,0.4,9.5,0.0,0.4,-0.7,0.1
1698420161596.0,16,0.0,0.0,0.0,0.4,9.5,0.0,0.5,-0.6000000000000001,0.1
1698420161613.0,16,0.0,0.0,0.0,0.4,9.5,-0.1,0.30000000000000004,-0.6000000000000001,0.2
1698420161630.0,16,0.0,0.0,0.0,0.4,9.5,0.0,0.30000000000000004,-0.8,0.0
1698420161647.0,16,0.0,0.0,0.0,0.4,9.5,-0.1,0.30000000000000004,-0.8,-0.1
1698420161663.0,16,0.0,0.0,0.0,0.5,9.5,0.0,0.1,-0.6000000000000001,0.1
1698420161680.0,16,0.0,0.0,0.0,0.5,9.5,-0.1,0.0,-0.30000000000000004,-0.1
1698420161697.0,16,0.0,0.0,-0.1,0.5,9.5,-0.1,0.0,-0.1,-0.1
1698420161713.0,16,0.0,0.0,0.0,0.4,9.5,-0.1,-0.4,-0.5,0.30000000000000004
1698420161730.0,16,0.0,0.1,0.0,0.5,9.5,0.0,-0.6000000000000001,-0.2,0.2
1698420161747.0,16,0.0,0.0,0.0,0.5,9.5,0.0,-0.6000000000000001,-0.1,0.0
1698420161763.0,16,0.0,0.0,-0.1,0.4,9.5,-0.1,-0.9,-0.30000000000000004,-0.1
1698420161780.0,16,0.0,0.0,-0.1,0.4,9.5,-0.1,-1.7,-0.30000000000000004,-0.1
1698420161797.0,16,0.0,0.0,-0.1,0.4,9.5,-0.1,-1.9,-0.30000000000000004,0.0
1698420161813.0,16,0.0,0.0,-0.1,0.5,9.5,-0.1,-2.3000000000000003,-0.30000000000000004,-0.1
1698420161830.0,16,0.0,0.0,0.0,0.5,9.5,0.0,-2.1999999999999997,-0.5,-0.2
1698420161847.0,16,0.0,0.0,0.0,0.4,9.5,0.0,-2.3000000000000003,-0.6000000000000001,-0.2
1698420161863.0,16,0.0,0.0,0.0,0.5,9.5,0.0,-2.1999999999999997,-0.5,-0.2
1698420161880.0,16,0.0,0.0,0.0,0.5,9.4,0.0,-2.1,-0.6000000000000001,-0.2
1698420161897.0,16,0.0,0.0,0.0,0.5,9.4,0.0,-2.1999999999999997,-0.30000000000000004,-0.30000000000000004
1698420161913.0,16,0.0,0.0,-0.1,0.5,9.4,-0.1,-1.9,-0.1,-0.30000000000000004
1698420161930.0,16,0.0,0.0,-0.1,0.5,9.4,-0.1,-1.4,0.2,-0.1
1698420161946.0,16,0.0,0.0,0.0,0.5,9.4,0.0,-1.4,0.30000000000000004,-0.1
1698420161963.0,16,0.0,0.0,0.0,0.5,9.4,0.0,-1.2000000000000002,0.6000000000000001,0.1
1698420161980.0,16,0.1,0.0,0.0,0.5,9.5,0.0,-0.9,0.9,0.1
1698420161996.0,16,0.1,0.0,0.0,0.5,9.4,0.0,-0.6000000000000001,1.0999999999999999,0.0
1698420162013.0,16,0.0,0.0,0.0,0.4,9.4,0.0,-0.30000000000000004,1.0,0.2
1698420162030.0,16,0.0,0.0,0.0,0.5,9.4,0.0,0.0,1.0999999999999999,0.30000000000000004
1698420162047.0,16,0.0,-0.1,0.0,0.4,9.4,0.1,0.30000000000000004,1.2000000000000002,0.4
1698420162063.0,16,0.0,0.0,0.0,0.4,9.4,0.0,0.6000000000000001,1.0999999999999999,0.30000000000000004
1698420162080.0,16,0.0,0.0,0.0,0.5,9.5,0.0,1.2000000000000002,0.9,0.30000000000000004
1698420162097.0,16,0.0,0.0,0.0,0.4,9.4,0.0,1.4,0.9,0.30000000000000004
1698420162113.0,16,0.0,0.0,0.0,0.4,9.4,0.0,1.6,0.9,0.2
1698420162130.0,16,0.0,-0.1,0.0,0.5,9.4,0.0,1.8,0.8,0.4
1698420162147.0,16,0.0,0.0,0.0,0.5,9.4,0.0,2.0,0.7,0.2
1698420162163.0,16,0.0,0.0,0.0,0.5,9.5,0.0,2.0,0.7,0.1
1698420162180.0,16,0.0,0.0,0.0,0.5,9.5,0.0,2.0,0.9,0.0
1698420162196.0,16,0.0,0.0,0.0,0.4,9.5,0.0,2.0,0.8,0.0
1698420162213.0,16,0.0,0.0,0.0,0.4,9.5,0.0,2.1,0.9,0.1
1698420162229.0,16,0.0,0.0,0.0,0.5,9.5,0.0,2.0,0.9,0.1
1698420162246.0,16,0.0,0.0,0.1,0.4,9.4,0.1,1.9,0.9,0.0
1698420162263.0,16,0.0,0.0,0.1,0.4,9.4,0.1,2.0,1.0999999999999999,0.0
1698420162280.0,16,0.0,0.0,0.1,0.4,9.5,0.0,2.1,0.9,0.0
1698420162296.0,16,0.0,0.0,0.1,0.4,9.5,0.1,2.1999999999999997,0.9,-0.1
1698420162313.0,16,0.0,0.0,0.1,0.5,9.5,0.1,2.4000000000000004,0.8,-0.1
1698420162331.0,16,0.0,0.0,0.1,0.4,9.5,0.0,2.3000000000000003,0.9,-0.1
1698420162346.0,16,0.0,0.0,0.1,0.5,9.5,0.0,2.1999999999999997,0.8,-0.1
1698420162364.0,16,0.0,0.0,0.1,0.4,9.5,0.0,2.0,0.8,-0.1
1698420162380.0,16,0.0,0.0,0.1,0.4,9.4,0.0,1.8,0.8,-0.1
1698420162396.0,16,0.0,0.1,0.1,0.4,9.5,0.0,1.9,0.7,0.1
1698420162413.0,16,0.0,0.0,0.1,0.4,9.5,0.0,2.0,0.5,0.1
1698420162430.0,16,0.0,0.0,0.1,0.4,9.5,0.0,1.7,0.30000000000000004,0.2
1698420162446.0,16,0.0,0.0,0.1,0.4,9.5,0.0,1.4,0.1,0.0
1698420162464.0,16,0.0,0.0,0.1,0.4,9.5,0.0,1.3,0.1,0.0
1698420162480.0,16,0.0,0.0,0.1,0.4,9.5,0.1,1.0999999999999999,0.2,-0.4
1698420162504.0,16,0.0,0.0,0.1,0.4,9.5,0.0,1.3,0.30000000000000004,-0.4
1698420162513.0,16,0.0,0.0,0.0,0.4,9.5,0.0,1.2000000000000002,0.2,-0.4
1698420162530.0,16,0.0,0.0,0.0,0.4,9.5,0.0,0.6000000000000001,-0.1,-0.1
1698420162546.0,16,0.0,0.1,0.1,0.5,9.5,0.0,0.1,0.0,-0.1
1698420162563.0,16,0.0,0.1,0.0,0.5,9.5,0.0,0.0,0.2,-0.2
1698420162580.0,16,0.0,0.0,0.0,0.4,9.5,0.0,-0.2,0.2,-0.2
1698420162596.0,16,0.0,0.0,0.0,0.4,9.5,-0.1,-0.30000000000000004,0.0,-0.1
1698420162613.0,16,0.0,0.0,0.0,0.5,9.5,-0.1,-0.5,0.0,0.2
1698420162630.0,16,0.0,0.0,0.0,0.4,9.5,-0.1,-0.8,0.0,-0.2
1698420162646.0,16,0.0,0.0,0.0,0.4,9.4,0.0,-0.9,0.1,-0.2
1698420162663.0,16,0.0,0.0,0.0,0.5,9.4,0.0,-0.8,0.0,-0.2
1698420162680.0,16,0.0,0.0,0.0,0.5,9.5,0.0,-0.6000000000000001,-0.1,-0.2
1698420162696.0,16,0.0,0.0,0.0,0.5,9.5,0.0,-0.5,-0.2,-0.4
1698420162713.0,16,0.0,0.0,0.0,0.5,9.5,-0.1,-0.5,0.1,-0.4
1698420162730.0,16,0.0,0.0,0.0,0.5,9.5,-0.1,-0.4,0.2,-0.5
1698420162746.0,16,0.0,0.0,0.0,0.4,9.4,-0.1,-0.30000000000000004,0.0,-0.30000000000000004
1698420162763.0,16,0.0,-0.1,0.0,0.4,9.4,-0.1,-0.1,-0.2,-0.1
1698420162780.0,16,0.0,0.0,0.0,0.5,9.4,-0.1,0.0,-0.30000000000000004,-0.2
1698420162796.0,16,0.1,0.0,0.0,0.5,9.4,-0.1,0.0,-0.4,-0.4
1698420162813.0,16,0.0,0.0,0.0,0.5,9.5,-0.1,0.30000000000000004,-0.30000000000000004,-0.4
1698420162830.0,16,0.0,0.0,0.0,0.5,9.5,0.0,0.30000000000000004,-0.4,-0.30000000000000004
1698420162846.0,16,0.0,0.0,0.0,0.5,9.5,0.0,0.30000000000000004,-0.5,-0.2
1698420162863.0,16,0.0,0.0,0.0,0.5,9.5,0.0,0.8,-0.30000000000000004,-0.4
1698420162880.0,16,0.0,0.0,0.0,0.5,9.5,-0.1,0.7,-0.4,-0.4
1698420162896.0,16,0.0,0.0,0.0,0.4,9.5,-0.1,0.6000000000000001,-0.4,-0.2
1698420162913.0,16,0.0,0.0,0.0,0.5,9.5,-0.1,0.5,-0.30000000000000004,0.0
1698420162930.0,16,0.0,0.0,0.0,0.5,9.5,-0.1,0.5,-0.4,0.1
1698420162946.0,16,0.0,0.0,0.0,0.5,9.5,-0.1,0.7,-0.2,0.0
1698420162963.0,16,0.0,0.0,0.0,0.5,9.5,-0.1,0.8,-0.1,0.1
1698420162980.0,16,0.0,0.0,0.0,0.5,9.5,-0.1,0.8,-0.1,-0.1
1698420162996.0,16,0.0,0.0,0.0,0.5,9.5,-0.1,0.8,-0.1,-0.1
1698420163013.0,16,0.0,0.0,0.0,0.4,9.4,-0.1,0.9,-0.2,-0.1
1698420163030.0,16,0.0,0.0,0.0,0.4,9.4,-0.1,0.9,-0.30000000000000004,0.0
1698420163046.0,16,0.0,0.0,0.0,0.4,9.5,-0.1,0.8,-0.5,0.30000000000000004
1698420163063.0,16,0.0,0.0,0.0,0.4,9.5,-0.1,0.5,-0.7,0.1
1698420163081.0,16,0.0,0.0,0.0,0.4,9.5,-0.1,0.4,-0.8,0.1
1698420163097.0,16,0.0,0.0,0.0,0.4,9.5,-0.1,0.5,-0.8,0.0
1698420163113.0,16,0.0,0.0,0.0,0.4,9.5,-0.1,0.4,-1.0999999999999999,0.2
1698420163130.0,16,0.0,0.0,0.0,0.4,9.5,-0.1,0.30000000000000004,-1.0999999999999999,0.1
1698420163146.0,16,0.0,0.0,-0.1,0.4,9.5,-0.1,0.2,-1.4,0.1
1698420163163.0,16,0.0,0.0,0.0,0.4,9.5,-0.1,0.2,-1.4,0.0
1698420163180.0,16,0.0,0.0,0.0,0.4,9.5,-0.1,-0.1,-1.4,0.1
1698420163196.0,16,0.0,0.0,-0.1,0.4,9.5,-0.2,-0.30000000000000004,-1.3,0.0
1698420163213.0,16,0.0,0.0,0.0,0.4,9.5,-0.1,-0.7,-0.9,0.0
1698420163229.0,16,0.0,0.0,0.0,0.4,9.5,-0.1,-0.6000000000000001,-0.9,-0.1
1698420163246.0,16,0.0,0.0,0.0,0.5,9.5,-0.1,-0.2,-0.8,-0.1
1698420163263.0,16,0.0,0.0,0.0,0.5,9.5,-0.1,-0.2,-0.5,-0.2
1698420163280.0,16,0.0,0.0,0.0,0.4,9.5,-0.1,-0.1,-0.30000000000000004,-0.2
1698420163296.0,16,0.0,0.0,0.0,0.5,9.5,-0.1,-0.1,0.0,-0.2
1698420163313.0,16,0.0,0.0,0.0,0.5,9.4,-0.1,-0.1,0.30000000000000004,-0.4
1698420163329.0,16,0.0,0.0,0.0,0.5,9.4,-0.1,-0.2,0.30000000000000004,-0.4
1698420163346.0,16,0.0,0.0,0.0,0.5,9.4,-0.1,-0.4,0.30000000000000004,-0.2
1698420163363.0,16,0.0,0.0,0.0,0.4,9.5,-0.1,-0.30000000000000004,0.6000000000000001,-0.30000000000000004
1698420163380.0,16,0.0,0.0,0.0,0.5,9.5,-0.1,0.0,0.7,-0.4
1698420163396.0,16,0.0,0.0,0.0,0.4,9.5,-0.1,-0.1,0.9,-0.4
1698420163413.0,16,0.0,0.0,0.0,0.4,9.4,-0.1,0.0,0.7,-0.2
1698420163430.0,16,0.0,0.0,0.0,0.4,9.4,-0.1,0.0,0.6000000000000001,-0.1
1698420163446.0,16,0.0,0.0,0.0,0.4,9.4,-0.1,-0.1,0.4,-0.2
1698420163463.0,16,0.0,0.0,0.0,0.4,9.5,-0.1,-0.2,0.2,-0.4
1698420163480.0,16,0.0,0.0,0.0,0.4,9.5,-0.1,-0.1,0.1,-0.30000000000000004
1698420163497.0,16,0.0,0.0,0.0,0.4,9.4,-0.1,0.0,-0.2,-0.1
1698420163513.0,16,0.0,0.0,-0.1,0.5,9.5,-0.2,0.2,-0.30000000000000004,0.0
1698420163530.0,16,0.0,0.0,-0.1,0.4,9.5,-0.2,0.30000000000000004,-0.4,-0.1
1698420163546.0,16,0.0,0.0,0.0,0.4,9.4,-0.1,0.7,-0.30000000000000004,-0.1
1698420163563.0,16,0.0,-0.1,0.1,0.4,9.4,0.0,1.7,-0.30000000000000004,0.4
1698420163580.0,16,0.0,-0.1,0.1,0.4,9.3,0.0,2.5,-0.5,0.4
1698420163596.0,16,0.0,0.0,0.0,0.4,9.4,-0.1,2.6,-0.5,0.6000000000000001
1698420163613.0,16,0.0,0.1,0.0,0.5,9.5,-0.1,2.4000000000000004,-0.1,0.6000000000000001
1698420163632.0,16,0.0,0.1,0.0,0.5,9.5,-0.2,2.6,0.1,0.6000000000000001
1698420163646.0,16,0.0,0.1,-0.1,0.4,9.5,-0.2,3.1,0.5,0.7
1698420163664.0,16,0.0,0.0,0.1,0.4,9.4,-0.1,3.9,0.6000000000000001,0.7
1698420163680.0,16,0.0,0.0,0.0,0.4,9.4,-0.1,3.8,0.6000000000000001,0.9
1698420163696.0,16,0.0,0.0,0.1,0.4,9.4,-0.1,3.6,0.5,1.0
1698420163713.0,16,0.0,0.0,0.1,0.4,9.4,-0.1,4.0,0.30000000000000004,0.8
1698420163730.0,16,0.0,0.0,0.0,0.4,9.5,-0.1,4.1000000000000005,0.2,0.9
1698420163747.0,16,-0.1,0.0,0.1,0.4,9.5,-0.1,4.1000000000000005,-0.30000000000000004,1.0999999999999999
1698420163763.0,16,0.0,0.0,0.1,0.4,9.5,-0.1,3.9,-0.7,1.4
1698420163780.0,16,0.0,0.0,0.0,0.4,9.5,-0.2,3.5,-0.6000000000000001,1.2000000000000002
1698420163796.0,16,0.0,0.1,0.0,0.4,9.5,-0.2,2.7,-0.9,0.9
1698420163813.0,16,0.0,0.1,0.0,0.4,9.600000000000001,-0.2,1.6,-1.2000000000000002,0.7
1698420163830.0,16,0.0,0.0,0.0,0.4,9.5,-0.2,0.9,-1.5000000000000002,0.6000000000000001
1698420163848.0,16,0.0,0.1,0.0,0.4,9.5,-0.2,0.5,-1.5000000000000002,0.5
1698420163863.0,16,0.0,0.1,0.0,0.4,9.5,-0.30000000000000004,-0.5,-1.7,0.4
1698420163879.0,16,0.0,0.0,-0.1,0.4,9.5,-0.30000000000000004,-1.0999999999999999,-1.7,0.0
1698420163896.0,16,-0.1,0.0,0.0,0.4,9.5,-0.30000000000000004,-1.5000000000000002,-1.7,-0.1
1698420163913.0,16,0.0,0.0,-0.1,0.4,9.5,-0.30000000000000004,-2.0,-1.6,0.0
1698420163930.0,16,0.0,0.0,-0.1,0.5,9.5,-0.30000000000000004,-2.5,-1.2000000000000002,-0.4
1698420163946.0,16,0.0,0.0,-0.1,0.5,9.5,-0.30000000000000004,-2.8,-1.2000000000000002,-0.2
1698420163963.0,16,0.0,0.0,-0.1,0.5,9.5,-0.30000000000000004,-3.6,-0.8,-0.30000000000000004
1698420163980.0,16,0.0,0.0,-0.1,0.5,9.5,-0.30000000000000004,-3.8,-0.6000000000000001,-0.30000000000000004
1698420163996.0,16,0.0,0.0,-0.1,0.5,9.5,-0.30000000000000004,-3.8,-0.5,-0.5
1698420164013.0,16,0.0,-0.1,-0.1,0.4,9.4,-0.2,-3.4,-0.6000000000000001,-0.6000000000000001
1698420164030.0,16,0.0,-0.1,0.0,0.5,9.4,-0.2,-3.0000000000000004,-0.7,-0.6000000000000001
1698420164047.0,16,0.0,-0.1,0.0,0.5,9.4,-0.2,-2.8,-0.6000000000000001,-0.7
1698420164063.0,16,0.0,-0.1,0.0,0.5,9.4,-0.2,-2.6,-0.9,-0.7
1698420164080.0,16,0.0,0.0,-0.1,0.5,9.4,-0.2,-2.4000000000000004,-0.8,-0.7
1698420164096.0,16,0.0,0.0,-0.1,0.5,9.4,-0.2,-2.1999999999999997,-0.7,-0.5
1698420164113.0,16,0.0,0.0,-0.1,0.5,9.5,-0.2,-2.0,-0.7,-0.5
1698420164130.0,16,0.0,0.0,-0.1,0.5,9.5,-0.30000000000000004,-2.0,-0.6000000000000001,-0.6000000000000001
1698420164147.0,16,0.0,0.0,-0.1,0.5,9.4,-0.30000000000000004,-1.8,-0.5,-0.30000000000000004
1698420164163.0,16,0.0,0.0,-0.1,0.5,9.5,-0.2,-1.6,-0.5,-0.1
1698420164180.0,16,0.1,0.0,0.0,0.5,9.5,-0.2,-0.9,-0.1,-0.1
1698420164196.0,16,0.0,0.0,0.0,0.5,9.4,-0.2,-0.6000000000000001,-0.2,-0.1
1698420164213.0,16,0.0,0.0,0.0,0.5,9.4,-0.1,-0.8,-0.2,0.1
1698420164230.0,16,0.0,0.0,0.0,0.5,9.5,-0.1,-0.7,-0.30000000000000004,0.2
1698420164247.0,16,0.0,0.0,0.0,0.5,9.5,-0.1,-0.5,-0.1,0.2
1698420164263.0,16,0.0,0.0,0.0,0.4,9.5,-0.2,-0.4,0.30000000000000004,0.1
1698420164280.0,16,0.0,0.0,0.0,0.4,9.5,-0.2,-0.1,0.2,0.2
1698420164296.0,16,0.0,0.0,0.0,0.4,9.4,-0.2,-0.2,0.1,0.30000000000000004
1698420164313.0,16,0.0,0.0,0.0,0.5,9.5,-0.2,-0.30000000000000004,0.0,-0.1
1698420164331.0,16,0.0,0.0,0.0,0.4,9.5,-0.2,-0.30000000000000004,-0.2,0.1
1698420164346.0,16,0.0,0.0,0.0,0.4,9.5,-0.1,-0.1,-0.30000000000000004,0.1
1698420164364.0,16,0.0,0.0,0.0,0.4,9.5,-0.2,0.0,-0.30000000000000004,0.1
1698420164380.0,16,0.0,0.0,0.0,0.4,9.5,-0.1,0.0,-0.1,0.1
1698420164396.0,16,0.0,0.0,0.0,0.5,9.5,-0.1,0.0,0.0,0.1
1698420164413.0,16,0.0,0.0,0.0,0.5,9.5,-0.1,-0.1,0.2,0.1
1698420164430.0,16,0.0,0.0,0.0,0.5,9.5,-0.1,-0.30000000000000004,0.1,0.30000000000000004
1698420164446.0,16,0.0,0.0,0.0,0.4,9.5,-0.1,-0.6000000000000001,0.2,0.30000000000000004
1698420164463.0,16,0.0,0.0,0.0,0.4,9.5,-0.1,-0.6000000000000001,0.0,0.2
1698420164480.0,16,0.0,0.0,0.0,0.4,9.5,-0.1,-0.5,0.2,0.4
1698420164496.0,16,0.0,0.0,0.0,0.5,9.5,-0.1,-0.5,0.1,0.30000000000000004
1698420164513.0,16,0.0,0.0,0.0,0.5,9.5,-0.1,-0.5,0.2,0.30000000000000004
1698420164530.0,16,0.0,0.0,0.0,0.4,9.5,-0.1,-0.5,0.2,0.30000000000000004
1698420164546.0,16,0.0,0.0,0.0,0.5,9.5,-0.2,-0.6000000000000001,0.2,0.30000000000000004
1698420164564.0,16,0.0,0.0,0.0,0.4,9.5,-0.1,-0.5,0.30000000000000004,0.2
1698420164580.0,16,0.0,0.0,0.0,0.5,9.5,-0.1,-0.6000000000000001,0.30000000000000004,0.30000000000000004
1698420164596.0,16,0.0,0.0,0.0,0.4,9.5,-0.1,-0.6000000000000001,0.30000000000000004,0.4
1698420164613.0,16,0.0,0.0,0.0,0.5,9.4,-0.1,-0.6000000000000001,0.5,0.4
1698420164629.0,16,0.0,0.0,0.0,0.5,9.5,-0.1,-0.6000000000000001,0.30000000000000004,0.30000000000000004
1698420164646.0,16,0.0,0.0,0.0,0.5,9.5,-0.1,-0.5,0.5,0.2
1698420164664.0,16,0.0,0.0,0.1,0.5,9.5,-0.1,-0.30000000000000004,0.6000000000000001,0.30000000000000004
1698420164680.0,16,0.0,0.0,0.0,0.4,9.5,-0.1,-0.1,0.5,0.1
1698420164696.0,16,0.0,0.0,0.0,0.4,9.4,-0.1,-0.1,0.5,0.1
1698420164713.0,16,0.0,0.0,0.0,0.5,9.5,-0.1,-0.1,0.30000000000000004,0.30000000000000004
1698420164730.0,16,0.0,0.0,0.1,0.5,9.5,0.0,-0.1,0.4,0.30000000000000004
1698420164746.0,16,0.0,0.0,0.0,0.5,9.5,-0.1,-0.30000000000000004,0.5,0.1
1698420164763.0,16,0.0,0.0,0.0,0.5,9.5,-0.1,-0.2,0.5,0.1
1698420164780.0,16,0.0,0.0,0.0,0.5,9.5,-0.1,-0.2,0.5,0.2
1698420164796.0,16,0.0,0.0,0.0,0.5,9.4,-0.1,0.0,0.7,0.1
1698420164813.0,16,0.0,0.0,0.1,0.5,9.4,0.0,0.1,0.6000000000000001,0.0
1698420164830.0,16,0.0,0.0,0.1,0.5,9.5,0.0,0.2,0.5,0.1
1698420164846.0,16,0.0,0.0,0.0,0.4,9.4,0.0,0.2,0.5,0.0
1698420164863.0,16,0.0,0.0,0.0,0.5,9.5,0.0,0.0,0.5,-0.1
1698420164880.0,16,0.0,0.0,0.0,0.5,9.5,-0.1,0.0,0.6000000000000001,-0.1
1698420164896.0,16,0.0,0.0,0.0,0.4,9.5,-0.1,0.0,0.6000000000000001,0.0
1698420164914.0,16,0.0,0.0,0.0,0.4,9.5,-0.1,0.1,0.7,0.0
1698420164930.0,16,0.0,0.0,0.0,0.5,9.5,-0.1,0.0,0.5,0.0
1698420164946.0,16,0.0,0.0,0.0,0.5,9.5,-0.1,0.0,0.2,-0.1
1698420164963.0,16,0.0,0.0,0.0,0.5,9.5,-0.1,0.0,0.0,-0.1
1698420164980.0,16,0.0,0.0,0.0,0.5,9.4,-0.1,-0.2,0.2,-0.2
1698420164996.0,16,0.0,0.0,0.0,0.4,9.5,-0.1,-0.4,0.0,-0.30000000000000004
1698420165013.0,16,0.0,0.0,0.0,0.5,9.5,-0.1,-0.4,0.1,-0.30000000000000004
1698420165030.0,16,0.0,0.0,0.0,0.5,9.5,-0.1,-0.30000000000000004,0.0,-0.4
1698420165046.0,16,0.0,0.0,0.0,0.5,9.5,-0.1,0.2,0.2,-0.4
1698420165063.0,16,0.0,0.0,0.0,0.5,9.4,-0.1,0.2,0.30000000000000004,-0.4
1698420165081.0,16,0.0,0.0,0.0,0.5,9.4,-0.1,0.30000000000000004,0.5,-0.6000000000000001
1698420165096.0,16,0.0,0.0,0.0,0.4,9.5,-0.1,0.30000000000000004,0.5,-0.5
1698420165113.0,16,0.0,0.0,0.0,0.5,9.5,-0.1,0.5,0.8,-0.2
1698420165130.0,16,0.1,0.0,0.0,0.5,9.5,-0.1,0.30000000000000004,0.9,-0.2
1698420165146.0,16,0.0,0.0,-0.1,0.5,9.5,-0.1,0.30000000000000004,0.9,-0.5
1698420165163.0,16,0.0,0.0,0.0,0.4,9.4,-0.1,0.30000000000000004,0.9,-0.4
1698420165180.0,16,0.0,0.0,0.0,0.5,9.5,-0.1,0.2,0.7,-0.30000000000000004
1698420165196.0,16,0.0,0.0,0.0,0.5,9.5,-0.1,0.4,0.9,-0.5
1698420165213.0,16,0.0,0.0,0.0,0.5,9.5,-0.1,0.4,0.8,-0.4
1698420165230.0,16,-0.1,0.0,-0.1,0.4,9.4,-0.2,0.30000000000000004,0.9,-0.4
1698420165246.0,16,0.0,0.0,0.0,0.5,9.4,-0.1,-0.1,0.6000000000000001,-0.1
1698420165263.0,16,0.0,0.0,0.0,0.5,9.5,-0.1,0.0,0.6000000000000001,0.0
1698420165280.0,16,0.0,0.0,0.0,0.5,9.4,-0.1,-0.2,0.5,0.1
1698420165296.0,16,0.0,0.0,0.0,0.4,9.5,-0.1,-0.30000000000000004,0.5,-0.1
1698420165313.0,16,0.0,0.0,0.0,0.4,9.5,-0.1,-0.30000000000000004,0.4,0.0
1698420165329.0,16,0.0,0.0,0.0,0.4,9.5,-0.1,-0.2,0.5,-0.1
1698420165346.0,16,0.0,0.0,0.0,0.5,9.5,-0.1,-0.30000000000000004,0.6000000000000001,-0.1
1698420165363.0,16,0.0,0.0,0.0,0.4,9.5,-0.1,-0.30000000000000004,0.8,0.0
1698420165379.0,16,0.0,0.0,0.0,0.4,9.4,-0.1,-0.2,0.8,0.0
1698420165396.0,16,-0.1,0.0,0.0,0.4,9.4,-0.1,0.1,0.6000000000000001,0.30000000000000004
1698420165413.0,16,0.0,0.0,0.0,0.4,9.4,-0.1,0.1,0.5,0.2
1698420165430.0,16,0.0,0.0,0.0,0.4,9.5,-0.1,0.0,0.30000000000000004,0.0
1698420165446.0,16,0.0,0.0,0.0,0.4,9.5,-0.1,-0.1,0.2,-0.1
1698420165463.0,16,0.0,0.0,0.0,0.4,9.5,-0.1,-0.30000000000000004,-0.1,-0.1
1698420165480.0,16,0.0,0.1,-0.1,0.4,9.5,-0.1,-0.5,-0.4,-0.1
1698420165496.0,16,0.0,0.0,0.0,0.4,9.5,-0.1,-0.7,-0.6000000000000001,-0.2
1698420165513.0,16,0.0,0.0,0.0,0.4,9.4,-0.1,-0.6000000000000001,-0.6000000000000001,-0.1
1698420165529.0,16,0.0,0.0,0.0,0.5,9.4,-0.1,-0.5,-0.5,-0.1
1698420165546.0,16,0.0,0.0,0.0,0.4,9.4,0.0,-0.4,-0.2,-0.1
1698420165563.0,16,0.0,0.0,0.0,0.4,9.4,0.0,-0.1,0.0,0.1
1698420165580.0,16,0.0,0.0,0.0,0.4,9.4,-0.1,0.0,0.1,0.1
1698420165596.0,16,0.0,0.0,0.0,0.4,9.4,0.0,0.30000000000000004,0.2,0.1
1698420165613.0,16,0.0,0.0,0.0,0.4,9.5,0.0,0.9,0.30000000000000004,0.1
1698420165630.0,16,0.0,0.0,0.0,0.4,9.5,-0.1,1.0,0.30000000000000004,0.2
1698420165646.0,16,0.0,0.0,0.0,0.4,9.4,-0.1,1.0999999999999999,0.30000000000000004,0.1
1698420165664.0,16,0.0,0.0,0.0,0.4,9.4,-0.1,1.0,0.2,0.1
1698420165680.0,16,0.0,0.0,0.0,0.4,9.5,-0.1,1.0,0.2,0.0
1698420165696.0,16,0.0,0.0,0.0,0.4,9.5,0.0,1.2000000000000002,0.30000000000000004,0.2
1698420165713.0,16,0.0,0.0,0.0,0.4,9.5,-0.1,1.6,0.0,0.4
1698420165730.0,16,0.0,0.0,0.0,0.5,9.5,-0.1,1.7,0.0,0.30000000000000004
1698420165746.0,16,0.0,0.0,0.0,0.4,9.5,-0.1,1.7,0.30000000000000004,-0.1
1698420165763.0,16,0.0,0.1,0.0,0.4,9.5,-0.1,1.5000000000000002,0.5,0.1
1698420165780.0,16,0.0,0.1,0.0,0.4,9.5,0.0,1.6,0.8,0.30000000000000004
1698420165796.0,16,0.0,0.0,0.0,0.4,9.5,-0.1,2.1,1.0999999999999999,0.6000000000000001
1698420165813.0,16,0.0,0.0,0.0,0.5,9.5,-0.1,2.0,1.0999999999999999,0.6000000000000001
1698420165830.0,16,0.0,0.0,0.0,0.5,9.5,-0.1,1.9,1.0999999999999999,0.5
1698420165846.0,16,0.0,0.0,0.0,0.5,9.5,-0.1,1.8,1.3,0.2
1698420165863.0,16,0.0,0.0,0.0,0.4,9.5,-0.1,1.9,1.3,0.0
1698420165880.0,16,0.0,0.0,0.0,0.5,9.4,-0.1,1.8,1.5000000000000002,0.0
1698420165896.0,16,0.0,0.0,0.0,0.4,9.4,-0.1,2.1999999999999997,1.6,-0.4
1698420165913.0,16,0.0,-0.1,0.0,0.4,9.4,-0.1,2.7,0.8,-0.2
1698420165930.0,16,0.0,-0.1,0.1,0.4,9.4,0.0,2.8,0.7,-0.1
1698420165946.0,16,0.0,0.0,0.1,0.5,9.4,-0.1,3.5,0.4,-0.30000000000000004
1698420165963.0,16,0.0,0.0,0.1,0.5,9.4,-0.1,3.6,0.0,-0.5
1698420165980.0,16,0.0,0.0,0.0,0.4,9.4,-0.1,3.6,-0.5,-0.5
1698420165997.0,16,0.0,0.0,0.0,0.4,9.5,-0.2,3.3000000000000003,-0.5,-0.2
1698420166013.0,16,0.0,0.1,0.0,0.5,9.600000000000001,-0.2,2.4000000000000004,-0.8,-0.2
1698420166029.0,16,0.0,0.1,-0.1,0.5,9.600000000000001,-0.2,2.0,-0.8,-0.2
1698420166047.0,16,0.0,0.1,-0.1,0.5,9.600000000000001,-0.30000000000000004,0.8,-0.9,-0.2
1698420166063.0,16,0.0,0.1,-0.1,0.4,9.600000000000001,-0.30000000000000004,-0.2,-1.4,-0.1
1698420166080.0,16,0.0,0.1,0.0,0.5,9.600000000000001,-0.30000000000000004,-0.7,-1.5000000000000002,-0.1
1698420166096.0,16,0.1,0.0,0.0,0.5,9.5,-0.2,-1.6,-1.8,-0.1
1698420166113.0,16,0.0,0.0,0.0,0.5,9.5,-0.2,-2.5,-1.8,-0.2
1698420166131.0,16,0.0,0.0,0.0,0.5,9.5,-0.2,-3.6,-1.9,-0.1
1698420166146.0,16,0.0,0.0,0.0,0.5,9.5,-0.2,-4.0,-1.9,0.1
1698420166163.0,16,0.0,0.0,0.0,0.5,9.5,-0.2,-4.1000000000000005,-2.1999999999999997,0.1
1698420166180.0,16,0.0,0.0,0.0,0.5,9.5,-0.2,-3.8,-1.8,-0.1
1698420166196.0,16,0.0,-0.1,0.0,0.5,9.4,-0.2,-3.8,-1.7,0.1
1698420166213.0,16,0.0,0.0,-0.1,0.5,9.4,-0.2,-3.9,-1.8,0.2
1698420166230.0,16,0.0,0.0,-0.1,0.5,9.4,-0.2,-3.6,-1.6,0.2
1698420166246.0,16,0.0,0.0,-0.1,0.5,9.5,-0.2,-3.6,-1.6,0.1
1698420166263.0,16,0.0,0.0,-0.1,0.5,9.4,-0.30000000000000004,-3.4,-1.4,-0.2
1698420166279.0,16,0.0,0.0,-0.2,0.5,9.4,-0.30000000000000004,-3.2,-1.4,-0.1
1698420166296.0,16,0.0,0.0,-0.2,0.4,9.4,-0.30000000000000004,-3.1,-1.2000000000000002,-0.2
1698420166313.0,16,0.0,0.0,-0.1,0.5,9.4,-0.30000000000000004,-3.1,-1.5000000000000002,-0.2
1698420166329.0,16,0.0,0.0,-0.1,0.5,9.4,-0.2,-3.1,-1.5000000000000002,-0.2
1698420166346.0,16,0.0,0.0,-0.1,0.5,9.5,-0.2,-3.0000000000000004,-1.2000000000000002,-0.30000000000000004
1698420166363.0,16,0.0,-0.1,-0.1,0.5,9.4,-0.2,-3.0000000000000004,-1.0999999999999999,-0.5
1698420166379.0,16,-0.1,-0.1,-0.2,0.4,9.4,-0.30000000000000004,-3.1,-1.0999999999999999,-0.7
1698420166396.0,16,-0.1,0.0,-0.1,0.4,9.4,-0.2,-3.4,-1.3,-0.8
1698420166413.0,16,0.0,0.0,-0.2,0.4,9.5,-0.30000000000000004,-3.8,-1.9,-1.2000000000000002
1698420166429.0,16,0.0,0.0,-0.2,0.4,9.4,-0.30000000000000004,-5.0,-2.0,-1.9
1698420166446.0,16,-0.1,-0.1,-0.1,0.30000000000000004,9.4,-0.30000000000000004,-5.7,-2.1999999999999997,-2.1999999999999997
1698420166463.0,16,-0.2,-0.1,-0.1,0.30000000000000004,9.3,-0.2,-6.9,-2.5,-3.0000000000000004
1698420166479.0,16,-0.1,-0.1,-0.30000000000000004,0.2,9.3,-0.30000000000000004,-8.799999999999999,-1.7,-4.3999999999999995
1698420166496.0,16,-0.2,-0.2,-0.30000000000000004,0.2,9.200000000000001,-0.4,-10.8,-0.6000000000000001,-5.1
1698420166513.0,16,-0.2,-0.2,-0.4,0.2,9.3,-0.4,-11.6,-0.1,-4.800000000000001
1698420166530.0,16,-0.30000000000000004,-0.1,-0.4,0.1,9.3,-0.4,-11.4,2.5,-4.0
1698420166546.0,16,-0.4,-0.1,-0.7000000000000001,-0.1,9.4,-0.7000000000000001,-8.799999999999999,4.1000000000000005,-2.1999999999999997
1698420166563.0,16,-0.5,0.0,-0.8,-0.2,9.4,-0.8,-7.9,3.6,-1.0999999999999999
1698420166580.0,16,-0.5,0.2,-0.8,-0.2,9.700000000000001,-0.8,-6.4,2.1999999999999997,-0.30000000000000004
1698420166596.0,16,-0.4,0.4,-0.7000000000000001,-0.1,9.8,-0.7000000000000001,-5.4,0.0,-0.4
1698420166613.0,16,-0.30000000000000004,0.4,-0.6000000000000001,0.0,9.8,-0.6000000000000001,-4.7,-1.3,-0.8
1698420166629.0,16,-0.2,0.30000000000000004,-0.6000000000000001,0.1,9.700000000000001,-0.5,-3.0000000000000004,-2.6,-1.5000000000000002
1698420166646.0,16,0.0,0.1,-0.6000000000000001,0.30000000000000004,9.5,-0.6000000000000001,-2.1,-2.7,-1.5000000000000002
1698420166663.0,16,0.0,0.0,-0.6000000000000001,0.2,9.4,-0.5,-1.6,-1.7,-1.8
1698420166680.0,16,-0.2,0.0,-0.7000000000000001,0.0,9.4,-0.7000000000000001,-1.9,0.4,-2.1
1698420166696.0,16,-0.30000000000000004,0.1,-0.7000000000000001,-0.1,9.5,-0.7000000000000001,-3.0000000000000004,1.7,-2.1
1698420166713.0,16,-0.4,0.1,-0.7000000000000001,-0.1,9.5,-0.7000000000000001,-3.2,2.4000000000000004,-2.1
1698420166729.0,16,-0.4,0.2,-0.6000000000000001,-0.2,9.600000000000001,-0.6000000000000001,-3.6,3.3000000000000003,-1.7
1698420166747.0,16,-0.4,0.2,-0.7000000000000001,-0.1,9.600000000000001,-0.7000000000000001,-3.6,3.3000000000000003,-1.3
1698420166763.0,16,-0.30000000000000004,0.2,-0.6000000000000001,-0.1,9.600000000000001,-0.6000000000000001,-3.8,3.0000000000000004,-0.8
1698420166780.0,16,-0.2,0.1,-0.6000000000000001,0.0,9.5,-0.5,-3.9,3.5,-1.0999999999999999
1698420166796.0,16,-0.1,0.0,-0.6000000000000001,0.1,9.5,-0.5,-4.1000000000000005,3.6,-1.2000000000000002
1698420166813.0,16,-0.2,0.0,-0.6000000000000001,0.0,9.4,-0.6000000000000001,-5.1,4.300000000000001,-2.1
1698420166829.0,16,-0.2,0.0,-0.4,0.0,9.4,-0.4,-5.8,4.7,-2.6
1698420166846.0,16,-0.2,0.0,-0.6000000000000001,0.0,9.4,-0.5,-5.4,5.2,-3.3000000000000003
1698420166863.0,16,-0.2,-0.1,-0.6000000000000001,0.0,9.4,-0.6000000000000001,-5.6,5.7,-3.7000000000000006
1698420166879.0,16,-0.2,0.0,-0.7000000000000001,0.0,9.4,-0.7000000000000001,-6.5,6.9,-3.9
1698420166896.0,16,-0.1,-0.1,-0.5,0.0,9.3,-0.6000000000000001,-7.1000000000000005,7.8,-3.7000000000000006
1698420166913.0,16,-0.1,-0.2,-0.5,0.0,9.200000000000001,-0.6000000000000001,-7.8,9.4,-3.3000000000000003
1698420166930.0,16,-0.1,-0.2,-0.4,0.0,9.3,-0.5,-9.5,11.000000000000002,-2.4000000000000004
1698420166946.0,16,0.0,-0.1,-0.4,0.1,9.3,-0.4,-12.200000000000001,12.3,-1.3
1698420166963.0,16,0.0,-0.1,-0.4,0.0,9.3,-0.4,-15.000000000000002,12.200000000000001,-0.2
1698420166980.0,16,0.0,-0.30000000000000004,-0.2,0.1,9.1,-0.2,-21.8,8.0,3.1
1698420166996.0,16,0.30000000000000004,-0.4,-0.30000000000000004,0.4,9.0,-0.2,-30.000000000000004,-0.5,4.5
1698420167013.0,16,0.5,-0.5,-0.30000000000000004,0.6000000000000001,8.9,-0.1,-35.199999999999996,-5.4,3.4
1698420167030.0,16,0.7000000000000001,-0.7000000000000001,-0.1,0.9,8.700000000000001,0.2,-43.7,-17.7,-0.7
1698420167046.0,16,0.4,-0.30000000000000004,-0.4,0.5,9.0,0.0,-47.5,-29.600000000000005,-4.3999999999999995
1698420167063.0,16,0.5,0.0,-1.0,0.6000000000000001,9.3,-0.4,-47.900000000000006,-33.400000000000006,-4.1000000000000005
1698420167080.0,16,1.1,1.2000000000000002,-1.9000000000000001,1.2000000000000002,10.5,-1.2000000000000002,-49.0,-36.6,-0.6000000000000001
1698420167096.0,16,0.6000000000000001,1.1,-2.2,0.7000000000000001,10.5,-1.4000000000000001,-45.9,-37.2,-0.4
1698420167113.0,16,0.30000000000000004,1.3,-2.3000000000000003,0.4,10.700000000000001,-1.4000000000000001,-45.6,-33.0,1.6
1698420167130.0,16,-0.4,0.4,-2.0,-0.2,9.8,-1.0,-44.3,-25.900000000000002,12.000000000000002
1698420167146.0,16,-0.6000000000000001,-0.9,-1.4000000000000001,-0.30000000000000004,8.4,-0.2,-47.400000000000006,-30.599999999999998,25.6
1698420167163.0,16,-0.4,-1.0,-1.4000000000000001,-0.1,8.3,-0.1,-50.6,-31.3,27.3
1698420167180.0,16,0.5,-1.5,-1.1,0.9,7.7,0.30000000000000004,-54.800000000000004,-31.900000000000002,25.8
1698420167196.0,16,0.9,-2.0,-0.6000000000000001,1.4000000000000001,7.2,0.9,-57.2,-36.9,23.0
1698420167214.0,16,0.9,-2.1,-0.5,1.4000000000000001,7.1000000000000005,1.2000000000000002,-56.2,-37.300000000000004,22.8
1698420167230.0,16,0.7000000000000001,-1.4000000000000001,-0.7000000000000001,1.4000000000000001,7.7,1.1,-51.800000000000004,-27.1,24.5
1698420167246.0,16,0.4,-0.30000000000000004,-1.2000000000000002,1.2000000000000002,8.8,0.7000000000000001,-42.0,-17.1,21.900000000000002
1698420167263.0,16,0.7000000000000001,1.1,-2.8000000000000003,1.6,10.100000000000001,-0.8,-37.1,-8.3,32.2
1698420167280.0,16,1.0,1.7000000000000002,-3.1,1.9000000000000001,10.700000000000001,-1.1,-37.300000000000004,-4.2,33.2
1698420167296.0,16,1.7000000000000002,2.4000000000000004,-3.0,2.7,11.5,-0.8,-32.9,-0.8,31.7
1698420167313.0,16,2.1,3.2,-3.0,3.2,12.200000000000001,-0.8,-30.100000000000005,-1.0999999999999999,32.800000000000004
1698420167329.0,16,2.2,4.2,-2.9000000000000004,3.4000000000000004,13.200000000000001,-0.7000000000000001,-23.0,0.8,25.5
1698420167346.0,16,1.3,3.7,-2.4000000000000004,2.6,12.700000000000001,-0.2,-9.200000000000001,6.4,13.6
1698420167363.0,16,1.0,3.3000000000000003,-2.8000000000000003,2.0,12.200000000000001,-1.1,-0.2,13.3,9.3
1698420167380.0,16,0.5,3.0,-3.9000000000000004,1.7000000000000002,12.100000000000001,-1.7000000000000002,18.5,24.400000000000002,2.3000000000000003
1698420167396.0,16,0.0,2.4000000000000004,-4.6000000000000005,1.3,11.600000000000001,-2.5,33.1,32.0,-8.9
1698420167413.0,16,0.30000000000000004,2.1,-2.4000000000000004,1.5,11.3,-0.4,34.800000000000004,34.800000000000004,-20.3
1698420167430.0,16,0.2,3.1,1.1,1.3,12.3,3.0,27.400000000000002,27.900000000000002,-23.900000000000002
1698420167446.0,16,-2.1,1.4000000000000001,4.9,-1.1,10.700000000000001,6.800000000000001,21.5,-20.7,-34.2
1698420167463.0,16,-0.9,-0.9,1.7000000000000002,-0.1,8.4,3.5,23.8,19.700000000000003,-39.1
1698420167481.0,16,1.4000000000000001,-0.8,2.4000000000000004,2.2,8.5,4.2,24.8,33.2,-40.8
1698420167496.0,16,3.9000000000000004,0.8,2.5,4.5,10.100000000000001,4.3,14.0,49.5,-41.800000000000004
1698420167513.0,16,1.5,5.0,2.6,2.0,14.3,4.3,7.300000000000001,29.1,-16.900000000000002
1698420167529.0,16,-1.4000000000000001,4.5,1.4000000000000001,-0.9,13.9,3.2,7.8,34.6,-12.700000000000001
1698420167546.0,16,-1.5,1.0,1.5,-1.1,10.4,3.2,5.0,34.900000000000006,-2.1
1698420167563.0,16,0.4,2.2,1.3,0.8,11.600000000000001,3.1,5.0,5.300000000000001,-6.000000000000001
1698420167580.0,16,0.5,2.0,0.7000000000000001,0.9,11.4,2.4000000000000004,5.2,1.7,-9.0
1698420167596.0,16,-0.1,-0.4,-0.1,0.30000000000000004,9.1,1.6,5.0,-1.4,-14.100000000000001
1698420167613.0,16,0.1,-1.9000000000000001,-0.6000000000000001,0.2,8.200000000000001,1.3,2.8,3.3000000000000003,-16.5
1698420167630.0,16,0.30000000000000004,-2.5,-0.8,0.6000000000000001,6.9,0.9,-1.3,19.6,-20.8
1698420167646.0,16,0.0,-3.6,-1.3,0.2,5.800000000000001,0.5,-3.6,25.900000000000002,-26.1
1698420167663.0,16,-0.6000000000000001,-4.4,-1.6,-0.2,5.300000000000001,0.30000000000000004,-3.6,26.400000000000002,-27.5
1698420167681.0,16,-0.8,-4.7,-1.6,-1.0,4.1000000000000005,0.2,1.2000000000000002,22.7,-23.8
1698420167696.0,16,-1.0,-5.7,-1.3,-1.1,3.6,0.4,5.0,16.8,-8.200000000000001
1698420167713.0,16,-1.2000000000000002,-5.6000000000000005,-1.7000000000000002,-1.3,3.6,0.0,8.799999999999999,9.200000000000001,1.6
1698420167729.0,16,-1.3,-5.2,-1.6,-1.4000000000000001,4.0,0.0,10.700000000000001,4.6000000000000005,0.30000000000000004
1698420167746.0,16,-1.4000000000000001,-3.9000000000000004,-1.8,-1.5,5.300000000000001,-0.30000000000000004,16.5,3.3000000000000003,-8.1
1698420167763.0,16,-1.5,-2.5,-2.4000000000000004,-1.6,6.7,-0.9,19.0,6.000000000000001,-8.600000000000001
1698420167779.0,16,-1.2000000000000002,-1.4000000000000001,-1.9000000000000001,-1.4000000000000001,7.7,-0.5,19.400000000000002,3.6,-3.3000000000000003
1698420167796.0,16,-1.3,-0.1,0.1,-1.4000000000000001,9.0,1.4000000000000001,26.3,-11.3,-5.8
1698420167813.0,16,-2.8000000000000003,-0.7000000000000001,-1.7000000000000002,-3.0,8.5,-0.4,41.800000000000004,-24.5,-16.2
1698420167830.0,16,-2.5,-0.30000000000000004,-2.9000000000000004,-2.7,9.0,-1.8,45.3,-34.6,-19.500000000000004
1698420167846.0,16,-0.4,3.6,-0.5,-0.7000000000000001,12.8,0.5,41.1,-20.1,-29.200000000000003
1698420167863.0,16,4.3,3.9000000000000004,-3.7,3.9000000000000004,13.200000000000001,-2.8000000000000003,40.2,17.1,-6.3
1698420167880.0,16,3.8000000000000003,2.1,-3.9000000000000004,3.5,11.4,-3.1,39.00000000000001,6.6000000000000005,11.2
1698420167896.0,16,0.2,5.300000000000001,6.5,-0.1,14.700000000000001,7.2,18.2,-44.8,12.5
1698420167913.0,16,0.8,1.7000000000000002,5.0,0.6000000000000001,11.100000000000001,5.7,41.6,-35.4,0.7
1698420167930.0,16,-0.6000000000000001,-0.4,0.4,-0.8,9.0,1.1,51.300000000000004,-38.5,2.9
1698420167946.0,16,-1.8,2.2,1.1,-2.0,11.600000000000001,1.6,12.4,-77.2,11.1
1698420167963.0,16,2.1,9.4,6.300000000000001,2.0,18.8,7.0,-37.6,-100.9,7.300000000000001
1698420167979.0,16,5.2,10.0,5.300000000000001,3.6,20.700000000000003,6.9,-26.400000000000002,-78.10000000000001,6.2
1698420167996.0,16,4.2,4.3,5.0,4.1000000000000005,13.9,5.800000000000001,6.7,-21.3,-0.4
1698420168013.0,16,-1.6,1.7000000000000002,2.8000000000000003,-1.7000000000000002,11.3,3.6,7.1000000000000005,7.1000000000000005,-18.2
1698420168030.0,16,-2.0,2.7,1.7000000000000002,-2.1,12.3,2.5,1.3,14.3,-14.600000000000001
1698420168046.0,16,-1.7000000000000002,1.0,0.6000000000000001,-1.9000000000000001,10.600000000000001,1.4000000000000001,-6.000000000000001,4.2,-1.5000000000000002
1698420168063.0,16,-1.2000000000000002,-1.5,-0.2,-1.4000000000000001,8.0,0.6000000000000001,-12.9,-10.8,10.9
1698420168079.0,16,-0.8,-2.2,-0.4,-0.9,7.4,0.5,-17.400000000000002,-12.100000000000001,18.900000000000002
1698420168096.0,16,-0.2,-2.7,-0.2,-0.2,6.9,0.7000000000000001,-16.400000000000002,-8.0,21.1
1698420168113.0,16,1.3,-4.0,-0.6000000000000001,1.3,5.5,0.4,-11.3,-0.30000000000000004,24.9
1698420168130.0,16,1.8,-4.6000000000000005,-0.7000000000000001,1.9000000000000001,4.9,0.30000000000000004,-5.9,4.300000000000001,22.3
1698420168147.0,16,1.7000000000000002,-4.7,-0.8,1.8,4.800000000000001,0.2,-0.30000000000000004,8.600000000000001,18.5
1698420168163.0,16,0.9,-5.2,-1.5,1.1,4.2,-0.5,13.0,17.1,15.100000000000001
1698420168179.0,16,0.5,-5.5,-1.7000000000000002,0.7000000000000001,3.9000000000000004,-0.8,19.9,24.5,14.800000000000002
1698420168196.0,16,-0.1,-5.6000000000000005,-2.4000000000000004,0.2,3.8000000000000003,-1.6,35.6,36.2,12.6
1698420168213.0,16,0.0,-5.6000000000000005,-1.9000000000000001,0.30000000000000004,3.7,-1.3,50.1,43.900000000000006,11.5
1698420168230.0,16,1.0,-5.800000000000001,-1.5,1.3,3.5,-1.0,59.5,51.1,18.1
1698420168247.0,16,1.8,-5.4,-1.2000000000000002,2.1,3.9000000000000004,-0.8,57.3,58.3,24.400000000000002
1698420168263.0,16,2.6,-3.3000000000000003,0.6000000000000001,3.1,5.9,0.8,45.4,46.5,36.1
1698420168279.0,16,2.1,-2.2,0.9,2.7,7.0,1.1,39.50000000000001,21.3,42.2
1698420168296.0,16,-2.2,1.8,-0.6000000000000001,-1.5,11.0,-0.6000000000000001,35.8,-19.400000000000002,36.3
1698420168313.0,16,-3.0,2.3000000000000003,-2.3000000000000003,-2.4000000000000004,11.600000000000001,-2.4000000000000004,48.800000000000004,13.6,-31.5
1698420168329.0,16,-1.8,8.700000000000001,8.3,-1.3,18.0,8.1,17.3,150.4,-6.9
1698420168346.0,16,-5.5,5.800000000000001,7.6000000000000005,-4.9,9.600000000000001,6.7,30.100000000000005,10.1,-0.4
1698420168363.0,16,1.1,-1.0,3.0,1.6,8.3,2.7,51.2,-40.4,30.7
1698420168380.0,16,8.9,3.1,3.5,9.600000000000001,12.4,3.2,11.000000000000002,62.50000000000001,5.7
1698420168396.0,16,6.0,8.1,7.0,6.7,17.400000000000002,6.7,-9.4,78.3,-7.699999999999999
1698420168413.0,16,-1.5,10.8,2.7,-0.9,20.200000000000003,2.5,12.6,14.700000000000001,-23.0
1698420168429.0,16,-1.6,3.6,2.6,-1.0,13.100000000000001,2.3000000000000003,10.8,40.4,-8.799999999999999
1698420168446.0,16,1.9000000000000001,4.1000000000000005,2.4000000000000004,2.5,13.700000000000001,2.1,-1.2000000000000002,27.3,-2.9
1698420168462.0,16,1.5,4.2,1.8,2.1,13.8,1.5,-2.5,14.800000000000002,-8.0
1698420168479.0,16,0.2,3.1,1.2000000000000002,0.7000000000000001,12.700000000000001,0.9,-7.2,5.6,-18.400000000000002
1698420168496.0,16,-0.30000000000000004,2.2,1.2000000000000002,-0.1,11.0,1.0,-11.1,6.2,-29.700000000000003
1698420168513.0,16,-0.9,0.7000000000000001,1.0,-0.5,10.3,0.9,-11.700000000000001,5.2,-35.7
1698420168529.0,16,-0.8,-0.8,0.4,-0.6000000000000001,8.8,0.30000000000000004,-12.6,6.000000000000001,-45.0
1698420168546.0,16,-1.3,-2.2,0.1,-1.2000000000000002,7.4,0.0,-14.600000000000001,5.500000000000001,-47.300000000000004
1698420168563.0,16,-1.4000000000000001,-2.8000000000000003,0.2,-1.4000000000000001,6.800000000000001,0.2,-14.900000000000002,3.3000000000000003,-45.2
1698420168579.0,16,-1.2000000000000002,-3.8000000000000003,-0.2,-1.3,5.800000000000001,-0.2,-14.900000000000002,0.5,-35.0
1698420168596.0,16,-0.8,-4.2,-0.30000000000000004,-1.0,5.4,-0.30000000000000004,-12.200000000000001,-11.3,-29.000000000000004
1698420168612.0,16,-0.7000000000000001,-4.7,-0.30000000000000004,-0.9,4.800000000000001,-0.2,-10.700000000000001,-15.100000000000001,-26.500000000000004
1698420168629.0,16,-0.4,-5.0,-0.5,-0.8,4.5,-0.30000000000000004,-6.4,-18.6,-21.8
1698420168646.0,16,-0.5,-5.300000000000001,-0.7000000000000001,-0.9,4.1000000000000005,-0.5,1.6,-21.6,-16.5
1698420168663.0,16,-0.5,-5.5,-1.0,-0.9,3.9000000000000004,-0.9,6.3,-23.0,-13.200000000000001
1698420168679.0,16,-0.6000000000000001,-5.1000000000000005,-1.3,-1.0,4.3,-1.2000000000000002,15.299999999999999,-29.800000000000004,-5.6
1698420168696.0,16,-0.6000000000000001,-4.1000000000000005,-0.8,-1.1,5.2,-0.8,16.8,-31.900000000000002,-2.9
1698420168713.0,16,-0.8,-3.3000000000000003,-0.7000000000000001,-1.3,6.0,-0.8,16.6,-31.099999999999998,-3.8
1698420168729.0,16,-0.7000000000000001,-1.4000000000000001,-0.1,-1.3,7.9,-0.2,9.9,-29.1,-13.200000000000001
1698420168747.0,16,-0.9,-0.2,1.3,-1.5,9.1,1.2000000000000002,4.5,-23.5,-22.8
1698420168763.0,16,-1.1,0.6000000000000001,1.9000000000000001,-1.3,9.9,0.7000000000000001,2.6,4.9,-33.7
1698420168779.0,16,3.1,1.2000000000000002,-3.5,2.4000000000000004,10.5,-3.7,18.7,-4.5,3.5
1698420168796.0,16,2.2,5.0,-1.7000000000000002,1.6,14.3,-1.9000000000000001,21.3,-44.00000000000001,8.700000000000001
1698420168813.0,16,1.8,5.7,0.9,1.1,15.0,0.7000000000000001,16.400000000000002,-31.6,-3.8
1698420168829.0,16,-0.5,2.7,3.4000000000000004,-1.2000000000000002,12.100000000000001,3.2,18.0,-10.8,-22.6
1698420168846.0,16,-1.4000000000000001,1.2000000000000002,3.5,-2.1,10.5,3.2,20.900000000000002,-26.3,-22.8
1698420168864.0,16,-0.9,1.6,2.5,-1.7000000000000002,10.9,2.2,3.1,-50.800000000000004,-8.799999999999999
1698420168880.0,16,0.2,6.9,2.1,-0.6000000000000001,16.3,1.8,-12.100000000000001,-63.70000000000001,7.699999999999999
1698420168896.0,16,1.7000000000000002,8.8,2.1,0.9,18.3,2.0,-10.1,-66.5,11.5
1698420168913.0,16,0.8,6.9,3.4000000000000004,0.1,16.400000000000002,3.3000000000000003,-10.2,-59.80000000000001,-0.8
1698420168929.0,16,-0.9,2.8000000000000003,2.8000000000000003,-1.7000000000000002,12.3,2.8000000000000003,-11.6,-40.1,-0.6000000000000001
1698420168946.0,16,-0.30000000000000004,2.5,2.9000000000000004,-1.1,12.100000000000001,2.9000000000000004,-15.5,-30.4,9.9
1698420168963.0,16,-0.30000000000000004,1.3,2.3000000000000003,-1.0,10.8,2.4000000000000004,-17.7,-17.200000000000003,27.2
1698420168979.0,16,-0.30000000000000004,0.5,1.6,-0.8,10.100000000000001,1.8,-16.6,-9.5,39.699999999999996
1698420168996.0,16,0.8,-1.0,1.0,0.4,8.6,1.3,-15.000000000000002,-6.9,47.900000000000006
1698420169013.0,16,1.2000000000000002,-1.5,1.0,0.9,8.1,1.2000000000000002,-15.000000000000002,-10.2,49.5
1698420169030.0,16,1.2000000000000002,-2.7,0.6000000000000001,1.1,6.9,0.9,-15.2,-9.5,49.2
1698420169046.0,16,1.1,-3.0,0.5,1.2000000000000002,6.6000000000000005,0.9,-14.800000000000002,-0.9,44.1
1698420169063.0,16,1.1,-3.1,0.1,1.2000000000000002,6.4,0.5,-13.3,3.7000000000000006,40.0
1698420169079.0,16,1.4000000000000001,-3.6,-0.4,1.7000000000000002,5.9,0.0,-9.600000000000001,16.5,32.5
1698420169096.0,16,1.1,-3.8000000000000003,-1.0,1.4000000000000001,5.6000000000000005,-0.6000000000000001,-7.8,28.500000000000004,23.3
1698420169113.0,16,0.6000000000000001,-3.8000000000000003,-1.1,1.0,5.7,-0.7000000000000001,-8.200000000000001,32.7,18.0
1698420169131.0,16,-0.2,-3.6,-1.3,0.2,5.800000000000001,-0.9,-10.2,40.1,9.5
1698420169146.0,16,-0.5,-3.3000000000000003,-0.8,-0.1,6.1000000000000005,-0.30000000000000004,-13.200000000000001,41.1,2.3000000000000003
1698420169162.0,16,-0.4,-3.1,-0.6000000000000001,0.0,6.2,-0.1,-11.700000000000001,40.5,-0.6000000000000001
1698420169181.0,16,0.1,-3.2,-0.4,0.4,6.2,0.2,2.3000000000000003,43.300000000000004,-6.4
1698420169196.0,16,0.30000000000000004,-3.2,-1.2000000000000002,0.7000000000000001,6.1000000000000005,-0.7000000000000001,20.900000000000002,50.1,-8.799999999999999
1698420169212.0,16,0.5,-3.1,-1.7000000000000002,0.9,6.6000000000000005,-1.3,27.6,53.6,1.0
1698420169229.0,16,0.4,-1.7000000000000002,-1.8,0.7000000000000001,7.5,-1.5,28.500000000000004,42.800000000000004,6.2
1698420169246.0,16,-0.6000000000000001,0.6000000000000001,-1.8,-0.2,9.9,-1.6,14.600000000000001,15.2,18.1
1698420169263.0,16,-1.0,2.2,-1.7000000000000002,-0.6000000000000001,11.5,-1.5,3.5,-2.8,27.5
1698420169279.0,16,-4.6000000000000005,9.1,0.0,-4.1000000000000005,18.5,0.30000000000000004,-22.5,-30.299999999999997,12.4
1698420169297.0,16,-6.5,8.5,1.8,-6.1000000000000005,17.900000000000002,2.1,-17.5,-34.300000000000004,-5.500000000000001
1698420169313.0,16,-1.2000000000000002,3.6,-0.7000000000000001,-0.7000000000000001,13.0,-0.4,13.8,-37.300000000000004,25.6
1698420169330.0,16,4.5,1.4000000000000001,3.6,5.1000000000000005,10.8,3.9000000000000004,13.6,-47.800000000000004,30.599999999999998
1698420169346.0,16,5.6000000000000005,0.9,0.1,6.300000000000001,10.4,0.30000000000000004,20.2,-6.3,8.9
1698420169363.0,16,5.4,2.1,0.9,6.1000000000000005,11.600000000000001,1.1,5.8,16.900000000000002,2.3000000000000003
1698420169380.0,16,1.6,5.0,3.4000000000000004,2.3000000000000003,14.5,3.7,-26.1,56.400000000000006,-17.1
1698420169396.0,16,-3.1,7.1000000000000005,2.5,-2.5,16.6,2.8000000000000003,-18.0,30.100000000000005,-22.900000000000002
1698420169413.0,16,-3.0,1.4000000000000001,1.4000000000000001,-2.6,11.0,1.8,-11.4,29.800000000000004,-23.900000000000002
1698420169429.0,16,-1.3,-0.1,0.8,-0.9,9.5,1.3,-14.900000000000002,27.3,-18.0
1698420169446.0,16,2.1,-0.2,0.6000000000000001,2.5,9.4,1.1,-20.6,7.400000000000001,-7.6
1698420169463.0,16,2.5,-0.1,0.30000000000000004,2.9000000000000004,9.5,0.9,-16.400000000000002,-11.3,-11.000000000000002
1698420169480.0,16,1.8,-1.2000000000000002,0.0,2.2,8.4,0.6000000000000001,-13.9,-9.1,-17.1
1698420169496.0,16,0.1,-3.2,-0.5,0.4,6.300000000000001,0.2,-12.5,10.700000000000001,-25.3
1698420169513.0,16,-0.5,-4.7,-0.4,-0.30000000000000004,4.800000000000001,0.30000000000000004,-13.5,38.7,-28.0
1698420169529.0,16,-0.7000000000000001,-4.800000000000001,-0.4,-0.5,4.7,0.4,-14.3,45.1,-33.400000000000006
1698420169546.0,16,-0.7000000000000001,-5.5,-0.4,-0.8,4.0,0.4,-17.5,42.900000000000006,-39.00000000000001
1698420169563.0,16,-1.2000000000000002,-5.5,-0.2,-1.4000000000000001,3.9000000000000004,0.6000000000000001,-16.0,29.300000000000004,-41.2
1698420169580.0,16,-1.3,-5.5,-0.30000000000000004,-1.6,3.9000000000000004,0.6000000000000001,-13.8,19.9,-37.6
1698420169596.0,16,-1.5,-5.1000000000000005,-1.0,-1.9000000000000001,4.3,-0.1,-8.3,1.8,-31.2
1698420169613.0,16,-1.3,-3.8000000000000003,-2.0,-1.7000000000000002,5.5,-1.1,-9.200000000000001,-13.9,-19.400000000000002
1698420169629.0,16,-1.5,-2.6,-2.0,-1.9000000000000001,6.7,-1.1,-11.1,-18.3,-13.8
1698420169646.0,16,-2.1,-0.4,-1.2000000000000002,-2.6,8.8,-0.2,-7.0,-19.700000000000003,0.30000000000000004
1698420169663.0,16,-1.6,-0.1,-1.2000000000000002,-2.1,9.1,-0.30000000000000004,14.600000000000001,-16.2,14.600000000000001
1698420169680.0,16,-1.2000000000000002,-0.30000000000000004,-1.5,-1.6,8.9,-0.7000000000000001,26.0,-19.400000000000002,16.6
1698420169698.0,16,-0.1,0.1,-2.8000000000000003,-0.5,9.3,-2.1,40.7,-27.1,6.7
1698420169713.0,16,0.8,3.3000000000000003,-2.7,0.4,12.600000000000001,-2.2,38.5,-30.100000000000005,-13.200000000000001
1698420169730.0,16,0.8,4.9,-1.6,0.30000000000000004,14.200000000000001,-1.1,31.2,-18.3,-24.400000000000002
1698420169746.0,16,1.4000000000000001,3.2,-2.5,0.9,12.600000000000001,-2.1,21.900000000000002,24.5,-26.0
1698420169763.0,16,1.1,3.1,-5.1000000000000005,0.6000000000000001,12.5,-4.800000000000001,26.0,19.700000000000003,-5.8
1698420169780.0,16,-1.3,6.300000000000001,-4.9,-1.9000000000000001,15.700000000000001,-4.7,21.900000000000002,3.0000000000000004,-12.100000000000001
1698420169796.0,16,-2.0,7.0,5.1000000000000005,-2.7,16.5,5.4,8.799999999999999,-28.0,-29.500000000000004
1698420169813.0,16,-0.5,-0.5,4.7,-1.3,9.0,4.800000000000001,38.7,3.5,-35.5
1698420169831.0,16,-0.8,-2.2,2.1,-1.7000000000000002,7.2,2.2,45.800000000000004,-29.900000000000006,-38.400000000000006
1698420169848.0,16,-2.3000000000000003,-3.8000000000000003,0.30000000000000004,-3.3000000000000003,5.6000000000000005,0.30000000000000004,27.0,-44.4,-18.2
1698420169863.0,16,-1.0,3.1,1.8,-2.0,12.5,1.8,-14.3,-81.8,-1.2000000000000002
1698420169880.0,16,0.8,7.300000000000001,4.7,1.6,19.900000000000002,5.2,-35.4,-83.0,6.7
1698420169896.0,16,4.4,10.4,4.5,3.6,20.0,4.800000000000001,-9.3,-61.1,27.6
1698420169913.0,16,1.6,1.4000000000000001,3.7,0.8,10.9,4.0,7.0,-44.8,-1.6
1698420169929.0,16,-1.2000000000000002,0.8,3.4000000000000004,-2.0,10.4,3.7,4.9,-23.0,-6.000000000000001
1698420169946.0,16,-2.0,2.5,1.1,-2.9000000000000004,12.100000000000001,1.4000000000000001,-2.5,7.699999999999999,14.4
1698420169963.0,16,-0.7000000000000001,1.3,0.5,-1.4000000000000001,11.0,0.9,-6.9,4.6000000000000005,33.800000000000004
1698420169980.0,16,-0.2,0.30000000000000004,0.30000000000000004,-0.9,9.9,0.6000000000000001,-7.9,-0.30000000000000004,38.7
1698420169996.0,16,0.1,-2.3000000000000003,0.30000000000000004,-0.4,7.4,0.7000000000000001,-9.200000000000001,-15.2,49.0
1698420170013.0,16,0.0,-3.5,0.30000000000000004,-0.30000000000000004,6.1000000000000005,0.7000000000000001,-13.200000000000001,-23.8,56.2
1698420170029.0,16,0.2,-3.6,0.4,0.30000000000000004,5.6000000000000005,1.0,-15.100000000000001,-21.900000000000002,57.699999999999996
1698420170046.0,16,0.7000000000000001,-4.3,0.7000000000000001,0.7000000000000001,5.2,1.2000000000000002,-15.000000000000002,-20.1,50.9
1698420170063.0,16,1.2000000000000002,-4.9,0.0,1.3,4.6000000000000005,0.6000000000000001,-8.3,-7.2,44.4
1698420170079.0,16,1.2000000000000002,-4.9,-0.4,1.4000000000000001,4.5,0.2,-8.799999999999999,-6.2,38.2
1698420170096.0,16,1.1,-4.7,-0.5,1.4000000000000001,4.800000000000001,0.1,-11.1,4.2,23.900000000000002
1698420170113.0,16,0.9,-4.2,-0.8,1.3,5.2,-0.2,-10.1,19.1,15.6
1698420170129.0,16,0.1,-3.7,-1.2000000000000002,0.6000000000000001,5.6000000000000005,-0.6000000000000001,-6.6000000000000005,26.8,12.5
1698420170146.0,16,0.1,-3.4000000000000004,-1.2000000000000002,0.6000000000000001,5.9,-0.6000000000000001,-6.000000000000001,29.400000000000002,12.100000000000001
1698420170163.0,16,0.0,-2.4000000000000004,-1.1,0.5,6.9,-0.4,0.30000000000000004,24.1,7.300000000000001
1698420170179.0,16,0.2,-2.4000000000000004,-1.4000000000000001,0.6000000000000001,7.0,-0.8,22.5,33.7,-2.4000000000000004
1698420170196.0,16,0.30000000000000004,-2.1,-2.2,0.7000000000000001,7.2,-1.6,32.4,47.7,-2.6
1698420170213.0,16,0.4,-1.0,-2.8000000000000003,0.8,8.3,-2.4000000000000004,39.8,52.800000000000004,8.200000000000001
1698420170229.0,16,0.4,0.6000000000000001,-2.1,0.9,9.9,-1.8,16.900000000000002,14.100000000000001,27.900000000000002
1698420170246.0,16,0.0,2.0,-1.9000000000000001,0.6000000000000001,11.3,-1.6,3.8,-16.8,37.2
1698420170263.0,16,-3.1,6.6000000000000005,-2.6,-2.5,15.9,-2.3000000000000003,0.0,-43.1,9.5
1698420170279.0,16,-0.4,9.4,2.3000000000000003,0.30000000000000004,18.8,2.6,-7.2,22.3,16.400000000000002
1698420170296.0,16,-1.6,6.7,2.4000000000000004,-0.9,16.2,2.7,23.0,18.6,24.1
1698420170313.0,16,2.1,1.1,2.5,2.9000000000000004,10.600000000000001,2.7,35.0,-56.6,48.2
1698420170329.0,16,6.9,-2.0,2.4000000000000004,8.0,7.5,2.4000000000000004,40.6,3.3000000000000003,37.0
1698420170346.0,16,7.4,-1.2000000000000002,2.3000000000000003,8.5,8.200000000000001,2.2,35.5,32.5,20.3
1698420170363.0,16,3.8000000000000003,2.7,4.3,4.9,12.100000000000001,4.3,-5.6,97.00000000000001,-6.3
1698420170379.0,16,-3.1,8.5,2.6,-2.0,18.0,2.7,-11.000000000000002,70.0,-21.0
1698420170397.0,16,-4.1000000000000005,8.6,2.2,-3.1,18.2,2.4000000000000004,-0.7,70.9,-32.5
1698420170413.0,16,-1.9000000000000001,2.2,1.8,-1.1,11.8,1.9000000000000001,8.0,56.400000000000006,-23.400000000000002
1698420170429.0,16,1.7000000000000002,2.1,1.4000000000000001,2.6,11.700000000000001,1.5,2.6,29.1,-8.200000000000001
1698420170447.0,16,1.9000000000000001,2.0,1.3,2.8000000000000003,11.700000000000001,1.4000000000000001,2.8,12.000000000000002,-7.8
1698420170462.0,16,0.4,0.4,0.30000000000000004,1.2000000000000002,10.0,0.5,4.7,-1.6,-21.5
1698420170479.0,16,-0.5,-1.3,0.4,0.2,8.3,0.6000000000000001,1.0,3.4,-33.7
1698420170496.0,16,-0.6000000000000001,-2.2,0.4,0.0,7.4,0.5,-0.9,6.4,-42.900000000000006
1698420170513.0,16,-0.9,-3.5,0.2,-0.5,6.1000000000000005,0.4,-7.500000000000001,18.7,-54.3
1698420170531.0,16,-1.4000000000000001,-4.3,0.2,-1.2000000000000002,5.2,0.5,-14.200000000000001,24.5,-58.7
1698420170546.0,16,-1.5,-4.6000000000000005,0.2,-1.4000000000000001,5.0,0.5,-16.3,24.8,-57.9
1698420170562.0,16,-1.7000000000000002,-4.3,-0.2,-1.8,5.2,0.1,-19.9,19.6,-49.9
1698420170579.0,16,-1.9000000000000001,-4.4,-0.4,-2.2,5.1000000000000005,0.0,-18.8,5.500000000000001,-33.1
1698420170596.0,16,-1.8,-4.4,-0.6000000000000001,-2.1,5.0,-0.2,-16.8,-1.0999999999999999,-23.6
1698420170613.0,16,-1.0,-4.4,-1.1,-1.3,5.0,-0.7000000000000001,-13.700000000000001,-14.700000000000001,-9.600000000000001
1698420170629.0,16,-0.4,-3.9000000000000004,-1.4000000000000001,-0.7000000000000001,5.5,-1.0,-11.6,-23.5,-2.4000000000000004
1698420170646.0,16,-0.30000000000000004,-3.6,-1.5,-0.6000000000000001,5.800000000000001,-1.0,-9.9,-23.6,1.5000000000000002
1698420170663.0,16,-0.6000000000000001,-3.1,-1.5,-0.9,6.2,-1.0,-3.0000000000000004,-25.8,11.9
1698420170680.0,16,-1.4000000000000001,-2.2,-1.2000000000000002,-1.7000000000000002,7.1000000000000005,-0.7000000000000001,3.6,-35.4,20.3
1698420170696.0,16,-2.0,-1.8,-0.7000000000000001,-2.2,7.5,-0.30000000000000004,4.7,-39.300000000000004,18.2
1698420170715.0,16,-2.1,0.0,-0.8,-2.3000000000000003,9.3,-0.30000000000000004,6.1000000000000005,-33.7,2.9
1698420170731.0,16,-0.1,2.0,1.5,-0.30000000000000004,11.3,1.9000000000000001,-8.799999999999999,-5.2,-24.1
1698420170746.0,16,4.6000000000000005,2.8000000000000003,-3.1,1.2000000000000002,10.8,0.0,-9.700000000000001,20.2,-32.300000000000004
1698420170763.0,16,5.7,3.9000000000000004,-4.6000000000000005,5.4,13.3,-4.2,4.3999999999999995,24.400000000000002,-8.799999999999999
1698420170779.0,16,1.9000000000000001,8.4,-2.0,1.6,17.8,-1.6,8.5,-20.4,-13.0
1698420170797.0,16,0.5,8.1,0.1,-1.2000000000000002,13.9,1.1,11.8,-21.1,-31.4
1698420170819.0,16,-4.2,-0.30000000000000004,3.6,-4.800000000000001,9.200000000000001,3.9000000000000004,41.1,-17.9,-41.1
1698420170829.0,16,-4.800000000000001,-0.8,0.1,-5.5,8.6,0.30000000000000004,47.2,-22.2,-36.4
1698420170846.0,16,-4.7,1.1,0.6000000000000001,-5.6000000000000005,10.600000000000001,0.7000000000000001,16.700000000000003,-59.80000000000001,-15.7
1698420170862.0,16,-2.8000000000000003,3.2,2.9000000000000004,-3.6,12.700000000000001,3.0,-10.4,-74.10000000000001,-11.8
1698420170879.0,16,3.9000000000000004,7.7,3.9000000000000004,3.1,17.2,4.2,-31.5,-71.7,10.9
1698420170896.0,16,6.2,8.5,4.1000000000000005,4.0,15.9,4.800000000000001,-21.3,-69.5,21.400000000000002
1698420170913.0,16,1.0,3.1,3.8000000000000003,0.30000000000000004,12.700000000000001,4.3,-3.0000000000000004,-58.1,4.3999999999999995
1698420170929.0,16,-1.7000000000000002,2.2,2.2,-2.4000000000000004,11.9,2.7,-4.6000000000000005,-17.7,2.9
1698420170946.0,16,-1.4000000000000001,1.9000000000000001,2.0,-2.1,11.5,2.5,-7.1000000000000005,-5.8,12.000000000000002
1698420170963.0,16,-0.4,0.6000000000000001,1.0,-1.0,10.200000000000001,1.6,-9.4,-3.7000000000000006,29.1
1698420170979.0,16,0.5,-0.7000000000000001,0.5,0.1,8.9,1.1,-11.5,-9.9,39.300000000000004
1698420170996.0,16,0.8,-2.6,-0.1,0.5,7.0,0.6000000000000001,-16.5,-23.3,48.6
1698420171013.0,16,1.0,-2.9000000000000004,0.1,0.8,6.7,0.7000000000000001,-18.6,-27.3,52.50000000000001
1698420171029.0,16,1.5,-3.7,0.2,1.5,5.800000000000001,1.0,-23.900000000000002,-33.300000000000004,51.400000000000006
1698420171046.0,16,1.5,-3.9000000000000004,0.4,1.7000000000000002,5.7,1.3,-18.3,-18.2,47.2
1698420171063.0,16,1.6,-3.7,0.1,1.9000000000000001,5.800000000000001,1.0,-12.100000000000001,-4.5,44.00000000000001
1698420171080.0,16,1.2000000000000002,-4.1000000000000005,-0.6000000000000001,1.6,5.4,0.30000000000000004,-5.8,10.8,29.400000000000002
1698420171096.0,16,0.7000000000000001,-4.3,-0.9,0.6000000000000001,5.1000000000000005,-0.30000000000000004,-3.2,23.900000000000002,8.5
1698420171114.0,16,0.0,-4.5,-1.5,0.4,4.9,-0.6000000000000001,-2.1999999999999997,30.9,1.2000000000000002
1698420171129.0,16,0.1,-4.1000000000000005,-1.9000000000000001,0.5,5.2,-1.0,0.1,37.900000000000006,2.9
1698420171146.0,16,-0.1,-3.4000000000000004,-1.8,0.30000000000000004,5.9,-0.9,-0.9,36.9,3.2
1698420171164.0,16,0.0,-3.0,-1.6,0.5,6.300000000000001,-0.7000000000000001,1.0,35.9,1.5000000000000002
1698420171179.0,16,0.5,-2.5,-1.1,0.9,6.800000000000001,-0.2,13.4,39.6,-1.0
1698420171196.0,16,1.3,-2.7,-1.4000000000000001,1.7000000000000002,6.6000000000000005,-0.7000000000000001,27.8,59.20000000000001,1.5000000000000002
1698420171215.0,16,1.9000000000000001,-2.6,-1.6,2.3000000000000003,6.7,-0.9,33.5,65.8,6.6000000000000005
1698420171229.0,16,1.6,-1.2000000000000002,-2.0,2.0,8.1,-1.5,39.00000000000001,53.9,20.4
1698420171246.0,16,-0.1,0.8,-2.4000000000000004,1.3,8.9,-1.6,30.5,39.400000000000006,28.6
1698420171263.0,16,-1.8,3.1,-3.1,-1.2000000000000002,12.4,-2.7,6.6000000000000005,-21.8,40.0
1698420171279.0,16,-4.2,8.8,-0.6000000000000001,-3.6,18.1,-0.2,-16.3,-8.4,-4.2
1698420171296.0,16,-3.7,7.9,0.2,-3.2,17.3,0.6000000000000001,18.0,50.9,-2.4000000000000004
1698420171313.0,16,-1.4000000000000001,3.4000000000000004,2.5,-0.8,12.8,2.9000000000000004,23.6,-17.5,19.500000000000004
1698420171329.0,16,4.9,-1.1,1.1,5.6000000000000005,8.4,1.4000000000000001,48.6,-28.400000000000002,32.6
1698420171346.0,16,6.300000000000001,-0.4,2.5,7.2,9.0,2.7,30.799999999999997,23.2,14.200000000000001
1698420171363.0,16,5.6000000000000005,1.4000000000000001,1.4000000000000001,6.5,10.8,1.6,11.9,54.4,11.000000000000002
1698420171380.0,16,0.30000000000000004,6.4,3.6,1.2000000000000002,15.9,3.9000000000000004,-9.9,47.300000000000004,-9.0
1698420171396.0,16,-2.8000000000000003,6.9,2.4000000000000004,-2.0,16.400000000000002,2.7,-0.1,41.6,-29.800000000000004
1698420171414.0,16,-0.9,2.2,2.4000000000000004,-0.2,11.8,2.7,5.2,29.800000000000004,-17.1
1698420171429.0,16,0.5,2.1,1.3,1.2000000000000002,11.700000000000001,1.7000000000000002,3.6,20.5,-8.200000000000001
1698420171446.0,16,1.6,2.1,1.5,2.3000000000000003,11.700000000000001,1.9000000000000001,1.9,-1.3,-3.8
1698420171463.0,16,1.2000000000000002,1.6,0.9,1.9000000000000001,11.200000000000001,1.2000000000000002,2.4000000000000004,-9.1,-10.2
1698420171479.0,16,-0.1,0.0,1.0,0.5,9.700000000000001,1.3,-0.6000000000000001,-5.500000000000001,-24.3
1698420171496.0,16,-0.8,-1.0,0.30000000000000004,-0.30000000000000004,8.6,0.6000000000000001,-2.8,1.6,-39.8
1698420171513.0,16,-1.2000000000000002,-2.1,0.0,-0.9,7.5,0.4,-4.800000000000001,6.7,-46.300000000000004
1698420171529.0,16,-1.5,-2.8000000000000003,-0.1,-1.2000000000000002,6.800000000000001,0.30000000000000004,-8.600000000000001,11.1,-52.900000000000006
1698420171546.0,16,-1.9000000000000001,-3.5,-0.1,-1.9000000000000001,6.1000000000000005,0.30000000000000004,-12.000000000000002,7.0,-51.900000000000006
1698420171563.0,16,-2.1,-3.9000000000000004,-0.2,-2.2,5.6000000000000005,0.2,-11.5,-5.1,-45.2
1698420171579.0,16,-1.8,-4.2,-0.30000000000000004,-2.0,5.300000000000001,0.2,-12.3,-9.1,-38.2
1698420171597.0,16,-1.1,-4.7,-0.6000000000000001,-1.4000000000000001,4.800000000000001,-0.1,-11.6,-13.9,-31.4
1698420171613.0,16,-0.5,-4.800000000000001,-0.7000000000000001,-0.8,4.6000000000000005,-0.2,-10.8,-23.1,-18.1
1698420171629.0,16,0.1,-4.3,-1.0,-0.30000000000000004,5.2,-0.5,-9.700000000000001,-27.3,-11.1
1698420171646.0,16,0.30000000000000004,-3.8000000000000003,-1.2000000000000002,-0.1,5.6000000000000005,-0.6000000000000001,-7.9,-28.0,-7.6
1698420171663.0,16,0.0,-4.0,-1.1,-0.4,5.300000000000001,-0.5,-5.9,-27.2,-4.0
1698420171679.0,16,-0.30000000000000004,-3.8000000000000003,-1.2000000000000002,-0.7000000000000001,5.5,-0.7000000000000001,0.4,-28.700000000000003,5.2
1698420171696.0,16,-1.1,-2.8000000000000003,-1.3,-1.5,6.5,-0.7000000000000001,1.9,-36.2,11.9
1698420171714.0,16,-2.2,-1.5,-0.7000000000000001,-2.5,7.800000000000001,-0.1,-0.8,-36.4,4.9
1698420171729.0,16,-2.5,-0.4,-0.7000000000000001,-2.9000000000000004,8.9,-0.1,-0.7,-32.4,-2.6
1698420171746.0,16,-1.4000000000000001,2.1,0.5,-1.9000000000000001,11.4,1.1,-14.600000000000001,-14.0,-20.1
1698420171763.0,16,-0.2,2.4000000000000004,0.7000000000000001,-0.7000000000000001,11.700000000000001,1.3,-20.3,6.6000000000000005,-25.700000000000003
1698420171780.0,16,5.300000000000001,5.1000000000000005,-3.0,4.800000000000001,14.4,-2.4000000000000004,0.6000000000000001,35.3,-6.7
1698420171797.0,16,2.9000000000000004,6.2,-4.6000000000000005,2.5,15.600000000000001,-4.1000000000000005,23.700000000000003,5.2,-2.8
1698420171813.0,16,-0.7000000000000001,7.1000000000000005,-1.6,-1.2000000000000002,16.5,-1.1,13.3,-3.2,-35.6
1698420171830.0,16,-0.5,4.5,-0.7000000000000001,-1.1,14.0,-0.30000000000000004,9.4,14.4,-39.2
1698420171846.0,16,-2.2,0.30000000000000004,5.2,-2.9000000000000004,9.700000000000001,5.6000000000000005,22.4,-6.6000000000000005,-38.1
1698420171863.0,16,-2.5,-1.4000000000000001,0.5,-3.4000000000000004,8.1,0.8,32.6,-10.3,-26.200000000000003
1698420171880.0,16,-3.3000000000000003,-1.7000000000000002,1.1,-4.2,7.7,1.3,27.900000000000002,-36.0,-15.2
1698420171896.0,16,-2.1,1.0,1.7000000000000002,-3.0,10.5,2.0,-4.300000000000001,-58.1,3.1
1698420171913.0,16,2.1,5.0,3.5,1.2000000000000002,14.5,4.0,-30.5,-50.9,18.6
1698420171929.0,16,3.9000000000000004,6.7,3.9000000000000004,3.1,16.2,4.4,-20.6,-49.2,26.6
1698420171946.0,16,1.5,3.6,3.3000000000000003,0.8,13.200000000000001,3.8000000000000003,1.0,-40.0,5.9
1698420171963.0,16,-1.5,1.3,1.5,-1.3,11.0,2.9000000000000004,5.2,-28.900000000000002,-2.0
1698420171979.0,16,-1.7000000000000002,1.4000000000000001,1.4000000000000001,-2.4000000000000004,10.9,2.0,-1.7,-5.9,8.700000000000001
1698420171996.0,16,-0.9,0.6000000000000001,0.8,-1.6,10.200000000000001,1.4000000000000001,-4.6000000000000005,-7.2,24.1
1698420172013.0,16,0.1,-0.8,0.30000000000000004,-1.0,9.600000000000001,1.1,-4.9,-10.3,29.400000000000002
1698420172030.0,16,0.4,-1.4000000000000001,0.0,-0.1,8.1,0.6000000000000001,-6.1000000000000005,-21.900000000000002,38.1
1698420172046.0,16,0.8,-2.7,0.0,0.5,6.9,0.7000000000000001,-10.0,-29.300000000000004,42.900000000000006
1698420172063.0,16,1.1,-3.0,0.4,1.0,6.6000000000000005,1.1,-10.3,-25.700000000000003,46.900000000000006
1698420172080.0,16,1.3,-3.0,0.30000000000000004,1.2000000000000002,6.5,1.0,-9.0,-19.8,46.6
1698420172096.0,16,1.6,-3.1,0.0,1.7000000000000002,6.4,0.7000000000000001,-6.5,-6.4,42.400000000000006
1698420172113.0,16,1.5,-3.3000000000000003,-0.4,1.8,6.300000000000001,0.6000000000000001,-5.300000000000001,0.9,37.300000000000004
1698420172130.0,16,1.2000000000000002,-3.1,-0.8,1.5,6.300000000000001,0.0,-3.3000000000000003,17.200000000000003,22.2
1698420172146.0,16,1.0,-3.2,-1.0,1.3,6.2,-0.30000000000000004,-0.9,32.300000000000004,10.8
1698420172163.0,16,0.30000000000000004,-2.9000000000000004,-1.3,0.7000000000000001,6.5,-0.6000000000000001,2.4000000000000004,38.2,12.6
1698420172180.0,16,0.0,-3.2,-1.3,0.30000000000000004,6.2,-0.6000000000000001,5.300000000000001,39.8,9.1
1698420172196.0,16,-0.30000000000000004,-2.6,-1.6,0.0,6.800000000000001,-0.9,12.3,45.3,6.2
1698420172213.0,16,-0.1,-2.5,-1.1,0.30000000000000004,6.800000000000001,-0.5,21.400000000000002,47.6,2.1999999999999997
1698420172229.0,16,0.4,-2.6,-1.3,0.8,6.7,-0.8,28.0,54.800000000000004,3.3000000000000003
1698420172246.0,16,1.7000000000000002,-1.5,-2.0,2.0,7.9,-1.6,39.00000000000001,63.0,13.4
1698420172263.0,16,1.2000000000000002,-0.4,-2.6,1.6,8.9,-2.3000000000000003,36.1,52.300000000000004,25.3
1698420172280.0,16,-0.9,1.3,-2.7,0.7000000000000001,9.5,-2.5,23.700000000000003,33.1,32.7
1698420172296.0,16,-2.7,3.6,-2.5,-2.1,13.0,-2.3000000000000003,-3.4,-29.1,35.199999999999996
1698420172313.0,16,-2.1,5.5,-2.2,-1.5,14.9,-2.0,1.7,-27.1,3.5
1698420172329.0,16,1.3,7.2,0.8,2.0,16.6,1.0,11.6,33.0,24.5
1698420172346.0,16,0.1,3.8000000000000003,-0.30000000000000004,0.8,13.200000000000001,-0.2,29.600000000000005,15.9,31.0
1698420172363.0,16,0.7000000000000001,0.5,3.6,1.5,9.9,3.6,29.000000000000004,-34.0,42.1
1698420172380.0,16,4.7,-1.9000000000000001,1.1,5.7,7.5,1.0,36.9,7.500000000000001,28.1
1698420172396.0,16,5.0,-1.2000000000000002,2.6,6.1000000000000005,8.200000000000001,2.5,28.6,29.300000000000004,14.200000000000001
1698420172413.0,16,1.8,3.2,3.2,2.9000000000000004,12.700000000000001,3.1,-1.9,73.2,-1.0999999999999999
1698420172429.0,16,-1.2000000000000002,5.9,4.3,-2.3000000000000003,15.9,3.5,-7.300000000000001,45.9,-22.900000000000002
1698420172446.0,16,-3.3000000000000003,5.0,2.2,-2.3000000000000003,14.5,2.2,3.4,37.2,-27.0
1698420172463.0,16,0.2,2.0,1.7000000000000002,1.1,11.5,1.8,5.8,28.8,-17.400000000000002
1698420172479.0,16,1.5,2.6,1.4000000000000001,2.2,11.5,1.5,1.4,21.200000000000003,-14.4
1698420172496.0,16,1.1,2.8000000000000003,1.4000000000000001,2.0,12.4,1.4000000000000001,-2.1999999999999997,-9.1,-7.8
1698420172512.0,16,0.0,1.2000000000000002,0.8,0.8,10.8,0.9,-1.5000000000000002,-18.6,-16.2
1698420172530.0,16,-0.5,-0.4,1.0,0.4,9.9,1.0,-4.1000000000000005,-16.0,-22.3
1698420172546.0,16,-0.5,-0.9,0.9,0.2,8.700000000000001,0.9,-7.0,-8.0,-37.4
1698420172563.0,16,-0.6000000000000001,-1.8,0.4,-0.1,7.800000000000001,0.6000000000000001,-10.1,1.5000000000000002,-49.4
1698420172579.0,16,-0.8,-2.3000000000000003,0.30000000000000004,-0.4,7.300000000000001,0.4,-11.6,2.8,-52.800000000000004
1698420172597.0,16,-1.2000000000000002,-3.0,0.1,-1.0,6.5,0.30000000000000004,-13.9,1.2000000000000002,-54.3
1698420172613.0,16,-1.2000000000000002,-3.6,0.0,-1.2000000000000002,5.9,0.30000000000000004,-14.700000000000001,-2.9,-46.0
1698420172630.0,16,-1.3,-3.8000000000000003,-0.1,-1.3,5.7,0.1,-14.700000000000001,-6.9,-41.7
1698420172646.0,16,-1.4000000000000001,-4.2,-0.5,-1.5,5.2,-0.2,-15.2,-15.9,-31.2
1698420172663.0,16,-1.1,-3.9000000000000004,-0.7000000000000001,-1.3,5.5,-0.4,-18.5,-24.7,-18.400000000000002
1698420172679.0,16,-0.5,-3.0,-0.8,-0.8,6.4,-0.4,-24.1,-28.200000000000003,-9.9
1698420172696.0,16,-0.2,-2.5,-0.7000000000000001,-0.5,6.9,-0.2,-26.0,-28.500000000000004,-8.1
1698420172713.0,16,-0.1,-1.9000000000000001,-0.6000000000000001,-0.4,7.5,0.0,-24.1,-26.1,-2.7
1698420172729.0,16,-0.5,-2.5,-0.5,-0.8,6.9,0.1,-12.8,-28.3,5.2
1698420172746.0,16,-0.9,-2.5,-0.5,-1.1,6.9,0.1,-5.8,-29.000000000000004,7.699999999999999
1698420172763.0,16,-1.1,-2.4000000000000004,-1.0,-1.3,7.0,-0.4,5.300000000000001,-23.0,6.9
1698420172779.0,16,-0.2,-1.0,-1.9000000000000001,-0.5,8.3,-1.4000000000000001,11.3,-9.1,2.4000000000000004
1698420172796.0,16,0.4,0.5,-1.8,0.1,9.8,-1.3,9.0,-5.4,-1.0999999999999999
1698420172813.0,16,0.6000000000000001,3.2,0.0,0.30000000000000004,12.5,0.5,-5.9,8.799999999999999,-16.400000000000002
1698420172829.0,16,1.9000000000000001,4.2,-2.6,1.6,13.600000000000001,-2.1,0.6000000000000001,40.3,-17.599999999999998
1698420172847.0,16,0.7000000000000001,3.5,-4.6000000000000005,0.30000000000000004,12.9,-4.2,15.399999999999999,24.000000000000004,-4.0
1698420172862.0,16,-0.4,4.800000000000001,-3.9000000000000004,-0.8,14.200000000000001,-3.5,14.100000000000001,3.2,-10.1
1698420172880.0,16,-1.1,4.3,-0.30000000000000004,-1.5,13.8,0.1,14.3,-12.200000000000001,-35.5
1698420172896.0,16,-0.7000000000000001,2.7,0.5,-1.2000000000000002,12.200000000000001,0.9,19.0,1.4,-43.900000000000006
1698420172913.0,16,-1.3,-0.30000000000000004,1.9000000000000001,-2.0,9.200000000000001,2.2,27.7,-13.700000000000001,-49.3
1698420172931.0,16,-1.9000000000000001,-1.9000000000000001,0.30000000000000004,-2.7,7.6000000000000005,0.5,27.2,-22.3,-32.800000000000004
1698420172946.0,16,-1.9000000000000001,-1.9000000000000001,1.0,-2.5,9.0,1.4000000000000001,20.8,-43.0,-22.6
1698420172963.0,16,-0.4,1.5,1.9000000000000001,-1.3,11.0,2.1,-6.7,-63.0,-7.1000000000000005
1698420172979.0,16,3.1,5.0,4.2,2.1,14.5,4.5,-24.000000000000004,-55.900000000000006,5.9
1698420172996.0,16,4.0,5.6000000000000005,4.1000000000000005,3.1,15.100000000000001,4.5,-12.4,-49.1,13.200000000000001
1698420173013.0,16,1.1,3.0,2.6,0.30000000000000004,12.600000000000001,3.0,2.5,-19.400000000000002,5.4
1698420173029.0,16,-0.9,1.9000000000000001,1.9000000000000001,-1.7000000000000002,11.5,2.3000000000000003,-1.0,4.800000000000001,9.1
1698420173046.0,16,-0.8,1.7000000000000002,1.4000000000000001,-1.5,11.3,1.8,-5.0,15.5,23.8
1698420173062.0,16,-0.5,1.2000000000000002,1.0,-1.2000000000000002,10.8,1.4000000000000001,-4.9,14.900000000000002,30.4
1698420173079.0,16,0.30000000000000004,0.0,0.2,-0.30000000000000004,9.600000000000001,0.6000000000000001,-5.300000000000001,13.4,37.4
1698420173096.0,16,0.6000000000000001,-1.7000000000000002,0.2,0.1,7.9,0.7000000000000001,-8.3,3.6,41.1
1698420173113.0,16,0.5,-2.3000000000000003,0.1,0.2,7.300000000000001,0.6000000000000001,-10.600000000000001,-1.0,41.5
1698420173129.0,16,0.6000000000000001,-2.8000000000000003,0.30000000000000004,0.4,6.800000000000001,0.8,-13.4,-1.2000000000000002,44.5
1698420173146.0,16,0.9,-3.1,0.4,0.8,6.5,0.9,-12.200000000000001,5.1,45.2
1698420173163.0,16,1.1,-3.5,0.30000000000000004,1.1,6.0,0.9,-9.0,16.2,40.9
1698420173179.0,16,0.9,-3.8000000000000003,-0.2,1.1,5.7,0.4,-6.3,27.0,28.0
1698420173196.0,16,0.5,-3.6,-0.7000000000000001,0.9,5.7,0.2,-4.800000000000001,35.7,22.6
1698420173213.0,16,0.4,-3.2,-0.8,0.6000000000000001,6.300000000000001,-0.2,-4.800000000000001,44.7,15.000000000000002
1698420173231.0,16,-0.1,-2.8000000000000003,-1.2000000000000002,0.1,6.6000000000000005,-0.6000000000000001,-4.800000000000001,44.2,6.7
1698420173246.0,16,-0.30000000000000004,-2.7,-1.4000000000000001,-0.1,6.7,-0.8,-2.8,37.4,3.1
1698420173263.0,16,-0.5,-2.4000000000000004,-1.4000000000000001,-0.2,7.0,-0.7000000000000001,-0.9,34.0,1.0999999999999999
1698420173279.0,16,-0.4,-2.3000000000000003,-1.1,-0.2,7.1000000000000005,-0.4,8.5,31.6,-4.0
1698420173296.0,16,0.30000000000000004,-2.6,-1.5,0.0,6.800000000000001,-0.5,16.5,33.400000000000006,-6.2
1698420173313.0,16,0.8,-2.2,-2.0,1.0,7.1000000000000005,-1.5,29.000000000000004,37.1,-4.1000000000000005
1698420173329.0,16,1.7000000000000002,-0.7000000000000001,-2.6,1.9000000000000001,8.6,-2.3000000000000003,30.599999999999998,30.200000000000003,1.6
1698420173346.0,16,0.8,1.2000000000000002,-2.5,1.0,10.5,-2.2,14.0,12.5,11.1
1698420173363.0,16,0.1,2.3000000000000003,-2.2,0.30000000000000004,11.700000000000001,-2.0,1.7,-11.2,21.1
1698420173379.0,16,-3.7,6.4,-2.5,-3.4000000000000004,15.8,-2.3000000000000003,-1.9,-50.4,16.6
1698420173396.0,16,-1.7000000000000002,8.200000000000001,-1.7000000000000002,-1.4000000000000001,17.6,-1.5,-2.1,-16.3,11.2
1698420173413.0,16,-0.5,6.2,0.0,-0.2,15.700000000000001,0.30000000000000004,6.6000000000000005,-3.4,21.6
1698420173430.0,16,1.0,1.3,-1.3,1.5,10.8,-1.1,27.5,-38.1,39.2
1698420173446.0,16,2.6,-0.4,1.4000000000000001,3.2,9.1,1.5,29.300000000000004,-10.3,36.800000000000004
1698420173463.0,16,4.0,-1.5,0.0,4.6000000000000005,8.0,0.0,33.900000000000006,0.1,29.600000000000005
1698420173479.0,16,4.1000000000000005,0.0,2.1,4.800000000000001,9.5,2.0,16.3,37.7,18.7
1698420173496.0,16,0.1,3.7,4.4,0.9,13.200000000000001,4.5,-15.000000000000002,40.2,5.9
1698420173513.0,16,-2.8000000000000003,5.300000000000001,3.8000000000000003,-2.0,14.9,3.8000000000000003,-14.800000000000002,31.900000000000002,-10.1
1698420173529.0,16,-2.8000000000000003,3.8000000000000003,2.5,-2.1,13.3,2.7,-6.9,32.2,-21.1
1698420173546.0,16,0.2,1.3,1.9000000000000001,0.8,10.9,2.1,-6.6000000000000005,23.3,-17.3
1698420173563.0,16,1.3,1.4000000000000001,1.2000000000000002,1.9000000000000001,11.0,1.4000000000000001,-6.8,12.9,-11.2
1698420173579.0,16,1.7000000000000002,1.7000000000000002,1.2000000000000002,2.3000000000000003,11.4,1.4000000000000001,-6.000000000000001,-17.200000000000003,-6.3
1698420173596.0,16,0.1,0.2,0.8,0.7000000000000001,9.8,1.0,-3.0000000000000004,-24.5,-20.2
1698420173613.0,16,-0.2,-0.5,0.6000000000000001,0.30000000000000004,9.1,0.8,-4.3999999999999995,-18.900000000000002,-25.900000000000002
1698420173629.0,16,-1.0,-1.1,0.30000000000000004,-0.6000000000000001,8.5,0.6000000000000001,-7.6,-1.0999999999999999,-39.2
1698420173647.0,16,-1.0,-2.2,0.0,-0.8,7.4,0.30000000000000004,-9.4,10.5,-49.4
1698420173663.0,16,-0.9,-2.5,-0.2,-0.8,7.1000000000000005,0.1,-11.1,13.8,-50.0
1698420173680.0,16,-0.9,-3.3000000000000003,-0.1,-0.9,6.300000000000001,0.30000000000000004,-13.9,11.6,-47.6
1698420173696.0,16,-1.0,-3.2,-0.4,-1.2000000000000002,6.300000000000001,0.0,-13.200000000000001,1.9,-41.4
1698420173713.0,16,-1.0,-3.7,-0.30000000000000004,-1.3,5.800000000000001,0.1,-13.6,-3.6,-35.3
1698420173729.0,16,-1.0,-4.1000000000000005,-0.5,-1.3,5.4,0.0,-14.4,-12.200000000000001,-24.9
1698420173746.0,16,-0.6000000000000001,-3.8000000000000003,-0.7000000000000001,-1.0,5.7,-0.2,-14.200000000000001,-16.5,-17.400000000000002
1698420173763.0,16,-0.4,-2.5,-1.1,-0.9,6.2,-0.4,-14.900000000000002,-16.8,-14.3
1698420173779.0,16,-0.30000000000000004,-2.0,-1.0,-0.8,7.4,-0.5,-14.800000000000002,-18.2,-7.9
1698420173807.0,16,-0.5,-2.5,-0.8,-0.9,7.2,-0.30000000000000004,-8.5,-15.7,-0.8
1698420173812.0,16,-0.5,-2.5,-0.8,-1.0,6.9,-0.2,-3.2,-16.0,2.8
1698420173829.0,16,-1.2000000000000002,-2.4000000000000004,-0.6000000000000001,-1.6,6.9,0.0,7.8,-23.400000000000002,10.700000000000001
1698420173846.0,16,-1.7000000000000002,-1.5,-0.8,-2.2,7.800000000000001,-0.30000000000000004,13.3,-24.1,11.000000000000002
1698420173863.0,16,-0.9,1.1,-1.9000000000000001,-1.3,10.5,-1.4000000000000001,17.1,-21.8,8.3
1698420173879.0,16,-0.2,2.6,-1.1,-0.6000000000000001,11.9,-0.6000000000000001,11.2,-22.7,-4.800000000000001
1698420173896.0,16,1.5,2.7,-0.5,1.1,12.100000000000001,-0.1,2.5,14.100000000000001,-18.7
1698420173913.0,16,3.5,3.0,-2.5,3.1,12.4,-2.1,7.699999999999999,30.7,-10.9
1698420173929.0,16,2.6,4.3,-5.1000000000000005,2.2,13.700000000000001,-4.800000000000001,20.5,13.9,-3.5
1698420173946.0,16,-1.4000000000000001,5.6000000000000005,-1.3,-1.9000000000000001,15.100000000000001,-1.1,9.1,-13.0,-28.500000000000004
1698420173963.0,16,-1.4000000000000001,2.0,0.7000000000000001,-2.1,11.5,0.9,14.100000000000001,-0.5,-36.4
1698420173980.0,16,-2.7,0.1,2.7,-3.5,9.600000000000001,2.9000000000000004,20.900000000000002,-9.700000000000001,-39.699999999999996
1698420173996.0,16,-2.5,-1.2000000000000002,0.2,-3.4000000000000004,8.3,0.30000000000000004,29.1,-19.6,-35.4
1698420174012.0,16,-2.0,-1.3,2.0,-2.9000000000000004,8.200000000000001,2.1,13.6,-53.7,-18.900000000000002
1698420174030.0,16,-1.5,0.4,2.6,-2.5,9.9,2.7,-2.8,-63.900000000000006,-13.5
1698420174046.0,16,2.4000000000000004,4.3,4.0,1.4000000000000001,13.8,4.2,-29.900000000000006,-60.8,7.2
1698420174063.0,16,3.9000000000000004,5.9,3.9000000000000004,3.0,15.4,4.2,-7.699999999999999,-52.900000000000006,16.700000000000003
1698420174080.0,16,1.6,4.1000000000000005,2.8000000000000003,0.7000000000000001,13.700000000000001,3.2,1.0999999999999999,-41.800000000000004,3.6
1698420174096.0,16,-1.7000000000000002,1.9000000000000001,1.6,-2.6,11.5,1.9000000000000001,1.9,-8.200000000000001,-3.7000000000000006
1698420174113.0,16,-0.7000000000000001,1.7000000000000002,1.1,-1.5,11.3,1.5,-6.7,10.700000000000001,14.800000000000002
1698420174129.0,16,-0.2,0.9,1.1,-1.1,10.5,1.5,-7.6,9.700000000000001,25.0
1698420174146.0,16,0.30000000000000004,-0.30000000000000004,0.2,-0.4,9.3,0.6000000000000001,-10.5,6.6000000000000005,40.3
1698420174162.0,16,0.6000000000000001,-1.5,0.2,0.1,8.1,0.6000000000000001,-15.5,-3.0000000000000004,49.6
1698420174180.0,16,0.6000000000000001,-2.0,0.30000000000000004,0.2,7.6000000000000005,0.8,-17.7,-6.6000000000000005,51.5
1698420174196.0,16,0.7000000000000001,-2.7,0.6000000000000001,0.4,6.9,1.2000000000000002,-19.0,-6.9,51.800000000000004
1698420174212.0,16,1.0,-3.2,0.5,0.9,6.300000000000001,1.2000000000000002,-19.200000000000003,-4.800000000000001,47.7
1698420174229.0,16,1.1,-3.3000000000000003,0.4,1.1,6.300000000000001,1.1,-17.599999999999998,1.0999999999999999,44.6
1698420174246.0,16,1.1,-3.5,-0.1,1.2000000000000002,5.9,0.6000000000000001,-15.2,10.0,33.900000000000006
1698420174263.0,16,0.6000000000000001,-3.6,-0.4,0.8,5.9,0.4,-15.2,21.900000000000002,22.000000000000004
1698420174279.0,16,0.4,-3.4000000000000004,-0.7000000000000001,0.6000000000000001,6.0,0.1,-13.700000000000001,27.6,17.3
1698420174296.0,16,0.2,-2.7,-1.0,0.4,6.7,-0.1,-12.000000000000002,33.800000000000004,13.6
1698420174312.0,16,-0.1,-2.3000000000000003,-1.2000000000000002,0.2,7.1000000000000005,-0.30000000000000004,-9.200000000000001,31.4,7.300000000000001
1698420174329.0,16,-0.2,-2.2,-1.4000000000000001,0.1,7.1000000000000005,-0.5,-7.400000000000001,29.900000000000006,3.5
1698420174346.0,16,-0.1,-2.0,-1.4000000000000001,0.1,7.4,-0.5,-0.9,25.1,1.3
1698420174363.0,16,0.2,-2.1,-1.0,0.4,7.2,-0.2,9.600000000000001,28.500000000000004,-3.2
1698420174379.0,16,0.6000000000000001,-2.1,-1.1,0.8,7.300000000000001,-0.30000000000000004,16.6,34.900000000000006,-4.5
1698420174396.0,16,1.4000000000000001,-1.1,-2.0,1.6,8.200000000000001,-1.3,27.7,43.0,-0.7
1698420174413.0,16,1.5,1.0,-2.7,1.8,10.3,-2.1,29.200000000000003,34.900000000000006,7.6
1698420174430.0,16,0.9,1.6,-2.8000000000000003,0.30000000000000004,11.600000000000001,-2.2,23.0,24.3,12.4
1698420174446.0,16,-1.4000000000000001,3.6,-2.8000000000000003,-1.1,12.9,-2.2,2.5,-25.0,24.6
1698420174462.0,16,-3.1,6.7,-2.9000000000000004,-2.7,16.1,-2.4000000000000004,-0.8,-37.300000000000004,9.200000000000001
1698420174479.0,16,-0.7000000000000001,8.0,0.5,-0.30000000000000004,17.5,1.0,2.0,6.8,20.2
1698420174496.0,16,-0.1,4.5,-0.1,0.4,14.0,0.30000000000000004,23.700000000000003,5.6,28.0
1698420174512.0,16,2.1,1.1,1.4000000000000001,2.7,10.700000000000001,1.7000000000000002,34.800000000000004,-30.100000000000005,39.300000000000004
1698420174529.0,16,3.0,0.2,-0.1,3.6,9.700000000000001,0.2,37.900000000000006,1.6,36.2
1698420174546.0,16,4.1000000000000005,-1.5,1.3,4.9,8.0,1.5,33.400000000000006,15.399999999999999,18.3
1698420174562.0,16,2.0,-0.1,2.2,2.8000000000000003,9.4,2.3000000000000003,13.200000000000001,52.400000000000006,1.7
1698420174579.0,16,-2.5,2.5,4.1000000000000005,-1.8,12.0,4.3,-6.000000000000001,37.4,-8.0
1698420174596.0,16,-3.5,2.7,2.1,-2.8000000000000003,12.3,2.3000000000000003,-2.3000000000000003,26.8,-19.700000000000003
1698420174612.0,16,-0.9,2.0,2.3000000000000003,-0.2,11.600000000000001,2.5,-2.0,26.400000000000002,-21.400000000000002
1698420174629.0,16,0.9,1.4000000000000001,1.4000000000000001,1.5,11.0,1.6,-2.9,13.5,-21.700000000000003
1698420174646.0,16,1.4000000000000001,1.9000000000000001,1.0,1.9000000000000001,11.4,1.2000000000000002,-1.0999999999999999,1.6,-13.100000000000001
1698420174663.0,16,1.0,1.6,0.8,1.5,11.200000000000001,1.1,4.5,-24.1,-4.800000000000001
1698420174679.0,16,-0.5,0.0,0.4,0.0,9.600000000000001,0.6000000000000001,4.300000000000001,-25.2,-17.5
1698420174696.0,16,-0.8,-0.4,0.5,-0.30000000000000004,9.200000000000001,0.7000000000000001,2.1999999999999997,-19.3,-22.4
1698420174712.0,16,-0.9,-1.2000000000000002,0.30000000000000004,-0.5,8.4,0.5,-0.4,-5.0,-33.0
1698420174730.0,16,-1.0,-2.0,-0.1,-0.8,7.6000000000000005,0.2,-3.3000000000000003,2.9,-43.400000000000006
1698420174746.0,16,-0.9,-2.3000000000000003,-0.2,-0.7000000000000001,7.300000000000001,0.1,-5.500000000000001,5.6,-44.9
1698420174763.0,16,-0.8,-2.8000000000000003,-0.30000000000000004,-0.8,6.7,0.0,-10.0,5.1,-43.0
1698420174779.0,16,-0.9,-3.1,-0.30000000000000004,-1.1,6.4,0.0,-11.3,-2.4000000000000004,-38.300000000000004
1698420174796.0,16,-1.0,-3.4000000000000004,-0.5,-1.2000000000000002,6.1000000000000005,-0.2,-12.200000000000001,-7.1000000000000005,-31.7
1698420174812.0,16,-1.0,-3.8000000000000003,-0.6000000000000001,-1.3,5.7,-0.2,-13.3,-18.2,-22.3
1698420174829.0,16,-0.4,-3.4000000000000004,-0.7000000000000001,-0.8,6.0,-0.30000000000000004,-14.0,-19.9,-12.9
1698420174846.0,16,-0.30000000000000004,-2.9000000000000004,-0.8,-0.7000000000000001,6.5,-0.4,-14.200000000000001,-20.0,-10.9
1698420174863.0,16,-0.2,-2.3000000000000003,-0.8,-0.6000000000000001,7.1000000000000005,-0.4,-13.0,-17.400000000000002,-6.1000000000000005
1698420174879.0,16,-0.7000000000000001,-2.5,-0.9,-1.0,6.9,-0.4,-4.2,-13.8,2.1
1698420174896.0,16,-1.0,-2.7,-1.0,-1.3,6.7,-0.5,0.5,-14.4,6.5
1698420174913.0,16,-1.5,-2.3000000000000003,-0.9,-1.8,7.1000000000000005,-0.4,5.500000000000001,-18.3,14.0
1698420174929.0,16,-1.7000000000000002,-1.3,-1.1,-2.0,8.0,-0.7000000000000001,8.5,-17.7,10.3
1698420174946.0,16,-1.3,-0.2,-1.3,-1.6,9.1,-0.9,10.3,-15.8,5.6
1698420174963.0,16,0.0,2.2,0.5,-0.30000000000000004,11.600000000000001,0.9,-0.4,-9.4,-13.3
1698420174979.0,16,2.3000000000000003,2.9000000000000004,-1.8,1.9000000000000001,12.200000000000001,-1.4000000000000001,-0.6000000000000001,29.200000000000003,-23.1
1698420174996.0,16,3.8000000000000003,4.0,-3.6,3.3000000000000003,13.4,-3.3000000000000003,6.2,32.1,-13.100000000000001
1698420175013.0,16,1.6,6.7,-3.5,1.2000000000000002,16.1,-3.2,8.0,2.8,-9.5
1698420175029.0,16,-0.6000000000000001,4.1000000000000005,-0.8,-1.1,13.600000000000001,-0.6000000000000001,17.400000000000002,10.1,-32.300000000000004
1698420175047.0,16,-2.8000000000000003,1.1,1.0,-2.2,11.4,0.30000000000000004,21.5,24.8,-38.0
1698420175063.0,16,-3.8000000000000003,0.0,0.8,-4.6000000000000005,9.5,0.9,28.200000000000003,-14.200000000000001,-40.6
1698420175079.0,16,-3.3000000000000003,-1.1,0.0,-4.2,8.4,0.1,24.000000000000004,-24.5,-25.900000000000002
1698420175096.0,16,-2.9000000000000004,-0.8,0.7000000000000001,-3.8000000000000003,8.6,0.7000000000000001,17.200000000000003,-49.6,-15.8
1698420175112.0,16,0.7000000000000001,2.4000000000000004,3.6,-0.30000000000000004,11.8,3.7,-17.400000000000002,-66.0,-8.1
1698420175129.0,16,4.4,4.9,4.1000000000000005,3.5,14.4,4.4,-23.2,-59.1,9.3
1698420175146.0,16,4.1000000000000005,4.9,4.1000000000000005,3.2,14.4,4.4,-12.8,-53.9,14.700000000000001
1698420175163.0,16,-0.4,2.7,3.0,-1.2000000000000002,12.200000000000001,3.4000000000000004,-0.5,-26.700000000000003,5.4
1698420175179.0,16,-1.6,2.1,2.0,-2.4000000000000004,11.700000000000001,2.3000000000000003,-0.9,-2.1999999999999997,6.1000000000000005
1698420175196.0,16,-1.2000000000000002,2.0,1.5,-2.0,11.600000000000001,1.9000000000000001,-3.6,6.5,12.200000000000001
1698420175213.0,16,-0.2,0.8,0.9,-0.9,10.4,1.2000000000000002,-4.3999999999999995,7.500000000000001,27.7
1698420175229.0,16,0.5,-0.5,0.4,-0.1,9.1,0.8,-6.3,2.8,35.6
1698420175246.0,16,0.7000000000000001,-1.0,0.2,0.2,8.6,0.6000000000000001,-8.0,-3.8,37.900000000000006
1698420175263.0,16,0.8,-1.8,0.1,0.4,7.800000000000001,0.5,-10.3,-8.600000000000001,43.1
1698420175279.0,16,0.8,-2.6,0.2,0.6000000000000001,7.0,0.7000000000000001,-11.000000000000002,-11.700000000000001,44.6
1698420175296.0,16,1.0,-2.9000000000000004,-0.1,0.7000000000000001,6.7,0.6000000000000001,-10.0,-8.1,44.4
1698420175312.0,16,1.2000000000000002,-3.1,-0.1,1.2000000000000002,6.5,0.4,-8.200000000000001,6.6000000000000005,40.6
1698420175329.0,16,1.1,-3.3000000000000003,-0.4,1.2000000000000002,6.2,0.2,-8.600000000000001,16.700000000000003,27.400000000000002
1698420175346.0,16,0.5,-3.3000000000000003,-0.9,0.7000000000000001,6.2,-0.30000000000000004,-7.699999999999999,27.1,13.5
1698420175363.0,16,0.30000000000000004,-3.1,-1.2000000000000002,0.5,6.300000000000001,-0.6000000000000001,-7.699999999999999,30.200000000000003,8.700000000000001
1698420175379.0,16,0.30000000000000004,-2.7,-1.4000000000000001,0.5,6.7,-0.8,-6.9,29.200000000000003,9.600000000000001
1698420175396.0,16,-0.1,-2.9000000000000004,-1.1,0.1,6.5,-0.5,-2.4000000000000004,21.200000000000003,6.8
1698420175413.0,16,-0.2,-3.0,-1.2000000000000002,0.1,6.4,-0.6000000000000001,2.8,20.5,4.300000000000001
1698420175429.0,16,0.0,-2.8000000000000003,-1.3,0.2,6.6000000000000005,-0.7000000000000001,13.5,27.3,-0.5
1698420175446.0,16,0.9,-2.6,-1.8,1.1,6.800000000000001,-1.3,17.200000000000003,49.5,-1.7
1698420175462.0,16,1.7000000000000002,-2.2,-1.9000000000000001,1.9000000000000001,7.2,-1.4000000000000001,18.900000000000002,57.3,1.2000000000000002
1698420175479.0,16,2.5,-0.30000000000000004,-2.2,2.7,9.1,-1.8,22.6,53.400000000000006,8.9
1698420175496.0,16,0.6000000000000001,0.7000000000000001,-2.1,0.9,10.100000000000001,-1.8,20.900000000000002,42.800000000000004,12.6
1698420175513.0,16,-0.7000000000000001,1.9000000000000001,-2.3000000000000003,-0.30000000000000004,11.3,-2.0,9.600000000000001,-2.1999999999999997,26.500000000000004
1698420175529.0,16,-3.9000000000000004,4.800000000000001,-3.0,-3.5,14.200000000000001,-2.7,5.0,-32.300000000000004,15.000000000000002
1698420175546.0,16,0.1,5.7,-3.6,0.5,15.100000000000001,-3.4000000000000004,14.200000000000001,1.6,8.200000000000001
1698420175563.0,16,2.7,6.6000000000000005,-0.9,3.2,16.1,-0.7000000000000001,7.9,30.799999999999997,24.1
1698420175579.0,16,0.5,2.6,1.5,1.1,12.100000000000001,1.6,29.600000000000005,-15.5,36.4
1698420175596.0,16,0.9,0.0,1.5,1.6,9.5,1.5,31.8,-30.4,35.3
1698420175612.0,16,2.9000000000000004,-1.2000000000000002,-0.2,3.7,8.3,-0.2,30.100000000000005,2.1,27.7
1698420175629.0,16,2.6,-1.8,3.1,3.4000000000000004,7.7,3.0,18.8,36.0,0.2
1698420175646.0,16,0.0,2.0,3.0,0.8,11.5,2.9000000000000004,0.8,88.4,-11.1
1698420175663.0,16,-1.9000000000000001,4.5,3.3000000000000003,-1.1,14.0,3.3000000000000003,-9.1,62.1,-18.0
1698420175679.0,16,-4.3,4.5,0.7000000000000001,-3.7,14.100000000000001,0.7000000000000001,1.6,11.1,-41.2
1698420175696.0,16,0.4,1.9000000000000001,2.3000000000000003,0.9,11.5,2.3000000000000003,-0.6000000000000001,19.1,-26.9
1698420175715.0,16,1.7000000000000002,2.1,1.7000000000000002,2.2,11.700000000000001,1.7000000000000002,-1.5000000000000002,9.3,-22.8
1698420175729.0,16,1.5,2.0,1.1,1.9000000000000001,11.600000000000001,1.2000000000000002,-0.4,-16.900000000000002,-15.7
1698420175746.0,16,0.0,0.7000000000000001,0.7000000000000001,0.4,10.3,0.7000000000000001,0.30000000000000004,-24.200000000000003,-17.1
1698420175764.0,16,-0.6000000000000001,-0.1,0.4,-0.1,9.9,0.5,-1.9,-21.700000000000003,-20.4
1698420175779.0,16,-0.7000000000000001,-0.8,0.4,-0.5,8.9,0.5,-5.9,-17.400000000000002,-30.799999999999997
1698420175796.0,16,-0.9,-1.6,0.30000000000000004,-0.8,8.0,0.4,-9.200000000000001,-11.4,-41.9
1698420175812.0,16,-1.1,-2.4000000000000004,0.0,-1.0,7.7,0.2,-10.600000000000001,-8.799999999999999,-45.2
1698420175829.0,16,-1.1,-2.7,0.0,-1.2000000000000002,6.9,0.1,-14.200000000000001,-7.400000000000001,-47.400000000000006
1698420175846.0,16,-0.9,-3.3000000000000003,-0.1,-1.2000000000000002,6.2,0.1,-16.0,-13.5,-43.800000000000004
1698420175863.0,16,-0.8,-3.6,-0.2,-1.2000000000000002,6.0,0.0,-15.7,-19.1,-39.2
1698420175879.0,16,-0.30000000000000004,-3.9000000000000004,-0.30000000000000004,-0.8,5.6000000000000005,0.0,-15.2,-30.299999999999997,-26.500000000000004
1698420175896.0,16,0.0,-3.7,-0.6000000000000001,-0.5,5.800000000000001,-0.30000000000000004,-16.6,-33.5,-19.3
1698420175913.0,16,0.0,-3.4000000000000004,-0.6000000000000001,-0.5,6.0,-0.30000000000000004,-16.3,-34.6,-16.3
1698420175929.0,16,-0.2,-2.7,-0.7000000000000001,-0.8,6.7,-0.30000000000000004,-14.4,-33.300000000000004,-9.8
1698420175946.0,16,-0.2,-2.3000000000000003,-1.2000000000000002,-0.8,7.1000000000000005,-0.8,-9.5,-28.200000000000003,-2.7
1698420175962.0,16,-0.30000000000000004,-2.2,-1.6,-0.8,7.2,-1.0,-6.3,-27.3,1.0
1698420175979.0,16,-0.5,-2.3000000000000003,-1.7000000000000002,-1.1,7.1000000000000005,-1.3,1.6,-28.3,7.2
1698420175996.0,16,-0.6000000000000001,-1.9000000000000001,-1.6,-1.2000000000000002,7.5,-1.2000000000000002,7.1000000000000005,-31.900000000000002,9.600000000000001
1698420176013.0,16,-0.8,-1.6,-1.4000000000000001,-1.3,7.800000000000001,-1.0,8.799999999999999,-31.900000000000002,8.799999999999999
1698420176029.0,16,-0.9,-0.8,-1.4000000000000001,-1.4000000000000001,8.5,-1.1,11.4,-29.000000000000004,4.7
1698420176046.0,16,-0.6000000000000001,1.4000000000000001,-0.6000000000000001,-1.1,10.8,-0.30000000000000004,3.3000000000000003,-23.2,-6.5
1698420176062.0,16,0.6000000000000001,2.3000000000000003,-0.7000000000000001,0.0,11.700000000000001,-0.4,-5.6,15.9,-20.1
1698420176079.0,16,2.1,2.8000000000000003,-2.4000000000000004,1.4000000000000001,12.200000000000001,-2.1,0.5,29.300000000000004,-15.9
1698420176096.0,16,2.3000000000000003,3.9000000000000004,-4.9,1.7000000000000002,13.3,-4.7,19.9,17.3,-8.700000000000001
1698420176112.0,16,-1.5,6.4,-2.5,-2.2,15.8,-2.4000000000000004,11.9,-7.500000000000001,-32.9
1698420176129.0,16,-1.3,5.800000000000001,-0.4,-2.1,15.3,-0.30000000000000004,8.200000000000001,-5.8,-40.5
1698420176146.0,16,-0.7000000000000001,0.5,2.5,-1.6,10.0,2.6,13.700000000000001,20.7,-39.300000000000004
1698420176162.0,16,-0.7000000000000001,-1.5,0.5,-1.7000000000000002,7.9,0.5,23.5,10.5,-27.8
1698420176179.0,16,-0.9,-1.9000000000000001,1.1,-1.9000000000000001,7.5,1.1,18.3,7.2,-18.7
1698420176196.0,16,-1.9000000000000001,-0.5,2.0,-3.0,8.9,2.0,11.000000000000002,-44.3,-5.8
1698420176213.0,16,-2.1,1.8,2.2,-3.2,11.200000000000001,2.2,-6.8,-44.5,-5.7
1698420176229.0,16,1.8,6.800000000000001,3.5,0.7000000000000001,16.3,3.6,-18.900000000000002,-31.6,15.8
1698420176246.0,16,3.2,5.5,3.3000000000000003,2.2,15.0,3.5,3.8,-20.6,12.000000000000002
1698420176263.0,16,-1.5,1.2000000000000002,1.9000000000000001,-2.6,10.8,2.1,5.500000000000001,-11.000000000000002,-4.300000000000001
1698420176279.0,16,-2.1,1.5,1.7000000000000002,-3.2,11.0,1.9000000000000001,-1.2000000000000002,-2.7,2.3000000000000003
1698420176296.0,16,-0.6000000000000001,1.5,1.5,-1.6,11.100000000000001,1.7000000000000002,-7.400000000000001,8.799999999999999,23.8
1698420176312.0,16,0.1,0.0,1.0,-0.8,9.600000000000001,1.3,-7.2,12.9,35.9
1698420176329.0,16,0.2,-0.6000000000000001,0.7000000000000001,-0.6000000000000001,9.0,1.0,-7.500000000000001,11.3,39.400000000000006
1698420176346.0,16,0.6000000000000001,-1.2000000000000002,0.5,-0.1,8.4,0.7000000000000001,-9.8,8.0,47.400000000000006
1698420176363.0,16,0.9,-2.1,0.4,0.5,7.5,0.7000000000000001,-10.700000000000001,4.2,53.50000000000001
1698420176380.0,16,1.0,-2.4000000000000004,0.30000000000000004,0.6000000000000001,7.2,0.6000000000000001,-11.4,0.9,53.50000000000001
1698420176396.0,16,1.0,-2.5,0.30000000000000004,0.9,7.1000000000000005,0.7000000000000001,-11.9,8.799999999999999,50.4
1698420176413.0,16,1.0,-3.3000000000000003,-0.1,1.0,6.300000000000001,0.30000000000000004,-14.700000000000001,13.4,39.00000000000001
1698420176429.0,16,0.8,-3.2,-0.30000000000000004,0.9,6.300000000000001,0.2,-16.1,13.100000000000001,34.900000000000006
1698420176446.0,16,0.5,-3.1,-0.5,0.7000000000000001,6.4,0.0,-15.2,21.6,25.8
1698420176463.0,16,0.1,-2.8000000000000003,-0.8,0.30000000000000004,6.7,-0.2,-12.9,22.5,18.7
1698420176479.0,16,-0.1,-2.7,-0.8,0.1,6.7,-0.2,-11.5,23.700000000000003,14.700000000000001
1698420176496.0,16,-0.2,-2.4000000000000004,-1.2000000000000002,0.0,7.0,-0.6000000000000001,-7.8,26.8,9.700000000000001
1698420176512.0,16,-0.4,-2.1,-1.3,-0.2,7.4,-0.8,-6.1000000000000005,31.099999999999998,5.6
1698420176529.0,16,0.1,-2.0,-1.0,0.30000000000000004,7.4,-0.4,-6.2,27.7,0.6000000000000001
1698420176546.0,16,0.4,-1.9000000000000001,-0.9,0.6000000000000001,7.5,-0.2,-3.6,26.700000000000003,-2.1
1698420176562.0,16,0.9,-1.8,-0.9,1.1,7.6000000000000005,-0.30000000000000004,8.5,36.3,-3.5
1698420176579.0,16,1.3,-1.7000000000000002,-1.1,1.7000000000000002,8.0,-1.1,16.6,42.5,-0.6000000000000001
1698420176596.0,16,1.5,-1.0,-2.1,1.7000000000000002,8.4,-1.6,32.2,41.1,9.1
1698420176612.0,16,0.5,0.0,-3.0,0.8,9.4,-2.6,32.5,26.0,18.3
1698420176629.0,16,-0.8,2.6,-3.4000000000000004,-0.4,12.0,-3.1,11.5,-8.5,30.799999999999997
1698420176646.0,16,-1.9000000000000001,4.5,-3.0,-1.4000000000000001,13.9,-2.8000000000000003,3.8,-25.900000000000002,29.200000000000003
1698420176662.0,16,-1.5,5.0,-3.2,-1.0,14.4,-3.1,18.5,-15.000000000000002,11.6
1698420176679.0,16,3.2,6.5,-0.2,3.8000000000000003,16.0,-0.1,13.100000000000001,44.00000000000001,29.400000000000002
1698420176696.0,16,1.8,5.9,1.2000000000000002,2.4000000000000004,15.4,1.3,14.800000000000002,49.9,32.1
1698420176712.0,16,-3.2,1.4000000000000001,2.4000000000000004,-2.6,10.9,2.4000000000000004,21.400000000000002,-21.900000000000002,23.6
1698420176729.0,16,-1.1,0.7000000000000001,1.7000000000000002,-0.4,10.200000000000001,1.6,29.500000000000004,-6.6000000000000005,28.0
1698420176746.0,16,3.7,-1.8,2.8000000000000003,4.5,7.7,2.7,24.5,5.4,17.9
1698420176762.0,16,4.0,-0.6000000000000001,1.1,4.9,8.9,0.9,14.500000000000002,43.1,-6.2
1698420176779.0,16,-1.1,4.2,3.2,-0.30000000000000004,13.700000000000001,3.1,-16.2,39.699999999999996,-14.800000000000002
1698420176796.0,16,-3.8000000000000003,5.4,3.4000000000000004,-3.0,14.9,3.4000000000000004,-16.1,20.8,-25.700000000000003
1698420176812.0,16,-2.9000000000000004,2.6,1.9000000000000001,-2.3000000000000003,12.200000000000001,1.9000000000000001,2.1999999999999997,8.0,-23.1
1698420176829.0,16,1.2000000000000002,1.3,1.7000000000000002,1.8,10.9,1.7000000000000002,-1.8,5.300000000000001,-11.8
1698420176846.0,16,1.7000000000000002,1.4000000000000001,1.3,2.3000000000000003,11.0,1.3,-2.7,-5.1,-9.1
1698420176862.0,16,0.7000000000000001,0.9,0.9,1.3,10.5,0.9,-1.0999999999999999,-31.0,-8.4
1698420176879.0,16,-0.2,-0.30000000000000004,0.6000000000000001,0.30000000000000004,9.3,0.6000000000000001,0.4,-35.9,-19.3
1698420176896.0,16,-0.5,-1.1,0.5,0.0,8.6,0.6000000000000001,0.30000000000000004,-34.0,-26.0
1698420176912.0,16,-0.7000000000000001,-1.9000000000000001,0.30000000000000004,-0.30000000000000004,7.7,0.30000000000000004,-2.1999999999999997,-26.8,-40.2
1698420176929.0,16,-0.9,-2.4000000000000004,0.1,-0.7000000000000001,7.2,0.1,-6.000000000000001,-16.900000000000002,-50.2
1698420176946.0,16,-0.9,-2.6,0.0,-0.9,6.9,0.1,-8.3,-14.100000000000001,-52.2
1698420176963.0,16,-0.8,-3.0,0.0,-0.9,6.5,0.1,-11.000000000000002,-13.8,-48.1
1698420176979.0,16,-0.8,-3.6,0.0,-1.0,6.0,0.1,-12.000000000000002,-16.5,-38.1
1698420176996.0,16,-0.9,-3.7,-0.1,-1.2000000000000002,5.800000000000001,0.0,-12.5,-18.2,-30.4
1698420177012.0,16,-0.9,-3.6,-0.4,-1.2000000000000002,5.9,-0.2,-14.0,-22.5,-16.900000000000002
1698420177029.0,16,-0.4,-3.2,-0.4,-0.8,6.300000000000001,-0.2,-13.5,-26.400000000000002,-8.4
1698420177046.0,16,-0.2,-3.0,-0.5,-0.6000000000000001,6.5,-0.2,-12.200000000000001,-25.400000000000002,-5.500000000000001
1698420177063.0,16,0.1,-2.3000000000000003,-0.7000000000000001,-0.4,7.1000000000000005,-0.4,-9.4,-24.5,-2.3000000000000003
1698420177079.0,16,0.0,-2.0,-1.0,-0.4,7.4,-0.7000000000000001,-6.7,-19.700000000000003,2.0
1698420177096.0,16,-0.2,-1.6,-1.2000000000000002,-0.6000000000000001,7.7,-0.9,-6.5,-16.900000000000002,4.9
1698420177113.0,16,-0.9,-1.1,-1.4000000000000001,-1.3,8.3,-1.1,-7.0,-16.2,8.600000000000001
1698420177129.0,16,-1.8,-0.8,-1.2000000000000002,-2.2,8.6,-0.8,-2.1,-20.2,9.200000000000001
1698420177146.0,16,-1.9000000000000001,-1.0,-1.3,-2.3000000000000003,8.4,-1.0,3.4,-21.6,10.1
1698420177163.0,16,-0.9,-0.6000000000000001,-1.6,-1.3,8.8,-1.4000000000000001,9.3,-19.9,11.000000000000002
1698420177179.0,16,0.6000000000000001,1.5,-0.9,0.30000000000000004,10.8,-0.7000000000000001,3.5,-8.700000000000001,1.5000000000000002
1698420177196.0,16,1.1,2.1,-0.4,0.8,11.5,-0.1,0.1,2.9,-6.3
1698420177213.0,16,1.8,2.7,-1.7000000000000002,1.4000000000000001,12.100000000000001,-1.5,7.6,28.400000000000002,-15.6
1698420177233.0,16,0.2,2.9000000000000004,-4.7,-0.2,12.4,-4.6000000000000005,28.8,20.1,-12.6
1698420177246.0,16,-1.3,2.4000000000000004,-5.7,-1.7000000000000002,11.8,-5.7,38.7,3.7000000000000006,-13.4
1698420177269.0,16,-4.4,6.4,-1.3,-5.0,15.9,-1.5,13.3,-51.400000000000006,-39.2
1698420177279.0,16,0.2,6.2,2.3000000000000003,-0.5,15.700000000000001,2.1,-2.3000000000000003,-47.900000000000006,-44.2
1698420177295.0,16,4.2,2.5,3.3000000000000003,3.5,12.0,3.1,6.6000000000000005,-8.3,-40.3
1698420177312.0,16,4.0,-1.5,3.2,3.2,8.0,3.0,28.700000000000003,-21.0,-18.6
1698420177330.0,16,-1.9000000000000001,-3.1,2.9000000000000004,-2.7,6.4,2.7,15.7,-2.8,-15.2
1698420177346.0,16,-2.4000000000000004,-0.7000000000000001,1.2000000000000002,-3.0,12.8,0.7000000000000001,11.1,-12.100000000000001,-4.7
1698420177362.0,16,-0.7000000000000001,6.800000000000001,3.6,-1.6,16.3,3.4000000000000004,-24.3,-16.900000000000002,6.3
1698420177379.0,16,2.2,7.2,4.800000000000001,1.4000000000000001,16.8,4.7,-3.3000000000000003,-15.5,15.299999999999999
1698420177396.0,16,0.1,2.9000000000000004,3.0,-0.6000000000000001,12.5,2.9000000000000004,4.800000000000001,-10.0,1.0
1698420177412.0,16,-0.9,2.6,2.6,-1.7000000000000002,12.3,2.5,-1.5000000000000002,-6.3,0.9
1698420177429.0,16,-0.30000000000000004,1.9000000000000001,2.4000000000000004,-1.0,11.600000000000001,2.3000000000000003,-9.8,-1.0999999999999999,12.000000000000002
1698420177447.0,16,0.30000000000000004,0.8,2.1,-0.30000000000000004,10.4,2.1,-10.2,1.8,18.2
1698420177462.0,16,0.4,0.30000000000000004,1.5,-0.30000000000000004,10.0,1.5,-7.400000000000001,2.7,25.900000000000002
1698420177479.0,16,-0.1,-0.5,0.5,-0.6000000000000001,9.1,0.6000000000000001,-7.9,1.7,29.700000000000003
1698420177496.0,16,-0.30000000000000004,-1.2000000000000002,0.2,-0.8,8.4,0.30000000000000004,-9.9,-0.5,32.800000000000004
1698420177513.0,16,-0.2,-2.4000000000000004,0.2,-0.6000000000000001,7.2,0.30000000000000004,-15.000000000000002,-10.5,40.0
1698420177529.0,16,0.2,-3.2,-0.1,0.0,6.4,0.1,-20.2,-15.7,45.800000000000004
1698420177546.0,16,0.6000000000000001,-3.4000000000000004,0.0,0.6000000000000001,6.2,0.30000000000000004,-24.000000000000004,-19.400000000000002,42.400000000000006
1698420177563.0,16,0.9,-3.3000000000000003,0.0,0.9,6.2,0.30000000000000004,-22.7,-17.5,38.7
1698420177579.0,16,1.3,-3.0,-0.4,1.4000000000000001,6.6000000000000005,0.0,-19.400000000000002,-9.200000000000001,31.8
1698420177596.0,16,1.0,-2.8000000000000003,-0.5,1.2000000000000002,6.7,-0.1,-14.900000000000002,-0.9,21.900000000000002
1698420177613.0,16,0.6000000000000001,-2.7,-0.6000000000000001,0.9,6.800000000000001,-0.2,-12.000000000000002,1.6,17.599999999999998
1698420177629.0,16,0.1,-2.7,-1.0,0.4,6.800000000000001,-0.6000000000000001,-8.600000000000001,2.5,10.2
1698420177646.0,16,0.1,-2.5,-1.0,0.4,6.9,-0.5,-6.6000000000000005,3.6,6.5
1698420177663.0,16,0.1,-2.4000000000000004,-0.8,0.5,7.1000000000000005,-0.4,-4.800000000000001,3.8,5.300000000000001
1698420177679.0,16,0.4,-2.1,-0.9,0.8,7.4,-0.4,1.2000000000000002,8.4,3.5
1698420177696.0,16,0.9,-1.9000000000000001,-1.3,1.3,7.5,-0.8,5.2,14.100000000000001,2.9
1698420177713.0,16,1.2000000000000002,-1.8,-1.4000000000000001,1.6,7.6000000000000005,-1.0,15.000000000000002,32.0,1.6
1698420177729.0,16,1.7000000000000002,-2.1,-1.8,2.0,7.300000000000001,-1.4000000000000001,27.7,56.2,2.6
1698420177748.0,16,1.8,-1.9000000000000001,-2.4000000000000004,2.2,7.5,-2.2,37.0,68.1,8.4
1698420177762.0,16,1.4000000000000001,-1.4000000000000001,-2.6,1.8,7.9,-2.5,37.6,64.50000000000001,12.6
1698420177779.0,16,0.1,0.7000000000000001,-2.7,0.6000000000000001,10.100000000000001,-2.7,35.4,49.7,23.1
1698420177796.0,16,-1.1,3.4000000000000004,-2.3000000000000003,-0.5,12.8,-2.4000000000000004,32.2,28.8,29.800000000000004
1698420177812.0,16,-1.0,3.9000000000000004,-2.3000000000000003,-0.4,13.3,-2.5,33.300000000000004,21.6,28.6
1698420177829.0,16,0.0,1.7000000000000002,-2.8000000000000003,0.7000000000000001,11.100000000000001,-3.1,42.0,25.700000000000003,20.5
1698420177846.0,16,2.2,-0.5,-3.5,2.9000000000000004,8.9,-4.0,46.6,33.900000000000006,19.500000000000004
1698420177862.0,16,2.9000000000000004,0.0,-3.8000000000000003,3.7,9.4,-4.3,43.1,41.0,18.900000000000002
1698420177879.0,16,0.6000000000000001,6.2,2.5,1.5,15.600000000000001,1.9000000000000001,-12.700000000000001,40.7,25.1
1698420177896.0,16,-9.5,2.7,2.8000000000000003,-8.700000000000001,12.100000000000001,2.3000000000000003,15.5,-34.1,-0.7
1698420177913.0,16,-4.6000000000000005,0.0,1.5,-3.7,9.5,0.9,24.1,-34.6,13.700000000000001
1698420177929.0,16,3.3000000000000003,-1.2000000000000002,4.0,4.2,8.3,3.4000000000000004,-1.9,-6.4,17.5
1698420177946.0,16,4.5,2.0,2.3000000000000003,5.4,11.4,1.8,-9.600000000000001,25.900000000000002,-8.600000000000001
1698420177963.0,16,3.5,4.6000000000000005,3.6,4.5,14.100000000000001,3.1,-22.7,26.400000000000002,-15.399999999999999
1698420177979.0,16,-0.4,5.2,3.7,0.5,14.8,3.3000000000000003,-13.8,13.100000000000001,-29.500000000000004
1698420177996.0,16,0.1,2.2,2.0,0.9,11.700000000000001,1.7000000000000002,-4.300000000000001,20.8,-19.8
1698420178013.0,16,0.4,1.6,2.1,1.2000000000000002,11.200000000000001,1.8,-5.6,28.0,-18.2
1698420178029.0,16,0.2,1.6,1.2000000000000002,0.9,11.200000000000001,1.0,-6.4,16.3,-20.5
1698420178046.0,16,-0.4,1.1,1.1,0.2,10.700000000000001,0.8,-5.500000000000001,3.3000000000000003,-25.8
1698420178063.0,16,-0.4,0.5,0.7000000000000001,0.2,10.100000000000001,0.4,-4.3999999999999995,-1.0999999999999999,-29.700000000000003
1698420178079.0,16,-0.30000000000000004,-0.5,0.6000000000000001,0.1,9.1,0.4,-5.9,-3.9,-38.6
1698420178096.0,16,-0.4,-1.5,0.30000000000000004,0.0,8.1,0.1,-8.5,0.1,-51.1
1698420178112.0,16,-0.6000000000000001,-2.1,0.2,-0.4,7.5,0.1,-11.4,5.8,-56.2
1698420178129.0,16,-0.9,-2.5,0.2,-0.9,7.1000000000000005,0.1,-16.5,10.700000000000001,-60.400000000000006
1698420178146.0,16,-1.0,-3.0,0.2,-1.2000000000000002,6.5,0.1,-17.3,8.0,-54.2
1698420178163.0,16,-1.1,-3.6,0.1,-1.4000000000000001,6.0,0.0,-17.400000000000002,6.1000000000000005,-48.1
1698420178179.0,16,-0.8,-3.5,-0.1,-1.2000000000000002,6.0,-0.1,-14.100000000000001,-5.300000000000001,-34.800000000000004
1698420178196.0,16,-0.5,-3.5,-0.2,-1.0,5.9,-0.1,-13.8,-9.4,-23.0
1698420178213.0,16,-0.4,-3.2,-0.5,-0.9,6.300000000000001,-0.4,-13.100000000000001,-10.8,-19.400000000000002
1698420178229.0,16,-0.7000000000000001,-2.5,-0.5,-1.2000000000000002,6.9,-0.4,-14.900000000000002,-14.200000000000001,-15.7
1698420178245.0,16,-0.4,-1.7000000000000002,-0.7000000000000001,-1.0,7.7,-0.6000000000000001,-16.400000000000002,-13.9,-10.2
1698420178262.0,16,-0.1,-1.2000000000000002,-0.7000000000000001,-0.7000000000000001,8.200000000000001,-0.5,-14.200000000000001,-15.299999999999999,-4.0
1698420178279.0,16,0.0,-1.4000000000000001,-0.8,-0.7000000000000001,8.0,-0.5,-11.5,-15.399999999999999,0.2
1698420178296.0,16,-0.6000000000000001,-2.0,-1.0,-1.3,7.4,-0.8,-1.9,-22.5,5.2
1698420178312.0,16,-1.1,-2.2,-1.2000000000000002,-1.7000000000000002,7.2,-0.9,7.699999999999999,-24.1,8.9
1698420178329.0,16,-1.0,-2.1,-1.3,-1.6,7.300000000000001,-1.1,11.3,-20.7,10.600000000000001
1698420178346.0,16,-0.4,-0.7000000000000001,-2.1,-1.0,8.6,-1.9000000000000001,16.0,-13.700000000000001,9.8
1698420178362.0,16,-0.30000000000000004,2.3000000000000003,-1.7000000000000002,-0.8,11.600000000000001,-1.6,6.9,-10.8,2.4000000000000004
1698420178379.0,16,-0.30000000000000004,3.5,-0.30000000000000004,-0.8,12.9,-0.2,-0.9,-2.1999999999999997,-5.4
1698420178396.0,16,1.1,2.6,-1.6,0.5,12.0,-1.6,0.8,32.800000000000004,-5.1
1698420178412.0,16,1.8,2.8000000000000003,-3.3000000000000003,1.3,12.3,-3.3000000000000003,15.5,17.7,6.2
1698420178429.0,16,0.6000000000000001,3.0,-3.7,0.0,12.5,-3.7,22.6,1.9,0.5
1698420178446.0,16,-1.9000000000000001,4.2,-1.7000000000000002,-2.5,13.700000000000001,-1.8,16.1,-27.6,-20.3
1698420178462.0,16,-1.8,1.5,0.6000000000000001,-2.6,11.0,0.5,16.5,-24.5,-32.800000000000004
1698420178479.0,16,-2.0,0.4,1.6,-2.8000000000000003,9.9,1.5,18.900000000000002,-22.7,-34.50000000000001
1698420178496.0,16,-0.1,0.6000000000000001,2.5,-1.0,10.100000000000001,2.3000000000000003,6.000000000000001,-28.900000000000002,-27.1
1698420178512.0,16,1.1,1.9000000000000001,5.7,0.2,11.4,5.6000000000000005,-16.400000000000002,-48.50000000000001,-14.900000000000002
1698420178529.0,16,1.3,1.9000000000000001,5.4,0.30000000000000004,11.4,5.300000000000001,-13.3,-45.4,-3.0000000000000004
1698420178546.0,16,0.6000000000000001,1.9000000000000001,1.4000000000000001,-0.30000000000000004,11.4,1.4000000000000001,5.8,-45.6,9.200000000000001
1698420178563.0,16,-0.8,2.3000000000000003,1.2000000000000002,-1.7000000000000002,11.8,1.2000000000000002,1.3,-46.300000000000004,5.7
1698420178579.0,16,-2.2,3.0,1.9000000000000001,-3.2,12.5,2.0,-4.7,-38.800000000000004,0.2
1698420178596.0,16,0.1,1.6,1.9000000000000001,-0.8,11.100000000000001,2.0,-2.7,-12.4,14.900000000000002
1698420178612.0,16,1.9000000000000001,0.2,1.5,1.1,9.8,1.6,-4.2,-1.7,31.0
1698420178629.0,16,1.6,-0.30000000000000004,1.4000000000000001,0.9,9.3,1.5,-4.1000000000000005,-0.30000000000000004,33.900000000000006
1698420178646.0,16,0.0,-0.8,0.6000000000000001,-0.6000000000000001,8.8,0.7000000000000001,-5.300000000000001,1.0999999999999999,38.2
1698420178662.0,16,-0.5,-1.3,0.4,-1.0,8.3,0.5,-10.3,-3.0000000000000004,42.300000000000004
1698420178679.0,16,-0.30000000000000004,-1.5,0.5,-0.7000000000000001,8.1,0.6000000000000001,-11.4,-5.8,42.300000000000004
1698420178695.0,16,0.2,-2.1,0.30000000000000004,-0.1,7.5,0.6000000000000001,-11.1,-3.9,39.6
1698420178712.0,16,0.6000000000000001,-2.5,0.2,0.4,7.1000000000000005,0.5,-13.9,-5.300000000000001,35.4
1698420178731.0,16,0.8,-2.3000000000000003,0.1,0.7000000000000001,7.300000000000001,0.4,-12.700000000000001,0.2,33.800000000000004
1698420178745.0,16,1.0,-2.5,-0.2,1.0,7.0,0.2,-12.6,2.1999999999999997,28.8
1698420178762.0,16,0.6000000000000001,-2.1,-0.4,0.7000000000000001,7.4,0.0,-11.3,4.2,22.000000000000004
1698420178779.0,16,0.4,-1.7000000000000002,-0.5,0.5,7.800000000000001,-0.1,-10.0,8.0,18.900000000000002
1698420178803.0,16,-0.30000000000000004,-1.4000000000000001,-0.9,-0.1,8.1,-0.4,-6.9,13.4,11.6
1698420178812.0,16,-0.4,-1.4000000000000001,-0.8,-0.1,8.0,-0.30000000000000004,-7.1000000000000005,13.8,9.9
1698420178829.0,16,-0.30000000000000004,-1.6,-0.7000000000000001,-0.1,7.9,-0.2,-7.2,13.200000000000001,6.8
1698420178846.0,16,0.0,-2.0,-0.4,0.2,7.5,0.1,-3.7000000000000006,15.399999999999999,0.0
1698420178862.0,16,0.5,-2.3000000000000003,-0.4,0.8,7.1000000000000005,0.0,6.4,20.5,-7.699999999999999
1698420178879.0,16,0.7000000000000001,-2.3000000000000003,-0.8,0.9,7.1000000000000005,-0.4,12.200000000000001,22.7,-10.700000000000001
1698420178896.0,16,1.1,-1.6,-1.8,1.3,7.800000000000001,-1.4000000000000001,19.500000000000004,31.3,-10.2
1698420178913.0,16,1.3,-0.1,-2.2,1.4000000000000001,9.3,-1.9000000000000001,20.6,35.4,-4.3999999999999995
1698420178929.0,16,1.3,0.7000000000000001,-2.2,1.4000000000000001,10.100000000000001,-2.0,21.200000000000003,35.9,-1.3
1698420178947.0,16,0.1,2.0,-2.2,0.30000000000000004,11.4,-2.1,18.0,28.500000000000004,10.0
1698420178963.0,16,-1.4000000000000001,3.2,-2.2,-1.2000000000000002,12.600000000000001,-2.1,10.1,-1.2000000000000002,16.5
1698420178979.0,16,-2.6,3.2,-3.0,-2.4000000000000004,12.700000000000001,-3.0,16.400000000000002,-6.2,4.1000000000000005
1698420178996.0,16,-1.3,3.6,-2.9000000000000004,-1.0,13.0,-2.9000000000000004,18.2,4.5,7.0
1698420179012.0,16,0.2,4.800000000000001,0.2,0.5,14.3,0.1,12.5,25.2,22.7
1698420179029.0,16,-1.3,2.5,0.9,-1.0,12.0,0.8,23.700000000000003,18.6,20.7
1698420179046.0,16,0.0,0.9,0.5,0.4,10.4,0.2,31.2,-2.7,31.6
1698420179063.0,16,2.4000000000000004,0.2,0.5,2.9000000000000004,9.700000000000001,0.2,30.4,18.0,25.2
1698420179080.0,16,1.4000000000000001,-0.4,2.4000000000000004,1.9000000000000001,9.1,2.0,18.5,32.2,0.0
1698420179096.0,16,0.8,0.0,2.3000000000000003,1.4000000000000001,9.5,2.0,12.8,43.7,-2.9
1698420179112.0,16,-0.6000000000000001,1.7000000000000002,3.0,-0.1,11.200000000000001,2.7,-4.3999999999999995,34.800000000000004,-2.7
1698420179129.0,16,0.1,2.2,2.7,-0.30000000000000004,11.5,2.9000000000000004,-4.6000000000000005,35.1,-4.300000000000001
1698420179147.0,16,1.1,2.1,2.6,1.6,11.600000000000001,2.3000000000000003,-4.1000000000000005,44.00000000000001,-3.6
1698420179163.0,16,1.2000000000000002,1.3,1.8,1.7000000000000002,10.9,1.6,-0.8,47.2,-8.4
1698420179179.0,16,0.0,0.8,1.2000000000000002,0.6000000000000001,10.4,0.9,0.30000000000000004,35.4,-6.3
1698420179196.0,16,-0.4,0.7000000000000001,0.9,0.1,10.200000000000001,0.7000000000000001,1.3,26.8,-5.2
1698420179213.0,16,-0.8,0.1,0.7000000000000001,-0.30000000000000004,9.700000000000001,0.5,0.9,13.8,-12.8
1698420179229.0,16,-0.6000000000000001,-0.9,0.7000000000000001,-0.2,8.700000000000001,0.5,-1.0,10.4,-27.6
1698420179246.0,16,-0.5,-1.2000000000000002,0.6000000000000001,-0.2,8.4,0.5,-3.6,11.700000000000001,-34.800000000000004
1698420179262.0,16,-0.4,-1.6,0.8,-0.2,8.0,0.7000000000000001,-8.0,21.200000000000003,-46.300000000000004
1698420179279.0,16,-0.6000000000000001,-1.9000000000000001,0.5,-0.5,7.7,0.4,-9.5,25.3,-48.50000000000001
1698420179296.0,16,-1.1,-1.9000000000000001,0.2,-1.2000000000000002,7.6000000000000005,0.1,-14.600000000000001,28.8,-45.800000000000004
1698420179313.0,16,-1.4000000000000001,-2.1,0.2,-1.6,7.4,0.1,-16.6,26.1,-36.2
1698420179329.0,16,-1.3,-2.2,-0.1,-1.6,7.300000000000001,0.0,-15.8,19.9,-21.200000000000003
1698420179346.0,16,-1.2000000000000002,-2.2,-0.2,-1.5,7.300000000000001,-0.1,-14.800000000000002,16.0,-16.0
1698420179363.0,16,-0.5,-2.0,-0.30000000000000004,-0.9,7.5,-0.2,-14.900000000000002,12.200000000000001,-7.699999999999999
1698420179379.0,16,-0.2,-1.4000000000000001,-0.4,-0.6000000000000001,8.1,-0.2,-15.100000000000001,10.8,-5.500000000000001
1698420179396.0,16,-0.2,-1.2000000000000002,-0.4,-0.6000000000000001,8.3,-0.30000000000000004,-15.5,11.4,-4.2
1698420179413.0,16,-0.5,-0.9,-0.5,-0.9,8.5,-0.30000000000000004,-16.0,11.8,-1.6
1698420179429.0,16,-1.0,-1.3,-0.4,-1.4000000000000001,8.200000000000001,-0.2,-11.6,11.3,1.9
1698420179446.0,16,-1.2000000000000002,-1.6,-0.5,-1.6,7.800000000000001,-0.2,-6.7,11.2,3.8
1698420179463.0,16,-1.2000000000000002,-2.1,-0.9,-1.6,7.4,-0.7000000000000001,6.000000000000001,9.200000000000001,8.0
1698420179479.0,16,-0.9,-1.6,-2.0,-1.3,7.800000000000001,-1.9000000000000001,13.6,2.4000000000000004,9.600000000000001
1698420179496.0,16,-0.9,-1.2000000000000002,-2.2,-1.3,8.200000000000001,-2.1,14.600000000000001,-1.2000000000000002,8.200000000000001
1698420179512.0,16,-1.0,0.1,-2.4000000000000004,-1.4000000000000001,9.600000000000001,-2.4000000000000004,11.2,-9.5,5.300000000000001
1698420179529.0,16,-1.1,2.1,-0.4,-1.5,11.5,-0.30000000000000004,2.4000000000000004,-3.7000000000000006,-4.300000000000001
1698420179546.0,16,-0.7000000000000001,2.2,-0.2,-1.1,11.600000000000001,-0.2,1.2000000000000002,9.700000000000001,-10.2
1698420179562.0,16,1.8,2.3000000000000003,-1.5,1.4000000000000001,11.700000000000001,-1.4000000000000001,5.4,18.2,-5.2
1698420179579.0,16,1.8,3.0,-2.7,1.4000000000000001,12.4,-2.7,13.6,-1.3,-0.7
1698420179596.0,16,0.7000000000000001,3.4000000000000004,-1.9000000000000001,0.30000000000000004,12.9,-2.0,16.6,-12.5,-5.6
1698420179613.0,16,-2.1,3.1,-0.8,-2.5,12.600000000000001,-0.9,25.400000000000002,-12.6,-19.9
1698420179629.0,16,-2.4000000000000004,2.0,0.1,-3.0,11.600000000000001,-0.1,21.3,-24.000000000000004,-31.2
1698420179646.0,16,-1.0,1.7000000000000002,0.6000000000000001,-0.6000000000000001,11.4,1.2000000000000002,12.700000000000001,-30.000000000000004,-29.500000000000004
1698420179662.0,16,0.9,1.9000000000000001,2.5,0.2,11.5,2.3000000000000003,6.3,-39.400000000000006,-29.500000000000004
1698420179679.0,16,2.1,2.0,3.7,1.3,11.5,3.5,-4.300000000000001,-44.6,-20.2
1698420179696.0,16,1.9000000000000001,1.1,3.9000000000000004,1.1,10.600000000000001,3.7,-2.6,-46.7,-11.8
1698420179713.0,16,-0.4,-0.8,2.4000000000000004,-1.3,8.8,2.3000000000000003,5.0,-50.6,-4.300000000000001
1698420179729.0,16,-2.2,-0.4,1.2000000000000002,-3.1,9.1,1.0,2.4000000000000004,-37.800000000000004,0.9
1698420179746.0,16,-1.7000000000000002,0.5,0.5,-2.5,10.100000000000001,0.4,-1.8,-26.200000000000003,4.2
1698420179763.0,16,-0.7000000000000001,0.4,0.9,-1.5,9.9,0.8,-3.6,-21.1,5.4
1698420179779.0,16,1.1,-0.2,1.4000000000000001,0.30000000000000004,9.4,1.3,-4.5,-18.900000000000002,13.700000000000001
1698420179796.0,16,2.0,-0.5,1.2000000000000002,0.9,9.1,1.2000000000000002,-4.7,-17.7,19.400000000000002
1698420179813.0,16,2.1,-0.5,1.3,1.4000000000000001,9.0,1.3,-5.8,-15.2,30.200000000000003
1698420179829.0,16,1.7000000000000002,-0.9,0.9,1.1,8.6,0.9,-4.300000000000001,-17.1,32.9
1698420179846.0,16,1.1,-1.3,0.7000000000000001,0.6000000000000001,8.200000000000001,0.7000000000000001,-4.9,-16.2,30.599999999999998
1698420179864.0,16,0.30000000000000004,-1.5,0.7000000000000001,-0.1,8.0,0.7000000000000001,-7.300000000000001,-12.200000000000001,26.6
1698420179879.0,16,0.4,-1.5,0.6000000000000001,0.1,8.1,0.6000000000000001,-10.700000000000001,-5.2,24.1
1698420179896.0,16,1.0,-1.0,0.4,0.7000000000000001,8.5,0.6000000000000001,-11.3,4.9,21.6
1698420179912.0,16,1.2000000000000002,-0.9,0.4,1.0,8.6,0.5,-10.4,7.400000000000001,18.5
1698420179929.0,16,0.8,-0.7000000000000001,-0.2,0.7000000000000001,8.8,0.0,-7.400000000000001,9.1,10.8
1698420179946.0,16,0.2,-0.6000000000000001,-0.6000000000000001,0.1,8.9,-0.4,-5.300000000000001,8.600000000000001,6.9
1698420179963.0,16,0.1,-0.4,-0.7000000000000001,0.0,9.1,-0.5,-5.7,6.3,5.4
1698420179979.0,16,-0.1,-0.6000000000000001,-0.6000000000000001,-0.2,8.9,-0.4,-5.8,-0.8,1.2000000000000002
1698420179996.0,16,0.1,-0.9,-0.4,0.0,8.6,-0.2,-3.7000000000000006,-3.3000000000000003,-3.9
1698420180013.0,16,0.2,-0.9,-0.4,0.1,8.6,-0.2,-0.9,-3.6,-6.1000000000000005
1698420180029.0,16,0.4,-1.0,-0.8,0.2,8.5,-0.6000000000000001,8.0,-0.9,-9.8
1698420180045.0,16,0.7000000000000001,-1.0,-1.7000000000000002,0.5,8.5,-1.6,14.800000000000002,7.1000000000000005,-12.700000000000001
1698420180062.0,16,0.9,-0.9,-2.0,0.7000000000000001,8.6,-1.9000000000000001,16.0,12.5,-13.5
1698420180079.0,16,1.4000000000000001,-0.6000000000000001,-2.0,1.2000000000000002,8.9,-2.0,15.9,18.1,-12.6
1698420180095.0,16,1.1,-0.6000000000000001,-1.6,0.9,8.9,-1.6,17.200000000000003,11.9,-8.0
1698420180112.0,16,0.7000000000000001,-0.4,-1.5,0.4,9.1,-1.6,17.599999999999998,7.9,-5.9
1698420180129.0,16,-0.2,0.2,-1.1,-0.5,9.600000000000001,-1.2000000000000002,13.200000000000001,3.8,-2.0
1698420180145.0,16,-0.7000000000000001,1.1,-0.30000000000000004,-1.0,10.5,-0.5,7.9,-15.8,-0.5
1698420180162.0,16,-1.3,1.1,-0.5,-1.6,10.5,-0.7000000000000001,10.8,-20.3,-8.200000000000001
1698420180179.0,16,-1.0,2.1,-1.1,-1.4000000000000001,11.600000000000001,-1.4000000000000001,15.000000000000002,5.2,-15.7
1698420180198.0,16,-0.4,2.6,-0.2,-0.8,12.100000000000001,-0.5,26.200000000000003,15.299999999999999,-0.9
1698420180212.0,16,0.0,1.5,0.1,-0.30000000000000004,11.0,-0.30000000000000004,31.0,6.6000000000000005,6.9
1698420180229.0,16,1.0,1.0,-0.2,0.7000000000000001,10.5,-0.7000000000000001,28.200000000000003,-8.0,9.5
1698420180246.0,16,1.3,1.2000000000000002,0.8,1.0,10.700000000000001,0.30000000000000004,29.500000000000004,-7.300000000000001,4.0
1698420180262.0,16,1.8,1.4000000000000001,0.9,1.5,10.9,0.30000000000000004,27.0,-6.7,7.2
1698420180279.0,16,0.30000000000000004,2.2,2.3000000000000003,0.1,11.700000000000001,1.7000000000000002,14.4,-9.9,18.1
1698420180296.0,16,-1.7000000000000002,1.3,2.5,-1.9000000000000001,10.8,1.8,2.5,-12.200000000000001,15.8
1698420180313.0,16,-1.3,0.2,2.8000000000000003,-1.4000000000000001,9.700000000000001,2.2,-2.6,-12.000000000000002,14.500000000000002
1698420180329.0,16,0.9,-0.4,1.9000000000000001,0.8,9.1,1.3,-5.6,-18.8,14.100000000000001
1698420180346.0,16,1.3,0.6000000000000001,1.3,1.2000000000000002,10.100000000000001,0.8,-6.6000000000000005,-39.300000000000004,7.400000000000001
1698420180362.0,16,0.9,0.5,1.2000000000000002,0.9,10.100000000000001,0.6000000000000001,-4.2,-51.7,4.6000000000000005
1698420180379.0,16,0.0,0.0,0.9,-0.1,9.600000000000001,0.4,-1.0999999999999999,-73.50000000000001,-0.9
1698420180396.0,16,-1.4000000000000001,0.1,0.7000000000000001,-1.5,9.600000000000001,0.2,-4.300000000000001,-90.5,-10.3
1698420180412.0,16,-1.9000000000000001,0.2,0.6000000000000001,-1.9000000000000001,9.600000000000001,0.2,-6.8,-98.6,-14.3
1698420180429.0,16,-1.9000000000000001,0.2,0.5,-2.1,9.8,0.0,-10.5,-111.80000000000001,-21.200000000000003
1698420180446.0,16,-0.9,-0.30000000000000004,0.30000000000000004,-1.3,9.200000000000001,-0.1,-13.3,-119.7,-23.700000000000003
1698420180462.0,16,0.0,-0.8,0.30000000000000004,-0.5,8.700000000000001,0.0,-14.4,-127.9,-22.8
1698420180480.0,16,0.2,-0.9,0.1,-0.30000000000000004,8.6,-0.2,-14.600000000000001,-132.3,-20.7
1698420180496.0,16,0.4,-0.8,0.1,-0.1,8.8,-0.1,-16.3,-140.5,-15.000000000000002
1698420180513.0,16,0.30000000000000004,-0.6000000000000001,0.2,-0.5,9.200000000000001,0.1,-17.400000000000002,-145.4,-9.9
1698420180529.0,16,-0.1,-0.1,0.2,-0.7000000000000001,9.4,0.1,-16.900000000000002,-146.60000000000002,-7.9
1698420180546.0,16,-0.2,0.1,0.0,-0.9,9.600000000000001,0.0,-14.600000000000001,-148.4,-5.4
1698420180562.0,16,-0.1,0.1,-0.2,-0.7000000000000001,9.600000000000001,-0.1,-13.6,-148.8,-4.6000000000000005
1698420180580.0,16,0.30000000000000004,0.0,-0.30000000000000004,-0.30000000000000004,9.5,-0.2,-11.6,-150.6,-3.8
1698420180596.0,16,0.5,0.0,-0.5,-0.2,9.600000000000001,-0.30000000000000004,-10.2,-154.2,-4.9
1698420180612.0,16,0.4,0.1,-0.7000000000000001,-0.30000000000000004,9.700000000000001,-0.5,-9.4,-159.6,-6.9
1698420180629.0,16,0.4,0.1,-0.8,-0.30000000000000004,9.600000000000001,-0.5,-9.200000000000001,-162.4,-7.699999999999999
1698420180646.0,16,0.5,0.0,-0.8,-0.2,9.600000000000001,-0.4,-9.1,-166.4,-7.6
1698420180662.0,16,0.9,-0.2,-0.7000000000000001,0.0,9.600000000000001,-0.30000000000000004,-8.799999999999999,-166.8,-7.1000000000000005
1698420180679.0,16,1.0,-0.30000000000000004,-0.7000000000000001,0.4,9.200000000000001,-0.30000000000000004,-8.1,-166.9,-4.0
1698420180697.0,16,1.2000000000000002,-0.30000000000000004,-0.8,0.5,9.200000000000001,-0.30000000000000004,-7.8,-161.8,-1.6
1698420180712.0,16,0.9,-0.4,-0.9,0.30000000000000004,9.1,-0.30000000000000004,-6.5,-153.70000000000002,-0.4
1698420180729.0,16,0.5,-0.6000000000000001,-1.1,-0.1,8.9,-0.5,-5.8,-150.8,0.6000000000000001
1698420180745.0,16,0.0,-0.5,-1.3,-0.6000000000000001,9.0,-0.7000000000000001,-5.2,-145.5,4.1000000000000005
1698420180763.0,16,-0.30000000000000004,-0.2,-1.8,-0.8,9.3,-1.2000000000000002,-3.1,-145.0,8.1
1698420180779.0,16,-0.4,0.0,-2.0,-0.8,9.5,-1.3,-2.6,-145.29999999999998,9.8
1698420180796.0,16,-0.30000000000000004,0.1,-1.7000000000000002,-0.7000000000000001,9.600000000000001,-1.1,-1.4,-143.4,12.5
1698420180812.0,16,-0.30000000000000004,-0.30000000000000004,-2.1,-0.6000000000000001,9.200000000000001,-1.5,1.0,-140.5,15.9
1698420180830.0,16,-0.4,-0.30000000000000004,-2.0,-0.7000000000000001,9.200000000000001,-1.4000000000000001,0.4,-139.0,17.3
1698420180846.0,16,-0.6000000000000001,-0.6000000000000001,-2.0,-0.8,8.9,-1.4000000000000001,-0.2,-138.5,20.1
1698420180863.0,16,-1.0,-1.1,-2.1,-1.1,8.4,-1.5,-1.6,-138.4,22.2
1698420180880.0,16,-0.8,-0.9,-2.3000000000000003,-0.9,8.6,-1.7000000000000002,-5.2,-138.00000000000003,23.8
1698420180896.0,16,0.8,0.1,-1.4000000000000001,0.8,9.5,-0.7000000000000001,-18.6,-140.20000000000002,24.200000000000003
1698420180912.0,16,2.4000000000000004,1.3,-1.1,2.0,10.0,-0.8,-22.4,-137.20000000000002,23.3
1698420180929.0,16,2.9000000000000004,1.9000000000000001,0.4,3.7,11.0,2.4000000000000004,-44.3,-138.5,15.6
1698420180946.0,16,3.2,0.7000000000000001,1.9000000000000001,3.6,10.200000000000001,2.8000000000000003,-42.5,-138.7,14.900000000000002
1698420180962.0,16,1.2000000000000002,0.1,2.6,1.7000000000000002,9.600000000000001,3.6,-30.7,-151.20000000000002,4.6000000000000005
1698420180979.0,16,-0.30000000000000004,0.0,2.2,0.2,9.4,3.3000000000000003,-21.400000000000002,-157.70000000000002,-2.7
1698420180996.0,16,-2.0,0.30000000000000004,-0.9,-1.4000000000000001,9.8,0.2,-8.9,-150.2,-8.0
1698420181012.0,16,-1.4000000000000001,0.1,-1.4000000000000001,-0.9,9.600000000000001,-0.30000000000000004,-17.3,-153.70000000000002,-6.5
1698420181029.0,16,-0.8,0.1,-1.2000000000000002,-0.30000000000000004,9.600000000000001,-0.1,-22.1,-158.7,-4.7
1698420181046.0,16,0.6000000000000001,0.30000000000000004,-1.0,1.2000000000000002,9.700000000000001,0.1,-29.700000000000003,-164.8,-2.6
1698420181062.0,16,1.1,0.30000000000000004,-0.5,1.7000000000000002,9.700000000000001,0.7000000000000001,-30.5,-168.4,-1.9
1698420181079.0,16,0.9,0.30000000000000004,-0.6000000000000001,1.7000000000000002,9.700000000000001,0.6000000000000001,-29.1,-167.10000000000002,-1.7
1698420181096.0,16,0.2,-0.1,-0.6000000000000001,1.0,9.3,0.7000000000000001,-26.1,-165.9,-2.1999999999999997
1698420181112.0,16,-0.2,-0.1,-1.2000000000000002,0.6000000000000001,9.3,0.2,-25.2,-164.70000000000002,-3.5
1698420181129.0,16,-0.4,-0.1,-1.3,0.5,9.3,0.1,-26.200000000000003,-167.4,-5.4
1698420181146.0,16,-0.30000000000000004,0.2,-1.5,0.6000000000000001,9.600000000000001,-0.2,-28.500000000000004,-173.3,-10.4
1698420181162.0,16,0.2,-0.2,-1.3,1.2000000000000002,9.200000000000001,0.1,-31.900000000000002,-182.1,-14.900000000000002
1698420181179.0,16,0.4,-0.30000000000000004,-1.2000000000000002,1.3,9.1,0.2,-32.4,-185.3,-17.1
1698420181196.0,16,0.7000000000000001,-0.4,-1.0,1.7000000000000002,9.0,0.4,-32.4,-188.70000000000002,-18.2
1698420181213.0,16,0.9,-0.30000000000000004,-1.2000000000000002,2.0,9.1,0.30000000000000004,-30.200000000000003,-185.5,-15.9
1698420181229.0,16,1.1,-0.2,-1.3,2.2,9.200000000000001,0.2,-29.600000000000005,-182.0,-14.0
1698420181246.0,16,1.4000000000000001,-0.2,-1.2000000000000002,2.6,9.1,0.30000000000000004,-27.1,-176.4,-9.8
1698420181262.0,16,1.4000000000000001,-0.2,-1.2000000000000002,2.6,9.1,0.30000000000000004,-26.1,-169.20000000000002,-6.3
1698420181279.0,16,1.3,-0.2,-1.1,2.6,9.1,0.4,-25.700000000000003,-163.1,-3.5
1698420181296.0,16,1.2000000000000002,-0.1,-1.1,2.5,9.200000000000001,0.30000000000000004,-25.2,-159.2,-3.2
1698420181312.0,16,1.0,-0.1,-1.1,2.5,9.200000000000001,0.4,-25.900000000000002,-149.5,-3.3000000000000003
1698420181329.0,16,1.0,-0.1,-1.2000000000000002,2.5,9.200000000000001,0.30000000000000004,-24.7,-140.20000000000002,-2.7
1698420181346.0,16,1.1,0.0,-1.2000000000000002,2.7,9.3,0.30000000000000004,-25.1,-134.8,-2.7
1698420181362.0,16,1.2000000000000002,0.0,-0.9,2.8000000000000003,9.3,0.5,-24.000000000000004,-126.5,-2.5
1698420181379.0,16,0.8,-0.2,-0.9,2.5,9.1,0.6000000000000001,-21.900000000000002,-119.89999999999999,-2.3000000000000003
1698420181396.0,16,0.6000000000000001,-0.2,-0.8,2.4000000000000004,9.0,0.6000000000000001,-20.8,-117.8,-1.9
1698420181412.0,16,0.4,-0.5,-0.9,2.2,8.8,0.5,-19.1,-113.3,-1.8
1698420181429.0,16,0.4,-0.6000000000000001,-0.9,2.2,8.6,0.5,-15.9,-106.4,-3.4
1698420181446.0,16,0.4,-0.6000000000000001,-1.0,2.2,8.6,0.4,-13.3,-101.30000000000001,-5.0
1698420181462.0,16,0.2,-0.6000000000000001,-1.3,2.1,8.6,0.0,-6.8,-90.6,-8.600000000000001
1698420181479.0,16,0.2,-0.6000000000000001,-1.4000000000000001,2.1,8.6,-0.2,-4.1000000000000005,-85.5,-10.4
1698420181496.0,16,0.4,-0.6000000000000001,-1.5,2.3000000000000003,8.6,-0.30000000000000004,1.0999999999999999,-76.1,-13.4
1698420181512.0,16,0.6000000000000001,-0.7000000000000001,-1.8,2.5,8.5,-0.6000000000000001,5.4,-66.2,-17.5
1698420181529.0,16,0.8,-0.7000000000000001,-1.7000000000000002,2.6,8.5,-0.6000000000000001,8.200000000000001,-56.7,-20.5
1698420181546.0,16,0.7000000000000001,-0.4,-1.4000000000000001,2.6,8.8,-0.4,8.9,-50.9,-20.900000000000002
1698420181562.0,16,0.4,0.6000000000000001,-0.5,2.2,9.9,0.5,10.700000000000001,-44.6,-18.7
1698420181579.0,16,-0.5,0.9,-0.1,1.3,10.100000000000001,0.8,14.500000000000002,-50.7,-13.200000000000001
1698420181596.0,16,-0.8,0.6000000000000001,-0.1,0.9,9.9,0.7000000000000001,16.6,-55.0,-10.3
