ts,interval,accx,accy,accz,accGx,accGy,accGz,alpha,beta,gamma
1698420166059.0,0.01666666753590107,0.14945771714821457,-0.27052725194096566,0.25675650074183937,0.8191163891114294,-4.8470621377691625,-8.390628771099447,-9.809902737886773,-11.095606448192571,-18.797638529906184
1698420166171.0,0.01666666753590107,0.6502607285320758,0.3677364570662379,-0.5037935715019702,1.485602130126953,-4.479551890674233,-8.987683394622803,15.913341850963596,-10.603062724122735,9.001910995868128
1698420166188.0,0.01666666753590107,-0.04558949252516031,0.43810675510466096,-0.47485798439681526,0.7649474304199219,-4.438850170190632,-8.94413826740682,7.974869964525297,-3.213971980932534,5.292157354312348
1698420166205.0,0.01666666753590107,-0.2851096848491579,0.5902896594330668,0.08754208985269069,0.5119101693969219,-4.28696800237447,-8.38284761570394,-8.68107395866418,-3.0698981050144005,3.89679026112694
1698420166221.0,0.01666666753590107,-0.35961467153951526,0.6094158001855016,0.34737200669050217,0.42287594129033385,-4.236690059772133,-8.142230348858236,-19.696599000159292,-5.21252972830787,3.060947568993922
1698420166238.0,0.01666666753590107,-0.3558426056548953,0.2780801515385508,0.345087695145607,0.4100070343017578,-4.517709187372029,-8.174552655792235,-25.52010537142408,-6.6475076498111205,2.7467567327392195
1698420166255.0,0.01666666753590107,-0.25926556095331904,0.20449498310685157,0.3013543518811464,0.4973953218322247,-4.511124840545654,-8.263736083111166,-28.171110109075713,8.09556879866953,6.592499440669953
1698420166271.0,0.01666666753590107,-0.21150851513072846,-0.12002250995784997,0.26960370735526085,0.5621885503906756,-4.775085865838825,-8.327033374023436,-26.37766806511774,10.632447905479422,0.12805254664195773
1698420166288.0,0.01666666753590107,-0.19914821525141596,0.1545136853635311,0.16320377229750155,0.6254852567810565,-4.436007055719196,-8.463353231048583,-29.696778001717924,28.222599490133856,1.0242336101505443
1698420166305.0,0.01666666753590107,-1.4215294709280133,0.8884168659612536,0.2581903329372406,-0.5415383418761194,-3.6227266792848702,-8.404695290374756,-23.348009592711644,12.630941619831288,-4.632458837571612
1698420166322.0,0.01666666753590107,-1.4704036842122674,1.0234703563123941,1.407256907686591,-0.5539584821838885,-3.4349314865663647,-7.279121234893799,-21.283912765155453,10.706700599493923,-10.900308287933457
1698420166338.0,0.01666666753590107,-1.0257974110204726,0.5100666604220867,1.0118249267041683,-0.07302315063476562,-3.9041950119569897,-7.6931678999751805,-14.539536384327448,11.483228221327257,-7.3325188476159235
1698420166355.0,0.01666666753590107,-0.5334442480739205,-0.01782207241654396,0.6930898164331912,0.4513070129394531,-4.409670837457478,-8.019677151378989,1.3031377681622565,2.391499384099816,-3.4043677729148705
1698420166372.0,0.01666666753590107,-0.6965511358682066,-0.6570896977692842,0.47208267446458335,0.2855085479736328,-5.064335646167398,-8.233210596466064,12.085790925000367,-5.64592999058092,0.6736350908553238
1698420166389.0,0.01666666753590107,-0.8618850520621985,-0.9032400488227605,0.5536345839917659,0.10115502014160156,-5.347599337823689,-8.134898690795898,19.486691919039167,-9.637455829269584,-0.22000951787195502
1698420166405.0,0.01666666753590107,-1.3939908911392092,-1.1855015776991844,0.7343857034176587,-0.45355143086537714,-5.689521554675698,-7.925854373821616,17.99431095331701,2.635701058485986,11.8254650949745
1698420166421.0,0.01666666753590107,-1.6687985968783496,-1.0301140321105717,1.3099883735895157,-0.7523777255736291,-5.5783405228212475,-7.329698744964599,17.481389359858444,-9.417330785151119,23.665440926840695
1698420166439.0,0.01666666753590107,-2.181605495919287,-0.38495676419734953,1.0719617077589034,-1.3328220636229962,-4.97021330114156,-7.555052976226806,7.780760257181766,-19.099660957267687,27.0777043984361
1698420166455.0,0.01666666753590107,-2.9000498261004686,-0.30704408795535565,1.1004741010159254,-2.1465514259338376,-4.888511169488727,-7.537395154461264,-14.693032933092438,-25.525359494443112,7.491468448659521
1698420166472.0,0.01666666753590107,-3.2780975415617224,-0.9002730157107114,0.16582301488518714,-2.5890297471862285,-5.428852556665241,-8.505251760101318,-31.021964474294627,-31.257616245943822,-7.496721717904908
1698420166490.0,0.01666666753590107,-2.933600213524699,-1.0573612277373672,0.13104454697072504,-2.300229244995117,-5.5035217209413645,-8.58680425415039,-37.761629732142616,-29.82834110551071,-15.789297077899702
1698420166505.0,0.01666666753590107,-2.2837952659361065,-0.8584928523406385,0.510963317000866,-1.7060182473998515,-5.188534565027058,-8.268973983764647,-36.031385721027476,-23.089145423168162,-20.906939256936816
1698420166534.0,0.01666666753590107,-2.3224650422006845,-0.8400988252550363,1.1737304758846758,-1.7420809464385731,-5.056554198510945,-7.66114603729248,-32.81318841431964,-5.181001575099091,-39.34581014785703
1698420166539.0,0.01666666753590107,-2.1199914819188415,-0.8914443970888852,1.5091285516649484,-1.510591646487452,-5.055955355834961,-7.34840286091268,-28.858273243355896,2.9269501430922613,-43.65332700453352
1698420166555.0,0.01666666753590107,-1.697605004645884,-0.8181205099418759,2.345877481970191,-1.0043675233703107,-4.896292032623291,-6.545597116741538,-20.199159196646953,8.208954207759973,-42.14641310380487
1698420166585.0,0.01666666753590107,-1.3275947574287652,-0.7545335884332657,2.4290444254785775,-0.5319615352354944,-4.768501811273396,-6.483049182891845,-2.640147938522487,1.6968648766412877,-23.227205744408923
1698420166592.0,0.01666666753590107,-1.1984022680655122,-1.177066926831007,1.998463974225521,-0.39474392565302546,-5.187936306872964,-6.91430475692749,-1.3086812137256623,-1.1720316467136271,-21.308412653708288
1698420166605.0,0.01666666753590107,-1.2063679131824523,-1.5772209678992628,1.4237544535011053,-0.3965395768981427,-5.582081462915242,-7.491157719421386,-0.7840922697825353,-11.205236107013153,-19.04048078320411
1698420166622.0,0.01666666753590107,-1.1814955569282173,-2.052999866533279,0.20265666176378727,-0.3821743669372052,-6.05209346858561,-8.715791868591308,-0.6329406103369764,-13.566171248350809,-20.414626051751465
1698420166638.0,0.01666666753590107,-1.1329632158841938,-2.1740549344092606,-0.11314648670852184,-0.3339912046570331,-6.1626750732421876,-9.036315031322836,-6.1895776169076155,-4.879412437863063,-23.419743654469706
1698420166655.0,0.01666666753590107,-1.1965711071155964,-2.2161235593318938,-0.9160773185640573,-0.3712508218627423,-6.148310155542195,-9.861866275787353,-26.009394510354404,-5.33307232187484,-23.67240259715223
1698420166672.0,0.01666666753590107,-0.6574076776772737,-2.568776429034769,-2.186751334375143,0.16130940991826354,-6.429629142871499,-11.164162341308593,-27.774667146627955,-15.7429235085299,-17.94172020425521
1698420166701.0,0.01666666753590107,-0.4914300567522645,-2.8771272156745193,-2.794004111307859,0.3173814306396991,-6.685060240228474,-11.794884841156005,-13.472068317060957,-3.0957456752678443,-13.057007112709393
1698420166705.0,0.01666666753590107,-0.4332349112845957,-2.6422791798800227,-3.6334991254508493,0.4239234045166522,-6.429030300195515,-12.638840926361084,-1.7282649638031289,25.55691496840857,-3.3663195638130796
1698420166723.0,0.01666666753590107,-0.4155672257121652,-2.0676021001204847,-4.098961504992842,0.5149030676025897,-5.848286175481975,-13.099574523815512,-4.412744458576995,35.151718827632365,4.591788476158771
1698420166738.0,0.01666666753590107,-0.18848624372258782,-1.933891841071844,-4.125819701302051,0.8176199400085955,-5.702839009149372,-13.123217849731445,-6.6234376362891725,34.8642873918853,10.061667779561674
1698420166755.0,0.01666666753590107,0.10690978427603841,-1.5856871829494834,-3.6594951519727705,1.2086229255676268,-5.343109917449951,-12.650512074932456,-1.9097635806178777,36.063576402585745,13.170343856701999
1698420166772.0,0.01666666753590107,0.07933408734723925,-1.2922764835491776,-2.8256419431090354,1.2502223255433143,-5.0540103592470285,-11.806107661437988,0.4794728764325482,33.7514275949422,15.556175891337997
1698420166788.0,0.01666666753590107,0.03661393971331418,-0.9533996257424354,-2.418737550997734,1.2574048574585466,-4.712387709863483,-11.393706425476074,-9.252106801581219,22.042787763078888,18.861912317543297
1698420166805.0,0.01666666753590107,0.05750014894083142,-0.41414778736829755,-2.509246673962474,1.287931001690775,-4.12057098699361,-11.504737527465819,-28.026945306264256,-0.3844676664811683,13.121457631491278
1698420166822.0,0.01666666753590107,0.04313523124083876,0.7173550736397505,-3.535428627321124,1.254112903241068,-2.920178421893716,-12.561627922821044,-31.49141362123336,-3.4854246160031734,13.361434620432384
1698420166838.0,0.01666666753590107,0.06952434873357415,1.5446356261149048,-3.872662101835012,1.2659342008728534,-2.0380647477298974,-12.92270346069336,-16.151802537908956,3.2261726197808804,15.686203910114822
1698420166854.0,0.01666666753590107,0.20532317755930124,2.027238525550067,-3.060939476236701,1.3989619575500487,-1.5637129592895507,-12.108075761303304,16.667915537257215,7.76612743065866,17.639965861818627
1698420166872.0,0.01666666753590107,0.5921504118036478,2.2497043418943883,-1.5324597428917883,1.7920600156921893,-1.4046484787538647,-10.55334164276123,29.97853696535929,11.531141998354897,17.49825821956108
1698420166889.0,0.01666666753590107,0.7454831437543034,2.0280174009680745,-0.7314332833528518,1.9563621046204118,-1.6979381821230053,-9.721506203460693,23.345649762353407,10.271179563483583,14.381530203162958
1698420166905.0,0.01666666753590107,1.076128398984298,1.7710393664300441,0.39061610513329503,2.291999103723094,-1.9840449882507323,-8.586654032024741,-11.58960329500833,0.7282509910060383,10.054484128102112
1698420166922.0,0.01666666753590107,0.864909076058492,1.819895459535718,0.33155542887747286,2.0639515417236836,-1.8798975082948803,-8.670900587463379,-35.5842234813505,-4.193761763597217,15.4489180157067
1698420166938.0,0.01666666753590107,1.1029985049270092,2.1128411717727777,0.5477005177676677,2.2836195440430194,-1.465850258691609,-8.505999948120117,-38.21857280271105,1.1290162892596505,5.347488716778621
1698420166955.0,0.01666666753590107,0.7728769082449376,2.216207145962119,0.9547557165265083,1.953818265356496,-1.2898767289310693,-8.12726717300415,-24.036243359144226,4.736653800246979,8.395667674006027
1698420166972.0,0.01666666753590107,0.21475458437986672,1.70759945217669,2.009247818568349,1.403301448059082,-1.76512546621114,-7.084591765484213,-7.003117180079603,9.007039614161162,12.386283389987787
1698420166989.0,0.01666666753590107,0.08148637001030147,1.596210038268566,3.055437371689081,1.294215707983449,-1.8875290260866284,-6.030993981933594,8.218626609398358,16.524643781679735,15.11523766154219
1698420167005.0,0.01666666753590107,0.06535860735625028,1.3855851741045713,3.5304409020364282,1.3054386013306676,-2.124554990442097,-5.542127930450439,8.790117074989787,17.749257426275296,15.292614259192836
1698420167022.0,0.01666666753590107,0.019038170208036897,1.055707323050499,4.121138850009441,1.2847883197508752,-2.475155896051228,-4.939835990795493,4.129107192913876,15.848518233098297,17.89538249337855
1698420167039.0,0.01666666753590107,0.3836538649052381,0.8206868532985448,4.3725592504203314,1.6587326915465295,-2.7281930840089914,-4.68006511066854,3.255514899011844,6.132315445340344,23.88174618766583
1698420167055.0,0.01666666753590107,0.41126302571222184,0.6488812568724155,4.275964670062065,1.6714521801270543,-2.925265808160603,-4.76880079421997,12.146900627504472,1.6139071065296053,26.95499321980765
1698420167072.0,0.01666666753590107,-0.27378508469313384,0.4184586363047361,4.134539598852395,0.9594763153076171,-3.211223268945515,-4.891802904510498,27.386814854608783,-1.6631466873081677,29.50022223287788
1698420167090.0,0.01666666753590107,-1.145909498957917,0.11447072104960679,3.603551730954647,0.039055487646535034,-3.637091889245808,-5.379322217559814,39.488854799644606,-4.320571055727673,27.48526007866347
1698420167105.0,0.01666666753590107,-1.3110492808192968,0.09280395590364933,3.1055402499854563,-0.15951361254267393,-3.7579993653446433,-5.839607486724853,37.979417144017646,-2.4880253249977287,22.123293495278535
1698420167122.0,0.01666666753590107,-1.1576165225602686,-0.2918427194312215,1.8363550114274023,-0.027533246026560664,-4.232499914605915,-7.072321481975913,33.31092478970598,1.3301126397938698,19.51524893995899
1698420167139.0,0.01666666753590107,-0.8865620318748056,-0.4721957794502377,0.18257891937494278,0.22310966720581055,-4.50693498764038,-8.686462313732504,22.600605897499246,1.9164063664725384,17.302586960218555
1698420167155.0,0.01666666753590107,-0.7927872581776231,-0.6514125289157032,-0.5207464598685503,0.3051110740661621,-4.7331873367860915,-9.369708197021485,14.115876825584483,1.5444731109745482,14.229291262978897
1698420167172.0,0.01666666753590107,-0.29429595780223605,-0.7110486669719219,-2.0127882676541806,0.6100725105285644,-4.890007545526325,-10.838251640319823,6.087403536452926,-2.391806102282232,11.199658403782191
1698420167189.0,0.01666666753590107,-0.4872385964117944,-0.16158640022873877,-3.380619758403301,0.2642600813049823,-4.381987880761921,-12.20070202255249,-4.003372374917227,-12.542623004994793,0.7935940234133751
1698420167205.0,0.01666666753590107,-0.4819654783144593,0.07953852387815713,-3.9287183355778454,0.1927332336425781,-4.140024167743325,-12.755408619689941,-5.02846893678072,-13.375097560093348,-9.736637859980984
1698420167222.0,0.01666666753590107,-0.49369211993273343,0.15288228476941584,-4.414656516915559,0.06928224707338959,-4.068796376092732,-13.24816524887085,0.22932949775742253,-10.776878231894866,-23.537791521442326
1698420167239.0,0.01666666753590107,-0.15242913417443632,0.5320888148769736,-4.481633957645297,0.30196872091982513,-3.6812352746158834,-13.325377667888999,2.5699222813539433,-10.121743562180168,-34.152813906801754
1698420167255.0,0.01666666753590107,0.28773247110079975,0.9701827105000614,-4.974240364700555,0.7580641371795908,-3.2395047760561106,-13.818883069610594,1.2506779666334447,-2.3007133634256527,-36.11884629334949
1698420167272.0,0.01666666753590107,0.708278909997642,1.2784025642365215,-5.84198298368454,1.230320341580175,-2.9430729752689597,-14.67810219039917,18.887032045763313,0.8329985586739422,-38.13380674001661
1698420167289.0,0.01666666753590107,-0.4344499496301636,1.0823238195583225,-4.406031896433234,0.10983403769228607,-3.202095375116169,-13.210456572723388,44.720055703822354,-19.2904605841847,-37.81338549057839
1698420167304.0,0.01666666753590107,-1.2929986603438854,0.7941919373437761,-2.8522891270160673,-0.7848493047852069,-3.6028245857238765,-11.603198486217856,56.23195364419074,-47.77069822490602,-37.75643537327882
1698420167322.0,0.01666666753590107,-1.7159731666378677,0.8186348892048001,-0.5709235724449158,-1.3314754347870126,-3.7051767066955565,-9.2633152762264,28.280727815065248,-66.07544127600012,-40.674169243303204
1698420167339.0,0.01666666753590107,-1.5631950728952884,0.7762766336858272,-0.46484278633892534,-1.2648867011139169,-3.7597950165897607,-9.154230047607422,-11.073955602297277,-52.54385981315354,-53.45389372759853
1698420167355.0,0.01666666753590107,-1.5228149855814874,1.3218199734196066,-0.990021675696969,-1.2508207298278808,-3.137003309741616,-9.720158880504965,-49.08525692313418,-24.344049249185435,-54.100938038241345
1698420167372.0,0.01666666753590107,-1.6677826978340744,2.5640564147755502,-2.054772136902809,-1.341800283315964,-1.7012302094057201,-10.87925234375,-62.2914823248672,8.157126732337916,-46.593730272413175
1698420167388.0,0.01666666753590107,-2.1764289700642228,3.17162863292098,-1.4106938963979483,-1.7750012557983397,-0.9608233460023998,-10.295066554149985,-41.33709032867172,19.04486747219855,-38.45106219677453
1698420167404.0,0.01666666753590107,-2.2293961517505347,3.162525581271946,-0.6220400116980076,-1.7621323853423818,-0.8931868568420409,-9.5384994140625,-19.14098701684085,12.585649781671288,-24.77099754401376
1698420167422.0,0.01666666753590107,-1.0501472777705638,2.5335817815348505,1.5387421841621398,-0.518194912222214,-1.4866498856142163,-7.390151752361655,-0.26069471360189955,15.081576781765076,-10.385639019821012
1698420167439.0,0.01666666753590107,-0.029799912316910922,1.4970932459563016,1.2402543276280165,0.5249287505218759,-2.5133134850099683,-7.691671523937583,-0.8027030411669391,0.7798220141691022,-7.106375553065033
1698420167455.0,0.01666666753590107,0.01576554174553603,1.1658704100340604,1.310095925617218,0.557998660952784,-2.838326652637124,-7.625382649993896,1.9666784797545362,-13.74320036012743,-3.8419848232267575
1698420167472.0,0.01666666753590107,0.3376026731524616,1.2895052652701735,2.0116519571006295,0.8062474821228534,-2.729839097650349,-6.921187502178549,15.590366110775788,-24.560801887401205,4.774900298278112
1698420167488.0,0.01666666753590107,0.7898249012406915,1.6079057367593048,2.8227579121053217,1.1911153989929706,-2.448969315393269,-6.096385614776611,28.280582673545386,-13.329220886985665,9.243009843380408
1698420167505.0,0.01666666753590107,1.0447891848035156,1.58454648848176,3.0429367865562438,1.4118308645386248,-2.5447373817995187,-5.844395890045166,39.47307706266188,-5.675176860606915,6.304100252494866
1698420167522.0,0.01666666753590107,0.9778153973355889,1.851848348635435,2.4732465552985667,1.304989505856298,-2.3775921783998606,-6.3684261938899756,43.20508901006226,-6.751641567670781,0.3157952370185676
1698420167539.0,0.01666666753590107,0.8899387417662888,2.467879767568409,1.982697080773115,1.1619360297271981,-1.7935569031864405,-6.845471459197998,45.353975805975,-10.830061499867169,1.1599518168362248
1698420167554.0,0.01666666753590107,0.8303758150767534,2.7140061532244086,1.7372990093916654,1.0715549535889177,-1.6512512497499585,-7.040898169708251,53.451284595335586,-10.17710224540312,2.310716388908548
1698420167572.0,0.01666666753590107,0.5139923459658399,2.10982533108294,1.4511673610836267,0.734870308596827,-2.4405893173217774,-7.233032268413901,75.47661610244322,-0.1076052814640403,-4.924006316067253
1698420167588.0,0.01666666753590107,-0.3841202403079718,1.7774436805143952,1.9957202284753321,-0.14395132001796737,-2.953247747802734,-6.591086948284507,87.33963699256903,11.110473208694751,-6.379557621124228
1698420167604.0,0.01666666753590107,-0.3998523912405595,1.977709940010309,2.022404821783304,-0.12375024351039901,-2.9420249275207517,-6.456413689422607,82.41349965748073,14.037952051117452,-3.964567935808269
1698420167622.0,0.01666666753590107,0.007780680471472442,1.2772183228880167,1.678290940105915,0.32231943503115323,-3.8512235924869773,-6.674584731182455,61.247863570635104,11.506738586224088,1.514674276286252
1698420167639.0,0.01666666753590107,0.011057254456728696,0.8680436477571726,0.6619786388546228,0.34506435080263764,-4.37315896987915,-7.619846058654785,45.589576351205416,10.901778486152303,5.337801374101427
1698420167655.0,0.01666666753590107,-0.20794698672425,0.2933218520730734,0.059870239073038095,0.13198040304873138,-5.03740029296875,-8.164376714214683,40.304287178990336,4.542124036269493,13.363133629988425
1698420167672.0,0.01666666753590107,-0.17106645023031158,-0.8619885855019092,-0.3620645489096641,0.09232645631870254,-6.301838629260659,-8.51737182148397,30.605538085882706,-38.27963810898555,21.16375095463471
1698420167688.0,0.01666666753590107,-0.07225697030154987,0.793722274005413,-3.7174084117591377,0.05401922062304802,-4.6740807755619285,-11.857283721923828,-5.247886629433264,-57.3320683081426,16.916344885296212
1698420167704.0,0.01666666753590107,-0.27695697446120904,1.5472978310614824,-6.123570558822155,-0.257077362160082,-3.878457636371255,-14.292485500988363,-27.320838642321043,-10.506508608694496,18.15696849330628
1698420167722.0,0.01666666753590107,-0.5899675513392314,1.8546464549213646,-7.678563620561361,-0.5214870080035878,-3.520523903656006,-15.880589974212645,2.7289068871170374,62.898330972244494,22.842973452649854
1698420167739.0,0.01666666753590107,0.7254018942341208,1.5645990944743156,-5.081231251388788,0.9005191724915057,-3.804387022510171,-13.28572428741455,21.098384336730394,69.97689314123559,29.049853219385582
1698420167755.0,0.01666666753590107,1.3684487458646297,1.7115578344136475,-4.079707353946566,1.6289549545288085,-3.6692636817932125,-12.274173501476644,0.6825779429129861,53.445342330757676,36.45976494048692
1698420167773.0,0.01666666753590107,2.2144383827239276,1.5505121169328688,-3.653744625622034,2.5511716160980984,-3.754557700458169,-11.89469312286377,-45.973306624060484,51.17963880947021,38.970156573695505
1698420167789.0,0.01666666753590107,2.3682627706490456,1.4189999524503945,-3.944947001323104,2.768146031951904,-3.756801679992676,-12.26489597004354,-66.56539806592181,54.520229691010094,36.20587314865921
1698420167805.0,0.01666666753590107,2.3420636227704583,1.4045476487278938,-3.427996426606178,2.811092060763575,-3.625420448413491,-11.833341120800375,-65.27126163331198,55.54918061399959,43.21328523706628
1698420167821.0,0.01666666753590107,1.7541196496807039,1.7871335921406746,-1.8563538433611393,2.3050176483154297,-3.0763997879579663,-10.354173992156982,-48.41539636556894,48.68682808318525,42.547440830733
1698420167839.0,0.01666666753590107,1.324857149158418,1.826012188850343,-0.6556067657351493,1.9267338590759784,-2.9463647102907298,-9.201514945873617,-35.59799314271724,42.203008051267595,39.587776429393905
1698420167855.0,0.01666666753590107,1.1090877617128192,1.6729259059414268,-0.10544716437757015,1.7534533677916972,-3.029862493188679,-8.686761588940024,-31.10344863109288,34.45014911684533,32.50592552431745
1698420167872.0,0.01666666753590107,0.6224206085134297,2.040173118185997,0.6379150417000055,1.31516489944458,-2.5655370087221265,-7.992144416809081,-35.896755862297354,30.19093535797918,26.751996582580286
1698420167890.0,0.01666666753590107,0.13803250616192816,2.3243311283335086,1.4027099119067192,0.8705916517395526,-2.190844448907673,-7.2717889923095695,-42.50492290314967,29.453937455967292,25.818220930580335
1698420167905.0,0.01666666753590107,-0.12983487892001866,2.4012150460496544,1.7360247516721485,0.6365584394592791,-2.014870626886189,-6.986430081939697,-44.6236305082147,24.860922107078856,26.966215220613982
1698420167922.0,0.01666666753590107,-0.5975069704007357,2.442818391548097,2.388945639324188,0.18599954147338865,-1.8439844833925365,-6.396259372711182,-35.0419713480486,9.383511957249448,27.62184166394892
1698420167939.0,0.01666666753590107,-1.0876396808188409,1.9590607691198587,2.6378637015253306,-0.30840310134887694,-2.2263085609987376,-6.196493171691894,-20.341455942720412,-2.135189918749329,25.101240605478463
1698420167955.0,0.01666666753590107,-1.2039504037119448,1.7346096241772173,2.889623709154129,-0.4569932418823242,-2.41619868016988,-5.963806697845459,0.9355542759485068,-7.435156100273705,24.50971207240951
1698420167972.0,0.01666666753590107,-1.66555274682492,1.0854583181917667,3.518548804190755,-0.9762357269287109,-3.1054294830873608,-5.320664276885986,24.109029270034465,-3.75582924392304,29.617739052642538
1698420167990.0,0.01666666753590107,-1.901785807237029,1.4093003962129353,3.597506605571508,-1.2416927629332988,-2.842366575677693,-5.214870491027832,26.120046990003196,4.243728439357268,26.860342165836908
1698420168005.0,0.01666666753590107,-1.8673204969249664,1.170994328919053,3.4603532203316685,-1.2219406723022461,-3.1329628021791573,-5.3276966597408055,16.05001393625555,5.7301820815403195,23.468482176839622
1698420168022.0,0.01666666753590107,-1.2426900303423405,0.5991007423982024,3.0958839483678338,-0.6118681617736816,-3.739743285425007,-5.67605300129354,7.703413487473249,5.027194252726867,15.532321455661727
1698420168039.0,0.01666666753590107,-1.0877131113812326,0.365209276676178,2.7908944548547265,-0.4563946914672851,-3.9935286614015695,-5.971138940429687,10.65392458155088,5.614699804374683,6.625688610507515
1698420168055.0,0.01666666753590107,-0.6936151554815471,0.20674510012120006,2.334258355847001,-0.060902504730224606,-4.183119797626137,-6.412120958709717,16.581622927283277,1.048403835354221,6.5057807976465325
1698420168072.0,0.01666666753590107,-0.14583850373774765,0.21900720032304524,1.2261901464402676,0.46791678695678707,-4.239083969171345,-7.4869672819942235,28.72838353590976,-8.8015824012853,2.7327783237159653
1698420168088.0,0.01666666753590107,-0.2135353813158348,-0.0027840777605772017,0.5482517219096422,0.3736450235228985,-4.531475554656982,-8.130259340557455,33.514669332647465,-15.50249401955628,-3.9786931938986783
1698420168105.0,0.01666666753590107,-0.22608700251616537,0.048695349586009976,0.08810556895434855,0.3226186737060547,-4.551527285821735,-8.555230719757079,30.10186969120221,-24.937457791823434,-7.479903230847397
1698420168121.0,0.01666666753590107,0.17621227041985837,-0.1762853721886873,-1.0035919358879328,0.6575076309204101,-4.849306117303669,-9.611821255382894,19.10853337299953,-27.031112263012858,-9.171875984495664
1698420168139.0,0.01666666753590107,0.39723402543570846,-0.26142507707476614,-2.2882938925296066,0.8325836273193359,-4.95719482961446,-10.886584586334228,1.8743712478861643,-24.927560847716087,-13.411623704227283
1698420168155.0,0.01666666753590107,0.41219131953828037,-0.2527525257974863,-3.4574721119374034,0.8218097198486327,-4.922628543145954,-12.071115857696533,-23.490936423736038,-15.916263464381068,-21.123254763045704
1698420168172.0,0.01666666753590107,-0.1675119178202003,0.810016990724206,-6.4050856532454485,0.2693476867675781,-3.736451258142292,-15.083171183776855,-49.58456082693504,6.323116779804651,-33.883817151624555
1698420168188.0,0.01666666753590107,-0.8440439096190034,1.486575651334226,-8.112856370335816,-0.33099837951660155,-2.9505548554569483,-16.84320809467733,-34.62108826120324,20.09759257614157,-38.41604381689988
1698420168205.0,0.01666666753590107,-1.4937722848400472,1.0579504258021712,-6.113460083696245,-0.879869183172658,-3.3454479072570797,-14.854374703106282,24.980665568512936,-2.5367924487847966,-44.20584832725253
1698420168222.0,0.01666666753590107,-1.7262226118430495,1.0937044607505202,-4.543498000884056,-1.110011671624705,-3.38031376119405,-13.24831430195272,54.49937370837946,-44.09159292281656,-49.436939948403555
1698420168238.0,0.01666666753590107,-1.8431717057049273,1.1863438737422227,-3.238401490989327,-1.313818087945506,-3.3735800690248605,-11.904269344982504,47.37825263067001,-79.51155035462824,-52.761582338231456
1698420168254.0,0.01666666753590107,-1.7511767280966042,1.6939949974551796,-3.2354812196284533,-1.3513771630218252,-2.930203849084675,-11.874192186626791,17.38718226818375,-83.94943844708735,-47.61248030787726
1698420168272.0,0.01666666753590107,-1.6202353492394088,2.226347139443457,-3.4663293721318245,-1.3477858605315909,-2.380136017663777,-12.119448219189048,-18.093306007599885,-46.53118623018337,-49.10836686819092
1698420168289.0,0.01666666753590107,-1.8321002765923737,2.248076156170666,-2.5766929012477395,-1.5738882250136694,-2.2933462074831126,-11.264569173431395,-30.16463912967463,-17.970150866675386,-47.97679235292198
1698420168305.0,0.01666666753590107,-1.6755438333548605,2.346179387526214,-1.9256442372083662,-1.384147853044141,-2.1206641204833985,-10.651054413494467,-28.895504604521633,-2.1781799831590356,-45.11057518471242
1698420168322.0,0.01666666753590107,-0.8639024562992155,1.986699594412744,-0.09720832834243774,-0.4972457938263192,-2.3982418754577637,-8.86123903492391,-18.805829634268324,5.454303057000689,-45.7620693635995
1698420168338.0,0.01666666753590107,-0.19034155273307113,1.6148904810801148,1.4037281490385531,0.2419640418121591,-2.723255335345864,-7.380575530242919,-14.315250047457155,6.211038071279796,-49.229278291973074
1698420168355.0,0.01666666753590107,0.5003234111733734,1.3623916377827525,1.9566110378801822,1.0217256315369159,-2.9210759552553296,-6.8496613121032714,-12.749874850075075,5.404873404864129,-44.59412750609483
1698420168372.0,0.01666666753590107,0.9169397806122899,1.5917422452047467,2.074133255454898,1.4870984696319325,-2.653822902679443,-6.747458244213462,-11.24128840677342,-0.42008945088031197,-35.85082967031819
1698420168388.0,0.01666666753590107,1.3015310724981128,1.2838468011170625,2.5696149256855247,1.8915689856598152,-2.9179335655763743,-6.271611248779297,-6.817811159689396,-6.877898895138936,-28.796784465352854
1698420168405.0,0.01666666753590107,1.570804963377118,1.1147782284393906,2.967777208414674,2.159270695318654,-3.0473700928285714,-5.8922799232482905,2.3187068564638165,-8.993336547138822,-19.09190015482326
1698420168422.0,0.01666666753590107,1.5708172383368015,1.1795441305994987,3.0915526411652565,2.156876603256352,-2.990208235931396,-5.76508796005249,9.777281754410792,-6.401080827859407,-12.735452051868947
1698420168438.0,0.01666666753590107,1.4141088194079696,1.4188652201548217,3.2169027758866546,1.9985598723480478,-2.776227047076821,-5.6278696928828955,17.586890169325752,-2.1589374192764055,-0.21870404460598344
1698420168455.0,0.01666666753590107,0.663327569245547,1.1976385902166367,3.2976877926945685,1.24887551404424,-3.045275166375935,-5.524171417999267,23.84898347776457,1.6095023815668876,-0.5717099921402218
1698420168472.0,0.01666666753590107,1.3167039455801248,1.5895651934266088,3.029985535046458,1.9075802457947282,-2.729240254974365,-5.754612743267416,28.04343679801525,-0.037633621955256234,-6.800944007534049
1698420168488.0,0.01666666753590107,1.6348383134789763,1.028519164134562,3.343705447503924,2.241571340853907,-3.358765946252644,-5.405808073425293,33.78732023903061,4.265695608388499,-8.064707442678474
1698420168505.0,0.01666666753590107,1.3405652981609106,1.2142583011060952,3.209627231925726,1.9554642789978534,-3.2498297707155346,-5.500379039001465,34.485027477842,-1.7765996512383704,-3.2622005869922286
1698420168521.0,0.01666666753590107,0.1266947542633861,0.7999260970816016,3.4626439616173506,0.7357681707520037,-3.767426242120564,-5.194070864105225,33.65261183312504,-3.328442109440539,1.9867319151576937
1698420168539.0,0.01666666753590107,-0.11930486320778727,0.5080211260691285,2.70851077067852,0.48931500082705165,-4.144513003595173,-5.902754555511474,23.026801163971577,0.6518035651121417,-4.626914858399677
1698420168554.0,0.01666666753590107,-0.22453400092050432,-0.18252163622975348,1.5044547146350145,0.39459443417973816,-4.875941610772908,-7.083843577465415,15.203253186734267,3.0619428556220396,-7.0767457655586945
1698420168572.0,0.01666666753590107,-0.08617248199991881,-0.2521051678046584,1.0208236411958933,0.5535095693726092,-4.9730567078739405,-7.550862538799643,11.212030437690023,7.948181000343472,-4.426389468991388
1698420168588.0,0.01666666753590107,0.2164145534813404,-0.24043431149423122,0.22166823622584342,0.8809167194642126,-4.985476336725056,-8.334814529418944,12.06838418790059,9.742324846238667,-3.617536269363676
1698420168605.0,0.01666666753590107,0.2842778371348977,-0.6728706197470427,0.23848493099212645,0.9660603698730468,-5.446809069116413,-8.300546933636069,13.778821504196339,1.6880490234135055,2.820629497481139
1698420168622.0,0.01666666753590107,0.24312829981856046,-1.5416162782937288,0.37615854071378707,0.8702923034667969,-6.326229266412556,-8.161085271453857,-14.81620344194257,-34.70212162551628,4.551218860036188
1698420168638.0,0.01666666753590107,0.8017955442152916,-0.8879086241781711,-2.8928415021568537,1.2958617216248065,-5.555595607049763,-11.503241151428222,-60.35340248749774,-43.49547108753077,3.235836697126214
1698420168655.0,0.01666666753590107,0.26536406049150973,-0.13502017260342836,-6.197769767498969,0.6763620055267587,-4.648193470111489,-14.89447816543579,-72.288755080934,-23.62729090523159,4.340595035940035
1698420168672.0,0.01666666753590107,0.059346653590351336,0.24044454062730072,-7.1341329182446,0.445770494665578,-4.120421349389851,-15.90932039413452,-57.42965805100374,8.108489809031902,2.8765529519710875
1698420168689.0,0.01666666753590107,-0.6301850319698452,0.7645633995383977,-6.216355225503444,-0.16475092867426575,-3.4712931320190425,-15.048754534912108,-26.730334637627593,41.14272363546067,2.947392258947875
1698420168705.0,0.01666666753590107,0.2713669541681185,1.0196747634217143,-4.522138986513018,0.8349778655121103,-3.1563059761047363,-13.377301916393638,-26.485492846450146,48.61847838016093,10.122303637692108
1698420168722.0,0.01666666753590107,0.8204840972680598,0.85191610429883,-4.232157092517614,1.4918869825500993,-3.2519249894291162,-13.11349082096517,-36.66644987986609,59.16624730785782,18.43730848514758
1698420168738.0,0.01666666753590107,1.872742375843227,0.4530895124420523,-3.3372710305422544,2.6774657171387224,-3.5531451935365794,-12.25202772064209,-43.55762922407247,74.66121445894875,25.1638922231877
1698420168754.0,0.01666666753590107,2.582117848905921,0.04751870702207088,-2.3596587545633314,3.58397017458491,-3.8162081009462474,-11.317241609954833,-31.233375904579447,68.8691525710754,36.51447817083331
1698420168772.0,0.01666666753590107,2.6807939117133617,-0.10742986262738705,-1.5861930866450071,3.7758055826049297,-3.924096813257038,-10.55304236755371,-13.738256156941988,43.086670605327164,45.84584163376971
1698420168788.0,0.01666666753590107,3.0317563441112636,-0.0017126491367816924,-1.28526894287467,4.13463670255132,-3.8009450653627512,-10.258555563354491,-7.508436346105126,4.00856929510196,55.28777902917945
1698420168805.0,0.01666666753590107,2.5033108541727063,0.11176146209090948,-0.5714233386605978,3.5377320819579063,-3.681085344751179,-9.555558100891112,-7.018705806199688,-15.8939577740991,53.53353714841546
1698420168822.0,0.01666666753590107,2.2806603289112446,0.22374767284840344,-0.21260405528247356,3.2184055085998025,-3.5676600411012767,-9.207949947357177,-3.0649925350864504,-21.32831924004429,50.95095041567985
1698420168838.0,0.01666666753590107,1.5380208841502665,0.886851224079728,0.9320973099946975,2.347514800848439,-2.9234701569154855,-8.067711406707764,8.571697870616534,-16.726004588600883,53.52980103493947
1698420168854.0,0.01666666753590107,0.6389760950602591,1.603119963787496,2.523015671595931,1.3654431343078612,-2.247108187921345,-6.466888321685791,19.475550172955582,-9.160543846888967,57.21119786549547
1698420168872.0,0.01666666753590107,0.36988632857650516,1.9176076457470654,3.208859754684567,1.0292073655944316,-1.9922750564575193,-5.7604486098140475,24.851004672404,0.2200696822335893,59.31599920541036
1698420168888.0,0.01666666753590107,0.04174655336141586,2.124915640448034,4.248167731598019,0.6528689017364755,-1.857751142938435,-4.69248561630249,20.999887886256932,15.234038556870807,60.887113469242536
1698420168905.0,0.01666666753590107,-0.08542411131802946,1.9706562221065163,4.772450548899173,0.5063736511230469,-2.0633535027652976,-4.146458000183105,17.858668519042435,19.023161131016252,59.091429415689504
1698420168922.0,0.01666666753590107,-0.038827414511702955,1.8712036219686268,4.886753219905495,0.5315127685546874,-2.2141879150941968,-4.010138143157959,20.424038052427743,13.02054841669351,55.04704559678776
1698420168938.0,0.01666666753590107,0.18924246891736984,1.4533666246935724,4.984922502234578,0.7025485496520996,-2.7154741799503563,-3.876661400604248,27.817606838392535,-0.8715112206392939,52.80119743541753
1698420168954.0,0.01666666753590107,-0.10564714392907917,1.0334919841110706,4.792829904583097,0.3359364204406738,-3.211672474017739,-4.036324723815918,33.13904990943178,-11.88936151465997,52.2124419591516
1698420168972.0,0.01666666753590107,-0.20502536365650592,0.8109183234781027,4.553308616280556,0.14125789794921875,-3.5203748505741355,-4.238185851287842,36.69124346655324,-19.410738507921334,51.243303002723906
1698420168988.0,0.01666666753590107,-0.5574677324138582,-0.16726649169176816,3.9520658934175965,-0.34132339244233445,-4.610933706775308,-4.787355857086181,32.089830400080274,-20.536435645409473,36.04503926917833
1698420169005.0,0.01666666753590107,-0.5765156568309292,-0.8627399883911013,2.9371517685264346,-0.4342483443771489,-5.3652562828063965,-5.773616718944907,17.294423176613098,-18.153654144011533,16.133784498878466
1698420169022.0,0.01666666753590107,-0.6901327201932669,-1.2854878463223576,2.2217636110454797,-0.589272865339648,-5.80638823095113,-6.48005643081665,-1.1780835144833757,-6.795093950509933,5.95054703605338
1698420169038.0,0.01666666753590107,-0.38152331914994864,-0.7002054936572909,-0.09299743264913558,-0.2946364692024421,-5.180005221612751,-8.81619811619222,-24.774499723510687,-1.9902573599864781,-2.717233880382074
1698420169055.0,0.01666666753590107,0.2480486224228516,-0.951731108008325,-2.253813530778885,0.3458124657562002,-5.360767446954548,-11.01287872390747,-36.45968297821688,2.387660604342857,-10.237486240307911
1698420169071.0,0.01666666753590107,0.5319703030638396,-0.9277692176625132,-3.453616021031141,0.6503250350730959,-5.247192505700886,-12.256965761566162,-39.59928188305079,3.125059353081658,-13.761947521851823
1698420169088.0,0.01666666753590107,0.5062752322498709,-0.7633832498431206,-4.392635239243507,0.6590040160911623,-4.9730567078739405,-13.248464524078368,-28.612538404944466,4.999200295526746,-10.715086364247407
1698420169105.0,0.01666666753590107,0.43233083858434107,-0.8521203946992755,-4.200198358199,0.5998971534729004,-5.017498783929645,-13.076679970440267,-8.879840147474367,-2.897619603248934,-10.270872204970933
1698420169122.0,0.01666666753590107,-0.192891584275756,-1.5791045896887779,-3.582196808236837,-0.03441664886474609,-5.733664355523884,-12.463913983044028,-3.2156334244481393,-19.203764993049727,-17.146122694259198
1698420169139.0,0.01666666753590107,-0.9329797188524156,-1.415041862474382,-3.6432787611871955,-0.8313865356224123,-5.534795687866211,-12.542025396728516,-19.558390122304083,-34.45123170182878,-27.68963982919776
1698420169154.0,0.01666666753590107,-0.6518606380093842,-0.2198258232295513,-5.241737455165386,-0.5864297645679442,-4.2836759750917555,-14.166491223144531,-25.03105870420929,-22.92841570407213,-32.695849179473406
1698420169172.0,0.01666666753590107,-0.8416732349649071,0.06435936718583106,-5.867023316916823,-0.7733271544967778,-3.955670347650349,-14.81157893295288,-6.644431930250499,-8.4573084237181,-34.75598108221641
1698420169188.0,0.01666666753590107,-1.8303161696545778,0.856211171144247,-5.30450575376749,-1.7616835364631842,-3.225438841302693,-14.221108948516845,50.45247979495773,-29.154822981644923,-33.00201240901923
1698420169204.0,0.01666666753590107,-2.9936820495218037,1.1848290852651,-2.745878086042404,-2.982127653489675,-3.0473700928285714,-11.592274941143392,88.0411520618427,-53.10925945755261,-29.90386933735271
1698420169222.0,0.01666666753590107,-3.1061779633671045,1.4645882759317754,-1.5983955656141042,-3.227683076565526,-2.982876285608113,-10.337713271221517,96.59740516719854,-89.55279586857158,-20.066412762580462
1698420169239.0,0.01666666753590107,-2.809215124443173,1.362483992241323,-1.1223036555081605,-3.215861705868505,-3.3119293762758373,-9.733626849365233,46.6743333348085,-119.49081273667977,-35.505970004029656
1698420169254.0,0.01666666753590107,-3.1992958075255156,0.8623942436933517,-2.2484388520032166,-3.7943607550689946,-3.8521208335876462,-10.826878597912192,-12.409787778469092,-92.50946181686504,-61.52165170351506
1698420169272.0,0.01666666753590107,-3.653028294046223,0.9553431610256433,-2.609953950336575,-4.297143140234425,-3.689165775354206,-11.222969335064292,-55.166970058234845,-27.26020022286967,-71.88827376913946
1698420169288.0,0.01666666753590107,-3.5166970388442276,2.487471480005979,-3.7853625885665414,-4.037671498782374,-1.9740195610597728,-12.502820344543457,-65.93630349241778,22.107896541342036,-77.60085957583054
1698420169307.0,0.01666666753590107,-2.0413459613576532,2.0618676481217144,-2.7570962301492687,-2.415150815084763,-2.2783824471071363,-11.543044754028319,-43.38151279632369,25.152390184625396,-82.38931395762972
1698420169321.0,0.01666666753590107,-1.314823830921948,1.7071262817069888,-1.8411217874377965,-1.547552134616114,-2.579752873340249,-10.658087965393065,-7.751033566366577,20.26899788091033,-73.09626785593709
1698420169338.0,0.01666666753590107,0.015472111756913364,1.7684668855935335,0.28528818322122096,-0.0686836235931143,-2.5507228859499094,-8.518568922314047,22.719121632430014,16.57749237038271,-55.57882363499744
1698420169354.0,0.01666666753590107,0.8584137226898223,1.7449597532778978,2.0746143169701097,0.8717887206035898,-2.6322750877380368,-6.700920949444174,26.84318131554725,20.91579630474303,-43.42318378044994
1698420169372.0,0.01666666753590107,1.0557660675004124,1.686812392474711,2.8144460108339784,1.1659762724281755,-2.7467481468752024,-5.932083525848388,23.27040327581467,23.31895226043512,-37.27051864025119
1698420169389.0,0.01666666753590107,1.1688080709211528,1.4863199230074882,4.007956122943758,1.3965678106888197,-3.004274462945759,-4.707150101470947,18.325435109184646,19.206872729122082,-32.43430757577528
1698420169405.0,0.01666666753590107,1.326206664071232,1.3517907487913965,4.54759374576509,1.6270097387451679,-3.1679777091979977,-4.150198940277099,19.49625759897177,15.985451573126005,-31.841959420005924
1698420169422.0,0.01666666753590107,1.2311392932802439,1.4498007489055393,4.7728462702184915,1.5990274337768553,-3.1150062897279858,-3.8988077659606932,24.195511417757874,10.840979557255435,-29.68895743511826
1698420169438.0,0.01666666753590107,1.3612271240480243,1.8649562520116567,4.707607782110571,1.788917552947998,-2.7801170402526854,-3.9185593451350926,33.19871502692643,2.2076112682926206,-22.03605831919913
1698420169455.0,0.01666666753590107,1.3992543646253646,2.080995542439818,4.459449598366022,1.8492216168610378,-2.6458924019411203,-4.121019023022056,42.342811778294006,-2.6784941146268197,-15.185235147703773
1698420169472.0,0.01666666753590107,1.285478640102595,2.153287456190586,4.247094549408555,1.7401357671875506,-2.673126445825398,-4.27754054107666,46.97801379059102,-6.890369539902911,-12.026747354720191
1698420169488.0,0.01666666753590107,0.651482087020576,1.8031214348673819,3.87309523255527,1.1174936614105477,-3.1462808411747214,-4.580107191357016,34.54437157644566,4.894934042751916,-7.523938314200116
1698420169504.0,0.01666666753590107,-0.06100348088666796,1.4205705627679823,3.218204506134987,0.43469731198735534,-3.5836709724426266,-5.200954193878173,16.787232111868168,16.56842700180681,0.1869992136132834
1698420169521.0,0.01666666753590107,-0.24678521489091215,1.3169377543359995,3.208173525986075,0.28700503360908475,-3.7147535133361815,-5.192275212860107,10.37000727813179,14.759485551074784,-4.686366105595938
1698420169538.0,0.01666666753590107,-0.42622901457790285,0.46434126655757424,3.584924187374115,0.1458967367310077,-4.593575160217285,-4.797231938934326,7.42264575503518,4.104623526060319,-7.7337267207834115
1698420169555.0,0.01666666753590107,-0.48687853092774747,0.3983990140944719,2.9335341625511644,0.10339965726323425,-4.6639048339843745,-5.444713265880942,-2.7369842261408124,1.5529379565120156,-11.307687237016053
1698420169572.0,0.01666666753590107,-0.8391666589714586,-0.030101708275079724,1.815049773070216,-0.22729944704584776,-5.061641584777831,-6.580163403210044,-12.810832580870146,-3.6036667164803187,-15.667468701221477
1698420169588.0,0.01666666753590107,-0.6937598246492445,0.10453998640477656,1.9292700264900922,-0.08259992074277252,-4.898686818805337,-6.4828995452880855,-12.336278721300475,-12.047851785481885,-7.341001088791433
1698420169605.0,0.01666666753590107,-0.30053236797377464,0.2995996171683073,1.6879519178986548,0.26560685627143826,-4.662558095550537,-6.751648681640624,-27.423023394946313,-33.05550986569335,4.822710341807732
1698420169622.0,0.01666666753590107,0.760741503162682,0.2111617475196719,-0.2591670690149069,1.1475707832336426,-4.617068264007568,-8.786120957836507,-64.16478464814826,-73.74187099666503,15.45270364805418
1698420169638.0,0.01666666753590107,0.7816472208082675,0.13476707462519408,-1.2830173645555973,0.968005750053469,-4.528782370050251,-9.9078050201416,-81.83476406872721,-82.34060787865836,19.982357039559698
1698420169655.0,0.01666666753590107,-0.19548921781983225,1.0748039454475045,-2.909351907452941,-0.21637594307058025,-3.3976717232301827,-11.636717309460042,-84.9509081039513,-77.97244918743591,22.50256877724747
1698420169672.0,0.01666666753590107,-0.8192799091100692,1.8588819005340336,-3.4371932940185066,-1.094898328443896,-2.3880668106630445,-12.272228797149657,-55.5706342381826,-60.95712290823517,28.311764194653787
1698420169688.0,0.01666666753590107,-0.4417860281392932,1.778468055126071,-2.825474769848585,-0.8779238212585448,-2.367716388812661,-11.70180966709554,-32.79863328119835,-52.20659531722207,29.976641587864613
1698420169705.0,0.01666666753590107,1.5396917399719356,1.128462762659788,-2.011139915925264,0.9439140775818378,-2.9255650833681224,-10.920701959991455,-48.608127228473776,-57.40646955877155,32.70408980270703
1698420169722.0,0.01666666753590107,2.7785651346355675,0.7333209967955947,-2.672258138558268,1.9442416048463433,-3.0787934050962327,-11.669039031872153,-99.93853563368285,-63.15353416039285,41.298503174955734
1698420169738.0,0.01666666753590107,3.3186189370423556,0.6111778414219617,-3.5097219391345975,2.2912511349000035,-2.931550587518513,-12.59619420928955,-112.23413289451308,-62.01325456902673,53.842039717752016
1698420169755.0,0.01666666753590107,2.8700343348041173,0.9354211937204002,-5.734493499824405,1.6406265414915977,-2.3488617584779856,-14.892682514190673,-83.43131395702852,-58.97335593550749,73.53639158567437
1698420169772.0,0.01666666753590107,2.242961443505436,1.1797910910978913,-6.985489586219191,0.7374142574585973,-1.882141780090332,-16.179415684399007,-33.85933775363923,-54.835856147650965,98.74875766140165
1698420169788.0,0.01666666753590107,2.2250642600260675,0.9891241423353552,-7.746575665035843,0.5175964714050293,-1.9645923920229076,-16.940622759246825,-21.470013221923498,-43.124315192937694,109.14213357800499
1698420169805.0,0.01666666753590107,1.5762629365220664,0.14263561604321,-8.094249285021423,-0.2902969512939453,-2.7172695389345285,-17.287033227428793,-11.437253364250255,-17.78023062661401,111.69672678042731
1698420169822.0,0.01666666753590107,0.9222346721500158,-0.26432138303816316,-6.699905050399899,-1.0549451065063475,-3.0443773407533765,-15.894057358551024,8.832031384605218,11.779805280372965,105.3030959814051
1698420169839.0,0.01666666753590107,0.7021513670280576,-0.3826671919554472,-5.690012553063035,-1.301098964691162,-3.1440359848573802,-14.884152586254476,22.91048816504814,25.57700426230487,98.8207888363886
1698420169854.0,0.01666666753590107,0.3537064704090357,-0.5480918551728129,-3.3252842401504514,-1.6377834270201623,-3.322403716278076,-12.518082795605062,39.5264618212147,34.45048379611466,90.92722800506408
1698420169872.0,0.01666666753590107,0.3410493795402348,-0.3893897782087326,-0.6727677438944578,-1.6208745239257811,-3.2668884575441477,-9.840168823242188,63.65187159242615,33.307530185688485,84.08881528729063
1698420169888.0,0.01666666753590107,0.3612614158332348,-0.1442968272536993,0.48084115045964715,-1.5939397552490233,-3.148525112970173,-8.647257261547447,78.64702599062305,25.59639687690583,84.27120182869749
1698420169906.0,0.01666666753590107,0.4079566776432097,0.3086857176825404,2.4392145218372345,-1.5685015087403356,-2.904615818841755,-6.612784985351562,89.78427097954331,18.237180527371617,84.41213595203152
1698420169922.0,0.01666666753590107,0.33084903417378664,0.6170873577266931,3.711408294561505,-1.6727989185608922,-2.7612629944398996,-5.2742766197204585,89.5124977524685,16.49120829814523,80.81741422204298
1698420169938.0,0.01666666753590107,0.27687399061918255,0.8364891103252768,4.069028723543882,-1.7510593853272496,-2.6982658555179833,-4.850802201080322,84.27745828197722,18.428729767550042,74.67143242194709
1698420169955.0,0.01666666753590107,0.13781141075715422,1.105280916775763,4.533040904277563,-1.9065327095031737,-2.6240453117921945,-4.30342726200521,75.49466146223038,26.16160527600814,63.66955495218731
1698420169972.0,0.01666666753590107,0.06961494962647558,1.18671241479367,4.590609880670905,-1.9660884757995605,-2.678214416614175,-4.189403992462158,70.76496036767166,30.95308884670422,54.003286823677676
1698420169988.0,0.01666666753590107,-0.08007482271194458,1.3160221007958053,4.566244670221209,-2.0922328296385704,-2.6789620201110838,-4.160822625622153,66.20588422876902,33.19798078159065,44.4510043071318
1698420170005.0,0.01666666753590107,-0.2675274856030941,1.5003125002637505,4.443085908064246,-2.2340894241333005,-2.6586118905216454,-4.217535861968994,59.584186583170904,31.016531058809882,31.68223886135976
1698420170022.0,0.01666666753590107,-0.32151275829076764,1.4869076597675681,4.111948412337899,-2.2530932536803183,-2.785354356384277,-4.50124817417562,53.247594693907466,25.908744842745097,22.348073313316362
1698420170039.0,0.01666666753590107,-0.42973216386064883,1.5186422299414872,3.8447365685552355,-2.3291091563902793,-2.8552354096010326,-4.72450747898519,44.40651245487834,19.04786934033877,9.932035911756708
1698420170055.0,0.01666666753590107,-0.6225076292097568,1.4594745861798524,3.1493384751796722,-2.480991470336914,-3.024774814660847,-5.371690115246176,29.607131768861507,7.968540086711988,-10.606441960214598
1698420170072.0,0.01666666753590107,-0.8882078993856907,1.4437623455241322,2.606500595012307,-2.7172693928040563,-3.100641079767048,-5.888987311443686,16.74861422230092,-1.08336191746511,-25.024044099931686
1698420170088.0,0.01666666753590107,-1.0139186841130257,1.492232361921668,2.3458891724079844,-2.8194718761719764,-3.0873233330324292,-6.135740304565429,0.5221393606303254,-12.64050303089566,-39.41925175690759
1698420170106.0,0.01666666753590107,-0.9405873443119227,1.5198144885912537,1.8176818751394748,-2.71951381072998,-3.0434795151308176,-6.678326255798339,-34.5015872714847,-18.463241005878825,-57.70210063661721
1698420170122.0,0.01666666753590107,-0.9388801020026206,1.4301365557536483,0.7056658048897981,-2.6723781116761267,-3.0473698005676266,-7.845200289916992,-70.04723042930837,-7.157226738322601,-69.99214495365223
1698420170138.0,0.01666666753590107,-1.1467645814172922,1.5849556538045406,0.09789338799715042,-2.798372974041849,-2.71936475764811,-8.557475283813476,-114.8843009339914,0.19903859596419446,-81.6841652277176
1698420170155.0,0.01666666753590107,-1.3046823761358857,1.7774430959925054,-2.275575865253806,-2.837428242492676,-2.1395187508180737,-11.13438387363851,-166.36675618031413,-8.515429918460324,-99.99163352429053
1698420170172.0,0.01666666753590107,-1.4742306951545179,1.6539353742673992,-5.3850008477181195,-2.9296051525391635,-1.9051865555912255,-14.406359717449545,-169.8124909939372,-13.224319426618024,-112.21076681736247
1698420170188.0,0.01666666753590107,-1.5185067669935524,1.6431386704429982,-6.6872589193165295,-2.896385458374023,-1.5906480202272533,-15.842282747650145,-134.907451278369,-3.723053300530264,-114.65401427593524
1698420170205.0,0.01666666753590107,-1.697727023590356,2.3002099557727576,-7.557884984782338,-2.9348421764098105,-0.6709753075197339,-16.821361004528402,-57.81831630534498,17.83975572523067,-86.55190444540229
1698420170222.0,0.01666666753590107,-1.8999502623729407,3.001600275300443,-6.5529597544640295,-3.052008639349416,0.09397212290018796,-15.847519479259848,-15.76164164195032,4.148473340531801,-50.654854884970625
1698420170238.0,0.01666666753590107,-1.8376241545803844,2.9215254525884986,-5.8832309398740525,-2.9912556991577146,0.019153321020305154,-15.179238525390623,-1.4327506395035918,-28.863044130491147,-26.300083946335562
1698420170254.0,0.01666666753590107,-1.9341599904887377,2.106837839704752,-4.9202439860969776,-3.2022447204589843,-0.786346192279458,-14.204199899291991,-13.46379268910784,-49.0061496721671,-28.416935447493643
1698420170272.0,0.01666666753590107,-2.378291997232288,1.6266668435916303,-3.9315637881368395,-3.719092857714742,-1.2256816123962402,-13.217937868389486,-28.460725497809886,-29.971740927135126,-44.34677220530282
1698420170288.0,0.01666666753590107,-2.5114792553201317,1.6457406696349381,-3.326359760427475,-3.850026053265482,-1.1393410072878003,-12.633453388103842,-39.923094321411924,0.39045854279606285,-59.33019916869481
1698420170304.0,0.01666666753590107,-2.1930071798995137,1.5782254687666892,-1.5965800406247377,-3.4205659843444822,-1.0875663963869213,-10.953771870422363,-44.57480148583828,27.241143995085334,-66.77022860894132
1698420170322.0,0.01666666753590107,-1.213662088778615,1.1547861214399338,0.7330681910783052,-2.3268647384643555,-1.4176669502809642,-8.664466170501708,-34.683184926042415,30.87526908639568,-63.65148227164346
1698420170338.0,0.01666666753590107,-0.7524323053050785,0.9952239205151796,1.9661510196417569,-1.757493583093211,-1.5240592865541576,-7.457937586864829,-17.405365939301614,24.416881263852574,-56.49547600274818
1698420170355.0,0.01666666753590107,0.09376271793320774,0.6921048970490694,4.046039477622509,-0.8183680549621581,-1.81630152669698,-5.390395400238037,0.7635313726683871,4.767828064279387,-44.987061458856495
1698420170372.0,0.01666666753590107,0.6482951275475323,0.3658700786724686,5.238199928689003,-0.24465748214721678,-2.15448251119405,-4.196885872650146,0.23713149478028117,-11.031478655848968,-41.49246005681658
1698420170388.0,0.01666666753590107,0.9112316320985555,0.09339256944656371,5.503648854452371,0.003890577697753906,-2.4235309227541086,-3.930979266247153,-11.789785040524,-21.948345029877828,-42.32112592767921
1698420170405.0,0.01666666753590107,1.3412158710241318,-0.44836599105149505,5.376133650651574,0.3939958106994629,-2.9050647316530345,-4.070442097473144,-31.963758768380178,-22.110295645288,-44.427826060183364
1698420170422.0,0.01666666753590107,1.586918478310108,-0.598609159488976,4.8029245976179835,0.6217443897522985,-2.97659136011973,-4.6619589606136085,-38.8763849065804,-14.620395578816645,-43.64866540042499
1698420170438.0,0.01666666753590107,1.6949335934795438,-0.6954203052073716,4.4717157902210944,0.7266403499878943,-2.987963671875,-5.013906604656577,-37.61551491032312,-9.096877946087986,-39.61218069529836
1698420170455.0,0.01666666753590107,1.8133853469893335,-0.8255819318637251,3.751427585738897,0.8453027505736798,-3.017143296869099,-5.758054992675781,-30.208724585672474,-8.38212597020283,-32.85775881374856
1698420170472.0,0.01666666753590107,2.063526521244645,-1.1021868962831796,2.8893764563947912,1.0908582044739275,-3.23366890950948,-6.63328533706665,-23.927283058862304,-9.169383819222256,-27.334005539493536
1698420170488.0,0.01666666753590107,2.1517983866766093,-1.247767187476158,2.5048031385570764,1.1692683819092808,-3.334823783520609,-7.026682012829184,-16.31170751166271,-8.564837799368902,-20.301690581372597
1698420170505.0,0.01666666753590107,2.191648751027882,-1.3649229098260403,1.9091829317510127,1.2021884355407209,-3.4228108406618234,-7.627925904735922,-4.383519786665803,-1.560913376306769,-11.989408418075024
1698420170522.0,0.01666666753590107,2.0968439766958356,-1.5257275120273233,1.3315017017394304,1.1195886243958026,-3.5842698151186108,-8.206724740600585,2.563928790357257,8.194014876497864,-6.365003341776577
1698420170538.0,0.01666666753590107,2.022428641050309,-1.6183457361005247,1.0954898828625679,1.0842740768432617,-3.6882680958621203,-8.444199617767334,5.953522437210567,20.941778344345757,-2.2140260965837317
1698420170555.0,0.01666666753590107,1.6792638767912982,-1.6075880491122603,0.8268751865446567,0.8168716789245605,-3.6966476555421948,-8.715791868591308,4.961899351808837,22.097892021755257,13.3369227790485
1698420170571.0,0.01666666753590107,1.140309267798066,-2.2166443683356047,-0.2531283733725548,0.3119944038391113,-4.317045306860655,-9.796324420818685,9.100918002982048,12.429269185529261,19.19011144489887
1698420170588.0,0.01666666753590107,1.127352317199856,-2.2363233206652104,-0.5636848533630371,0.30705643598027527,-4.367772308404743,-10.100687891387938,18.697516494410262,2.4673902562980623,16.678512575754493
1698420170604.0,0.01666666753590107,0.9331083867333829,-2.646114812520146,-1.7124761183023451,0.08349778289794921,-4.8362876457765696,-11.233594189453123,15.491811603694382,-16.428153699274965,18.007086822159522
1698420170622.0,0.01666666753590107,0.36772790843360126,-2.6007646817088124,-4.507797157427668,-0.5660789819579571,-4.805761428479105,-14.017601222881673,-0.4114321861073208,-42.944483142280426,15.304449269477177
1698420170638.0,0.01666666753590107,0.08600603939183056,-2.6068057154387234,-6.147255970314145,-0.9777321029663085,-4.795586217553914,-15.647155312347412,-7.939810603515621,-52.57931874022966,7.3101926667664445
1698420170655.0,0.01666666753590107,-0.5496123427383601,-2.0174968837365506,-8.57488760638535,-1.75165771654658,-4.196586889703571,-18.060510001263022,6.105899261838497,-22.44189620685024,-7.653927059389214
1698420170672.0,0.01666666753590107,-1.1351717587791383,-0.46565775598362086,-9.22573577941656,-2.325817275238037,-2.689287453161925,-18.702455321392417,28.877134810748885,29.373583695476675,-5.870235964245078
1698420170688.0,0.01666666753590107,-1.3924743490964173,0.27903160704448815,-8.590285082003474,-2.457198945208639,-2.0416556118287144,-18.058714350017905,48.97569385865801,68.05730262594935,12.653603333723744
1698420170705.0,0.01666666753590107,-0.5044884949635714,0.6386740433737635,-6.208788589641451,-1.3679869735717773,-1.8616417206361888,-15.651943715667723,64.7904368063106,57.18906805258463,37.11111227030685
1698420170721.0,0.01666666753590107,0.8956603342834859,0.0625152006238699,-4.089788018456101,0.10459668502807616,-2.5897783005312083,-13.497760187420248,70.19090345849959,21.659378509114806,42.32118056919257
1698420170738.0,0.01666666753590107,1.2426252945430576,0.13508008609712124,-3.5592438026726243,0.4329016607422381,-2.675969560296833,-12.919410848888754,65.28201918125475,-10.97501860462235,39.335202864076
1698420170755.0,0.01666666753590107,1.1966448299389332,0.7319120067805052,-3.651947220811248,0.28610717145390807,-2.254141155298054,-12.94844054401815,51.20826754737632,-21.162743501732134,38.81778871369086
1698420170772.0,0.01666666753590107,0.8628509014196694,1.3361185478851199,-4.041608801698684,-0.12060776249989867,-1.7618331466674804,-13.293953771099448,51.99220933955371,-11.223757018721289,43.43233964903234
1698420170789.0,0.01666666753590107,0.8764815865609794,1.6631550380334257,-3.9026697020858525,-0.1592144104003906,-1.5581766602113842,-13.107056404003501,61.96676830153562,-0.8560540756607319,50.68436130218508
1698420170805.0,0.01666666753590107,0.8206688061852008,1.996350635333359,-3.177334151086211,-0.27039514999389647,-1.4275430321291087,-12.301857042694092,77.49164485100204,4.826963415226534,58.4515568036752
1698420170822.0,0.01666666753590107,0.7107545793961734,2.1621938162237404,-1.850807899671793,-0.42152905672602353,-1.4365212883546947,-10.902745447540283,84.0379850194874,5.83769053973679,59.967961252255584
1698420170839.0,0.01666666753590107,0.6018908115081488,2.382630757088959,-1.1249965478539465,-0.5738602834839374,-1.3982143540531395,-10.096797313690185,85.10800928505077,5.44550278514195,57.81882173934356
1698420170855.0,0.01666666753590107,0.35960078914463517,2.720946766142547,0.35860768645405766,-0.8710406376160681,-1.2996025886535645,-8.500911685070395,84.34024821101714,7.380989285060919,50.43552043524859
1698420170872.0,0.01666666753590107,0.21359452762454748,2.9501755007505417,1.6114315727978943,-1.0449195331849157,-1.247379357202351,-7.161655715942382,82.87236542630053,12.468049292089301,43.74231753922962
1698420170889.0,0.01666666753590107,0.16269874538481235,3.2582617912352085,2.51703016744554,-1.1053728328429162,-1.167023671722412,-6.14202449940145,78.51825643420081,19.967079613933674,35.671284487606066
1698420170905.0,0.01666666753590107,0.11766308735013008,3.4177602792739865,2.841146386232972,-1.139639990234375,-1.1685203400209545,-5.735310076904296,75.25229902972166,23.983413553461467,30.861301349543005
1698420170922.0,0.01666666753590107,0.15282295579761265,3.6525928252384063,3.5532366712123156,-1.0829271922789514,-1.0901099433898924,-4.940883454021812,75.36141130171261,26.687789389287584,28.550786664658382
1698420170939.0,0.01666666753590107,0.17779723805636166,3.922585531911254,4.203430764248967,-1.0263643241882323,-1.0268138215214013,-4.176534574016928,77.16185599711714,24.885587627719065,29.355470033797804
1698420170955.0,0.01666666753590107,0.17691336789391934,4.042596059170365,4.450508167019486,-1.018283893585205,-1.0631751747131346,-3.836408300670981,76.77218687477874,18.560552418531287,31.40743303029347
1698420170972.0,0.01666666753590107,0.07750431463681161,4.077693091514706,4.857950903791189,-1.1279682571411132,-1.1777981637150048,-3.3333266768306493,72.00453041900225,11.230605990911519,31.27166594506654
1698420170988.0,0.01666666753590107,-0.19470131884515285,4.1125574841469525,5.011919814753532,-1.4353238952636718,-1.3157640343815087,-3.0605373251765964,58.153630782268415,2.8810348367270855,27.055547264768578
1698420171004.0,0.01666666753590107,-0.32439985803440213,4.094003590324521,4.867192194867134,-1.598578520965576,-1.4344266541630029,-3.1317654090881346,44.631515961611484,-3.30680556425382,17.912934371998187
1698420171021.0,0.01666666753590107,-0.40004049769118427,3.8288650456845756,4.401180364748836,-1.702726293182373,-1.7778437857478857,-3.538479831585288,36.13557684172144,-6.088986432793076,7.010895484883778
1698420171039.0,0.01666666753590107,-0.4376126879774034,3.726979373180866,4.028683853673935,-1.756446192932129,-1.9698300004154443,-3.8438901808589696,29.514493913148623,-3.4978939801066784,-2.5478829684496045
1698420171055.0,0.01666666753590107,-0.4214472967267036,3.771100254458189,3.8269402151018377,-1.7434278675355017,-1.9759651421695947,-4.008491544994712,16.901832440857227,-6.0903255767572215,-5.323075059364057
1698420171072.0,0.01666666753590107,-0.32650223714113236,3.5499446439296003,3.433199840468168,-1.6584335624694824,-2.21523508605957,-4.387224904632568,-1.3653008139024234,-12.827159294307416,-6.408986344936874
1698420171088.0,0.01666666753590107,-0.4714624967396259,3.2707050932228565,2.7299036873191596,-1.839046004077047,-2.461239306640625,-5.108776845440268,-24.65236398831981,-25.825044289561177,-12.53548972618036
1698420171105.0,0.01666666753590107,-0.5323755228638649,3.048550534784794,2.34541278706789,-1.9346645790100097,-2.624344294738769,-5.530006700024009,-38.88785962438602,-31.909014802182526,-21.62805013893925
1698420171124.0,0.01666666753590107,-0.48350423218905925,2.6146307099759576,1.5173177033394574,-1.9131167640686033,-2.9698575218200682,-6.41616117401123,-57.394270840913904,-30.699374639794925,-30.99441490627738
1698420171138.0,0.01666666753590107,-0.37922684224322434,1.8776549900650976,0.66416591976583,-1.8064251525878905,-3.513192245593667,-7.4025722579956055,-96.85916533695011,-16.750239807323382,-41.72514411127141
1698420171154.0,0.01666666753590107,-0.24329350031763314,1.4721055196940898,0.2263046638548374,-1.63449154586792,-3.6917099068790673,-7.993790430450439,-132.80447701405708,-11.430206316574095,-51.311813215193716
1698420171171.0,0.01666666753590107,-0.014598288064450024,0.8873112428069114,-1.3003782492011784,-1.3620014694213867,-3.9704844704225657,-9.712079034423828,-166.4918989062871,-18.217232959900596,-62.09510755604016
1698420171188.0,0.01666666753590107,-0.3576182370252907,0.8594391932800411,-3.819360135236382,-1.6771382629394531,-3.4855089966371655,-12.511349103435872,-194.73246350148537,-38.54927690194473,-76.04251776574628
1698420171205.0,0.01666666753590107,-0.5390605535857379,0.9312786870881915,-5.381630494502186,-1.8757075092591344,-3.001281710870564,-14.265252041625976,-181.8162479319111,-48.20465770891737,-80.79304410708438
1698420171222.0,0.01666666753590107,-0.6885048267304897,0.9753674196615815,-7.66543642796278,-2.048987708282471,-2.533814128986001,-16.72110381000936,-102.7221928902999,-22.751401106447492,-64.39074779645979
1698420171238.0,0.01666666753590107,-0.9088042588211596,1.5343974329560994,-7.00143592789173,-2.2403742034912106,-1.8345573143556713,-16.11447354888916,-32.86065481395664,8.10683007306359,-32.77041776973702
1698420171255.0,0.01666666753590107,-0.7959186150059103,1.5283745194047689,-5.800666053912043,-2.084601457977295,-1.8164511643007397,-14.928744592174887,2.040426380100691,11.558815363550849,1.1454065021118596
1698420171272.0,0.01666666753590107,-0.4912256202213466,0.5324336827918886,-3.600120002940297,-1.8026842124938964,-2.812588984790444,-12.724882548522949,-4.036905188647404,-17.381431248902597,23.872212951131782
1698420171288.0,0.01666666753590107,-1.1304140428580343,-0.4415300075516104,-1.9799135875344276,-2.5330653564453125,-3.741688574273884,-11.107449104961752,-27.897391985634744,-42.12866827234118,18.05570923131355
1698420171305.0,0.01666666753590107,-1.5565775544516742,-0.7717638324365019,-1.7700363268673418,-3.0870237655639645,-3.968538889312744,-10.913818045696615,-55.07694474987949,-56.0361491961594,-2.898037312005363
1698420171322.0,0.01666666753590107,-2.1152787741832433,-0.8086565160259604,-1.8403361900180577,-3.7924152835570273,-3.801244048309326,-11.027392986950277,-76.80083268815778,-46.15272886336755,-39.32132050458795
1698420171338.0,0.01666666753590107,-2.0462541916653514,-0.49790743607282634,-2.01030931032002,-3.7716159488953647,-3.323451471765339,-11.241225707244872,-78.80020664313894,-24.096314872894485,-60.9806665703042
1698420171355.0,0.01666666753590107,-1.7081946415908633,-0.38072891736924647,-1.8799194278657436,-3.4102409896850583,-3.053355596978962,-11.160570454296469,-70.95619200405368,3.697714579369986,-70.78566267104597
1698420171372.0,0.01666666753590107,-0.6531351149246096,-0.17788579312264918,-1.1108417657732963,-2.226906819152832,-2.687042742975056,-10.459518865203856,-53.75941150426779,33.64569285149582,-67.65739505004511
1698420171388.0,0.01666666753590107,0.5945543311402202,-0.28982670343369243,0.3469230938792229,-0.8450036945618689,-2.709787804877013,-9.04678966358602,-37.71830242714264,41.6677261260137,-54.45145651625723
1698420171404.0,0.01666666753590107,0.8659276785165071,-0.3551392796911299,1.2474778491407632,-0.4493617240905761,-2.721160262762755,-8.17814395828247,-18.845996269229875,34.35144946824406,-36.964655939028845
1698420171422.0,0.01666666753590107,1.159394565083459,-0.40698739421963687,2.779541870713234,-0.054767362976074214,-2.763507558496296,-6.662015756988525,4.7277335731909425,12.562159053568323,-20.923686880781688
1698420171438.0,0.01666666753590107,1.3566004871606825,-0.8465503394819796,3.757336517521739,0.16385332224741578,-3.2309752865113315,-5.679943578991294,12.089626929992976,-4.013998014831651,-17.946605497059057
1698420171455.0,0.01666666753590107,1.3983727594852446,-1.001275914030522,3.885732595810294,0.19273330670781433,-3.41862098775655,-5.541528795513511,8.91116681010263,-14.480822370674726,-19.78670968587927
1698420171472.0,0.01666666753590107,1.4811184088416396,-1.2855446910761297,3.731580729496479,0.2439094402588904,-3.722534960992634,-5.686528218078613,-3.072910218438376,-14.264056072080617,-24.929587706352287
1698420171488.0,0.01666666753590107,1.5466729771614074,-1.370705438750237,3.0006700087130067,0.29852716563120485,-3.797204125268757,-6.418704428753257,-11.352596584582532,-7.6115628110622096,-27.11952564672409
1698420171505.0,0.01666666753590107,1.5099921827569602,-1.3396060977399349,2.542071669721603,0.2691981952942908,-3.7422871246889233,-6.884377236175537,-13.91273419306361,-0.6542447174101865,-26.79553903853912
1698420171522.0,0.01666666753590107,1.5617235390380024,-1.2445743827842175,1.594708986055851,0.34925424024052915,-3.619883564813435,-7.842356590923666,-7.514808912600748,5.442487683510213,-20.660734843019952
1698420171538.0,0.01666666753590107,1.6209093029782176,-1.148982841988653,0.8799287313401698,0.43664245470575985,-3.520524342047423,-8.56166455219686,0.5466690245390742,8.771024134938664,-13.735244897291658
1698420171555.0,0.01666666753590107,1.654262414264679,-1.1730194050058722,0.5698831234812736,0.5030816969055683,-3.561375115612894,-8.871564029583334,11.01589643303123,13.272878656522229,-5.881381552310069
1698420171572.0,0.01666666753590107,1.5726612587682902,-1.2640332626223563,0.168342888751626,0.47509946500249206,-3.7108632278993725,-9.264512961578369,23.407435653585342,18.685281918059474,3.8899276285583695
1698420171588.0,0.01666666753590107,1.5218214444994926,-1.4642784793302417,-0.15538637654483317,0.4665701215881854,-3.970185195215046,-9.577554828643798,25.715721989253247,19.18333760478951,10.819681319876043
1698420171605.0,0.01666666753590107,1.4289084752634167,-1.57730104739815,-0.39720308230817314,0.40806181851811707,-4.1428669899538155,-9.807098328289388,26.365865498231955,16.093223420492343,17.606161548068943
1698420171622.0,0.01666666753590107,1.1491596598602831,-1.7168880895256995,-0.7782961568146943,0.148739778137207,-4.364181005914509,-10.167725537872315,27.96657155664322,7.769143812950866,26.382365527719415
1698420171639.0,0.01666666753590107,0.7879302466005086,-1.7936983574837446,-1.428238320916891,-0.22296002960205077,-4.501249050958454,-10.799345863342284,27.208454709717653,0.07988882737937812,29.843026012226236
1698420171655.0,0.01666666753590107,0.5229230001900345,-1.7978636604696512,-1.844768619507551,-0.5232827003479004,-4.557513082233071,-11.196782754406332,20.791273418437235,-13.126006537478506,29.17973268154796
1698420171672.0,0.01666666753590107,-0.0808702108733356,-1.5304381739363073,-3.595422200512886,-1.2330137819152325,-4.316296972711384,-12.927192588806152,0.9095816278558871,-33.36565851061988,21.19173936230613
1698420171688.0,0.01666666753590107,-0.6818051829613745,-1.18310386890769,-5.677491509664058,-1.9216459613524377,-3.9553710724428295,-15.002067018017172,-5.309070183357769,-25.12163384279283,11.349763763624269
1698420171704.0,0.01666666753590107,-0.8331064821496605,-0.9576558218821882,-6.299398250371217,-2.104353621673584,-3.7232834412723776,-15.621716335186361,4.164977638887491,6.259899110167951,2.4308688079191807
1698420171722.0,0.01666666753590107,-1.005316202397272,-0.007860942633450031,-6.137470489358901,-2.163610112762451,-2.8324904938295483,-15.45681628036499,35.2183097569454,64.35074337849102,7.66900384820837
1698420171738.0,0.01666666753590107,-0.8202080568056553,0.7822925329744815,-3.8494758720368143,-1.8028337770324199,-2.1472999062135814,-13.156587035369872,53.1938342749503,83.47945313029878,22.009290807841854
1698420171754.0,0.01666666753590107,-0.25784787617512045,0.8390797113403677,-2.6755291230529545,-1.0732008210998027,-2.219125956018269,-11.957391278839111,56.56082383763227,68.49195537416145,34.84795982467438
1698420171772.0,0.01666666753590107,0.7701166497513652,0.29497312641143797,-1.1045540638059377,0.04997903272099793,-2.912396974237263,-10.34384841297567,40.29032285723225,13.552596247375408,43.03264039389778
1698420171788.0,0.01666666753590107,1.1715784124173223,0.1414282860800624,-1.0676257243812084,0.3963900854248553,-3.128772949273884,-10.280402068981529,20.61397366041475,-25.469823226301738,44.89415722576598
1698420171804.0,0.01666666753590107,1.0162795680254697,0.3386334044396877,-1.6894605688959359,0.12060790863037109,-2.9544451408937573,-10.883142921447753,9.302914017496004,-37.650362535468524,47.3153909846438
1698420171822.0,0.01666666753590107,0.24756007172092795,1.1353706423521042,-3.236287275314331,-0.7950244426451623,-2.1733365570068357,-12.408847344860433,15.740097517760807,-14.81035850756033,47.84024662612968
1698420171839.0,0.01666666753590107,-0.2612906370401382,1.4527347565308213,-3.831684779280424,-1.3446435073852538,-1.8882772141054271,-12.987795818328857,29.802553726299326,14.046300249830502,47.57330917298724
1698420171855.0,0.01666666753590107,-0.3889434957459569,1.6739935351729391,-3.5948148822695014,-1.454327870941162,-1.736395046289265,-12.727426387786865,40.73937705930932,33.30604461954401,47.35828457263148
1698420171872.0,0.01666666753590107,-0.2711162308100611,1.9264581839397548,-2.3462755413770675,-1.2794015852112322,-1.601721202905476,-11.44054299545288,44.33302303450358,35.60047933157512,49.64310920850039
1698420171888.0,0.01666666753590107,-0.29826566515080627,2.045586959928274,-1.0847539693146944,-1.274912384033203,-1.571045494134724,-10.147673514446616,42.20976993854591,28.815912410123474,46.51305549303157
1698420171905.0,0.01666666753590107,-0.32550241244882344,2.056211522056162,-0.5345300705492496,-1.2822446266174317,-1.6488570480898022,-9.56378758457601,43.184704310484356,23.067768638613313,38.76922265359748
1698420171922.0,0.01666666753590107,-0.39097061765938995,2.134046456886828,0.6165057584464549,-1.3245920684814452,-1.707066075952351,-8.358157995605469,52.88209419594716,20.750616717402732,29.514169479163048
1698420171938.0,0.01666666753590107,-0.3122241209417581,2.4505904868543147,1.8247937529712914,-1.2229881355285643,-1.5153803055360913,-7.097760459136962,61.15722696034903,23.06314630809251,25.678688703573435
1698420171955.0,0.01666666753590107,-0.22672193941883742,2.6127026645228266,2.3246762885093686,-1.105672254180908,-1.4942814034059644,-6.537067773327231,66.40905503582022,26.153429539571636,23.380331755411436
1698420171972.0,0.01666666753590107,-0.14089951296560466,2.8802915249243375,3.349768693065643,-0.9669582685608417,-1.417816587884724,-5.426009149932861,66.60114727603765,27.37572262739668,20.752898000585517
1698420171988.0,0.01666666753590107,-0.13746873479932545,3.0065450382262466,4.0592379818916315,-0.9264064048767089,-1.4336781738832591,-4.648941073608398,62.560263929085544,24.105257298065325,18.823436154401325
1698420172004.0,0.01666666753590107,-0.13048954343646765,3.065589932391047,4.237877223730087,-0.8922890312194823,-1.5064020493105053,-4.404283006939291,57.35239495111256,18.147281577515912,16.30358300164498
1698420172022.0,0.01666666753590107,-0.15202208774350584,2.9988667586833238,4.528341932806373,-0.8921394666809588,-1.7337012771606444,-4.028842843627929,52.82555047490321,12.002880112439229,12.771670837490232
1698420172039.0,0.01666666753590107,-0.15313530968241393,3.0279174966007467,4.616839715948701,-0.8852560638427733,-1.8145061677128076,-3.8793548774719238,47.669054764772476,7.803417702205991,9.530719609336147
1698420172055.0,0.01666666753590107,-0.15833492415212094,3.0758728414744136,4.56633527111411,-0.8849567886352538,-1.862090925708413,-3.87516502456665,39.799440576678016,7.011523008513773,6.148667345100178
1698420172072.0,0.01666666753590107,-0.15298165349066256,3.0012820031315086,4.356958361184597,-0.8614636848449706,-2.0340245324283837,-4.02839334629476,27.08653071039105,9.001025632596965,0.3044924745613865
1698420172088.0,0.01666666753590107,-0.13671338638737798,2.8398119227588174,4.029152640229463,-0.8234557334899902,-2.243966090503335,-4.32871601704061,17.216922727648257,8.52463018327233,-2.8995536140011056
1698420172106.0,0.01666666753590107,-0.1509249401565641,2.812171636161208,3.871312440791726,-0.8186674032349139,-2.2993314193725585,-4.471171600341797,8.018527679926372,3.7298706830955832,-4.537640017079379
1698420172122.0,0.01666666753590107,-0.06820880915559828,2.547391403439641,3.4352076731592414,-0.7306804191589356,-2.5719711334228514,-4.90287608718872,-3.474156938306768,-7.8963432796376605,-6.106038426942836
1698420172138.0,0.01666666753590107,-0.14888729684911667,2.345940610334277,2.8158704906791447,-0.8279448616027831,-2.7563246612548826,-5.531354022979736,-13.678990605513787,-15.312543043643641,-8.558599275335743
1698420172155.0,0.01666666753590107,-0.1499601867776364,2.1649498369336126,2.548556355565786,-0.8517372406005859,-2.895188357543945,-5.82239916229248,-26.933652293745947,-17.73637568950065,-13.0042080428779
1698420172172.0,0.01666666753590107,-0.2688460208557546,1.9077876780003309,1.942069886830449,-0.982520506286621,-3.0439281356811523,-6.492476351928711,-51.90098191790443,-8.382566517404296,-21.945423416460358
1698420172188.0,0.01666666753590107,-0.4202980536263436,1.7102192792862654,1.236664778703451,-1.1047744285583496,-3.101239630182087,-7.2810659392207855,-80.01024978668755,4.839102368928939,-30.35213465258065
1698420172205.0,0.01666666753590107,-0.45808242535851895,1.391089324478805,0.9589496610850096,-1.0769418342590331,-3.2121210945680736,-7.678055086517333,-110.67876904690695,14.92284318545398,-37.131903366140364
1698420172222.0,0.01666666753590107,-0.45367140398323536,1.0182546674907207,0.15424538981616495,-0.9778817405700683,-3.19835472728312,-8.684068696594238,-146.95329584200854,0.28197632907561637,-43.18543172563096
1698420172239.0,0.01666666753590107,-0.5199840606613084,1.0748097906664014,-1.906155692884326,-1.0269628746032715,-2.7844568230226634,-10.907234575653076,-162.38655906413757,-27.133336289225856,-49.29350939092787
1698420172255.0,0.01666666753590107,-0.46577586593795567,0.8995347645640372,-3.2059517582833763,-1.0096048760345204,-2.5846906220033765,-12.356624405670166,-157.0736690974865,-43.90132092801293,-56.28544768577028
1698420172272.0,0.01666666753590107,-0.5312999660542235,1.078864911276102,-5.454834846922755,-1.1400888665130362,-1.9717747047424314,-14.7550153342098,-113.7411663235522,-29.976194210473977,-54.156310381842644
1698420172289.0,0.01666666753590107,-0.6345116629973053,1.5221291952744125,-6.17495996979773,-1.2437876893859356,-1.3171107728153466,-15.541810439300535,-65.76562389524834,0.653323068759058,-37.18000838846476
1698420172304.0,0.01666666753590107,-0.7000136243470013,1.5219728356689213,-5.682909443059564,-1.2648866280486806,-1.2048822777345776,-15.08586466064453,-32.556513320405145,16.45126022923712,-13.275875402020572
1698420172322.0,0.01666666753590107,-0.6597993951193988,1.1366355477213859,-4.160740208035707,-1.1969512290069833,-1.5049056732729076,-13.589637676128744,-25.140297334699888,-6.9789336146627035,7.5377122444350935
1698420172338.0,0.01666666753590107,-1.118492572787404,0.23622663067132232,-3.18686594954133,-1.7194856682708486,-2.329408869989216,-12.632854837688804,-36.90746335001374,-42.109226138868735,0.9737320452011162
1698420172355.0,0.01666666753590107,-1.7207111549451946,-0.006863163767755031,-3.4446313350647686,-2.5028384874206036,-2.4166474468506873,-12.918363385662436,-59.009788164540346,-67.04534862870943,-24.57234149200394
1698420172372.0,0.01666666753590107,-1.9898913761913775,0.13059636481180786,-3.860944776034355,-2.9070096551757305,-2.1254526699341834,-13.360393451690673,-69.95948298904122,-55.163059774935014,-46.6862690903831
1698420172389.0,0.01666666753590107,-1.9425874809637664,0.4754480592444539,-4.5085126122206445,-2.9248164569579065,-1.6169843846194445,-14.03885034713745,-71.3563796177139,-20.505561482813725,-61.22617772002031
1698420172405.0,0.01666666753590107,-1.0842392977908253,0.5629289204292,-4.01422044403553,-2.014122073541209,-1.326837070929259,-13.59203246231079,-59.64253688925032,23.79422585118858,-60.907242036726565
1698420172422.0,0.01666666753590107,-0.5137153921879828,0.37346959389075635,-3.098347123610973,-1.333121411895752,-1.4033017403200267,-12.707823861694335,-39.54500919990587,40.69124813132282,-49.222656423572744
1698420172438.0,0.01666666753590107,0.5218727604847401,-0.012431173158437014,-0.5430331104785203,-0.1744773729186505,-1.7257706302918492,-10.173710457500814,-17.117094390286642,40.27411823342639,-33.19246198874128
1698420172455.0,0.01666666753590107,0.8373669891383498,-0.3781019298665225,1.7878940551191567,0.2688988104889169,-2.0778682041995227,-7.8535799957275385,4.23662162752587,26.63668079127567,-15.505374651838734
1698420172472.0,0.01666666753590107,0.9163055743619799,-0.5817072706572711,2.7119360689520833,0.40506902991030364,-2.3044193901613355,-6.928669966888427,11.866794569642249,14.976839245937514,-7.181507633935173
1698420172488.0,0.01666666753590107,0.9491454754292964,-0.8857209048755467,4.066877682989835,0.46372697058413176,-2.6523268189027904,-5.56711741027832,13.277678571961456,-0.5933568359715492,-1.8587123988836753
1698420172504.0,0.01666666753590107,0.9937235258895903,-1.091419126292318,4.745548513448238,0.49545017911382017,-2.88890387044698,-4.882075875744223,11.493874778696014,-9.246590570052787,0.3744805425324345
1698420172522.0,0.01666666753590107,1.0126846122734248,-1.143963844782859,4.809604513773322,0.4836287718841806,-2.9668650620058177,-4.811596564373374,9.149600176291314,-13.898852687349205,2.5404393429147603
1698420172538.0,0.01666666753590107,1.0933578392699361,-1.2051776074193417,4.561292016249895,0.526874075903371,-3.0470706714905798,-5.054159704589844,6.385989524888264,-13.869556298451727,4.871585467961051
1698420172555.0,0.01666666753590107,1.1748281349282712,-1.2304654856719075,3.977874872934818,0.5599440593995153,-3.084031159619242,-5.632358820995688,1.7645296397579,-12.980258838326897,6.907885986916231
1698420172572.0,0.01666666753590107,1.2253045957773923,-1.258937546918541,3.6444460514009,0.5750573843140154,-3.1138091888979074,-5.96320756290853,0.9857018449998578,-11.98782637550852,9.095877323374578
1698420172588.0,0.01666666753590107,1.183058130069822,-1.260294368354976,2.972590161654353,0.4870704733032733,-3.117849404199421,-6.631340048217773,2.413165384477331,-11.039279585654768,12.635073884279146
1698420172604.0,0.01666666753590107,1.0605151617236435,-1.1579402015566824,2.1039736824452877,0.33144736539311703,-3.020435324151814,-7.496544673156738,4.204585905884394,-9.595736180045499,15.872644168794075
1698420172622.0,0.01666666753590107,0.9249416660863906,-1.1605964151538908,1.6778578093856573,0.16609781323857606,-3.0348006802432237,-7.918073802947998,8.115540271802647,-7.428170524300075,17.623817587073425
1698420172638.0,0.01666666753590107,0.6829374749269336,-1.2210473767243324,0.8641063083082438,-0.10773900164179503,-3.128623165539652,-8.722674613842367,14.812209488825404,-4.354351463815264,18.32892192075594
1698420172654.0,0.01666666753590107,0.3824135094553232,-1.29435606630221,0.12889233737289904,-0.42586854723505674,-3.2395047760561106,-9.448866489410399,18.123167594651182,-2.461620880883517,17.878650237459308
1698420172672.0,0.01666666753590107,0.27192104438692327,-1.3199182314515112,-0.20055822817981242,-0.5515642074584961,-3.3080387985780835,-9.768193135833739,18.810207785526302,-3.1185395106320577,17.051403338396753
1698420172688.0,0.01666666753590107,-0.04184168429896235,-1.3691199231244622,-0.9697744219601154,-0.896329246520996,-3.4114385289065536,-10.523264484405518,16.52161800787742,-9.807180053728876,15.735553734415456
1698420172704.0,0.01666666753590107,-0.39984818998947735,-1.511724267246574,-2.0728858857423065,-1.3006499788146466,-3.586963145855814,-11.615019856914877,11.562289368517447,-22.51086745708903,10.623706117115452
1698420172722.0,0.01666666753590107,-0.50165860529989,-1.5164881206475198,-3.0661539960145947,-1.4806640892028808,-3.6070148770205672,-12.59724167251587,1.4741191743156552,-36.87167315876288,1.6386530953359733
1698420172738.0,0.01666666753590107,-1.0107808244787155,-1.4839017559498549,-5.458996642777324,-2.1134815155029294,-3.5652658394411203,-14.97857449874878,-5.173356458983731,-35.415569035269954,-14.129315222776482
1698420172754.0,0.01666666753590107,-1.1282895249847322,-1.1922981059715152,-6.983449604824185,-2.2839187461853028,-3.276165842846781,-16.49619907608032,4.6155686335278165,-12.962093950229248,-23.8250385420818
1698420172772.0,0.01666666753590107,-1.196219151872769,-0.8641087925262748,-7.141756252729892,-2.329109302520752,-2.9860188214175403,-16.64882943191528,20.2904156466002,21.53963675522802,-24.41634680155002
1698420172788.0,0.01666666753590107,-1.3775032821968196,0.02449351300448179,-6.181946759945154,-2.3508066820006817,-2.2001219803407785,-15.683217974853514,36.00952228549426,61.89624659835524,-13.80722655340713
1698420172805.0,0.01666666753590107,-0.7361462102841585,0.036354338929057116,-3.6517251024931667,-1.5346832641601562,-2.291251281030476,-13.144616027069091,45.777129930719376,71.46218607814656,-6.551680522642664
1698420172822.0,0.01666666753590107,-0.2993438888415694,-0.23932868833988905,-2.19824478829205,-0.9265560424804687,-2.689736219842732,-11.673079247173666,51.69591231826397,61.876534672410585,-2.169270428273577
1698420172838.0,0.01666666753590107,0.4213690073261037,-0.5641986481040716,-0.4032797718733549,-0.05895714281611144,-3.173514885058999,-9.8442090385437,41.36863555735342,23.29208400378758,-2.781357617300858
1698420172855.0,0.01666666753590107,1.103636802830547,-0.8439820964291691,-0.2486222941249609,0.6419453566620126,-3.530400277765095,-9.668833766937256,20.647795049637363,-9.872375063130294,-5.992066048470595
1698420172873.0,0.01666666753590107,1.3278528238430618,-0.8227633673116564,-0.8356400922805071,0.8219593209197744,-3.5387799835756417,-10.245088179016113,4.994679990956667,-26.246516480222446,-5.505678459277055
1698420172888.0,0.01666666753590107,1.047613594574481,0.050253392682969564,-2.46451262922287,0.4574421546936035,-2.677465936334431,-11.865662843212485,6.102269870068281,-23.988566931190242,2.3717477576806085
1698420172904.0,0.01666666753590107,0.9856214679766446,0.6746534115105867,-3.6919717726856467,0.3399767088074237,-2.0810104477480054,-13.08131932067871,19.91497380830294,-16.266373838594046,13.46049712283331
1698420172922.0,0.01666666753590107,0.873147108376026,0.887172126597166,-4.014921870303154,0.1842039632935077,-1.9372087105348705,-13.380743581280111,40.27829489410385,-7.7319764848085955,24.574643265754236
1698420172938.0,0.01666666753590107,0.5392800415553152,1.3765841215252876,-3.683776775792241,-0.18959077089838683,-1.614440399225056,-12.994679148101806,67.19523713004537,0.9716951547245715,34.25196776298283
1698420172955.0,0.01666666753590107,0.4035474098335951,1.608476230123639,-2.213226668846607,-0.3473088052611798,-1.5430632622316478,-11.469273415374754,77.62327625668652,4.486251808198319,37.071575720296224
1698420172972.0,0.01666666753590107,0.3656061670392751,1.8198235633432864,-1.348818747243285,-0.40462008056640625,-1.5120882782533764,-10.53987425842285,79.38687891170801,5.757329949057005,37.0527004925249
1698420172988.0,0.01666666753590107,0.14737754987329243,2.0703531523942944,0.3439759345114231,-0.6401496688842773,-1.4981719811037182,-8.756343659210204,77.29459389344717,10.31283944855243,33.70817883711768
1698420173005.0,0.01666666753590107,0.11346527033410966,2.3036019362986084,1.7343109334915876,-0.6757634185791015,-1.4323314354494214,-7.298424485778808,75.774180123824,14.30378984380352,31.382308179431575
1698420173022.0,0.01666666753590107,0.13217172436974942,2.4607871789589524,2.2978151695907116,-0.6480804618835448,-1.4410104164674877,-6.66530778427124,73.53833818958782,18.82137514481927,28.960213816718333
1698420173037.0,0.01666666753590107,0.1799975976448506,2.6894556493356823,3.157712335771322,-0.5720645591735839,-1.423652454431355,-5.712864436340332,68.8678343445656,23.928328077805315,26.782049414928345
1698420173055.0,0.01666666753590107,0.2481882866218686,2.7425276065707207,3.8446898068040607,-0.4767454055786133,-1.5209168968752025,-4.956895262145996,66.76236023101747,23.30259566492023,25.263220249192607
1698420173072.0,0.01666666753590107,0.2704565247923136,2.8076167493358253,4.092036089643836,-0.4337994132995605,-1.6020201858520506,-4.638915354156494,65.26098219861112,18.35970046070331,23.423078494331964
1698420173089.0,0.01666666753590107,0.36446876050718124,2.7942276909306645,4.418371738046408,-0.3359363473754376,-1.8032830551698802,-4.215440350994467,62.30256772189013,6.579407248691508,21.159461595835943
1698420173105.0,0.01666666753590107,0.5013935976881534,2.7394585743889213,4.344062639254331,-0.21996727752685546,-1.9888336838319896,-4.217086364635825,57.75652358392387,-3.071258806763114,19.127490563040904
1698420173122.0,0.01666666753590107,0.5735893575880676,2.695731953126192,4.198607874137163,-0.18285715179443357,-2.151340121515095,-4.292803576660156,52.169558616447674,-7.524740861427593,16.76434073286487
1698420173138.0,0.01666666753590107,0.6329054699096829,2.661800457429886,3.788175892421603,-0.1702876661438495,-2.3190835830688474,-4.621107894787192,41.55683458974396,-6.338466776190608,12.275217683894208
1698420173154.0,0.01666666753590107,0.5818816773761063,2.6010487593472003,3.167809366893768,-0.24346038131713865,-2.4606413407474754,-5.19092788990438,34.75989819570541,-0.36703112734505133,9.072458312257897
1698420173172.0,0.01666666753590107,0.6104767074152827,2.55061971783638,2.983800706976652,-0.21906945190429686,-2.5776573623657226,-5.333831801494956,27.67916914920013,4.4316192594615025,5.5118687450992025
1698420173188.0,0.01666666753590107,0.679223057513684,2.360046877098083,2.6430484106868506,-0.1479915901184082,-2.825008321380615,-5.639541425976157,11.339550069494162,-0.5352266434103045,1.759182562133132
1698420173205.0,0.01666666753590107,0.6300773338116705,2.1374995199501514,2.0833827298372984,-0.2087443841796368,-3.056946022686362,-6.192153096660971,-2.12782355972947,-9.726397698867842,-1.0245755464958681
1698420173222.0,0.01666666753590107,0.610092822664231,2.0297914249032734,1.809285218194127,-0.25438392639160157,-3.1486750428348778,-6.47362201385498,-13.126656259223305,-17.257721155108037,-5.309244780068427
1698420173238.0,0.01666666753590107,0.17727606372646987,2.0204946042478085,0.9916215121090411,-0.7246949150085449,-3.0985458610534664,-7.324162153625488,-31.256335585474446,-17.667578609085698,-13.657084481298263
1698420173255.0,0.01666666753590107,-0.21098310301713644,2.078826966229081,0.1668582031518221,-1.1183914505004882,-2.953846882739663,-8.200888874053955,-52.668626878722165,-6.311010269500803,-20.814175042724287
1698420173272.0,0.01666666753590107,-0.320379589542374,1.9072619005605578,-0.2016746649891138,-1.188122573852539,-2.9869162086486813,-8.655338276672362,-78.51127598086904,13.80116561429239,-26.9344599636153
1698420173288.0,0.01666666753590107,-0.5866773872200399,1.6721791792273522,-0.8282657641202211,-1.342698218536377,-2.9477117409855125,-9.445424824523926,-110.10467798678904,24.829677406720634,-31.309392494947105
1698420173305.0,0.01666666753590107,-0.7015613652456552,1.587847575853765,-1.7583453045517206,-1.369932189355418,-2.7697920455932614,-10.518176221355795,-124.95048346859444,16.48879211872634,-34.36805365811637
1698420173321.0,0.01666666753590107,-0.6929445627436042,1.4021952403828501,-2.355981527355313,-1.302295992456004,-2.666392753656208,-11.257985118865966,-129.32975487759649,0.30172187235759435,-37.75864835456991
1698420173338.0,0.01666666753590107,-0.6141961663298309,1.3311971658349036,-3.9891093836545943,-1.1936591651916504,-2.364124794061482,-13.054383967480062,-108.08827637020704,-10.820223466141412,-34.42162283177677
1698420173355.0,0.01666666753590107,-0.8640484406411647,1.8873080768123267,-4.697034950169921,-1.4431050506591796,-1.600523809814453,-13.844171240124105,-66.60818920107194,-9.405826185267879,-17.56525213003515
1698420173372.0,0.01666666753590107,-1.0470889131132513,2.0302888530313967,-4.383911834561824,-1.6463129165649413,-1.359757197625935,-13.56644443206787,-16.105010619452493,-12.79135971154644,10.50863023620543
1698420173389.0,0.01666666753590107,-1.3907412416934966,2.0028928965836763,-2.681944250792265,-2.1052514472961423,-1.405695941980183,-11.84935292892456,24.03238600981046,-44.15099166293357,40.329125161907086
1698420173405.0,0.01666666753590107,-1.7116101491227744,1.2087705173447727,-1.277338734397292,-2.612074084295705,-2.245162899072468,-10.411335556793212,16.878881297698694,-77.8625992550146,44.66193079398555
1698420173422.0,0.01666666753590107,-1.9653842730529605,0.7665452210053801,-1.1287205368131399,-3.1111153467040507,-2.6798601379945874,-10.238055211639404,-17.218652473055563,-94.24019077141125,30.20827037809267
1698420173439.0,0.01666666753590107,-2.6469515556052325,0.2752875982105732,-1.7254875755667685,-4.0777741939269,-3.025073797607422,-10.848576050457357,-70.77370300980927,-68.6479910457504,-10.499855150669257
1698420173455.0,0.01666666753590107,-2.7520766484215855,0.39738399183303114,-2.5502175667762756,-4.272602500152588,-2.7066455613285303,-11.727547334942221,-99.8930397436214,-22.68251523357333,-40.529119930994234
1698420173472.0,0.01666666753590107,-2.478579733020067,0.3049099985361099,-2.620868727582693,-3.95971041682139,-2.560150054986775,-11.88197392654419,-111.7274558015032,20.919737323894125,-56.261487382161874
1698420173488.0,0.01666666753590107,-1.6105347700886428,0.35523294932395216,-1.8869471345454454,-2.9243673980161544,-2.1912930694580077,-11.265616052135824,-96.4734645545195,41.54278147552665,-55.59586154188204
1698420173505.0,0.01666666753590107,-0.18894480114504694,0.07218553076684475,-0.13460486980080605,-1.3741220422606915,-2.2857145435608923,-9.579500117492675,-69.2599623350052,34.32184401328664,-44.192563609316856
1698420173522.0,0.01666666753590107,0.6306444661751389,-0.35255145515501496,1.7524539084255695,-0.45459904022216796,-2.5571573029115795,-7.7413517929077145,-33.138069777285885,8.88632882718588,-26.13003443411705
1698420173538.0,0.01666666753590107,0.881787803210318,-0.5457336016088724,2.51831786916852,-0.18839359700307248,-2.697666866711527,-6.989272611889243,-16.117344233546245,-5.5696261053813,-18.76992674489615
1698420173555.0,0.01666666753590107,1.057449563607946,-0.8963844838395715,3.506154017519951,-0.024690204620361325,-3.0186396729066964,-6.006752690124511,-13.836767121567435,-10.646514680075063,-17.144102665812166
1698420173572.0,0.01666666753590107,1.0166523468606172,-1.2109991531796753,3.7873394415974615,-0.0839466226439923,-3.2731733830325305,-5.736656815338135,-28.047032892613263,-7.749298698317395,-21.05810158855295
1698420173588.0,0.01666666753590107,1.0643294593147934,-1.4271350358501076,3.7580309295266865,-0.0383072265625,-3.4141318596437573,-5.781697734069824,-35.957766527058496,-3.572040379302221,-23.548683965621205
1698420173605.0,0.01666666753590107,1.2661615068227052,-1.6335820298075674,3.4143203679531813,0.16953940505981444,-3.5402763596132396,-6.142473996734619,-32.16382866954819,-1.756878760670428,-23.742128583294306
1698420173622.0,0.01666666753590107,1.3671829637125135,-1.5623657824642956,2.853561631169915,0.2730888460572809,-3.3888429584778845,-6.719176737102866,-20.934934494797403,-6.010694535658159,-17.402669722126753
1698420173638.0,0.01666666753590107,1.366512517105043,-1.5345748353496194,2.503818803694844,0.25932211344614625,-3.3207579948976633,-7.075015543365478,-15.111079783884945,-9.170462135337472,-11.562473783625038
1698420173655.0,0.01666666753590107,1.449381938971579,-1.6536664941981434,1.8309049293279647,0.3214214998107403,-3.408894543512165,-7.751227874755859,-12.029323189810933,-10.339895535402142,-7.8432658795974906
1698420173672.0,0.01666666753590107,1.3801513124875724,-1.7385792584605515,1.1120464653879403,0.22909524442143736,-3.4605195168092844,-8.473378950500488,-9.517127532887821,-4.8317577811370604,-5.166170673090054
1698420173688.0,0.01666666753590107,1.2801743962146341,-1.72226291443184,0.7505225992262363,0.1262942106384784,-3.423858303888142,-8.838195428466797,-7.509331100886397,0.9554077148750298,-2.619773697671751
1698420173705.0,0.01666666753590107,1.073799371514842,-1.6921536073721943,0.05446224254965782,-0.07242445408925413,-3.380014339856058,-9.53760100391805,-3.0138764665551325,4.402197365838027,1.4934990890336257
1698420173722.0,0.01666666753590107,0.7631721643757075,-1.6639929501622914,-0.49753392658531664,-0.3715500970702618,-3.3569701488770542,-10.090063036999107,7.70982020491472,3.1947842720066753,6.297832700157732
1698420173737.0,0.01666666753590107,0.6550383181974292,-1.6761150573715566,-0.7393956405341625,-0.4791396072387695,-3.3966242600038647,-10.327089585876465,15.826663335301548,-0.5309967819625097,8.207256051977579
1698420173755.0,0.01666666753590107,0.5099171689487993,-1.7057237214326857,-1.3105126897245645,-0.6344634399414062,-3.4694977730348704,-10.889128425598145,20.470889735039446,-3.870230216765699,11.239756736852044
1698420173772.0,0.01666666753590107,0.3312520620167255,-1.5802257026731967,-1.996565447127819,-0.8384194208007305,-3.4065000495910644,-11.560402131542563,19.19819326623429,-5.557764201227103,13.777350452203848
1698420173788.0,0.01666666753590107,0.18942074809372425,-1.6103512302152811,-2.401402385315299,-1.0025718721251935,-3.4730889293946325,-11.955445989990233,12.356279222737566,-8.181469526539843,12.390137324226966
1698420173804.0,0.01666666753590107,-0.26028058321475983,-1.5059224491000174,-3.902679638957977,-1.4903905334472656,-3.3797150646485385,-13.449727101135252,-1.132805870310244,-19.029731772997803,8.748963477693168
1698420173822.0,0.01666666753590107,-0.6595525807514786,-1.465970231809467,-5.8958086818963285,-1.9645920997619628,-3.3107321293152867,-15.438560492706298,-11.635253718099754,-19.41006914938267,-0.3110812859133481
1698420173838.0,0.01666666753590107,-0.8055139802165329,-1.3983958480998873,-6.5042129669517275,-2.135927156066894,-3.2216979012086986,-16.047585540008544,-4.736461701176573,-0.25977181097072805,-8.18782501756254
1698420173855.0,0.01666666753590107,-0.9201423760458827,-0.8824110496751963,-6.854650790953635,-2.17558097493276,-2.7304375019349156,-16.403423177227378,18.901341292074488,42.65635844233261,-8.225221157042006
1698420173872.0,0.01666666753590107,-0.8731944546490907,-0.1971981040969491,-5.41526856020987,-1.990030492401123,-2.1172226017273963,-14.967051818737387,37.50883760077127,63.88422096761164,1.3860147499426623
1698420173888.0,0.01666666753590107,-0.5873254027999937,0.02377630464583635,-4.158074203696847,-1.543062969970703,-2.007089471490681,-13.704410302734374,52.274760605138795,65.34090224208943,11.919692677216705
1698420173904.0,0.01666666753590107,0.30019962888807056,-0.269229467215389,-1.5995400594741105,-0.5153519073486328,-2.4392428711488843,-11.128249316406249,61.680597035690425,52.50275231963382,19.545431545901277
1698420173922.0,0.01666666753590107,0.7170813712649047,-0.2506089378975332,-0.06904431013166903,0.010025719451904296,-2.6188079956606027,-9.559149403381348,58.94972348097925,21.99883208067527,23.507783085323876
1698420173938.0,0.01666666753590107,0.8603032627634704,-0.225427004237473,0.1781809766769409,0.16086049710698425,-2.7193644653871654,-9.280224909973144,45.25071359100816,-2.9992711742321183,25.482763019684327
1698420173955.0,0.01666666753590107,1.0127958175629377,-0.09816665198057889,-0.5238683912813663,0.23702596435546874,-2.700659764917195,-9.947010072326659,28.481461952130047,-24.575433860150664,30.555493289834022
1698420173972.0,0.01666666753590107,0.6651781655482948,0.33592180739343164,-2.109120397683978,-0.1984194625854492,-2.329558507592976,-11.506981507000326,30.910369428540374,-27.370248230776916,34.74242657180852
1698420173988.0,0.01666666753590107,0.5330168164420873,0.6324076764553785,-2.7997575602680445,-0.42152905672602353,-2.112733327484131,-12.165835876354574,42.30969219100861,-25.39681362671618,37.847925757211144
1698420174005.0,0.01666666753590107,0.21549320085272192,1.05511783272475,-3.6326503996670243,-0.8433574617248027,-1.8444333962038157,-12.94080961074829,61.40937705393839,-13.678472364910512,38.17624953551907
1698420174022.0,0.01666666753590107,0.014825813210010528,1.3629247217461467,-3.312761443185806,-1.0892120447020976,-1.689258908843994,-12.566715016826986,73.30591368232146,0.4045469285371248,36.710750486822796
1698420174038.0,0.01666666753590107,0.0636331718031317,1.614258028395474,-2.6792870142817495,-1.055394019317627,-1.6105498215273022,-11.872696395111083,78.84296362734321,11.211839192393263,35.88224171031108
1698420174055.0,0.01666666753590107,0.0874219706043601,1.9548384752497077,-0.977716320875287,-1.0149918663024902,-1.5064020493105053,-10.08677159423828,78.56143005994446,23.84199107160177,32.84588452987649
1698420174072.0,0.01666666753590107,0.15106902480237186,2.104888166941702,0.714827016466856,-0.9162309747558086,-1.5286980522707103,-8.331073004803061,76.98987866400539,29.96393743600839,31.07739145940928
1698420174088.0,0.01666666753590107,0.1578714713588357,2.2905530696332455,1.4529372933655977,-0.8653542625427245,-1.5150810303285718,-7.52707074432373,77.28421883609792,32.15519872553188,30.399310769177927
1698420174105.0,0.01666666753590107,0.22807642276771364,2.5506927830725905,2.7631010235220193,-0.7398083129882812,-1.4839567010074852,-6.12257219543457,77.57495949849785,29.553777746159952,31.007907944982744
1698420174122.0,0.01666666753590107,0.23054193609841167,2.679245805488527,3.7097389000445604,-0.7077857927184552,-1.5248071823120117,-5.100247502025962,76.17420381294413,24.37087652469795,30.24695656955162
1698420174140.0,0.01666666753590107,0.1995488319415599,2.7612898824468255,3.988682682675123,-0.722749626159668,-1.6075570694521069,-4.742463991436362,74.07346985067998,18.33126467564125,28.565509137414345
1698420174154.0,0.01666666753590107,0.10302695149332285,2.878868506383896,4.357725838425755,-0.8161234909057616,-1.698686662402749,-4.266167498669028,69.48183420000389,11.31292428456216,24.512842006596667
1698420174171.0,0.01666666753590107,0.17261048306822777,2.845751249679923,4.487686681813002,-0.7523777986388653,-1.875558017785847,-4.057722316631675,63.53454260286367,8.212704835387957,20.859139885577772
1698420174188.0,0.01666666753590107,0.14464074532054363,2.8872905900314447,4.479101224297285,-0.7890390846252441,-1.9607018143251538,-3.9941269195556637,54.607987376561,5.129830651611002,16.950910765138357
1698420174205.0,0.01666666753590107,0.19632088287100194,2.854415617650747,4.3073979192018506,-0.7526772199768572,-2.131138752746582,-4.083909481811523,42.86080307966402,0.7996276417714351,10.851653435380872
1698420174222.0,0.01666666753590107,0.2727695509750396,2.694059635999799,4.033212729275227,-0.6881834127563983,-2.375946457019448,-4.3059716857910155,36.71418607197531,-1.6137081772700288,5.813918066330561
1698420174238.0,0.01666666753590107,0.2880759142436087,2.6940561288684606,3.845556652766466,-0.6832452987670898,-2.4488193855285645,-4.4476784965515135,31.42616823918681,-3.2019736864383486,1.488267591016219
1698420174254.0,0.01666666753590107,0.28542788395285607,2.642648013192415,3.502960774436593,-0.6971614497862756,-2.57915373840332,-4.739471239361166,22.72130217032254,-5.449896304325561,-1.3226213096565411
1698420174271.0,0.01666666753590107,0.3122603612989187,2.5043068794727326,3.1727994302660223,-0.6874351516723632,-2.756175023651123,-5.042936299785971,12.702228304198712,-13.261816311387747,-1.377613937428664
1698420174288.0,0.01666666753590107,0.31250965988487006,2.4738982972055674,2.8491373849868773,-0.7249941902160644,-2.804209278979897,-5.35059121311605,3.7150636867486417,-23.34008828082172,-1.2738140585080993
1698420174305.0,0.01666666753590107,0.17317549653984604,2.348458146113157,2.2531559436529873,-0.939275311865285,-2.925265515899658,-5.939565406036377,-8.39594941930929,-30.73239860443194,-4.408347097411976
1698420174322.0,0.01666666753590107,-0.10789901450909674,2.2376614374011754,1.525386443504691,-1.2738649208068846,-3.003825257873535,-6.680570235332846,-25.17010086514324,-27.378454703064687,-10.803852356474538
1698420174338.0,0.01666666753590107,-0.253002993427217,2.1671733582019805,1.1909645192801952,-1.4456489629883318,-2.9972412033081053,-7.059902145385742,-52.26578915166398,-16.30084068069322,-19.81022602719162
1698420174354.0,0.01666666753590107,-0.6241514508940279,1.9958020615398884,0.5182680870562791,-1.7977462446350603,-2.9632734672546386,-7.860313687896728,-97.27907170674416,-4.833529788339855,-33.14552834385954
1698420174372.0,0.01666666753590107,-0.747237367010489,1.9395546891391275,-0.19012275888323782,-1.886630908203125,-2.7819129837587475,-8.709507089233398,-126.8415306233392,-9.201190302639713,-41.70567807213688
1698420174389.0,0.01666666753590107,-0.7571850527901202,1.723908781942725,-0.7391577401250601,-1.8795979408264158,-2.7027546913698313,-9.417592230224608,-146.21365465678787,-24.320432162582822,-47.90065964933844
1698420174405.0,0.01666666753590107,-0.5654824773695319,1.6579831883534788,-2.590966925793886,-1.716792227935791,-2.323273728235066,-11.47885022201538,-154.2294827044448,-40.50451075941468,-53.42451708397831
1698420174422.0,0.01666666753590107,-0.32568449101746083,1.5913342489257454,-4.575715093877911,-1.5150806650023907,-2.0603607506901023,-13.599064845165609,-137.7939985046431,-33.77399112486533,-51.81699108168078
1698420174438.0,0.01666666753590107,-0.31960604788661,1.5053665687829254,-5.039572376310825,-1.517325229058787,-1.8742112793520092,-14.16723941116333,-102.65977179147514,-8.898477172398394,-41.93076012604547
1698420174456.0,0.01666666753590107,-0.6469132447350769,1.6091443386435509,-4.954971016085148,-1.7987935617309063,-1.5364792076662181,-14.171727954754232,-53.69518040531299,8.482018340587913,-15.72873549807649
1698420174472.0,0.01666666753590107,-0.7853574735030532,1.2547153991788624,-3.96552450992763,-1.9298761026244609,-1.7922098724916575,-13.216292439270019,-31.902717367767774,-9.998190562736514,3.703682030270462
1698420174488.0,0.01666666753590107,-1.1576098005585371,0.9662848262786865,-3.5919641690135,-2.373102758026123,-2.0079872971132398,-12.85731182785034,-28.310739666278284,-43.731047727099096,10.332890322634649
1698420174506.0,0.01666666753590107,-1.819748160019517,0.4249468292802572,-3.8186902731508012,-3.2225954345703123,-2.441188159997761,-13.091644315338135,-38.939810043213136,-61.72094296311769,-6.236997058994075
1698420174521.0,0.01666666753590107,-2.2375335732378066,0.009176409146189689,-4.334993197613954,-3.7582977637693284,-2.7564742988586426,-13.619864472088217,-49.11827405758203,-41.88620338699489,-27.24805614652539
1698420174538.0,0.01666666753590107,-2.1271474911533295,0.058707332773506635,-4.36213664060533,-3.680935561016947,-2.591274676568806,-13.67523097000122,-57.56785326848061,-5.514089410353103,-43.633997569182384
1698420174555.0,0.01666666753590107,-1.5067453097902237,-0.03628448856323957,-3.3053578889310358,-2.974945054217428,-2.516904495239258,-12.67879358204305,-58.7920485639895,27.770364127450847,-45.50597142066987
1698420174572.0,0.01666666753590107,-0.37534123298153277,-0.14716156903505326,-1.1323352201789616,-1.7417817077636717,-2.5097221825197336,-10.551545991516113,-48.87424505891581,31.21090116711552,-37.386099101386144
1698420174588.0,0.01666666753590107,-0.0059435647048056124,-0.3198009859368205,-0.025978490865230557,-1.2853870162963867,-2.5890301125124093,-9.48029038619995,-35.860555859696284,22.405757675951705,-27.266226157264914
1698420174605.0,0.01666666753590107,0.5184513346686959,-0.6290590966798365,1.8197779706358908,-0.6965629724364727,-2.814234706170857,-7.662792050933837,-22.67617169538168,6.531066584840743,-17.680748921352777
1698420174622.0,0.01666666753590107,0.7916620535399764,-0.7983020030111074,2.9817051960021255,-0.40791218091435727,-2.93364551397115,-6.514173804473876,-22.291743035683975,-0.30094613895869543,-14.398011449630198
1698420174638.0,0.01666666753590107,0.8417540451161563,-0.935940249158442,3.3138106599777934,-0.3531446718078106,-3.0156470669619737,-6.194996795654297,-26.0907557237476,-1.2672944295019106,-13.159306271003258
1698420174655.0,0.01666666753590107,0.897377586530149,-1.049978862401098,3.587709434178471,-0.28880064832158386,-3.0457242253176866,-5.940163371929526,-26.46914649621901,0.8989833086981429,-12.036233633703693
1698420174672.0,0.01666666753590107,0.9731435330670326,-1.1357651946276426,3.4616046816974877,-0.20485380648188292,-3.073855802563578,-6.0791767058223485,-21.86025949524676,0.5745050869754909,-10.540170342245258
1698420174689.0,0.01666666753590107,1.047049677081406,-1.2448593372054397,3.385308208480477,-0.12719203626103698,-3.139696494348347,-6.164620362091064,-14.98446856724042,-1.8038632050841226,-8.577576955944624
1698420174704.0,0.01666666753590107,1.1756870898451655,-1.3625905213557183,3.1041110939651726,-0.007032894311472773,-3.2240919567383823,-6.451325426372885,-7.589625097221775,-6.459927176427298,-5.349764023545881
1698420174721.0,0.01666666753590107,1.2958436745114623,-1.4084914179176091,2.5451445012956855,0.09711480484008789,-3.2531219441287216,-7.011569199371338,-7.434858133271163,-7.120289075291172,-3.7762288845397523
1698420174738.0,0.01666666753590107,1.3502061099484561,-1.4831658428907393,2.158756242990494,0.13991123258061705,-3.3086373489931225,-7.400178056335449,-8.268535655437287,-2.501449421481154,-1.697944900303796
1698420174755.0,0.01666666753590107,1.1903566895801574,-1.441089473053068,1.3312065181851387,-0.013018471527099609,-3.243844412695616,-8.232911321258545,-4.131198084573546,6.401081254746231,1.9930016019289423
1698420174772.0,0.01666666753590107,1.0483733999658376,-1.4379098201036453,0.7063824287265539,-0.13497304552607237,-3.2377091248109933,-8.860790706634521,3.1961637567756065,10.830722320669368,5.157720021539456
1698420174789.0,0.01666666753590107,0.9651402593534439,-1.511575944817066,0.5503408031433821,-0.19153613281249998,-3.326893136651814,-9.017162002563476,10.578046302513917,12.697815148221238,7.405483197198231
1698420174805.0,0.01666666753590107,0.7721360267497599,-1.6969927179664372,0.318265154671669,-0.3483562684874981,-3.554940844781697,-9.245359348297118,15.47768335739621,11.977896134228969,7.271363895108569
1698420174822.0,0.01666666753590107,0.6487000550866127,-1.9107823297716675,-0.03367781319618225,-0.4483142608642578,-3.8031897755496202,-9.593266777038574,13.458051915110445,9.389148570862,6.552142414185287
1698420174838.0,0.01666666753590107,0.5487811526112258,-1.9844721276216208,-0.7332686820864677,-0.5244798011779784,-3.9107790665224194,-10.288782359313965,7.984744710517843,7.198846069143251,5.9161634368847125
1698420174854.0,0.01666666753590107,0.452640234304592,-1.9334854522280394,-1.2244880186975002,-0.6099227267943322,-3.871424376733601,-10.778844927105308,2.5801812254873027,3.3851437786090464,6.21163272462441
1698420174872.0,0.01666666753590107,-0.016284049194306136,-1.6143908609949051,-2.510640758669376,-1.0797848756652324,-3.548207152612507,-12.065728903961181,-4.743915571995172,-1.742862145276504,5.590691689442088
1698420174889.0,0.01666666753590107,-0.6076601886898279,-1.6583986372865736,-4.311444564244151,-1.687163836260885,-3.559729248102009,-13.871256230926512,-13.195539570776528,-4.632687648908807,0.16038596848171052
1698420174904.0,0.01666666753590107,-0.8019916513092815,-1.6711643030963836,-5.121501302456855,-1.8828898950438946,-3.538630345971882,-14.687828634643553,-13.529594731571745,3.7386107639122605,-8.029945194897694
1698420174922.0,0.01666666753590107,-0.9205800368107855,-1.4830290647685527,-5.934851236996054,-1.965041012573242,-3.32928733831197,-15.509339079284667,-4.14601916818565,22.432245149553015,-12.994606504452156
1698420174938.0,0.01666666753590107,-0.9828957693397998,-0.8901632712371647,-5.247046082967519,-1.8915689491271972,-2.760365314947814,-14.83073254623413,16.51256459213257,54.44395355345397,-6.8101912298966
1698420174954.0,0.01666666753590107,-1.0063170500028877,-0.46585707794800396,-4.363680947437882,-1.7555483673095702,-2.393304126794636,-13.94981597290039,28.276991701589253,70.40039902072223,3.2648312770397414
1698420174972.0,0.01666666753590107,-0.27984613829776644,-0.4778698795638978,-1.9759300708562135,-0.8500912269592285,-2.4865283539369702,-11.557709239196777,37.656400422694816,73.44431380547343,11.256499238055039
1698420174989.0,0.01666666753590107,0.43173020581007,-0.6180249308377505,-0.02292027233839035,0.06688804541323333,-2.757522054345906,-9.586383447265625,39.23415021530566,50.89758614769454,16.146802839436507
1698420175005.0,0.01666666753590107,0.652267099918425,-0.6484624469384551,0.24315058471560477,0.36451723929140717,-2.86960061956197,-9.304316564178466,25.99417855643091,18.262336114084775,19.41389576286517
1698420175022.0,0.01666666753590107,1.001706706663221,-0.5281280945524574,-0.5820259812176227,0.7089829848800785,-2.7922381245486436,-10.11924295425415,10.843563930082638,-9.632884725167552,27.380269825836617
1698420175038.0,0.01666666753590107,0.7505081323094666,0.10866831838116049,-2.8414772256225347,0.35793325779121365,-2.177077643231302,-12.369941567882895,9.424679214924407,-30.296577893871763,41.328702856370946
1698420175055.0,0.01666666753590107,0.5299102287288755,0.3869285026617348,-3.801801682192087,0.034566323001123965,-1.9363108849123118,-13.316399996185302,27.24335185373454,-28.903502756039718,47.92548397187685
1698420175071.0,0.01666666753590107,-0.3901013605441898,0.880606338340789,-4.721611757543683,-0.9760860162597149,-1.5358805111207068,-14.207791201782225,54.52569725744068,-19.099242608181022,50.329536389897505
1698420175088.0,0.01666666753590107,-0.8285483804538846,1.3141563069239257,-4.122400248247385,-1.5007154550414532,-1.3251909111574292,-13.543250603485106,84.31311869963385,-8.021346840506295,48.39378564703502
1698420175105.0,0.01666666753590107,-0.7602160910490899,1.5098171184509992,-3.379560604739189,-1.484554739965871,-1.3368626442506908,-12.735955731201171,90.3455212840216,-7.747780688774359,45.1349965260898
1698420175122.0,0.01666666753590107,-0.5122627091616392,1.697280594997108,-1.759295737144351,-1.30229606552124,-1.4218568031862377,-11.023054080963135,82.9772156602494,-5.32589293928351,35.16580609279551
1698420175138.0,0.01666666753590107,-0.3998067620005458,1.7669374840691685,-0.3111106067419052,-1.21939683303833,-1.5328879051759838,-9.509469718933104,72.9161899184697,1.9494320386568424,24.64866714843154
1698420175154.0,0.01666666753590107,-0.3478810521911829,1.9011442944630979,0.24574703094959258,-1.1701659883361308,-1.5586255730226635,-8.89341170425415,65.07513958148424,10.049856674939429,15.166001335001019
1698420175171.0,0.01666666753590107,-0.1464301129553467,2.1691966807231307,1.186121170902252,-0.9491512475829571,-1.4384665772035716,-7.89742381362915,63.1696943879691,14.75972802279032,8.652940409472897
1698420175188.0,0.01666666753590107,0.12036869304701685,2.444405953000486,2.18451846075654,-0.6456863332886248,-1.3682865410402416,-6.818087777709961,69.9191712125598,13.230548559141075,6.416188779416652
1698420175205.0,0.01666666753590107,0.18707608466371892,2.679222716873884,2.6675018839418887,-0.5603928260803223,-1.3024459953859449,-6.26323095844686,74.99874191716327,7.899236718524807,6.530356672053885
1698420175222.0,0.01666666753590107,0.2885649398695677,2.7990990963593125,3.5933220133632418,-0.45489824236445126,-1.413477097375691,-5.231180405315756,73.99867244907918,-0.24336860475083996,2.6608075532144833
1698420175238.0,0.01666666753590107,0.4583067356336862,2.675347336745262,4.093001135283708,-0.2902968051634729,-1.6994342658996582,-4.651783603557944,67.19300365818677,-3.4015659012512844,-2.3738049252812514
1698420175255.0,0.01666666753590107,0.5275152233511209,2.6850623828127977,4.078840507984161,-0.22340894241333006,-1.8342580391481518,-4.591928562054038,59.3927022297896,-2.5898879915149484,-6.266500488000768
1698420175272.0,0.01666666753590107,0.447787533576414,2.8117659779697655,4.068552922725678,-0.2919428918700665,-1.8742112793520092,-4.514267230224609,51.258312343425004,2.488224254257305,-8.22275802007257
1698420175288.0,0.01666666753590107,0.3550683333467692,2.9807220301836725,3.938465822610259,-0.3661632164001465,-1.817498627527058,-4.583699078369141,48.189754236148396,4.997837245900505,-7.144907211494013
1698420175304.0,0.01666666753590107,0.304160056951642,3.0959272029876708,3.8507109667897224,-0.39833522814325983,-1.8083704414367674,-4.612429498291015,46.981937734269195,4.71036696345254,-4.771626503231561
1698420175322.0,0.01666666753590107,0.29507023011036215,3.173117410174012,3.737324241584539,-0.3911526231627911,-1.871218235015869,-4.644451360973716,47.8814668177707,2.0792878086005366,-2.515606269196475
1698420175338.0,0.01666666753590107,0.09907843306325376,3.294866890054941,3.841172154071927,-0.5831377418518066,-1.8505688302189112,-4.479252030944824,43.7520471437023,-0.9523682806943742,-1.2648034381672657
1698420175355.0,0.01666666753590107,-0.07087108716741204,3.4396132146418092,3.7938819951087233,-0.7591115638732909,-1.789965600696206,-4.473416164398193,32.941606215999634,-5.692639092993699,0.0003212856952550529
1698420175372.0,0.01666666753590107,-0.43526108334995806,3.462505429929495,3.6204438290446994,-1.1519102006774395,-1.8303677537113427,-4.604049792480469,10.042708881973011,-14.384371561857684,-2.641930831339272
1698420175388.0,0.01666666753590107,-0.732747215495631,3.229548906970024,3.055248571118712,-1.4761749610900878,-2.0649989318847655,-5.165789356994629,-9.065094514558977,-16.762271185546357,-8.917306296392827
1698420175405.0,0.01666666753590107,-0.790455454229191,3.124496879389882,2.777467402526736,-1.5472527498107402,-2.133682592010498,-5.465662530407309,-26.924095151549807,-10.361214263349046,-15.427992023637074
1698420175422.0,0.01666666753590107,-0.8509782389268279,2.889302806636691,2.314073061430454,-1.580771646118164,-2.2554876014709473,-6.002711890301108,-56.61412663391505,5.990905343198516,-21.821959209475914
1698420175439.0,0.01666666753590107,-0.6989687914691866,2.57324188401103,1.7936235386818646,-1.3733738542418925,-2.4224831672668454,-6.618171354565024,-83.98804950646543,15.50046716092008,-24.493425486333614
1698420175455.0,0.01666666753590107,-0.7652220095776021,2.321278462764621,1.6620160971313713,-1.3718775512695311,-2.4627359749391675,-6.877044409069419,-111.58548348941531,14.401607544228211,-27.362859673642255
1698420175472.0,0.01666666753590107,-0.7084949639011174,2.19092452840656,1.3112854276627302,-1.2530652938842772,-2.2004215478092433,-7.440280934143066,-154.42343275611645,-10.322887510595166,-35.206995548585276
1698420175488.0,0.01666666753590107,-0.3809976147754118,1.770558597175777,-0.5909872863084078,-0.935234986965917,-2.233191598510742,-9.52592927082479,-184.13803413647355,-34.843349446984625,-46.708415978766865
1698420175505.0,0.01666666753590107,-0.3897395780270919,1.446953835041821,-1.8819763603955506,-0.9892541619231924,-2.1128829650878904,-11.00000930546224,-196.28239734870135,-45.193152171777875,-56.786626476498306
1698420175521.0,0.01666666753590107,-0.5793194987379015,1.5792182791963219,-4.517754487818479,-1.251868193054199,-1.3905825440004467,-13.839682696533202,-169.44292311832612,-36.02832579627931,-52.47288731748794
1698420175538.0,0.01666666753590107,-0.7861228318523615,1.6683181198850272,-5.708434929460287,-1.4938321983337401,-0.9548378418520093,-15.13120427006185,-118.1556883388607,-20.242880945071494,-34.996079307015286
1698420175555.0,0.01666666753590107,-0.7382392370406538,1.4871999207124114,-5.673208717778325,-1.4790180024962871,-0.911592574365437,-15.153051944732665,-70.04327574977894,-22.490655219787673,-11.272140371254368
1698420175572.0,0.01666666753590107,-0.5302443560540676,1.0895547937251626,-5.335095537820458,-1.3973159439086913,-1.1263225357607007,-14.848689058685302,-48.1160018534906,-55.02004927409328,12.218111326017379
1698420175589.0,0.01666666753590107,-1.2056048929207026,0.5341399021878839,-5.747529507008195,-2.2367828279357402,-1.5497969544008374,-15.274557678985595,-57.100255102806955,-67.18562022369399,11.867616753663588
1698420175604.0,0.01666666753590107,-1.7658450126573442,0.14673282222896813,-6.042044368258118,-2.955192963586375,-1.7748519104555247,-15.584756431579589,-71.40467588533505,-53.696392763890664,-2.5161669850386503
1698420175621.0,0.01666666753590107,-2.4829975494623184,-0.08205284478664397,-6.123029876074194,-3.768922179766744,-1.7567457604005932,-15.699678111267088,-78.12144976417974,-8.807236090370779,-29.612425165468267
1698420175638.0,0.01666666753590107,-2.268894049402326,-0.2661117735862732,-5.0913464026898145,-3.523666147204488,-1.7643772781923412,-14.701296018981933,-70.98065774166066,19.248844241571813,-42.36439517607124
1698420175654.0,0.01666666753590107,-1.8257061916410922,-0.41211306667029857,-4.117980093717575,-2.9979893182616677,-1.764526915796101,-13.759925853729246,-55.340586636747396,31.067101779424657,-45.00081062965573
1698420175672.0,0.01666666753590107,-0.5380917085535823,-0.6738730747878551,-1.499428995427489,-1.6009727226257324,-1.9035402496889233,-11.170447120666504,-25.747069142449018,19.809587404504228,-31.947175069075385
1698420175688.0,0.01666666753590107,0.2606139798875898,-0.7880407943028956,1.031178446471691,-0.7662940227232873,-1.9883846979554742,-8.647406899151205,-3.214170696748699,2.019976580282261,-18.87808108285601
1698420175705.0,0.01666666753590107,0.5486575262315571,-0.8863600795619189,2.056152193084359,-0.4921580057006329,-2.103904928058013,-7.6187985954284665,12.68953098253166,-16.14217197117924,-9.641878376757166
