timestamp,interval,accx,accy,accz,accGx,accGy,accGz,alpha,beta,gamma
1698744753.001,0.01666666753590107,-0.04731171320788562,-0.051450201252102847,0.3463192827671766,-0.6284779357910156,-7.572261885181069,-5.920260986107587,-6.687964567812399,7.770026614901091,-7.750371038017087
1698744753.172,0.01666666753590107,-0.10795322891436517,0.17890169216692448,0.1283674367159605,0.544980006762594,-5.811922776463628,-7.608174325561523,-8.310578884873301,-39.30179982394006,-1.830164556030549
1698744753.188,0.01666666753590107,-0.1494970993105322,0.18648411011993885,0.02863280476629734,0.4041710216246545,-5.772718308800458,-7.740005054473876,-14.337282530172324,-36.91139753897567,-0.2323086341743117
1698744753.205,0.01666666753590107,-0.13433953339550644,0.14087912776470182,-0.09306699075400829,0.34745836979970335,-5.786035471013188,-7.89113903427124,-17.14853375103621,-34.752460119699265,-1.018533176957934
1698744753.221,0.01666666753590107,-0.04912329267449677,0.17335691752135754,-0.14484218617677688,0.3302500818999484,-5.706130159649253,-7.9843632614135736,-17.018625260569863,-45.066838068362244,-0.9764952836072095
1698744753.238,0.01666666753590107,-0.1457803620760329,0.1411848327130079,-0.3274006472855806,0.1394621188399382,-5.7031368230521675,-8.197147933959961,-17.287379544031523,-46.78857507886613,-2.243327181236263
1698744753.254,0.01666666753590107,-0.03066900503532961,0.1759849279373884,-0.19546002825796602,0.16669619925683363,-5.630712222832441,-8.095694223132728,-19.62383528738385,-40.668326016468264,-2.843820977921094
1698744753.271,0.01666666753590107,-0.2605115058938041,0.31360359260141846,0.3208639389932155,-0.13856452154624274,-5.424810880059003,-7.630620550647378,-31.14059802998858,-24.391227073330004,-9.501840715751687
1698744753.287,0.01666666753590107,-0.41157958084810525,0.4803980828672647,0.03475216442942619,-0.3212720357369166,-5.18449288842082,-7.969698776245116,-37.9109376673991,-23.937048521828128,-13.375299050673863
1698744753.305,0.01666666753590107,-0.42001638714075085,0.4355377813994884,0.011110592079162597,-0.36017782184761016,-5.149627911266684,-8.049455619049072,-37.25755835630109,-25.36907622849676,-17.29891402599238
1698744753.321,0.01666666753590107,-0.02588896768456325,0.45660336578190325,-0.28556583111882206,0.017657136778952552,-5.0270741292655465,-8.415619419971108,-32.964388311976215,-18.165238144843876,-27.64049832566681
1698744753.337,0.01666666753590107,-0.3415875415375456,0.15151859520077704,-0.6316974823594093,-0.3078046650982694,-5.2727790746390815,-8.801534215545654,-22.776956259227095,-22.47433789786051,-14.732125520807005
1698744753.354,0.01666666753590107,-0.7014492831733077,-0.2010778681397438,-0.7749205429017544,-0.7303812284330954,-5.578488699120283,-8.97571297084391,-30.52433055174584,-26.08628194984124,-1.9874670142671162
1698744753.371,0.01666666753590107,-0.04040341339046135,0.42830958371162414,-0.6350964771479368,-0.1367688794342801,-4.849005380791425,-8.90014598094523,-28.522197200340003,-25.34936259500481,3.4535265653621563
1698744753.388,0.01666666753590107,0.21189208935452625,-0.5084352598279714,0.4922773212313652,0.05207379477685317,-5.730370866936445,-7.806893063354492,-20.810695061342166,-33.4858698400121,9.165364252895703
1698744753.405,0.01666666753590107,0.1607109691010788,-0.8040221342235803,-0.298876563590765,-0.12943661858374253,-5.99552870079875,-8.613589969745277,-6.097559600861912,-73.75805854499797,11.578343728161563
1698744753.421,0.01666666753590107,-0.26140549559146165,-0.11938041266202926,-0.26729484589099883,-0.8138789999146014,-5.321411295861005,-8.56211404953003,14.18103768404005,-94.27287322658977,-0.3110611955522347
1698744753.438,0.01666666753590107,0.08427183601036667,0.670592737942934,0.34152386518418787,-0.6607997312683612,-4.572325451439619,-7.912388158527016,20.872585112958944,-86.68637037959233,-3.6684677093439917
1698744753.455,0.01666666753590107,0.2908404105208814,0.23866788634359834,-0.03970891005396843,-0.6165070005554706,-5.045180279320478,-8.251167693439125,17.20497331169532,-62.904881123658534,0.2651409533081663
1698744753.471,0.01666666753590107,0.6194155084133148,-0.6700199064910412,0.09802315185666084,-0.42452188186645506,-6.000916239055991,-8.066663943481444,11.711589619811111,-51.00005947581224,-12.161157793623227
1698744753.487,0.01666666753590107,-0.010413695856183767,-0.7700579053014517,0.677901599651575,-1.1210850004334003,-6.124666537365317,-7.462427299499511,4.846416647756377,-31.07726851600422,-25.650399767578534
1698744753.505,0.01666666753590107,-0.44050197967812416,0.05371580809652805,0.8560054194390774,-1.5405192037720232,-5.306447535485029,-7.282114571490883,-7.586366243214033,1.2738296398771434,-30.30317244151541
1698744753.521,0.01666666753590107,-0.3264385973203927,0.6279910290569066,0.14232055874466895,-1.341351553167775,-4.704605677685142,-8.02491563655436,-17.191131933342287,16.509323667371397,-25.79220132493717
1698744753.538,0.01666666753590107,-0.3436533514935523,0.5716577319383621,-0.229686707508564,-1.2883798414368182,-4.729444935387373,-8.425794777026772,-16.79193128201714,18.194112769560103,-19.478328352400485
1698744753.555,0.01666666753590107,-0.6288854936785996,0.5763695628911256,-0.3185048086464405,-1.515829072216898,-4.698171260723472,-8.538172032928466,-10.77726669890391,13.38547859385812,-15.314004704126024
1698744753.571,0.01666666753590107,-0.9408770479734987,0.6648726067304611,-0.2369365325063467,-1.7669208982605487,-4.60973485237956,-8.462904318237305,14.455417482056864,20.144222277605245,1.181370222856327
1698744753.588,0.01666666753590107,-2.581048466108739,0.21822657133936882,1.246611003178358,-3.367893620886281,-5.105184958428144,-6.951714742389321,25.135470098503983,17.836024734396553,2.3635449139308347
1698744753.605,0.01666666753590107,-0.8612859171252697,0.7899462625980377,-0.11742577146291733,-1.609651776709035,-4.573522552269697,-8.29321527557373,9.23356625307922,1.011683991324292,-34.847440730297464
1698744753.621,0.01666666753590107,0.5986274257980286,-0.15946809290051459,-0.034005145454406735,-0.039055487646535034,-5.5434734998404975,-8.205677277374267,-0.695193195588294,23.26740994541091,-40.34553127629346
1698744753.638,0.01666666753590107,-0.23692195599172264,0.727346890822053,0.056743631485104556,-0.7664438795227557,-4.653278810551762,-8.124872971343994,-6.970025340437714,35.52386509965509,-22.433192838300354
1698744753.655,0.01666666753590107,0.12082111298963427,0.945755832991004,0.02910159132182598,-0.30376444523017854,-4.41834835717082,-8.169464977264404,-9.27217304358907,43.70113832872361,-5.183589789907702
1698744753.671,0.01666666753590107,0.3166159992251545,0.6317974356025458,-0.16172610096037388,0.014813958375435322,-4.714781034740805,-8.377162555804848,-0.15630911927957983,45.80986361231667,12.72130246122962
1698744753.688,0.01666666753590107,0.28175460226759313,0.4139619094073772,-0.07970131322443484,0.04309550201864913,-4.940134681481123,-8.29231803447306,8.326097928441216,27.773490646543422,8.284122147123256
1698744753.705,0.01666666753590107,0.41972675654441116,0.5628548322796821,0.20291443591713904,0.2135327144347131,-4.816684242901205,-7.993940068054199,13.540664760669042,8.674358175162766,2.841068838572402
1698744753.721,0.01666666753590107,0.10483162629511207,0.06541442919671535,0.34170448244810103,-0.10983416555644944,-5.340715131267905,-7.837419134521484,3.644827143966108,-7.505031496803874,2.668552774289866
1698744753.738,0.01666666753590107,-0.21243070800956337,-0.13017185578942297,0.3550549624085426,-0.44547123772436753,-5.532999452099204,-7.825747401428222,-6.55664692394291,-5.410940320394393,1.1008496563395755
1698744753.755,0.01666666753590107,-0.3226646682722494,-0.14366729717850685,0.23717794004678724,-0.5590462155106477,-5.524021195873618,-7.958326318359375,-13.665349010193978,2.693119684073933,-0.7840992066934112
1698744753.772,0.01666666753590107,-0.3065273340722546,0.060391048076748846,0.045865094596147536,-0.5196915074555203,-5.277268787273765,-8.17814454280436,-15.483902244635507,13.478708968481502,2.2208601277351527
1698744753.788,0.01666666753590107,-0.3435027275091037,0.253458043718338,0.19737726005613804,-0.5273230252472684,-5.04996926716268,-8.049455619049072,-16.149154132058285,18.281061077694364,5.273411046361602
1698744753.804,0.01666666753590107,-0.3561903596466407,0.1739203966230154,0.38955695146918295,-0.5071219578728545,-5.093064897045493,-7.881263536944985,-17.46127616030005,18.556244276712302,4.915699098489225
1698744753.821,0.01666666753590107,-0.5169857921607792,-0.2448176411449909,0.872537452045083,-0.6277298665032256,-5.4589282537162305,-7.432350725665688,-18.13539192571821,11.529393469927374,1.4935191527143128
1698744753.838,0.01666666753590107,-0.5352313872190192,-0.6078378833442926,1.4379361235886812,-0.6359599438431672,-5.787084103283286,-6.888866948810219,-13.473714392650932,-4.783737709290462,-3.8523364018007347
1698744753.854,0.01666666753590107,-0.5773921108718961,-0.8354811023265123,1.6492869639396666,-0.6997055539116729,-5.992686170849204,-6.690896399036049,-6.877620564930258,-21.63533453568907,-7.946376122855296
1698744753.871,0.01666666753590107,-0.6114820850655436,-1.1379746873706578,1.6541881799846887,-0.8002619962387718,-6.289117679375409,-6.688501612854004,1.7968289640126556,-33.56144246808371,-8.342037028643087
1698744753.887,0.01666666753590107,-0.5372773599633947,-1.4118518342614172,1.4553729960799215,-0.7968203678849153,-6.571933335003257,-6.879888108062744,6.1882171286023135,-39.17570087148328,-4.54148455980845
1698744753.905,0.01666666753590107,-0.43904999077152457,-1.4106751916974782,1.363675540113449,-0.783502566351369,-6.591535276573896,-6.955604735565185,12.834771540137394,-41.426610203028496,-0.5136217412093492
1698744753.921,0.01666666753590107,-0.20591562702711672,-1.387329387423396,1.4237129524469374,-0.6766612807342782,-6.6145794675528995,-6.860285581970214,18.232708461012553,-43.5693532437828,4.985874596456051
1698744753.938,0.01666666753590107,-0.035462577721104026,-1.5299503904193639,1.960917795163393,-0.6126164593903347,-6.7944444517940275,-6.292710735431313,16.6692405939562,-46.50026937890531,8.260685206760003
1698744753.955,0.01666666753590107,0.04998246678709983,-1.580148545783758,2.2637726147353647,-0.6428432188171893,-6.8767445493400094,-5.960365032958984,14.654071826519392,-51.63598082339169,6.804463689390721
1698744753.971,0.01666666753590107,-0.07032477839626372,-1.6289420950472353,2.5505197645932434,-0.9323919820923358,-6.9704176892936225,-5.628469412341714,18.55298969157279,-63.29830001985127,1.0804484148972764
1698744753.987,0.01666666753590107,-0.23931597498878834,-1.3953496122717857,2.623759188327193,-1.248276963629201,-6.783670544323325,-5.5075616439819335,24.85517450289229,-76.7130237761881,-3.7784533917750607
1698744754.005,0.01666666753590107,-0.1705653871066868,-1.3652262766867875,2.7359493972241875,-1.3488335064209998,-6.808061473736166,-5.336077534595131,23.386140831300533,-90.03384609181558,-6.3034927925455575
1698744754.022,0.01666666753590107,-0.05817322589680552,-1.640543100991845,2.6532249367862937,-1.4850037258423865,-7.134719778221845,-5.34355883026123,12.189328908854945,-89.67912704746014,-4.7159532044199635
1698744754.038,0.01666666753590107,-0.2712628727391362,-1.497575476515293,1.9840999333083629,-1.8605939651489256,-7.014560782402754,-5.966200899505615,9.295702191506118,-68.88473906276138,0.502507315882446
1698744754.054,0.01666666753590107,-0.24958675524294374,-1.4894167199790478,1.5370400564193725,-1.9651906501770018,-7.022043247112632,-6.376058880725503,6.887761261413612,-49.39928511550928,5.51692692706642
1698744754.071,0.01666666753590107,-0.22096724834963677,-2.4077982238322493,0.6873398746043443,-2.0560206756591795,-7.949795805901289,-7.192331424713134,3.815247620833919,-27.790171676043887,8.242588620554056
1698744754.088,0.01666666753590107,-0.43440994641333813,-3.091352150157094,-0.11347791061997413,-2.3226747394286096,-8.63857769600749,-7.976881965747475,5.0759592420798185,-15.32099369519424,3.8412983892151713
1698744754.105,0.01666666753590107,-0.6639465779267251,-3.1471558704435822,-0.7795879501909017,-2.576609899139404,-8.713845410698651,-8.623315829467773,15.899556821671217,-10.330772963991945,-4.201060247612198
1698744754.121,0.01666666753590107,-0.851343565107882,-3.035517450210452,-2.111822642379999,-2.774430665179342,-8.69484143502116,-9.886407427325844,48.80945388444907,-9.459520863654289,-13.532909080866492
1698744754.138,0.01666666753590107,-1.0132400541990996,-3.0827485724627968,-3.9072067609935996,-2.921075516863912,-8.873658956035971,-11.5880862572819,73.89011342241099,2.562379831519545,-19.440760604418124
1698744754.155,0.01666666753590107,-1.2130391345746814,-2.7284219243288037,-5.27485120473802,-3.0478185672484335,-8.711301571434737,-12.825289380645751,109.71943482703281,39.777365405280534,-26.719858834988084
1698744754.171,0.01666666753590107,-1.324580231913179,-1.327205465850234,-7.562775094911456,-3.0802900733947753,-8.067410962456464,-14.46621534347534,166.3756490866135,95.16930823439726,-33.96567696882716
1698744754.188,0.01666666753590107,-0.2957942335359752,-1.2616419835716486,-7.1542200129836795,-1.8161515968322752,-8.332419158715009,-13.77713476268351,193.52679850919472,102.86927418388694,-29.861095277675506
1698744754.204,0.01666666753590107,0.11983049451708792,-1.3382213653832673,-6.388264282304048,-1.184531417492777,-8.745269307488202,-12.681488227954507,194.73463550164143,103.0525008385617,-13.91665130655261
1698744754.221,0.01666666753590107,0.980282664231956,-1.533913448831439,-5.250464366978407,-0.11791457789316773,-9.309851986473799,-11.124060048022866,151.97243303283574,86.57329659788277,10.15346210691206
1698744754.238,0.01666666753590107,1.0520446358244866,-1.6694740119218825,-6.765860746866465,0.049230771636962885,-9.637858198437094,-12.393436425238846,119.63167855812212,84.51120784594256,19.212452993673985
1698744754.254,0.01666666753590107,1.0607099536433815,-1.242481940549612,-8.105137174260616,0.14634550341181457,-9.371502679222822,-13.513773164588212,117.2813694835857,91.22199164888515,17.177007102138703
1698744754.272,0.01666666753590107,1.2574958236776292,0.7845973027855158,-10.421600930219888,0.47898982350453734,-7.570913393181562,-15.496021917071937,143.37696781145485,108.45673775517255,15.578235694809845
1698744754.288,0.01666666753590107,2.574904848787188,2.677805251291394,-10.738595334303378,1.9176059652466326,-5.864595797508954,-15.50993909100443,160.75358377699257,145.34795550024543,24.56117584025826
1698744754.305,0.01666666753590107,4.431649737292528,5.131929757490754,-7.963055100446939,3.916614531210251,-3.6722546803027387,-12.2515793923527,188.68143499123101,159.60724580783267,57.28577328594825
1698744754.321,0.01666666753590107,6.075271515077352,5.885552660819887,-6.453187128591537,5.51983200055547,-3.116650842064619,-10.303148738318681,209.60311038130212,87.91626888305818,98.52993889096196
1698744754.338,0.01666666753590107,8.13426273097992,5.360671877625585,-2.8057790125146505,7.348703012903035,-3.820097217339277,-6.162376674817502,222.416504283111,-14.81668838537364,128.25831676287493
1698744754.355,0.01666666753590107,9.354542192071676,4.991933257779479,-0.1450260183110833,8.086865312249959,-4.362382724320888,-2.8021149370491503,197.67066061826313,-87.34654914400909,142.34366947305864
1698744754.371,0.01666666753590107,9.522200605690479,3.9753298646271227,-0.1352849610194564,7.838915948950499,-5.430346886876225,-2.3421282124392686,150.1980455091148,-114.07599585704457,148.506303274351
1698744754.388,0.01666666753590107,6.284554316982627,0.9106091162860392,-2.159091174033284,4.2205286140441896,-8.500013859447836,-3.989489176752418,143.36513792381237,-91.88876837604013,122.95326785339101
1698744754.405,0.01666666753590107,4.332998808926344,0.14935352612137795,-3.865996798726916,1.958307466534525,-9.281720116966962,-5.125388226892799,165.77463342078738,-90.97607068781883,58.6771169708257
1698744754.421,0.01666666753590107,3.183891902166605,0.6174585291266441,-2.13826275940761,0.663194444385171,-8.82397751802206,-2.960282030353695,156.12835725597836,-105.44163270834046,53.7568570135182
1698744754.439,0.01666666753590107,1.9742931173041463,-0.4071744412243366,-1.423061210539937,-0.7181108604431152,-9.830291572350262,-1.7782943425269797,168.94613613923443,-179.7881188805242,89.79372396135462
1698744754.454,0.01666666753590107,-2.3121964539036153,-0.09565583820343017,-1.1948095773357896,-5.32126195051819,-9.418487717759609,-0.7468426320718601,207.98111803834252,-285.29339529155084,101.70604515690958
1698744754.472,0.01666666753590107,-4.833767479649186,-0.4996311911255121,-1.297144235716015,-7.95473501586914,-9.71043185173869,-0.035765433125197886,264.0129573851356,-340.9324441195549,47.38600489537798
1698744754.488,0.01666666753590107,-8.315492573833465,-0.47387598762214184,1.5071499450683592,-11.287464019067585,-9.564835047802328,3.673301997398585,271.6836423136535,-341.37990347246074,-33.79975459841462
1698744754.504,0.01666666753590107,-7.659545031836628,-0.5517617758572101,5.160621014446019,-10.127622660064697,-9.491063709148763,8.349327915678918,194.53724303462806,-277.83914539745234,-87.96021432017805
1698744754.521,0.01666666753590107,-7.147921205100417,0.26425182493329047,6.169245099282264,-9.169343445587158,-8.58725258243978,9.875331614299117,128.52671587649976,-267.09383715367494,-82.63554910739785
1698744754.539,0.01666666753590107,-4.376759332458675,3.058430123764276,6.834961171099543,-5.954080253601074,-5.725432826012373,10.900199270188807,94.3043877194202,-267.99706136951744,-68.03885428500115
1698744754.555,0.01666666753590107,-1.7006949334852397,3.7250796770393846,5.6543532106608145,-2.6976670859072356,-4.944924838367104,10.127322508074343,108.94282182783485,-213.59392161144888,-71.34513029615088
1698744754.571,0.01666666753590107,-0.8098158421289176,3.7593957881391047,6.909553763008117,-1.4832081476625054,-4.807106851738691,11.635219179856776,83.95320188132003,-58.337274078482544,-71.930518489156
1698744754.588,0.01666666753590107,0.7415485077191144,5.031628723829984,6.193159643355012,0.2582741387631744,-3.474735381427407,11.048940801891684,13.987241311624693,40.359502428240724,-59.09331454790043
1698744754.604,0.01666666753590107,0.21948190516270696,4.782395604330301,-0.48562633890956636,-0.1803134951936081,-3.740039930284023,4.349513013614714,-28.784213502185445,-21.047938267067973,-45.878240636097665
1698744754.621,0.01666666753590107,0.01962680201726034,3.8202076919764276,-4.649520042540133,-0.19168604441089554,-4.742762682121992,0.1255436114668846,-6.632260106262713,-124.83815417750442,-37.32556996496149
1698744754.638,0.01666666753590107,-0.9498989241451025,2.276625666567683,-8.00124776071906,-0.8351279049746692,-6.1834741156429045,-3.0430320636242625,127.56837203405527,-93.98127879054358,-49.53524003093838
1698744754.655,0.01666666753590107,0.2856213606983423,1.9881325498253106,-7.058010632550716,0.5454286638455466,-6.282833484539389,-1.7955039456009865,151.30679011708295,27.32644281253504,-35.66024007171815
1698744754.671,0.01666666753590107,1.005486371332407,1.7987743455737828,-5.79791237128973,1.1367964647709856,-6.280289645275473,-0.24076865801513195,110.66521795159365,175.80426078295253,6.161275447421199
1698744754.688,0.01666666753590107,0.9459328700583428,2.8031010254770514,-4.610229357898235,0.5874769766325131,-5.185242830005288,1.0667664772033691,25.3462890098783,214.4731035614129,32.54582748944866
1698744754.704,0.01666666753590107,1.4670638722650706,2.136287806072831,3.412125488257408,0.7936774850156157,-5.802197501263022,9.13028627744019,68.81662158616884,94.46303252327209,22.796866260657684
1698744754.722,0.01666666753590107,0.8957979891885072,3.0491701279878614,6.322664559668302,0.11282660710439085,-4.779423310521245,12.17675649881959,69.21735561496266,-21.921405056244005,42.15033363238846
1698744754.738,0.01666666753590107,-0.17271211681179702,0.8512082482904195,5.855286701893806,-1.027412225805968,-6.880637465125322,11.826757650756836,20.85906304594961,-42.96852540815887,58.352450758818314
1698744754.755,0.01666666753590107,-2.759958633843064,-1.6374778682023285,1.3876497054189443,-3.670760350091755,-9.347562416186928,7.378928347557783,1.5567102486462725,-19.111072495823485,38.617530982320666
1698744754.771,0.01666666753590107,-3.4059549829289315,-2.1708897483766076,-0.4063683855384588,-4.351761011737212,-9.872788067296147,5.590010210087895,8.584946730059066,3.5364604298117435,3.567908328297775
1698744754.788,0.01666666753590107,-3.163313224518299,-2.103365195158124,-1.8813649504989385,-4.092588828155771,-9.758168000903725,4.177581452721357,43.997148482068205,11.264738153741366,-28.245875067277964
1698744754.805,0.01666666753590107,-1.1984713147137314,-0.6997767468512058,-0.4513543592125177,-2.089838920239359,-8.282889111870526,5.702687910240888,54.63725473715451,5.102888543543063,-25.906823852041033
1698744754.821,0.01666666753590107,-0.19494857160449028,-0.30231881299912927,0.37850247349143024,-1.0540475000794975,-7.809436318096518,6.629543227928877,45.598496578261454,2.02187195777694,-14.994073520760749
1698744754.838,0.01666666753590107,0.29277495878003534,-0.06389291871786117,0.7598755339831114,-0.5448308075502515,-7.491605463188886,7.107932893583178,34.686077511155915,-1.4162324673261508,-9.106576814709403
1698744754.855,0.01666666753590107,-0.3921731253169477,0.0332312384724617,-0.5073042099714279,-1.2057800302919,-7.341519531139731,5.905296641209722,36.26096545450453,-6.924701485765979,-13.408304232290657
1698744754.871,0.01666666753590107,-0.6923949660368264,0.032203064468503,-0.9958990432977676,-1.4628575066164136,-7.282263624572754,5.49065084119141,40.3520131258158,-6.440823137318773,-21.688347048932123
1698744754.888,0.01666666753590107,-0.7804043080750852,-0.21012509794831274,-1.134300382772088,-1.4851534365113823,-7.447014041790366,5.446058250749111,34.2396973281389,-1.6368277272802874,-24.361169118340072
1698744754.904,0.01666666753590107,-0.4786576689407229,-0.020341946282982824,-0.4862579148113727,-1.1418849196169525,-7.210137715038657,6.149804485753179,29.135083734943585,-0.24141143538851395,-23.3407081204889
1698744754.921,0.01666666753590107,-0.32344277650527653,-0.16181436376571653,-0.3095505178183317,-0.9451113245423882,-7.3085986737906925,6.376803561612963,26.740168402485118,-0.5814315391241185,-23.38973351080396
1698744754.938,0.01666666753590107,-0.4096299446176737,0.07284311789274216,-0.25388649826347826,-0.9744403679445386,-7.019948905181884,6.494719746941327,26.496933413309915,0.5618421830585517,-26.3599334789378
1698744754.955,0.01666666753590107,-0.5980478358117863,0.45354923890829085,-0.5650462048441172,-1.1185412707673386,-6.599317016491294,6.2288131405383345,25.840541988787937,0.8873043789085088,-27.29135954586327
1698744754.971,0.01666666753590107,-0.45681941968537865,0.4894552495479583,-0.7261112115472554,-0.9343375632021576,-6.52464843673706,6.110899293297529,23.079480705492593,3.170422267897709,-25.650551739287568
1698744754.988,0.01666666753590107,-0.06360478595886379,0.16737901215553283,-0.7362585115522146,-0.49679717327598477,-6.800729815673828,6.150553842815756,21.97105370132083,3.774359120254461,-21.350259515205664
1698744755.005,0.01666666753590107,0.044740328349918125,-0.06848959885835647,-0.6310685368061065,-0.3633204307222739,-7.002142030334472,6.291960209324955,21.78366063125236,3.4221708744299204,-18.545816285396985
1698744755.021,0.01666666753590107,-0.0860293472021818,0.018543372428417203,-0.617555559760332,-0.46986233153399076,-6.878990282440185,6.342837579125166,22.594233331003622,3.946155026466384,-18.966668636391077
1698744755.038,0.01666666753590107,-0.454424743101187,0.4029962787568569,-0.8596861537784337,-0.8007111465120688,-6.442348339191079,6.1539955077022315,24.068275238804294,1.3807931770438933,-20.652231257503285
1698744755.054,0.01666666753590107,-0.2189806045770645,0.5166168127179146,-1.0068751953423023,-0.5374985284334048,-6.293457754406333,6.042364686253666,19.163823754330785,1.2077268556463483,-17.19262091458135
1698744755.071,0.01666666753590107,-0.0667318684708327,0.6140063428461552,-0.926126418891549,-0.3657146689150482,-6.170158122473955,6.148908413696288,12.54347336354646,7.529556144792451,-16.00289075362434
1698744755.088,0.01666666753590107,0.1879508947368711,0.8071469882458447,-0.519762125006318,-0.10833806351348757,-5.9608156993359325,6.570886456298828,5.277145025403483,14.13759511959783,-14.455011085801248
1698744755.105,0.01666666753590107,0.20647848507426678,0.948103857421875,-0.4312479752510786,-0.09621725321216508,-5.817459367802739,6.661414283964038,3.4622190482980555,13.066213353936922,-13.13547659476273
1698744755.121,0.01666666753590107,0.03629701925124973,1.007552656212449,-0.5686316621154547,-0.26650490108970554,-5.752967898669839,6.528836536076665,5.460686295666889,9.11453569263976,-13.126120943147104
1698744755.138,0.01666666753590107,-0.21532990004979072,0.9278741393417119,-0.9984154100328684,-0.5090675481158309,-5.823897291895747,6.1077574881404635,5.040691560300457,4.264713768695309,-13.190895042140921
1698744755.154,0.01666666753590107,-0.24279461088478563,0.8775421284645796,-0.8062076615691185,-0.5252283727892674,-5.8744724638789885,6.300190277531743,1.3745977685798687,3.3027377597162544,-15.655387804127017
1698744755.171,0.01666666753590107,-0.12328193187890574,0.9241641789078712,-0.5896405478745699,-0.3814265442445874,-5.831227196392416,6.514470741593837,0.1554866817941883,-2.946557695208664,-17.086862265472874
1698744755.188,0.01666666753590107,0.16544682025024665,1.0941817228734492,-0.7236176411658525,-0.049081499359384176,-5.663785055872798,6.379499376568198,5.031807191737563,-7.250240681326658,-15.692590136988784
1698744755.204,0.01666666753590107,0.5032109493084251,1.16191728849411,-0.7751110970377921,0.31259273505844176,-5.596745071300864,6.328022287309169,6.129356692769259,-7.2201050329349155,-12.692695067664667
1698744755.221,0.01666666753590107,0.6426584368348122,1.148875436091423,-0.7889373778164386,0.479588246055413,-5.605723912048339,6.318745340397953,3.6840781066920556,-8.327998428577772,-9.515723929013385
1698744755.238,0.01666666753590107,0.4763572830438614,1.351321669974923,-0.8607277717858552,0.35060059508187696,-5.402067133331299,6.248864579442143,1.1309827434103794,-8.528023079742534,-9.092400757087042
1698744755.254,0.01666666753590107,0.347980895836465,1.29701841737926,-0.5879910271018743,0.25109154291586017,-5.460726243048906,6.51791532908976,-4.642342548187443,-8.584417390398391,-6.952599393430896
1698744755.271,0.01666666753590107,0.2904493836429901,1.3495821328312159,-0.29822774429321286,0.21996688023463357,-5.423313919499516,6.7935448726058,-10.241063551885706,-6.983106006471935,-8.159022109832595
1698744755.288,0.01666666753590107,-0.024477287955465724,1.3080319788247345,0.13418284499645233,-0.05386982961446046,-5.496785982945561,7.195621113908291,-15.812555579570887,-9.915716882282256,-9.137018114066503
1698744755.305,0.01666666753590107,0.03891673676297069,1.1062070917099713,0.2868932803303003,0.043245044865930685,-5.7332163194954395,7.314885206714272,-21.15066089709038,-12.2825994108397,-6.02634548725442
1698744755.321,0.01666666753590107,0.09549041850864887,1.0445745191395281,0.36378304326534266,0.1316806757500628,-5.836913425335288,7.350496618321538,-24.397010536009713,-14.275433459690564,-3.4595414006999987
1698744755.338,0.01666666753590107,0.00019874657564796506,0.8617962778002023,0.33010464554727076,0.0869391281240154,-6.0812728013187645,7.255178049248457,-26.739326581669914,-19.766133741004605,-4.999047470044067
1698744755.355,0.01666666753590107,-0.07133568160501308,0.7177630699187517,0.14812953728437422,0.06165039135492406,-6.276995864427089,7.020243504214286,-31.093329705837508,-22.52043484456893,-3.96668358690368
1698744755.371,0.01666666753590107,-0.05434199543716386,0.8285223692297935,0.05716098011434078,0.1265929926556535,-6.22522242256999,6.867615486466884,-34.7111579657882,-25.8391605830283,-1.9413850085975095
1698744755.388,0.01666666753590107,-0.1433242741608061,0.9561083001792431,-0.399066538092494,0.10848687913333996,-6.178987325617671,6.323834187969565,-33.236062501308055,-31.394674236923883,-1.3716214069273298
1698744755.405,0.01666666753590107,-0.2635864198271185,0.802351570662856,-1.2089514268696306,0.04893098497278988,-6.386382121819257,5.453988459226489,-28.312935572096443,-34.20103845743663,-2.334435714905298
1698744755.421,0.01666666753590107,-0.44712716997154056,0.8605185129493474,-1.4861369676560163,-0.06958188760709016,-6.373665848109126,5.124040465545654,-25.0659046218074,-32.606042437171496,-4.217873185141008
1698744755.438,0.01666666753590107,-0.36344668745044617,0.7216074703872204,-1.4794991370767354,0.09651585256624966,-6.568044510871172,5.064184839519858,-24.374494817410767,-28.468474347423268,-5.769935063170264
1698744755.455,0.01666666753590107,0.026718166784010827,0.5084428586125374,-1.1703139454394578,0.5434833019314333,-6.822277046093344,5.323056724980473,-25.25911018285955,-24.969972907367282,-5.769952565530011
1698744755.471,0.01666666753590107,0.2577566176950931,0.5011322433382273,-0.8343307632476091,0.8222583403989672,-6.874802183100581,5.603628985595702,-29.352382788292957,-20.727643376129397,-3.7559124868535494
1698744755.488,0.01666666753590107,0.6797801068745553,0.521824902755022,-0.44857612667083735,1.2909230596462264,-6.9229837379455565,5.905296641209722,-31.107697008756627,-17.06462999972448,0.773978467169039
1698744755.505,0.01666666753590107,0.7718378475207835,0.23320436024069785,-0.8317097670942545,1.4009068080075084,-7.2608642781913275,5.462218527433276,-28.071578884942994,-11.962564067089582,5.478370082314875
1698744755.522,0.01666666753590107,0.8245978161972015,-0.12842471986114978,-0.9064981738358735,1.4532799693234264,-7.669075661247968,5.33158606839478,-27.831822169602624,-5.477795065764124,9.004585014928187
1698744755.538,0.01666666753590107,1.0120673571579157,-0.7450713480830192,-0.7954770087182521,1.618779086016491,-8.347683363342284,5.369146275982261,-26.72918887339432,1.099233569548927,10.077827153364277
1698744755.555,0.01666666753590107,1.0542029098369181,-0.9466542431354522,-0.6322632995486259,1.6373341123500837,-8.591442435345053,5.482270550858974,-23.801462436614205,3.181626766344292,9.886482818860955
1698744755.571,0.01666666753590107,0.9879958689577877,-0.9105074094772339,-0.5782195746719837,1.5444090873500331,-8.592039816716312,5.492594376474619,-20.290022910722925,4.924345264204814,10.172169995048725
1698744755.588,0.01666666753590107,0.6689128220319748,-0.5706389102846384,-0.6318237390875816,1.188571084805019,-8.289623973083495,5.394584084099531,-13.36238316295337,5.775762495192754,8.9883650231967
1698744755.604,0.01666666753590107,0.5743206675373017,-0.2895201217025518,-0.7672855179786682,1.0660179603910074,-8.027308669170736,5.237314378026127,-8.849275904712206,5.9734550636427795,9.796058798212803
1698744755.622,0.01666666753590107,0.5301652994684874,-0.06265899300873279,-0.8991197540223598,0.9911992681089788,-7.812877982982993,5.091866627171635,-5.32742802429947,6.311168644512183,11.038580345038488
1698744755.638,0.01666666753590107,0.4218106866789981,-0.33719840320050715,-0.8264742045283318,0.839017752020061,-8.099882906994223,5.151568523940444,-6.261515730567129,10.463258143322681,9.057701688556085
1698744755.655,0.01666666753590107,0.3216770454743877,-0.7689186721384524,-0.01905249099433422,0.7022489456510171,-8.545654497638344,5.943154954960942,-10.193452864502484,15.54631480572379,7.035483739009001
1698744755.671,0.01666666753590107,0.19137341653145848,-0.6427542984247208,0.2878781997144222,0.5223846555296331,-8.441208034735917,6.224624456676841,-8.315054366326951,15.828808014700932,4.709601128491851
1698744755.688,0.01666666753590107,0.16729005523044616,-0.5904314059913158,0.07686521301567555,0.46851502684457225,-8.398261457934975,6.002861527904868,-3.2025796522837755,12.4072460943242,3.4083173298024305
1698744755.705,0.01666666753590107,0.09775615321723743,-0.5912345390677451,-0.5176777199476957,0.37603891465580086,-8.401253040966392,5.406554507878423,0.6962241272661427,12.492649925932394,0.7147899688124125
1698744755.722,0.01666666753590107,0.18361118503212928,-0.5440525166541338,-0.7629483655571937,0.44158020336888726,-8.348281329235434,5.169827818730473,5.361337779094468,10.848728406868814,-3.7464069979630072
1698744755.738,0.01666666753590107,0.2087307575130835,-0.4450853619456291,-0.7424053437441587,0.4623797937588766,-8.239346322742104,5.20364650170207,6.592433700099192,8.744755227390794,-6.275139396640365
1698744755.755,0.01666666753590107,0.3380623265534639,-0.33427404018640516,-0.22070494415163994,0.6054334525510668,-8.126069487652183,5.727976665276288,3.7179528567675573,8.155887906777206,-5.964790968680618
1698744755.771,0.01666666753590107,0.31433906726911665,-0.22117782236039638,0.02593231363594532,0.590619311512541,-8.01907801644206,5.966198561418056,1.3363997222031607,7.939896834653893,-5.594840602476048
1698744755.788,0.01666666753590107,-0.077560246075131,0.26948914106488225,0.38941725073754785,0.20934264233373104,-7.566424265068769,6.278941153275967,-1.037737214304777,7.249410813342501,-4.399666353863713
1698744755.822,0.01666666753590107,-0.30490187002858143,0.5808154363840818,0.17956044833660126,-0.008080777662899344,-7.303959323552251,6.003008827421069,-1.1231100966182934,6.649388940040636,-1.692619807350419
1698744755.859,0.01666666753590107,-0.26879551451122385,0.812103733870387,-0.4877753336369991,-0.006883731631748378,-7.088930086949468,5.315273816019296,2.274157587932643,8.525024626696899,4.06034127523701
1698744755.876,0.01666666753590107,-0.3848119488991797,0.5085667772531509,-0.14381050504148005,-0.15577309257378802,-7.3775839472115035,5.680841404613852,-2.7086201580650417,9.726437826229217,3.8182307059539227
1698744755.888,0.01666666753590107,-0.3784446058243513,0.470016974106431,0.021176059019565582,-0.17148502270225435,-7.413046890258789,5.850828553441167,-4.920753011588211,9.131228674971272,4.7924730943520855
1698744755.904,0.01666666753590107,-0.6368969506986439,0.5349801524043083,-0.0028840310037136076,-0.46956312939170747,-7.344063370403647,5.833471760448813,-5.499213685227638,9.145663426008447,4.925377049656309
1698744755.922,0.01666666753590107,-0.6525783578246831,0.3917103301107883,0.03698737613558769,-0.5229838178660254,-7.4963944510310885,5.8620513737231486,-8.691311558456382,10.204925020987167,3.905876547157172
1698744755.939,0.01666666753590107,-0.5178605291686952,0.3061275576323271,0.12279635858535766,-0.41449636334395035,-7.59740041809082,5.9274430065661665,-11.833871350295494,10.052216505297668,4.342796491286895
1698744755.955,0.01666666753590107,-0.21280469242110847,0.13401917886734008,0.34137188949286934,-0.14814164784727618,-7.791779080852866,6.116135440385341,-12.524663022572245,9.452784589585363,3.8651216621533524
1698744755.975,0.01666666753590107,-0.0968745663434267,0.06841770266592502,0.5765910966873169,-0.07122793549777706,-7.873032884216308,6.330117798283696,-11.428193118316234,8.33533319797272,3.5178443223420506
1698744755.999,0.01666666753590107,0.0005668403879346442,0.03988075948953628,0.6375631595224142,-0.0016463166052177256,-7.9061010410815475,6.38488516125977,-10.962382754657826,7.0065625836290515,5.2967152249228615
1698744756.011,0.01666666753590107,0.2057230635970831,0.2988531827151775,0.385714889088273,0.10100505374427884,-7.637652348980307,6.145165135514736,-9.032794549973987,-1.0758162659795385,8.513129852257322
1698744756.026,0.01666666753590107,0.2169763155499473,0.3362146528601646,0.23383213675022124,0.08663994424804114,-7.595453375676274,5.999417524930834,-9.00481211871809,-6.404735832839011,8.744270283959723
1698744756.044,0.01666666753590107,0.2026491908433847,0.3271446266978979,0.0789320824176073,0.06748617570316419,-7.596802452197671,5.85501899086833,-8.10896877604745,-9.531337741456033,8.784050159459523
1698744756.064,0.01666666753590107,0.13625482896491883,0.3299152604550123,-0.18607669836282728,0.009426849376456811,-7.576002240753174,5.614850052312016,-6.197864343918134,-15.230717377386888,10.583000750983114
1698744756.075,0.01666666753590107,-0.05439471200508997,0.3173977241873741,-0.43712651189565654,-0.17313099067783913,-7.58482910580933,5.368995469334721,-5.240412268047154,-16.291006915835695,11.795446413572295
1698744756.087,0.01666666753590107,-0.18668869278132916,0.34849428871870036,-0.5131020825952292,-0.3049618383212015,-7.560140070232748,5.284300585606694,-3.999593572758917,-15.208812960718658,11.046485435229132
1698744756.104,0.01666666753590107,-0.34865590902119875,0.37803193337023255,-0.5410533348381519,-0.46761778574390334,-7.537842898228764,5.246441687333584,-2.700249974680603,-15.904339661637518,12.274024962110396
1698744756.126,0.01666666753590107,-0.6065085344366729,0.31639351558089257,-0.7529232306271791,-0.7273886750040109,-7.602635980656743,5.030215349900722,-2.1456234595933465,-14.815274536215448,12.16701553461016
1698744756.138,0.01666666753590107,-0.6848368057422339,0.17477087597250937,-0.7242062547087669,-0.8102879348863847,-7.748981557133793,5.052361715257168,-4.481177831418646,-12.475125368069435,11.845299110550572
1698744756.158,0.01666666753590107,-0.5773829777173698,-0.030887305694818495,-0.6775625769555569,-0.7113775609995704,-7.964161600384116,5.085731485417485,-5.191888469749268,-11.308546133304182,11.520194912662658
1698744756.183,0.01666666753590107,-0.38118192183375355,-0.08269757243096829,-0.7050105558514594,-0.5228340067323297,-8.023717951202393,5.047423674333095,-5.4726536408663975,-9.977187731038725,11.615135395899483
1698744756.189,0.01666666753590107,-0.34091406272277236,-0.15076047030985354,-0.695546561935544,-0.49335539879165585,-8.100480872887372,5.04458055986166,-6.768995797691314,-7.229797071367163,11.053611883854394
1698744756.205,0.01666666753590107,-0.16990681360010057,-0.38571430456638334,-0.6972469361126422,-0.339079193712119,-8.34992909644246,5.022286310467123,-7.861645918653995,-5.21412628502636,9.853859274064035
1698744756.22,0.01666666753590107,-0.0756378814441152,-0.5557745186299086,-0.6705009680062533,-0.25917267677178607,-8.531439509803056,5.032610720604658,-7.897122774976688,-2.6125486381903467,9.880623370326731
1698744756.237,0.01666666753590107,-0.0518329717583023,-0.6560667844623327,-0.6798480575442314,-0.2530376263491809,-8.641722423774004,5.008669288524985,-5.803256994809817,-2.4935255482702927,10.444999340123946
1698744756.254,0.01666666753590107,-0.24520353519003837,-0.8849731552481651,-0.8548644327104091,-0.4700120239366777,-8.878446190312504,4.821770167863368,-3.1159184255380654,-1.2034307733801162,9.252843608237933
1698744756.271,0.01666666753590107,-0.40351507846657186,-1.190920095616579,-0.8861427835494279,-0.6492778549745678,-9.192687496295571,4.777927519005536,-1.154700895468366,-0.3079346230988085,8.580863984482692
1698744756.287,0.01666666753590107,-0.4092977535212412,-1.3294979607015847,-0.9383148693352937,-0.6748658852174878,-9.336489233508706,4.717473342564702,0.5640882480784281,1.5358807329986723,8.156104765283354
1698744756.304,0.01666666753590107,-0.47138928537294267,-1.318778998288512,-0.7866939828038215,-0.7652471988177858,-9.33409386280477,4.855888710564375,1.3965721946870921,4.096737645776716,7.273461616957409
1698744756.326,0.01666666753590107,-0.3638542453380301,-1.2338789473772047,-0.8418371933549642,-0.6857894668245688,-9.256582753100991,4.788702010998129,3.257581458122596,3.792835208846169,7.430660128252544
1698744756.337,0.01666666753590107,-0.34181334965005516,-1.2319599620133637,-0.8514894033193587,-0.680402440023981,-9.260322524151205,4.76999614148438,3.461194733365965,4.7953831818253345,7.067881887563311
1698744756.354,0.01666666753590107,-0.2716199060158804,-1.4291957677721976,-0.789162418743968,-0.6456865524843335,-9.462633733478189,4.822818800133467,4.852699994905966,5.875712495298958,7.124734674667204
1698744756.371,0.01666666753590107,-0.3690204689947888,-1.6245628570497035,-0.7228145080894232,-0.7707834796296432,-9.659106153649091,4.8856654246687885,5.915609764675119,5.090516936522055,8.387596097954365
1698744756.387,0.01666666753590107,-0.5267004729021341,-1.5855279007345437,-0.6346493179023266,-0.9557356674745678,-9.613765375187992,4.98083435613811,6.1282984403347305,5.048843391074868,9.284813162421825
1698744756.406,0.01666666753590107,-0.6562440407253801,-1.5792816998213528,-0.5354454318284988,-1.1243772103792056,-9.599250527623296,5.088723068448901,6.980421315241297,6.348355609448317,9.59105750046404
1698744756.424,0.01666666753590107,-0.4930057085711509,-1.6911328860223291,-0.18095570208728312,-0.9920977147860452,-9.70429846355021,5.450248688176274,6.374402962734984,7.74529791501106,9.673424459212516
1698744756.44,0.01666666753590107,-0.3014413725774735,-1.9373229845643043,0.2681511704593897,-0.8469493122043088,-9.941174790301918,5.908291146850585,4.934137194153674,9.062335971907938,11.69152081648232
1698744756.457,0.01666666753590107,-0.2907265748828649,-2.07235747795403,0.41127778488993644,-0.8747816873079165,-10.068367338019609,6.05867693862915,3.350456449465725,9.879809724041852,12.257911692084688
1698744756.474,0.01666666753590107,-0.5793504053328186,-2.378490880805254,0.8496393915385008,-1.217601547119394,-10.369138337054848,6.498760546764731,0.45439103441808626,12.25988647052847,9.44109386704724
1698744756.5,0.01666666753590107,-0.5998789602290838,-2.2754513620913026,0.8806798419684171,-1.2819455706056206,-10.25945163541138,6.534074436730146,5.204050475340122,11.954707641996775,5.593866019858852
1698744756.513,0.01666666753590107,-0.7688543016653507,-2.4179110370457173,1.105021681317687,-1.4769233683045953,-10.392031136864423,6.769153943192959,7.532949041262656,14.390281383037037,1.2669437419767127
1698744756.559,0.01666666753590107,-0.3007261369802058,-1.9367519066780805,2.0411025079905984,-1.0652705395571886,-9.867702142333984,7.7582590885668985,15.349106753818011,22.31602435818337,-8.50565250266345
1698744756.57,0.01666666753590107,-0.14487046242319046,-1.3029057218521833,2.2376444862663742,-0.9238630040042102,-9.212140384784341,7.9828657163321965,17.145692392341488,22.503226182955082,-9.66316722262645
1698744756.587,0.01666666753590107,-0.07040069317668676,-0.9661188220620155,2.180025825512409,-0.8623618027284741,-8.850914624786377,7.956978410881757,18.123816462622333,20.17758945924805,-8.63599129504751
1698744756.605,0.01666666753590107,0.0877398774471134,-0.5204132823914289,1.7302905919343232,-0.7176623860232532,-8.368034661975502,7.555799995201825,21.769797054784526,15.79873127669078,-8.537435080418811
1698744756.621,0.01666666753590107,0.1299870738070458,-0.0898947904586792,1.2299106282681227,-0.6771101570129394,-7.903257342088222,7.101048979288339,26.328237986094354,12.513177205709221,-9.422765054409512
1698744756.655,0.01666666753590107,0.13927556502558291,-0.04349018215835094,0.8295271623581647,-0.6621468350283801,-7.81362792456746,6.758530257847905,32.756415881938494,6.1494387295895665,-9.836614753957045
1698744756.655,0.01666666753590107,0.24562245472185312,0.16870587684512137,0.191614458745718,-0.5324111786991358,-7.526174087744951,6.221033154186606,41.743838339029736,-2.57115918592395,-10.170373655297011
1698744756.67,0.01666666753590107,0.3451313150916248,0.23279051874279974,-0.19483458983600138,-0.404919794165343,-7.3949419092476365,5.922804825371504,45.45939977581414,-6.631187339676198,-10.40520238915122
1698744756.691,0.01666666753590107,0.2790125370178371,0.23122341555655002,-0.3589285889714956,-0.4361937610901892,-7.323112936833501,5.853221586057543,48.47970259660461,-8.786374985098266,-12.095722020053566
1698744756.704,0.01666666753590107,0.23697145768925545,0.4200356763631105,-0.509178187149763,-0.4239234045166522,-7.028177219823003,5.835713986417651,51.59233249950073,-9.31826913652384,-14.035865428326014
1698744756.72,0.01666666753590107,0.3113941729236394,0.5480325262010097,-0.6431780767947435,-0.3067571607727557,-6.815542184880376,5.8039908144205805,52.51612924512329,-7.577913030342495,-14.934241063631438
1698744756.737,0.01666666753590107,0.30738113788999616,0.5934983923465014,-0.630799072214961,-0.2717421806886792,-6.685059947967529,5.915772442516684,50.1379598289624,-3.929465886116281,-15.704549798225475
1698744756.754,0.01666666753590107,0.22067871373184025,0.607154577255249,-0.6226672036856412,-0.3149874847078696,-6.565350449481606,6.043562371605634,44.44806391069411,2.053780040258301,-16.681982311852856
1698744756.77,0.01666666753590107,0.08471366149373352,0.6818845318078994,-0.4951853176325559,-0.42601862323023376,-6.419902114105224,6.248266613548994,39.5880974482849,5.381693877255222,-16.87493003326384
1698744756.787,0.01666666753590107,0.04656951653845608,0.613924509781599,-0.45949967174530026,-0.44397498955093323,-6.424090213444829,6.351963134866953,35.307542763357034,8.735960505060756,-17.905462145046194
1698744756.803,0.01666666753590107,-0.03030128596778959,0.536683449190855,-0.07605740376412869,-0.5047278201447799,-6.42947775170207,6.810005009019375,27.114397882204702,15.888672915228803,-19.281120300494706
1698744756.82,0.01666666753590107,0.1032238257722929,0.5748112275332212,0.4612269339293241,-0.3675102836275473,-6.350320043835043,7.3888026758402585,22.01541407243277,17.58725046180447,-18.319419420073157
1698744756.837,0.01666666753590107,0.17128307038936763,0.5926543427377939,0.5331885928124189,-0.29807828935254366,-6.297048472374677,7.4960934222579,19.70429833090119,15.155032051193977,-16.253866054676458
1698744756.853,0.01666666753590107,0.13185622867979108,0.6039192485958338,0.4052823438674211,-0.3333929465029388,-6.242731775775551,7.410800572636723,18.339773383799795,12.349992887380216,-14.188270854371094
1698744756.871,0.01666666753590107,0.05246208170838654,0.6516629965454339,0.5366641599684954,-0.40895971720591184,-6.163871589550376,7.572708459904789,18.31492515559929,11.534147281589702,-14.27690792677764
1698744756.887,0.01666666753590107,0.10363657129164784,0.6479249790608883,0.5719131680041551,-0.3523969952456653,-6.134693425861001,7.640045966118573,19.40958591349889,9.297557441639421,-13.39240099058193
1698744756.903,0.01666666753590107,0.3862072391824797,0.7647492774993181,0.5849725560635328,-0.05716200302764773,-5.970242283850908,7.699303041729331,20.838355619933424,4.382334748844806,-10.960408829987692
1698744756.92,0.01666666753590107,0.5011521170824765,0.7836153060108423,0.528065258449316,0.07032941803876311,-5.913528462982177,7.678802105492353,21.212287986424112,2.059229890885736,-9.604528341054598
1698744756.937,0.01666666753590107,0.48233909739982334,0.8093839535176753,0.4935077398091554,0.06569046965911984,-5.849633790698647,7.68059717221558,20.766592529871392,-0.08162524289329519,-8.5840963715074
1698744756.954,0.01666666753590107,0.3860942072620615,0.7937275347024202,0.4831897594124078,-0.0070333327028900385,-5.81566605464518,7.717259554180503,19.316671435124626,-2.8470823932497753,-8.134435136367841
1698744756.971,0.01666666753590107,0.2855475282771513,0.8617594529211521,0.5645715730696916,-0.08738872592188418,-5.7140615371704095,7.830235360497236,17.26026198547928,-3.2973527958859337,-7.926473805387525
1698744756.987,0.01666666753590107,0.24934644368104636,0.8882704432278871,0.5658037452131509,-0.10444737621787935,-5.65660186637044,7.860313103374838,15.804902352605888,-2.179947294606776,-7.84265799276136
1698744757.004,0.01666666753590107,0.28781773823145773,0.9117711458027362,0.7201911738485097,-0.04459226164873689,-5.598989635357261,8.046161838200687,11.704977996694538,-0.36722400014782486,-7.190191365691198
1698744757.021,0.01666666753590107,0.4387603601751849,0.9664519995391369,0.7712363014310598,0.116866639742814,-5.524769968414306,8.11499572045207,9.167945210628321,2.4140108338305315,-6.352011041314744
1698744757.038,0.01666666753590107,0.553481768050231,1.0081909541159868,0.7882195849359035,0.23493081870712337,-5.463417966350913,8.149410031229257,6.767132863595193,5.166543345286644,-4.461335704992935
1698744757.054,0.01666666753590107,0.5717683527059852,1.0456143835812806,0.8202817796289921,0.24839820304550228,-5.41403814163208,8.19175922665894,5.84635719601989,7.124814075616305,-3.420065895505087
1698744757.072,0.01666666753590107,0.5133440746575594,1.0854314301848411,0.958075800859928,0.17537505241073667,-5.360617517089843,8.340797695481777,4.815475037042573,9.115431301194679,-1.972876662982911
1698744757.088,0.01666666753590107,0.38852753535620865,1.1054279240310192,1.102804005268216,0.04578892408739775,-5.307344192063808,8.514226509195566,3.2491265377037664,9.88715815381514,-1.3341431984561178
1698744757.104,0.01666666753590107,0.3756026603966951,1.104937510165572,1.1220704312741756,0.028131577245891094,-5.2801119017452,8.557173670518397,1.0267859664660135,11.25092494991866,-1.4527797423578312
1698744757.121,0.01666666753590107,0.4010360115345567,1.1490221510857344,1.5472399633944034,0.05521609312426298,-5.20379613930583,9.00997647497356,-1.9610527517559728,11.995507777003846,-1.5957545981498271
1698744757.138,0.01666666753590107,0.447275309737958,1.2658937957972287,1.5473644665569066,0.09112897189613431,-5.070469618877768,9.023594665959477,-2.1452463050851147,11.064978172406942,-1.5095419227335163
1698744757.156,0.01666666753590107,0.465520576002635,1.3173925123661756,1.568331851261854,0.09487002158798277,-5.012858556908369,9.049032474076748,-2.8850716919699746,12.223622434903932,-0.7699325405811585
1698744757.172,0.01666666753590107,0.5855547398656606,1.3687217175871134,1.6783225042879582,0.19273290484901517,-4.950460260662436,9.167247350090742,-3.9935535510985103,10.409982667796582,1.1660098744649088
1698744757.188,0.01666666753590107,0.5656395310947672,1.408760297986865,1.668656265798211,0.15861556772440671,-4.900181441277265,9.165449945279954,-3.5669454850682145,7.3601947741328155,2.236840635958867
1698744757.205,0.01666666753590107,0.4769083045227453,1.424284614855051,1.685889140149951,0.057011634771525856,-4.884021164593101,9.182508632108568,-4.318679947101226,4.681669496767907,2.2093743108721298
1698744757.221,0.01666666753590107,0.25210812694672496,1.583311393728852,1.7622288679867981,-0.17507614252939818,-4.7272003713309765,9.256580999535322,-7.995290522596342,0.7385668178085789,1.5511718190030384
1698744757.238,0.01666666753590107,0.14136793419495225,1.8097300393521785,1.845921296674013,-0.282515978561528,-4.507981866344809,9.33439138444662,-11.096928943570616,-2.903293996345334,1.0409026868199605
1698744757.255,0.01666666753590107,0.11523743110578506,1.9575375050753354,1.9130565583139656,-0.29762963226959105,-4.3795945558846,9.38571942062378,-14.265930105234139,-8.278360882558351,0.8129071837043795
1698744757.271,0.01666666753590107,0.09447941483519971,2.146865898710489,1.9644979917377232,-0.2817680097384378,-4.224121670100093,9.410259403118491,-20.2629685314205,-18.621124243638253,-0.036338100488348776
1698744757.288,0.01666666753590107,0.05939213669989258,2.2484236544340845,2.0824258675038814,-0.27099391960464414,-4.155584724968672,9.501984916135669,-25.09101410474366,-27.080313530699044,-1.9842888418689446
1698744757.304,0.01666666753590107,0.06163666422367096,2.3015017491489647,2.090438493567705,-0.20201116693448273,-4.1554362564086915,9.466672779735923,-28.628708877804474,-37.21004756043448,-4.249928116689524
1698744757.321,0.01666666753590107,0.071158553206129,2.430035774603486,2.0930372778892514,-0.06763645262774079,-4.102912288445234,9.40546807718873,-29.461559947081025,-51.298449950082585,-6.71632607456723
1698744757.338,0.01666666753590107,0.33614056471064685,2.5061235735058784,2.023794814836979,0.3176804170112067,-4.083161293792724,9.286806626451014,-28.798748144739232,-62.61865521629998,-7.5507527831079395
1698744757.354,0.01666666753590107,0.48707080209683623,2.4404087000578643,2.056270266506076,0.6117181497105862,-4.202570348027348,9.269148804685473,-27.96694721704757,-74.63173536249097,-8.647664088339063
1698744757.371,0.01666666753590107,0.5778675098313019,2.316213580590486,2.3829805934399366,0.9274535393094644,-4.39889546868205,9.521288751542567,-30.544308855068127,-87.216741398833,-10.009923120183304
1698744757.388,0.01666666753590107,0.777443120181933,1.9789239919751882,2.7452485559672115,1.3144163460996001,-4.795735562896728,9.815328396496176,-34.43750643669164,-96.90414896282381,-9.3622034745863
1698744757.404,0.01666666753590107,0.6711759446583688,1.7637112154990433,3.009761662185192,1.413326729119569,-5.076754398235678,9.997435022184252,-39.71309332519071,-107.60251331643573,-10.967063141786578
1698744757.42,0.01666666753590107,0.41908582829236984,1.060132738277316,3.4162598115831613,1.3887859429072589,-5.855767763409018,10.301050304734707,-46.76767128491131,-117.84664959967431,-14.476553502443467
1698744757.439,0.01666666753590107,0.056091597317159174,0.8807821332991123,3.6360967407286164,1.3579609618589281,-6.146962540325522,10.350730573704839,-51.84403180060487,-126.68819287647241,-19.635974241086256
1698744757.454,0.01666666753590107,-0.017103256622701884,0.35292964081764217,3.5394442927032705,1.5487481760002673,-6.754339820420742,10.112505754953622,-48.11858708009145,-129.45115465990432,-25.33812181117826
1698744757.471,0.01666666753590107,0.1036706562243402,-0.4685176754593849,2.57452900121212,1.9427445712216198,-7.6375027113765475,9.00833279941976,-39.16258690827686,-129.23342188954263,-31.20323769486677
1698744757.488,0.01666666753590107,0.11507117116078734,-1.2456781062424183,1.0550748703658581,2.316688943017274,-8.46634539860189,7.314882284104824,-28.566192156331347,-124.93992399613761,-32.06175490749693
1698744757.505,0.01666666753590107,0.05596563284993172,-1.5823101077318191,0.3724374743640423,2.510019996422529,-8.823978102543949,6.512974365556239,-20.128096200974845,-114.35095195227261,-28.83162526030909
1698744757.52,0.01666666753590107,0.1469458804577589,-2.4689824681133032,-0.7265759064495563,2.821116282378137,-9.71746423459351,5.313180058610439,-9.427870620814096,-100.80204912969089,-22.96625324452671
1698744757.539,0.01666666753590107,-0.557827067245543,-2.966602903938293,-1.4790133993864059,2.3481126936763523,-10.193163930511474,4.479399914982914,11.760590250690427,-69.91540777832714,-18.125539377840468
1698744757.555,0.01666666753590107,-0.9409490172311663,-3.2974791183799503,-1.4667892931073903,2.0886413810178635,-10.48346146632731,4.479101224297285,22.771179626736558,-50.31475244543901,-15.703100090574141
1698744757.572,0.01666666753590107,-1.292872403615713,-3.286530438864231,-1.481090790182352,1.8622393942683935,-10.402207662963866,4.484039265221357,27.881776465644805,-37.21789886288541,-14.00512872328731
1698744757.587,0.01666666753590107,-1.1671098887011409,-2.5591508148163555,-1.6575573641568422,2.064399796947837,-9.622596331897377,4.328714847996831,25.371007464484578,-31.988852883390802,-9.47649132242083
1698744757.606,0.01666666753590107,-0.8726862128660082,-2.290305232352018,-1.6994108850240706,2.4163477332517505,-9.31494024952352,4.301181528905034,16.145790263892053,-26.0330611158285,-3.7593083715315148
1698744757.621,0.01666666753590107,-0.4564870459258556,-1.8823253199636936,-1.5136580117881298,2.8826182143062353,-8.885779601940513,4.484039265221357,5.565767475387066,-21.798087698326718,2.6726329585453024
1698744757.638,0.01666666753590107,-0.2529962714254856,-1.792319470345974,-1.3255331487238406,3.1103669394895435,-8.793154509735107,4.661658516362309,3.6633472019005975,-20.530143333636598,8.126337093333145
1698744757.654,0.01666666753590107,-0.35731706212162967,-1.869933455902338,-1.1919301494419574,3.011156915935874,-8.878896272167562,4.782865559929609,-1.986787837331523,-12.068986952094843,14.257073057427924
1698744757.671,0.01666666753590107,-0.6981359939068555,-1.933174048191309,-1.0061398668050765,2.6399057287469505,-8.972121083831787,4.950459676140547,-5.751719802427486,1.6720409809896997,19.671581724776825
1698744757.688,0.01666666753590107,-0.8459633333742618,-2.0156085857719184,-0.9841402164429426,2.4425334371268748,-9.082253191155194,4.967217918717861,-7.012291404795399,10.465164619874763,22.721585623173095
1698744757.704,0.01666666753590107,-0.700895229487121,-2.028552238497138,-0.8987275398343801,2.5242361533015965,-9.131336078754067,5.044282453697919,-13.427968346911124,14.04268110334404,24.163752745664606
1698744757.721,0.01666666753590107,-0.5922305643677711,-1.7717448843508958,-0.86030866959095,2.5421929580137133,-8.935459870910645,5.058048528721928,-19.16941426416644,14.872291247859422,23.331308072643672
1698744757.738,0.01666666753590107,-0.5064025849565863,-1.5557272212326525,-1.000900212585926,2.563740480694175,-8.769362130737305,4.89045499703288,-21.175669634736384,12.525764390575908,21.818339209215807
1698744757.754,0.01666666753590107,-0.5136290290787816,-1.5561580138653517,-1.0825713645786046,2.5017905127376316,-8.81724499489665,4.778675122502446,-19.105193410495396,9.857601363955556,17.808010713515745
1698744757.771,0.01666666753590107,-0.6986798915252089,-1.874377575829625,-1.1365461158722638,2.2560852751031515,-9.184605896648764,4.694428567063808,-14.064466845475442,12.456310758226987,12.79821551392584
1698744757.787,0.01666666753590107,-0.9356205156847834,-2.2423773600071666,-0.66455754943192,1.9734207183837889,-9.583540917316078,5.150524567845464,-16.70003279428191,21.692994992662317,9.114300051113394
1698744757.804,0.01666666753590107,-1.18927700458467,-2.395695113584399,-0.25399580385684967,1.6636702940791845,-9.772831317028404,5.5433232777148485,-23.347396583233635,32.27542713039703,5.632716135857884
1698744757.821,0.01666666753590107,-1.0593205451115966,-2.419725977513194,-0.329408479976654,1.7140978742852806,-9.848248669323324,5.4408215191394085,-22.98867846311915,37.56044992523447,1.6259901380581812
1698744757.838,0.01666666753590107,-0.1931529203593731,-2.090331526061892,-0.48229953257441516,2.5189994216918943,-9.553613981086015,5.2721805242240425,-21.772110781365868,39.6927120407074,1.72955160068803
1698744757.854,0.01666666753590107,0.08713146322518586,-1.7695803997933863,-0.5075140533298254,2.740461906212568,-9.262416866081953,5.2359670550704,-16.27576364115552,36.69784142929147,-1.2194425510636244
1698744757.871,0.01666666753590107,0.5575982269257307,-0.9777952313303947,-0.7362778007745743,3.153910897661745,-8.49163473815918,5.005824420487881,-7.432149109491608,26.504366366674184,-3.901386124664712
1698744757.887,0.01666666753590107,0.5682888400271534,-0.6621177550643682,-1.0399205558538436,3.1387977919429537,-8.180687213024497,4.7075972607165575,-3.0103772752659705,20.601723716138334,-5.621492000617438
1698744757.904,0.01666666753590107,0.35159459282159805,-0.5944096619725227,-1.11169282964468,2.907458641052246,-8.109311829596757,4.647144837841391,1.2358927415144827,19.369613938928687,-9.652407967136387
1698744757.921,0.01666666753590107,-0.2224687389537692,-0.8988578882157802,-1.2174708334118127,2.311751048223674,-8.40155348521769,4.566790029144287,2.478620154510621,24.259737394070797,-3.462406878500231
1698744757.937,0.01666666753590107,-0.5819628528535365,-1.4870277790158986,-0.8841659305185079,1.9053353164121507,-8.991724194446206,4.917838678520917,-4.145174359162684,33.76761172818055,6.094798496889934
1698744757.954,0.01666666753590107,-0.5238112542666494,-1.4641653743445873,-0.7002320894032716,1.8855831527158617,-8.986636515918374,5.111619959911704,-9.574094725660313,41.725830545282996,14.834487858350693
1698744757.971,0.01666666753590107,-0.37849794344678517,-0.9854647430449723,-0.7797808424144983,1.88528314685598,-8.546400347569584,5.040690566685796,-12.650726116535877,50.677876037568154,24.734782173487062
1698744757.987,0.01666666753590107,0.22154519436806439,-0.9094786509513855,-0.6785550951242446,2.3446710287898775,-8.507495739635825,5.146633990147709,-13.09869602608221,58.40758404579866,33.487727651466344
1698744758.004,0.01666666753590107,0.728393915656954,-0.6859855373859405,-0.4699550147861242,2.6807572329647837,-8.322246139746904,5.364955254033208,-9.795793274608819,66.34598506902432,42.71271774826897
1698744758.021,0.01666666753590107,1.455247323873639,-0.477148725682497,-0.5470592972546816,3.1347575766414404,-8.154649685448408,5.31856759686768,0.1460518426728735,76.45784790879641,51.79682153306174
1698744758.038,0.01666666753590107,1.35804133361876,-0.3125011843174696,-0.7479670695245265,2.8110915858395398,-8.00606012943685,5.156958984807133,6.411234330947455,77.9884864716071,54.30422154341385
1698744758.054,0.01666666753590107,1.1084358736753464,-0.13618015629351138,-0.9208090232610702,2.331652849523723,-7.841010437011718,5.021387315800785,0.8203130831162303,82.1742586214227,51.134501504340186
1698744758.071,0.01666666753590107,0.19022497714869677,0.01614624815881252,-0.8104635654479265,1.0995366740353405,-7.726537085613608,5.138852250230312,-19.520907751686345,97.88503242952935,44.36899764086204
1698744758.087,0.01666666753590107,-0.569918633186072,0.25593583200871944,-1.0851520287215708,0.09292451354339719,-7.5314084812670945,4.8383805264025925,-25.531703032634763,112.49209547908613,36.65468829411533
1698744758.105,0.01666666753590107,-0.6716409318216144,0.5333855766892432,-1.257055240303278,-0.2551326258670539,-7.297375268986821,4.6315813580065965,-23.540499691448236,118.47092888981346,31.394831331274794
1698744758.121,0.01666666753590107,-0.07752456284039654,1.3730816663622856,-1.7375164515346289,0.00029901947919279333,-6.501003941777348,4.1074002475142475,-16.184932370478105,116.21258148226211,40.68847165942521
1698744758.137,0.01666666753590107,-0.06955342869758606,1.6807663903087378,-1.92282099648118,-0.24780018235342577,-6.214000186809897,3.8919232671439645,-10.951474088779669,107.92008979208465,40.08153763468329
1698744758.153,0.01666666753590107,-0.20090718774795532,2.0063702173054216,-2.0231997715532777,-0.6091749406343325,-5.895272090801596,3.770566585972905,-1.360651376068349,92.10239620271062,36.13764297394536
1698744758.171,0.01666666753590107,-0.34643282614424825,2.1064128922909497,-1.5592355216145515,-1.0209775896485895,-5.777358243560791,4.23399366029501,11.983839252580525,75.64305415213808,34.92234399983041
1698744758.19,0.01666666753590107,-0.7681595973994583,1.5582242987453936,-0.6137053140729666,-1.6190790918763727,-6.298396964374184,5.193171284916997,13.087500492258913,62.220591791471634,36.11594346295223
1698744758.259,0.01666666753590107,-1.2042248367391526,0.979898341089487,-0.2993400894492864,-2.777423709515482,-6.915201413506269,5.3009103596240275,-27.337994369968822,18.444273570553698,24.43295099142232
1698744758.271,0.01666666753590107,-1.2314726168878376,0.9392086033046245,-0.6411357573121785,-2.8407207081668076,-6.9735618325382465,4.9238235981494185,-17.863934594892516,8.030179982650413,9.468274604849306
1698744758.287,0.01666666753590107,-0.9818924375161528,1.2138643333524466,-1.4523708916544913,-2.5957640969425437,-6.709900959235429,4.095581799426674,2.9089011547670913,-3.823142892627631,-6.436447974268557
1698744758.304,0.01666666753590107,-0.7848685209423303,1.0757979249209164,-1.5270307035803794,-2.367117546136677,-6.834696967205405,4.048891944444179,19.78965691250613,-10.055104821542937,-13.326586141513333
1698744758.321,0.01666666753590107,-0.3248684984594583,0.15693535955250262,-0.8640981250017881,-1.846677521868795,-7.714715130394697,4.783163666093349,24.827081934836027,-11.434767175392372,-14.283587851785914
1698744758.337,0.01666666753590107,-0.4270839874394238,-0.22705460543930528,-0.1647784742683172,-1.9009962642945348,-8.071153656116127,5.533297558262944,20.22641848162447,-13.809660662072593,-14.56517349937709
1698744758.354,0.01666666753590107,-0.5316717585086822,-0.23941665888428687,-0.11543664347231387,-1.9526213837221265,-8.062025762286781,5.62547432217896,16.874103580374268,-14.275478709693816,-17.591795952697115
1698744758.371,0.01666666753590107,-0.8469025139205157,0.3741822722047567,-0.3919762875705957,-2.178873148345947,-7.429207166942954,5.396228928697109,12.79376735322887,-14.993161690506552,-24.947294971775545
1698744758.388,0.01666666753590107,-0.8584599729843437,0.934049028584361,-0.4523007001519203,-2.115127967535704,-6.86268095267415,5.361664980316162,8.1124419272404,-15.095539395975873,-26.37930560297125
1698744758.404,0.01666666753590107,-0.689727281197533,0.9504454521119594,-0.39854982074201106,-1.8460791906494647,-6.84472151761353,5.438277679875493,4.4975672972189145,-16.40064511239274,-23.370438226398676
1698744758.421,0.01666666753590107,-0.5760876772098243,0.8818798654079437,-0.38488486800491806,-1.662474143097177,-6.913407515826821,5.46521303307414,4.7242698135081005,-16.439114445345545,-21.31686842790076
1698744758.438,0.01666666753590107,-0.40333194045200943,0.8777788598299026,-0.42877486313581464,-1.4190135425843298,-6.916100408172607,5.435883478215336,4.743740121510868,-19.78185854402127,-21.990574381968727
1698744758.455,0.01666666753590107,-0.14105017348267138,0.9492267239719628,-0.6117290455639361,-1.0444709126345812,-6.845771903449297,5.269786907085776,2.041265426151545,-31.771823622513647,-23.08798429100926
1698744758.471,0.01666666753590107,-0.04651807861216366,0.9142974494099616,-0.8966711918264627,-0.8459015932496636,-6.88243077828288,4.997593767759204,2.7986245489660617,-43.6712801567669,-22.57648166935076
1698744758.487,0.01666666753590107,0.13006101582609117,1.1303069292217491,-1.4818956768244504,-0.5463271835878492,-6.665607644000649,4.428822404912114,4.433753693577131,-55.592012730284736,-22.459017783552174
1698744758.505,0.01666666753590107,0.11722096960581839,1.5182096837431192,-1.9669132361859083,-0.38127697970606383,-6.272659296527505,3.9680888074576854,6.443280297872685,-63.618588080600674,-18.801683709442123
1698744758.521,0.01666666753590107,0.13426635856144128,1.8492840511053799,-2.2070167082905767,-0.22565376219805328,-5.929837208226322,3.7533576770186423,12.674250141811047,-68.95306144502902,-16.297423878560924
1698744758.538,0.01666666753590107,0.07354507388332858,2.0554116038501262,-2.9252924039065835,-0.1484408865221776,-5.701342925372719,3.0708617353141308,21.458246513530856,-69.76512995620851,-15.599274385000777
1698744758.556,0.01666666753590107,-0.1587058763563633,1.8815058202743529,-2.8220611620128153,-0.19797086486800106,-5.8273366186946625,3.239502145707607,23.33188010098666,-61.481585813843765,-16.756976081392306
1698744758.574,0.01666666753590107,-0.21141060771420597,1.8006681964963673,-2.2803023092538117,-0.1279405348070897,-5.87986117118001,3.8166555524528025,11.11620629872933,-54.35475128289361,-14.631276070164475
1698744758.589,0.01666666753590107,0.0032271453529596327,1.4286913253813982,-1.4046388341426848,0.19811982205174863,-6.2470700972408055,4.695776474541425,-4.387250777499923,-52.86939345918552,-12.026357180163854
1698744758.606,0.01666666753590107,-0.00912489815466106,1.5473632975131273,-1.8156570913136005,0.3235160244045779,-6.141724055150151,4.261975892198086,-4.700612599544114,-50.737305513536434,-8.483509029374268
1698744758.621,0.01666666753590107,-0.1475034778079018,1.5479396360963582,-2.0483511639446017,0.27802641205731776,-6.142474581256509,4.021808707207441,1.4655083334846788,-48.51051016485595,-5.8815343777927485
1698744758.638,0.01666666753590107,-0.18884324046671389,1.2376853539228438,-1.8218588685631751,0.34790717301312835,-6.451624701580405,4.240878743633628,-2.1439916847119482,-47.96710372958432,-1.5525696599053638
1698744758.655,0.01666666753590107,-0.005083513809368014,0.8890998797893523,-1.2140899588018654,0.6046853010648862,-6.807913005176186,4.831946693962812,-7.403833706513673,-42.78186316833159,-0.0043518176770766005
1698744758.671,0.01666666753590107,-0.11725940192006527,0.6252186417341232,-1.0858481942921876,0.5578486214902252,-7.087436048999428,4.9332519362300635,-11.99870686685635,-40.543405271643316,-0.3457987906189791
1698744758.691,0.01666666753590107,-0.34126316842138765,0.1421136379957199,-1.0783411796629427,0.4179371697138995,-7.601289826744795,4.89105296292603,-18.142988803622558,-33.973818554317816,-4.426027468965378
1698744758.704,0.01666666753590107,-0.11012728501781821,-0.3129968588799238,-0.7744108398139476,0.7095807863764464,-8.086265300530195,5.147980144059658,-20.832235770437094,-30.079022708428518,-6.630069749973255
1698744758.721,0.01666666753590107,-0.001678966062888503,-0.3902385039925575,-0.7866197485238313,0.8788210623592138,-8.192510337287187,5.088724237492681,-17.7234495564964,-31.511463641541933,-7.279360339079361
1698744758.738,0.01666666753590107,-0.38666700218133626,-0.002168576210737228,-1.4096008404642342,0.5885241110652685,-7.826345367321371,4.421490746849775,-6.454886496819829,-35.830028329200914,-12.910556757846917
1698744758.754,0.01666666753590107,-0.7551832845136522,-0.13876549661159515,-1.3522183265537022,0.30810353388041256,-7.965658560943603,4.459797973412275,-4.087271857360725,-34.60130120317771,-21.011202094617058
1698744758.771,0.01666666753590107,-0.6862232185993343,-0.3936316535621881,-1.054220883885026,0.4780915594905615,-8.221837554058432,4.736626371324062,-7.682794853916272,-31.168902333909113,-28.302417080774624
1698744758.788,0.01666666753590107,-0.3714871879018843,-1.0764508358716964,-0.3827262286663055,0.9302962519221007,-8.91316211438477,5.367198064523935,-13.741045435444292,-22.11350071155603,-31.89675802771694
1698744758.805,0.01666666753590107,-0.23303981732875106,-1.1828805815458296,-0.2099398045092821,1.1610377291806042,-9.032126347461343,5.501127227020263,-16.03432328418474,-19.058232444856973,-28.441563402093415
1698744758.821,0.01666666753590107,-0.3355813233926892,-1.1080103417396545,-0.47278585429787634,1.1396398441039026,-8.968082037574053,5.202899482727051,-10.58242103867731,-19.124060100530265,-23.514700359405808
1698744758.838,0.01666666753590107,-0.48378772530555725,-1.0595055462896823,-0.8712304610997438,1.0881639238886534,-8.920794216698408,4.776730418175458,-2.9882393515054897,-18.384931179497336,-20.75523904792354
1698744758.856,0.01666666753590107,-0.44286520167812704,-1.4399585693269967,-0.7632277670204639,1.196351911406964,-9.294139453557133,4.875488898569345,1.7980460183453872,-16.608197485796502,-19.64673349657632
1698744758.871,0.01666666753590107,-0.38578064780086274,-1.586532693862915,-0.7348503983199596,1.3156138122558594,-9.425075279456376,4.9072155776977535,8.790896570328815,-15.912646879215547,-18.33029478877911
1698744758.888,0.01666666753590107,-0.21207404005900024,-1.7340438069880009,-0.7579121249556541,1.5682013567499815,-9.534008532384037,4.9131993282824755,19.3477675788684,-14.795926317844094,-17.67686425126233
1698744758.905,0.01666666753590107,-0.377139660705626,-1.8284119434684514,-0.6541290943980217,1.4600135153621434,-9.58862801132202,5.053260125401616,22.447121301565303,-12.316725597254022,-17.926073948414
1698744758.921,0.01666666753590107,-0.5141002998523414,-1.9396844529986381,-0.6436684906601905,1.3729248683653772,-9.65865957892537,5.103239669579267,21.52882968841377,-8.042857667523604,-16.757110977628415
1698744758.938,0.01666666753590107,-0.6947856605656445,-2.1189736831784245,-0.7423498141646385,1.2446850035518406,-9.786000010681152,5.0564025150805705,19.402868422450183,-2.1007693938704612,-14.494127579177912
1698744758.955,0.01666666753590107,-0.8350910800956189,-2.5309037944972514,-0.7459206583887338,1.1294644870482384,-10.162638443866372,5.090820332989097,18.82648241877115,3.5720211693951804,-11.980655530653653
1698744758.972,0.01666666753590107,-0.8732429699659348,-2.707438757532835,-0.6901438261091709,1.102080367168784,-10.306439012035726,5.185540936169028,17.092131756417537,9.527887642151532,-9.19310250488877
1698744758.988,0.01666666753590107,-0.9245973096281289,-3.1407769830614325,-0.8415209670126438,1.042674822998047,-10.703130053168534,5.0839364186942575,14.662626638454833,15.026407636291589,-4.989717004751006
1698744759.005,0.01666666753590107,-0.9138217947222292,-3.337410731273889,-0.8370213175058364,1.0368382257990538,-10.875809509819746,5.124336818143725,14.259674505728054,16.697917143186498,-3.4537222929705593
1698744759.021,0.01666666753590107,-0.8323882508777082,-3.447650390625,-0.7084539743036031,1.095047399792075,-10.963646198704838,5.288640660637617,12.59040530088091,20.21053487670961,-2.3975692878378414
1698744759.038,0.01666666753590107,-0.4711329725243151,-3.539937629178166,-0.05864800380170345,1.4076405001766978,-11.036671687427162,5.977871463555097,5.7891543617210335,27.8145400834552,1.1164682712589848
1698744759.055,0.01666666753590107,0.17044190685749053,-3.4954882465988395,0.9216343681693077,1.9939210700988768,-10.990434252387285,6.977301019066572,1.5028381987848547,32.89210100489539,5.1464822259206695
1698744759.072,0.01666666753590107,0.5299116169683635,-3.3927912577122448,1.4290379468619823,2.2816735976070164,-10.895262982830404,7.496542919591069,-1.708746951197877,36.2883032866575,9.092784955227854
1698744759.088,0.01666666753590107,0.9390890685781836,-3.0746622966408728,2.112498349684477,2.5806496760495006,-10.589254083141684,8.195800026482344,-0.38926269940235525,39.71262887232715,12.477109538023322
1698744759.105,0.01666666753590107,0.9102971277274191,-2.6732728685587643,2.6588796015471217,2.4595930007383227,-10.191967998725175,8.761280531090497,2.8380654763283006,43.3904398535689,12.97097404992391
1698744759.121,0.01666666753590107,0.8272158166758715,-2.5030928275078534,2.8799639004051683,2.280027583965659,-10.020781410980224,9.007284167149663,4.952395143578764,45.79974127196671,12.505231134383559
1698744759.138,0.01666666753590107,0.5061459798470139,-2.038119692787528,2.9087241309434173,1.8272241949886083,-9.548075051659344,9.075219054734706,8.913639338582175,47.172329257383296,11.690030127695964
1698744759.155,0.01666666753590107,0.18765563811734318,-1.1969915244847535,2.0877806725353003,1.410333684783429,-8.691399185612797,8.293361990568041,15.733004366307748,47.946056501656926,9.944501006991983
1698744759.172,0.01666666753590107,0.13921104842200874,-0.7513830154478549,1.6255290717333555,1.2666818774349986,-8.217349594989418,7.883207072228193,22.13129847698579,47.24290901717163,7.741665108146258
1698744759.188,0.01666666753590107,0.09488689965754747,0.13581424559056757,0.8193132268577814,1.1068689896848052,-7.281067108264565,7.154621579521894,24.89908237397172,40.71773902001872,6.226574617207459
1698744759.204,0.01666666753590107,0.2669211902730167,0.9391653486847877,0.1808387977093458,1.2044325612056999,-6.43591158414185,6.5761220188647505,28.40995670170918,34.166115700210355,5.899259572462578
1698744759.221,0.01666666753590107,0.36541977762170136,1.1389105069160461,0.0010913023680448532,1.2401958754390476,-6.184969907158613,6.4637447629630564,34.40400435881273,26.50457127234928,6.23264921670054
1698744759.237,0.01666666753590107,0.4719338405784219,1.5824755274266005,-0.29702772085368634,1.2849376650936901,-5.657648745074868,6.267270004704594,41.05507864803106,16.229285911400876,4.216475557682094
1698744759.255,0.01666666753590107,0.4183437777534127,1.7516536979585886,-0.4055260894954204,1.2008413317807018,-5.41373886642456,6.243927123039961,46.63909297378582,12.787543343347695,1.291548858131449
1698744759.271,0.01666666753590107,0.4338138071510941,1.7667179960995911,-0.4404670544952154,1.1969507540829478,-5.313631309509277,6.30168723809123,50.33788288106326,9.765583347909851,-1.498702946129235
1698744759.288,0.01666666753590107,0.6361970588009804,1.7948679857850074,-0.38532676655352116,1.3790596447933465,-5.162196885460615,6.486188649961352,53.3848405150897,13.031015681596555,-2.5888692261115587
1698744759.305,0.01666666753590107,0.8441090107444673,1.748613015088439,-0.0795025757819414,1.564011869170889,-5.112219094848633,6.890510624364018,52.25320452811823,15.909180558211766,-0.5473928111476839
1698744759.321,0.01666666753590107,0.9442113800279796,1.5962264048814772,0.09112228642702103,1.628655021734163,-5.1774593365222215,7.149382509824633,41.77135717119572,19.597648342106023,4.113478439432417
1698744759.337,0.01666666753590107,0.9725297850828617,1.2561825491219758,0.5545131203919649,1.5830158083157613,-5.44546203842163,7.687929999321699,17.699096517010723,26.31174649434336,9.867902142997583
1698744759.354,0.01666666753590107,0.7403563022598624,0.9723539170593023,0.6538093609243631,1.2789521609432994,-5.7127142142146825,7.80853732343018,3.4420319973192597,31.697548730384344,9.29636898872384
1698744759.371,0.01666666753590107,0.6414943614915013,0.8057230929225683,0.583607112929225,1.100733920995891,-5.880759581324458,7.742548893737792,-2.9220938785923822,40.41900703628987,4.998378538392228
1698744759.388,0.01666666753590107,0.553746885259822,0.7077303362041711,0.8460644556611776,0.8922888120237737,-5.993136837226152,7.998278974041343,-7.272641140483361,47.63558683783941,1.654309596460935
1698744759.404,0.01666666753590107,0.564828178179264,0.6313923619329929,0.6653823098182677,0.8170210060010664,-6.082768592834472,7.80868696103394,-5.393169021947666,43.21410827486127,-0.9447201763712524
1698744759.422,0.01666666753590107,0.49307168647944927,0.5028899006605148,0.42791152430474755,0.6741171126767993,-6.213251414269209,7.571510774552822,4.01275235908177,37.32865038027717,-3.684815340235594
1698744759.437,0.01666666753590107,0.13615296689248643,0.2989578121334314,0.25001696335375306,0.24660249700145795,-6.392068935284018,7.418581728032231,15.228140688522501,31.466613204357042,-8.534488707565597
1698744759.455,0.01666666753590107,0.050248141119116914,0.2885620903253555,0.5047890122801065,0.12105643328258302,-6.369923154449462,7.704091445049643,19.178763085592898,29.23791223289813,-10.994143988072032
1698744759.472,0.01666666753590107,0.08654284968227148,0.3226484843224287,0.670848174008727,0.12494709774530492,-6.299145152392983,7.90415633675456,19.103494400939358,25.941697090395824,-11.724368903748204
1698744759.487,0.01666666753590107,0.2661240485459566,0.2845487630307674,0.9429711707085371,0.27039482605232185,-6.295853709632158,8.214056983184815,13.460136830354593,21.70470193689972,-11.235474208242445
1698744759.503,0.01666666753590107,0.23517288383468984,0.1413467452764511,0.8772750019609927,0.22071522465870366,-6.4163102270931,8.168862335196136,11.634765359574098,19.626902042321188,-12.585115319368734
1698744759.521,0.01666666753590107,0.11591741272658108,0.021508651974797247,0.7532727747172117,0.08843551329476758,-6.513125756725668,8.065465089085698,12.935593670023245,19.327464841560538,-15.70840714755924
1698744759.538,0.01666666753590107,-0.08411767749511637,-0.25212708737552164,0.6389800405830145,-0.1209074578325264,-6.753445501929521,7.98077195892334,13.133743434260838,21.23877887512001,-20.831774732668116
1698744759.555,0.01666666753590107,-0.2046706319347024,-0.3357183937758207,0.6347375807076692,-0.24420882049768697,-6.8113529164969915,7.999175630620122,14.422393517419852,21.416285246364883,-24.987154248224446
1698744759.572,0.01666666753590107,-0.24534736410751937,-0.3737082249522209,0.582465541678667,-0.2807203181832563,-6.8207800855338565,7.9719410022139545,15.012373305094506,21.96261500260128,-29.020015537996382
1698744759.588,0.01666666753590107,-0.16601561484783886,-0.37087387830913066,0.5978922433912753,-0.1937810827446752,-6.7823226368457075,8.018328074857592,13.091766799169234,27.444499217244125,-34.08190971302785
1698744759.606,0.01666666753590107,-0.11539353498294949,-0.16100304738283155,0.7221218496501446,-0.13691872481730533,-6.541557485961913,8.169164533013104,11.390009799534923,28.885901358548598,-37.962324595619684
1698744759.621,0.01666666753590107,-0.08722849385887384,-0.0945961000174284,0.5492810649573803,-0.10354942273115739,-6.460453320202231,8.008902659386395,11.857625894455152,29.203809098372254,-39.4713182889506
1698744759.638,0.01666666753590107,0.09573138765767217,-0.028841479080915448,0.45923897498250005,0.09247582620687025,-6.360943144658208,7.947550657323002,14.812289743548153,29.74061074071648,-42.24132199741678
1698744759.655,0.01666666753590107,0.2834942855417728,0.09681552963256836,0.5024842424690723,0.29388798321447684,-6.203824245232343,8.017280611631273,17.240054870819797,26.9079246786898,-41.55010002322232
1698744759.673,0.01666666753590107,0.3576679213859141,0.21710662739872932,0.6545698239028453,0.38950634694324104,-6.036828679436445,8.208219363072514,18.161177597382302,22.88022188928852,-37.49783758111297
1698744759.688,0.01666666753590107,0.2549995740719139,0.28115444441735743,0.727732675269246,0.3034648183962097,-5.935973519024253,8.311617778226733,18.504952971140092,19.537266054748525,-34.29497063399723
1698744759.705,0.01666666753590107,0.08650332138948141,0.4844529112160206,0.8182160792708396,0.15337829725858754,-5.697600816234946,8.430580842259525,16.406537858099167,15.199856875169479,-31.22631690407224
1698744759.721,0.01666666753590107,-0.06561309357397258,0.6622708997994661,0.7534311801493168,0.03232150321640074,-5.481225425720215,8.396612521684169,12.156909415959479,9.058254933878855,-27.53376978969619
1698744759.739,0.01666666753590107,-0.10001649936465545,0.7266022099345922,0.6909259163975715,0.02618638886171393,-5.3945858376652,8.351573941040039,9.910706084752405,5.114263796718896,-25.12672916391366
1698744759.754,0.01666666753590107,-0.05861108759110793,0.8143751859337091,0.4548573988974094,0.09786271886425092,-5.286846178436279,8.130857890972495,9.55998270106142,2.3666746346745815,-22.185414065779803
1698744759.772,0.01666666753590107,0.06106827148487791,0.769659845894575,0.35044659183025356,0.2551319500136189,-5.3054006567806,8.046310891282557,8.783511428288739,1.198101945167037,-16.56241131269532
1698744759.788,0.01666666753590107,0.10666002903236076,0.6941969008922576,0.34721944647729397,0.3206731108625419,-5.364508679309487,8.055441123199463,7.0086769540639935,1.1124031347640637,-12.102463416764369
1698744759.804,0.01666666753590107,0.09149680056152865,0.5719032311320305,0.2653261761665344,0.3212716430112719,-5.472246584972739,7.984510560929775,7.306271284409211,-0.9399479018538234,-8.12672556034219
1698744759.821,0.01666666753590107,0.013477229878958314,0.5480155750662088,0.22239947310984134,0.25677796365497635,-5.481076372638344,7.952939364624023,7.340351367046636,-2.616044841271747,-4.78869898794883
1698744759.838,0.01666666753590107,0.004137866989709436,0.49160862818956375,0.15836919174790381,0.2632122344861738,-5.518185329326987,7.903405810648202,7.066429191704214,-4.474848380492159,-1.0523835944845172
1698744759.854,0.01666666753590107,0.14353121317606418,0.49634267097413537,0.14694646497964858,0.41225141569506374,-5.499631435504555,7.902361270031332,6.681785381047653,-5.67273976373369,2.0872953516287303
1698744759.871,0.01666666753590107,0.2848655556286685,0.5485977588683366,0.18558979162871836,0.5585969921721146,-5.43304153278768,7.951889563310146,4.3091932412309015,-4.568833917905651,6.843838449295375
1698744759.888,0.01666666753590107,0.26175847374759614,0.5993593933343887,0.29027181685268877,0.5319615352354944,-5.3782759233772754,8.059780613708496,0.17351141761171973,-4.653653768339808,9.071121302727867
1698744759.904,0.01666666753590107,0.15710309906853362,0.35566228065192695,0.19629472551643848,0.41913463587015864,-5.61200810688436,7.973736068937182,-2.1606991811954455,-2.1991691544784846,9.167053017167989
1698744759.921,0.01666666753590107,0.0442135645294562,0.1526671807140112,0.2418891864776611,0.2907456814421341,-5.810727429199218,8.023118231743574,-3.8724679574925243,0.7010481618108758,8.731370617938508
1698744759.937,0.01666666753590107,0.021648352706432342,0.06920096199810505,0.2332148816347122,0.2569275281934999,-5.896020863342285,8.013390618455409,-5.434263708862694,1.7118801937579147,8.850690607644045
1698744759.955,0.01666666753590107,0.023093729209154843,-0.0981423943221569,0.23901567686796188,0.2504931842970662,-6.066158234295249,8.017281780675052,-8.32954119755655,2.581402762131677,8.96185022883871
1698744759.971,0.01666666753590107,0.06564379923949018,-0.21930501422584056,0.15772271053791045,0.2852090353040956,-6.193800279346108,7.931241327556967,-9.28690746917608,0.22680374182711943,8.58042685237581
1698744759.988,0.01666666753590107,0.06677221874753013,-0.26762919241189953,0.019573299998044965,0.27817612272631376,-6.256947348132729,7.7819041680485,-7.897154364601599,-2.007140947284515,7.1322645313403195
1698744760.004,0.01666666753590107,-0.03067205550894141,-0.2849059059053659,-0.10655717144608497,0.17866706142714245,-6.286126680865883,7.646628851640224,-7.527352555011476,-4.376628552680083,5.88362142747101
1698744760.021,0.01666666753590107,-0.03228641363671049,-0.2921644987314939,-0.13047756073772906,0.18001363546419888,-6.312012232750654,7.608170233908295,-8.055474734467909,-5.35384719600908,4.561065858385231
1698744760.039,0.01666666753590107,-0.02983920314768329,-0.24174948574602603,-0.1325064362168312,0.18719635004252194,-6.2774465308040375,7.593657139909267,-8.366109176599151,-5.596489666273783,3.5866386279926536
1698744760.054,0.01666666753590107,-0.0396479736469686,-0.18578736002743243,-0.14737550404667854,0.18689705656869335,-6.245125392913818,7.55998867906332,-10.11423547673503,-4.302988868143591,2.2532194295885573
1698744760.072,0.01666666753590107,-0.03204221135098487,-0.17421616469919682,-0.13347674255371092,0.1990176842069253,-6.249314076775312,7.561335417497157,-10.832984820831935,-3.194300182349251,1.6345671481084245
1698744760.087,0.01666666753590107,-0.1271982468061149,-0.15095979227423667,-0.17902502628564834,0.10773885551132262,-6.2575453140258785,7.490707053044438,-9.68519458269974,-2.6445499954425604,1.3276039326560654
1698744760.105,0.01666666753590107,-0.2004300900218077,-0.21131927616894244,-0.22518647347986698,0.03666095719281584,-6.3519660574764005,7.417233820554614,-11.797831003366277,-2.9349941849438324,1.4233708687824604
1698744760.121,0.01666666753590107,-0.19611054632226005,-0.3191577195972204,-0.1934656395703554,0.041599089448433366,-6.4872407893627875,7.426814134326577,-12.016978476659782,-1.340242237219822,1.079907549292376
1698744760.138,0.01666666753590107,-0.1643570705184713,-0.30872575743198394,-0.09597498715519905,0.07122729846024885,-6.501305555072427,7.504475466156006,-11.031632335105293,-0.14137431034975192,1.7526266477469776
1698744760.155,0.01666666753590107,-0.06311320304963737,-0.3225999690055847,-0.11249591384530067,0.16669599832743406,-6.541855592125654,7.466315539109706,-7.270003833690089,-0.23274339172323888,2.4122330636556244
1698744760.171,0.01666666753590107,-0.004939666625577956,-0.39662323659360404,-0.22473288449347018,0.21652541171098127,-6.631638738903403,7.341368139970302,-6.210220156126686,-1.506577620633731,3.35054182683035
1698744760.188,0.01666666753590107,0.01902563952002674,-0.4083154279530048,-0.2332499529480934,0.2340329565519467,-6.657525459831953,7.321316701066493,-5.786149505373051,-1.7537893807314666,3.913969040663168
1698744760.204,0.01666666753590107,-0.009322466553375125,-0.40472997068166733,-0.23232056314349173,0.1970725414885208,-6.670694738006591,7.308598089268803,-4.744505529584733,-1.9811435397561539,3.7157415830237657
1698744760.221,0.01666666753590107,-0.08613288064189255,-0.33623920277953145,-0.07113163779973983,0.11282653403915464,-6.618471214294433,7.456438872739672,-4.488048147950033,-1.9716965343603798,3.4243136328386004
1698744760.24,0.01666666753590107,-0.0907143997458741,-0.391554262766242,-0.1435293500125408,0.10743954377118498,-6.685657329338788,7.374138190671801,-4.488244942775493,-3.690811819440042,3.4114043618638648
1698744760.254,0.01666666753590107,-0.17078408962497488,-0.3781184426099062,-0.2784533687651157,0.03471557701239362,-6.689697544640302,7.224350364786386,-3.3154376427042465,-6.166605556294747,2.535003366109076
1698744760.272,0.01666666753590107,-0.1914627022501081,-0.3757043672055006,-0.18840543357133865,0.023343283523432908,-6.701669721984863,7.302014619225263,-3.8337326740489126,-6.212519368556042,1.717361313845144
1698744760.287,0.01666666753590107,-0.1328496784302406,-0.3729226275324821,-0.14579846398830412,0.08918375611249357,-6.710798200336098,7.334336926159263,-4.277512262539443,-4.3119611753920495,1.8173782284608737
1698744760.305,0.01666666753590107,0.05412060777144506,-0.34959085178375243,-0.0954717138081789,0.27937300436068324,-6.699573041966557,7.374287828275561,-1.5766881250817366,-3.2970114998708446,2.341507948904023
1698744760.321,0.01666666753590107,0.1021574934487231,-0.28130934271812436,-0.1726227580279112,0.32635928500648587,-6.6400172756701705,7.289742582151293,-1.1244405961242707,-3.157250034639928,3.089018792709028
1698744760.34,0.01666666753590107,0.0531915650267154,-0.29113515568375586,-0.2119967370390892,0.2762307608122006,-6.656179890441894,7.245001523149013,-1.5715509690522407,-2.9174563935893554,2.776335293826783
1698744760.354,0.01666666753590107,-0.0052265207429416476,-0.2636240484237671,-0.26124504433274265,0.21293396309027446,-6.64001844471395,7.186193944871425,-1.5990716154872204,-0.8372934670014109,2.3304449634393065
1698744760.372,0.01666666753590107,0.03359618106102571,-0.19569675962328908,-0.08769932624101638,0.24405860293861478,-6.582258329662681,7.351243637296557,-2.581508630063812,2.2932148829340364,3.049958008062783
1698744760.389,0.01666666753590107,0.030996099831536412,-0.207765383079648,-0.03714870417714119,0.23133953448319805,-6.601411942943931,7.395986449864506,-1.642111518933527,2.187521120622674,4.027755296480526
1698744760.404,0.01666666753590107,-0.018386665763054044,-0.23796646007597444,-0.13177519933283327,0.16983838800638912,-6.638522068676352,7.295729255345464,-0.1807455751185417,2.1837837264862077,4.220702164117863
1698744760.421,0.01666666753590107,-0.10910157696558162,-0.3094640085786581,-0.13344050219655035,0.07017981696762145,-6.715286743927002,7.289744920238852,0.8540749749878678,2.332689107468479,3.076579951013377
1698744760.438,0.01666666753590107,-0.061057969286572186,-0.29615795228183267,-0.1066390045106411,0.10923528634784743,-6.702417910003661,7.31638099822998,1.68192522521406,2.4635384564929983,2.4967641251539368
1698744760.454,0.01666666753590107,0.05779619101164862,-0.2185147406309843,-0.04970657245516777,0.2172734901319258,-6.625653234753012,7.372791452237963,0.6638780589042549,2.2761635291145113,2.9520705116425106
1698744760.471,0.01666666753590107,0.042401692801900204,-0.14675532632172106,0.03472586094439029,0.19437900068876332,-6.5563733622998,7.455244694519043,-0.042313929042728134,1.5937599694687719,2.8572982218139984
1698744760.488,0.01666666753590107,-0.01237829219372943,-0.1366103644043207,0.03054594491124153,0.13287797294296325,-6.5493380568355315,7.448507495218515,-0.7647065387315995,1.0723847362518417,2.7213413853941906
1698744760.504,0.01666666753590107,-0.09065906196259893,-0.17954291267991065,0.05270224713981151,0.04773404853949323,-6.600214842113852,7.46392192197144,-1.2424827001247813,-1.2538739615564818,2.627254462360207
1698744760.521,0.01666666753590107,-0.14393340990194117,-0.2183756244212389,-0.035220366463065145,-0.006135297017777338,-6.644656625908612,7.3711454385966055,-0.6446851206148132,-2.1744436562396268,1.848295293182348
1698744760.538,0.01666666753590107,-0.15410758878067135,-0.16491992856562138,-0.04150339225530624,-0.013168355726031585,-6.593032821655273,7.3632158146411175,-0.03431832550536874,-3.0423483235537425,1.3356459467952264
1698744760.555,0.01666666753590107,-0.08854849041625856,-0.14446400051414965,-0.06539163284301758,0.061500753751164296,-6.574328121185302,7.337628368920087,-0.22203845758141905,-4.723902263953389,1.2132413796274875
1698744760.571,0.01666666753590107,-0.03271304155094549,-0.12566869915127754,-0.11499416040182113,0.12479756060624494,-6.556821106067299,7.286752168163657,0.06845835906101634,-5.760783036569269,1.0902707605322837
1698744760.588,0.01666666753590107,-0.04686846295241266,-0.10429507173299789,-0.1868470982134342,0.12045790570043027,-6.534822624748945,7.215223640000819,1.1779136135277717,-6.982978794198644,1.234373878197801
1698744760.605,0.01666666753590107,-0.07756609129402786,-0.10030746340155601,-0.18617372899651527,0.10130434721810742,-6.530781824925541,7.215672552812099,0.7817397498611419,-6.915957989854717,1.720410886587849
1698744760.621,0.01666666753590107,0.0644770022161305,-0.11271569407582283,-0.07397709035873412,0.24884700625892728,-6.54454965351522,7.326554601719975,0.22392897923848454,-5.70946867910861,1.9907075121414641
1698744760.638,0.01666666753590107,0.12939080668063835,-0.03550912027657032,-0.025033903491497037,0.3167824783658609,-6.467786147308349,7.3750383543819185,0.6587122480967567,-3.5996556878902286,3.677227853841356
1698744760.654,0.01666666753590107,0.2361271158196032,0.19825287384688853,0.035383448070287704,0.41823684678021816,-6.234650760650634,7.435041864445805,0.771161334301526,-2.295813343026403,6.409178017120458
1698744760.671,0.01666666753590107,0.2635956808458082,0.3333797216951847,-0.006117021575570106,0.4352954057446681,-6.101472708782553,7.3920958721667525,0.08996326302365437,-1.6230381089545605,8.515212206180529
1698744760.688,0.01666666753590107,0.23550284644141792,0.38987493137717244,0.03450082001686096,0.39429479364603753,-6.048651219177246,7.429804548314213,-2.1804873064380303,-2.4878940572996173,10.745589135307037
1698744760.705,0.01666666753590107,0.14423863079305738,0.2945569468259811,-0.023259879556298255,0.2852089713720139,-6.153993754136562,7.363662389364838,-3.2664169481442418,-3.315616294839725,12.741345651349022
1698744760.721,0.01666666753590107,-0.03140853482363745,0.2291319962352514,-0.011387655454874038,0.09801237473431974,-6.226570914569497,7.369501178520918,-4.300372905691476,-3.8848344418716554,13.944701185926561
1698744760.737,0.01666666753590107,-0.022015286322683094,0.17053250775039194,-0.049049569851160046,0.0920269710486289,-6.294056304821372,7.324309453141689,-5.510517221417186,-3.3595551152138285,15.619242443039308
1698744760.754,0.01666666753590107,0.10496477855495176,0.059684945634007454,-0.026975100687146186,0.19168546902216038,-6.418703844231366,7.334633278757333,-7.003436064536478,-0.5267093441544457,18.035017173222997
1698744760.772,0.01666666753590107,0.1915064683265984,0.005461188015341759,0.04727671495974064,0.24899676259369588,-6.4836471487849945,7.399726220914721,-7.60772936739054,2.1639033936898278,20.17426827976413
1698744760.788,0.01666666753590107,0.20525486156344414,0.06091361064612865,0.04181844955384731,0.2229597715904354,-6.440702325549721,7.383416891148686,-6.745872619143059,3.7707113723508514,21.98156707000077
1698744760.804,0.01666666753590107,0.10408039693585597,0.1631312915831804,-0.010782675299048423,0.06284750131815671,-6.352118033167719,7.318626146808266,-6.27017171467965,2.707926680420874,24.592038050022964
1698744760.821,0.01666666753590107,0.11262742213732563,0.05995031857192516,0.004859130468964576,0.024241036080755292,-6.4671881814151995,7.323263743481039,-6.600598337478296,1.4424562315924743,26.466870335678106
1698744760.838,0.01666666753590107,0.1576174783314578,-0.056773442101478576,0.15624094754755496,0.020200692915078252,-6.5970736214786765,7.462127439770102,-8.160203732559008,0.6731386214800286,27.660997430913312
1698744760.854,0.01666666753590107,0.11209800056889653,-0.22612053945958613,0.23433014940023422,-0.08693970351275056,-6.78681351852417,7.520485520714521,-8.500354837188459,-2.213234008083422,27.93029642196128
1698744760.871,0.01666666753590107,-0.028958237328380345,-0.46817105397880077,0.07848726125955581,-0.2699464929109439,-7.04164577320516,7.351843356755375,-6.482944487043419,-2.116569755854816,25.817152005975228
1698744760.888,0.01666666753590107,-0.02188585125673562,-0.5432061289578676,0.18050445118844508,-0.300023724331893,-7.125593637958168,7.44446961800456,-5.031603566722933,-3.105948270340551,23.026883126241618
1698744760.904,0.01666666753590107,-0.04186130231488496,-0.5943313360393047,0.2685065597683191,-0.35972901863418516,-7.186645780292153,7.521831674626469,-4.576231439663598,-5.320514165312125,20.829602732512054
1698744760.921,0.01666666753590107,-0.0714702586369589,-0.48369361728131766,0.09607143326699732,-0.4129999690400436,-7.082498008075356,7.3424167722404,-4.135345290060213,-5.799290362449332,19.32644372827962
1698744760.938,0.01666666753590107,-0.046151218061149114,-0.4384066148340702,0.02917348751425743,-0.4094087761476636,-7.043591062054038,7.268645433586835,-4.38595560287856,-5.154576000087134,17.672238505646938
1698744760.954,0.01666666753590107,-0.013847981153801084,-0.32390111473202704,-0.014421324062347411,-0.4017772218232974,-6.937946329277754,7.215671968290209,-3.9739778020504306,-5.559860642415474,15.270199285884146
1698744760.971,0.01666666753590107,-0.03015606881082058,-0.20061726489067078,-0.05172434201836586,-0.43185448977686464,-6.8203317572444675,7.172427285325527,-3.6668950582875963,-6.289840951941994,13.819851304314252
1698744760.987,0.01666666753590107,-0.020377054128982126,-0.18119827867150307,-0.07324936060607433,-0.4342486914370209,-6.806715319824218,7.144895135277509,-4.032750726084744,-5.225273580638644,13.232238177187007
1698744761.005,0.01666666753590107,-0.005841602167673409,-0.12359306192100047,-0.09905132586061954,-0.4381393056673929,-6.757634185791015,7.1101786266833535,-4.155840553325306,-4.623145020864653,13.18855143348196
1698744761.021,0.01666666753590107,0.041284634938091036,-0.11313713435828684,-0.089380411195755,-0.4056677629884332,-6.753294110760092,7.113321016362309,-3.8039005421884124,-3.7098940873205883,12.772643285673313
1698744761.038,0.01666666753590107,0.06669763740766793,-0.16229717884659767,-0.06585048252642155,-0.39639041421841825,-6.808362502509355,7.1303814567565915,-4.0407066158073395,-2.249174036609206,12.239380535092797
1698744761.054,0.01666666753590107,0.06608082068357617,-0.22334639857113361,0.051235097196698186,-0.42197815220039336,-6.878540785107016,7.237370005357265,-5.032111135155629,-0.15313593612115353,11.93110250822521
1698744761.07,0.01666666753590107,0.07998429488427937,-0.21657412795722483,0.12901800957918166,-0.4291607937134802,-6.880484904912114,7.3056035836279385,-5.834342039496192,0.49636969722210195,11.82757220833345
1698744761.088,0.01666666753590107,0.02560132811591029,-0.18190496563613415,0.0585065495043993,-0.5123594840670004,-6.858640737372636,7.221061260113119,-5.737256023086338,1.2872743336497845,11.45052869067582
1698744761.105,0.01666666753590107,-0.004539543125778436,-0.2152116074323654,0.05051379718482494,-0.5638348562929779,-6.900390213343501,7.203554244995117,-4.490761013710997,2.0953573227268723,10.322051666195485
1698744761.121,0.01666666753590107,-0.08958134059533476,-0.28334873959124085,0.13944061939418315,-0.6672345135562121,-6.975807565638423,7.284207744377851,-3.8556473360008985,1.0640241578209229,9.549085134240665
1698744761.138,0.01666666753590107,-0.11873700019195675,-0.2640279530495405,0.0982248119086027,-0.7122751765595748,-6.9618883458793155,7.236621232816576,-3.0559246051896123,0.5413191721499558,8.074388382053321
1698744761.154,0.01666666753590107,-0.11402838410958648,-0.2333405538409948,0.09253332226872443,-0.7237973085816949,-6.936749812969565,7.224351533830165,-2.6363285821159805,0.18498356075618916,6.5856590062161855
1698744761.171,0.01666666753590107,-0.09344663772135972,-0.2052729817420244,0.052642041385173796,-0.7121256485536694,-6.911909970745444,7.180658522576093,-1.5657416797197332,-0.4602190534099583,4.996837903847568
1698744761.188,0.01666666753590107,-0.09041559946238995,-0.22891689217984676,0.008802315136790275,-0.7163155014589428,-6.936002793994546,7.135767825970054,0.6515870267711111,-0.6618613388301028,3.28430179848592
1698744761.204,0.01666666753590107,-0.10241006170399486,-0.22517945921719074,0.002530395260453224,-0.732177087457478,-6.930168096491694,7.1311290602535005,1.3357709179126964,-0.1253507532579681,2.048081741499806
1698744761.221,0.01666666753590107,-0.1379313108097762,-0.21157120510339736,0.04129004176557064,-0.77078373535797,-6.913408684870601,7.172579261016845,2.1866152667840013,0.47690872736859025,0.39134014412709694
1698744761.238,0.01666666753590107,-0.12127857443355024,-0.18256547537148,0.09323416401445865,-0.7555205536440014,-6.880785933685302,7.22779436776042,1.8275812504204034,1.5093835477221367,-1.0748474463344544
1698744761.254,0.01666666753590107,-0.047672509344294664,-0.0977589479625225,0.1269295128673315,-0.685789211096242,-6.7932473509639495,7.263706223618984,0.7578819524511403,4.122666324526554,-1.9450107718297285
1698744761.272,0.01666666753590107,0.050680532053858036,0.04300736707746982,0.160448336109519,-0.5939118685182183,-6.653934157341718,7.295280342534184,-1.229697333050458,5.557069229479054,-1.6962316967608864
1698744761.288,0.01666666753590107,0.1116157700099051,0.03392038978040218,0.06392506742179394,-0.5451300096925348,-6.6697963278621435,7.191281623399258,-2.83897495870497,5.363286090555214,-1.082447846055092
1698744761.305,0.01666666753590107,0.0977360054783523,0.06091653325557708,-0.008438157999515533,-0.5675757233217358,-6.648697425732016,7.11257282834351,-2.7137741761240513,5.454040521604466,-1.151792942429233
1698744761.321,0.01666666753590107,0.06874255070611834,0.13652093255519865,-0.037433366337418554,-0.6108211369387805,-6.581061813354491,7.07471451459229,-3.7814898377479547,6.96031067700384,-0.6378354547334953
1698744761.338,0.01666666753590107,0.11739449954181909,0.19862170715928076,0.03783259478807449,-0.5758057184632868,-6.526742778667807,7.141302663743495,-5.529828300634928,8.738571344870994,0.31297404872623497
1698744761.354,0.01666666753590107,0.11739230758473276,0.20018647225797176,0.09131810126006602,-0.5936124471802264,-6.536169947704672,7.182603226903081,-7.465950008146708,9.014923360010648,1.6841244394050985
1698744761.371,0.01666666753590107,0.0017846183944493531,0.08314648524224758,-0.08285539334118366,-0.7252937576845288,-6.664708064812421,6.995854912889003,-6.387031982510337,8.394393843725819,1.3529629309404416
1698744761.388,0.01666666753590107,-0.24080095284953712,-0.0012777648508548736,-0.09062018212378024,-0.9874590586673467,-6.7601797786206,6.975505952343345,-4.287627772700232,9.16157008281176,-0.5207844218537241
1698744761.405,0.01666666753590107,-0.21624708795994518,0.0026408698976039886,-0.0707014296889305,-0.97833079951182,-6.7636185208976265,6.9867264345377675,-4.530703533090408,9.574715419101139,-0.22538898553442765
1698744761.421,0.01666666753590107,-0.02483253570050001,0.01040682772397995,0.05498948129415512,-0.8098389307435602,-6.766163529205322,7.10000326962769,-6.114460050189462,10.834647971894833,0.11920051475591542
1698744761.438,0.01666666753590107,0.06158011173084378,0.03734159640073776,0.09021803106367587,-0.7411554898135364,-6.751351159998774,7.121552253612876,-9.816820865742349,11.48465829218473,0.10963296719346138
1698744761.454,0.01666666753590107,0.06907558205276727,-0.03388531846702099,0.146949387589097,-0.7541738882753998,-6.845322406116128,7.153873391503096,-15.616641848512826,10.41690762584133,0.7374713728595853
1698744761.471,0.01666666753590107,0.052051162819936866,0.010219196197390555,0.04801496610641479,-0.8022073398865759,-6.85025869347453,7.003187155473232,-25.792886051401464,14.180907056672174,-1.211566169011836
1698744761.488,0.01666666753590107,0.22936368609927593,0.33111177676320075,0.13435644799768923,-0.6530188681337982,-6.584504062762856,7.031170556420087,-36.18978122297466,20.438369496853724,-2.1927063014197716
1698744761.504,0.01666666753590107,0.44751865350715814,0.4546200830101967,0.26459377023875713,-0.47480055512115354,-6.534526272150874,7.0815990134090185,-43.69507312074064,26.779884244961448,-0.5665596026192091
1698744761.521,0.01666666753590107,0.7990995831295847,0.7069955921888351,0.3709276543229818,-0.2059013427734375,-6.380995752605796,7.073218138554692,-39.21082853438465,37.64309179909704,6.2205636238510245
1698744761.539,0.01666666753590107,0.8152860902335495,0.7252747607231139,0.12382102545797824,-0.28116942279078067,-6.424091967010497,6.746109752213955,-35.68117118642966,46.38235982326338,15.78319771897088
1698744761.555,0.01666666753590107,0.7221065059505403,0.6584253302872181,0.13683423628807068,-0.518793426104635,-6.545746169823408,6.673683982950449,-35.868379841390535,74.96127832956576,28.463420007437456
1698744761.571,0.01666666753590107,0.44742681050524113,0.9309785350978373,0.47539457549154757,-1.0694599540710448,-6.3488230832755566,6.868662949693203,-48.48626640839699,105.24034020331102,24.784528148759556
1698744761.588,0.01666666753590107,0.04494871040359139,1.1745301018297671,1.6224813746005295,-1.7100588280275464,-6.198439045062661,7.845797671288252,-78.4367859377809,136.13095672477172,17.88894504008581
1698744761.604,0.01666666753590107,-0.061677580755949014,0.9238479525655507,2.430572365698218,-2.0862473254881797,-6.600812223485112,8.384641513383388,-123.70299039782664,157.79089360185117,17.50951949395514
1698744761.621,0.01666666753590107,-0.42789311186522244,1.386253282624483,3.32452260812819,-2.8511946097776293,-6.420948408287763,8.74167683595419,-180.74661298713042,168.74881197411275,38.17974317727953
1698744761.638,0.01666666753590107,-0.9639169281035661,1.4326976384133099,2.8448399800539015,-3.6918583754390477,-6.606647505509853,7.753768791410327,-199.20123770937127,156.59070642127486,39.0867752235843
1698744761.655,0.01666666753590107,-0.9214297855079173,1.5422697737663984,2.806886389234662,-3.9016511726930734,-6.712295160895586,7.18305272423625,-196.23636187369547,139.04740651923214,29.43247700159511
1698744761.671,0.01666666753590107,-1.1438739745423196,1.642400711557269,2.4440999557912346,-4.380341574859619,-6.852503842052817,6.12272066399455,-181.5569329698824,131.86391898421132,18.03388677691536
1698744761.688,0.01666666753590107,-1.0906079560399056,2.1267460707455874,2.0832161410987378,-4.477007466888428,-6.513125756725668,5.2542240117728705,-171.39023737145345,130.10627908433526,11.79006763960091
1698744761.705,0.01666666753590107,-0.8097419731751084,2.3891876313865184,2.174082114677131,-4.316595371136069,-6.369323434990644,4.850052551756799,-164.6109331107573,123.00666627232218,9.092650912765393
1698744761.721,0.01666666753590107,-0.5050386031270027,3.029593905380368,2.086949190147221,-4.125808010864257,-5.853374730792641,4.124908285545557,-158.743144915556,102.11492760138323,4.4610876837486995
1698744761.737,0.01666666753590107,-0.1056195983350277,3.1977029853761194,1.7847277000427244,-3.778798407745361,-5.755660206493735,3.3707356393791734,-154.08256533539782,82.6856690355274,3.5575070174089034
1698744761.754,0.01666666753590107,0.15662527069002388,3.281785874685645,1.818246231023967,-3.5558375013604757,-5.72124121954143,2.972998450194299,-151.82106238044992,69.76225444656794,7.6999625343951
1698744761.771,0.01666666753590107,0.3656599430531263,3.7466093718022107,1.649528956001997,-3.406051136779785,-5.286097405895591,2.2451609628437086,-152.5101601658125,55.05214774809776,17.323774207023934
1698744761.787,0.01666666753590107,0.6842962691247463,3.582520048841834,1.3125871579110622,-3.1389474295467137,-5.446207888352871,1.5002647155992686,-153.17154104352318,41.1533753154713,21.771268960550664
1698744761.804,0.01666666753590107,0.8776742304116487,3.4049902295500036,1.3645067302405833,-3.000533522851765,-5.599738407897949,1.1529568236535415,-155.8410385183526,30.47359932168557,24.670132725445598
1698744761.821,0.01666666753590107,1.2000076574355363,3.0403239737093446,1.1971406506318598,-2.752583136638999,-5.903351936882734,0.450108889196068,-162.50368314802495,27.76546688181595,25.418699260364193
1698744761.837,0.01666666753590107,1.4140537282198666,2.863515454429388,1.0203607729244977,-2.589777423748374,-6.012288112419843,-0.1457484143014997,-173.6225071167537,29.642382375167944,24.34942119296765
1698744761.854,0.01666666753590107,1.6332532362446188,2.664156665167212,1.134073734409362,-2.41365396412313,-6.120027187126874,-0.4879696871653199,-194.4539830286456,33.72048683800204,22.77131281542537
1698744761.871,0.01666666753590107,2.034020148514211,1.6065560757160187,0.668204527632147,-2.0549726279109715,-7.001242451146244,-1.6461645941354333,-228.30109474367052,39.94875192702908,21.763656714720685
1698744761.888,0.01666666753590107,1.9154782325029371,0.49197278532683847,-0.4424453688308596,-2.1900953841060398,-7.933035225236416,-3.3292882150948047,-245.33430245811837,44.07612937453565,19.686599603214393
1698744761.904,0.01666666753590107,1.7280571337938309,-0.22738602935075758,-1.0982952956721186,-2.3808830366387963,-8.42160258603394,-4.582801545007527,-259.5605483105011,43.533750882734104,15.859799998059865
1698744761.921,0.01666666753590107,0.9313274946659803,-0.6007037936806678,-2.034637695890665,-3.1491230788633224,-8.432975628441572,-6.2979486360847945,-255.33998317705345,30.156777581939945,-1.4322072125777527
1698744761.938,0.01666666753590107,0.21654899351596832,-0.38389293435811994,-3.6443007977113124,-3.8175542548581958,-7.9355796490222215,-8.426393327441811,-232.46835708083537,20.362933472565516,-14.545348875311129
1698744761.954,0.01666666753590107,-0.2729606165677309,-0.4595622155874967,-4.124131017562747,-4.246265989629924,-7.752573444145917,-9.339033072772622,-194.95680789496362,10.700468051876285,-27.648959222501166
1698744761.971,0.01666666753590107,-0.7931117408916354,-0.8944985239624976,-4.9387914501786225,-4.669291495458782,-7.9170251706779,-10.580576271167397,-142.90314392835273,2.5757633737547736,-39.74057459131626
1698744761.988,0.01666666753590107,-0.74645929531008,-1.0411883838325737,-4.947272862797975,-4.544643079265952,-7.913134592980146,-10.822689914050697,-113.32462040682981,2.6048924230175854,-42.1563134630068
1698744762.005,0.01666666753590107,-0.8409037118971348,-1.3113847963839769,-4.551685983514785,-4.554519161114096,-8.064118935173749,-10.616339073944092,-94.83128217237332,11.62170945297562,-41.591630988470584
1698744762.02,0.01666666753590107,-0.6320604704529047,-2.087357478687167,-3.5839883678287268,-4.197483838543295,-8.694092662480474,-9.893439810180663,-92.4884043436539,38.56855511087709,-41.81253296660714
1698744762.038,0.01666666753590107,-0.12499708350002765,-2.7005262016654012,-2.6629087109327316,-3.5366844726011153,-9.18744842659831,-9.178322870856523,-95.97299610346515,57.469621487837486,-42.04631326642375
1698744762.054,0.01666666753590107,-0.05040478385239839,-2.9512925220817325,-2.397659691655636,-3.287837137548625,-9.30940307366252,-9.125500212207436,-93.31278085571775,60.25662553714783,-41.26521283294109
1698744762.071,0.01666666753590107,0.1044949782192707,-2.9730718076914546,-2.4170845230937004,-2.9155387793943284,-9.171886115807295,-9.390209717780351,-74.45537304793207,47.45611337211357,-38.30455463907776
1698744762.088,0.01666666753590107,0.14554273566156625,-2.9098078345268963,-2.692551569524407,-2.735225466863811,-9.017310471123457,-9.803807470050453,-55.84133171046313,39.3026092013567,-36.51687898232657
1698744762.105,0.01666666753590107,0.1560454249754548,-2.8245611621350046,-2.6967233022511006,-2.5981574218198658,-8.872761130413412,-9.90810487987101,-35.358417427389874,37.293765189091324,-34.09288582702406
1698744762.121,0.01666666753590107,0.23185440693646667,-2.2867314655184745,-2.5041350300371645,-2.35290138925761,-8.30608352497518,-9.801861596679688,-11.621096443497612,43.61890626621124,-29.01580814146765
1698744762.138,0.01666666753590107,0.18768033416718244,-1.730244414705038,-2.1179969471007585,-2.2720967909663914,-7.760953149956464,-9.449465039825439,4.785645893389835,41.678797862658286,-24.9768696908817
1698744762.155,0.01666666753590107,0.05167202730923891,-1.4653829334408044,-1.7838088316321372,-2.298882360430807,-7.53365421436727,-9.120113258472085,17.46780582114658,31.478313318405274,-23.814591767746265
1698744762.171,0.01666666753590107,-0.2224815984353423,-1.0988555599033831,-1.202962415587902,-2.4594435092650353,-7.238418637627363,-8.515427701678872,21.0416681534099,20.89479347304524,-24.16722589685756
1698744762.188,0.01666666753590107,-0.35353695906102656,-0.8249930260598659,-0.26142858420610426,-2.5095719603940845,-7.011119117516278,-7.55894413844645,11.285686343925795,21.081834788371456,-26.570378437455062
1698744762.204,0.01666666753590107,-0.47635231460779903,-0.6098024614155292,0.10573182653784752,-2.550123897143453,-6.817188783043623,-7.197568740844726,-6.170641771207402,16.674279566016377,-30.297728780746912
1698744762.221,0.01666666753590107,-0.40495910326242446,-0.2971113074839115,0.31492168946266175,-2.365920153045654,-6.487986054772138,-7.033416874042153,-23.57930882631225,11.498443321477108,-41.26059220996758
1698744762.238,0.01666666753590107,-0.3777276897266507,0.28882746326327324,-0.12552958294153213,-2.251148110961914,-5.8807566587150095,-7.514501770129799,-19.543734243892526,3.2642899845480176,-48.18594640568612
1698744762.255,0.01666666753590107,-0.5443148208521306,0.6032441258132457,-0.48360418543219563,-2.344072916766256,-5.568163704460859,-7.889344552069902,-2.3285877923152976,-11.33744124858792,-52.00233509499825
1698744762.271,0.01666666753590107,-0.6383873353868722,1.0414449889421462,-1.0727981585830448,-2.372504207611084,-5.193471144646406,-8.44090817500651,25.654982824511613,-24.69699585945126,-54.65407066289107
1698744762.288,0.01666666753590107,-0.4395630913928151,1.6791069326639174,-1.4380448446601628,-2.1315875194273888,-4.6450493268668644,-8.739584832111001,41.58384457281677,-20.18880292231792,-50.032091896827204
1698744762.304,0.01666666753590107,-0.6434197765961289,1.9961317318856715,-1.526703371322155,-2.2878093238830566,-4.433761614879965,-8.7463179397583,47.44925927728146,-7.553034066290724,-39.6077752232837
1698744762.321,0.01666666753590107,-0.6011262568764388,2.275902028468251,-1.3887275637835264,-2.1573250411435962,-4.2865176282584665,-8.507945821490884,42.459915371613874,16.569803284924568,-29.53674325436994
1698744762.338,0.01666666753590107,-0.17798107019066808,2.146007820576429,-0.9732698628604411,-1.6419735721863806,-4.499601576012373,-8.034642080798745,35.88377167268516,32.011959413352955,-24.453945285383647
1698744762.354,0.01666666753590107,-0.11332272005826234,2.127829774329066,-0.7594792281419038,-1.4725836585998535,-4.588037399834394,-7.775170475879311,32.656357025692394,38.956154685896976,-18.77188359409336
1698744762.371,0.01666666753590107,0.16026435784474014,2.075029912033677,-0.5214321040451526,-1.074547632598877,-4.733185875481367,-7.4708075898319475,39.60158365680108,33.55186654286735,-11.34137287622891
1698744762.388,0.01666666753590107,0.5086529942318797,1.8390975881338119,-0.21296470528841016,-0.6540659660339355,-5.050866508263349,-7.0938698814392085,47.44655452237014,27.260406836092063,-7.58620061112666
1698744762.405,0.01666666753590107,0.626572613626346,1.7980033612012862,-0.12177695240974426,-0.4843769233703613,-5.183894338005781,-6.918046281543374,53.566540622484965,18.633777169075703,-4.374882158686676
1698744762.421,0.01666666753590107,0.8168677334018051,1.596167368170619,0.018024316990375516,-0.25647885284423827,-5.521476772087812,-6.642113955688476,61.112311636367025,9.365611738982137,0.0012081697507253413
1698744762.438,0.01666666753590107,0.7745214605815708,1.4026175574481488,0.33060499628484247,-0.28999767608642574,-5.821350530022382,-6.215497731891274,61.67548122400209,4.7483820888255375,3.0592009615571025
1698744762.455,0.01666666753590107,0.7148282585758715,1.171203003233671,0.5542500855416059,-0.3507505432128906,-6.1819765705615275,-5.8461921258121725,53.44491885902914,5.795697256059082,6.527555013833711
1698744762.471,0.01666666753590107,0.610389832849428,1.1230372304797172,0.6500736815273761,-0.46552265836186707,-6.311264044731855,-5.654206495666504,47.46926490136043,-5.8546674018056795,5.705367150512017
1698744762.488,0.01666666753590107,-0.5918791205815971,0.2689689165830612,0.9431891973733901,-1.695094775390625,-7.240812839287519,-5.266196773639321,44.96039981543135,-22.744910719188688,-4.703599099758703
1698744762.504,0.01666666753590107,-0.5496884767144918,-0.0809627114623785,0.9710194535851479,-1.672050584411621,-7.659947767418623,-5.150227630725503,35.76330421119906,-19.78302650636934,-12.791596206846451
1698744762.521,0.01666666753590107,-0.7295257692310959,0.04437164116799831,1.1541688663244247,-1.8394950630187987,-7.595304322594404,-4.893449502673745,17.30598668687793,-8.282851731937635,-14.563093706774822
1698744762.538,0.01666666753590107,-0.29394341803751883,0.0866699831932783,1.1296814907997845,-1.3893850778441876,-7.577946360558271,-4.8889597900390624,10.552227333677623,-4.580558791389624,-10.19503917593722
1698744762.554,0.01666666753590107,0.004010477750375867,0.30933541376292706,1.0219576136618853,-1.0766424129210412,-7.375635735753178,-4.9733559830814595,6.038986459860821,0.7551832273161919,-4.382677538963776
1698744762.571,0.01666666753590107,0.11029621184393763,0.4834066170334816,0.9228004893392324,-0.9612720396179705,-7.206994740837812,-5.067178760638833,1.2398558520586769,4.271755693729593,0.17503100129991533
1698744762.588,0.01666666753590107,0.30811361688300964,0.6006278058350086,0.905182415062189,-0.7567173622131347,-7.088930671471357,-5.0870805619388815,-2.3187072833506397,4.711712937605855,-0.16028090096236866
1698744762.605,0.01666666753590107,0.28254085727445777,0.4701724569290876,0.6466764403045178,-0.7740753242492675,-7.213578795403242,-5.354482959857583,-2.28500072668345,-0.5817594949259849,-2.4839045864940954
1698744762.621,0.01666666753590107,0.21880561333633958,0.46889118494689463,0.5545025989979505,-0.8355763793945312,-7.213878655132651,-5.448305737414956,-0.42087892469883026,-4.18548741630457,-3.7014647801111464
1698744762.638,0.01666666753590107,0.040053485707938666,0.40664837152361866,0.21579379123449324,-1.0136450548034162,-7.276276951378583,-5.786935634723306,-0.7501539135703882,-2.3812308350129365,-2.033998318318063
1698744762.654,0.01666666753590107,-0.04122508677057922,0.18331249434649943,0.1690530828475952,-1.0959458099365234,-7.497292276653647,-5.8364656815677876,-1.0821863778759273,0.9428798672767571,2.034849530643376
1698744762.671,0.01666666753590107,-0.031929215963184834,0.11398235301077365,0.236173146918416,-1.0922046506468206,-7.56567549252808,-5.769577672687173,0.7370326399271178,-1.6805259969295594,4.133057603575082
1698744762.688,0.01666666753590107,0.0195593445379287,0.04025836063027382,0.27097908736169335,-1.0643722755432128,-7.64199183948934,-5.727230230823159,2.9661050562830056,-6.739998656456848,5.951125040811893
1698744762.704,0.01666666753590107,-0.07226356443911791,0.09874971256554126,0.39218788449466224,-1.1776479415893555,-7.585578462871909,-5.599439717212319,1.3032326437586963,-4.776924595593375,5.406844341326502
1698744762.721,0.01666666753590107,-0.12474712732695042,0.004884264910221099,0.3971452146410942,-1.2421416757445782,-7.676407903832197,-5.596147689929604,-4.075743351815389,-0.0518833175546069,2.397489033115094
1698744762.738,0.01666666753590107,-0.25610724305287,-0.22612463111281395,0.29059856458902356,-1.363048932647705,-7.8894918515861026,-5.727529506030678,-12.62977536503051,11.480295508852384,-0.9254627781715188
1698744762.754,0.01666666753590107,-0.30524032646901905,-0.2481552611351013,0.06781622964143752,-1.3865420364379881,-7.890390261730551,-5.98176379481852,-14.29700661218405,16.343660844147323,-2.705291294618307
1698744762.771,0.01666666753590107,-0.2110665435168892,-0.3513122687488794,-0.03367605963051319,-1.2592003625731913,-7.9741861507922405,-6.113444301605225,-11.35781314156113,16.368575666692237,-4.324282836654752
1698744762.788,0.01666666753590107,-0.16136588934585452,-0.295590381526947,-0.21426585101485252,-1.1626841812133788,-7.904754887169599,-6.319046369171142,-5.672988638751572,17.00483169354102,-4.745500602769439
1698744762.804,0.01666666753590107,0.11273739445097744,-0.16067337703704834,-0.26488018596470353,-0.8635585382323712,-7.768434445622563,-6.375460330310464,3.2855532172079136,0.6137648008813126,-3.9168722979472466
1698744762.821,0.01666666753590107,0.4693453584551811,-0.017909750699996948,0.19491583837866783,-0.5186438615661114,-7.64229111469686,-5.893029280310869,13.313840154748442,-23.72550048775991,-3.3824936652110815
1698744762.874,0.01666666753590107,-0.23988778352737425,0.11683715792000293,0.18936755660176277,-1.2846388282775878,-7.551910002025961,-5.833024601203203,-2.816601606861535,4.9110989660832205,-3.0078912998514973
1698744762.888,0.01666666753590107,-0.277598140175268,0.08369827390611172,0.1527928529202938,-1.3007997625488787,-7.577647669872641,-5.882704285651445,-7.395059474751146,16.558287585983926,-2.590136653089419
