ts,interval,accx,accy,accz,accGx,accGy,accGz,alpha,beta,gamma
1698924605016.0,16,0.0,0.0,0.0,0.0,9.4,1.1,0.0,0.4,0.30000000000000004
1698924605033.0,16,0.0,0.0,0.0,0.0,9.4,1.1,-0.1,-0.1,0.1
1698924605049.0,16,0.0,0.0,0.0,0.0,9.4,1.2000000000000002,0.0,-0.2,0.1
1698924605066.0,16,0.0,0.0,0.0,0.0,9.4,1.1,0.30000000000000004,0.2,0.2
1698924605082.0,16,0.0,0.0,0.0,0.0,9.4,1.2000000000000002,0.0,0.30000000000000004,0.1
1698924605099.0,16,0.0,0.0,0.0,0.0,9.4,1.1,-0.1,0.2,0.1
1698924605116.0,16,0.0,0.0,0.0,-0.1,9.4,1.1,-0.8,0.2,0.1
1698924605135.0,16,0.0,0.0,0.0,0.0,9.4,1.2000000000000002,-0.7,0.4,0.2
1698924605150.0,16,0.0,0.0,0.0,0.0,9.4,1.2000000000000002,0.0,0.5,0.1
1698924605166.0,16,0.0,0.0,0.0,0.0,9.4,1.2000000000000002,0.2,0.5,0.2
1698924605182.0,16,0.0,0.0,0.0,0.0,9.4,1.2000000000000002,0.5,0.4,0.30000000000000004
1698924605199.0,16,0.0,0.0,0.0,-0.1,9.4,1.2000000000000002,0.6000000000000001,0.4,0.30000000000000004
1698924605216.0,16,0.0,0.0,0.0,0.0,9.4,1.2000000000000002,0.9,0.1,0.5
1698924605233.0,16,0.0,0.0,0.0,0.0,9.5,1.1,0.8,0.2,0.5
1698924605249.0,16,0.0,0.0,0.0,0.0,9.5,1.2000000000000002,0.30000000000000004,-0.1,0.30000000000000004
1698924605266.0,16,0.0,0.0,0.0,0.0,9.4,1.2000000000000002,0.2,0.0,0.1
1698924605282.0,16,0.0,0.0,0.0,0.0,9.4,1.2000000000000002,0.0,-0.5,0.1
1698924605299.0,16,0.0,0.0,0.0,0.0,9.4,1.2000000000000002,0.0,-0.4,0.0
1698924605316.0,16,0.0,0.0,0.0,0.0,9.4,1.1,0.1,-0.1,0.2
1698924605332.0,16,0.0,0.0,0.0,0.0,9.4,1.1,-0.30000000000000004,0.2,0.1
1698924605351.0,16,0.0,0.0,0.0,0.0,9.5,1.1,0.4,0.30000000000000004,0.0
1698924605366.0,16,0.0,0.0,0.0,0.0,9.5,1.1,0.5,0.2,0.1
1698924605382.0,16,0.0,0.0,0.0,0.0,9.4,1.1,0.30000000000000004,-0.2,0.1
1698924605399.0,16,0.0,0.0,0.0,0.0,9.4,1.1,0.2,-0.1,0.0
1698924605416.0,16,0.0,0.0,0.0,0.0,9.4,1.1,-0.1,-0.1,0.0
1698924605433.0,16,0.0,0.0,0.0,0.0,9.5,1.1,-0.6000000000000001,0.2,0.1
1698924605449.0,16,0.0,0.0,0.0,0.0,9.5,1.1,-0.6000000000000001,0.0,0.1
1698924605466.0,16,0.0,0.0,0.0,0.0,9.5,1.1,-0.4,-0.30000000000000004,0.0
1698924605482.0,16,0.0,0.0,0.0,0.0,9.5,1.1,-0.1,-0.2,0.0
1698924605499.0,16,0.0,0.0,0.0,0.0,9.5,1.1,0.2,-0.2,-0.2
1698924605516.0,16,0.0,0.0,0.0,0.0,9.4,1.2000000000000002,0.1,-0.2,-0.2
1698924605532.0,16,0.0,0.0,0.0,0.0,9.4,1.1,-0.1,0.1,0.0
1698924605549.0,16,0.0,0.0,0.0,0.0,9.4,1.1,-0.30000000000000004,0.1,0.0
1698924605566.0,16,0.0,-0.1,0.0,0.0,9.4,1.1,-0.4,0.1,0.0
1698924605582.0,16,0.0,0.0,0.0,0.0,9.4,1.1,-0.4,0.1,0.0
1698924605599.0,16,0.0,0.0,0.0,0.0,9.5,1.1,-0.2,0.1,0.1
1698924605616.0,16,0.0,0.0,0.0,0.0,9.4,1.2000000000000002,0.1,-0.2,0.1
1698924605633.0,16,0.0,0.0,0.0,0.0,9.4,1.2000000000000002,0.2,-0.1,0.1
1698924605649.0,16,0.0,0.0,0.0,0.0,9.4,1.2000000000000002,0.2,-0.2,0.1
1698924605666.0,16,0.0,0.0,0.0,0.0,9.4,1.2000000000000002,0.1,-0.4,0.1
1698924605683.0,16,0.0,0.0,0.0,0.0,9.5,1.2000000000000002,0.2,-0.30000000000000004,-0.1
1698924605699.0,16,0.0,-0.1,0.0,0.0,9.4,1.2000000000000002,-0.5,0.0,0.0
1698924605716.0,16,0.0,0.0,0.0,0.0,9.4,1.1,-0.7,-0.1,0.0
1698924605734.0,16,0.0,0.0,0.0,0.0,9.4,1.1,-0.9,-0.1,0.0
1698924605749.0,16,0.0,0.0,0.0,0.0,9.5,1.1,-0.1,-0.4,0.1
1698924605766.0,16,0.0,0.0,0.0,0.0,9.4,1.1,0.7,-0.30000000000000004,0.1
1698924605783.0,16,0.0,0.0,0.0,0.0,9.4,1.1,0.8,-0.1,0.1
1698924605799.0,16,0.0,0.0,0.0,0.0,9.4,1.1,0.8,0.2,0.0
1698924605815.0,16,0.0,0.0,0.0,0.0,9.5,1.2000000000000002,0.8,0.1,0.2
1698924605833.0,16,0.0,0.0,0.0,0.0,9.4,1.1,0.9,0.1,0.2
1698924605849.0,16,0.0,0.0,0.0,0.0,9.5,1.1,0.8,-0.4,0.1
1698924605866.0,16,0.0,0.0,0.0,0.0,9.5,1.1,0.5,-0.2,0.1
1698924605883.0,16,0.0,0.0,0.0,0.0,9.4,1.1,0.0,-0.1,-0.2
1698924605899.0,16,0.0,0.0,0.0,0.0,9.5,1.2000000000000002,-0.30000000000000004,-0.1,-0.1
1698924605916.0,16,0.0,0.0,0.0,0.0,9.5,1.1,-0.2,0.2,0.0
1698924605933.0,16,0.0,0.0,0.0,0.0,9.5,1.1,-0.4,0.4,-0.1
1698924605950.0,16,0.0,0.0,0.0,0.0,9.4,1.1,-0.1,0.4,0.1
1698924605967.0,16,0.0,0.0,0.0,0.0,9.4,1.1,0.0,0.2,-0.1
1698924605983.0,16,0.0,0.0,0.0,-0.1,9.4,1.1,0.2,-0.1,-0.2
1698924605999.0,16,0.0,0.0,0.0,0.0,9.4,1.1,0.5,-0.1,0.1
1698924606015.0,16,0.0,0.0,0.0,0.0,9.4,1.1,-0.1,-0.6000000000000001,0.0
1698924606032.0,16,0.0,0.0,0.0,0.0,9.4,1.1,-0.7,-0.6000000000000001,0.0
1698924606049.0,16,0.0,0.0,0.0,0.0,9.4,1.2000000000000002,-1.0999999999999999,-0.5,0.0
1698924606065.0,16,0.0,0.0,0.0,0.0,9.4,1.2000000000000002,-0.6000000000000001,-0.7,0.4
1698924606082.0,16,0.0,0.0,0.0,0.0,9.4,1.2000000000000002,-0.5,-0.7,0.5
1698924606099.0,16,0.0,-0.1,0.0,0.0,9.3,1.2000000000000002,-0.30000000000000004,-0.9,0.6000000000000001
1698924606115.0,16,0.0,-0.1,0.1,0.0,9.3,1.2000000000000002,0.0,-0.8,0.6000000000000001
1698924606132.0,16,0.0,-0.1,0.1,0.0,9.4,1.2000000000000002,0.30000000000000004,-0.8,0.7
1698924606149.0,16,0.0,0.0,0.0,0.0,9.4,1.2000000000000002,0.6000000000000001,-0.8,0.8
1698924606166.0,16,0.0,0.0,0.0,0.0,9.4,1.2000000000000002,0.6000000000000001,-0.8,0.6000000000000001
1698924606182.0,16,0.0,0.0,0.0,0.0,9.4,1.2000000000000002,0.5,-0.6000000000000001,0.4
1698924606199.0,16,0.0,-0.1,0.0,0.0,9.4,1.2000000000000002,0.0,-0.1,0.5
1698924606216.0,16,0.0,0.0,0.0,0.0,9.4,1.1,0.8,-0.30000000000000004,0.8
1698924606232.0,16,0.0,0.1,0.0,0.0,9.5,1.1,1.0,-0.8,0.6000000000000001
1698924606249.0,16,0.1,0.1,-0.1,0.1,9.5,1.1,0.8,-0.4,0.5
1698924606267.0,16,0.1,0.0,0.0,0.1,9.5,1.1,0.2,-0.1,0.30000000000000004
1698924606282.0,16,0.0,0.0,0.0,0.0,9.4,1.1,0.2,0.5,0.5
1698924606299.0,16,0.0,0.0,-0.1,0.0,9.4,1.1,0.7,0.5,1.0999999999999999
1698924606315.0,16,0.0,0.0,-0.1,0.0,9.4,1.1,0.5,0.1,0.9
1698924606332.0,16,0.0,0.0,0.0,0.0,9.4,1.1,0.2,0.0,0.6000000000000001
1698924606349.0,16,0.0,0.0,0.0,0.0,9.5,1.1,0.30000000000000004,0.4,0.7
1698924606365.0,16,0.0,0.1,0.0,0.0,9.5,1.1,0.9,0.30000000000000004,1.0
1698924606382.0,16,0.0,0.0,0.0,0.0,9.5,1.1,1.4,-0.7,0.9
1698924606399.0,16,0.0,0.0,0.0,0.0,9.5,1.1,1.5000000000000002,-0.8,0.6000000000000001
1698924606415.0,16,0.0,0.0,0.0,0.0,9.5,1.1,1.6,-0.7,0.30000000000000004
1698924606434.0,16,0.0,0.1,0.0,0.0,9.5,1.1,2.0,-0.4,0.30000000000000004
1698924606450.0,16,0.0,0.1,0.0,0.0,9.5,1.1,2.0,-0.4,0.30000000000000004
1698924606467.0,16,0.0,0.0,0.0,0.0,9.5,1.1,1.0,-0.6000000000000001,0.4
1698924606482.0,16,0.0,0.0,0.0,0.1,9.5,1.1,0.4,-0.4,0.30000000000000004
1698924606499.0,16,0.0,0.0,0.0,0.0,9.4,1.1,-1.0999999999999999,0.0,0.0
1698924606516.0,16,0.0,0.0,0.0,0.0,9.4,1.1,-2.0,0.1,0.1
1698924606532.0,16,0.0,0.0,0.0,0.0,9.4,1.1,-2.4000000000000004,-0.1,0.2
1698924606551.0,16,0.0,0.0,0.0,0.0,9.5,1.1,-2.5,-0.30000000000000004,0.30000000000000004
1698924606565.0,16,0.0,0.0,0.0,0.0,9.5,1.1,-2.5,0.2,0.30000000000000004
1698924606582.0,16,0.0,0.0,0.0,0.0,9.4,1.1,-2.1999999999999997,0.4,0.2
1698924606599.0,16,0.0,-0.1,0.0,0.0,9.4,1.1,-1.4,-0.4,-0.1
1698924606616.0,16,0.0,0.0,0.0,0.0,9.4,1.1,-0.4,-1.0,-0.30000000000000004
1698924606632.0,16,0.0,0.0,0.0,0.0,9.5,1.1,0.4,-0.2,-0.30000000000000004
1698924606650.0,16,0.0,0.0,0.0,0.0,9.5,1.1,0.6000000000000001,0.0,0.0
1698924606665.0,16,0.0,0.0,0.0,0.0,9.5,1.2000000000000002,0.7,-0.4,0.1
1698924606682.0,16,0.0,0.0,0.0,0.0,9.4,1.1,0.5,-0.8,0.0
1698924606700.0,16,0.0,0.0,0.0,0.0,9.4,1.1,0.2,-0.8,-0.2
1698924606716.0,16,0.0,0.0,0.0,0.0,9.5,1.1,-0.30000000000000004,-0.2,-0.30000000000000004
1698924606733.0,16,0.0,0.0,0.0,0.1,9.5,1.1,-0.6000000000000001,-0.1,-0.2
1698924606749.0,16,0.0,0.0,0.0,0.0,9.4,1.1,-1.6,-0.1,0.0
1698924606766.0,16,0.0,0.0,0.0,0.0,9.4,1.1,-2.3000000000000003,-0.2,0.0
1698924606784.0,16,0.0,0.0,0.0,0.0,9.4,1.1,-2.7,-0.1,-0.30000000000000004
1698924606798.0,16,0.0,0.0,0.0,0.0,9.4,1.1,-2.5,0.4,0.0
1698924606815.0,16,0.0,0.0,0.0,0.0,9.5,1.1,-2.1,0.2,0.1
1698924606833.0,16,0.0,0.0,0.0,0.0,9.4,1.2000000000000002,-1.2000000000000002,-0.6000000000000001,0.30000000000000004
1698924606849.0,16,0.0,0.0,0.0,0.0,9.4,1.2000000000000002,-0.9,-0.5,0.30000000000000004
1698924606866.0,16,0.0,0.0,0.0,0.0,9.4,1.1,-0.4,0.0,0.5
1698924606882.0,16,0.0,0.0,0.0,0.0,9.4,1.1,0.0,-0.2,0.30000000000000004
1698924606898.0,16,0.0,0.0,0.0,0.0,9.4,1.2000000000000002,0.2,-0.6000000000000001,0.0
1698924606915.0,16,0.0,0.0,0.0,0.1,9.5,1.2000000000000002,0.30000000000000004,-0.5,-0.30000000000000004
1698924606932.0,16,0.0,0.0,0.0,0.1,9.4,1.2000000000000002,0.30000000000000004,-0.2,-0.30000000000000004
1698924606949.0,16,0.0,0.0,-0.1,0.0,9.5,1.1,0.1,-0.4,0.0
1698924606966.0,16,0.0,0.0,0.0,0.0,9.4,1.2000000000000002,-1.5000000000000002,-0.30000000000000004,0.6000000000000001
1698924606982.0,16,0.0,0.0,0.1,0.0,9.5,1.2000000000000002,-1.6,0.2,0.5
1698924606999.0,16,0.0,0.0,0.0,0.0,9.4,1.2000000000000002,-1.4,0.2,0.1
1698924607016.0,16,0.0,-0.1,0.0,0.0,9.4,1.1,-1.5000000000000002,0.1,0.1
1698924607032.0,16,0.0,-0.1,0.0,0.1,9.4,1.2000000000000002,-1.6,0.1,0.1
1698924607049.0,16,0.0,-0.1,0.0,0.0,9.4,1.2000000000000002,-0.8,0.1,0.4
1698924607066.0,16,0.0,0.0,0.0,0.0,9.4,1.2000000000000002,0.2,0.2,0.6000000000000001
1698924607082.0,16,0.0,0.0,0.0,0.0,9.4,1.2000000000000002,0.8,-0.2,0.30000000000000004
1698924607105.0,16,0.0,0.0,0.0,0.1,9.4,1.2000000000000002,1.0,-0.4,0.1
1698924607116.0,16,0.0,0.0,0.0,0.1,9.4,1.2000000000000002,1.0999999999999999,-0.4,0.2
1698924607132.0,16,0.0,0.0,0.1,0.0,9.4,1.2000000000000002,0.8,0.1,0.6000000000000001
1698924607149.0,16,0.0,0.0,0.1,0.0,9.4,1.3,0.8,0.2,0.8
1698924607166.0,16,0.0,0.0,0.0,0.1,9.4,1.2000000000000002,0.30000000000000004,-0.30000000000000004,0.1
1698924607182.0,16,0.0,0.0,0.0,0.1,9.4,1.2000000000000002,-0.4,-0.4,-0.30000000000000004
1698924607199.0,16,0.0,0.0,0.0,0.1,9.4,1.2000000000000002,-0.7,-0.30000000000000004,-0.2
1698924607215.0,16,0.0,0.0,0.0,0.0,9.4,1.2000000000000002,-0.9,0.1,0.30000000000000004
1698924607232.0,16,0.0,0.0,0.0,0.0,9.4,1.2000000000000002,-0.6000000000000001,0.1,0.30000000000000004
1698924607249.0,16,0.0,0.0,0.0,0.1,9.4,1.2000000000000002,0.0,-0.2,0.2
1698924607266.0,16,0.0,0.0,0.0,0.0,9.4,1.2000000000000002,0.5,0.1,0.30000000000000004
1698924607282.0,16,0.0,0.0,0.0,0.0,9.4,1.2000000000000002,0.9,0.2,0.1
1698924607298.0,16,0.0,0.0,0.0,0.0,9.4,1.2000000000000002,1.6,-0.1,0.1
1698924607316.0,16,0.0,0.0,0.0,0.0,9.5,1.2000000000000002,2.0,-0.1,-0.1
1698924607332.0,16,0.0,0.0,-0.1,0.1,9.4,1.1,2.1999999999999997,-0.2,0.0
1698924607349.0,16,0.0,0.0,0.0,0.0,9.4,1.2000000000000002,1.7,-0.2,-0.5
1698924607365.0,16,0.0,0.0,0.0,0.1,9.4,1.2000000000000002,1.6,0.0,-0.5
1698924607382.0,16,0.0,0.0,0.0,0.0,9.4,1.1,1.7,0.1,-0.30000000000000004
1698924607399.0,16,0.0,0.0,0.0,0.1,9.5,1.1,1.8,0.1,-0.2
1698924607416.0,16,0.0,0.0,0.0,0.0,9.4,1.1,1.8,0.1,-0.30000000000000004
1698924607432.0,16,0.0,0.0,0.0,0.1,9.4,1.1,1.6,0.1,-0.5
1698924607448.0,16,0.0,0.0,0.0,0.0,9.4,1.1,1.9,0.2,-0.4
1698924607466.0,16,0.0,0.0,0.0,0.0,9.4,1.1,1.8,-0.1,-0.5
1698924607482.0,16,0.0,0.1,0.0,0.0,9.5,1.1,1.7,0.1,-0.2
1698924607498.0,16,0.0,0.1,0.0,0.0,9.5,1.1,1.6,-0.1,-0.5
1698924607516.0,16,0.0,0.1,0.0,0.0,9.4,1.1,1.5000000000000002,-0.4,-0.5
1698924607532.0,16,0.0,0.0,0.0,0.0,9.4,1.1,1.2000000000000002,-0.8,-0.5
1698924607549.0,16,0.0,0.0,0.0,0.0,9.5,1.1,0.5,-0.8,-0.6000000000000001
1698924607566.0,16,0.0,0.0,0.0,0.0,9.5,1.1,0.0,-0.1,-0.4
1698924607582.0,16,0.0,0.0,0.0,0.0,9.4,1.1,-0.1,-0.2,-0.5
1698924607599.0,16,0.0,0.0,-0.1,0.0,9.4,1.0,-0.2,-0.7,-0.6000000000000001
1698924607615.0,16,0.0,0.0,0.0,0.0,9.4,1.1,-0.4,-1.2000000000000002,-0.6000000000000001
1698924607632.0,16,0.0,0.0,0.0,0.0,9.4,1.1,0.30000000000000004,-1.3,-0.4
1698924607648.0,16,0.0,0.0,0.0,0.0,9.4,1.1,1.0,-0.9,-0.1
1698924607665.0,16,0.0,0.0,0.1,0.0,9.4,1.2000000000000002,1.8,-0.9,0.1
1698924607683.0,16,0.0,0.0,0.1,0.0,9.4,1.2000000000000002,2.3000000000000003,-1.3,0.0
1698924607699.0,16,0.0,-0.1,0.0,0.0,9.4,1.1,3.2,-1.7,-0.30000000000000004
1698924607716.0,16,0.0,0.0,0.0,0.0,9.4,1.1,3.3000000000000003,-1.7,-0.5
1698924607732.0,16,0.0,0.0,0.1,0.1,9.5,1.2000000000000002,2.9,-1.8,-0.8
1698924607749.0,16,0.0,0.0,0.0,0.0,9.5,1.1,1.7,-1.0999999999999999,-0.7
1698924607766.0,16,0.0,0.0,0.0,0.0,9.5,1.1,0.7,-0.9,-0.5
1698924607782.0,16,0.0,0.0,0.0,0.0,9.4,1.1,-0.8,-0.5,-0.4
1698924607799.0,16,0.0,0.0,0.0,0.0,9.4,1.0,-1.5000000000000002,-0.1,-0.6000000000000001
1698924607815.0,16,0.0,0.0,0.0,0.0,9.4,1.1,-1.5000000000000002,0.1,-0.8
1698924607833.0,16,0.0,0.0,0.0,0.0,9.4,1.1,-0.30000000000000004,0.30000000000000004,-0.30000000000000004
1698924607849.0,16,0.0,0.0,-0.1,0.0,9.5,1.0,0.30000000000000004,-0.2,-0.5
1698924607866.0,16,0.0,0.1,0.0,0.0,9.5,1.0,1.3,-0.4,-0.4
1698924607883.0,16,0.0,0.0,-0.1,0.0,9.5,1.0,2.1999999999999997,0.1,-0.2
1698924607899.0,16,0.0,0.0,0.0,0.0,9.4,1.0,2.1999999999999997,-0.1,0.1
1698924607916.0,16,0.0,0.0,0.0,0.0,9.4,1.0,1.9,0.1,0.0
1698924607934.0,16,0.0,0.0,0.0,0.0,9.5,1.0,1.4,0.1,0.1
1698924607949.0,16,0.0,0.0,0.0,0.0,9.5,1.0,0.8,0.4,0.0
1698924607965.0,16,0.0,0.0,0.0,0.0,9.4,1.0,0.5,0.8,0.0
1698924607983.0,16,0.0,0.0,0.0,0.0,9.5,1.1,0.30000000000000004,1.2000000000000002,0.30000000000000004
1698924607999.0,16,0.0,0.0,0.0,0.0,9.5,1.0,0.2,1.2000000000000002,0.30000000000000004
1698924608015.0,16,0.0,0.0,0.0,0.0,9.5,1.0,0.2,1.2000000000000002,0.30000000000000004
1698924608033.0,16,0.1,0.0,0.0,0.1,9.5,1.0,0.30000000000000004,1.5000000000000002,0.1
1698924608049.0,16,0.0,0.0,0.0,0.0,9.4,1.0,0.6000000000000001,1.8,0.1
1698924608065.0,16,0.0,0.0,0.0,0.0,9.5,1.1,0.7,1.6,0.2
1698924608083.0,16,0.0,0.0,0.0,0.0,9.5,1.0,0.8,1.2000000000000002,0.30000000000000004
1698924608098.0,16,-0.1,0.0,0.0,0.0,9.4,1.0,0.8,0.6000000000000001,0.5
1698924608116.0,16,-0.1,0.0,0.0,0.0,9.4,1.0,0.8,0.1,0.30000000000000004
1698924608133.0,16,-0.1,-0.1,0.1,0.0,9.4,1.1,0.9,-0.9,-0.2
1698924608149.0,16,0.0,0.0,0.0,0.0,9.4,1.0,1.2000000000000002,-1.3,-0.30000000000000004
1698924608167.0,16,0.0,0.0,0.0,0.0,9.4,1.0,1.2000000000000002,-1.8,-0.30000000000000004
1698924608183.0,16,0.0,0.1,0.1,0.0,9.5,1.1,1.0,-2.3000000000000003,-0.6000000000000001
1698924608199.0,16,0.0,0.1,0.0,0.0,9.5,1.1,1.0,-1.3,-0.30000000000000004
1698924608216.0,16,0.0,0.0,0.0,0.0,9.4,1.0,0.5,-0.9,0.5
1698924608233.0,16,0.0,-0.1,0.0,0.0,9.4,1.0,0.30000000000000004,-0.8,0.5
1698924608249.0,16,0.0,-0.1,-0.1,0.0,9.4,0.9,0.1,-1.0,0.1
1698924608265.0,16,0.0,0.0,0.0,0.0,9.4,1.0,-0.1,-0.5,0.8
1698924608282.0,16,0.0,0.0,0.0,0.0,9.5,1.0,0.0,0.0,1.2000000000000002
1698924608299.0,16,0.0,0.0,0.0,0.0,9.5,1.0,0.2,0.4,1.4
1698924608315.0,16,0.0,0.1,0.0,0.0,9.5,1.0,0.4,0.0,1.0
1698924608332.0,16,0.1,0.1,-0.1,0.1,9.600000000000001,0.9,1.0999999999999999,-0.7,0.5
1698924608348.0,16,0.0,0.1,-0.1,0.0,9.5,0.9,0.8,-0.5,0.30000000000000004
1698924608365.0,16,0.0,0.0,0.0,0.0,9.4,1.0,-0.30000000000000004,-0.4,0.0
1698924608382.0,16,0.0,0.0,0.0,0.0,9.4,1.0,-0.30000000000000004,-0.2,-0.2
1698924608398.0,16,0.0,0.0,0.0,0.1,9.4,1.0,0.30000000000000004,0.1,-0.1
1698924608415.0,16,0.0,0.0,0.0,0.0,9.4,1.0,0.5,0.1,0.5
1698924608432.0,16,0.0,0.1,0.0,0.0,9.5,1.0,-0.1,0.1,0.5
1698924608448.0,16,0.0,0.1,0.0,0.0,9.5,1.0,-0.6000000000000001,0.0,0.30000000000000004
1698924608465.0,16,0.0,0.0,0.0,0.0,9.5,1.0,-1.2000000000000002,-0.1,0.2
1698924608482.0,16,0.0,0.0,0.0,0.0,9.4,1.0,-1.3,-0.30000000000000004,0.2
1698924608499.0,16,0.0,0.0,0.0,0.0,9.4,1.0,-1.4,-0.5,0.0
1698924608515.0,16,0.0,0.0,0.0,0.0,9.4,1.0,-1.3,-0.6000000000000001,0.0
1698924608532.0,16,0.0,0.0,0.0,0.0,9.5,1.0,-0.9,-0.4,0.2
1698924608548.0,16,0.0,0.0,0.0,0.0,9.5,1.0,-0.8,-0.30000000000000004,0.2
1698924608565.0,16,0.0,0.0,0.0,0.0,9.5,1.0,-0.7,-0.7,0.0
1698924608582.0,16,0.0,0.0,0.0,0.0,9.5,1.1,-0.9,-1.3,-0.2
1698924608598.0,16,0.0,0.0,0.0,0.1,9.4,1.0,-0.9,-1.0,-0.30000000000000004
1698924608615.0,16,0.0,0.0,0.0,0.1,9.4,1.1,-1.4,0.0,-0.1
1698924608632.0,16,0.0,0.0,0.0,0.0,9.4,1.0,-1.5000000000000002,0.2,0.2
1698924608648.0,16,0.0,0.0,0.0,0.0,9.4,1.0,-1.7,0.1,0.2
1698924608666.0,16,0.0,0.1,0.0,0.0,9.5,1.0,-2.1,0.1,0.2
1698924608682.0,16,0.0,0.1,0.0,0.0,9.5,1.0,-2.0,0.0,0.2
1698924608699.0,16,0.0,0.0,0.0,0.0,9.4,1.0,-2.1999999999999997,-0.30000000000000004,0.1
1698924608715.0,16,0.0,0.0,0.0,0.0,9.4,1.0,-2.1999999999999997,-0.1,0.30000000000000004
1698924608732.0,16,0.0,0.0,0.0,0.0,9.5,1.0,-2.0,-0.1,0.5
1698924608748.0,16,0.0,0.0,0.0,0.0,9.5,1.0,-1.9,-0.2,0.5
1698924608765.0,16,0.0,0.1,0.0,0.0,9.5,1.0,-1.4,-0.7,0.7
1698924608782.0,16,0.0,0.0,0.0,0.1,9.5,1.1,-1.5000000000000002,-1.0999999999999999,0.1
1698924608799.0,16,0.0,0.0,0.0,0.1,9.5,1.1,-1.4,-0.7,-0.2
1698924608815.0,16,0.0,0.0,0.0,0.0,9.5,1.1,-1.0999999999999999,-0.1,0.2
1698924608832.0,16,0.0,0.0,0.0,0.0,9.5,1.0,-1.5000000000000002,-0.30000000000000004,0.7
1698924608849.0,16,0.0,0.0,0.0,0.1,9.4,1.1,-2.3000000000000003,-0.5,0.6000000000000001
1698924608867.0,16,0.0,-0.1,0.0,0.1,9.4,1.1,-1.9,-0.1,0.0
1698924608883.0,16,0.0,-0.1,0.0,0.1,9.4,1.1,-2.0,0.1,0.1
1698924608899.0,16,0.0,0.0,0.0,0.1,9.5,1.1,-2.4000000000000004,-0.2,0.6000000000000001
1698924608915.0,16,0.0,0.0,0.1,0.1,9.5,1.2000000000000002,-1.9,-0.4,0.7
1698924608932.0,16,0.0,0.0,0.1,0.0,9.4,1.2000000000000002,-1.0999999999999999,0.0,0.9
1698924608949.0,16,-0.1,-0.1,0.0,0.0,9.4,1.2000000000000002,-0.9,0.30000000000000004,0.9
1698924608965.0,16,0.0,0.0,0.0,0.0,9.4,1.1,-0.9,0.0,0.5
1698924608983.0,16,0.0,0.0,0.0,0.1,9.4,1.2000000000000002,-1.0999999999999999,-0.4,0.0
1698924608999.0,16,0.1,0.0,0.0,0.1,9.5,1.2000000000000002,-1.4,-0.2,-0.30000000000000004
1698924609016.0,16,0.0,0.0,0.0,0.1,9.5,1.1,-1.8,0.4,0.1
1698924609033.0,16,0.0,0.0,0.0,0.0,9.4,1.2000000000000002,-2.5,0.7,0.9
1698924609049.0,16,0.0,-0.1,0.0,0.0,9.4,1.2000000000000002,-2.7,0.7,1.0999999999999999
1698924609066.0,16,0.0,-0.1,0.0,0.0,9.4,1.1,-2.8,0.7,1.0999999999999999
1698924609082.0,16,0.0,0.0,-0.1,0.0,9.4,1.1,-3.3000000000000003,0.2,0.4
1698924609099.0,16,0.0,0.1,0.0,0.1,9.5,1.2000000000000002,-2.6,0.2,-0.1
1698924609116.0,16,0.0,0.0,0.0,0.1,9.4,1.1,-1.7,0.1,0.30000000000000004
1698924609133.0,16,0.0,0.0,0.0,0.0,9.4,1.2000000000000002,-1.2000000000000002,0.1,0.30000000000000004
1698924609149.0,16,0.0,0.0,0.0,0.0,9.4,1.2000000000000002,0.0,0.0,0.6000000000000001
1698924609165.0,16,0.0,0.0,0.0,0.1,9.4,1.2000000000000002,1.0999999999999999,-0.4,0.30000000000000004
1698924609184.0,16,0.0,0.0,0.0,0.1,9.4,1.2000000000000002,1.6,-0.1,0.1
1698924609199.0,16,0.0,0.0,0.0,0.1,9.4,1.2000000000000002,1.3,-0.1,0.0
1698924609215.0,16,0.0,0.0,0.0,0.1,9.4,1.2000000000000002,1.0999999999999999,-0.1,0.1
1698924609232.0,16,0.0,0.0,0.0,0.1,9.4,1.2000000000000002,0.5,-0.5,0.1
1698924609250.0,16,0.0,0.0,0.0,0.1,9.4,1.2000000000000002,0.1,-0.2,0.1
1698924609266.0,16,0.0,0.0,0.0,0.1,9.5,1.2000000000000002,-1.0999999999999999,0.0,0.30000000000000004
1698924609284.0,16,0.0,0.0,0.0,0.1,9.4,1.2000000000000002,-1.2000000000000002,-0.2,0.1
1698924609300.0,16,0.0,0.0,0.0,0.1,9.5,1.2000000000000002,-1.2000000000000002,-0.5,0.0
1698924609316.0,16,0.0,0.0,0.0,0.0,9.4,1.2000000000000002,-0.4,-0.4,0.2
1698924609332.0,16,0.0,0.0,0.0,0.1,9.4,1.2000000000000002,0.2,-0.5,0.0
1698924609349.0,16,0.0,0.0,0.0,0.1,9.4,1.2000000000000002,0.7,-0.2,-0.1
1698924609366.0,16,0.0,0.0,0.0,0.1,9.4,1.2000000000000002,0.8,0.1,0.30000000000000004
1698924609382.0,16,0.0,0.0,0.0,0.1,9.5,1.2000000000000002,1.0,-0.4,0.30000000000000004
1698924609400.0,16,0.0,0.1,0.0,0.1,9.5,1.2000000000000002,0.7,-0.9,0.1
1698924609416.0,16,0.0,0.0,0.0,0.1,9.5,1.2000000000000002,0.30000000000000004,-1.6,-0.30000000000000004
1698924609432.0,16,0.0,0.0,0.0,0.0,9.4,1.2000000000000002,-1.3,-0.9,0.1
1698924609449.0,16,0.0,0.0,0.0,0.1,9.5,1.1,-2.5,-0.9,-0.30000000000000004
1698924609466.0,16,0.0,0.1,-0.1,0.1,9.5,1.1,-3.1,-1.0,-0.6000000000000001
1698924609482.0,16,0.0,0.0,0.0,0.1,9.5,1.2000000000000002,-4.3999999999999995,0.1,-0.30000000000000004
1698924609500.0,16,0.0,0.0,0.0,0.1,9.4,1.2000000000000002,-4.3999999999999995,0.7,0.0
1698924609515.0,16,0.0,0.0,-0.1,0.1,9.4,1.1,-4.3999999999999995,0.5,0.6000000000000001
1698924609532.0,16,-0.1,0.0,0.0,0.0,9.4,1.2000000000000002,-4.1000000000000005,0.4,0.8
1698924609548.0,16,-0.1,0.0,0.0,0.0,9.4,1.2000000000000002,-2.6,0.1,1.0999999999999999
1698924609566.0,16,-0.1,0.0,0.0,0.0,9.4,1.2000000000000002,-2.1,-0.2,0.8
1698924609582.0,16,0.0,0.0,0.0,0.1,9.5,1.2000000000000002,-0.6000000000000001,-0.1,0.4
1698924609599.0,16,0.0,0.0,0.0,0.1,9.4,1.2000000000000002,0.8,-0.4,-0.30000000000000004
1698924609615.0,16,0.0,0.1,0.0,0.1,9.5,1.3,1.4,-0.5,-0.6000000000000001
1698924609632.0,16,0.0,0.0,0.1,0.1,9.4,1.3,2.4000000000000004,0.0,-0.4
1698924609649.0,16,0.0,-0.1,0.1,0.1,9.4,1.3,2.7,-0.4,0.2
1698924609665.0,16,0.0,0.0,0.0,0.1,9.4,1.3,2.4000000000000004,-1.0,0.30000000000000004
1698924609682.0,16,0.0,0.0,0.1,0.1,9.4,1.3,1.3,-0.7,0.30000000000000004
1698924609698.0,16,0.0,0.0,0.0,0.1,9.4,1.3,-0.1,0.2,0.2
1698924609715.0,16,0.0,0.0,0.0,0.1,9.4,1.3,-0.9,0.2,-0.1
1698924609732.0,16,0.0,0.0,0.1,0.1,9.4,1.3,-2.1999999999999997,0.1,-0.8
1698924609749.0,16,0.0,0.0,0.0,0.1,9.4,1.2000000000000002,-3.0000000000000004,-0.2,-0.30000000000000004
1698924609766.0,16,0.0,0.0,0.0,0.1,9.4,1.2000000000000002,-4.300000000000001,0.0,0.0
1698924609782.0,16,0.0,0.0,0.0,0.1,9.4,1.3,-4.5,0.4,0.0
1698924609799.0,16,0.0,0.0,0.0,0.1,9.4,1.3,-4.300000000000001,0.6000000000000001,0.0
1698924609815.0,16,0.0,0.0,0.0,0.1,9.4,1.3,-3.9,0.7,-0.1
1698924609832.0,16,0.0,0.0,0.0,0.1,9.4,1.3,-2.8,1.3,0.1
1698924609849.0,16,0.0,0.0,0.0,0.0,9.4,1.3,-2.1999999999999997,1.5000000000000002,0.2
1698924609865.0,16,0.0,0.0,0.0,0.1,9.4,1.3,-0.8,1.3,0.4
1698924609882.0,16,0.0,-0.1,0.0,0.1,9.3,1.3,0.5,0.7,0.30000000000000004
1698924609899.0,16,-0.1,0.0,-0.1,0.0,9.4,1.2000000000000002,1.0,0.1,0.5
1698924609916.0,16,0.0,0.0,0.0,0.0,9.4,1.3,1.3,-0.1,0.9
1698924609933.0,16,0.0,0.0,0.0,0.0,9.4,1.3,1.9,0.4,0.9
1698924609949.0,16,0.0,0.0,0.0,0.1,9.4,1.3,2.0,0.1,0.6000000000000001
1698924609966.0,16,0.0,0.0,0.0,0.0,9.5,1.3,1.6,0.2,0.30000000000000004
1698924609982.0,16,0.0,0.0,0.1,0.1,9.5,1.3,1.4,0.5,-0.1
1698924609998.0,16,0.0,0.0,0.0,0.1,9.4,1.3,1.0,1.2000000000000002,-0.8
1698924610015.0,16,0.0,-0.1,0.0,0.1,9.4,1.2000000000000002,0.1,1.0999999999999999,-0.4
1698924610033.0,16,0.0,-0.1,0.0,0.1,9.3,1.3,-0.4,0.6000000000000001,0.0
1698924610048.0,16,0.0,0.0,0.0,0.1,9.4,1.3,-0.7,0.4,0.2
1698924610065.0,16,0.0,0.0,0.0,0.1,9.4,1.3,-1.5000000000000002,0.4,0.6000000000000001
1698924610082.0,16,0.0,0.0,0.0,0.1,9.4,1.3,-1.6,0.4,0.9
1698924610099.0,16,0.0,0.1,-0.1,0.0,9.5,1.2000000000000002,-1.3,0.2,0.9
1698924610115.0,16,0.0,0.0,0.0,0.1,9.5,1.3,-1.5000000000000002,-0.30000000000000004,0.6000000000000001
1698924610133.0,16,0.0,0.0,0.0,0.1,9.4,1.3,-1.4,0.2,0.30000000000000004
1698924610149.0,16,0.0,0.0,0.0,0.1,9.4,1.2000000000000002,-1.2000000000000002,0.30000000000000004,0.30000000000000004
1698924610165.0,16,0.0,0.0,0.0,0.1,9.4,1.2000000000000002,-1.0,0.1,0.30000000000000004
1698924610182.0,16,0.0,-0.1,0.0,0.1,9.4,1.3,-0.1,-0.30000000000000004,0.0
1698924610199.0,16,0.1,0.0,0.0,0.2,9.4,1.3,0.8,-1.2000000000000002,0.0
1698924610215.0,16,0.0,0.0,0.0,0.1,9.4,1.3,1.5000000000000002,-0.1,0.0
1698924610233.0,16,0.0,0.0,0.0,0.1,9.4,1.3,1.7,0.2,0.5
1698924610249.0,16,0.0,0.0,0.0,0.1,9.4,1.3,1.8,0.1,0.5
1698924610266.0,16,0.0,0.0,0.0,0.1,9.4,1.3,1.6,0.2,0.1
1698924610282.0,16,0.0,0.0,0.0,0.1,9.4,1.3,1.4,0.1,-0.1
1698924610299.0,16,0.0,0.0,0.0,0.1,9.4,1.3,0.8,0.5,0.4
1698924610316.0,16,0.0,0.0,0.1,0.1,9.4,1.3,-0.1,0.1,0.6000000000000001
1698924610333.0,16,0.0,0.0,0.1,0.1,9.4,1.3,-0.2,0.2,0.4
1698924610350.0,16,0.0,0.0,0.0,0.1,9.4,1.3,-0.8,0.30000000000000004,0.30000000000000004
1698924610366.0,16,0.0,0.0,0.0,0.1,9.4,1.3,-0.9,0.2,0.30000000000000004
1698924610382.0,16,0.0,0.0,0.0,0.1,9.4,1.2000000000000002,-1.3,0.0,0.2
1698924610399.0,16,0.0,0.0,0.0,0.1,9.4,1.2000000000000002,-1.5000000000000002,-0.2,0.1
1698924610415.0,16,0.0,0.0,-0.1,0.1,9.4,1.2000000000000002,-0.8,-0.30000000000000004,0.2
1698924610432.0,16,0.0,0.0,0.0,0.1,9.4,1.3,-0.30000000000000004,-0.6000000000000001,0.1
1698924610449.0,16,0.0,-0.1,0.0,0.1,9.4,1.3,0.5,-0.1,0.30000000000000004
1698924610465.0,16,0.0,0.0,0.0,0.1,9.4,1.3,1.0,-0.2,0.4
1698924610482.0,16,0.0,0.0,0.0,0.1,9.4,1.3,1.8,-0.30000000000000004,0.1
1698924610499.0,16,0.0,0.0,0.0,0.1,9.4,1.3,2.1999999999999997,-0.1,0.1
1698924610515.0,16,0.0,0.0,0.0,0.1,9.4,1.3,2.1,0.1,0.1
1698924610533.0,16,0.0,0.0,0.0,0.1,9.4,1.3,1.6,-0.4,0.1
1698924610550.0,16,0.0,0.0,0.0,0.1,9.4,1.3,0.5,-0.7,-0.1
1698924610566.0,16,0.0,0.0,0.0,0.1,9.4,1.3,-0.2,-0.2,0.0
1698924610582.0,16,0.0,0.0,0.0,0.1,9.4,1.3,-1.5000000000000002,0.0,0.2
1698924610599.0,16,0.0,0.0,0.0,0.1,9.4,1.3,-1.3,-0.2,0.1
1698924610616.0,16,0.0,0.1,0.0,0.1,9.5,1.3,-0.9,-0.4,0.0
1698924610633.0,16,0.0,0.0,-0.1,0.1,9.4,1.2000000000000002,-0.6000000000000001,0.5,0.0
1698924610649.0,16,0.0,-0.1,0.0,0.2,9.3,1.2000000000000002,-0.6000000000000001,0.4,0.0
1698924610666.0,16,0.0,0.0,-0.1,0.1,9.4,1.2000000000000002,-0.2,0.2,0.30000000000000004
1698924610682.0,16,0.0,0.0,0.0,0.1,9.4,1.2000000000000002,-0.2,0.1,0.30000000000000004
1698924610699.0,16,0.0,0.1,0.0,0.1,9.5,1.3,0.4,0.1,0.5
1698924610715.0,16,0.0,0.0,0.0,0.1,9.4,1.3,0.9,0.1,0.30000000000000004
1698924610732.0,16,0.0,0.0,0.0,0.1,9.5,1.3,1.0,0.5,0.1
1698924610749.0,16,0.0,0.0,0.0,0.1,9.4,1.3,1.0,1.5000000000000002,-0.2
1698924610766.0,16,0.0,0.0,0.0,0.1,9.4,1.2000000000000002,0.9,0.7,0.0
1698924610782.0,16,-0.1,0.0,0.0,0.1,9.4,1.3,0.2,0.5,0.4
1698924610799.0,16,-0.1,0.0,0.0,0.0,9.5,1.3,0.0,0.7,0.5
1698924610816.0,16,-0.1,0.0,0.1,0.1,9.5,1.3,-0.1,0.5,0.30000000000000004
1698924610832.0,16,0.0,0.0,0.0,0.1,9.4,1.3,0.1,0.30000000000000004,-0.30000000000000004
1698924610849.0,16,0.0,0.0,0.0,0.1,9.4,1.3,0.2,0.0,-0.30000000000000004
1698924610865.0,16,0.0,-0.1,0.0,0.1,9.4,1.3,0.0,-0.30000000000000004,0.1
1698924610882.0,16,0.0,-0.1,0.0,0.1,9.4,1.3,-0.1,-0.1,0.1
1698924610898.0,16,-0.1,0.0,0.0,0.1,9.4,1.3,0.2,-0.2,0.2
1698924610916.0,16,0.0,0.0,0.0,0.1,9.4,1.3,0.30000000000000004,-0.30000000000000004,0.1
1698924610933.0,16,0.0,0.0,0.0,0.1,9.4,1.3,0.4,-0.2,0.0
1698924610951.0,16,0.0,0.0,0.0,0.1,9.4,1.3,1.0999999999999999,-0.8,0.1
1698924610966.0,16,0.0,0.0,0.0,0.1,9.4,1.3,1.7,-0.8,0.1
1698924610983.0,16,0.0,0.0,0.0,0.1,9.4,1.3,2.3000000000000003,-0.4,0.30000000000000004
1698924610999.0,16,0.1,0.0,0.0,0.2,9.4,1.3,2.7,-0.30000000000000004,0.30000000000000004
1698924611016.0,16,0.0,0.0,0.0,0.2,9.4,1.3,3.0000000000000004,0.6000000000000001,0.30000000000000004
1698924611032.0,16,0.0,-0.1,0.1,0.1,9.3,1.3,3.1,0.9,0.5
1698924611049.0,16,0.0,-0.1,0.0,0.1,9.3,1.2000000000000002,3.4,1.5000000000000002,0.6000000000000001
1698924611065.0,16,0.0,-0.1,0.1,0.1,9.3,1.3,2.9,1.7,0.6000000000000001
1698924611082.0,16,0.0,0.0,0.0,0.1,9.4,1.2000000000000002,3.5,2.1999999999999997,0.9
1698924611099.0,16,0.0,0.0,0.1,0.1,9.4,1.3,3.5,2.1,0.9
1698924611115.0,16,0.1,0.0,0.1,0.2,9.4,1.3,3.8,2.4000000000000004,0.6000000000000001
1698924611133.0,16,0.1,0.0,0.1,0.2,9.4,1.3,3.9,3.2,0.6000000000000001
1698924611149.0,16,0.1,-0.1,0.0,0.2,9.3,1.2000000000000002,3.6,3.8,1.2000000000000002
1698924611165.0,16,0.0,0.0,0.0,0.1,9.4,1.2000000000000002,3.3000000000000003,3.1,2.3000000000000003
1698924611182.0,16,0.0,0.0,0.0,0.1,9.4,1.2000000000000002,2.3000000000000003,1.8,2.8
1698924611199.0,16,-0.1,0.0,0.0,0.1,9.4,1.2000000000000002,1.7,2.1,3.0000000000000004
1698924611216.0,16,-0.1,0.1,-0.1,0.0,9.5,1.1,0.5,1.8,2.5
1698924611232.0,16,-0.1,0.1,0.0,0.0,9.5,1.1,-0.30000000000000004,0.8,0.9
1698924611250.0,16,-0.1,0.2,0.0,0.1,9.600000000000001,1.1,-0.30000000000000004,1.3,0.0
1698924611266.0,16,0.0,0.1,-0.1,0.1,9.600000000000001,1.0,-0.5,1.0,-0.5
1698924611282.0,16,0.0,0.0,-0.1,0.2,9.5,1.0,-0.6000000000000001,1.2000000000000002,0.5
1698924611300.0,16,0.0,0.0,-0.2,0.2,9.4,1.0,-0.30000000000000004,0.9,0.6000000000000001
1698924611315.0,16,0.0,0.0,-0.1,0.2,9.4,1.0,-0.2,0.1,0.6000000000000001
1698924611334.0,16,0.0,0.1,-0.1,0.2,9.5,1.1,1.3,0.2,0.8
1698924611349.0,16,0.0,0.1,-0.1,0.2,9.5,1.0,2.3000000000000003,0.1,1.0
1698924611366.0,16,0.0,0.1,0.0,0.2,9.600000000000001,1.1,3.9,-0.9,0.8
1698924611382.0,16,0.0,0.1,-0.1,0.2,9.600000000000001,1.0,5.4,0.6000000000000001,0.9
1698924611398.0,16,0.0,0.1,0.0,0.2,9.5,1.1,5.6,1.0,0.8
1698924611416.0,16,0.0,-0.1,0.0,0.1,9.4,1.1,5.7,0.5,0.7
1698924611432.0,16,0.0,0.0,0.0,0.1,9.4,1.0,5.4,0.7,0.8
1698924611452.0,16,-0.1,0.0,0.1,0.1,9.4,1.1,3.5,-0.1,0.6000000000000001
1698924611465.0,16,0.0,0.0,0.0,0.1,9.5,1.1,2.5,-0.2,0.2
1698924611482.0,16,0.0,0.0,0.1,0.2,9.4,1.1,1.6,0.1,0.2
1698924611499.0,16,0.0,-0.1,0.0,0.2,9.4,1.1,1.3,0.2,0.30000000000000004
1698924611516.0,16,0.0,-0.1,0.0,0.2,9.4,1.0,0.2,-0.30000000000000004,0.1
1698924611532.0,16,0.0,0.1,0.0,0.2,9.5,1.1,-0.7,0.1,0.30000000000000004
1698924611548.0,16,0.0,0.1,0.0,0.1,9.5,1.1,-0.8,0.2,0.4
1698924611565.0,16,0.0,0.1,0.0,0.1,9.5,1.1,-0.9,-0.2,0.1
1698924611582.0,16,0.0,0.0,0.0,0.2,9.5,1.0,-0.7,-0.2,-0.30000000000000004
1698924611599.0,16,0.0,0.0,0.0,0.2,9.5,1.0,-0.9,-0.2,-0.30000000000000004
1698924611616.0,16,0.0,0.0,-0.1,0.2,9.5,1.0,-1.0999999999999999,-0.1,-0.2
1698924611632.0,16,0.0,0.0,0.0,0.2,9.4,1.0,-1.2000000000000002,0.30000000000000004,0.0
1698924611649.0,16,0.0,-0.1,-0.1,0.2,9.4,1.0,-1.0999999999999999,0.1,-0.1
1698924611666.0,16,0.0,0.0,0.0,0.2,9.4,1.0,-0.5,-0.2,0.0
1698924611682.0,16,0.0,0.0,0.0,0.2,9.4,1.0,0.0,-0.1,0.2
1698924611699.0,16,0.0,0.0,0.0,0.2,9.5,1.0,-0.1,-0.1,0.1
1698924611716.0,16,0.0,0.0,0.0,0.1,9.5,1.0,0.30000000000000004,0.1,0.2
1698924611733.0,16,0.0,0.0,0.0,0.2,9.5,1.1,0.7,-0.2,0.0
1698924611752.0,16,0.0,0.0,0.0,0.2,9.5,1.1,0.30000000000000004,-0.30000000000000004,0.0
1698924611766.0,16,0.0,0.0,0.0,0.2,9.4,1.1,0.0,-0.4,0.0
1698924611782.0,16,0.0,0.0,0.0,0.1,9.4,1.1,-0.30000000000000004,-0.5,0.0
1698924611799.0,16,0.0,0.0,0.0,0.1,9.4,1.0,-0.8,-0.4,0.1
1698924611815.0,16,0.0,0.0,0.0,0.1,9.4,1.1,-1.0,-0.1,0.1
1698924611836.0,16,0.0,0.0,0.0,0.2,9.4,1.0,-1.0999999999999999,-0.2,0.0
1698924611849.0,16,0.0,0.0,0.0,0.2,9.4,1.1,-0.9,-0.30000000000000004,0.0
1698924611865.0,16,0.0,0.0,0.0,0.2,9.4,1.1,-0.1,0.2,0.2
1698924611882.0,16,0.0,0.0,0.0,0.2,9.4,1.1,0.5,0.1,0.6000000000000001
1698924611898.0,16,0.0,0.0,0.1,0.2,9.4,1.1,0.8,0.2,0.6000000000000001
1698924611917.0,16,0.0,0.0,0.0,0.1,9.5,1.1,1.0,0.1,0.2
1698924611935.0,16,0.0,0.1,0.0,0.2,9.600000000000001,1.1,0.2,-0.4,-0.2
1698924611948.0,16,0.0,0.1,0.0,0.2,9.600000000000001,1.0,-1.2000000000000002,-0.4,-0.2
1698924611966.0,16,0.0,0.1,0.0,0.1,9.5,1.1,-2.1999999999999997,-0.2,-0.1
1698924611982.0,16,-0.1,0.0,0.0,0.1,9.4,1.1,-3.7000000000000006,-0.5,-0.1
1698924611998.0,16,0.0,-0.1,0.0,0.2,9.4,1.1,-5.0,-0.8,-0.7
1698924612015.0,16,0.0,-0.1,-0.1,0.2,9.4,1.0,-5.4,-0.30000000000000004,-0.8
1698924612032.0,16,0.0,-0.2,-0.1,0.2,9.3,1.0,-5.9,0.4,-0.6000000000000001
1698924612049.0,16,0.0,-0.1,-0.1,0.2,9.3,1.0,-5.6,0.4,-0.30000000000000004
1698924612066.0,16,0.0,0.0,-0.1,0.2,9.4,1.0,-3.4,0.1,0.1
1698924612082.0,16,0.0,0.0,-0.1,0.2,9.4,1.1,-0.2,0.2,0.1
1698924612099.0,16,0.0,0.0,0.0,0.2,9.4,1.1,1.6,0.30000000000000004,0.1
1698924612115.0,16,0.1,0.0,0.0,0.2,9.4,1.1,5.0,0.2,0.30000000000000004
1698924612132.0,16,0.0,0.0,0.1,0.2,9.4,1.2000000000000002,6.8,0.5,0.7
1698924612153.0,16,0.0,0.0,0.2,0.2,9.4,1.2000000000000002,7.0,1.2000000000000002,0.6000000000000001
1698924612166.0,16,0.0,0.0,0.2,0.2,9.5,1.3,6.5,1.3,0.5
1698924612182.0,16,0.0,0.1,0.1,0.2,9.5,1.2000000000000002,4.300000000000001,1.8,0.1
1698924612200.0,16,0.0,0.0,0.1,0.1,9.5,1.2000000000000002,2.1999999999999997,1.7,0.1
1698924612215.0,16,-0.1,0.1,0.0,0.1,9.600000000000001,1.1,-2.8,1.4,0.30000000000000004
1698924612234.0,16,-0.1,0.1,0.0,0.1,9.600000000000001,1.1,-6.7,1.0,-0.2
1698924612249.0,16,-0.1,0.0,0.0,0.1,9.5,1.1,-8.700000000000001,1.0,-0.30000000000000004
1698924612266.0,16,-0.1,0.0,0.0,0.1,9.4,1.1,-8.600000000000001,1.2000000000000002,0.0
1698924612283.0,16,0.0,-0.1,-0.1,0.1,9.3,1.0,-6.7,1.0,0.0
1698924612299.0,16,0.0,-0.1,-0.1,0.2,9.3,1.0,-5.8,0.6000000000000001,-0.2
1698924612315.0,16,0.0,-0.1,-0.1,0.2,9.3,1.0,-2.9,0.9,-0.30000000000000004
1698924612333.0,16,0.0,-0.1,-0.1,0.2,9.4,1.0,0.8,0.2,0.5
1698924612349.0,16,0.0,-0.1,0.0,0.2,9.4,1.1,4.3999999999999995,-0.30000000000000004,1.0
1698924612366.0,16,0.0,0.0,0.0,0.1,9.4,1.1,5.9,-0.5,1.0
1698924612382.0,16,0.0,-0.1,0.0,0.2,9.4,1.1,7.300000000000001,-0.9,0.5
1698924612399.0,16,0.0,0.0,0.1,0.2,9.4,1.2000000000000002,7.1000000000000005,-2.0,-0.5
1698924612415.0,16,0.0,0.1,0.1,0.2,9.5,1.2000000000000002,6.4,-1.6,-0.6000000000000001
1698924612432.0,16,0.0,0.1,0.1,0.2,9.5,1.2000000000000002,3.6,-1.0,-0.4
1698924612450.0,16,0.0,0.1,0.1,0.2,9.5,1.2000000000000002,-0.2,-0.7,-0.2
1698924612466.0,16,-0.1,0.1,0.1,0.1,9.5,1.2000000000000002,-1.7,-0.6000000000000001,-0.30000000000000004
1698924612482.0,16,-0.1,0.0,0.0,0.1,9.4,1.1,-3.9,-1.0999999999999999,-1.0999999999999999
1698924612499.0,16,-0.1,0.0,0.0,0.1,9.5,1.1,-4.9,-2.1,-2.5
1698924612515.0,16,-0.1,0.0,0.0,0.1,9.5,1.1,-5.300000000000001,-2.7,-3.0000000000000004
1698924612532.0,16,0.0,0.0,0.0,0.1,9.5,1.2000000000000002,-4.7,-2.4000000000000004,-4.2
1698924612549.0,16,0.0,0.0,0.0,0.1,9.5,1.1,-2.8,-2.7,-5.4
1698924612566.0,16,0.1,0.0,-0.1,0.2,9.4,1.1,-2.0,-3.0000000000000004,-5.7
1698924612582.0,16,0.1,0.1,-0.1,0.2,9.5,1.0,-0.30000000000000004,-2.1,-5.500000000000001
1698924612599.0,16,0.2,0.1,-0.1,0.2,9.5,1.1,0.7,-1.5000000000000002,-4.6000000000000005
1698924612616.0,16,0.1,0.0,0.0,0.2,9.5,1.1,1.2000000000000002,-1.3,-4.1000000000000005
1698924612632.0,16,0.0,0.0,0.0,0.1,9.4,1.2000000000000002,2.9,-1.8,-3.2
1698924612650.0,16,-0.1,-0.1,0.1,0.0,9.4,1.2000000000000002,4.7,-1.2000000000000002,-3.3000000000000003
1698924612667.0,16,0.0,-0.1,0.0,0.0,9.3,1.1,5.8,-0.4,-5.0
1698924612682.0,16,0.0,-0.1,0.0,0.0,9.3,1.1,5.7,-0.4,-6.2
1698924612699.0,16,0.0,0.0,0.0,0.0,9.4,1.1,4.7,-0.6000000000000001,-7.500000000000001
1698924612715.0,16,0.0,0.0,0.0,0.1,9.4,1.0,3.9,-0.1,-7.1000000000000005
1698924612732.0,16,0.1,0.2,-0.1,0.1,9.600000000000001,0.9,-0.4,3.3000000000000003,-4.7
1698924612749.0,16,0.0,0.2,-0.1,0.0,9.600000000000001,0.9,-1.4,2.7,-3.9
1698924612765.0,16,0.1,0.1,0.0,0.0,9.5,1.0,-2.6,2.0,-2.7
1698924612782.0,16,0.1,0.0,0.0,0.1,9.4,1.0,-2.1999999999999997,2.4000000000000004,-2.4000000000000004
1698924612799.0,16,0.2,-0.1,-0.1,0.2,9.3,1.0,-1.3,3.2,-2.9
1698924612815.0,16,0.2,-0.2,0.1,0.2,9.200000000000001,1.2000000000000002,-0.1,3.7000000000000006,-2.0
1698924612832.0,16,0.1,-0.2,0.1,0.1,9.3,1.2000000000000002,1.0999999999999999,3.8,-0.9
1698924612849.0,16,-0.2,0.0,0.0,-0.2,9.5,1.1,2.4000000000000004,3.3000000000000003,1.4
1698924612865.0,16,-0.30000000000000004,0.2,0.1,-0.30000000000000004,9.600000000000001,1.1,1.9,3.2,2.0
1698924612882.0,16,-0.30000000000000004,0.2,0.2,-0.30000000000000004,9.600000000000001,1.2000000000000002,1.6,2.1999999999999997,1.3
1698924612899.0,16,-0.1,0.1,0.0,-0.1,9.600000000000001,1.0,-0.5,4.0,-0.8
1698924612915.0,16,0.1,0.1,-0.1,0.0,9.5,1.0,-4.7,5.2,-0.7
1698924612932.0,16,0.1,0.1,-0.1,0.0,9.5,1.0,-6.7,4.6000000000000005,0.1
1698924612950.0,16,0.0,0.1,0.0,0.0,9.600000000000001,1.1,-9.8,3.2,2.6
1698924612966.0,16,-0.1,0.1,0.0,-0.1,9.5,1.1,-10.0,2.8,4.2
1698924612982.0,16,-0.30000000000000004,-0.2,0.1,-0.30000000000000004,9.200000000000001,1.3,-9.0,2.0,5.7
1698924613001.0,16,-0.4,-0.30000000000000004,0.1,-0.4,9.1,1.2000000000000002,-5.300000000000001,0.1,3.5
1698924613015.0,16,-0.4,-0.30000000000000004,0.0,-0.4,9.1,1.2000000000000002,-2.0,-2.5,-0.30000000000000004
1698924613032.0,16,-0.2,-0.2,0.0,-0.2,9.200000000000001,1.2000000000000002,1.4,-5.500000000000001,-1.7
1698924613049.0,16,0.0,-0.1,0.0,0.0,9.3,1.2000000000000002,2.5,-5.1,-0.6000000000000001
1698924613068.0,16,0.1,-0.1,0.0,0.1,9.4,1.1,3.3000000000000003,-4.0,2.3000000000000003
1698924613082.0,16,0.2,0.1,0.0,0.2,9.5,1.1,2.4000000000000004,-2.9,3.6
1698924613098.0,16,0.1,0.2,0.0,0.2,9.600000000000001,1.2000000000000002,1.7,-2.3000000000000003,3.4
1698924613115.0,16,0.2,0.2,0.1,0.30000000000000004,9.600000000000001,1.2000000000000002,0.5,-0.30000000000000004,1.8
1698924613132.0,16,0.30000000000000004,0.0,0.1,0.4,9.4,1.3,-0.1,1.2000000000000002,0.5
1698924613149.0,16,0.2,-0.1,0.1,0.30000000000000004,9.4,1.3,-0.30000000000000004,2.1999999999999997,0.5
1698924613166.0,16,0.1,-0.1,-0.1,0.1,9.4,1.1,-1.0999999999999999,4.3999999999999995,1.0999999999999999
1698924613182.0,16,-0.1,0.0,0.0,0.0,9.4,1.1,-2.3000000000000003,4.800000000000001,1.6
1698924613199.0,16,-0.1,0.1,0.0,0.0,9.5,1.1,-2.3000000000000003,4.5,1.9
1698924613215.0,16,-0.1,0.1,-0.1,-0.1,9.5,1.1,-1.4,3.8,2.0
1698924613232.0,16,-0.2,0.0,0.0,-0.1,9.4,1.1,-0.9,3.2,2.1999999999999997
1698924613248.0,16,-0.2,0.0,0.0,-0.1,9.4,1.1,0.6000000000000001,1.3,1.8
1698924613265.0,16,-0.2,0.0,0.0,-0.2,9.4,1.2000000000000002,2.6,-0.5,1.0
1698924613282.0,16,-0.2,0.0,0.0,-0.2,9.4,1.2000000000000002,3.8,-0.9,0.6000000000000001
1698924613299.0,16,-0.2,0.0,0.0,-0.1,9.4,1.2000000000000002,4.6000000000000005,-2.0,0.1
1698924613316.0,16,-0.1,0.0,0.1,-0.1,9.5,1.2000000000000002,5.0,-2.9,0.4
1698924613332.0,16,-0.1,0.0,0.0,-0.1,9.5,1.2000000000000002,4.800000000000001,-3.1,0.7
1698924613349.0,16,0.0,0.0,0.1,0.0,9.4,1.2000000000000002,3.6,-3.2,1.0999999999999999
1698924613365.0,16,0.1,0.0,0.0,0.1,9.4,1.2000000000000002,2.0,-3.1,0.7
1698924613382.0,16,0.1,0.0,0.1,0.2,9.4,1.2000000000000002,0.30000000000000004,-1.7,0.30000000000000004
1698924613398.0,16,0.1,0.0,0.0,0.2,9.4,1.1,-0.5,-1.0999999999999999,0.4
1698924613416.0,16,0.1,0.0,0.1,0.1,9.5,1.2000000000000002,-1.5000000000000002,-0.2,0.8
1698924613432.0,16,0.0,0.0,0.0,0.1,9.4,1.1,-1.3,0.0,0.6000000000000001
1698924613449.0,16,0.1,0.0,0.0,0.1,9.4,1.1,-1.0999999999999999,0.2,0.30000000000000004
1698924613465.0,16,0.0,0.0,-0.1,0.1,9.4,1.1,-1.0,0.4,-0.2
1698924613482.0,16,0.1,0.0,-0.1,0.1,9.5,1.1,-0.8,1.3,-0.2
1698924613500.0,16,0.0,0.1,-0.1,0.1,9.5,1.1,-0.6000000000000001,1.6,0.0
1698924613515.0,16,0.0,0.1,0.0,0.0,9.5,1.1,0.4,2.0,0.7
1698924613532.0,16,-0.1,0.0,-0.1,0.0,9.5,1.1,1.2000000000000002,1.5000000000000002,1.0999999999999999
1698924613550.0,16,-0.1,0.0,0.0,0.0,9.4,1.1,1.3,1.2000000000000002,1.0999999999999999
1698924613565.0,16,-0.1,0.0,0.0,0.0,9.4,1.1,1.7,1.2000000000000002,0.7
1698924613583.0,16,-0.1,0.0,0.0,0.0,9.5,1.1,1.6,0.8,0.5
1698924613599.0,16,-0.1,0.1,0.0,0.0,9.5,1.1,1.4,0.4,0.4
1698924613616.0,16,-0.1,0.0,0.0,0.0,9.5,1.1,1.3,0.2,0.5
1698924613632.0,16,0.0,0.0,0.0,0.0,9.5,1.1,1.0999999999999999,0.1,0.6000000000000001
1698924613649.0,16,0.0,0.0,0.0,0.0,9.4,1.1,0.4,-0.4,0.30000000000000004
1698924613667.0,16,0.0,0.0,0.0,0.1,9.4,1.1,0.2,-0.9,0.1
1698924613682.0,16,0.0,0.0,0.0,0.1,9.4,1.1,-0.4,-0.9,0.30000000000000004
1698924613698.0,16,0.0,0.0,0.0,0.1,9.4,1.1,-0.4,-0.7,0.1
1698924613715.0,16,0.0,0.0,0.0,0.1,9.4,1.1,-0.4,-0.1,0.1
1698924613732.0,16,0.0,0.0,0.0,0.1,9.4,1.1,-0.2,0.1,-0.1
1698924613748.0,16,0.0,0.0,0.0,0.1,9.5,1.1,0.2,-0.2,-0.2
1698924613765.0,16,0.0,0.0,0.0,0.1,9.4,1.1,0.2,0.1,0.0
1698924613782.0,16,0.0,0.0,0.0,0.1,9.4,1.1,0.5,0.1,0.1
1698924613798.0,16,0.0,0.0,0.0,0.1,9.4,1.1,0.6000000000000001,-0.2,-0.1
1698924613816.0,16,0.0,0.1,0.0,0.1,9.5,1.1,0.7,-0.30000000000000004,-0.5
1698924613832.0,16,0.0,0.0,0.0,0.1,9.4,1.1,0.7,0.30000000000000004,-0.5
1698924613848.0,16,0.0,0.0,0.0,0.0,9.4,1.1,0.7,0.4,-0.30000000000000004
1698924613865.0,16,0.0,0.0,0.0,0.1,9.5,1.1,0.7,0.2,-0.2
1698924613882.0,16,0.0,-0.1,0.0,0.1,9.4,1.1,1.0,0.0,-0.30000000000000004
1698924613898.0,16,0.0,0.0,0.0,0.0,9.4,1.1,1.0,0.0,-0.1
1698924613915.0,16,0.0,0.0,0.0,0.0,9.4,1.1,1.0,0.0,0.0
1698924613932.0,16,0.0,0.0,0.0,0.0,9.4,1.1,1.0999999999999999,-0.2,-0.30000000000000004
1698924613949.0,16,0.0,0.0,0.0,0.0,9.5,1.1,1.0999999999999999,-0.4,-0.4
1698924613966.0,16,0.0,0.0,0.0,0.1,9.5,1.1,0.8,-0.2,-0.30000000000000004
1698924613982.0,16,0.0,0.0,0.0,0.1,9.4,1.1,0.4,-0.1,-0.2
1698924613998.0,16,0.0,0.0,0.0,0.1,9.5,1.1,0.0,-0.4,-0.5
1698924614015.0,16,0.0,0.0,0.0,0.0,9.5,1.1,0.0,-0.30000000000000004,-0.6000000000000001
1698924614032.0,16,0.0,0.0,0.0,0.0,9.5,1.1,0.1,0.0,-0.30000000000000004
1698924614048.0,16,0.0,0.0,0.0,0.0,9.4,1.1,0.2,-0.4,-0.4
1698924614065.0,16,0.0,0.0,0.0,0.1,9.4,1.0,0.30000000000000004,-0.4,-0.4
1698924614082.0,16,0.0,0.0,0.0,0.1,9.4,1.0,0.2,0.1,0.0
1698924614098.0,16,0.0,0.0,0.0,0.0,9.4,1.1,0.30000000000000004,0.1,0.1
1698924614115.0,16,0.0,0.0,0.0,0.1,9.4,1.0,0.8,-0.2,0.0
1698924614132.0,16,0.0,0.0,0.0,0.0,9.4,1.1,0.5,-0.2,0.0
1698924614148.0,16,0.0,0.0,0.0,0.0,9.5,1.1,0.7,-0.4,0.0
1698924614166.0,16,0.0,0.0,0.0,0.0,9.5,1.1,0.7,-0.30000000000000004,0.1
1698924614182.0,16,0.0,0.0,0.0,0.0,9.5,1.1,0.7,-0.2,0.1
1698924614199.0,16,0.0,0.0,0.0,0.1,9.4,1.1,0.30000000000000004,0.2,-0.2
1698924614215.0,16,0.0,0.0,0.0,0.0,9.4,1.0,0.30000000000000004,0.2,0.1
1698924614232.0,16,0.0,0.0,0.0,0.0,9.4,1.0,0.2,0.1,0.30000000000000004
1698924614248.0,16,-0.1,0.0,0.0,0.0,9.4,1.0,0.1,-0.2,0.4
1698924614265.0,16,0.0,0.0,0.0,0.0,9.4,1.0,0.30000000000000004,-0.5,0.1
1698924614282.0,16,0.0,0.0,0.0,0.1,9.5,1.1,0.4,-1.0,0.0
1698924614299.0,16,0.0,0.0,0.0,0.1,9.5,1.0,0.30000000000000004,-0.2,0.1
1698924614315.0,16,0.0,0.0,0.0,0.1,9.4,1.0,0.30000000000000004,0.1,0.2
1698924614332.0,16,0.0,0.0,0.0,0.0,9.4,1.1,0.5,0.1,0.30000000000000004
1698924614348.0,16,0.0,0.0,0.0,0.0,9.5,1.1,0.8,-0.30000000000000004,0.4
1698924614366.0,16,0.0,0.0,0.0,0.1,9.5,1.1,1.0,-0.2,0.30000000000000004
1698924614382.0,16,0.0,0.0,0.0,0.1,9.4,1.1,1.0,-0.4,0.1
1698924614399.0,16,0.0,0.0,0.0,0.1,9.4,1.0,0.1,0.1,0.1
1698924614415.0,16,0.0,0.0,0.0,0.0,9.5,1.1,-0.4,0.1,0.30000000000000004
1698924614432.0,16,0.0,0.0,0.0,0.0,9.5,1.0,-0.30000000000000004,0.0,0.2
1698924614449.0,16,0.0,0.0,-0.1,0.1,9.4,1.0,-0.30000000000000004,-0.4,0.0
1698924614465.0,16,0.0,0.0,0.0,0.1,9.5,1.0,-0.8,-0.2,0.1
1698924614482.0,16,0.0,0.0,0.0,0.1,9.5,1.0,-0.6000000000000001,0.4,0.30000000000000004
1698924614499.0,16,0.0,0.0,0.0,0.0,9.5,1.0,0.30000000000000004,0.4,0.6000000000000001
1698924614515.0,16,0.0,0.0,0.0,0.0,9.4,1.0,1.0,0.1,0.6000000000000001
1698924614532.0,16,0.0,-0.1,0.0,0.1,9.3,1.1,1.4,-0.1,0.30000000000000004
1698924614549.0,16,0.0,0.0,0.0,0.1,9.4,1.1,1.4,0.1,0.30000000000000004
1698924614565.0,16,0.0,0.1,0.0,0.1,9.5,1.0,1.3,0.1,0.5
1698924614582.0,16,0.0,0.0,0.0,0.0,9.5,1.1,1.0,0.1,0.6000000000000001
1698924614598.0,16,0.0,0.0,0.0,0.1,9.5,1.0,0.2,0.0,0.1
1698924614615.0,16,0.0,0.0,0.0,0.1,9.5,1.0,-0.6000000000000001,0.1,-0.2
1698924614632.0,16,0.0,0.0,0.0,0.1,9.5,1.0,-1.0,0.4,0.0
1698924614649.0,16,0.0,0.0,0.0,0.1,9.4,1.0,-1.2000000000000002,0.2,0.0
1698924614665.0,16,0.0,0.0,0.0,0.1,9.4,1.0,-0.8,0.1,-0.1
1698924614683.0,16,0.0,0.0,0.0,0.1,9.5,1.0,-0.4,0.30000000000000004,0.0
1698924614698.0,16,0.0,0.0,0.0,0.1,9.5,1.0,0.2,0.30000000000000004,0.1
1698924614715.0,16,0.0,0.0,0.0,0.1,9.5,1.0,0.5,0.30000000000000004,0.0
1698924614732.0,16,0.0,0.0,0.0,0.1,9.5,1.0,0.5,-0.1,0.1
1698924614749.0,16,0.0,0.0,0.0,0.0,9.5,1.0,-0.1,0.2,0.0
1698924614765.0,16,0.0,0.0,0.0,0.1,9.4,1.0,-0.6000000000000001,0.2,0.1
1698924614782.0,16,0.0,0.0,0.0,0.1,9.4,1.1,-0.8,0.1,-0.1
1698924614798.0,16,0.0,0.0,0.0,0.1,9.5,1.0,-0.5,0.1,-0.2
1698924614816.0,16,0.0,0.0,0.0,0.1,9.4,1.0,-0.5,0.1,-0.2
1698924614832.0,16,0.0,0.0,0.0,0.0,9.4,1.0,-0.2,0.0,-0.2
1698924614849.0,16,0.0,0.0,0.0,0.1,9.5,1.0,-0.2,-0.2,-0.1
1698924614865.0,16,0.0,0.0,0.0,0.1,9.5,1.0,0.0,0.2,0.0
1698924614882.0,16,0.0,0.0,0.0,0.1,9.5,1.0,-0.1,0.1,-0.2
1698924614899.0,16,0.0,0.0,0.0,0.1,9.5,1.0,0.2,-0.4,-0.2
1698924614915.0,16,0.0,0.0,0.0,0.1,9.4,1.1,0.30000000000000004,-0.5,-0.1
1698924614932.0,16,0.0,0.0,0.0,0.1,9.4,1.0,0.5,-0.4,0.0
1698924614949.0,16,0.0,0.0,0.0,0.1,9.4,1.0,0.7,0.1,-0.2
1698924614966.0,16,0.0,0.0,0.1,0.1,9.4,1.0,0.8,0.2,0.0
1698924614982.0,16,0.0,0.0,0.0,0.1,9.5,1.1,1.3,0.1,0.0
1698924614998.0,16,0.0,0.0,0.0,0.1,9.4,1.0,1.3,0.0,-0.1
1698924615015.0,16,0.0,0.0,0.0,0.1,9.4,1.0,0.7,0.1,-0.2
1698924615032.0,16,0.0,0.0,0.0,0.1,9.4,1.0,0.2,-0.1,-0.30000000000000004
1698924615049.0,16,0.0,0.1,0.0,0.1,9.5,1.1,-0.6000000000000001,0.2,0.0
1698924615065.0,16,0.0,0.0,0.0,0.1,9.5,1.0,-1.0,0.1,-0.2
1698924615083.0,16,0.0,0.0,0.0,0.0,9.5,1.0,-1.5000000000000002,0.1,-0.2
1698924615099.0,16,0.0,0.0,0.0,0.0,9.4,1.0,-1.4,0.0,-0.2
1698924615115.0,16,0.0,0.0,-0.1,0.0,9.4,1.0,-0.8,-0.30000000000000004,-0.2
1698924615132.0,16,0.0,0.0,0.0,0.0,9.4,1.0,-0.6000000000000001,-0.2,-0.1
1698924615149.0,16,0.0,0.0,0.0,0.0,9.4,1.0,0.2,-0.4,-0.30000000000000004
1698924615165.0,16,0.0,0.0,0.0,0.1,9.5,1.0,0.6000000000000001,-0.5,-0.1
1698924615182.0,16,0.0,0.0,0.0,0.1,9.5,1.1,0.7,-0.4,0.0
1698924615199.0,16,0.0,0.0,0.0,0.1,9.5,1.0,0.7,-0.4,0.0
1698924615215.0,16,0.0,0.0,0.0,0.1,9.5,1.1,0.2,-0.2,-0.30000000000000004
1698924615232.0,16,0.0,0.0,0.0,0.1,9.5,1.1,-0.1,0.1,-0.30000000000000004
1698924615248.0,16,0.0,0.0,0.0,0.1,9.5,1.1,-0.8,0.1,-0.2
1698924615265.0,16,0.0,0.0,0.0,0.1,9.4,1.0,-1.3,0.1,-0.1
1698924615281.0,16,0.0,0.0,0.0,0.0,9.4,1.1,-1.7,-0.1,-0.30000000000000004
1698924615298.0,16,0.0,0.0,0.0,0.1,9.4,1.0,-1.7,0.0,-0.30000000000000004
1698924615315.0,16,0.0,0.0,0.0,0.0,9.4,1.1,-1.4,-0.2,-0.4
1698924615331.0,16,0.0,0.0,0.0,0.0,9.4,1.0,-0.7,-0.1,-0.2
1698924615348.0,16,0.0,0.0,0.0,0.0,9.4,1.1,-0.30000000000000004,-0.4,-0.2
1698924615365.0,16,0.0,0.0,0.0,0.0,9.5,1.0,0.1,-0.4,-0.2
1698924615382.0,16,0.0,0.0,0.0,0.1,9.5,1.1,0.5,-0.4,0.0
1698924615400.0,16,0.0,0.0,0.0,0.0,9.4,1.1,0.5,-0.4,-0.1
1698924615415.0,16,0.0,0.0,0.0,0.0,9.4,1.1,0.5,-0.1,0.1
1698924615433.0,16,0.0,0.0,0.0,0.0,9.4,1.1,0.30000000000000004,-0.1,0.1
1698924615451.0,16,0.0,0.0,0.0,0.0,9.4,1.1,-0.1,-0.5,-0.1
1698924615465.0,16,0.0,0.0,0.0,0.1,9.4,1.1,-0.5,-0.5,-0.30000000000000004
1698924615482.0,16,0.0,0.0,0.0,0.1,9.4,1.1,-0.8,-0.2,0.2
1698924615498.0,16,0.0,0.0,0.0,0.0,9.4,1.1,-0.6000000000000001,-0.1,0.30000000000000004
1698924615515.0,16,0.0,0.0,0.0,0.0,9.4,1.1,-0.5,-0.2,-0.1
1698924615532.0,16,0.0,0.0,0.0,0.1,9.5,1.0,0.0,-0.4,-0.1
1698924615548.0,16,0.0,0.0,0.0,0.0,9.5,1.0,0.0,-0.6000000000000001,0.0
1698924615565.0,16,0.0,0.0,0.0,0.0,9.4,1.1,0.4,-0.30000000000000004,0.1
1698924615582.0,16,0.0,0.0,0.0,0.1,9.4,1.1,0.7,-0.2,0.0
1698924615599.0,16,0.0,0.0,0.0,0.1,9.4,1.1,0.5,-0.1,0.0
1698924615616.0,16,0.0,0.0,0.0,0.1,9.4,1.1,0.1,-0.4,-0.2
1698924615634.0,16,0.0,0.1,0.0,0.1,9.5,1.0,-0.4,-0.6000000000000001,-0.2
1698924615649.0,16,0.0,0.0,0.0,0.0,9.5,1.0,-0.7,-0.30000000000000004,0.1
1698924615665.0,16,0.0,0.0,0.0,0.0,9.4,1.0,-1.5000000000000002,-0.1,0.30000000000000004
1698924615682.0,16,0.0,0.0,0.0,0.1,9.4,1.0,-1.6,-0.6000000000000001,-0.4
1698924615699.0,16,0.0,0.0,-0.1,0.1,9.4,1.0,-1.6,-0.8,-0.5
1698924615716.0,16,0.0,0.0,-0.1,0.1,9.5,1.0,-1.0,-0.2,0.4
1698924615735.0,16,0.0,0.0,0.0,0.1,9.5,1.1,-0.2,0.4,0.6000000000000001
1698924615749.0,16,0.0,0.0,0.0,0.1,9.5,1.0,0.6000000000000001,0.5,0.5
1698924615765.0,16,0.0,-0.1,0.0,0.1,9.4,1.0,1.6,0.2,0.30000000000000004
1698924615782.0,16,0.0,0.0,0.0,0.0,9.4,1.1,1.7,0.4,0.5
1698924615799.0,16,0.0,0.0,0.0,0.0,9.4,1.1,1.8,0.4,0.6000000000000001
1698924615816.0,16,0.0,0.0,0.0,0.1,9.5,1.1,1.2000000000000002,-0.2,0.30000000000000004
1698924615832.0,16,0.0,0.0,0.1,0.1,9.5,1.1,0.5,0.2,0.2
1698924615848.0,16,0.0,0.0,0.0,0.1,9.4,1.1,0.30000000000000004,0.2,0.4
1698924615865.0,16,0.0,-0.1,0.0,0.1,9.4,1.1,-0.30000000000000004,0.1,0.30000000000000004
1698924615882.0,16,0.0,-0.1,0.1,0.1,9.4,1.1,-0.4,0.0,0.30000000000000004
1698924615898.0,16,0.0,0.0,0.0,0.1,9.4,1.1,-0.4,-0.1,0.1
1698924615915.0,16,0.0,0.0,0.0,0.1,9.4,1.1,-0.1,-0.2,0.2
1698924615932.0,16,0.0,0.0,0.0,0.1,9.4,1.1,0.30000000000000004,0.0,0.1
1698924615948.0,16,0.0,0.0,0.0,0.1,9.5,1.0,0.30000000000000004,-0.1,0.2
1698924615965.0,16,0.0,0.0,0.0,0.1,9.5,1.1,0.2,-0.2,0.30000000000000004
1698924615982.0,16,0.0,0.0,0.0,0.1,9.5,1.0,0.6000000000000001,0.2,0.30000000000000004
1698924615999.0,16,0.0,0.0,0.0,0.1,9.4,1.1,0.8,0.4,0.2
1698924616015.0,16,0.0,-0.1,-0.1,0.1,9.3,1.0,1.2000000000000002,0.5,0.4
1698924616032.0,16,0.0,0.0,0.0,0.0,9.4,1.0,1.0,0.1,0.1
1698924616049.0,16,0.0,0.0,0.0,0.0,9.5,1.1,1.3,0.0,-0.1
1698924616065.0,16,0.0,0.0,0.0,0.0,9.5,1.0,1.7,-0.4,0.30000000000000004
1698924616082.0,16,0.0,0.0,0.0,0.0,9.4,1.0,1.7,-0.7,0.1
1698924616098.0,16,0.0,0.0,0.0,0.1,9.4,1.0,1.5000000000000002,-0.6000000000000001,0.0
1698924616115.0,16,0.0,0.0,0.0,0.1,9.4,1.1,1.0999999999999999,-0.7,-0.1
1698924616133.0,16,0.0,0.0,0.0,0.1,9.5,1.0,1.0,-0.2,-0.2
1698924616149.0,16,0.0,0.0,0.0,0.1,9.4,1.0,1.0,-0.4,0.0
1698924616167.0,16,0.0,0.0,0.0,0.1,9.4,1.0,0.6000000000000001,-0.7,0.0
1698924616182.0,16,0.0,0.0,-0.1,0.1,9.5,1.0,0.5,-0.4,-0.2
1698924616198.0,16,0.0,0.0,0.0,0.1,9.5,1.0,0.4,-0.1,-0.1
1698924616215.0,16,0.0,0.1,0.0,0.1,9.5,1.0,0.8,0.0,-0.2
1698924616232.0,16,0.0,0.0,0.0,0.1,9.4,1.0,1.3,0.1,-0.1
1698924616248.0,16,0.0,0.0,0.0,0.1,9.4,1.0,1.7,0.1,0.1
1698924616265.0,16,0.0,0.0,0.0,0.1,9.4,1.0,1.5000000000000002,0.2,0.1
1698924616282.0,16,-0.1,0.0,0.0,0.0,9.4,1.0,1.4,0.7,0.30000000000000004
1698924616298.0,16,0.0,0.0,0.0,0.0,9.4,1.0,1.7,0.1,-0.2
1698924616315.0,16,0.0,0.0,0.0,0.0,9.5,1.0,1.8,-0.2,-0.30000000000000004
1698924616332.0,16,0.0,0.0,0.0,0.1,9.5,0.9,1.6,0.7,0.1
1698924616348.0,16,-0.1,0.0,0.0,0.0,9.5,0.9,0.30000000000000004,2.3000000000000003,0.5
1698924616365.0,16,0.0,0.0,-0.1,0.0,9.5,0.9,-0.2,1.8,0.2
1698924616382.0,16,0.0,0.1,0.1,0.0,9.600000000000001,1.1,-0.8,-0.1,-0.5
1698924616398.0,16,0.1,0.30000000000000004,0.0,0.1,9.700000000000001,1.0,-0.7,1.0,0.5
1698924616415.0,16,0.1,0.2,-0.1,0.1,9.700000000000001,0.9,-1.9,1.0,0.5
1698924616434.0,16,0.0,0.30000000000000004,0.1,0.0,9.700000000000001,1.1,-5.1,1.5000000000000002,0.5
1698924616449.0,16,-0.1,0.30000000000000004,0.0,-0.1,9.8,1.0,-6.2,2.0,1.2000000000000002
1698924616465.0,16,-0.1,0.2,-0.1,-0.1,9.8,1.0,-7.500000000000001,2.6,0.9
1698924616481.0,16,-0.1,0.2,-0.2,0.0,9.700000000000001,0.8,-9.9,3.8,-1.0
1698924616503.0,16,0.0,0.2,-0.30000000000000004,0.1,9.700000000000001,0.8,-13.4,3.8,-3.0000000000000004
1698924616515.0,16,0.0,0.30000000000000004,-0.4,0.1,9.8,0.7000000000000001,-15.5,4.2,-3.3000000000000003
1698924616533.0,16,0.1,0.5,-0.6000000000000001,0.1,10.0,0.6000000000000001,-21.1,2.1,-4.0
1698924616550.0,16,0.1,0.8,-0.4,0.1,10.4,0.8,-25.5,-0.30000000000000004,-5.1
1698924616565.0,16,0.2,1.1,-0.7000000000000001,0.2,10.600000000000001,0.6000000000000001,-29.1,-3.4,-6.000000000000001
1698924616583.0,16,0.2,1.2000000000000002,-0.7000000000000001,0.2,10.700000000000001,0.6000000000000001,-31.900000000000002,-5.500000000000001,-6.6000000000000005
1698924616598.0,16,0.2,1.4000000000000001,-0.9,0.2,10.9,0.5,-39.6,-3.7000000000000006,-7.6
1698924616615.0,16,0.2,1.5,-1.1,0.1,11.0,0.5,-44.6,-2.1,-7.6
1698924616632.0,16,0.1,1.4000000000000001,-1.1,0.1,10.9,0.6000000000000001,-54.5,-0.9,-8.3
1698924616648.0,16,0.2,1.3,-1.4000000000000001,0.1,10.8,0.5,-62.8,-3.7000000000000006,-10.0
1698924616665.0,16,0.1,1.2000000000000002,-1.4000000000000001,0.0,10.700000000000001,0.6000000000000001,-67.1,-6.2,-11.3
1698924616682.0,16,0.1,1.2000000000000002,-1.7000000000000002,0.0,10.600000000000001,0.6000000000000001,-75.5,-8.0,-14.3
1698924616698.0,16,0.30000000000000004,1.2000000000000002,-1.7000000000000002,0.1,10.5,0.8,-84.5,-8.799999999999999,-19.0
1698924616715.0,16,0.5,1.2000000000000002,-2.0,0.30000000000000004,10.5,0.8,-89.10000000000001,-4.9,-22.4
1698924616731.0,16,0.6000000000000001,1.2000000000000002,-2.1,0.30000000000000004,10.4,0.8,-91.60000000000001,-8.1,-22.7
1698924616749.0,16,0.6000000000000001,1.1,-2.2,0.30000000000000004,10.200000000000001,1.0,-95.7,-7.9,-21.0
1698924616765.0,16,0.5,1.0,-2.2,0.1,10.0,1.3,-99.2,-0.9,-17.1
1698924616782.0,16,0.2,1.0,-2.5,-0.2,10.0,1.1,-99.9,1.5000000000000002,-15.5
1698924616799.0,16,-0.1,1.3,-2.0,-0.6000000000000001,10.100000000000001,1.9000000000000001,-102.9,-0.7,-11.9
1698924616815.0,16,-0.2,1.6,-1.8,-0.7000000000000001,10.3,2.3000000000000003,-101.4,1.0,-10.5
1698924616831.0,16,-0.2,2.1,-1.0,-0.7000000000000001,10.700000000000001,3.5,-100.2,5.9,-9.200000000000001
1698924616848.0,16,-0.30000000000000004,2.0,-0.30000000000000004,-0.9,10.5,4.4,-95.3,8.700000000000001,-10.4
1698924616866.0,16,0.2,1.7000000000000002,0.5,-0.4,10.100000000000001,5.4,-78.10000000000001,17.8,-15.2
1698924616882.0,16,0.7000000000000001,1.7000000000000002,1.2000000000000002,0.1,10.0,6.2,-68.60000000000001,23.1,-20.1
1698924616898.0,16,1.6,1.7000000000000002,1.9000000000000001,0.8,9.9,7.0,-52.400000000000006,34.300000000000004,-26.400000000000002
1698924616915.0,16,1.0,0.9,2.6,0.1,9.0,7.9,-64.60000000000001,30.599999999999998,-20.1
1698924616932.0,16,-0.30000000000000004,0.30000000000000004,2.8000000000000003,-1.2000000000000002,8.3,8.200000000000001,-83.50000000000001,30.5,-11.000000000000002
1698924616952.0,16,-1.6,-0.30000000000000004,2.2,-2.6,7.6000000000000005,8.0,-107.6,17.8,-4.6000000000000005
1698924616965.0,16,-1.3,-0.6000000000000001,1.3,-1.8,6.6000000000000005,6.7,-105.9,15.000000000000002,-5.300000000000001
1698924616982.0,16,-0.1,-1.5,0.1,-1.2000000000000002,6.0,6.300000000000001,-90.30000000000001,21.200000000000003,-9.1
1698924616998.0,16,0.4,-2.5,-0.2,-0.8,4.9,6.1000000000000005,-63.10000000000001,22.000000000000004,-8.799999999999999
1698924617015.0,16,0.8,-2.9000000000000004,0.2,-0.4,4.3,6.6000000000000005,-30.100000000000005,11.2,1.9
1698924617032.0,16,0.7000000000000001,-2.7,0.7000000000000001,-0.5,4.5,7.1000000000000005,-17.3,7.1000000000000005,6.8
1698924617049.0,16,-0.1,-1.2000000000000002,1.6,-1.3,6.0,8.1,-4.800000000000001,5.6,9.3
1698924617065.0,16,-0.30000000000000004,-0.6000000000000001,1.9000000000000001,-1.5,6.6000000000000005,8.3,-5.0,5.6,8.600000000000001
1698924617082.0,16,-0.30000000000000004,-0.30000000000000004,2.0,-1.5,6.9,8.5,-16.0,9.200000000000001,6.4
1698924617099.0,16,-0.4,-0.30000000000000004,1.7000000000000002,-1.6,6.800000000000001,8.200000000000001,-18.900000000000002,10.0,4.3999999999999995
1698924617115.0,16,-0.4,-0.2,1.6,-1.6,6.9,8.200000000000001,-7.8,11.2,6.2
1698924617133.0,16,-0.4,-0.2,1.7000000000000002,-1.6,6.9,8.3,0.30000000000000004,9.200000000000001,8.799999999999999
1698924617149.0,16,-0.7000000000000001,-0.1,2.1,-1.9000000000000001,7.0,8.700000000000001,11.9,4.1000000000000005,14.600000000000001
1698924617165.0,16,-0.8,-0.1,2.1,-2.0,7.0,8.700000000000001,13.8,2.7,16.5
1698924617182.0,16,-0.5,-0.30000000000000004,1.8,-1.7000000000000002,6.9,8.4,11.8,4.300000000000001,17.3
1698924617199.0,16,0.0,-0.2,1.3,-1.2000000000000002,7.0,7.9,14.3,4.300000000000001,14.900000000000002
1698924617215.0,16,0.2,0.0,1.0,-1.1,7.1000000000000005,7.800000000000001,19.500000000000004,4.5,14.600000000000001
1698924617232.0,16,0.2,0.0,0.8,-0.9,7.300000000000001,7.2,37.900000000000006,-1.3,18.7
1698924617248.0,16,0.2,-0.1,0.7000000000000001,-0.8,7.300000000000001,7.1000000000000005,43.2,-3.2,20.7
1698924617265.0,16,0.0,-0.2,0.5,-0.9,7.300000000000001,6.800000000000001,50.300000000000004,-4.9,24.1
1698924617282.0,16,-0.2,-0.4,0.1,-1.1,7.2,6.2,56.0,-7.0,24.400000000000002
1698924617299.0,16,-0.5,-0.5,0.1,-1.3,7.2,6.2,58.1,-7.8,23.700000000000003
1698924617315.0,16,-0.6000000000000001,-0.2,0.30000000000000004,-1.4000000000000001,7.6000000000000005,6.2,64.7,-6.8,24.200000000000003
1698924617332.0,16,-0.4,-0.1,0.30000000000000004,-1.1,7.800000000000001,6.1000000000000005,68.0,-8.1,24.9
1698924617349.0,16,0.0,-0.1,0.2,-0.7000000000000001,8.0,5.800000000000001,71.10000000000001,-9.0,23.700000000000003
1698924617365.0,16,0.0,-0.1,0.1,-0.5,8.0,5.5,71.9,-6.1000000000000005,19.700000000000003
1698924617382.0,16,0.1,-0.5,-0.2,-0.5,8.0,5.2,73.30000000000001,-3.4,16.8
1698924617399.0,16,0.1,-0.7000000000000001,-0.5,-0.4,7.7,4.6000000000000005,77.1,-1.0,11.000000000000002
1698924617415.0,16,0.1,-1.1,-0.7000000000000001,-0.4,7.4,4.1000000000000005,80.0,-0.7,10.0
1698924617432.0,16,0.1,-1.2000000000000002,-0.9,-0.4,7.4,3.8000000000000003,81.10000000000001,-1.2000000000000002,11.700000000000001
1698924617449.0,16,0.0,-1.4000000000000001,-0.8,-0.4,7.300000000000001,3.6,82.4,-2.9,15.7
1698924617465.0,16,-0.1,-1.6,-1.1,-0.5,7.2,3.1,83.7,-4.800000000000001,17.9
1698924617482.0,16,-0.2,-1.8,-1.2000000000000002,-0.5,7.1000000000000005,2.8000000000000003,83.10000000000001,-6.6000000000000005,18.1
1698924617498.0,16,-0.4,-2.0,-1.3,-0.7000000000000001,7.0,2.5,79.9,-8.799999999999999,16.900000000000002
1698924617516.0,16,-0.7000000000000001,-2.3000000000000003,-1.2000000000000002,-0.9,6.7,2.4000000000000004,76.0,-10.8,15.2
1698924617532.0,16,-0.9,-2.5,-1.0,-1.1,6.6000000000000005,2.5,75.4,-9.5,14.600000000000001
1698924617548.0,16,-1.0,-2.9000000000000004,-1.1,-1.1,6.300000000000001,2.1,76.0,-7.300000000000001,13.0
1698924617565.0,16,-0.9,-3.2,-0.8,-1.0,6.0,2.1,76.0,-8.1,10.1
1698924617582.0,16,-0.8,-3.3000000000000003,-0.7000000000000001,-0.9,5.9,2.1,76.5,-9.5,8.600000000000001
1698924617600.0,16,-0.6000000000000001,-3.5,-0.4,-0.7000000000000001,5.800000000000001,2.1,76.9,-15.9,6.6000000000000005
1698924617615.0,16,-0.5,-3.7,-0.4,-0.5,5.6000000000000005,1.9000000000000001,74.2,-21.8,6.3
1698924617632.0,16,-0.5,-3.9000000000000004,-0.2,-0.5,5.4,2.0,71.6,-24.400000000000002,7.1000000000000005
1698924617650.0,16,-0.6000000000000001,-4.1000000000000005,0.0,-0.5,5.2,2.0,66.5,-28.400000000000002,11.2
1698924617665.0,16,-0.5,-3.8000000000000003,0.2,-0.4,5.5,2.0,61.599999999999994,-27.0,14.700000000000001
1698924617682.0,16,-0.4,-3.4000000000000004,0.2,-0.30000000000000004,5.9,1.9000000000000001,58.400000000000006,-25.900000000000002,14.900000000000002
1698924617700.0,16,-0.2,-2.6,0.6000000000000001,0.0,6.800000000000001,2.1,51.400000000000006,-22.000000000000004,12.700000000000001
1698924617715.0,16,-0.2,-1.7000000000000002,0.9,0.1,7.6000000000000005,2.3000000000000003,47.300000000000004,-18.400000000000002,9.200000000000001
1698924617732.0,16,-0.1,-1.4000000000000001,1.1,0.1,7.9,2.4000000000000004,46.4,-17.9,8.0
1698924617749.0,16,0.1,-0.8,1.5,0.30000000000000004,8.6,2.6,46.4,-17.3,4.5
1698924617765.0,16,0.2,0.0,1.5,0.5,9.4,2.5,45.0,-15.000000000000002,0.7
1698924617783.0,16,0.30000000000000004,0.4,1.5,0.5,9.8,2.4000000000000004,42.400000000000006,-14.3,-0.30000000000000004
1698924617799.0,16,0.30000000000000004,1.6,1.8,0.6000000000000001,11.0,2.6,35.7,-12.6,0.6000000000000001
1698924617816.0,16,0.30000000000000004,2.5,1.8,0.6000000000000001,11.9,2.6,31.5,-14.3,3.1
1698924617832.0,16,0.30000000000000004,2.6,1.6,0.6000000000000001,12.0,2.3000000000000003,28.700000000000003,-14.0,4.300000000000001
1698924617848.0,16,0.30000000000000004,2.1,1.3,0.6000000000000001,11.200000000000001,1.8,20.7,-10.600000000000001,3.3000000000000003
1698924617865.0,16,0.30000000000000004,1.5,1.0,0.6000000000000001,11.0,1.6,13.8,-4.6000000000000005,-1.6
1698924617882.0,16,0.4,1.3,0.7000000000000001,0.7000000000000001,10.8,1.3,6.000000000000001,-0.2,-5.0
1698924617899.0,16,0.5,1.3,0.8,0.8,10.8,1.4000000000000001,2.7,-0.1,-5.500000000000001
1698924617915.0,16,0.4,1.2000000000000002,1.2000000000000002,0.7000000000000001,10.700000000000001,1.8,1.6,-0.2,-4.0
1698924617932.0,16,0.2,0.7000000000000001,1.2000000000000002,0.5,10.3,1.8,2.9,4.9,-2.1999999999999997
1698924617949.0,16,0.30000000000000004,0.6000000000000001,1.1,0.6000000000000001,10.100000000000001,1.6,1.5000000000000002,8.200000000000001,-1.7
1698924617966.0,16,0.2,0.1,1.0,0.5,9.700000000000001,1.6,-4.5,11.000000000000002,-2.8
1698924617982.0,16,0.2,0.0,1.1,0.5,9.5,1.8,-11.5,10.1,-4.5
1698924618001.0,16,0.2,-0.1,1.1,0.4,9.4,1.7000000000000002,-15.5,9.8,-5.500000000000001
1698924618015.0,16,0.2,-0.1,1.0,0.4,9.4,1.7000000000000002,-23.900000000000002,13.200000000000001,-7.2
1698924618032.0,16,0.30000000000000004,0.1,0.8,0.5,9.600000000000001,1.7000000000000002,-30.9,15.399999999999999,-8.5
1698924618048.0,16,0.2,0.4,0.4,0.4,9.9,1.4000000000000001,-37.4,19.200000000000003,-6.3
1698924618065.0,16,0.2,0.4,0.2,0.4,9.9,1.3,-41.1,20.900000000000002,-3.7000000000000006
1698924618082.0,16,0.2,0.2,0.0,0.4,9.700000000000001,1.2000000000000002,-47.6,18.7,0.9
1698924618098.0,16,-0.1,0.1,0.1,0.1,9.600000000000001,1.5,-50.0,17.0,4.5
1698924618116.0,16,-0.2,0.30000000000000004,0.1,0.0,9.700000000000001,1.5,-49.4,16.700000000000003,5.9
1698924618132.0,16,-0.4,0.5,0.2,-0.2,10.0,1.8,-45.6,11.000000000000002,7.400000000000001
1698924618148.0,16,-0.5,0.5,0.30000000000000004,-0.30000000000000004,9.9,2.1,-40.2,7.0,5.7
1698924618165.0,16,-0.5,0.2,0.30000000000000004,-0.30000000000000004,9.600000000000001,2.1,-38.5,6.9,3.9
1698924618182.0,16,-0.4,-0.4,0.2,-0.2,8.9,2.1,-39.400000000000006,4.5,0.30000000000000004
1698924618198.0,16,-0.4,-0.8,0.1,-0.2,8.5,2.1,-41.6,3.8,-1.3
1698924618216.0,16,-0.30000000000000004,-0.9,0.0,-0.1,8.4,2.1,-49.8,2.9,-2.6
1698924618232.0,16,-0.2,-0.9,-0.1,-0.1,8.4,2.2,-60.400000000000006,-1.2000000000000002,0.0
1698924618249.0,16,-0.4,-0.7000000000000001,-0.30000000000000004,-0.1,8.4,2.3000000000000003,-64.9,-1.9,1.3
1698924618265.0,16,-0.30000000000000004,-0.5,-0.4,-0.1,8.6,2.3000000000000003,-70.7,0.4,0.0
1698924618282.0,16,-0.1,-0.1,-0.5,0.1,9.0,2.3000000000000003,-70.6,0.9,-6.1000000000000005
1698924618299.0,16,0.1,0.0,-0.6000000000000001,0.2,9.1,2.4000000000000004,-68.9,1.2000000000000002,-9.4
1698924618316.0,16,0.4,-0.1,-0.7000000000000001,0.6000000000000001,8.9,2.5,-63.4,4.5,-13.6
1698924618333.0,16,0.6000000000000001,-0.6000000000000001,-0.7000000000000001,0.7000000000000001,8.3,2.6,-56.800000000000004,10.8,-14.900000000000002
1698924618349.0,16,0.6000000000000001,-0.9,-0.8,0.7000000000000001,7.9,2.8000000000000003,-49.0,14.200000000000001,-15.000000000000002
1698924618365.0,16,0.6000000000000001,-1.1,-1.0,0.6000000000000001,7.7,2.6,-46.2,14.800000000000002,-14.4
1698924618382.0,16,0.5,-1.4000000000000001,-0.9,0.5,7.4,2.8000000000000003,-44.6,13.100000000000001,-11.6
1698924618399.0,16,0.4,-1.5,-0.9,0.30000000000000004,7.1000000000000005,2.9000000000000004,-43.300000000000004,7.8,-5.9
1698924618415.0,16,-0.1,-1.5,-1.1,-0.2,7.1000000000000005,2.9000000000000004,-44.6,4.800000000000001,-2.1999999999999997
1698924618431.0,16,-0.30000000000000004,-1.5,-1.1,-0.5,7.0,2.9000000000000004,-47.1,7.9,-1.8
1698924618448.0,16,-0.5,-1.5,-0.9,-0.6000000000000001,7.0,3.3000000000000003,-49.1,11.8,-5.2
1698924618465.0,16,-0.4,-1.4000000000000001,-0.6000000000000001,-0.6000000000000001,7.0,3.6,-47.300000000000004,10.0,-8.5
1698924618482.0,16,0.0,-1.1,-0.9,-0.30000000000000004,7.300000000000001,3.5,-42.1,4.0,-13.8
1698924618498.0,16,0.30000000000000004,-1.3,-0.8,0.0,7.0,3.7,-42.300000000000004,2.9,-15.5
1698924618515.0,16,0.5,-1.6,-0.4,0.0,6.800000000000001,4.0,-42.5,3.6,-14.500000000000002
1698924618532.0,16,0.5,-1.8,-0.6000000000000001,0.1,6.4,4.0,-40.1,-0.7,-11.000000000000002
1698924618548.0,16,0.1,-2.0,-0.8,0.0,6.2,3.9000000000000004,-40.4,-7.300000000000001,-8.600000000000001
1698924618565.0,16,-0.2,-2.0,-0.9,-0.5,6.0,3.9000000000000004,-43.800000000000004,-9.9,-1.8
1698924618582.0,16,-0.30000000000000004,-2.1,-1.0,-0.7000000000000001,5.800000000000001,3.9000000000000004,-47.2,-8.5,1.7
1698924618598.0,16,-0.2,-1.9000000000000001,-0.8,-0.6000000000000001,5.800000000000001,4.0,-47.1,-8.700000000000001,0.2
1698924618616.0,16,-0.2,-1.6,-0.7000000000000001,-0.5,6.2,4.4,-43.900000000000006,-4.9,-7.1000000000000005
1698924618632.0,16,0.1,-1.1,-0.6000000000000001,-0.2,6.6000000000000005,4.6000000000000005,-38.800000000000004,0.2,-14.4
1698924618650.0,16,0.5,-1.1,-0.30000000000000004,0.1,6.5,5.0,-37.1,2.0,-18.0
1698924618665.0,16,0.7000000000000001,-1.3,-0.6000000000000001,0.30000000000000004,6.300000000000001,4.800000000000001,-37.0,0.7,-16.8
1698924618682.0,16,1.0,-1.7000000000000002,-0.6000000000000001,0.6000000000000001,5.800000000000001,4.9,-43.300000000000004,-2.1999999999999997,-10.8
1698924618699.0,16,0.9,-2.1,-1.1,0.5,5.300000000000001,4.5,-47.5,-2.1,-4.0
1698924618715.0,16,0.6000000000000001,-2.1,-1.1,0.2,5.2,4.5,-49.1,-4.0,-1.0999999999999999
1698924618732.0,16,-0.1,-1.8,-0.8,-0.5,5.5,4.9,-46.300000000000004,-2.4000000000000004,3.5
1698924618749.0,16,-0.4,-1.0,-1.2000000000000002,-0.8,6.2,4.6000000000000005,-39.300000000000004,-4.300000000000001,1.7
1698924618766.0,16,-0.4,-0.8,-1.1,-0.8,6.300000000000001,5.0,-37.2,-4.5,-7.2
1698924618782.0,16,-0.30000000000000004,-0.9,-0.30000000000000004,-0.7000000000000001,6.1000000000000005,5.6000000000000005,-36.0,-3.8,-9.8
1698924618798.0,16,-0.2,-0.7000000000000001,0.5,-0.7000000000000001,6.300000000000001,6.6000000000000005,-27.0,-1.8,-7.9
1698924618815.0,16,-0.2,-0.2,0.8,-0.7000000000000001,6.7,6.9,-23.0,-4.2,-6.2
1698924618832.0,16,-0.4,0.1,0.9,-0.8,6.9,7.0,-18.1,-5.0,-6.6000000000000005
1698924618848.0,16,-0.7000000000000001,0.5,1.4000000000000001,-1.2000000000000002,7.300000000000001,7.6000000000000005,-12.000000000000002,0.1,-9.600000000000001
1698924618865.0,16,-0.6000000000000001,1.0,1.3,-1.1,7.800000000000001,7.5,-0.8,-0.2,-12.700000000000001
1698924618883.0,16,-0.4,1.0,1.2000000000000002,-0.9,7.800000000000001,7.4,2.9,0.5,-14.500000000000002
1698924618899.0,16,-0.1,0.8,1.3,-0.6000000000000001,7.7,7.5,5.2,1.6,-16.6
1698924618915.0,16,0.30000000000000004,0.8,1.6,-0.4,7.7,7.800000000000001,15.100000000000001,8.9,-21.3
1698924618933.0,16,0.30000000000000004,0.8,1.7000000000000002,-0.4,7.7,7.9,19.400000000000002,9.600000000000001,-23.400000000000002
1698924618949.0,16,0.1,0.6000000000000001,1.8,-0.6000000000000001,7.6000000000000005,7.9,30.5,7.300000000000001,-25.0
1698924618965.0,16,0.0,0.5,2.0,-0.8,7.5,8.0,36.3,5.9,-23.3
1698924618983.0,16,-0.2,0.9,2.6,-1.0,8.0,8.6,48.1,3.8,-18.3
1698924618999.0,16,-0.4,1.9000000000000001,3.2,-1.3,9.1,9.1,54.4,1.8,-17.599999999999998
1698924619016.0,16,-0.6000000000000001,2.8000000000000003,3.6,-1.5,10.100000000000001,9.4,56.7,-1.2000000000000002,-18.2
1698924619031.0,16,-1.2000000000000002,5.7,4.4,-2.1,13.100000000000001,10.0,62.900000000000006,-5.8,-15.8
1698924619049.0,16,-1.6,7.9,4.3,-2.5,15.5,9.9,63.800000000000004,-9.4,-7.1000000000000005
1698924619066.0,16,-1.0,7.1000000000000005,3.3000000000000003,-2.0,14.9,8.8,51.400000000000006,-18.2,1.0999999999999999
1698924619082.0,16,-0.5,5.5,1.7000000000000002,-1.5,13.3,7.1000000000000005,40.1,-21.400000000000002,0.30000000000000004
1698924619098.0,16,-0.1,1.4000000000000001,-0.5,-1.0,9.3,4.9,13.0,-15.6,-9.9
1698924619115.0,16,0.30000000000000004,-0.7000000000000001,-2.0,-0.7000000000000001,7.2,3.3000000000000003,-2.8,-4.0,-14.700000000000001
1698924619131.0,16,0.4,-1.3,-2.6,-0.6000000000000001,6.6000000000000005,2.8000000000000003,-6.1000000000000005,1.0999999999999999,-15.8
1698924619148.0,16,0.4,-1.6,-2.9000000000000004,-0.6000000000000001,6.300000000000001,2.4000000000000004,-2.5,-2.8,-13.6
1698924619165.0,16,-0.30000000000000004,-0.9,-2.7,-1.3,7.0,2.6,4.3999999999999995,-6.6000000000000005,-8.5
1698924619182.0,16,-0.5,-0.2,-2.2,-1.4000000000000001,7.7,3.1,26.8,-11.4,10.2
1698924619200.0,16,-1.0,1.3,-2.1,-1.9000000000000001,9.4,3.0,56.1,-12.4,19.3
1698924619215.0,16,-0.9,2.5,-1.0,-1.8,10.700000000000001,3.9000000000000004,79.00000000000001,-15.9,8.3
1698924619232.0,16,-0.6000000000000001,2.6,-0.6000000000000001,-1.4000000000000001,10.9,4.1000000000000005,85.4,-14.0,0.5
1698924619249.0,16,0.5,2.7,-0.2,-0.4,11.100000000000001,4.3,79.2,-18.7,-7.9
1698924619265.0,16,0.7000000000000001,2.4000000000000004,-0.1,-0.2,10.9,4.2,46.900000000000006,-10.600000000000001,-1.9
1698924619281.0,16,0.30000000000000004,2.5,-0.30000000000000004,-0.5,11.0,4.0,-5.300000000000001,-5.2,4.2
1698924619298.0,16,0.2,2.3000000000000003,-0.8,-0.6000000000000001,10.9,3.6,-23.8,-2.8,3.1
1698924619315.0,16,0.2,1.6,-1.4000000000000001,-0.6000000000000001,10.100000000000001,3.1,-41.9,0.4,1.4
1698924619332.0,16,0.30000000000000004,1.2000000000000002,-1.9000000000000001,-0.5,9.600000000000001,2.7,-41.9,-3.6,0.8
1698924619348.0,16,0.2,1.0,-2.1,-0.5,9.4,2.5,-39.00000000000001,-5.6,1.0
1698924619365.0,16,0.1,1.0,-2.1,-0.7000000000000001,9.4,2.6,-31.900000000000002,-8.1,2.0
1698924619382.0,16,0.0,1.3,-1.7000000000000002,-0.8,9.700000000000001,3.0,-27.5,-8.3,1.9
1698924619399.0,16,0.0,2.0,-1.3,-0.7000000000000001,10.4,3.5,-20.2,-7.1000000000000005,2.9
1698924619415.0,16,-0.1,2.4000000000000004,-0.9,-0.8,10.700000000000001,3.9000000000000004,-21.0,-7.6,5.1
1698924619432.0,16,-0.2,2.2,-0.8,-0.9,10.5,4.0,-34.300000000000004,-0.5,8.600000000000001
1698924619449.0,16,-0.6000000000000001,2.0,-0.6000000000000001,-1.2000000000000002,10.200000000000001,4.4,-61.4,3.4,6.9
1698924619465.0,16,-0.1,2.3000000000000003,-1.8,-0.8,10.4,3.5,-83.10000000000001,7.300000000000001,7.2
1698924619482.0,16,-0.2,2.8000000000000003,-1.5,-0.9,10.8,3.9000000000000004,-90.9,1.6,6.3
1698924619498.0,16,-0.6000000000000001,3.3000000000000003,-0.7000000000000001,-1.3,11.200000000000001,5.0,-89.6,16.8,5.2
1698924619515.0,16,-0.30000000000000004,3.2,-0.1,-0.5,10.8,6.2,-80.2,26.200000000000003,3.4
1698924619532.0,16,0.8,3.0,0.6000000000000001,0.1,10.700000000000001,6.5,-52.1,36.9,-5.500000000000001
1698924619548.0,16,1.2000000000000002,2.5,1.8,0.30000000000000004,10.100000000000001,7.800000000000001,-35.1,36.4,-7.400000000000001
1698924619565.0,16,0.30000000000000004,1.8,1.9000000000000001,-0.6000000000000001,9.4,8.0,-33.2,21.1,3.0000000000000004
1698924619582.0,16,-0.6000000000000001,0.8,2.0,-1.5,8.4,8.1,-42.5,16.700000000000003,8.9
1698924619599.0,16,-1.0,-1.0,1.1,-2.0,6.5,7.4,-51.300000000000004,15.8,5.500000000000001
1698924619616.0,16,-0.1,-1.5,0.30000000000000004,-1.1,5.800000000000001,6.7,-38.5,11.3,2.0
1698924619633.0,16,0.5,-2.2,0.4,-0.5,5.0,6.800000000000001,-13.9,8.3,8.9
1698924619649.0,16,0.30000000000000004,-2.6,0.7000000000000001,-0.6000000000000001,4.7,7.1000000000000005,0.30000000000000004,2.0,13.8
1698924619665.0,16,0.6000000000000001,-1.6,1.2000000000000002,-0.30000000000000004,5.7,7.6000000000000005,19.3,-7.1000000000000005,23.8
1698924619682.0,16,0.8,-0.2,1.5,0.0,7.2,7.9,20.8,-6.5,26.1
1698924619700.0,16,0.7000000000000001,0.2,1.5,-0.1,7.6000000000000005,7.9,18.0,-3.9,26.6
1698924619715.0,16,0.5,0.4,1.3,-0.2,7.800000000000001,7.6000000000000005,14.800000000000002,2.0,28.0
1698924619732.0,16,0.2,0.2,1.4000000000000001,-0.4,7.6000000000000005,7.7,17.1,3.1,28.0
1698924619748.0,16,0.0,0.1,1.4000000000000001,-0.6000000000000001,7.6000000000000005,7.7,28.6,6.3,25.900000000000002
1698924619765.0,16,-0.2,0.2,1.8,-0.7000000000000001,7.800000000000001,8.0,33.1,8.799999999999999,23.5
1698924619782.0,16,-0.2,0.30000000000000004,2.0,-0.7000000000000001,7.9,8.1,37.800000000000004,12.000000000000002,19.1
1698924619799.0,16,0.1,0.2,1.6,-0.4,8.0,7.6000000000000005,37.0,11.1,15.5
1698924619815.0,16,0.0,0.2,1.5,-0.5,8.0,7.5,37.300000000000004,12.700000000000001,13.0
1698924619832.0,16,-0.30000000000000004,0.30000000000000004,1.2000000000000002,-0.8,8.200000000000001,7.0,44.6,15.100000000000001,11.1
1698924619849.0,16,-0.4,0.2,0.9,-0.9,8.200000000000001,6.7,48.2,13.5,9.9
1698924619865.0,16,-0.5,0.1,0.7000000000000001,-1.1,8.200000000000001,6.4,55.0,13.200000000000001,8.4
1698924619882.0,16,-0.6000000000000001,0.1,0.6000000000000001,-1.1,8.200000000000001,6.1000000000000005,58.9,12.5,8.9
1698924619898.0,16,-0.4,0.0,0.1,-0.9,8.200000000000001,5.5,64.4,5.2,10.2
1698924619915.0,16,-0.5,0.0,0.30000000000000004,-1.0,8.3,5.5,69.00000000000001,1.0,11.6
1698924619932.0,16,-0.5,0.0,0.1,-1.0,8.5,5.0,76.5,0.1,12.700000000000001
1698924619948.0,16,-0.6000000000000001,-0.1,-0.1,-1.0,8.5,4.800000000000001,79.00000000000001,-2.3000000000000003,11.6
1698924619965.0,16,-0.6000000000000001,-0.1,-0.2,-1.1,8.6,4.4,82.30000000000001,-7.6,8.3
1698924619982.0,16,-0.8,0.0,0.0,-1.2000000000000002,8.8,4.4,84.9,-7.6,6.4
1698924620000.0,16,-0.8,0.0,0.0,-1.2000000000000002,8.9,4.2,86.7,-6.7,6.1000000000000005
1698924620015.0,16,-0.5,0.0,-0.30000000000000004,-0.9,9.0,3.7,87.2,-7.9,3.3000000000000003
1698924620032.0,16,-0.2,-0.1,-0.30000000000000004,-0.5,9.0,3.3000000000000003,82.50000000000001,-8.200000000000001,-1.4
1698924620049.0,16,-0.1,-0.2,-0.30000000000000004,-0.4,9.0,3.3000000000000003,79.39999999999999,-8.700000000000001,-2.9
1698924620066.0,16,0.0,-0.30000000000000004,-0.2,-0.30000000000000004,8.9,3.1,74.60000000000001,-9.200000000000001,-2.7
1698924620083.0,16,0.0,-0.5,-0.30000000000000004,-0.30000000000000004,8.8,2.9000000000000004,73.10000000000001,-9.0,-1.3
1698924620099.0,16,0.30000000000000004,-1.0,-0.9,0.0,8.3,2.1,67.5,-9.3,1.5000000000000002
1698924620115.0,16,0.30000000000000004,-1.8,-0.9,0.0,7.6000000000000005,1.9000000000000001,60.20000000000001,-6.9,2.8
1698924620134.0,16,0.2,-2.5,-1.1,0.0,6.9,1.5,55.300000000000004,-3.1,5.500000000000001
1698924620149.0,16,0.2,-2.8000000000000003,-1.2000000000000002,-0.1,6.6000000000000005,1.2000000000000002,52.900000000000006,-2.9,7.300000000000001
1698924620168.0,16,0.1,-3.3000000000000003,-1.0,-0.1,6.2,1.3,48.1,-6.2,11.000000000000002
1698924620182.0,16,0.1,-3.8000000000000003,-0.6000000000000001,-0.1,5.9,1.4000000000000001,47.6,-8.1,11.9
1698924620199.0,16,0.1,-4.1000000000000005,-0.5,0.0,5.300000000000001,1.5,50.300000000000004,-10.700000000000001,11.700000000000001
1698924620215.0,16,0.1,-4.6000000000000005,-0.4,0.0,4.800000000000001,1.5,54.3,-11.5,8.9
1698924620234.0,16,-0.2,-5.2,-0.1,-0.30000000000000004,4.3,1.6,57.9,-13.200000000000001,5.8
1698924620249.0,16,-0.30000000000000004,-5.5,0.2,-0.4,4.1000000000000005,1.6,59.9,-15.299999999999999,6.1000000000000005
1698924620266.0,16,-0.30000000000000004,-5.6000000000000005,0.4,-0.30000000000000004,3.8000000000000003,1.8,61.900000000000006,-20.2,8.700000000000001
1698924620282.0,16,-0.4,-5.5,1.0,-0.4,3.9000000000000004,2.2,60.20000000000001,-20.2,11.4
1698924620298.0,16,-0.5,-5.2,1.4000000000000001,-0.5,4.2,2.5,56.900000000000006,-17.5,12.8
1698924620315.0,16,-0.8,-4.0,2.1,-0.7000000000000001,5.4,3.1,50.0,-8.600000000000001,16.3
1698924620332.0,16,-0.4,-2.3000000000000003,2.4000000000000004,-0.30000000000000004,7.1000000000000005,3.3000000000000003,43.0,-7.0,18.900000000000002
1698924620349.0,16,0.0,-1.2000000000000002,2.2,0.7000000000000001,9.5,2.6,34.300000000000004,-14.800000000000002,17.8
1698924620365.0,16,0.9,1.6,1.5,1.1,11.0,2.2,27.400000000000002,-18.7,14.700000000000001
1698924620382.0,16,1.2000000000000002,4.4,1.0,1.5,13.8,1.6,12.100000000000001,-16.2,5.7
1698924620399.0,16,1.2000000000000002,5.1000000000000005,0.7000000000000001,1.4000000000000001,14.600000000000001,1.3,5.4,-9.4,2.8
1698924620415.0,16,0.9,4.9,0.0,1.2000000000000002,14.4,0.6000000000000001,-7.6,2.9,5.500000000000001
1698924620432.0,16,0.2,3.0,-0.1,0.6000000000000001,12.5,0.6000000000000001,-17.400000000000002,-0.2,11.6
1698924620448.0,16,-0.6000000000000001,0.9,0.0,-0.2,10.4,0.7000000000000001,-21.1,-1.6,13.8
1698924620465.0,16,-1.0,0.2,0.1,-0.6000000000000001,9.8,0.9,-21.3,0.2,13.6
1698924620482.0,16,-1.0,-0.4,0.30000000000000004,-0.6000000000000001,9.1,1.2000000000000002,-16.400000000000002,5.2,8.9
1698924620500.0,16,-0.9,-0.6000000000000001,0.30000000000000004,-0.5,9.0,1.2000000000000002,-11.9,6.9,3.6
1698924620515.0,16,-0.5,-0.9,0.5,-0.1,8.6,1.4000000000000001,-0.2,7.1000000000000005,-9.3
1698924620532.0,16,-0.1,-1.0,0.9,0.2,8.5,1.8,13.700000000000001,4.800000000000001,-12.3
1698924620549.0,16,0.0,-0.7000000000000001,1.1,0.30000000000000004,8.8,1.9000000000000001,27.400000000000002,3.4,-6.6000000000000005
1698924620565.0,16,-0.1,-0.30000000000000004,1.2000000000000002,0.2,9.200000000000001,2.0,32.4,1.5000000000000002,-2.5
1698924620582.0,16,-0.4,0.4,1.1,-0.1,9.9,1.8,37.6,1.0,5.8
1698924620598.0,16,-0.5,0.9,0.8,-0.2,10.4,1.4000000000000001,30.000000000000004,-4.3999999999999995,9.1
1698924620615.0,16,-0.6000000000000001,1.1,1.0,-0.2,10.700000000000001,1.5,22.3,-6.8,8.200000000000001
1698924620643.0,16,-0.30000000000000004,1.2000000000000002,0.6000000000000001,0.1,10.700000000000001,1.2000000000000002,-11.6,-0.4,-1.8
1698924620648.0,16,-0.2,1.1,0.6000000000000001,0.2,10.700000000000001,1.2000000000000002,-24.200000000000003,-1.8,-5.6
1698924620665.0,16,-0.1,0.9,0.6000000000000001,0.30000000000000004,10.5,1.3,-34.7,-4.0,-8.5
1698924620682.0,16,0.1,0.8,0.6000000000000001,0.4,10.3,1.4000000000000001,-49.1,-2.9,-10.9
1698924620698.0,16,0.0,0.6000000000000001,0.6000000000000001,0.4,10.3,1.5,-53.2,-1.6,-10.700000000000001
1698924620715.0,16,0.0,0.4,0.6000000000000001,0.2,9.9,1.6,-55.7,0.8,-6.9
1698924620732.0,16,-0.1,-0.2,0.4,0.1,9.3,1.6,-54.3,3.1,-2.4000000000000004
1698924620748.0,16,-0.4,-0.7000000000000001,0.2,-0.1,8.8,1.6,-54.3,3.5,-2.3000000000000003
1698924620765.0,16,-0.4,-0.8,0.30000000000000004,-0.2,8.700000000000001,1.8,-54.3,2.4000000000000004,-3.5
1698924620782.0,16,-0.30000000000000004,-0.8,0.30000000000000004,-0.1,8.700000000000001,2.0,-52.900000000000006,-1.8,-7.2
1698924620798.0,16,-0.2,-0.6000000000000001,0.30000000000000004,0.0,8.8,2.1,-52.6,-4.0,-9.200000000000001
1698924620815.0,16,0.2,-0.5,0.2,0.30000000000000004,8.8,2.1,-55.1,-5.300000000000001,-12.4
1698924620832.0,16,0.5,-1.0,-0.2,0.6000000000000001,8.4,2.0,-62.0,-3.2,-15.399999999999999
1698924620849.0,16,0.6000000000000001,-1.2000000000000002,-0.30000000000000004,0.7000000000000001,8.1,2.0,-67.5,-0.6000000000000001,-16.900000000000002
1698924620865.0,16,0.7000000000000001,-1.6,-0.5,0.7000000000000001,7.6000000000000005,2.0,-78.3,4.6000000000000005,-19.0
1698924620882.0,16,0.7000000000000001,-1.6,-0.7000000000000001,0.7000000000000001,7.5,2.1,-86.4,5.7,-17.7
1698924620898.0,16,0.5,-1.1,-0.6000000000000001,0.4,7.9,2.4000000000000004,-85.7,5.9,-11.8
1698924620916.0,16,0.30000000000000004,-0.9,-1.4000000000000001,0.30000000000000004,8.1,2.3000000000000003,-82.7,6.7,-7.1000000000000005
1698924620933.0,16,0.2,-1.3,-2.0,0.1,7.6000000000000005,1.4000000000000001,-80.30000000000001,7.300000000000001,-0.4
1698924620949.0,16,0.0,-2.1,-1.4000000000000001,-0.1,6.6000000000000005,2.3000000000000003,-82.60000000000001,8.9,0.1
1698924620965.0,16,0.0,-2.3000000000000003,-1.0,-0.1,6.4,2.7,-78.2,12.3,-1.3
1698924620982.0,16,-0.1,-2.2,-1.1,-0.30000000000000004,6.4,2.8000000000000003,-64.0,15.9,-6.9
1698924620998.0,16,0.2,-1.9000000000000001,-1.0,0.0,6.6000000000000005,3.1,-51.7,10.9,-11.3
1698924621015.0,16,0.4,-1.5,-1.4000000000000001,0.2,6.9,2.8000000000000003,-42.7,-0.2,-11.6
1698924621034.0,16,0.30000000000000004,-1.6,-1.5,0.1,6.800000000000001,2.7,-42.6,-6.5,-7.1000000000000005
1698924621049.0,16,-0.30000000000000004,-2.4000000000000004,-1.6,-0.5,5.9,2.8000000000000003,-50.1,-14.100000000000001,9.4
1698924621066.0,16,-0.6000000000000001,-2.6,-1.2000000000000002,-0.7000000000000001,5.7,3.2,-55.300000000000004,-11.2,17.200000000000003
1698924621082.0,16,-0.7000000000000001,-2.4000000000000004,-1.1,-0.8,5.800000000000001,3.5,-58.7,-1.6,18.2
1698924621098.0,16,-0.5,-2.0,-1.2000000000000002,-0.6000000000000001,6.0,3.5,-57.6,2.6,1.5000000000000002
1698924621115.0,16,0.0,-1.5,-0.7000000000000001,-0.2,6.4,4.2,-51.6,6.6000000000000005,-16.8
1698924621132.0,16,0.30000000000000004,-1.2000000000000002,-0.7000000000000001,0.2,6.6000000000000005,4.2,-46.5,6.000000000000001,-22.1
1698924621149.0,16,0.8,-1.1,-0.7000000000000001,0.6000000000000001,6.7,4.3,-38.5,5.6,-22.7
1698924621165.0,16,1.0,-1.1,-0.7000000000000001,0.7000000000000001,6.6000000000000005,4.4,-36.800000000000004,2.3000000000000003,-18.2
1698924621182.0,16,0.9,-1.4000000000000001,-0.9,0.6000000000000001,6.300000000000001,4.4,-39.400000000000006,-1.0,-4.1000000000000005
1698924621199.0,16,0.5,-1.6,-0.9,0.2,6.0,4.4,-47.400000000000006,4.0,6.3
1698924621216.0,16,0.0,-1.4000000000000001,-0.5,-0.30000000000000004,6.1000000000000005,4.9,-52.0,5.2,5.2
1698924621232.0,16,-0.30000000000000004,-1.1,-0.1,-0.6000000000000001,6.300000000000001,5.4,-48.800000000000004,5.300000000000001,3.7000000000000006
1698924621249.0,16,-0.6000000000000001,-0.5,0.30000000000000004,-0.8,6.9,5.9,-34.7,-0.4,1.4
1698924621265.0,16,-0.9,0.2,0.7000000000000001,-1.1,7.5,6.4,-19.400000000000002,-2.0,-0.30000000000000004
1698924621281.0,16,-0.9,0.5,0.8,-0.9,8.1,6.4,-10.9,-0.4,-2.5
1698924621298.0,16,-0.30000000000000004,1.0,0.5,-0.6000000000000001,8.3,6.300000000000001,-10.8,0.6000000000000001,-5.7
1698924621315.0,16,0.0,1.0,0.4,-0.30000000000000004,8.3,6.2,-12.4,2.6,-10.1
1698924621331.0,16,0.1,0.7000000000000001,1.1,-0.2,7.9,6.9,-12.200000000000001,10.3,-16.2
1698924621348.0,16,0.2,0.7000000000000001,1.5,-0.2,8.0,7.300000000000001,-1.0,12.100000000000001,-16.3
1698924621365.0,16,0.1,0.8,1.6,-0.4,8.0,7.4,3.9,9.200000000000001,-15.7
1698924621381.0,16,-0.2,0.7000000000000001,1.6,-0.7000000000000001,8.0,7.4,10.600000000000001,6.2,-13.4
1698924621398.0,16,-0.30000000000000004,0.5,1.9000000000000001,-0.9,7.800000000000001,7.7,18.0,5.2,-12.200000000000001
1698924621415.0,16,-0.2,0.5,1.7000000000000002,-0.8,7.800000000000001,7.5,23.5,4.3999999999999995,-11.6
1698924621431.0,16,-0.2,0.4,1.6,-0.8,7.800000000000001,7.300000000000001,32.300000000000004,2.1,-12.100000000000001
1698924621451.0,16,0.0,0.0,1.4000000000000001,-0.6000000000000001,7.4,7.0,40.4,4.300000000000001,-12.3
1698924621465.0,16,0.2,-0.6000000000000001,1.3,-0.4,7.0,6.800000000000001,51.300000000000004,6.3,-12.700000000000001
1698924621481.0,16,0.2,-0.6000000000000001,1.5,-0.4,6.9,6.800000000000001,57.1,4.7,-12.6
1698924621498.0,16,0.0,-0.1,1.7000000000000002,-0.7000000000000001,7.6000000000000005,6.9,68.4,2.9,-10.700000000000001
1698924621515.0,16,-0.30000000000000004,1.7000000000000002,1.9000000000000001,-1.1,9.600000000000001,7.0,78.2,-0.1,-9.1
1698924621532.0,16,-0.4,3.5,2.0,-1.2000000000000002,11.5,6.9,81.2,-2.4000000000000004,-9.3
1698924621548.0,16,-0.4,3.5,2.0,-1.2000000000000002,11.600000000000001,6.7,84.7,-0.1,-6.000000000000001
1698924621565.0,16,-0.8,3.3000000000000003,2.1,-1.6,11.600000000000001,6.6000000000000005,88.4,2.6,0.5
1698924621583.0,16,-0.8,3.5,1.9000000000000001,-1.6,11.9,6.300000000000001,91.4,-0.2,3.6
1698924621598.0,16,-0.2,3.6,-0.1,-1.0,12.100000000000001,4.0,87.7,-9.200000000000001,6.7
1698924621615.0,16,0.30000000000000004,2.5,-0.6000000000000001,-0.5,11.100000000000001,3.3000000000000003,65.8,-7.9,7.2
1698924621632.0,16,0.1,2.1,-1.2000000000000002,-0.6000000000000001,10.8,2.6,56.300000000000004,-6.3,9.200000000000001
1698924621649.0,16,-0.4,1.5,-1.4000000000000001,-1.1,10.200000000000001,2.3000000000000003,37.800000000000004,-4.2,13.5
1698924621665.0,16,-0.4,0.6000000000000001,-1.4000000000000001,-1.0,9.4,2.2,32.7,-7.6,12.000000000000002
1698924621682.0,16,-0.5,0.6000000000000001,-1.6,-1.2000000000000002,9.5,1.9000000000000001,33.6,-11.700000000000001,6.8
1698924621699.0,16,-0.5,0.7000000000000001,-1.5,-1.1,9.600000000000001,1.9000000000000001,34.50000000000001,-9.9,5.0
1698924621715.0,16,-0.30000000000000004,0.7000000000000001,-1.8,-0.9,9.600000000000001,1.5,37.2,-6.7,3.2
1698924621733.0,16,-0.30000000000000004,0.7000000000000001,-1.6,-0.9,9.600000000000001,1.7000000000000002,38.300000000000004,-9.0,3.3000000000000003
1698924621749.0,16,-0.1,0.9,-1.6,-0.7000000000000001,9.9,1.4000000000000001,41.5,-11.4,4.800000000000001
1698924621765.0,16,0.0,1.3,-1.1,-0.5,10.3,1.8,43.6,-10.700000000000001,6.1000000000000005
1698924621782.0,16,0.1,1.5,-1.3,-0.4,10.600000000000001,1.6,44.8,-8.1,7.2
1698924621799.0,16,0.30000000000000004,1.7000000000000002,-1.5,-0.2,10.8,1.2000000000000002,39.699999999999996,-5.2,8.3
1698924621815.0,16,0.4,1.6,-1.4000000000000001,-0.1,10.8,1.2000000000000002,29.000000000000004,-0.9,7.1000000000000005
1698924621832.0,16,0.4,1.6,-1.4000000000000001,0.0,10.8,1.2000000000000002,23.900000000000002,0.7,7.2
1698924621849.0,16,0.6000000000000001,1.7000000000000002,-1.1,0.2,10.9,1.4000000000000001,15.6,4.6000000000000005,8.3
1698924621865.0,16,0.8,1.3,-1.1,0.5,10.600000000000001,1.4000000000000001,10.8,8.0,6.2
1698924621881.0,16,0.8,0.9,-1.5,0.4,10.200000000000001,0.9,4.7,11.5,3.6
1698924621898.0,16,0.7000000000000001,0.8,-1.4000000000000001,0.30000000000000004,10.100000000000001,1.0,-0.5,11.6,3.4
1698924621915.0,16,0.4,0.9,-1.3,0.1,10.200000000000001,1.1,-5.9,12.3,6.6000000000000005
1698924621932.0,16,0.1,1.2000000000000002,-0.8,-0.2,10.5,1.6,-8.1,8.1,9.5
1698924621949.0,16,-0.1,1.3,-0.8,-0.4,10.600000000000001,1.6,-6.7,7.699999999999999,9.5
1698924621965.0,16,-0.1,1.3,-1.1,-0.4,10.600000000000001,1.4000000000000001,-7.699999999999999,2.7,5.500000000000001
1698924621984.0,16,0.1,1.3,-0.9,-0.2,10.600000000000001,1.6,-13.8,0.30000000000000004,0.7
1698924621998.0,16,0.1,1.4000000000000001,-0.8,-0.2,10.700000000000001,1.7000000000000002,-16.900000000000002,0.5,-0.2
1698924622015.0,16,0.1,1.6,-0.9,-0.2,10.9,1.6,-24.9,-0.30000000000000004,-1.0999999999999999
1698924622031.0,16,0.0,1.6,-0.9,-0.30000000000000004,10.9,1.8,-34.7,-0.9,-2.7
1698924622049.0,16,0.0,1.5,-1.1,-0.30000000000000004,10.700000000000001,1.7000000000000002,-40.7,-1.5000000000000002,-3.9
1698924622065.0,16,0.0,1.5,-1.2000000000000002,-0.30000000000000004,10.700000000000001,1.7000000000000002,-56.6,-2.4000000000000004,-7.400000000000001
1698924622082.0,16,0.0,1.6,-1.3,-0.4,10.8,1.7000000000000002,-64.8,-3.9,-9.4
1698924622098.0,16,0.1,1.5,-1.5,-0.30000000000000004,10.600000000000001,1.7000000000000002,-81.8,-9.9,-12.100000000000001
1698924622115.0,16,0.2,1.4000000000000001,-1.9000000000000001,-0.2,10.5,1.6,-98.4,-8.4,-11.9
1698924622132.0,16,0.1,1.7000000000000002,-2.2,-0.2,10.600000000000001,1.2000000000000002,-107.6,-6.8,-10.4
1698924622148.0,16,0.2,1.9000000000000001,-2.3000000000000003,-0.2,10.8,1.7000000000000002,-121.70000000000002,2.8,-7.500000000000001
1698924622165.0,16,0.1,2.2,-2.9000000000000004,-0.4,10.9,1.4000000000000001,-127.2,5.7,-7.500000000000001
1698924622184.0,16,0.1,2.1,-2.5,-0.4,10.700000000000001,2.0,-127.60000000000001,8.200000000000001,-7.1000000000000005
1698924622198.0,16,0.30000000000000004,2.1,-1.7000000000000002,-0.30000000000000004,10.4,3.3000000000000003,-117.20000000000002,15.5,-5.7
1698924622215.0,16,0.4,2.5,-1.4000000000000001,-0.2,10.700000000000001,3.7,-89.30000000000001,15.6,-7.2
1698924622232.0,16,1.0,3.0,0.8,0.4,11.100000000000001,6.1000000000000005,-55.300000000000004,22.2,-11.8
1698924622249.0,16,1.3,2.9000000000000004,1.0,0.6000000000000001,11.100000000000001,6.4,-36.5,24.9,-13.6
1698924622267.0,16,1.4000000000000001,1.6,1.7000000000000002,0.7000000000000001,9.700000000000001,7.1000000000000005,-16.1,19.700000000000003,-8.0
1698924622281.0,16,-0.2,-0.30000000000000004,3.2,-1.0,7.800000000000001,8.700000000000001,-44.5,20.900000000000002,4.1000000000000005
1698924622298.0,16,-0.9,-0.6000000000000001,3.0,-1.7000000000000002,7.4,8.700000000000001,-69.80000000000001,25.3,1.0
1698924622315.0,16,-1.0,-1.7000000000000002,1.9000000000000001,-1.8,6.1000000000000005,7.800000000000001,-100.30000000000001,18.400000000000002,-13.200000000000001
1698924622332.0,16,-0.4,-2.7,0.5,-1.4000000000000001,4.9,6.7,-87.4,18.6,-6.1000000000000005
1698924622348.0,16,-0.2,-3.0,0.30000000000000004,-1.2000000000000002,4.4,6.6000000000000005,-54.3,10.2,6.1000000000000005
1698924622365.0,16,0.0,-2.6,0.4,-0.9,4.800000000000001,6.7,-33.800000000000004,5.6,7.699999999999999
1698924622382.0,16,0.30000000000000004,-1.6,0.7000000000000001,-0.6000000000000001,5.7,7.1000000000000005,1.4,3.1,4.5
1698924622398.0,16,0.7000000000000001,-0.9,1.4000000000000001,-0.2,6.5,7.800000000000001,21.900000000000002,2.7,9.0
1698924622415.0,16,0.6000000000000001,-0.6000000000000001,1.8,-0.30000000000000004,6.800000000000001,8.1,24.8,2.6,13.0
1698924622431.0,16,0.1,-0.6000000000000001,2.0,-0.8,6.800000000000001,8.3,13.3,5.9,15.299999999999999
1698924622448.0,16,-0.30000000000000004,-0.30000000000000004,1.7000000000000002,-1.2000000000000002,7.1000000000000005,8.0,1.0,9.3,11.1
1698924622465.0,16,-0.5,-0.30000000000000004,1.6,-1.3,7.2,7.9,1.8,10.3,10.2
1698924622482.0,16,-0.5,-0.1,1.4000000000000001,-1.3,7.4,7.7,15.2,9.8,9.700000000000001
1698924622498.0,16,-0.5,-0.1,1.9000000000000001,-1.4000000000000001,7.4,8.1,29.600000000000005,7.400000000000001,9.200000000000001
1698924622515.0,16,-0.6000000000000001,-0.2,1.9000000000000001,-1.5,7.4,8.1,33.300000000000004,5.7,9.4
1698924622532.0,16,-0.6000000000000001,-0.2,2.0,-1.5,7.5,8.1,32.300000000000004,4.3999999999999995,8.799999999999999
1698924622548.0,16,-0.30000000000000004,-0.2,1.7000000000000002,-1.1,7.5,7.800000000000001,29.600000000000005,4.0,6.3
1698924622565.0,16,-0.1,-0.1,1.2000000000000002,-1.0,7.6000000000000005,7.2,31.3,2.1,4.9
1698924622582.0,16,-0.2,0.0,1.1,-1.0,7.800000000000001,7.0,37.2,0.5,4.2
1698924622598.0,16,-0.2,0.1,1.1,-1.0,8.0,7.0,47.7,2.9,5.500000000000001
1698924622616.0,16,-0.1,0.1,1.2000000000000002,-0.9,8.0,6.9,51.6,3.1,5.4
1698924622632.0,16,0.1,-0.1,0.9,-0.7000000000000001,7.9,6.5,54.0,4.6000000000000005,4.6000000000000005
1698924622649.0,16,0.0,-0.30000000000000004,0.8,-0.8,7.800000000000001,6.4,54.0,5.1,4.800000000000001
1698924622665.0,16,-0.2,-0.30000000000000004,0.4,-1.0,7.9,5.800000000000001,57.3,4.9,6.5
1698924622681.0,16,-0.2,-0.2,0.2,-1.0,8.200000000000001,5.4,62.50000000000001,3.1,7.699999999999999
1698924622698.0,16,-0.2,-0.1,0.2,-1.0,8.3,5.300000000000001,65.0,2.3000000000000003,8.200000000000001
1698924622716.0,16,-0.2,0.0,0.2,-1.0,8.5,5.1000000000000005,69.10000000000001,1.8,9.4
1698924622732.0,16,-0.2,-0.4,0.0,-0.9,8.200000000000001,4.7,68.2,-1.0,10.5
1698924622749.0,16,-0.2,-0.6000000000000001,-0.1,-0.9,8.1,4.5,66.80000000000001,-1.6,11.000000000000002
1698924622766.0,16,-0.4,-0.7000000000000001,0.1,-1.0,8.1,4.5,67.4,-0.9,12.5
1698924622782.0,16,-0.30000000000000004,-0.8,-0.5,-1.0,8.1,3.7,70.7,-5.1,13.6
1698924622799.0,16,-0.4,-0.9,-0.4,-1.0,8.1,3.6,70.6,-6.2,13.6
1698924622816.0,16,-0.30000000000000004,-1.0,-0.7000000000000001,-0.9,8.0,3.2,72.9,-3.7000000000000006,13.9
1698924622832.0,16,-0.2,-1.3,-1.0,-0.7000000000000001,7.800000000000001,2.7,70.7,-6.3,12.8
1698924622849.0,16,-0.2,-1.6,-1.2000000000000002,-0.7000000000000001,7.6000000000000005,2.3000000000000003,69.00000000000001,-5.1,12.6
1698924622865.0,16,-0.1,-2.1,-1.5,-0.5,7.1000000000000005,1.8,61.7,-3.5,12.8
1698924622882.0,16,-0.1,-2.7,-1.1,-0.5,6.5,1.9000000000000001,56.6,2.7,14.0
1698924622899.0,16,0.0,-3.0,-1.3,-0.4,6.2,1.7000000000000002,56.6,4.800000000000001,14.600000000000001
1698924622915.0,16,0.0,-3.7,-1.3,-0.30000000000000004,5.6000000000000005,1.5,57.9,1.9,14.200000000000001
1698924622932.0,16,0.0,-4.5,-1.3,-0.30000000000000004,4.800000000000001,1.3,59.9,-1.9,13.9
1698924622949.0,16,-0.1,-4.9,-1.3,-0.30000000000000004,4.5,1.2000000000000002,60.8,-3.5,13.9
1698924622965.0,16,-0.2,-5.4,-1.1,-0.4,4.0,1.1,61.300000000000004,-5.6,15.2
1698924622981.0,16,-0.30000000000000004,-5.6000000000000005,-0.7000000000000001,-0.5,3.7,1.3,62.8,-5.9,18.1
1698924622998.0,16,-0.2,-5.5,-0.2,-0.30000000000000004,3.8000000000000003,1.6,68.3,-11.4,21.200000000000003
1698924623015.0,16,-0.5,-4.9,0.2,-0.4,4.0,1.7000000000000002,72.5,-16.1,22.8
1698924623032.0,16,-0.7000000000000001,-4.4,0.7000000000000001,-0.6000000000000001,4.9,2.2,79.10000000000001,-20.6,26.8
1698924623048.0,16,-0.9,-2.6,1.8,-0.7000000000000001,6.800000000000001,3.0,85.1,-17.9,30.100000000000005
1698924623066.0,16,-0.7000000000000001,0.0,2.2,-0.4,9.4,3.2,85.9,-15.9,29.900000000000006
1698924623082.0,16,-0.2,1.5,2.2,0.1,10.9,3.1,74.2,-14.200000000000001,24.7
1698924623098.0,16,1.0,3.7,1.7000000000000002,1.4000000000000001,13.200000000000001,2.4000000000000004,44.00000000000001,-12.200000000000001,9.9
1698924623116.0,16,1.5,4.1000000000000005,1.4000000000000001,1.9000000000000001,13.5,2.1,30.299999999999997,-11.8,0.1
1698924623132.0,16,1.4000000000000001,3.3000000000000003,0.7000000000000001,1.7000000000000002,12.8,1.3,8.600000000000001,-6.3,-12.200000000000001
1698924623151.0,16,0.30000000000000004,2.3000000000000003,0.8,0.6000000000000001,11.8,1.4000000000000001,-6.1000000000000005,-0.1,-1.4
1698924623165.0,16,-0.2,1.9000000000000001,1.0,0.1,11.4,1.6,-7.6,2.4000000000000004,9.3
1698924623181.0,16,-0.7000000000000001,1.2000000000000002,0.6000000000000001,-0.30000000000000004,10.8,1.3,-1.5000000000000002,-3.4,22.7
1698924623198.0,16,-1.0,1.0,0.5,-0.6000000000000001,10.5,1.1,1.0,-10.9,24.1
1698924623215.0,16,-1.0,0.0,0.6000000000000001,-0.6000000000000001,9.8,1.1,2.9,-14.0,16.3
1698924623232.0,16,-0.7000000000000001,-0.2,0.7000000000000001,-0.2,9.3,1.4000000000000001,4.6000000000000005,-4.300000000000001,-3.9
1698924623249.0,16,-0.1,-0.4,0.7000000000000001,0.4,9.1,1.3,9.3,-4.1000000000000005,-21.8
1698924623265.0,16,0.30000000000000004,-0.30000000000000004,1.0,0.5,9.1,1.5,10.8,-5.4,-23.700000000000003
1698924623281.0,16,0.2,0.0,1.2000000000000002,0.5,9.5,1.7000000000000002,14.100000000000001,-1.2000000000000002,-19.0
1698924623298.0,16,-0.1,0.5,1.2000000000000002,0.2,10.0,1.7000000000000002,15.399999999999999,-4.300000000000001,-4.6000000000000005
1698924623315.0,16,-0.30000000000000004,0.9,1.2000000000000002,0.0,10.4,1.7000000000000002,13.5,-6.4,2.8
1698924623331.0,16,-0.30000000000000004,1.0,1.1,0.0,10.5,1.6,4.5,-6.8,8.200000000000001
1698924623348.0,16,-0.30000000000000004,1.1,0.7000000000000001,0.0,10.700000000000001,1.3,-11.4,-11.3,3.9
1698924623365.0,16,-0.4,1.2000000000000002,0.6000000000000001,0.0,10.8,1.2000000000000002,-32.300000000000004,-12.8,-4.3999999999999995
1698924623382.0,16,-0.30000000000000004,1.0,0.6000000000000001,0.0,10.600000000000001,1.3,-41.7,-13.5,-7.500000000000001
1698924623398.0,16,-0.2,0.30000000000000004,0.5,0.1,9.8,1.4000000000000001,-55.4,-12.3,-10.0
1698924623415.0,16,0.0,-0.30000000000000004,0.2,0.2,9.200000000000001,1.3,-64.0,-7.0,-9.9
1698924623432.0,16,0.0,-0.4,0.0,0.2,9.1,1.2000000000000002,-67.5,-4.5,-10.1
1698924623448.0,16,0.2,-0.5,0.0,0.4,9.0,1.4000000000000001,-70.9,-1.0999999999999999,-10.4
1698924623465.0,16,0.30000000000000004,-0.5,0.0,0.4,8.9,1.6,-67.2,-0.4,-9.5
1698924623482.0,16,0.2,-0.6000000000000001,-0.1,0.4,8.9,1.7000000000000002,-63.6,-1.3,-7.699999999999999
1698924623498.0,16,0.2,-0.7000000000000001,-0.2,0.30000000000000004,8.700000000000001,1.8,-55.800000000000004,-2.0,-3.8
1698924623515.0,16,0.0,-0.8,-0.2,0.2,8.5,1.9000000000000001,-50.1,-0.30000000000000004,-4.3999999999999995
1698924623532.0,16,0.0,-0.8,-0.2,0.1,8.5,2.0,-47.900000000000006,-0.1,-6.000000000000001
1698924623548.0,16,-0.1,-0.9,-0.2,0.0,8.4,2.1,-46.0,2.3000000000000003,-9.4
1698924623565.0,16,0.1,-0.8,-0.30000000000000004,0.1,8.4,2.1,-46.900000000000006,5.2,-11.3
1698924623582.0,16,0.2,-0.8,-0.6000000000000001,0.2,8.4,2.0,-49.1,5.2,-11.9
1698924623598.0,16,0.30000000000000004,-0.9,-0.7000000000000001,0.30000000000000004,8.200000000000001,2.0,-57.6,3.5,-10.2
1698924623615.0,16,0.30000000000000004,-1.4000000000000001,-0.8,0.2,7.7,2.1,-66.5,1.2000000000000002,-4.9
1698924623632.0,16,0.1,-1.6,-0.7000000000000001,0.0,7.4,2.4000000000000004,-71.30000000000001,4.300000000000001,-3.0000000000000004
1698924623649.0,16,-0.1,-1.7000000000000002,-0.9,-0.1,7.300000000000001,2.3000000000000003,-72.0,6.7,-4.800000000000001
1698924623665.0,16,-0.1,-1.8,-1.0,-0.2,7.1000000000000005,2.3000000000000003,-72.30000000000001,9.1,-7.8
1698924623681.0,16,0.0,-2.1,-1.1,-0.1,6.7,2.5,-70.2,9.5,-14.100000000000001
1698924623698.0,16,0.2,-2.1,-1.1,0.0,6.6000000000000005,2.7,-64.0,3.3000000000000003,-14.700000000000001
1698924623715.0,16,0.2,-1.9000000000000001,-1.1,0.1,6.7,2.8000000000000003,-55.800000000000004,0.2,-9.700000000000001
1698924623732.0,16,0.2,-1.7000000000000002,-1.0,0.0,6.9,3.0,-51.5,-0.9,-5.9
1698924623749.0,16,0.0,-1.4000000000000001,-0.9,-0.2,7.1000000000000005,3.2,-44.3,4.300000000000001,-1.7
1698924623765.0,16,-0.2,-1.3,-1.2000000000000002,-0.4,7.1000000000000005,3.1,-42.400000000000006,8.600000000000001,-2.5
1698924623781.0,16,-0.1,-1.5,-0.8,-0.4,6.800000000000001,3.5,-45.7,4.7,-4.7
1698924623798.0,16,-0.2,-1.5,-0.6000000000000001,-0.5,6.7,3.8000000000000003,-46.800000000000004,6.4,-5.7
1698924623815.0,16,-0.2,-1.2000000000000002,-0.4,-0.5,7.0,4.1000000000000005,-46.5,9.3,-8.700000000000001
1698924623832.0,16,-0.2,-1.1,-0.6000000000000001,-0.5,7.0,4.0,-45.6,8.1,-10.700000000000001
1698924623849.0,16,-0.1,-1.0,-0.30000000000000004,-0.5,7.0,4.4,-45.7,3.5,-11.4
1698924623865.0,16,0.0,-0.7000000000000001,-0.30000000000000004,-0.4,7.2,4.6000000000000005,-42.7,1.6,-7.8
1698924623882.0,16,0.0,-0.7000000000000001,-0.7000000000000001,-0.4,7.2,4.4,-42.1,1.5000000000000002,-5.7
1698924623899.0,16,0.0,-0.8,-0.8,-0.4,7.1000000000000005,4.2,-43.800000000000004,0.1,-1.9
1698924623915.0,16,0.0,-1.0,-0.6000000000000001,-0.4,6.800000000000001,4.5,-45.1,3.6,-2.0
1698924623931.0,16,0.0,-1.0,-0.5,-0.5,6.7,4.800000000000001,-41.7,6.7,-5.500000000000001
1698924623948.0,16,0.0,-0.9,-0.4,-0.5,6.7,4.9,-38.5,4.9,-7.6
1698924623965.0,16,0.0,-0.8,-0.30000000000000004,-0.5,6.7,5.1000000000000005,-34.0,-2.9,-9.8
1698924623981.0,16,-0.1,-0.7000000000000001,-0.1,-0.6000000000000001,6.800000000000001,5.4,-32.4,-5.1,-8.600000000000001
1698924623998.0,16,-0.4,-0.5,0.1,-0.9,7.0,5.6000000000000005,-30.000000000000004,-6.7,-2.8
1698924624015.0,16,-0.4,-0.4,0.1,-0.9,7.0,5.7,-31.0,-9.600000000000001,1.0999999999999999
1698924624031.0,16,-0.5,-0.30000000000000004,0.30000000000000004,-1.0,7.0,6.0,-29.800000000000004,-9.5,1.6
1698924624049.0,16,-0.5,-0.2,0.4,-0.9,7.1000000000000005,6.1000000000000005,-24.000000000000004,-10.4,0.0
1698924624065.0,16,-0.30000000000000004,0.1,0.4,-0.8,7.4,6.1000000000000005,-16.1,-4.5,-5.0
1698924624081.0,16,-0.2,0.1,0.8,-0.6000000000000001,7.4,6.6000000000000005,-11.9,-2.0,-8.4
1698924624099.0,16,0.30000000000000004,0.30000000000000004,1.1,-0.2,7.6000000000000005,6.9,-0.4,0.9,-12.4
1698924624115.0,16,0.4,0.2,1.5,-0.1,7.5,7.300000000000001,7.400000000000001,2.6,-12.200000000000001
1698924624132.0,16,0.0,-0.1,1.6,-0.5,7.2,7.300000000000001,9.3,3.1,-11.4
1698924624148.0,16,-0.1,0.0,1.5,-0.6000000000000001,7.300000000000001,7.300000000000001,13.700000000000001,2.0,-8.5
1698924624166.0,16,0.1,0.1,1.7000000000000002,-0.5,7.4,7.4,17.9,2.7,-9.1
1698924624181.0,16,0.2,0.2,1.5,-0.5,7.5,7.2,23.2,3.8,-10.2
1698924624198.0,16,0.30000000000000004,-0.1,1.4000000000000001,-0.30000000000000004,7.300000000000001,7.0,33.900000000000006,6.2,-11.1
1698924624215.0,16,0.2,-0.7000000000000001,1.4000000000000001,-0.5,6.800000000000001,7.0,46.7,5.8,-9.1
1698924624231.0,16,-0.1,-0.5,1.8,-0.8,7.1000000000000005,7.2,61.50000000000001,4.1000000000000005,-5.500000000000001
1698924624248.0,16,-0.30000000000000004,-0.2,1.9000000000000001,-1.0,7.5,7.2,69.00000000000001,4.5,-4.6000000000000005
1698924624265.0,16,-0.5,1.0,1.8,-1.2000000000000002,8.8,6.9,79.5,4.1000000000000005,-5.7
1698924624281.0,16,-0.30000000000000004,2.5,2.0,-1.1,10.5,6.9,88.5,3.2,-3.1
1698924624299.0,16,-0.4,2.8000000000000003,1.9000000000000001,-1.2000000000000002,10.8,6.7,93.2,4.6000000000000005,1.7
1698924624315.0,16,-0.7000000000000001,3.0,2.3000000000000003,-1.5,11.3,6.800000000000001,100.60000000000001,9.5,10.2
1698924624332.0,16,-0.5,3.4000000000000004,1.4000000000000001,-1.2000000000000002,11.8,5.7,102.7,1.3,14.4
1698924624348.0,16,0.1,3.4000000000000004,0.5,-0.6000000000000001,12.0,4.4,97.60000000000001,-2.7,14.500000000000002
1698924624365.0,16,0.0,2.8000000000000003,-0.30000000000000004,-0.7000000000000001,11.5,3.5,79.8,-2.8,10.0
1698924624382.0,16,0.1,2.0,-1.0,-0.6000000000000001,10.700000000000001,2.7,67.4,-0.1,9.1
1698924624399.0,16,0.0,0.8,-1.4000000000000001,-0.6000000000000001,9.600000000000001,2.2,45.1,-0.30000000000000004,8.799999999999999
1698924624415.0,16,-0.30000000000000004,0.9,-1.1,-0.9,9.700000000000001,2.4000000000000004,35.4,0.2,11.4
1698924624432.0,16,-0.2,1.1,-0.9,-0.8,10.0,2.5,44.8,-5.300000000000001,9.9
1698924624448.0,16,-0.30000000000000004,0.7000000000000001,-1.5,-0.9,9.9,2.0,52.1,-10.600000000000001,8.0
1698924624465.0,16,-0.2,0.4,-1.4000000000000001,-0.7000000000000001,9.4,1.6,57.800000000000004,-16.2,6.7
1698924624481.0,16,0.1,0.2,-2.2,-0.4,9.200000000000001,0.7000000000000001,55.6,-17.200000000000003,2.6
1698924624498.0,16,0.2,0.2,-2.0,-0.30000000000000004,9.3,0.8,49.5,-18.7,0.9
1698924624515.0,16,0.5,0.8,-1.5,0.0,10.0,1.1,42.1,-13.100000000000001,2.7
1698924624532.0,16,0.6000000000000001,1.7000000000000002,-1.3,0.2,10.9,1.2000000000000002,39.9,-14.500000000000002,7.699999999999999
1698924624549.0,16,0.6000000000000001,2.1,-1.6,0.2,11.200000000000001,1.0,39.6,-14.500000000000002,9.4
1698924624565.0,16,0.6000000000000001,2.0,-1.7000000000000002,0.2,11.3,0.6000000000000001,34.6,-13.5,8.9
1698924624582.0,16,0.6000000000000001,1.7000000000000002,-1.6,0.30000000000000004,11.0,0.6000000000000001,28.3,-3.3000000000000003,5.300000000000001
1698924624598.0,16,0.6000000000000001,1.3,-2.0,0.30000000000000004,10.600000000000001,0.1,18.2,2.6,2.1999999999999997
1698924624615.0,16,0.6000000000000001,1.2000000000000002,-1.9000000000000001,0.30000000000000004,10.5,0.2,12.000000000000002,4.5,2.5
1698924624631.0,16,0.6000000000000001,1.3,-1.5,0.30000000000000004,10.700000000000001,0.6000000000000001,5.300000000000001,9.0,6.2
1698924624648.0,16,0.4,1.3,-1.4000000000000001,0.2,10.700000000000001,0.6000000000000001,5.4,9.3,9.8
1698924624665.0,16,0.30000000000000004,1.1,-1.4000000000000001,0.1,10.5,0.5,5.500000000000001,8.799999999999999,10.700000000000001
1698924624682.0,16,0.2,0.8,-1.4000000000000001,-0.1,10.200000000000001,0.6000000000000001,5.7,7.2,9.700000000000001
1698924624698.0,16,0.0,1.0,-1.2000000000000002,-0.2,10.4,0.7000000000000001,6.000000000000001,6.3,6.7
1698924624715.0,16,0.0,1.2000000000000002,-0.9,-0.2,10.600000000000001,1.0,6.8,7.1000000000000005,5.4
1698924624732.0,16,0.0,1.5,-1.0,-0.1,11.0,0.9,9.700000000000001,7.0,3.9
1698924624748.0,16,0.1,1.3,-0.9,-0.1,10.8,1.0,8.3,5.6,3.4
1698924624765.0,16,0.1,1.2000000000000002,-1.0,-0.1,10.600000000000001,0.9,5.7,5.2,2.7
1698924624782.0,16,0.0,1.1,-0.8,-0.2,10.5,1.0,-4.1000000000000005,2.5,1.3
1698924624799.0,16,-0.2,1.2000000000000002,-1.0,-0.4,10.600000000000001,0.8,-17.0,-5.6,-0.6000000000000001
1698924624815.0,16,-0.30000000000000004,1.3,-0.8,-0.4,10.8,1.0,-25.3,-11.3,-1.9
1698924624832.0,16,-0.2,1.5,-1.0,-0.4,11.0,1.1,-40.5,-12.8,-6.3
1698924624849.0,16,-0.2,1.6,-1.2000000000000002,-0.4,11.100000000000001,0.9,-50.1,-12.4,-9.1
1698924624867.0,16,0.30000000000000004,1.6,-1.3,0.1,11.0,1.1,-77.0,-17.3,-13.6
1698924624881.0,16,0.4,1.3,-1.9000000000000001,0.1,10.700000000000001,0.7000000000000001,-85.80000000000001,-17.5,-13.3
1698924624898.0,16,0.4,1.3,-2.0,0.1,10.5,0.9,-108.10000000000001,-21.0,-10.2
1698924624915.0,16,0.30000000000000004,1.4000000000000001,-1.8,0.0,10.600000000000001,1.2000000000000002,-115.60000000000001,-13.4,-8.3
1698924624931.0,16,-0.1,1.6,-2.7,-0.4,10.700000000000001,0.7000000000000001,-128.4,-2.8,-4.9
1698924624949.0,16,0.2,1.4000000000000001,-2.3000000000000003,0.0,10.3,1.5,-131.7,-0.4,-5.2
1698924624965.0,16,0.2,1.4000000000000001,-2.6,-0.1,10.3,1.4000000000000001,-124.0,1.0999999999999999,-10.1
1698924624982.0,16,0.4,2.2,-2.4000000000000004,0.1,10.9,2.0,-116.10000000000001,4.2,-11.5
1698924624999.0,16,0.5,2.4000000000000004,-1.5,0.1,11.0,3.0,-105.5,7.0,-12.3
1698924625016.0,16,0.8,2.7,-0.5,0.30000000000000004,11.200000000000001,4.2,-79.7,17.599999999999998,-12.100000000000001
1698924625032.0,16,1.2000000000000002,2.8000000000000003,0.8,0.7000000000000001,11.3,5.7,-43.1,32.0,-14.0
1698924625049.0,16,1.3,2.1,2.3000000000000003,0.8,10.600000000000001,7.2,-10.1,35.9,-9.600000000000001
1698924625065.0,16,1.1,1.9000000000000001,3.5,0.5,10.3,8.5,-1.2000000000000002,35.0,-3.6
1698924625082.0,16,-0.8,0.5,3.3000000000000003,-1.5,8.9,8.3,-32.1,27.8,10.1
1698924625099.0,16,-1.1,-0.9,2.7,-1.8,7.4,7.800000000000001,-72.10000000000001,28.700000000000003,7.1000000000000005
1698924625115.0,16,-0.6000000000000001,-2.0,1.3,-1.3,6.2,6.7,-99.7,21.0,-3.5
1698924625133.0,16,-0.4,-2.9000000000000004,-0.2,-1.1,5.1000000000000005,5.5,-78.5,23.700000000000003,1.0
1698924625148.0,16,-0.2,-2.7,-0.4,-1.0,5.1000000000000005,5.4,-39.1,9.5,10.0
1698924625164.0,16,0.1,-2.2,0.0,-0.6000000000000001,5.6000000000000005,5.800000000000001,5.6,-0.1,16.400000000000002
1698924625182.0,16,0.4,-1.9000000000000001,0.5,-0.30000000000000004,6.0,6.2,22.900000000000002,-0.6000000000000001,17.5
1698924625198.0,16,0.5,-0.9,1.4000000000000001,-0.1,7.0,7.1000000000000005,33.400000000000006,-3.0000000000000004,12.4
1698924625216.0,16,-0.1,0.30000000000000004,1.8,-0.4,7.7,7.5,25.400000000000002,-0.4,9.4
1698924625232.0,16,-0.30000000000000004,0.7000000000000001,1.5,-0.9,8.6,7.2,-1.4,10.4,5.6
1698924625253.0,16,-0.5,0.30000000000000004,1.0,-1.2000000000000002,8.3,6.7,-6.4,12.100000000000001,4.5
1698924625265.0,16,-0.6000000000000001,-0.1,0.8,-1.3,7.800000000000001,6.5,1.3,8.4,5.500000000000001
1698924625281.0,16,-0.8,-0.7000000000000001,1.2000000000000002,-1.4000000000000001,7.300000000000001,6.800000000000001,23.1,2.8,7.8
1698924625299.0,16,-0.8,-0.6000000000000001,1.5,-1.4000000000000001,7.4,7.1000000000000005,31.6,2.0,8.3
1698924625315.0,16,-0.4,-0.30000000000000004,1.8,-1.0,7.7,7.300000000000001,33.1,2.1,6.1000000000000005
1698924625332.0,16,0.1,0.0,1.6,-0.6000000000000001,8.1,7.1000000000000005,24.200000000000003,2.9,2.9
1698924625348.0,16,0.2,0.4,1.5,-0.5,8.3,7.0,23.400000000000002,3.4,2.5
1698924625365.0,16,0.2,0.4,0.5,-0.4,8.700000000000001,5.9,37.1,0.4,4.3999999999999995
1698924625382.0,16,0.1,0.2,0.7000000000000001,-0.5,8.5,6.0,40.8,-0.6000000000000001,4.2
1698924625399.0,16,-0.1,0.1,0.8,-0.7000000000000001,8.5,6.0,48.9,-2.1999999999999997,5.2
1698924625414.0,16,-0.30000000000000004,0.2,1.3,-0.9,8.700000000000001,6.300000000000001,57.2,-1.2000000000000002,9.0
1698924625431.0,16,-0.4,0.2,0.8,-0.9,8.700000000000001,5.7,61.0,-2.5,10.2
1698924625448.0,16,-0.4,-0.2,0.2,-0.9,8.4,4.9,62.4,-3.9,7.699999999999999
1698924625464.0,16,-0.2,-0.4,-0.2,-0.7000000000000001,8.3,4.3,66.5,-0.7,3.9
1698924625481.0,16,0.0,-0.5,-0.5,-0.5,8.3,3.9000000000000004,69.4,-0.2,2.7
1698924625498.0,16,0.1,-0.4,-0.2,-0.4,8.5,4.0,74.60000000000001,-3.6,1.9
1698924625514.0,16,-0.1,0.0,0.0,-0.5,8.700000000000001,4.0,77.7,-4.1000000000000005,3.0000000000000004
1698924625534.0,16,-0.30000000000000004,0.1,0.1,-0.8,9.1,3.9000000000000004,78.10000000000001,-4.2,8.799999999999999
1698924625548.0,16,-0.30000000000000004,0.1,0.2,-0.7000000000000001,9.200000000000001,3.8000000000000003,71.10000000000001,-4.3999999999999995,14.200000000000001
1698924625565.0,16,-0.4,-0.4,0.2,-0.8,8.8,3.6,64.60000000000001,-4.300000000000001,14.200000000000001
1698924625582.0,16,-0.5,-0.8,0.0,-0.9,8.4,3.3000000000000003,62.4,-4.0,14.0
1698924625598.0,16,-0.4,-1.6,-0.2,-0.7000000000000001,7.7,2.9000000000000004,58.60000000000001,-4.300000000000001,13.5
1698924625615.0,16,-0.2,-2.0,-0.30000000000000004,-0.5,7.300000000000001,2.7,57.5,-4.800000000000001,12.8
1698924625633.0,16,0.0,-2.7,-0.30000000000000004,-0.30000000000000004,6.7,2.5,56.300000000000004,-3.2,11.000000000000002
1698924625648.0,16,0.1,-3.4000000000000004,-0.4,-0.1,6.0,2.2,57.3,-1.5000000000000002,10.4
1698924625665.0,16,0.1,-3.8000000000000003,-0.7000000000000001,0.0,5.6000000000000005,1.7000000000000002,57.400000000000006,-1.0,11.2
1698924625682.0,16,0.1,-4.1000000000000005,-0.6000000000000001,0.0,5.300000000000001,1.6,55.6,-3.1,12.4
1698924625698.0,16,0.1,-4.2,-0.4,0.0,5.300000000000001,1.7000000000000002,55.4,-2.8,13.5
1698924625715.0,16,0.0,-4.1000000000000005,-0.4,0.0,5.300000000000001,1.7000000000000002,55.800000000000004,-0.9,15.299999999999999
1698924625732.0,16,0.0,-4.1000000000000005,-0.4,-0.1,5.300000000000001,1.5,55.6,0.2,18.8
1698924625748.0,16,-0.30000000000000004,-4.0,-0.2,-0.30000000000000004,5.4,1.5,53.9,-2.0,21.6
1698924625765.0,16,-0.6000000000000001,-3.9000000000000004,0.0,-0.5,5.6000000000000005,1.6,53.400000000000006,-3.5,22.5
1698924625781.0,16,-0.9,-3.5,0.2,-0.8,5.9,1.6,52.400000000000006,-5.4,23.0
1698924625798.0,16,-0.9,-3.3000000000000003,0.2,-0.6000000000000001,6.1000000000000005,1.5,47.0,-4.6000000000000005,21.1
1698924625815.0,16,-0.6000000000000001,-2.8000000000000003,0.7000000000000001,-0.30000000000000004,6.6000000000000005,1.8,41.1,-5.6,16.6
1698924625832.0,16,-0.4,-2.6,0.8,-0.1,6.9,1.8,39.1,-6.3,14.200000000000001
1698924625848.0,16,-0.4,-1.7000000000000002,0.9,0.0,7.7,1.9000000000000001,35.1,-8.1,11.9
1698924625865.0,16,-0.30000000000000004,-0.4,1.1,0.0,9.1,2.0,30.100000000000005,-7.0,12.8
1698924625881.0,16,-0.30000000000000004,0.5,1.2000000000000002,0.1,9.9,2.0,27.5,-7.0,13.5
1698924625898.0,16,0.1,2.5,1.4000000000000001,0.5,11.9,2.1,22.6,-10.4,12.100000000000001
1698924625915.0,16,0.5,4.0,1.6,0.9,13.5,2.3000000000000003,19.6,-13.700000000000001,5.2
1698924625931.0,16,0.30000000000000004,3.7,1.2000000000000002,1.0,13.700000000000001,2.2,18.3,-12.5,0.0
1698924625948.0,16,0.0,2.8000000000000003,0.8,0.5,12.3,1.5,10.600000000000001,-3.6,-6.5
1698924625965.0,16,0.0,1.0,0.4,0.5,10.5,1.0,-4.1000000000000005,1.2000000000000002,-5.300000000000001
1698924625982.0,16,0.0,0.30000000000000004,0.30000000000000004,0.4,9.8,1.0,-11.3,0.9,-5.500000000000001
1698924625998.0,16,-0.1,-0.6000000000000001,0.30000000000000004,0.30000000000000004,8.9,1.0,-21.700000000000003,1.6,-6.4
1698924626015.0,16,-0.30000000000000004,-1.0,0.2,0.1,8.5,1.0,-26.500000000000004,1.9,-6.7
1698924626041.0,16,-0.2,-1.0,0.2,0.2,8.5,1.1,-26.1,2.5,-6.1000000000000005
1698924626048.0,16,-0.1,-0.9,0.1,0.2,8.6,1.0,-23.8,0.9,-5.7
1698924626065.0,16,-0.1,-0.6000000000000001,0.0,0.2,8.9,1.0,-17.8,-3.9,-3.5
1698924626081.0,16,-0.2,-0.1,0.1,0.1,9.3,1.2000000000000002,-10.700000000000001,-6.2,0.0
1698924626098.0,16,-0.30000000000000004,0.1,0.2,0.1,9.600000000000001,1.3,-6.5,-6.2,1.4
1698924626115.0,16,-0.4,0.5,0.4,0.0,9.9,1.5,3.3000000000000003,-7.1000000000000005,2.6
1698924626131.0,16,-0.5,0.6000000000000001,0.2,-0.1,10.100000000000001,1.2000000000000002,9.8,-7.6,0.9
1698924626148.0,16,-0.5,0.6000000000000001,0.2,-0.2,10.100000000000001,1.2000000000000002,10.8,-7.9,-0.9
1698924626165.0,16,-0.5,0.7000000000000001,0.4,-0.2,10.200000000000001,1.4000000000000001,10.2,-9.8,-4.2
1698924626181.0,16,-0.4,0.7000000000000001,0.6000000000000001,-0.1,10.200000000000001,1.6,8.0,-12.8,-6.3
1698924626198.0,16,-0.30000000000000004,0.8,0.7000000000000001,0.1,10.3,1.8,5.7,-13.100000000000001,-7.2
1698924626215.0,16,-0.1,0.8,0.9,0.2,10.3,1.8,-1.0999999999999999,-10.8,-7.500000000000001
1698924626231.0,16,-0.1,0.7000000000000001,0.8,0.2,10.200000000000001,1.8,-11.6,-11.8,-5.300000000000001
1698924626248.0,16,-0.1,0.5,1.0,0.2,10.0,2.0,-18.1,-12.4,-4.0
1698924626265.0,16,-0.2,0.1,1.0,0.1,9.600000000000001,2.1,-30.5,-11.000000000000002,-3.3000000000000003
1698924626281.0,16,-0.2,-0.1,0.9,0.0,9.4,2.2,-42.5,-9.600000000000001,-6.4
1698924626298.0,16,-0.2,-0.30000000000000004,0.7000000000000001,0.0,9.1,2.2,-53.6,-8.200000000000001,-10.5
1698924626315.0,16,-0.2,-0.5,0.7000000000000001,0.0,9.0,2.2,-58.00000000000001,-8.1,-11.8
1698924626332.0,16,-0.1,-0.8,0.30000000000000004,0.0,8.8,2.2,-61.599999999999994,-6.2,-12.6
1698924626348.0,16,0.1,-0.9,0.2,0.2,8.5,2.0,-66.9,-2.4000000000000004,-13.700000000000001
1698924626365.0,16,0.4,-1.1,0.0,0.5,8.200000000000001,2.1,-69.5,-3.1,-14.0
1698924626381.0,16,0.5,-1.1,0.1,0.6000000000000001,8.200000000000001,2.3000000000000003,-68.9,-2.6,-12.6
1698924626399.0,16,0.6000000000000001,-1.1,-0.1,0.6000000000000001,8.1,2.3000000000000003,-64.30000000000001,-5.2,-6.5
1698924626414.0,16,0.2,-1.2000000000000002,-0.2,0.30000000000000004,8.0,2.4000000000000004,-59.00000000000001,-11.9,1.2000000000000002
1698924626431.0,16,-0.30000000000000004,-1.1,-0.2,-0.2,8.0,2.6,-55.4,-8.799999999999999,3.1
1698924626449.0,16,-0.5,-1.2000000000000002,-0.4,-0.4,7.9,2.5,-54.3,-5.4,0.6000000000000001
1698924626465.0,16,-0.4,-2.0,-0.2,-0.30000000000000004,7.1000000000000005,2.8000000000000003,-54.800000000000004,1.4,-9.0
1698924626482.0,16,-0.2,-2.2,-0.1,-0.2,6.800000000000001,3.0,-54.2,4.1000000000000005,-13.9
1698924626498.0,16,0.2,-2.1,-0.4,0.2,6.800000000000001,2.9000000000000004,-53.2,6.000000000000001,-19.1
1698924626515.0,16,0.6000000000000001,-2.2,-0.6000000000000001,0.5,6.7,2.8000000000000003,-58.400000000000006,5.7,-15.9
1698924626533.0,16,0.7000000000000001,-2.4000000000000004,-0.4,0.5,6.4,3.2,-64.2,2.1999999999999997,-7.2
1698924626549.0,16,0.5,-2.5,-0.5,0.4,6.1000000000000005,3.2,-66.3,1.8,-1.7
1698924626565.0,16,0.1,-2.5,-0.8,0.1,6.1000000000000005,3.2,-68.1,1.5000000000000002,3.5
1698924626582.0,16,-0.2,-2.0,-1.0,-0.30000000000000004,6.5,3.1,-70.39999999999999,3.4,5.9
1698924626598.0,16,-0.30000000000000004,-1.8,-0.9,-0.30000000000000004,6.6000000000000005,3.3000000000000003,-69.00000000000001,5.9,3.1
1698924626617.0,16,-0.1,-1.7000000000000002,-0.8,-0.2,6.6000000000000005,3.6,-62.6,7.2,-3.0000000000000004
1698924626633.0,16,-0.30000000000000004,-1.6,-0.7000000000000001,-0.4,6.6000000000000005,3.9000000000000004,-54.0,7.8,-5.8
1698924626649.0,16,-0.4,-1.4000000000000001,-0.4,-0.5,6.800000000000001,4.2,-49.9,8.9,-6.000000000000001
1698924626665.0,16,0.0,-0.8,-0.5,-0.2,7.300000000000001,4.3,-41.800000000000004,8.3,-8.4
1698924626682.0,16,0.2,-0.7000000000000001,-1.0,-0.1,7.4,4.1000000000000005,-40.7,5.1,-9.9
1698924626698.0,16,0.2,-0.9,-1.3,0.0,7.0,3.6,-47.800000000000004,6.5,-9.0
1698924626715.0,16,0.30000000000000004,-1.7000000000000002,-1.6,0.1,6.1000000000000005,3.4000000000000004,-60.5,14.200000000000001,-6.8
1698924626731.0,16,0.2,-1.7000000000000002,-0.6000000000000001,-0.2,6.0,4.6000000000000005,-63.10000000000001,22.6,-7.1000000000000005
1698924626748.0,16,0.2,-1.2000000000000002,-0.6000000000000001,-0.2,6.300000000000001,4.800000000000001,-46.800000000000004,22.000000000000004,-8.600000000000001
1698924626765.0,16,0.4,-1.1,-0.6000000000000001,0.0,6.5,4.7,-39.9,16.3,-10.2
1698924626781.0,16,0.1,-1.0,0.2,-0.30000000000000004,6.5,5.7,-32.0,12.6,-11.000000000000002
1698924626798.0,16,-0.1,-0.7000000000000001,0.30000000000000004,-0.6000000000000001,6.7,5.800000000000001,-20.6,13.100000000000001,-4.6000000000000005
1698924626814.0,16,0.0,-0.7000000000000001,-0.30000000000000004,-0.6000000000000001,6.7,5.300000000000001,-20.1,6.9,-1.9
1698924626831.0,16,0.0,-1.4000000000000001,-0.9,-0.6000000000000001,6.0,4.7,-29.1,1.8,-0.4
1698924626848.0,16,-0.4,-1.2000000000000002,-0.30000000000000004,-1.0,6.0,5.4,-27.0,7.9,1.3
1698924626865.0,16,-0.5,-0.4,0.6000000000000001,-1.0,6.800000000000001,6.300000000000001,-8.700000000000001,9.600000000000001,2.5
1698924626881.0,16,-0.4,0.0,0.7000000000000001,-0.9,7.2,6.4,2.7,8.700000000000001,1.6
1698924626898.0,16,-0.2,0.30000000000000004,1.6,-0.8,7.6000000000000005,7.300000000000001,20.900000000000002,3.6,0.2
1698924626915.0,16,-0.2,0.4,1.8,-0.8,7.7,7.4,27.400000000000002,2.8,0.8
1698924626931.0,16,0.1,0.2,1.6,-0.5,7.6000000000000005,7.2,32.800000000000004,1.0,0.30000000000000004
1698924626948.0,16,0.4,-0.4,1.5,-0.2,7.0,7.1000000000000005,35.0,1.0999999999999999,-3.0000000000000004
1698924626965.0,16,0.4,-0.6000000000000001,1.5,-0.1,6.800000000000001,7.0,38.6,4.2,-3.8
1698924626981.0,16,0.4,-0.7000000000000001,1.1,-0.2,6.9,6.5,49.1,7.1000000000000005,-3.7000000000000006
1698924626998.0,16,0.30000000000000004,-1.3,0.8,-0.30000000000000004,6.4,6.0,61.4,8.200000000000001,-2.0
1698924627015.0,16,0.2,-1.6,0.7000000000000001,-0.4,6.1000000000000005,5.800000000000001,68.4,7.400000000000001,-0.30000000000000004
1698924627031.0,16,-0.4,-0.8,1.3,-1.0,7.0,6.2,86.0,2.6,2.6
1698924627048.0,16,-0.9,3.0,2.2,-1.6,11.0,6.9,109.30000000000001,-3.0000000000000004,-3.2
1698924627065.0,16,-1.0,5.5,3.0,-1.7000000000000002,13.600000000000001,7.5,118.9,-6.2,-4.6000000000000005
1698924627082.0,16,-1.1,8.700000000000001,3.4000000000000004,-1.7000000000000002,17.1,7.5,130.0,-7.699999999999999,0.6000000000000001
1698924627098.0,16,-0.9,9.200000000000001,3.2,-1.5,17.7,7.2,124.7,-10.700000000000001,4.1000000000000005
1698924627115.0,16,0.2,7.9,1.2000000000000002,-0.4,16.6,4.9,91.9,-15.5,1.2000000000000002
1698924627131.0,16,0.8,4.7,-0.7000000000000001,0.1,13.600000000000001,2.8000000000000003,49.7,-5.8,-2.0
1698924627148.0,16,0.8,1.8,-1.5,0.2,10.700000000000001,2.0,21.8,0.9,4.6000000000000005
1698924627165.0,16,0.7000000000000001,0.7000000000000001,-1.6,0.1,9.600000000000001,1.8,15.8,6.000000000000001,7.0
1698924627181.0,16,0.30000000000000004,-0.6000000000000001,-2.1,-0.30000000000000004,8.3,1.2000000000000002,17.400000000000002,4.5,9.200000000000001
1698924627198.0,16,0.0,-0.9,-2.9000000000000004,-0.6000000000000001,8.1,0.30000000000000004,21.6,-11.8,10.4
1698924627215.0,16,-0.4,-0.7000000000000001,-2.5,-0.9,8.3,0.6000000000000001,23.5,-11.9,12.000000000000002
1698924627231.0,16,-0.4,-0.30000000000000004,-2.9000000000000004,-0.8,8.6,0.2,26.0,-8.9,12.3
1698924627248.0,16,-0.1,0.30000000000000004,-2.0,-0.5,9.3,1.0,29.500000000000004,-14.500000000000002,9.1
1698924627265.0,16,0.0,0.8,-1.6,-0.4,9.8,1.3,38.1,-12.100000000000001,6.9
1698924627281.0,16,0.2,1.7000000000000002,-2.1,-0.2,10.8,0.7000000000000001,56.1,-15.7,3.6
1698924627298.0,16,0.4,1.7000000000000002,-1.8,0.1,10.8,0.8,63.6,-14.600000000000001,1.0999999999999999
1698924627315.0,16,0.6000000000000001,1.6,-1.7000000000000002,0.30000000000000004,10.8,0.7000000000000001,66.60000000000001,-9.9,1.0999999999999999
1698924627331.0,16,0.6000000000000001,1.8,-1.8,0.30000000000000004,11.100000000000001,0.4,67.0,-6.8,3.4
1698924627348.0,16,0.30000000000000004,2.0,-1.3,0.0,11.4,0.6000000000000001,63.2,-3.5,6.7
1698924627364.0,16,0.2,2.0,-1.5,-0.1,11.4,0.30000000000000004,60.00000000000001,-1.6,8.0
1698924627381.0,16,-0.1,1.8,-1.0,-0.30000000000000004,11.200000000000001,0.7000000000000001,46.7,-1.8,7.0
1698924627398.0,16,-0.1,1.7000000000000002,-0.6000000000000001,-0.30000000000000004,11.100000000000001,1.1,41.800000000000004,2.9,6.1000000000000005
1698924627415.0,16,0.0,1.5,-1.1,-0.2,11.0,0.4,32.300000000000004,8.1,3.6
1698924627432.0,16,0.0,1.3,-0.4,-0.2,10.8,1.0,17.8,8.5,4.7
1698924627448.0,16,-0.1,1.2000000000000002,-0.6000000000000001,-0.30000000000000004,10.700000000000001,0.7000000000000001,8.200000000000001,7.6,6.5
1698924627465.0,16,-0.30000000000000004,1.1,-0.6000000000000001,-0.4,10.600000000000001,0.8,2.1999999999999997,5.500000000000001,6.5
1698924627481.0,16,-0.4,1.0,-0.6000000000000001,-0.6000000000000001,10.5,0.8,-8.9,4.0,3.3000000000000003
1698924627498.0,16,-0.4,1.0,-0.7000000000000001,-0.6000000000000001,10.5,0.7000000000000001,-20.4,0.0,-0.6000000000000001
1698924627515.0,16,-0.30000000000000004,1.1,-0.7000000000000001,-0.4,10.700000000000001,0.6000000000000001,-25.700000000000003,-0.6000000000000001,-1.7
1698924627532.0,16,-0.1,1.2000000000000002,-1.1,-0.30000000000000004,10.8,0.5,-36.2,-3.8,-3.3000000000000003
1698924627548.0,16,0.0,1.4000000000000001,-0.8,-0.2,10.9,1.0,-47.400000000000006,-6.7,-5.4
1698924627565.0,16,0.0,1.6,-0.6000000000000001,-0.2,11.0,1.2000000000000002,-49.6,-5.8,-6.4
1698924627581.0,16,0.1,1.7000000000000002,-1.1,-0.1,11.100000000000001,0.8,-52.0,-9.4,-9.3
1698924627598.0,16,0.4,1.6,-1.3,0.1,11.0,0.8,-58.3,-10.4,-14.3
1698924627615.0,16,0.6000000000000001,1.3,-1.5,0.30000000000000004,10.700000000000001,0.8,-62.300000000000004,-8.5,-17.400000000000002
1698924627632.0,16,0.8,1.2000000000000002,-1.9000000000000001,0.5,10.5,0.6000000000000001,-71.4,-14.200000000000001,-20.5
1698924627649.0,16,0.7000000000000001,1.5,-2.0,0.30000000000000004,10.8,0.7000000000000001,-80.6,-19.200000000000003,-14.4
1698924627665.0,16,0.5,1.7000000000000002,-2.3000000000000003,0.2,11.0,0.6000000000000001,-86.0,-20.0,-10.4
1698924627682.0,16,0.1,1.4000000000000001,-2.7,-0.30000000000000004,10.5,0.5,-98.4,-12.9,-5.300000000000001
1698924627699.0,16,-0.2,1.5,-2.8000000000000003,-0.5,10.600000000000001,0.7000000000000001,-113.1,-3.2,-5.2
1698924627715.0,16,0.0,1.6,-3.4000000000000004,-0.5,10.5,0.4,-125.00000000000001,2.0,-11.2
1698924627732.0,16,0.0,1.6,-3.1,-0.5,10.4,0.8,-128.8,3.8,-13.5
1698924627749.0,16,0.1,1.5,-3.0,-0.4,10.200000000000001,1.4000000000000001,-126.60000000000001,4.5,-12.100000000000001
1698924627765.0,16,-0.1,2.1,-2.2,-0.6000000000000001,10.600000000000001,2.4000000000000004,-108.7,0.4,-7.500000000000001
1698924627782.0,16,0.0,2.2,-1.9000000000000001,-0.5,10.700000000000001,2.9000000000000004,-94.80000000000001,3.4,-6.1000000000000005
1698924627798.0,16,0.30000000000000004,1.9000000000000001,0.6000000000000001,-0.2,10.200000000000001,5.6000000000000005,-69.00000000000001,10.600000000000001,-6.4
1698924627815.0,16,1.2000000000000002,2.0,2.1,0.6000000000000001,10.200000000000001,7.2,-33.800000000000004,31.7,-6.5
1698924627832.0,16,1.6,2.2,3.3000000000000003,1.0,10.5,8.5,-13.3,43.800000000000004,-7.6
1698924627849.0,16,1.9000000000000001,2.2,3.9000000000000004,1.1,10.5,9.1,-1.0,57.6,-5.8
1698924627865.0,16,-0.6000000000000001,0.30000000000000004,4.1000000000000005,-1.4000000000000001,8.5,9.4,-77.80000000000001,32.1,3.6
1698924627881.0,16,-1.8,-0.5,2.9000000000000004,-2.7,7.6000000000000005,8.4,-109.60000000000001,22.900000000000002,-3.3000000000000003
1698924627898.0,16,-1.4000000000000001,-2.1,0.5,-2.3000000000000003,5.7,6.4,-114.00000000000001,23.6,-12.700000000000001
1698924627915.0,16,-0.5,-3.7,-0.6000000000000001,-1.6,3.9000000000000004,5.4,-80.30000000000001,26.200000000000003,-10.600000000000001
