msFromStart,interval,accx,accy,accz,accGx,accGy,accGz,rotRate_alpha,rotRate_beta,rotRate_gamma
3,0.01666666753590107,0.11164178123399615,-0.2571887546792626,0.5331166966199875,1.3569137908935547,-4.671685697118938,-8.134749053192138,13.561806757471171,2.3710719958396003,9.608249940378608
178,0.01666666753590107,-0.04713226498775184,-0.6396288598805666,1.0784382102966308,0.8194157373841852,-2.9545949246279894,-8.411578035625816,17.13917297677871,-12.466734480674074,3.4583192237253897
194,0.01666666753590107,0.03101984603330493,-0.5613226542763412,1.240288814419508,0.8584712250307202,-2.929455807196349,-8.240093926239012,15.620856075230725,-8.081806821265602,2.0665968902358296
211,0.01666666753590107,-0.05719137525260448,-0.4958354521043598,1.203159983986616,0.7519292511537671,-2.904167198291421,-8.268674124035238,16.41467090585336,-6.416800935121015,2.6831375760453704
228,0.01666666753590107,-0.06228935597874224,-0.49277957166507835,1.0775170037984847,0.7278375969484449,-2.9415764531008897,-8.385541677093505,15.324407082231954,-7.437901836320051,4.152494187518823
244,0.01666666753590107,-0.06568988513723015,-0.44195992340147494,1.029026236873865,0.6971618881776929,-2.9354414574772116,-8.424597091674805,11.309003755978573,-5.496882883173371,3.154784122906142
261,0.01666666753590107,-0.19301343882344663,-0.4815840777814388,1.0156839402198792,0.5599442055299878,-3.001281710870564,-8.431779112133384,9.836789777554527,-1.5412708194708702,2.16462611308138
278,0.01666666753590107,-0.1512200506456196,-0.41562808905392884,0.9126204561084509,0.5987003449037671,-2.959533111682534,-8.528595226287841,9.637335447185462,0.21364879748567486,2.1610639559858065
294,0.01666666753590107,-0.11460925273746252,-0.4153551173314452,0.7956324915409088,0.6371572090700268,-2.993351210132241,-8.636184078869222,10.581968538644796,1.8765842291772483,1.5089303006376829
311,0.01666666753590107,0.027128537683188913,-0.4269216364845633,0.9852841257810592,0.7814078590944409,-3.0295635102421046,-8.43956085205078,8.932247335202229,0.5565120208241501,1.2730326421783675
328,0.01666666753590107,0.06383797366023063,-0.1760252599477768,0.9238666572660207,0.8221092142518609,-3.1358056243896484,-8.394668986400962,4.8715568665439015,-3.184083073124558,1.8990939713606716
345,0.01666666753590107,0.21748181738667188,-0.15794629016071557,0.8502642454385757,0.8982748276308178,-3.293374605670571,-8.416665714153647,0.1730400545177095,-4.569443512289074,3.1721806147221643
361,0.01666666753590107,0.002858677366748452,0.035955110478401185,0.9015198009014129,0.6648401657655835,-3.1156051324039695,-8.361300385284423,-2.0262855406412377,-0.952225807217156,1.0162814556876512
378,0.01666666753590107,-0.07893157096095382,0.11191402230411768,0.861336259073019,0.587776726764068,-3.0410856057316065,-8.400654490551352,-3.558710838250118,1.5773724246592071,-1.0311147055742147
395,0.01666666753590107,-0.010091405099257825,0.07453706232905387,0.47853170447349547,0.7026984795168042,-3.099593908801675,-8.772803795623778,-2.242106498365535,2.615789776394929,-1.543995638062882
412,0.01666666753590107,0.1417085643261671,-0.0047428106129169464,0.15241583630144595,0.9096472124513238,-3.239205793109536,-9.073574794659018,-1.14342766824326,2.012370097424394,-0.8012257993155123
428,0.01666666753590107,0.15378807450272142,0.04786708206832409,-0.03178805392682552,0.9585787088807671,-3.2528228150516747,-9.231143775939941,-1.0231435546476926,-1.4885874359684461,0.4150296147266548
445,0.01666666753590107,0.17821115261949597,0.0039072365716099735,-0.04995031808316707,0.966509574945271,-3.3092358994081614,-9.246256589397788,-0.9840807422890376,-3.111234196427906,1.096321774528386
462,0.01666666753590107,0.16525390976034104,-0.01992781252413988,-0.027568974927067755,0.9154830789979547,-3.3262942939758298,-9.229497177776693,-0.6897081801588034,-2.4496740262515186,1.0257499121462872
479,0.01666666753590107,0.06645926207453012,-0.07328413965851067,0.029327216771245,0.8283940666750073,-3.3710365220218894,-9.174729814800619,1.2936049585150344,-0.5009853042754439,0.0244089349790835
496,0.01666666753590107,0.065471493146196,-0.09359949019551277,-0.040512043130397794,0.8511389093812555,-3.39318259511739,-9.241917683410644,2.333118342169132,-0.8853194085418267,0.2103763364604454
512,0.01666666753590107,0.046355946853011844,-0.07858458415418863,-0.06422551167309284,0.8780736780580133,-3.369989058795571,-9.264512961578369,3.1760896173615274,-0.8639067654938367,0.19460665696650245
529,0.01666666753590107,0.05528598002269864,-0.09242664702385664,0.014648118555545805,0.9295490137513727,-3.401562300927937,-9.175328365215659,3.5179395181036077,-2.2837947714081195,1.3118057051058258
545,0.01666666753590107,0.020800942096859214,-0.12758213155716658,0.07417173614799975,0.8966288139894604,-3.4451068436220287,-9.112630793762207,3.4681807362264188,-2.0017297299145724,1.240170681090732
562,0.01666666753590107,-0.12858305222801863,-0.0060679217368364334,0.25199615447223184,0.7338230280335992,-3.341407984216511,-8.929624004364014,2.0277512565484397,-1.2301843041939389,0.6365482308792124
579,0.01666666753590107,-0.14608875217176973,0.009825520704686641,0.286727860635519,0.7106291994508356,-3.33557211766988,-8.891765106090903,1.6038697166574485,-0.13912556394701778,0.4432358680800009
596,0.01666666753590107,-0.13127616376951337,0.050208969019353386,0.268062907654047,0.7275382486756891,-3.297414820972085,-8.909422343334555,0.6403378652906587,0.7964263641239618,-0.6340420317014938
612,0.01666666753590107,-0.10670264433138071,0.11832593517303466,0.17634090176820755,0.7656959106996655,-3.233968476977944,-8.998158026885985,0.12762771421166821,0.711536610972518,-2.043275422758233
629,0.01666666753590107,0.03364887936264276,0.07430529939979315,0.07516191622912884,0.9065048227723688,-3.2942724312931295,-9.093326958355307,1.2590745102792118,-0.33943729650033205,-1.470461714736819
645,0.01666666753590107,0.10509995837509631,0.08566402102112769,0.09427519749999046,0.96950225395523,-3.2900825783878562,-9.07237769382894,1.7866623341547974,-1.0252740400602076,0.26611057336604366
661,0.01666666753590107,0.101976200331375,0.13366846573352814,0.04499123437106609,0.9487026270326226,-3.2523739022403952,-9.119514123535156,1.950419641322144,-0.7557886061922372,1.3433200912145589
679,0.01666666753590107,0.019308511582016945,0.1784320288285613,0.15170096603035926,0.856675573785603,-3.2127199372440574,-9.011774464306235,1.6076457440514078,-0.24556320322810324,1.458224043456566
695,0.01666666753590107,-0.011025471078976988,0.1459095231473446,0.12540507977902887,0.8230071129396558,-3.2447420921877024,-9.038559595379233,-0.21249896448737232,-0.13965487692726733,0.9907991938330972
712,0.01666666753590107,-0.013103592527285218,0.10578940194398165,0.10503858357667922,0.8242042137697339,-3.2772137444645164,-9.061454148754477,-1.8887076015106095,0.7083286098575805,0.6137471384390057
728,0.01666666753590107,-0.03218932820409536,0.04614449605941772,-0.11684008052945136,0.8152258844789118,-3.3273423417240378,-9.285911138916015,-1.966061841738531,0.7777406741020995,0.8562307000838002
745,0.01666666753590107,-0.044056583869457246,0.0035617841348052023,-0.2049111626923084,0.8086417568482458,-3.3647517426639793,-9.375393841442465,0.5299097680282727,0.40741859619629206,0.2234132732757221
761,0.01666666753590107,-0.03372019103318453,-0.06021832185834646,-0.3374614380508661,0.8216603745058179,-3.422062652643025,-9.510068269348144,0.7568384276120094,-1.2788758690133135,-0.13673990693597926
778,0.01666666753590107,0.0810147339105606,-0.25848434744775295,-0.5445253948628902,0.9311950273927301,-3.6141976281315085,-9.719860189819336,-2.7327396904584726,-0.6357942420278665,0.5848481811738587
795,0.01666666753590107,0.15537548982463775,-0.37553807072788475,-0.758072868475318,1.0055649895265697,-3.7226848908573387,-9.936534855541586,-2.997486573868041,1.9209420389682499,2.5008694957319375
811,0.01666666753590107,0.23337993600331244,-0.5220797542989254,-1.7190478979080914,1.086219511822611,-3.8730703903749584,-10.895861533245444,6.644770024614415,1.6666442777717432,3.0790053084989664
828,0.01666666753590107,0.33061420250460505,-0.9449982926219701,-3.107189770758152,1.1754036697939036,-4.317494365802407,-12.27686756286621,12.102792973391821,-1.5761353066457886,3.904538683853496
845,0.01666666753590107,0.3627002164646983,-1.2331608622357249,-3.0595021369099613,1.2093713327821343,-4.650138758960366,-12.21252339324951,26.19682514646331,4.071989735979645,0.8873285513748682
861,0.01666666753590107,0.24730543937273322,-1.4271508179411292,-3.086004943910241,1.1145011650636791,-4.970213593402504,-12.189029704937338,54.29786946748574,7.379344063244592,-2.8618347480833566
879,0.01666666753590107,0.27636121879145503,-1.8282032691538332,-3.269545401793718,1.159841285937652,-5.5268654793888325,-12.3088900100708,76.94194439641024,1.6351116422513217,-3.3031648599827914
895,0.01666666753590107,0.11864026181921362,-1.7411755585640667,-3.51479032844007,1.0070612924989313,-5.634454624231159,-12.471546085357666,87.71852124620798,-1.9632755514439888,-7.507189836581599
912,0.01666666753590107,-0.38313225218392905,-1.4327321252048015,-3.0815228300601243,0.5273231348451226,-5.606622322192788,-11.908759057617187,95.8525388872628,6.694997955110219,-9.534282406761955
929,0.01666666753590107,-0.29255276739671826,-1.4307164014682172,-2.3938287351906298,0.6365585855897515,-5.828833871515095,-11.10954461593628,101.85460860154653,-2.9971042967179318,-8.687085378907437
945,0.01666666753590107,-0.36675285285636783,-0.9783981656596064,-2.8571190313905475,0.5633858704164624,-5.606771667535603,-11.452663641357422,101.51353627515277,-3.6952271098516323,-7.019842178922849
962,0.01666666753590107,-0.4244195174705237,-0.8711264162033796,-2.4538719927430153,0.4911108347352594,-5.794716205596924,-10.88538748550415,100.07796028521032,-11.602473932725571,-1.2151750702145416
979,0.01666666753590107,-0.22274499861188232,-0.41522447668910023,-2.417055296999216,0.6630444414552301,-5.564573571014404,-10.715848080444335,107.60696659977458,-14.103221338826096,1.1597180963005636
995,0.01666666753590107,-0.16878814830109476,-0.12333178063631058,-2.2112135754585265,0.6893806597169488,-5.511152946472167,-10.360158911785483,112.88868358305375,-7.487868085193279,4.622865836882329
1012,0.01666666753590107,-0.3129374568428844,0.2986860094547272,-1.9869541536957025,0.5210384285524488,-5.408651772418618,-9.917979792675375,113.0137853278917,-1.074756305997717,6.748858265584001
1028,0.01666666753590107,-0.6113729986678809,0.7509814489096402,-2.065682822495699,0.21592728142105042,-5.187187534332275,-9.82610171944499,111.56194665753544,0.8611775179510348,2.8187213133817663
1045,0.01666666753590107,-0.7185976210467517,1.1596990279227495,-2.3447382488071917,0.10669183067642152,-5.003731832122803,-9.92770623691976,113.22608809786321,-2.365858000181942,-1.966923299347599
1062,0.01666666753590107,-0.9028122518647461,1.764006399053335,-2.585357269218564,-0.06928191827982663,-4.6987703956604,-9.913939577373862,118.31313785960783,-0.5683562091751869,-7.963826402411033
1079,0.01666666753590107,-0.6034263505123555,1.6365589997917414,-2.961117166003585,0.2277487251833081,-5.048473475646972,-10.0878190574646,117.58905584531644,-14.9019291462154,-2.939183011895754
1096,0.01666666753590107,-0.4600566480409354,1.8007190499007701,-3.319550080412626,0.3253124428346753,-5.094561273083091,-10.248380206298828,111.4550883479706,-35.99436268063142,1.3368511550186164
1112,0.01666666753590107,-0.36355573731549085,2.106018924537301,-2.7671301329076288,0.319775851495564,-5.034557178497314,-9.454103221020102,93.70456733669886,-42.65115383818506,2.375969454917911
1129,0.01666666753590107,-0.8223039331063627,2.3246201744079587,-2.1139818662405014,-0.2142807197904214,-4.969015908050537,-8.641122704315185,85.4197049678243,-39.96084136186,-0.9338067080163356
1145,0.01666666753590107,-1.2751159437812865,2.630288882356882,-2.044852215912938,-0.723347847781144,-4.8056116447448725,-8.4145713722229,86.64866090518468,-45.727050983724844,-15.54020178641663
1163,0.01666666753590107,-1.665256394226849,2.5608330688148735,-2.012596544474363,-1.1430813263272865,-5.079149184417724,-8.138639046368002,109.05245319420273,-18.73740138406855,-17.72210400922991
1179,0.01666666753590107,-1.4905454317480324,0.8576917650908231,-0.7447972073167562,-0.9394245841428637,-6.975207261657714,-6.619518092998862,139.49060383409594,23.48893176321464,-9.984020481529676
1195,0.01666666753590107,-2.593013336929679,1.1358160480320454,-0.7308703887730836,-1.9653399955198168,-6.913556568908691,-6.297198694500326,149.66445747077506,23.64615247262458,-26.66790329351909
1212,0.01666666753590107,-1.8449726176470518,3.1067870351761577,-2.1304273896068335,-1.127369341399893,-5.210681222644448,-7.275829792132973,145.88566897284386,-31.84823977894775,-33.585553035853856
1228,0.01666666753590107,-1.628185431461036,3.523330193248391,-2.0368927813410758,-0.8991720687314867,-4.974851190075278,-6.876296805572509,142.26923407148382,-62.73566318697147,-36.27838243688806
1245,0.01666666753590107,-1.7403884998396038,4.016265686127543,-1.22216659001261,-1.0087068677488713,-4.64804266346395,-5.757006944927573,139.9317794129654,-70.68984877736902,-41.28961709884555
1262,0.01666666753590107,-1.6081627802602947,4.929105337944627,0.2736141120404005,-0.8301890603329986,-3.929183615002036,-3.8610990898132322,136.74030522138523,-63.35904089214019,-56.56761987585644
1279,0.01666666753590107,-0.8626846780072898,4.950115392747521,1.224020401185751,-0.0020945611264556645,-4.040364939117431,-2.5971096663326025,143.61315575295387,-51.028623326921235,-64.71440314047001
1295,0.01666666753590107,-0.6367337960261851,4.541888812121749,1.664393055395782,0.33294396062642334,-4.573074223980307,-1.8209394156306982,148.63662328371487,-36.16957752340976,-61.378914410240135
1312,0.01666666753590107,-0.46791642163060604,3.705457277202606,2.0560995861142874,0.6530189411990344,-5.5549967643737785,-0.9701000006526708,142.50335929585353,-27.97209034949259,-56.704609564944796
1329,0.01666666753590107,0.14288842176049946,3.605992694365978,1.6149474719643593,1.3778633476808666,-5.735908042797446,-1.100584575653076,121.12281813696262,-37.86345419228917,-58.94682748077116
1345,0.01666666753590107,0.3372575860418379,3.4668156943440436,1.2019725277677178,1.6867155079714953,-5.925948968616128,-1.2729670951843262,89.29984664284933,-50.25017642193112,-59.09065077412412
1362,0.01666666753590107,0.8868176140710711,2.6303216155827043,0.6431431516118348,2.358737694195658,-6.793695679253339,-1.6353893714904784,52.62581866809911,-76.90946001671766,-47.27766443476324
1379,0.01666666753590107,1.1236973018236458,2.1752824303776026,0.9194526402160524,2.6521771812990305,-7.255925652745366,-1.2910726607173681,30.644343805652134,-87.40738563894638,-38.66506909894396
1396,0.01666666753590107,1.3178690438367426,1.8310060516148805,1.0548127122983335,2.8761846741273995,-7.599942503789067,-1.1358986117489636,16.303400294084682,-91.16465904099206,-27.37047533456682
1412,0.01666666753590107,1.6917606625318526,0.9750479784488677,0.9691222416616976,3.243245716150105,-8.45317728947103,-1.2381010951168834,4.855488846521446,-85.49605282236669,-10.769005585102779
1431,0.01666666753590107,1.609568263144046,0.5894441485196351,0.7708185144104063,3.1283240364626046,-8.838942447441816,-1.4583680862426758,5.462252970307761,-74.58375328357164,-0.4661031012973656
1445,0.01666666753590107,1.5022329469323157,0.4641021971046924,0.5817296286195516,2.971503973852843,-8.972569996643067,-1.6455647285461426,21.01336384948937,-69.86277434058302,5.713221868057532
1462,0.01666666753590107,1.2713599522486327,0.34250878456830974,0.6358049176782369,2.6695352894656357,-9.124750855144859,-1.5058029143735765,49.49910150003984,-49.26066642630387,7.567381732415982
1479,0.01666666753590107,1.036711384548992,0.40899639595448967,1.4937138326510786,2.399289630945027,-9.09212868848145,-0.5168479911252856,65.19455177874357,-16.734178617490095,6.382002828847092
1496,0.01666666753590107,0.9416567271091043,0.37000820139050483,1.69322503599599,2.286163602502644,-9.169043001335858,-0.14230492278411982,75.3175683174303,18.626521800629856,9.444362966338737
1512,0.01666666753590107,0.9812491711765527,0.29611060600876804,0.9707073188960552,2.293196862140298,-9.298330475506186,-0.5771519454404711,89.36967849692354,17.506498842794702,18.24186603714225
1529,0.01666666753590107,0.8019314455546438,0.5490659609019756,-0.2094679492138326,2.0709848744265735,-9.08464739281535,-1.5328879051759838,86.56483399350113,-8.484012755825557,15.942919985164336
1545,0.01666666753590107,0.683905223980546,0.42870296694338317,-0.2516311936173588,1.9195513271607458,-9.234882962468266,-1.3735232726499438,78.40779178475418,-21.92198049968158,5.016008537300501
1562,0.01666666753590107,0.905330737491697,0.0031570027261972424,1.2388614119648933,2.147748965155333,-9.686490419659018,0.38007944048456843,85.56925195970173,14.389863033950373,-10.603705615678361
1579,0.01666666753590107,1.8020352470658718,-0.9193944802880286,3.65410586014986,3.0823851459778844,-10.62426811337769,3.0654763159487395,120.63645402654436,69.44311385759909,-10.220313437187206
1596,0.01666666753590107,2.3131350499279795,-2.031500566908717,4.242091042032838,3.60881023600474,-11.750290497148036,4.050540186575241,168.02794014873126,104.68287382363292,7.13546703628741
1612,0.01666666753590107,3.0083365978181362,-2.437139469128847,3.2671710738778112,4.2280107864931225,-12.15595979450643,3.7439326999388634,189.22265918106282,103.20475258535046,33.48748517975081
1629,0.01666666753590107,2.332868655054271,-1.1180290469288825,1.656663484057039,3.439719962951913,-10.813858957341314,2.624195168591663,171.16716339316082,78.33994068553928,39.68887005929926
1645,0.01666666753590107,2.089561710733175,-0.674358227956295,0.5653063170850277,3.0744544991090894,-10.336965083202719,1.9197016954168675,114.68439495736347,53.665219780518726,40.34567471026603
1662,0.01666666753590107,1.6250567780464886,1.22152273915112,-1.0441770442545413,2.4655792355410755,-8.419209553417563,0.5433342853821814,20.882792830673527,12.272733202583616,32.48384693782538
1679,0.01666666753590107,1.493452989757806,2.273565694475174,-2.4166857330344618,2.2659628182560203,-7.373243872180581,-0.831535287310183,-12.457477866801414,-25.04632759209885,25.91057533344266
1695,0.01666666753590107,1.314858171582967,1.7192250080406666,-0.9613549686610698,2.0058925898563116,-7.933336254009604,0.6263822786860168,31.92437931272047,-26.36502026232217,36.811751909174355
1712,0.01666666753590107,0.8477620533592999,1.650319814118743,0.46489466265663504,1.4351746960513292,-7.9819678907096385,2.209697910198569,91.81190142712082,17.676162449325112,46.678960787971185
1729,0.01666666753590107,0.06231171394102275,1.86853060336709,1.6208499740064144,0.5063741991123184,-7.715015574645996,3.652803837640583,130.14545704941443,48.125734873057866,52.543883718815636
1745,0.01666666753590107,-0.17063096315618603,1.5110118811935185,0.16876812842637298,0.07182650646241381,-7.9661074737548825,2.6779151414066553,147.85567311439394,58.41103329132952,40.53981600723447
1762,0.01666666753590107,-0.027383608422800895,1.0399819306522606,-0.4104688065946102,0.08589243208267726,-8.33705850895345,2.45809633243978,138.12124652815675,57.75926248978105,30.832986800338716
1779,0.01666666753590107,-0.29298334083370864,-0.39580607499182224,-1.120883851838112,-0.2831138930806832,-9.678409989055991,2.041954448644817,98.27581487270245,23.75389187659236,26.901420631052655
1795,0.01666666753590107,-0.9591604542914778,0.6271516556233168,0.23687632675170897,-1.0269624179455452,-8.582463594597577,3.605668284717202,35.23726694698677,27.117334863547807,6.606631528949533
1812,0.01666666753590107,-0.8062987739186733,0.9108809189647435,1.524664558970928,-0.9126393252057022,-8.277651795738935,4.9495627273008225,15.26982533302709,49.85398105384078,-1.651878689446645
1830,0.01666666753590107,0.04392917636381462,1.1032599323421717,1.3575494584485888,-0.10100488021434284,-8.073994432500005,4.811147067040205,11.594333201008562,45.73980636199985,-3.997495424023254
1845,0.01666666753590107,0.34490309582632034,1.0850643504381179,0.5232260017246008,0.19063881864659488,-8.08267282899618,4.001607922960818,2.6116056451980616,23.089517668477928,-16.343143457317694
1862,0.01666666753590107,0.206245315639209,0.6778735426008701,0.351833370013535,0.0827500515368767,-8.491784375762938,3.826383750262856,-5.238567263197605,-1.7669842389908734,-15.53152573862342
1879,0.01666666753590107,-0.04905358843915164,-0.7419698749363421,0.4348328480005264,-0.12659301092196254,-9.929052390831709,3.8643905325740575,-23.947686541460424,-27.201947246985924,-0.9318672544571693
1895,0.01666666753590107,-0.2545152976863086,-0.3072907561928034,0.6957669266879558,-0.3088515346695436,-9.520093404278159,4.056077472034096,-33.02019778768439,-29.335795673893582,1.9152699937493773
1912,0.01666666753590107,-0.36260055548250675,0.06172141989767551,0.6688683983683585,-0.3972873379419674,-9.179518218120933,3.9504327392578125,-30.425490884266583,-18.64815471727858,-0.737260544129814
1929,0.01666666753590107,-0.01297265505741816,0.10466098243594169,-0.14716215355694293,-0.03591253399528796,-9.158567200028896,3.0719091985404487,-6.252308208679128,-6.95233771180832,2.9533571485274117
1945,0.01666666753590107,0.20552469148077068,-0.5660995132893324,-0.6486319582864641,0.1753757488137693,-9.824607096973061,2.583941849462688,16.80608001888282,0.7773120263708283,5.362105748489271
1962,0.01666666753590107,-0.053049311578390185,-0.8569067521929741,-0.8050675516232848,-0.10324951733597554,-10.092159717017411,2.493111531719565,36.959926033028616,10.957864584521863,6.293795631471432
1979,0.01666666753590107,-0.6865121916085482,-0.9657909052819013,-0.8485904670074581,-0.7797611330670304,-10.137945901158451,2.620303202654421,70.32295833591262,26.060931702736738,3.695936595751667
1995,0.01666666753590107,-0.5927698588762432,-0.9018798663854598,-0.7635799414590001,-0.7205046237118542,-9.99773605095744,2.8996766088739037,92.29075232945206,35.56311478172057,0.4024031295918135
2012,0.01666666753590107,-0.2590044623317197,-0.7962742965757846,-0.672276745507121,-0.42362354478724296,-9.7945270160079,3.223192815941572,104.18528088221915,39.18453913626928,-1.2856296454419867
2029,0.01666666753590107,-0.2175956712909974,-0.16618892558813095,-0.08032061416655778,-0.4267659709988162,-9.022547787255048,4.125807134081423,92.75743866487153,36.69982559924536,-2.205194235100082
2046,0.01666666753590107,-0.9849769595280289,0.026775194200873372,0.8179045291036366,-1.2276264080547727,-8.736292804828286,5.213374699512124,72.85146704589467,32.2263488061159,-2.9359935269967696
2062,0.01666666753590107,-1.0176762100156396,0.10097732548713684,0.9238386002153157,-1.2876311054287477,-8.590393803074955,5.457881082750856,51.03811387477297,28.731887422953978,-4.248422059977536
2079,0.01666666753590107,-0.7106335833650081,0.00265431390106678,0.6007935177907348,-1.0103526804608292,-8.6188255323112,5.264549006432294,40.54180700737753,21.75708436519184,-4.763322273861294
2095,0.01666666753590107,-0.36195199191328137,0.30026597212255,-0.32757015863358974,-0.6720221131589263,-8.26792652053833,4.432715905219316,47.77863831981616,17.37132769157286,-6.7477125013507315
2112,0.01666666753590107,-0.23442560913134364,0.0028448680371046067,-0.4601432303458452,-0.5521623925473541,-8.501061907196044,4.413561415155232,53.91357911911873,13.774296503871206,-3.847483552395441
2129,0.01666666753590107,0.20594298995807767,-0.2214122156381607,-0.08928864125907421,-0.1325785150723532,-8.635137784686684,4.937143098449707,47.67809793523357,15.021908249175844,0.3066898478030001
2145,0.01666666753590107,0.19716376343593,-0.22403321179151534,0.47536944105029105,-0.15906437093783168,-8.585159409552812,5.587618931037187,30.94494384611898,10.060644958733464,0.020155247910472938
2162,0.01666666753590107,0.09469181547686457,-0.0680313336968422,0.5292512533634901,-0.26919764730501916,-8.399458558765053,5.689222279468178,14.542606554359368,4.425347865142961,-1.5158136372171749
2179,0.01666666753590107,-0.20514358320869505,0.08788052802681923,0.2518400871276855,-0.567425391598232,-8.224081533592939,5.443216889843344,9.794072066937975,0.059928186499397657,-1.4829486879217775
2195,0.01666666753590107,-0.029216742134094236,0.26771336356401443,-0.09797755914926529,-0.3895061711300164,-8.031047855699061,5.114612711986899,9.761937734440357,-1.092644357990569,0.0699688047031544
2212,0.01666666753590107,-0.059013037721812725,0.19719781183600424,-0.15574468846321105,-0.41793742544222623,-8.087762261089683,5.078849909210205,10.192207208752604,-1.2669730904458025,0.14299738741212908
2229,0.01666666753590107,-0.045495238370448346,0.05041150585412979,0.13757657908797263,-0.4001305505948141,-8.219293714794516,5.396529957470298,5.94020612964998,0.02823360079045263,-2.95481411325474
2245,0.01666666753590107,0.10818692807238549,0.07466857975423336,0.2240519164919853,-0.23837230093050746,-8.189366194042563,5.492447661480307,3.278256654183636,-0.4488081018235413,-4.091805822309144
2262,0.01666666753590107,0.10309238141234964,-0.09767243872284889,0.14518763861358164,-0.23358386107757687,-8.358006604436039,5.420023061260581,3.103519497760377,-0.8101513090959852,-4.281967680312407
2279,0.01666666753590107,0.07705496343411505,-0.1655026968896389,-0.05426993484795093,-0.24525555763822046,-8.418758887040614,5.232525974705815,4.677137239366781,-1.1370128399521486,-4.477215041039569
2295,0.01666666753590107,-0.12457637386992573,-0.0924041429311037,0.20562778652906416,-0.44427371676918115,-8.342296994128823,5.497835784259438,2.5760017900454892,-0.1103557132654398,-4.7292443256579855
2312,0.01666666753590107,-0.17664090762808918,0.030540099692344665,0.3628647593766451,-0.48991303978543727,-8.216599068883061,5.659742502483725,-0.8864015666384506,1.0944088946739594,-4.596272068462061
2329,0.01666666753590107,-0.08326015648348256,-0.017961188626289367,0.33871932915747166,-0.3811265383847058,-8.263136363652348,5.639540841454267,-2.993632212742038,-1.3586814001013292,-3.6097489999362153
2345,0.01666666753590107,0.13082489460436628,-0.2388566869139671,0.14826689992845057,-0.15457518802611156,-8.488340957310795,5.443066667717695,-1.084976296708466,-1.49357411439279,-1.2248474718529259
2362,0.01666666753590107,0.1589999456658028,-0.3673959730654955,0.07601122653484343,-0.12300170843172818,-8.617778653606772,5.36959577331543,2.4652760993065317,-1.1087446079681698,-0.16228772259830948
2379,0.01666666753590107,0.0194219636275433,-0.11074468626379966,-0.017390110740065575,-0.26366101943328973,-8.353667698448897,5.287743419536948,4.789603988013857,0.2131446975084162,-1.4345630942328782
2395,0.01666666753590107,-0.14954851897051558,0.010049684849381447,0.10274959585666656,-0.43499609400453043,-8.221388056725264,5.425559068077803,3.729880928379338,0.8084968558521083,-2.434440783411686
2411,0.01666666753590107,-0.14771540352553128,0.040676293781399725,0.09562076689004897,-0.4306566765607334,-8.18487881949544,5.427656332617998,2.5070388640997514,1.6489959227300766,-2.975942449678528
2429,0.01666666753590107,-0.08857316819978878,0.022809797701239583,0.07885258744060993,-0.3613744477536529,-8.199393082538247,5.416581980895995,1.1747861339398462,0.3292416383385013,-3.4237405372785537
2445,0.01666666753590107,-0.04966709896130487,-0.09724690678715706,0.011684592574834823,-0.31124585049413145,-8.322545414954423,5.345205428424477,0.09267258028790158,-2.088133757349349,-2.1681519847969875
2462,0.01666666753590107,0.030723749163560566,-0.18488894988298415,-0.03782499600350857,-0.2231093018796295,-8.410831016650796,5.295076831164955,0.5698284884672948,-4.186405649861113,-0.5611601246369025
2479,0.01666666753590107,0.1381271987080574,-0.22291619046032426,-0.041324528557062146,-0.11237742029847576,-8.4465932349056,5.295225884246826,1.3903637661749622,-5.792653979897018,0.8457650360063423
2495,0.01666666753590107,-0.020283895952813324,-0.2124275296717882,0.039758594414591786,-0.27024511053133754,-8.431929918780922,5.382764466968179,1.727811823440381,-4.519887928539693,0.30844205812937286
2512,0.01666666753590107,-0.12550046644490212,-0.19285013802051543,0.040292847421765324,-0.37154973174408074,-8.40843447690308,5.389497574615478,3.1638772391255445,-3.53723565628254,-0.4295009446284871
2528,0.01666666753590107,-0.15657299251351506,-0.14184592697024345,-0.15229074861705302,-0.39549180314457044,-8.350227787128091,5.208286436462402,4.560240259269305,-5.761940326746764,-0.7174851187702173
2546,0.01666666753590107,-0.11944969677226618,-0.015019874477386473,-0.011880991929769515,-0.3489544353100471,-8.219590651914476,5.354929534581303,6.7319300686129475,-1.5677614947233531,-1.2240488733285633
2562,0.01666666753590107,-0.15968798272889106,-0.08744213660955429,0.0482499439060688,-0.3826228778896853,-8.284533956468104,5.426755584385991,6.842072418508104,0.25083688299972,-1.433425013962425
2579,0.01666666753590107,-0.12261811594162135,-0.009878419935703276,-0.03275076147913933,-0.3398265780133195,-8.19804459053874,5.3595706383854145,6.5551972162915755,-0.4008501153292819,-2.19331653613343
2595,0.01666666753590107,0.028123138211108744,0.133077514103055,-0.060249009257555004,-0.1886926164822653,-8.049005537194013,5.341314850726723,6.2891143905690345,-1.2392138142766955,-2.9056273597205395
2612,0.01666666753590107,0.043770442138146605,0.11240122129917145,-0.020256606087088583,-0.169090090389736,-8.064868876758217,5.38874938659668,4.12586840258682,-0.8776629799256539,-2.34373629812074
2629,0.01666666753590107,-0.01996662843087688,0.06310907486379146,0.1134095215588808,-0.2305910907360725,-8.113648982018232,5.523273007854819,-0.47431458950530764,0.008139877943362695,-2.146797611800354
2645,0.01666666753590107,-0.04926136770462617,0.09933832610845565,0.1346592303365469,-0.26171578538333995,-8.081628288379312,5.538087130627035,-3.265070547104103,0.9673509409690318,-2.3765058382111683
2662,0.01666666753590107,-0.04010200102478265,0.0797077429652214,0.07491349442601203,-0.2525878732876852,-8.106167686352133,5.470899262017011,-2.6259782842024726,2.8474211279439254,-2.539885457261754
2679,0.01666666753590107,-0.0861835331168957,0.04635726202726364,-0.06865501855313777,-0.2935885401852429,-8.141182301110028,5.325003767395019,0.7076952165337675,1.52791641226132,-4.211543307327698
2695,0.01666666753590107,-0.0464943872093223,-0.00042903906702995297,0.06820201408863068,-0.24555496070990337,-8.185177510181068,5.466411302947998,1.2160722795950463,0.08324490486108736,-4.129878150516441
2712,0.01666666753590107,-0.06865618759691715,-0.06754150435328483,0.026098902374505996,-0.2581244463604875,-8.24922123554647,5.429300592693687,1.615081152014907,-2.0859794729964447,-3.47072519513566
2729,0.01666666753590107,-0.005453132573049515,-0.1376823775500059,0.05462766224443912,-0.18495167638827115,-8.313713873723149,5.466709409111738,0.8274197882259228,-2.082455735714953,-2.526539054180138
2745,0.01666666753590107,0.05286264359960332,-0.1404325530409813,0.16416121915280818,-0.12255277735413983,-8.315959022301435,5.577141960686445,-0.6446315463185109,-1.7142197469920555,-1.8885985319273006
2762,0.01666666753590107,0.0825626940049231,-0.12933482044339178,0.13229250120520591,-0.08888437130711972,-8.306534191352128,5.542876702991127,-1.0075994314789187,-1.34122866594636,-1.3468237648153638
2778,0.01666666753590107,0.07022314465269446,-0.11134265215694904,-0.0396142175078392,-0.09546844413885847,-8.288876954108476,5.370643821063638,0.24008125604765398,-2.153301445994087,-1.7585822525381114
2795,0.01666666753590107,0.09253142257258296,-0.14072481398582457,-0.007996259450912474,-0.06973066669432446,-8.318650745603442,5.401767273601889,0.7000574108552537,-1.2973596415678372,-0.8419257226408547
2812,0.01666666753590107,0.05540527728712186,-0.16549743619263171,0.03496785300672054,-0.1041473703579977,-8.343194235229491,5.445162763214111,-0.13459039837940864,-1.1918082460119874,-0.2107471143467566
2829,0.01666666753590107,-0.0016667093695141373,-0.07120353399217129,0.10681494559943676,-0.15801687117889524,-8.24936970410645,5.5163902626037595,-1.174646115061861,-1.1167591946289452,-0.8459628980488612
2845,0.01666666753590107,-0.055459902684343976,0.0027799861073493958,0.033278584745526314,-0.20560162004134616,-8.176945103886723,5.440671881535649,-0.8469945234177976,-0.9889497066719046,-1.53616109091976
2862,0.01666666753590107,-0.07476522679543122,-0.05755611691176891,-0.025185294660925863,-0.2198172563306056,-8.237699724578857,5.38171758826375,1.179013167262438,-0.7029411380671743,-1.402121509944316
2879,0.01666666753590107,-0.012196177092473953,-0.04516659093797207,-0.027440380111336708,-0.15113358707171864,-8.2230352394104,5.383062573131919,1.5616958598535586,-0.6656098853848234,-0.9336145022242233
2895,0.01666666753590107,0.05308328234665095,-0.0026069676280021667,0.05958849952220916,-0.0828988671567291,-8.180090416175126,5.4707525470227,-0.24795075454941937,-1.307959134664345,-0.091954916837161
2912,0.01666666753590107,0.03830998477516696,-0.02120879224538803,0.07825052989423274,-0.09516913239872082,-8.199991632953285,5.487510205078125,-1.505980832855001,-1.8351446177091346,-0.3401455017398977
2929,0.01666666753590107,0.07709195270994677,-0.013398995277285575,0.04762976618111133,-0.05297131900531239,-8.193855906677246,5.454440294647217,-0.950471729260932,-1.7789061207437191,-0.7492971517163748
2945,0.01666666753590107,0.07470650061182678,-0.06425882942080498,0.05025076233446598,-0.05327056681336835,-8.246675058194995,5.454139265874028,-0.7061171226703773,-1.704643608332286,-0.469728170838497
2962,0.01666666753590107,-0.05801595297586173,0.0008387889117002486,0.08801730614900588,-0.1803129106717184,-8.183679965099692,5.4888563589900725,-2.066218241623717,-2.5822990110168296,-0.8090899617319887
2979,0.01666666753590107,-0.08600001150984317,0.029558687439560888,0.11157587639093398,-0.2023096201580949,-8.15884012287557,5.506663818359375,-3.7200646658815604,-2.3156445838381234,-1.1193023728777172
2995,0.01666666753590107,-0.022458180385129523,-0.05031915139555931,0.08151566917002201,-0.13407490937625988,-8.24263835002482,5.470751377978921,-3.106783687853408,-1.562257216025969,-0.285409593031032
3012,0.01666666753590107,0.026251754848659038,-0.11103870077431201,0.048094461083412164,-0.08259955541659146,-8.308178451427818,5.430049365234375,-2.8805987718372625,-1.3243126352497654,0.7142800525021887
3029,0.01666666753590107,0.01704804670359008,-0.06641629971563816,-0.018928572353720665,-0.09008142647142521,-8.26673000423014,5.358223315429687,-1.7426016375926914,-1.666889524251629,0.2525974709799966
3046,0.01666666753590107,-0.010876262733479962,-0.11846154425144195,-0.021297055050730703,-0.11716579621932469,-8.318801552250982,5.3558279447257515,0.6266465376559567,-0.5798114502695032,-0.3710953833858998
3062,0.01666666753590107,0.06556521757794544,-0.10886018769145012,0.010598550903797148,-0.041748471323866394,-8.304584810850024,5.3947337217032905,2.500434711502584,0.284952557326023,0.26355706979223736
3079,0.01666666753590107,0.08422630723505281,-0.16277414870858192,0.05016074596345425,-0.02528838057606481,-8.355165243530273,5.43932689666748,1.8943920264473524,0.5931946189787614,0.5692452543451992
3095,0.01666666753590107,0.004102284219674766,-0.1030441948890686,0.12148702955245971,-0.10669120962191372,-8.29351338173747,5.513547148132324,1.0525952236270817,0.7139679448736309,0.22972199351086026
3112,0.01666666753590107,0.048325201099365944,-0.04137304387390613,0.13815525575876236,-0.064044483417226,-8.231563413780927,5.530604665917158,0.13696775777782266,0.18700337575980888,0.39633906886717934
3129,0.01666666753590107,0.05508172615487128,-0.026705051574110985,0.11918518235087394,-0.057310800381191074,-8.218395889171957,5.509356710705161,-1.380782077986492,-0.4919914926032709,-0.04218967829677208
3145,0.01666666753590107,0.009350130878435448,-0.04957622407376766,0.04163549420237541,-0.10055607700091786,-8.243835450854897,5.427955023303627,-0.9263101485154235,-0.5641583642391265,-0.6049756814408285
3162,0.01666666753590107,0.011681240707123652,-0.034631752920150756,-0.006987959191203117,-0.09561802694369106,-8.22961754041016,5.378274169811606,0.6324910451513719,0.8707634216468833,-0.24916490071566846
3179,0.01666666753590107,0.0349741457501892,-0.05767652842104434,-0.03161971162259578,-0.07332202398348599,-8.251015133225918,5.356126635411381,1.305463874461469,0.7709594701950404,-0.08271697926301297
3196,0.01666666753590107,0.06334725840068423,-0.03140636113286018,-0.018738018217682836,-0.04608801663182675,-8.221689085498452,5.373637157660722,1.206344062504538,0.9077490027242081,0.07804200826083015
3212,0.01666666753590107,0.0481604937906377,-0.00917465558052063,0.06449146913290023,-0.06239846064271405,-8.196995373746752,5.460573682835697,1.3508447185240915,1.5004918153615436,0.5851983350905277
3229,0.01666666753590107,0.01724031787267886,-0.02263619470000267,0.08474106095731258,-0.09636623322879895,-8.208969304656982,5.483021661487221,0.6644499271646848,0.8515177094739327,0.7671505191548477
3245,0.01666666753590107,0.014059587211022153,-0.04174304623007774,0.09633914429247378,-0.10295026039476506,-8.228570077183843,5.493794399914145,-0.592317846804914,-0.5221599045586883,1.1239201143651747
3262,0.01666666753590107,-0.00702716782358475,0.0005488660544157028,0.11756254958510398,-0.12479732314422726,-8.188615667936205,5.511451637157798,-2.018686741746187,-0.586298849320546,1.3097123588469226
3279,0.01666666753590107,-0.04367757622292265,0.02822363944351673,0.0826619165956974,-0.1635534807843156,-8.165123148667812,5.470150489476323,-3.265475022369015,0.3651566939851324,1.2728942241259689
3295,0.01666666753590107,-0.04746278471690602,-0.02916647325158119,-0.04575871161222458,-0.17028717295350507,-8.226773256894946,5.335178539928793,-0.8988489460705641,1.5949852413728487,0.7342258057042127
3311,0.01666666753590107,0.029217591517465186,-0.06298164909183979,-0.04640928447544575,-0.09636619669618085,-8.258647235539556,5.3374231039851905,1.8817143415741626,1.173796930448958,0.4283176143547824
3329,0.01666666753590107,0.08608518730895594,-0.06179740774333477,0.014713000485301017,-0.04264633347904309,-8.25460877380371,5.402815321350097,1.337379214018823,1.952036475164733,0.6202617515250228
3344,0.01666666753590107,0.038621361412433906,-0.03118073568344116,0.10065116227269172,-0.09427127937669866,-8.221984853574632,5.491698888939618,0.3932421116871075,2.9083637042567756,0.426762519018988
3362,0.01666666753590107,-0.035016669717663894,-0.05024199450612068,0.0410346056997776,-0.1765719157787971,-8.238595212113857,5.435584787529707,2.180945569442656,3.8481102222517896,0.24419620489874866
3379,0.01666666753590107,-0.00940101168230176,-0.04732581479847431,-0.00886135184764862,-0.15756796750077046,-8.232461239403486,5.390394815716147,2.5443773738580955,3.6242746778667168,0.8551861080276113
3395,0.01666666753590107,0.07242286492036655,-0.026636077991127965,0.08710837461054324,-0.08394629385042936,-8.210765540423989,5.487659258159995,-0.8313234014191437,2.9094247314556547,0.9397884596253858
3412,0.01666666753590107,0.08416152576999739,-0.028888825353980064,0.06418576418459415,-0.07571622564364225,-8.215105030933023,5.4614726775020355,-1.649560693997072,1.9955605749901697,1.0660091815484578
3429,0.01666666753590107,0.10000216031204909,-0.0997808091789484,0.002596446233987808,-0.06449342362796888,-8.286929327172041,5.398325024193525,0.03214058905761893,1.2788114091030214,1.18576267482288
3446,0.01666666753590107,0.029777189028449357,-0.032872342032194135,-0.07772387567162513,-0.14080854674652218,-8.217946391838789,5.320963552093506,1.636703396493052,2.473421099891772,0.6084196976081017
3462,0.01666666753590107,-0.05658785640150308,-0.02957739214003086,-0.0026607436418533323,-0.2313392970211804,-8.211961472210287,5.399971622356772,2.1918482589052886,2.216464901004249,0.6115197497176411
3479,0.01666666753590107,-0.04754809751333668,-0.05330255112051963,0.040243747583031654,-0.2259523432858288,-8.232909567692875,5.44695666089356,1.003797257267043,1.447246221913063,1.0881382474073586
3495,0.01666666753590107,-0.025821784199867397,-0.044102761098742484,0.1605570571810007,-0.20799586736727504,-8.22333509913981,5.56771537617147,-1.0860521582244487,0.9630378899515804,1.0707012013431394
3512,0.01666666753590107,-0.043006800821889186,-0.03929039238095283,0.11913315990269184,-0.2258027239483781,-8.221688500976562,5.521477941131591,-2.252815381210469,-0.7033896893965736,0.34566461475438537
3529,0.01666666753590107,-0.04937894793599844,-0.02926759553849697,0.07205284429788589,-0.23029185206117106,-8.214804586681723,5.469702161186933,-1.610408555570678,-1.492289932107122,0.08127156716033547
3545,0.01666666753590107,-0.04396598297655582,-0.06440963606834411,0.034706571722030635,-0.2225107149319723,-8.251914712414145,5.429450230297446,-0.0800725487958809,-1.0602692613247084,-0.5754830313264192
3562,0.01666666753590107,-0.026818211358692494,-0.03787526488602161,0.009362287107110023,-0.2041053079358302,-8.224681253051758,5.405210692054033,0.3158860571901876,-0.28932988149078137,-0.10959022515029591
3579,0.01666666753590107,-0.03702754374919459,-0.029269933626055716,0.0536047489374876,-0.21383171564759684,-8.216150156071782,5.449351447075605,-1.3424026047099558,-0.35690932060362135,-0.01769040339374459
3595,0.01666666753590107,-0.056633522174134844,0.012800444862246513,0.08164718659520148,-0.23223714091004802,-8.1776944609493,5.471947894287109,-2.481624157084957,-1.207615224742101,-0.6570158532225077
3612,0.01666666753590107,-0.017080131475441157,-0.037003742748498915,-0.005812485671043395,-0.19018902905248106,-8.229769516101479,5.381117868804932,-0.9988513465343075,-0.7779124426875548,-0.7511168635216543
3629,0.01666666753590107,-0.004326704092696309,-0.0748451053649187,0.0030687399208545684,-0.17582378255892545,-8.26777571389079,5.389796849822997,0.5529549330096015,0.26295123734894255,-0.8696800896114958
3645,0.01666666753590107,0.029516674928739665,-0.057144613501429554,0.044374563777446745,-0.14110780368773265,-8.24862093156576,5.43334022347331,0.6942582067239427,0.12877617316800885,-0.18330546865448166
3662,0.01666666753590107,0.06013446123348549,-0.0753027860045433,0.08335574407875537,-0.11118028293577953,-8.265828671476244,5.473741791966557,-0.11191014159057307,-0.7764018503030712,0.7427250156309415
3679,0.01666666753590107,0.03946987713370472,-0.054636430072784424,0.11194178709387778,-0.13272813440980388,-8.246527174156904,5.500228232353925,-2.5076604113142227,-1.5591699705211233,1.291237764359096
3695,0.01666666753590107,-0.06419937258483842,-0.022146949878334998,0.12058394323289394,-0.23642701208163053,-8.221090535083412,5.498135059466958,-4.7495193153223445,-1.8366600659312313,0.8563152236747791
3713,0.01666666753590107,-0.08547209691191092,-0.060143795317411416,-0.04622340651452541,-0.2561791575116105,-8.264632155168057,5.322907087376714,-2.298942850326738,-1.8794759605171025,0.08766899981340445
3729,0.01666666753590107,-0.055585364828072484,-0.1463578514367342,-0.03771335232257843,-0.22400707270326092,-8.35127408131063,5.33083963394165,1.1535871477468307,-1.0165000217410916,-0.16426885098358343
3745,0.01666666753590107,-0.06953253204002977,-0.11407353842556477,-0.018842647635936734,-0.23433206736268475,-8.314760167905687,5.356276273015141,2.232581372681129,-0.554217984397525,-0.7036798123537406
3762,0.01666666753590107,-0.03507242762604728,-0.04125906210541725,0.06571838057935238,-0.1978205468442291,-8.239645597949623,5.4444151597172015,0.2765104435118872,-0.6430043604704612,-0.35874968305896954
3779,0.01666666753590107,-0.022686043457407504,-0.04530921427905559,0.02795709746181965,-0.18420347010316326,-8.243683475163579,5.406705314525961,-0.4616792197884601,-0.5536794133092988,-0.35466037409768886
3795,0.01666666753590107,0.07033106200657785,-0.09476035066843032,-0.0189618901014328,-0.09202672445345669,-8.293064468926191,5.359868160027265,0.6662986672739367,0.017462605912754083,0.4422629129688179
3812,0.01666666753590107,0.08138066287981346,-0.14038696033358572,0.03059329118430614,-0.083497362772841,-8.338854744720459,5.409100685229897,0.009957081788556322,0.720206095380821,0.6446097217296787
3829,0.01666666753590107,0.06182909978954121,-0.10523498293161392,0.008289104917645455,-0.10549412705814465,-8.304138820648193,5.386057078772783,-0.018511106651417156,0.6601978676020873,0.5048557803790197
3845,0.01666666753590107,0.0010002082847990095,-0.059334817022085186,-0.04546235901415348,-0.1701375353497453,-8.257450719231366,5.333382304161787,0.6469102148195035,1.5858989553426162,0.4455397495839844
3861,0.01666666753590107,-0.03324899332486093,-0.024355273577570915,0.00634556963443756,-0.20754691802337766,-8.221837554058432,5.3860564942508935,0.3508231684858904,1.5393436389078687,0.45985630633200714
3879,0.01666666753590107,-0.010977339354623108,-0.029247137272357938,0.030825930896401402,-0.18824375846991315,-8.226628295466304,5.410598230311274,0.05313667060751746,1.1649504480916164,0.8050101510025225
3895,0.01666666753590107,0.0004968618725426495,-0.03145896810293197,0.01508709449470043,-0.17896615397157145,-8.228868767869471,5.3947337217032905,0.3538114829694768,0.6721659064926835,0.15609708993061852
3912,0.01666666753590107,-0.032307401625812054,-0.027761867150664327,-0.009664484924077987,-0.21218572027254848,-8.224830306133628,5.370493598937988,0.5998136592538855,0.6650095757898027,0.06526152370454624
3929,0.01666666753590107,-0.006206654354091733,-0.011273673686385153,0.001928337714076042,-0.1868969652371481,-8.208371338763833,5.3820151099056,-0.3080544982548275,0.3187304574535277,0.1521348731807103
3945,0.01666666753590107,0.004942918028589338,-0.021428572475910186,0.05605740278661251,-0.17702086512269452,-8.220040149247646,5.43378913628459,-0.8145210293392066,0.6447513947941035,0.11049106306879714
3962,0.01666666753590107,-0.03730318235279992,-0.007409399473667144,0.04471650908291339,-0.21996687566805628,-8.206125021141768,5.422267040795088,0.7054421612421625,0.7644001940751539,-0.48635514579498235
3979,0.01666666753590107,-0.03137786569073796,-0.04387830469310283,0.027747254103422162,-0.21353242217376828,-8.241288104459644,5.407303864941,1.0377123481473298,0.184868408035651,-0.465342602421967
3995,0.01666666753590107,0.025092940202355384,-0.10420154823064803,0.06475567302703857,-0.1578672518414445,-8.300546933636069,5.44591036671102,0.17520244972025323,0.41589123241828135,0.28817838096582593
4012,0.01666666753590107,0.007067381102964281,-0.08064239346683025,0.08471241938471794,-0.1768712457852438,-8.276904192242025,5.465961805614829,-0.0036610614364061705,0.2871833077811197,0.22755519603795304
4029,0.01666666753590107,-0.010595409098640084,-0.044783729100227355,0.0744049603819847,-0.1951269969113171,-8.241140804943441,5.455488342395425,-0.10413908719228444,0.13483636523080844,0.38378483432715216
4045,0.01666666753590107,-0.003803849262371659,-0.07281681440770625,0.03747837452292442,-0.1897400614422746,-8.268674124035238,5.419275457763671,0.6766605444925221,0.25937125772850383,0.276623595200442
4062,0.01666666753590107,0.059189490267261856,-0.07778934212327003,0.02016483615040779,-0.12823906109593808,-8.272266595569253,5.404013591223955,1.3374893508191894,0.3377220652450126,0.6342081440365426
4079,0.01666666753590107,0.03920797479450702,-0.09039046502113342,0.041540801656246185,-0.15023575231600553,-8.282739474266767,5.428552989196777,1.3521959220409905,0.22831017206507748,0.8293809062913627
4095,0.01666666753590107,-0.0020308665067888796,-0.023103812211751937,0.0872626883894205,-0.1924335200436413,-8.214205451744794,5.476136578148603,-0.264580024022579,-0.9681144280521923,0.5056987751329873
4112,0.01666666753590107,-0.013815339259523898,-0.05969955868124961,0.1103945576518774,-0.20350675752079114,-8.251466968646644,5.498284112548828,-0.6618883927825184,-0.9527946339089711,0.1925731815845427
4129,0.01666666753590107,-0.004568129899445921,-0.01598725820481777,0.09230009803473949,-0.19348100153626874,-8.208369000676274,5.479278967827558,-0.0937898098050879,-0.5792073520539273,-0.02639801413143815
4145,0.01666666753590107,0.010758929097279905,-0.002547346395254135,0.008368015372753142,-0.17582374602630732,-8.194303650444745,5.396380904388427,0.5574893782056967,-0.9629798333436352,-0.4479552353117888
4162,0.01666666753590107,0.031085696077439932,-0.02712181568145752,0.08961948064863681,-0.15277959157992155,-8.218546695819496,5.478232673645019,-0.11387775633985242,-1.1067585170235772,-0.3407609124562865
4179,0.01666666753590107,-0.009371712522581219,-0.027131168031692503,0.11429507222175597,-0.19018891945462674,-8.219890511643886,5.500975835850834,-1.6265794553175064,-1.4470115408820496,-0.22055852100692125
4195,0.01666666753590107,-0.021021142452489584,-0.017561375653743744,0.046613867136836046,-0.1994665239529684,-8.212409800499676,5.430197833794355,-1.300996290414046,-1.381889635849092,-0.23883218520318789
4212,0.01666666753590107,-0.03299596841186285,-0.056798576542735096,-0.06812368815541267,-0.20904331232728435,-8.252213403099775,5.314677603691816,0.29627850507378506,-0.9571459980187981,-0.6886460323820136
4229,0.01666666753590107,0.000520297547057271,-0.0967179144769907,0.008587795603275298,-0.1714842737835832,-8.289922079247235,5.39488452835083,1.4775990489760709,-0.31536325423399075,-1.1293376283157583
4245,0.01666666753590107,0.033914398431032895,-0.10827800388932228,0.04193944558501243,-0.13542159301117063,-8.30024590486288,5.430197833794355,-0.20157738528281613,-0.6280535032641263,-0.4427977221169152
4261,0.01666666753590107,0.016931516784988342,-0.1246983928143978,0.05364040477275848,-0.1508343027310446,-8.317605620464683,5.440523997497558,-1.6419386297701608,-1.2838214595809316,0.3422224928973899
4278,0.01666666753590107,0.011759703637659548,-0.051529696229100225,-0.01151741931438446,-0.15427591281859204,-8.247573468339443,5.370642652019858,-1.3462755354127645,-1.726781425371061,0.3627392072253446
4295,0.01666666753590107,0.023067279593646524,-0.07064882271885871,-0.028700024783611295,-0.14095818435028196,-8.26822462670207,5.351190932574868,-0.4321752038123851,-2.4430963406373847,0.443642584500734
4312,0.01666666753590107,0.06678778164284303,-0.15069909551143645,0.004285129973292351,-0.09576768281375989,-8.349329961505532,5.382614244842529,-0.716461710972626,-2.289089235231937,0.9222191853677032
4329,0.01666666753590107,-0.002102543503511697,-0.10416121622025966,-0.0014057751446962356,-0.16325418731048702,-8.304286120164393,5.374682867321372,-0.42965331654391653,-1.1441030031974448,0.5534384356976444
4346,0.01666666753590107,-0.05606896536024287,-0.09870411985814571,-0.03156009038984775,-0.21652521078158168,-8.298303538623452,5.345354481506347,1.2157723916018004,-0.686085084969229,0.04504741877333484
4362,0.01666666753590107,-0.015148980749770998,-0.030620179191231726,-0.041972178810834884,-0.1744770989240147,-8.2281246715039,5.338172461047768,1.784131642345602,-0.631718006475544,-0.10757102379648445
4379,0.01666666753590107,0.05453483286183327,-0.05870061077177524,0.04801496610641479,-0.10324950820282101,-8.254009638866782,5.431545156750083,0.6339559072849281,-0.9986976672779823,0.2970234225801396
4395,0.01666666753590107,0.06576844853246584,-0.06458557715713978,0.07968027043640613,-0.09232596312835813,-8.260143611577153,5.462819415935874,-0.787017938624828,0.2638110407715708,0.7258055698397622
4412,0.01666666753590107,0.03590535305254161,-0.06221475637257099,0.035977322310209274,-0.12434846513187513,-8.259398346167803,5.416583149939775,-0.8690491508869158,0.4261188003701407,0.9794829577605612
4428,0.01666666753590107,-0.025727785773482174,-0.012732640323042868,-0.08104922070205212,-0.18974007970858364,-8.210912839940189,5.297918776592612,0.39430095109101815,0.6754375137442667,0.6026595002602537
4445,0.01666666753590107,-0.028286822606530038,-0.010808978784084319,-0.03742869016230106,-0.1942291712887585,-8.207920087864995,5.343109332928061,0.967011032336118,0.9379723763581029,0.08722263627897353
4462,0.01666666753590107,-0.017542835350055245,0.014998831689357757,0.07677285855710506,-0.1839042496945709,-8.181436570087074,5.458330872344971,-0.8312235099025324,0.20267263012861148,-0.054569582930405314
4478,0.01666666753590107,0.013320760675612836,-0.03440612747073173,0.17225918541252613,-0.1529292291836813,-8.233211180987954,5.550207776531577,-2.746384060542631,0.3503454287699597,0.3248071380198705
4495,0.01666666753590107,0.028978421599883585,-0.034223756641149516,0.11672492971718311,-0.13871365682650358,-8.237401033893228,5.487959702411294,-3.1597520183102685,0.04773944712124545,0.6223979999096501
4512,0.01666666753590107,0.011303265107050537,-0.012975801429152488,0.02126490634679794,-0.158765040931385,-8.221686162889004,5.3839603987544775,-2.692153425749787,0.725356378180128,0.5321536986140335
4530,0.01666666753590107,-0.007015541317872702,-0.0420715475320816,-0.0018424129962921142,-0.17866686049774289,-8.252662900432943,5.357923455700278,-0.3878626173442084,0.8149407124471921,0.2526889581622777
4545,0.01666666753590107,0.004307305272482335,-0.07560147669017314,0.038571430456638335,-0.17043679229095576,-8.286331361278892,5.398026333507895,-0.08316827867633628,2.0333656720461906,0.3947979273944159
4562,0.01666666753590107,0.02686225142981857,-0.02839431983530521,-0.0023228899896144866,-0.15188176595736294,-8.237250227245688,5.359868744549155,1.2647936197703338,1.633553185181795,0.45967573320582494
4579,0.01666666753590107,-0.07899301882460713,-0.04579086031615734,0.11846738947033882,-0.26051864802064373,-8.252063765496015,5.484516868481039,2.062513931216043,2.979438225873105,-0.518983546429515
4595,0.01666666753590107,-0.08736638622591271,-0.05167699574530124,0.14475275432765483,-0.27144221136141566,-8.255806459155679,5.513996060943604,1.1141973400816614,3.7631221784093207,-0.7427639690535518
4612,0.01666666753590107,-0.018751845813635735,-0.14241232868134976,0.048884150156378745,-0.20874401885345578,-8.343791032078862,5.4221174031913275,1.8977424476786553,3.770122695421761,-0.2412927074908321
4629,0.01666666753590107,0.06361311539579183,-0.13598843311369418,0.04908113403320312,-0.1322792581311427,-8.334514669689536,5.42645747822225,2.085974990684802,4.058590185488549,0.9925787782770028
4645,0.01666666753590107,0.06159361053323373,-0.18660861328244208,0.03461363274157047,-0.1430531290692277,-8.38239753384888,5.415832039311528,2.2234517576383492,4.6280461084809605,1.3971514801060738
4662,0.01666666753590107,0.04776197772603482,-0.1405237384557724,-0.05691840353012085,-0.1692396731945686,-8.330023203489183,5.333382304161787,4.551498470905335,4.370347766851434,0.9711363598730999
4678,0.01666666753590107,0.0244952483038418,-0.06876023249328136,-0.0459580335766077,-0.2005139689129777,-8.251167693439125,5.354781066021323,5.101995923195907,3.83271625652305,0.8999451914323512
4695,0.01666666753590107,-0.004853760174103081,-0.126729021859169,-0.02461070964336395,-0.23642695728270335,-8.302190609189868,5.386354600414633,4.915840824914502,2.9455630489107807,0.8666098662187222
4712,0.01666666753590107,-0.015251966200210153,-0.0987216555148363,-0.007398293557763099,-0.252737529157754,-8.266580366626382,5.4147863296508785,3.5089497084954018,2.349020730104214,0.420397076197227
4729,0.01666666753590107,-0.05969296454368159,-0.06061375091671943,-0.011653028392791748,-0.2995740808682516,-8.22408211811483,5.417030893707275,3.645730009597019,1.597632259841346,0.04345921302832176
4745,0.01666666753590107,-0.053347632371261715,-0.04594283600747585,-0.014967267507314681,-0.29448645713934674,-8.204481345587968,5.421072278052568,3.470097244618842,0.9516935860704239,-0.5424950319042559
4762,0.01666666753590107,0.04173466199422255,-0.050237902852892875,0.03361643839776516,-0.19841898766141383,-8.204179147771,5.476586075481772,2.105295247969241,0.4983238783766661,-0.3256713170324358
4779,0.01666666753590107,0.06713290528608486,-0.09895137261748313,-0.022167992666363715,-0.17298066808748988,-8.251017471313476,5.423615532794594,1.7118192556639134,-0.32431392365660155,0.15152177032120911
4795,0.01666666753590107,0.011483480512164532,-0.08266893085837364,-0.07472235576808452,-0.2286458201535046,-8.232012326592207,5.375132364654541,2.8021536223328427,0.20572439066628492,-0.09126696204126733
4812,0.01666666753590107,-0.01940415397621691,-0.033767829567193985,-0.03658873220682144,-0.26066834042333065,-8.176348891559243,5.423316257587075,4.169436044868216,0.9925312871179301,-0.11086192099638767
4828,0.01666666753590107,0.020913864419423042,-0.00034837504625320433,0.056764089751243585,-0.2222113849255256,-8.138338017594814,5.523422060936689,2.2974574976256723,0.6112751435679901,0.4127128999375511
4845,0.01666666753590107,0.01561891808276996,0.0004974281281232833,0.07853226944506168,-0.22879551255619152,-8.136095791625976,5.5472161935001605,0.002583932600167226,0.04187498266684903,0.6154832871486584
4862,0.01666666753590107,-0.06641556906327604,-0.00938157632946968,0.018203180688619612,-0.3103479700726457,-8.145970119908451,5.4869093165755265,0.881244240206562,-0.11147495715482275,-0.3886202880944038
4879,0.01666666753590107,-0.061856115660630165,-0.040546529921889306,0.049691959407925604,-0.3048114335324615,-8.175600703540445,5.520730337634682,1.7005361033201696,-0.01696293488628534,-0.338603026245812
4895,0.01666666753590107,-0.002725643837917596,-0.0740875649958849,0.07898118225634097,-0.24510595656707881,-8.207620812657474,5.552302118462324,0.5655217873913374,-0.7899023595278362,0.13478429837860031
4912,0.01666666753590107,0.0682657269746065,-0.07493161460459231,0.04220189591348171,-0.17327990676239133,-8.209415879380703,5.514145114025474,-1.1919833763311747,-1.1628947745948541,0.5698936954295274
4929,0.01666666753590107,-0.021868260801117867,-0.024223171630501746,-0.04453413825333118,-0.2623142992657609,-8.16018569226563,5.425260377392172,-0.8708621392247311,-1.3025279603354214,0.200814098302854
4945,0.01666666753590107,-0.028439236689265814,-0.03342062356472015,-0.06583820756673812,-0.26829980341615156,-8.169463808220625,5.403862784576416,0.7423110954950682,-0.726368153311789,0.43716262928866956
4962,0.01666666753590107,0.007898224170226602,-0.1054839892566204,-0.01217091478705406,-0.23313498479891567,-8.239345153698325,5.4607250740051265,0.9401752190871379,-0.8802573312323481,0.3253246582516312
4979,0.01666666753590107,-0.0254883144618012,-0.09675357031226157,0.039811201384663576,-0.26590565655492243,-8.230068791308998,5.513547732654214,-0.13316240859519995,-1.2021507532409734,0.5438698742789854
4995,0.01666666753590107,-0.07020986504601315,-0.1024123267263174,0.03641922085881233,-0.3091508144436404,-8.23590173524618,5.5099552611202,-0.16949604011211913,-2.10370680210039,0.5140822453697962
5012,0.01666666753590107,-0.057429129531234496,-0.034465164181590076,0.02744973246157169,-0.29299006283544005,-8.168867011371255,5.499781657630205,-0.6307539893072202,-1.4225390798075996,0.20661763800346242
5028,0.01666666753590107,-0.04960789785366505,-0.0931534999936819,-0.020360650983452796,-0.28475990329710765,-8.228419855058192,5.450697600987553,0.10494852463989046,-0.764366470016127,0.6180556004231087
5045,0.01666666753590107,-0.010514927740953863,-0.05613923585116863,-0.045083004307746886,-0.24615341979339717,-8.190262266099452,5.427653994530439,1.7649067942661316,-0.026728024326140836,0.2804676310014105
5062,0.01666666753590107,0.023846118479035793,-0.041999651339650154,-0.0167266783952713,-0.2129339082913473,-8.17170837227702,5.462519556206464,2.586952504275724,0.020851713762402677,0.45961468839011793
5079,0.01666666753590107,-0.022214571754448114,-0.024124387431144714,0.06459083785414696,-0.260369028683193,-8.150909329876303,5.54811285007894,1.6824025914040206,0.10870902402565849,0.22442211356047415
5095,0.01666666753590107,-0.0403797585202381,0.0006453121662139892,0.06296878961026668,-0.27892412808202205,-8.124125367847084,5.549460757556558,1.1721807369366037,-0.027237567110394365,0.05284458663900685
5112,0.01666666753590107,0.013041852402687073,-0.07367489254176617,0.0903431187480688,-0.2262516002270393,-8.196697267583012,5.579387109264731,0.8502266436382416,-0.6426578884526417,0.5370581479640728
5128,0.01666666753590107,-0.0014986045273020863,-0.08350479716062545,0.1552022521495819,-0.24031760804569346,-8.205676692852377,5.645528099170327,0.7497017337029922,-1.0356327689884723,0.2311957135459963
5146,0.01666666753590107,-0.04111848459094763,-0.06918459538519382,0.1507066942960024,-0.27952266023075206,-8.19116301433146,5.641337661743163,-0.08776801087594319,-0.4862982631258008,0.09061008994218252
5162,0.01666666753590107,-0.02257288367282599,-0.07975333567261696,-0.05472293931245804,-0.2602193362805061,-8.199539797532559,5.439176090019941,2.5591299421350886,-0.4372003820920897,-0.16844599190872223
5179,0.01666666753590107,-0.016702530334703623,-0.11391162586212157,-0.03741933781206608,-0.25318638717010616,-8.228120579850673,5.464765289306641,4.854105306327695,-0.4970541568821313,-0.7158258096887273
5195,0.01666666753590107,0.027711196409352122,-0.1227946050196886,0.04160276097655296,-0.20679874827088787,-8.23036631295085,5.553650025939941,3.6909859892638774,-0.6114079053699822,-0.39340753033106873
5212,0.01666666753590107,0.09033884443175047,-0.06319499958157539,0.12515724249780177,-0.14305316560184583,-8.167071360126137,5.642684984698891,0.16096550736474344,-0.3973395048176011,0.46773103419735584
5229,0.01666666753590107,0.016616002828720958,-0.028068741142749785,0.044452889710664745,-0.21742310946937649,-8.132505073657631,5.561133659693598,-0.7935785487660368,-0.7861181679233846,0.29289585388733624
5246,0.01666666753590107,-0.04768156943358481,-0.018531681990623473,-0.022782909694314003,-0.2792234032895416,-8.124125367847084,5.492299192920327,-0.46897989159841036,-2.4937996096107398,-0.5081828295567563
5262,0.01666666753590107,0.0003371960651129484,-0.08668634980618953,-0.05359364302158355,-0.22430634791078044,-8.193705684551595,5.459677610778808,-0.5957494298934635,-3.602184565430426,-0.17056943368865574
5279,0.01666666753590107,0.07208280104473233,-0.00784311471581459,-0.005411503654718399,-0.14649479395570233,-8.116043768200278,5.5063645431518555,-1.0209734754823325,-4.833028196322682,0.05428279502654411
5295,0.01666666753590107,0.022846677379216997,0.0771370156943798,0.06693418610990047,-0.18764513498963786,-8.032546569824218,5.576844439044595,-1.4532706622044258,-5.24800487708327,-0.41025323142355313
5312,0.01666666753590107,-0.15622067194450645,0.16450608706772327,0.38394554132819175,-0.3565860079007223,-7.949346893090009,5.888088901299238,-3.6305827844520464,-4.385198305654334,-0.0871624452369128
5329,0.01666666753590107,-0.03463102226778865,0.31121114450693127,0.6451648666977882,-0.22999261338626964,-7.810334143719077,6.138133921703696,-6.889341169546,-5.117254138914893,1.14431335167954
5346,0.01666666753590107,0.061971577000152316,0.38928105713725086,0.7353858203709125,-0.13048351555448023,-7.74464148210287,6.2101090245902535,-10.189577585922148,-4.803501288540717,2.859241197189456
5362,0.01666666753590107,0.08282081521814688,0.6344850672513246,0.9723983407229184,-0.11207810855833814,-7.52153239941895,6.414065078514814,-12.94992169935464,-3.6750298135890813,3.889611305422433
5379,0.01666666753590107,0.08669877089634537,1.0042050993502138,0.8949521129488944,-0.11132993880584835,-7.170184474834799,6.308869843071699,-13.867499557737908,-3.9141611397335745,4.115452364102551
5396,0.01666666753590107,0.12796840919470415,1.1087158596605062,0.9141542415469884,-0.07392059266483411,-7.08623836364746,6.296750950732827,-16.365177647580158,-3.5890326092967433,4.347180192073574
5412,0.01666666753590107,0.10799098537517711,1.2907196094959974,1.1436316902190446,-0.10100498067904264,-6.9391451836735,6.472426082068681,-22.812544959897448,-1.2286688559718422,4.010883021683302
5429,0.01666666753590107,0.0023666012671776115,1.5318898340493439,1.2622481327712536,-0.2139813897839747,-6.732196962195634,6.5375172706604,-27.401014817893238,-0.8025824456394062,3.741565247615114
5445,0.01666666753590107,-0.05575328700719401,1.6003408544629811,1.3467606456696986,-0.2787745087445713,-6.712144938769936,6.545149372974038,-26.430047078315273,-1.4259696490399445,2.3780895883249653
5462,0.01666666753590107,-0.024417251164186745,1.673192155662179,1.6312351744204758,-0.24899658906375988,-6.675932638660073,6.770503604236245,-28.94672419310756,-0.7729814729936286,0.3990907012877689
5478,0.01666666753590107,-0.014590397018939256,1.6498130336403847,2.2277964614689347,-0.23852190200164913,-6.74281772493124,7.295729839867353,-36.85646574257584,-0.5493115606959286,0.02285728141830056
5495,0.01666666753590107,0.025564777231495826,1.6090198354810474,2.4853052418828008,-0.19856864353148265,-6.837687965714931,7.462575183537602,-45.334431219665,0.20711235981082554,0.3110347819300538
5512,0.01666666753590107,-0.04112496913066133,1.4380956980645656,2.8409546630531546,-0.26829983994876966,-7.09297264033854,7.672069874627888,-52.93072514283765,5.2937368355579135,-1.0103038662251265
5529,0.01666666753590107,-0.16007992292223497,1.1891945869982241,2.761508201372623,-0.3930976197507232,-7.407511467963457,7.474549114447831,-50.74120896664709,8.864217797295256,-0.9617198768851795
5546,0.01666666753590107,0.15215725843049585,1.1184966644406318,2.9736878937631843,-0.09980786158265545,-7.5523600838810205,7.547871540290116,-40.90957854323687,18.185168636841972,-0.41969967653037166
5562,0.01666666753590107,0.26352544688750057,1.215538404044509,3.2426381056457756,-0.014664101575966924,-7.501782573810219,7.7260890495851635,-38.83768846983769,23.50797774571522,1.2926644201219823
5579,0.01666666753590107,0.40326672972869126,1.411001939433813,3.296010214871168,0.09247647751495242,-7.352442491692305,7.68643420780599,-41.36016953787719,23.675158578482332,3.237572632392455
5596,0.01666666753590107,0.32342060120608657,1.6798042672783136,3.421532199028134,-0.03770823775604367,-7.1481865780383345,7.676708348083496,-44.91416626493953,27.287440724826975,5.269817939971352
5612,0.01666666753590107,0.34356863235216584,1.8818582869738338,3.5080718338400123,-0.06494231817293912,-6.994810372272133,7.6563582184940575,-44.58629669421141,37.31496268118046,5.429537217957045
5630,0.01666666753590107,0.2922276270955801,1.9529513463288544,3.405148050460219,-0.17402805824857204,-6.969369057023525,7.4480615050166845,-40.79553828975975,46.841802743068044,5.3953879796542745
5645,0.01666666753590107,0.3385435707317665,1.9653607460469007,2.7592142452165485,-0.2177222385464236,-7.007227955296635,6.677578360040486,-33.37930181348698,55.024891878214824,7.451137035384242
5662,0.01666666753590107,0.35915647944323714,2.1125813517928123,2.374550326485932,-0.27503340425379574,-6.888713804075121,6.214448807360231,-25.671737278545656,60.7740123667763,9.173617682734017
5679,0.01666666753590107,0.1244283437013626,1.944927029827237,2.0637477627798915,-0.6223423556454479,-7.085040093773603,5.815067211969197,-21.872451382915234,74.5554967909753,4.808945803082864
5695,0.01666666753590107,-0.23745551487915217,1.3864707247674464,2.26331493409574,-1.0667659657467157,-7.664885223820805,5.945101705114543,-24.422476896330107,80.21964289607264,1.1383714072667463
5712,0.01666666753590107,-0.19960845317430792,1.013324809873104,2.518451432420313,-1.1044748610898851,-8.065168151965738,6.114641110174357,-32.55513020709822,80.38985804037853,-3.090877884823741
5729,0.01666666753590107,0.1664189349517226,0.7565408366024494,1.833746874755621,-0.8149260247495025,-8.364441605919598,5.300014287567138,-31.386669255216628,70.36419218793199,-5.339171253916838
5745,0.01666666753590107,0.20575711199715732,0.17852759815752506,1.4316764786720275,-0.821659716918692,-8.971073620605468,4.808005554144084,-30.068172952931953,69.35688271932769,-8.10896194585828
5762,0.01666666753590107,0.479265571705997,0.22729075228273868,1.6074433799445629,-0.5856812157895416,-8.954761952751875,4.882524788555503,-40.778575514956025,68.34107649539587,-10.879240569438554
5778,0.01666666753590107,0.6841138252299278,-0.19370295545756816,1.4294035653039812,-0.4112037698056549,-9.421630691960454,4.562450246374309,-62.84950194986807,63.18396948333442,-8.340687212508364
5796,0.01666666753590107,0.4047925875891,-0.08023030553460121,0.9321864495828747,-0.7323262866698205,-9.386019280353189,3.8096240463808178,-74.64130445751816,63.74510367459682,-9.917099141815537
5812,0.01666666753590107,0.20479053198732433,0.2814303387492895,0.20357056173831223,-0.9335888637267052,-9.080458708953858,2.8923458275943994,-65.84779790115276,41.6930763731182,-22.299445781520458
5829,0.01666666753590107,-0.3058740212626755,0.24707740277051923,-1.9957658211827276,-1.358709149877727,-9.183707486504316,0.47854047230184077,-66.28517589484369,-4.0039179362771815,-38.921867136263515
5845,0.01666666753590107,-0.31810842973999676,-0.18591537032127378,-3.0884070366159078,-1.2599481852658092,-9.674069329503178,-0.7953235717222094,-83.35626383842842,-21.83735274831783,-41.67012693750696
5862,0.01666666753590107,-0.017829671201109884,-0.7632160765826702,-2.978666266697645,-0.8562261495176702,-10.312125240978599,-0.9084491617731749,-100.22164697477987,-19.428039377088975,-30.571755970247825
5879,0.01666666753590107,0.9540352932974696,-2.0469898124635217,-3.2427859896838664,0.19572627797871828,-11.671731924217939,-1.5224137113042175,-108.86843423758424,-10.923852803776139,-11.131702290408796
5895,0.01666666753590107,1.0996681183952837,-3.109529611882567,-3.8676281993210315,0.3595795271608978,-12.779648157933353,-2.4145528126589952,-103.19450730159544,0.5364344663154861,-2.024633275192329
5912,0.01666666753590107,1.204796133821085,-3.723674486416578,-3.9048809483945366,0.45968701101094483,-13.427430513653158,-2.699761573968455,-91.97689147671164,11.044300628468374,3.739277988016806
5929,0.01666666753590107,0.9593871757194399,-5.263029834040999,-3.558854511094093,0.18824439779073,-14.99682970188558,-2.6484355105526745,-81.12265537605086,18.505458405138672,7.878503679299233
5945,0.01666666753590107,0.7950922471843659,-5.091926832926273,-2.528584411638975,-0.0005982581540942192,-14.840907318767904,-1.8252786869440227,-79.22481218308194,24.31449502064679,6.788675280237413
5962,0.01666666753590107,0.6618648032166063,-4.670767705491185,-2.014754599291086,-0.15233071530126036,-14.430899699944257,-1.5174750858582555,-77.37717088051262,24.218252532599433,5.316240601325813
5979,0.01666666753590107,0.026198124965280293,-4.444841227298975,-1.3387807528316973,-0.8105866073057055,-14.21242938297689,-1.0850220091337337,-62.30963013749192,14.851296953898094,5.981639764702571
5995,0.01666666753590107,-0.7194969810392707,-3.9104298146933316,-1.1995277649641036,-1.566855129772797,-13.679869151195883,-1.0974422590393573,-56.10781154093117,3.3111538334341795,1.089670450937263
6012,0.01666666753590107,-0.9650873601224272,-3.5482997993320224,-1.4228642266631126,-1.8058263099119065,-13.31879361332357,-1.4541777561300782,-46.255605172646284,-2.5817389355048883,-6.219149347806009
6028,0.01666666753590107,-0.751932027632743,-3.230771726763248,-2.4871073228687046,-1.5626651307370514,-13.003057684868573,-2.6116248883566353,-5.100182081084446,-4.085513937423093,-9.277394723209545
6045,0.01666666753590107,0.2357706305321306,-3.5122634403109547,-2.986127688619494,-0.5597939103391021,-13.28617203118205,-3.0763992947676218,30.10091346471841,-0.5629307444575224,-1.4933526668532937
6062,0.01666666753590107,0.6917172129057347,-3.6308752066880463,-2.7601088559687135,-0.11372435966171324,-13.404386322674155,-2.7492913924840745,45.5289481770378,1.497435839316492,8.587314244380122
6079,0.01666666753590107,0.38782384406626225,-3.4357933640927074,-1.7047814721465109,-0.4575915000364184,-13.204620121654868,-1.5445597478670998,39.59031384467056,-0.08172243968683565,12.593041753900534
6096,0.01666666753590107,-0.16955233760662375,-2.8509131624877453,-1.0773556757569311,-1.0435724294248967,-12.61534840709269,-0.827795424928423,30.402350203358584,-4.627780584876977,10.208994106185202
6112,0.01666666753590107,-0.004925473703444004,-2.6892501898914576,-0.9761176535069942,-0.9048582976743579,-12.44939913547933,-0.6599016499174758,20.387655342266378,-6.865246396588311,11.217409211661408
6128,0.01666666753590107,0.3877960792765021,-2.6906629792988297,-0.864258868521452,-0.555903259576112,-12.444908838322759,-0.4975456900883466,9.672088303456132,-3.0331401613355076,14.24283382055574
6145,0.01666666753590107,0.5185688235685229,-2.9228637154549357,-1.0799158816337584,-0.4605841790463775,-12.672957130974531,-0.6961145345492288,3.395751702720311,-2.5190410005753447,13.1993158116139
6162,0.01666666753590107,0.5330986495066434,-3.1048370701521635,-1.1921347321033477,-0.4753983748838305,-12.85177465198934,-0.8041527018006891,-0.28794647469916285,-5.622167335571623,10.65882438850672
6179,0.01666666753590107,0.6800022982578724,-3.4612773494392632,-1.5191455032885073,-0.3627213323179632,-13.204322600013016,-1.1239286994267255,4.34209383557603,-11.8206822550082,11.893183005500592
6195,0.01666666753590107,0.7433166133701801,-3.3514515315860507,-1.7537433637142181,-0.3335417803891003,-13.089697272923589,-1.3326720972256734,14.071280812946176,-10.333592978345514,15.75711834917248
6212,0.01666666753590107,0.5533432728949934,-3.0850451589673757,-1.7295090861678122,-0.5671263721190393,-12.815862796130777,-1.2539622792566194,27.56876255636146,-2.627429485957689,18.580942240751067
6229,0.01666666753590107,-0.1295024320952594,-2.3608733910501,-1.5684417413771152,-1.3093286675717681,-12.077998018425703,-0.9718962729522957,43.24373080529161,2.2203132857147283,15.443122600195945
6245,0.01666666753590107,-0.5155480144426227,-1.665509784466028,-1.4309670152284204,-1.7281641743648797,-11.370510258805751,-0.7148185408994555,50.59883367339818,-1.887230573102594,10.35394950339309
6262,0.01666666753590107,-0.41803281210809945,-1.2543939121395349,-1.4471137017786502,-1.650203055871278,-10.946288821190596,-0.5989991817198693,51.457825584175666,-10.085770663369003,6.578143663695056
6279,0.01666666753590107,-0.4492873436801135,-0.6951070014744997,-1.217044716954231,-1.698386510412395,-10.36823934238851,-0.19692294041737912,45.12363450640549,-25.21302348143489,7.78297323847285
6295,0.01666666753590107,-0.35912732641398903,-0.25518589042425155,-0.971759458297491,-1.6199764060422777,-9.913789939770101,0.16490027401708066,39.40697107677991,-34.13854222653101,7.820320712854479
6312,0.01666666753590107,-0.3387710593447089,-0.07810790655314923,-0.9390459600888192,-1.605312067004293,-9.72315338614583,0.3016694091796875,33.28476858027942,-40.53014445936974,6.0073720755137705
6329,0.01666666753590107,-0.18859584157690404,0.23229484418034552,-0.8578456404782832,-1.4544769240230322,-9.39738998467326,0.4975450325012207,24.80217735757487,-42.84807502214569,5.100880467927079
6345,0.01666666753590107,-0.0912288155414164,0.49761692869365215,-0.9512636366270482,-1.3539207465574143,-9.121609634509682,0.47928924484252927,25.676123967540097,-37.997168805670505,3.903920124846787
6362,0.01666666753590107,-0.0812907743729651,0.6871259395927191,-1.3013351115345955,-1.3346174956724046,-8.919747337993979,0.21772271347045896,36.21224913024941,-38.41447970357994,0.041136014895591835
6379,0.01666666753590107,-0.011474603085964917,1.3255834176063537,-2.276645101920515,-1.2310680546749382,-8.257749409916997,-0.5906194759093225,50.768615100691775,-49.48716915955983,-5.119106827727259
6395,0.01666666753590107,0.145581460236758,2.312241169828176,-2.0475554835222662,-1.0374372146055102,-7.249044661059975,-0.21652575877085325,50.15993596261691,-56.49981317287113,-3.9391357264337263
6412,0.01666666753590107,0.2775298972446471,2.753528308534622,-1.7496144472159445,-0.8695436770565808,-6.785465611046552,0.2156267641045153,42.42385538789079,-62.60943446092046,-1.2704382375108205
6429,0.01666666753590107,0.5908233279183507,3.529930029904842,-0.9779472070217132,-0.5086178498532623,-5.984755377849936,1.127368976073712,25.179140620509752,-70.4867531023987,0.8618221704148077
6445,0.01666666753590107,0.3410447764303535,3.84853303822875,-0.9954178356520831,-0.7200555647701025,-5.656598359239101,1.1718120750427246,7.469562324443999,-77.93725322264284,1.3517514261364107
6462,0.01666666753590107,0.050843613661080596,4.044948175254464,-1.2006427404686808,-0.9639652242247014,-5.459977470508218,0.9895547888375819,-5.173378657098533,-85.16032170390389,-2.244725875912235
6478,0.01666666753590107,-0.22572503733597696,5.062304432600737,-1.9308176943235098,-1.1306611494868992,-4.45081854814291,0.2718916721619665,-1.867531026875808,-96.56528278753197,-22.25249506116579
6495,0.01666666753590107,-0.39870639954321085,5.666396699675917,-2.3871432660773393,-1.178245980547741,-3.8500235690474507,-0.15098434219360352,11.464577536024892,-97.77075653452586,-33.80390735342999
6512,0.01666666753590107,-0.13981011029370127,5.860071013560891,-2.5085329727351664,-0.7698849598873406,-3.6526527387320993,-0.2103900324948132,22.748298493017014,-95.09034441740273,-38.514695654176954
6529,0.01666666753590107,-0.2477631200123578,5.132760947617888,-2.0659727453529833,-0.6717227648861706,-4.36717288120687,0.33025004536733027,24.774009657437738,-83.92850391728126,-42.29923517138932
6545,0.01666666753590107,-0.3619610520025715,4.820501170840859,-2.2453540377303955,-0.6263826074795797,-4.6667485329777,0.22296061412394044,30.711583602936322,-76.02295610396337,-45.916954148313295
6562,0.01666666753590107,-0.22894421857818958,4.634851757979392,-2.704654387511313,-0.3251620015133172,-4.826409518101811,-0.12674305038452147,57.74811562105559,-67.48687254722657,-50.12201816743959
6579,0.01666666753590107,0.6835868787463754,4.045903284022212,-2.6579098797321317,0.8063975033191032,-5.341014406475424,0.1777703500494361,97.08756686279534,-41.57903611964108,-47.76716018691595
6595,0.01666666753590107,0.9917419236183166,2.744397492095828,-1.6900044665142893,1.2467809529177845,-6.5587663949161765,1.4013564514711498,111.20235768830179,-22.75396242738625,-40.17671290567284
6612,0.01666666753590107,1.0377433579452335,2.2736393442332745,-1.5463690257787703,1.3928272541873157,-6.932709597668051,1.81330789783895,109.52046458632117,-15.488077197765676,-32.12905617648366
6629,0.01666666753590107,1.0920097856618463,1.8313345529168843,-1.1791343807548285,1.54725333433263,-7.2436577073246236,2.5097227670416236,97.62154422191776,-15.247299369144386,-19.26084146884894
6645,0.01666666753590107,0.6514375902917235,1.9792051470041274,-0.6631997050821781,1.1692686741702258,-7.002440721020102,3.2396541213989254,87.26340525124252,-25.40693596706614,-17.614296303370427
6662,0.01666666753590107,0.18361483829393982,2.424912440240383,-0.5715221228599549,0.7698858366701752,-6.465540998730063,3.5256115821838376,82.91176878762234,-21.195284230485367,-19.723738756826336
6679,0.01666666753590107,-0.27026553226485844,2.217688324430585,0.7252472881942987,0.3951934229861945,-6.55008682937622,5.0673283982425925,76.52532334760697,-7.351754367865972,-18.088284111012634
6695,0.01666666753590107,-0.006454217640683054,1.2204939806252717,1.282467329457402,0.7006036991946398,-7.463624400329589,5.783194986890256,62.70431261868111,-5.8840320925948575,-11.335545871093242
6712,0.01666666753590107,-0.04136208408847451,0.6322118616223334,1.5419716676026582,0.6952167454592884,-7.98675804759562,6.161627610015869,43.09294754917441,-5.896762711434115,-9.159398936429342
6729,0.01666666753590107,0.26469525785185394,0.33564825114905833,2.1874442850753666,1.0374376529969274,-8.233506949064136,6.8930535868451,15.884381848882741,-2.826898970808976,-10.531712006731842
6745,0.01666666753590107,0.5632287801586091,-0.1814367636024952,2.0219421727076172,1.3621513992860912,-8.738384808671475,6.745362733238935,1.153700806363488,-6.436334849260428,-7.57895292664363
6762,0.01666666753590107,0.48493105012178417,-0.8838508732199668,1.5550348550543187,1.3130703383181244,-9.451259522026776,6.254402047564089,-14.364150786819861,-10.974010297946126,-2.487647103272439
6778,0.01666666753590107,0.3440146590866148,-0.8754904566317796,1.5701929689586163,1.1903675032351166,-9.464726906365156,6.226270470318198,-21.747216449388464,-9.382708556248325,-2.7392938972973346
6795,0.01666666753590107,0.2464473612386733,-0.8908429240643978,1.380000067448616,1.1064205883301794,-9.507072010141611,5.983408054894208,-22.858341378282383,-4.193539782449191,-1.6238126950951222
6811,0.01666666753590107,0.25381935131140054,-0.8261059557378292,0.7298159112840891,1.115698485089466,-9.47385655376017,5.273379086358845,-15.178703779309949,1.012873084570109,1.2676006140757976
6829,0.01666666753590107,0.1455443430967629,-0.7194605214864015,0.46224195619076486,1.0016745579592883,-9.37913419701457,4.984128136986493,-4.216886222805941,6.630060358463146,0.003047518349868619
6845,0.01666666753590107,0.19771357933841643,-0.3252630507349968,0.3250409324169159,1.0422260563172399,-8.983191343900561,4.85244763019979,6.770174432209965,14.744653795292102,-0.35116998734925364
6862,0.01666666753590107,0.4126101294722408,0.05436813452541828,0.3567527062371373,1.2244847307618707,-8.584407714402674,4.926518536321819,16.193154210691507,24.490288721957285,1.0685167147474988
6878,0.01666666753590107,0.5536388948407024,0.2934048541814089,0.31115356910079717,1.329081488855183,-8.326134379357098,4.923376438903809,15.456962271001684,26.59275755227061,4.2410403330320445
6895,0.01666666753590107,0.5495374508712441,0.7258838325321674,0.39580373690426346,1.2771573864810168,-7.879467885699868,5.042189280810952,10.05650074145456,28.40795545628237,8.441897809403258
6912,0.01666666753590107,0.23994309391118585,1.2596885114163159,0.604079115332663,0.8924388880189508,-7.337327924668789,5.276969512066245,2.9105006996933436,29.909975526470703,8.715469083777071
6929,0.01666666753590107,0.06469426169600337,1.6109072566628455,0.556353487561643,0.6643913625521585,-6.9879247044116255,5.232976056560874,-3.7754353019355613,27.496289126625747,6.299760094164146
6945,0.01666666753590107,-0.33019773065820335,1.8191431798636912,0.36248598919212816,0.22744948650840668,-6.788157918870449,5.028720435167849,-9.089141049305653,25.59841690535286,2.3207253908069667
6962,0.01666666753590107,-0.3602970277804881,1.6419412773519753,0.44232408053874966,0.1569702847354114,-6.9900207999080415,5.067477743585408,-23.19287209099856,22.208908208977352,-0.7832428717262208
6978,0.01666666753590107,-0.2672071310749277,1.4507202018380165,0.3803822958886623,0.23178919621314853,-7.218219899207353,4.9378924555122845,-39.016321822295616,14.150749210165628,-2.958155569862757
6995,0.01666666753590107,-0.05858819990586489,1.2156933023452758,0.2788657489582896,0.4406831083986908,-7.52781717877686,4.691587206158042,-56.73049939699373,6.098086806088472,-6.4529637985684705
7012,0.01666666753590107,0.3734018624167889,0.7853858228147029,0.4342801825538277,0.8816650536134839,-8.027306915605068,4.706101176939905,-66.46784930419568,3.2486913265875894,-5.655188738887696
7028,0.01666666753590107,0.5959369080724194,0.5176531700283289,0.42322102840095754,1.114052288785018,-8.371622457334398,4.532072936028242,-74.56051014982609,0.5445909928449506,-4.47668527449207
7045,0.01666666753590107,0.8054473447211087,-0.0538444029122591,0.11998714638352394,1.3320743870608507,-9.048884590038657,3.9906852546691893,-75.7062129113932,1.0695461523214667,-1.2942406997163745
7062,0.01666666753590107,0.7700565170619637,-0.39324236198365686,-0.2892641011148691,1.293767233563587,-9.459042430987953,3.413085565461218,-66.82007532950408,3.083401175560104,2.042688666819846
7079,0.01666666753590107,0.6874413622174411,-0.24878069955706594,-0.37872313050478695,1.1987473186435178,-9.373748996844887,3.1771050185054537,-57.29312256949519,5.098680293240689,5.06938774632462
7095,0.01666666753590107,0.3194047896934673,0.14004092337489127,-0.4044046842500567,0.80026241636388,-9.049035396686195,2.986766278783977,-47.83859030525595,8.822400817875499,8.100587280162198
7112,0.01666666753590107,-0.06823251882474869,0.7287988431960344,-0.4939382401809096,0.38501788326743985,-8.501658119523524,2.7868492711171506,-45.306536727094674,8.742137557391386,8.438693596908877
7129,0.01666666753590107,-0.19293299399837852,0.9909002120971679,-0.5365370264574885,0.23193876075167208,-8.278252099719642,2.6372140054449438,-44.099211998835706,8.089131345376794,9.157298653259565
7145,0.01666666753590107,-0.3811701217981055,1.3099252452254295,-0.6336801806092262,0.003891016089171171,-8.00650904224813,2.40377759001404,-40.18973466132547,9.491787531067075,9.449243990274358
7162,0.01666666753590107,-0.4440961317125708,1.191511047247052,-0.40090807430595155,-0.09038063774686306,-8.156447090259194,2.5420430281490085,-38.96546081864112,11.190471799348524,9.841821919425534
7179,0.01666666753590107,-0.3661613897692412,1.0410299784004688,-0.17209522702246904,-0.04683620465062558,-8.33900262875855,2.671030058068037,-44.279412879708154,11.178413954142513,11.505467317264818
7195,0.01666666753590107,-0.23080029477365313,0.842303641822934,0.13735913694500923,0.037858752142637966,-8.58695330723226,2.81827550599426,-54.97991849762487,9.370673762930762,13.373609432627932
7212,0.01666666753590107,-0.279297363574896,0.7197627193033694,0.17748744145482778,-0.05147497036717832,-8.748710387852787,2.720411051830649,-56.31606742381945,7.993727263050055,14.998006002175384
7228,0.01666666753590107,-0.23954945495110003,0.7664397148042916,0.19826587945893406,-0.05506625459110364,-8.738833721482754,2.603693282506615,-55.562622426286175,5.88766660700695,16.37582932759079
7246,0.01666666753590107,-0.2840896758853458,0.9248328719496727,-0.0019029110118746757,-0.15622120166746897,-8.627356629291176,2.213887909234315,-59.08224964144501,0.6892513045363531,15.528727068611007
7262,0.01666666753590107,-0.48278183619864284,1.1435013418376445,-0.00618657968044281,-0.38995519353915004,-8.443001932415365,2.0579665490299464,-62.06856544092549,0.8213161070680173,12.395822602937354
7279,0.01666666753590107,-0.6230757114212959,1.134154836821556,-0.028570260924100876,-0.5579982636605622,-8.48460118626058,1.8807948955260216,-60.972087852706665,1.1261918993161444,9.284323096348876
7295,0.01666666753590107,-0.6447294709552079,1.391231071037054,-0.4215172932229936,-0.6033383799679577,-8.265083406066895,1.2885301366277038,-57.427390428199296,-0.632227816064062,4.654052053745784
7312,0.01666666753590107,-0.5296422254424542,1.44795307521224,-0.7324304776966571,-0.49589860786790957,-8.231863273510337,0.8393170272275805,-51.504636285652346,0.7379721111031118,1.6724073566056472
7329,0.01666666753590107,-0.44089960069358347,1.245465924796462,-0.587084287520498,-0.4089591920495266,-8.45317845851481,0.8640072318479418,-44.3418339785329,4.014914540840902,-0.9279915489900102
7345,0.01666666753590107,-0.11283318297564983,0.9235971926748752,-0.41812589721903204,-0.07451909284752327,-8.794950745502113,0.8928875816345214,-39.206313779343276,9.470903373906115,-4.065103197748979
7362,0.01666666753590107,0.23480478117465972,0.873546336826682,-0.3920728798128664,0.2775781933657825,-8.857198235100507,0.824951817266643,-34.829590030901635,12.230394567466,-1.6611877036768434
7379,0.01666666753590107,0.278141891663149,0.9972200627684593,-0.33513460253849625,0.31483790190303695,-8.743324018639326,0.8010101659912615,-28.37071214228558,15.391373671949344,3.223562420300878
7395,0.01666666753590107,0.16474325682446359,1.454738205307722,-0.2668484172977507,0.17747057023512897,-8.294859535649419,0.7893387251589447,-20.309171346061053,16.081827249862176,6.59551582296216
7412,0.01666666753590107,-0.11906572068966924,1.9419442146241663,0.05165536843538284,-0.12674264224667858,-7.813476533398032,1.0527004693847148,-24.413841829671917,17.301260195972283,5.3034382655002705
7429,0.01666666753590107,-0.2379572538562119,2.1063532710582016,0.14664368264079092,-0.26021938422956736,-7.656656324657797,1.0705077826235443,-36.51040737808798,16.583970804810466,2.713430532231435
7445,0.01666666753590107,-0.4526484176110476,2.254741751539707,-0.3467642500557005,-0.4840772531539085,-7.5206339892745016,0.4351454210810363,-43.48656793594766,7.980215441324478,0.21266754476186733
7461,0.01666666753590107,-0.3768899602608755,2.229228540098667,-0.8388241291441023,-0.40836058455227175,-7.553854121831059,-0.16011260134913027,-36.804180644479395,4.671392196501154,-0.7100619838028828
7479,0.01666666753590107,-0.2674310394912958,2.1152485251754523,-0.8626013105727731,-0.3006215486611472,-7.673264345109462,-0.2674025075165555,-28.375517180366685,3.963363261193408,1.742709746680648
7495,0.01666666753590107,0.18349000633787363,1.677539244955778,-1.1157833138287068,0.1294369199778419,-8.11529558018148,-0.5982513590272516,-17.32374859381455,7.566615043681648,10.909411222549792
7512,0.01666666753590107,0.4546883624734357,1.4163964919537304,-0.6782651722669601,0.3591306143496185,-8.377760521697997,-0.1927330875121057,-7.16389257606571,18.948893069076117,19.843883491874152
7529,0.01666666753590107,0.41068602954186495,1.3990291775673627,-0.22745142273716626,0.2555813742815517,-8.3948197930485,0.24884766384605317,-0.5962695381265894,28.036721014513834,23.332306987809787
7545,0.01666666753590107,0.009405176400765776,1.8487316779196261,0.19686236933656034,-0.22475533378729595,-7.943961692920326,0.6645412193516269,-5.139984154699048,29.369417280082967,19.37636387337595
7562,0.01666666753590107,-0.16111414307449012,2.6131507005512713,0.13565346553828567,-0.44382473089266566,-7.179460837224125,0.5774517321046442,-14.038040843576663,27.34021076635449,15.88417694320764
7579,0.01666666753590107,-0.1870847428942099,2.7711948981285093,0.06277765095233917,-0.5096653130795806,-7.022342522320151,0.45385081567075103,-23.7004934576612,26.373225027062645,12.844064866276844
7595,0.01666666753590107,-0.24193846897948532,2.9247382771551607,-0.18410337072955443,-0.603787292779237,-6.870908098271489,0.10699174520475789,-32.9435972161427,28.636452604775975,8.606221061776363
7612,0.01666666753590107,-0.12938907138127834,2.4875311012387273,-0.3211842569887638,-0.5143040057308972,-7.309646137017011,-0.12749140280010177,-40.850254935200724,29.469206343856854,8.384131484497876
7628,0.01666666753590107,-0.03231927472669631,2.1205542303681373,-0.2898994764089584,-0.4397845521237701,-7.677306313976645,-0.21068972782744094,-45.519980138657566,29.874991297541897,8.373770941300613
7645,0.01666666753590107,-0.08700962694380432,1.5857038418233393,-0.46904257611632344,-0.5202895464139059,-8.21106247754395,-0.5464763919333462,-43.314365206593294,20.320360903468828,6.730145254805459
7662,0.01666666753590107,-0.04575136855598539,1.0995786134809256,-0.5180442151725292,-0.4954497041897848,-8.694991657146812,-0.7038950323576108,-41.035725307017834,12.699266563419865,6.378766172954153
7678,0.01666666753590107,0.007973463097214698,1.0578057566344738,-0.26327512538824227,-0.4542994362210855,-8.73344969035685,-0.5599440046005882,-45.20553530474311,11.868509800897568,3.782954913324922
7695,0.01666666753590107,0.11099361952356994,1.215933540841937,-0.08254727724008262,-0.3585312602169812,-8.568546712926029,-0.5449797510342672,-49.049873128138934,16.29423588776582,2.3581539736849906
7712,0.01666666753590107,-0.10804887130856514,1.149639990723133,-0.47605563321616495,-0.5849329912381246,-8.627803788536786,-1.0630253909789025,-46.32767732876826,18.32820816598767,4.984734381751482
7729,0.01666666753590107,-0.42353751047160476,0.9372259050548076,-0.7690799271147698,-0.9160810083584859,-8.832358392876387,-1.4640540959898383,-36.099335857985345,15.007991738741943,8.752794360043898
7745,0.01666666753590107,-1.0810407209452242,0.36520576954483985,-1.3956430422604083,-1.5936400416500867,-9.395893608635664,-2.188449589660391,-20.77108508679797,5.333717774751406,2.5809716064403196
7762,0.01666666753590107,-1.2143813429638743,-0.4130342731684446,-1.8258476459383963,-1.7220292152738197,-10.17026996165812,-2.667888764367625,-20.085385320547463,-4.741752109575571,-6.334632051858469
7779,0.01666666753590107,-0.9952716321144253,-0.9399357485353946,-1.8553642478019,-1.4809629625516012,-10.692803304943443,-2.7587183514583855,-29.062926201456985,-10.181025335307647,-10.759708843868745
7795,0.01666666753590107,-0.5298310625454411,-3.0155256325393913,-1.7812626542806624,-0.9877574205594136,-12.757951289910077,-2.8039091269895433,-41.039970269586995,-9.590880769319266,-6.502731545068945
7812,0.01666666753590107,0.14337302693966775,-4.415747234761715,-2.4003180972099303,-0.3043625207211822,-14.147187972259522,-3.5268083176877347,-39.460229476833085,-6.086061404281018,-3.6222409890413454
7828,0.01666666753590107,0.2801390202971175,-4.754585806384682,-2.7112013249367473,-0.1613089349942282,-14.475790981072187,-3.925143765026703,-29.22041670333914,-1.5365794400064234,-3.005062320874643
7845,0.01666666753590107,0.24454426756370812,-5.353651769730448,-3.3859523516029117,-0.18016334613319485,-15.066113081470132,-4.673630839837342,-14.097089536498716,-0.1511896256923908,-7.9633073080341115
7862,0.01666666753590107,-0.20758282958697527,-4.9840603324472905,-3.739856974932551,-0.6081268563535064,-14.695010655102132,-5.046528332928568,-1.0415780217741455,-3.697560900113661,-10.816623956448815
7879,0.01666666753590107,-0.4550328650621697,-4.655419329711795,-3.8728649309307333,-0.8307875742154195,-14.369398644798993,-5.164292542565613,12.597136452307957,-12.645683729381116,-10.627503702293978
7895,0.01666666753590107,-0.678734762540087,-3.8440333887219427,-3.2304888181686398,-1.0248675462918355,-13.567640363854169,-4.456057837035879,23.5011270659777,-15.19790685616144,-11.399773554953457
7912,0.01666666753590107,-0.9032328884296119,-3.390578842359781,-1.932951199220866,-1.2210424448208883,-13.122916820958256,-3.095253979901224,24.383835101100757,-15.370560378001022,-14.937985714843897
7929,0.01666666753590107,-0.9954163012821227,-3.470714455348253,-1.418549286073446,-1.2731163674619048,-13.210755263409018,-2.525283762658387,17.197822103634316,-14.663458213986281,-20.30240945878274
7945,0.01666666753590107,-0.6162191965900361,-3.8979584556549787,-0.6632785424720495,-0.8259992074277251,-13.64365626656413,-1.7345988835874944,2.5746075776811606,-16.607244674407287,-21.22071131721803
7961,0.01666666753590107,-0.030834041137620803,-4.811414778065681,0.1352244630038738,-0.1978205468442291,-14.55719442203939,-0.9428663220945745,-8.145255863560434,-20.13791459790674,-16.24901662036575
7979,0.01666666753590107,0.22517876509744672,-4.754197683849931,0.5308756396949291,0.10025757811153307,-14.494496266064047,-0.6010940351072699,-25.403829938541076,-32.274928526587615,-15.636765293354976
7995,0.01666666753590107,0.23376897185351697,-4.460020091730356,0.6618629035204648,0.13871447881041093,-14.190283017620443,-0.5560536278322339,-44.08026163898351,-47.161278011306216,-17.758759926958074
8012,0.01666666753590107,0.10270875238962471,-4.030049881330132,0.5848014372803271,0.03830760102183558,-13.741819119152426,-0.7745240909300745,-67.83489117600622,-61.65091303355755,-20.737801574972497
8029,0.01666666753590107,0.45196427127178757,-3.0418478222757575,0.34205066553726793,0.41689078419981523,-12.713808196800947,-1.2773060011714696,-82.2276023988405,-74.43437704642346,-16.64982748878773
8045,0.01666666753590107,0.7991483176421373,-2.169891384989023,0.296401697909832,0.7639003873187117,-11.807603452953696,-1.5156791423521936,-67.2223324904828,-69.34697894503115,-8.484968128535712
8062,0.01666666753590107,1.445214736289531,-0.2736643809229135,0.2004210116662085,1.3871410069781356,-9.886855171093345,-1.7369930121824144,-30.583841989984162,-54.777628784976606,2.247637244045953
8079,0.01666666753590107,1.2283908713549374,1.0115560466349125,0.06849632086008786,1.12303061807584,-8.602515033501387,-1.862538669475913,36.083080007760714,-31.93321416241188,5.487797450916785
8095,0.01666666753590107,0.8700762495633214,1.4517951375931502,0.1353700089544058,0.7484877415309193,-8.191461705017089,-1.643170088494569,82.49080373850694,-15.29003757032845,-2.6608675308131327
8112,0.01666666753590107,0.24005334935262798,1.8178689221441744,0.7467208688557148,0.13347720834459179,-7.867645345959067,-0.7861956778928637,108.27316276085013,-8.901105941455203,-12.670740278351307
8128,0.01666666753590107,0.18089418115839362,1.465769886931777,2.3986115855529904,0.1300355525912717,-8.272263672959804,1.2416929090637714,108.88489499348397,0.4416926988948276,-20.899540454518398
8145,0.01666666753590107,0.34602482986524696,1.2501204726040362,3.1583360206276176,0.3520976743723731,-8.515125503861904,2.258180713012442,90.56056979003945,5.792490482243761,-23.041848070713115
8162,0.01666666753590107,0.6363586791034788,0.7251070029407739,4.217046617147326,0.7025489606440533,-9.055767919811606,3.509600358581543,58.64400421372948,1.1812386349930986,-22.63745818316605
8179,0.01666666753590107,1.0655479682590812,0.11616554226875304,4.739518001112342,1.2053313275431747,-9.671227384075522,4.141370248590037,7.17584369956594,-7.604940088888236,-21.09737005363865
8195,0.01666666753590107,1.3947649442516266,-0.3697743926346302,4.860830258619785,1.5861589469133874,-10.155303278672694,4.246715121636912,-17.398399146348204,-9.6919573237517,-20.39497730505663
8212,0.01666666753590107,1.6423275001905857,-0.932795813652873,4.595851872977614,1.881543613267783,-10.71285415932536,3.9149684810362753,-33.35389009467995,-6.882819619549108,-17.596735887014326
8229,0.01666666753590107,1.793779313765466,-0.9213052823454141,3.3461277062147854,2.0748753790590913,-10.689659746220707,2.52722970909439,-45.17229277405266,-8.753975128996665,-7.148099898044172
8245,0.01666666753590107,1.6418055221430956,-0.8176695513039827,3.085321637821197,1.9292781184650025,-10.575637061199545,2.152686933014169,-41.66574195605981,0.3311651370026532,0.7776727457363696
8262,0.01666666753590107,1.30442255615592,-0.15087036042511462,2.677259307846427,1.5839145289874634,-9.899126623645424,1.6458640768188981,-13.702423277008808,21.056274512949972,4.772589133017709
8278,0.01666666753590107,0.8257168102897703,0.09023264411091804,2.833001658222079,1.1029791791720316,-9.658358550152181,1.8041808807924389,13.106154592655864,38.89480592677192,2.8694211672605365
8296,0.01666666753590107,0.7942800540186464,0.2150064402490854,3.1064199554294345,1.0782889928179793,-9.539845567974448,2.140715632452443,31.826209003779876,54.37410803900142,2.8350597662066717
8312,0.01666666753590107,1.1345292230919002,0.010699673190712928,4.121434033563733,1.409885995814856,-9.756372349658609,3.2854434473451226,38.59517577316721,80.40261683374811,16.820889576550698
8328,0.01666666753590107,1.8702597652472555,-0.3034732437312603,5.183931747406721,2.1015108907946383,-10.080036733025311,4.45201791399531,37.10511194912099,92.56647340586714,31.966419127061897
8345,0.01666666753590107,1.9615389958016574,-0.4387023829102516,5.250673041293025,2.115127931003086,-10.223089697697757,4.608388990728557,27.556493829064824,99.77982252793926,41.28143794731446
8362,0.01666666753590107,1.0579533484116197,-0.7437140882551669,5.189961090698838,1.084424020407698,-10.533588894543051,4.617218376535363,12.950780595642769,102.32218969174725,45.29740817926895
8378,0.01666666753590107,0.40781518681328743,-1.652341090813279,4.284200583487749,0.33159730895755346,-11.443533409440517,3.739144661944732,9.746008025748596,98.15839709068077,46.20654392383808
8395,0.01666666753590107,0.40862416510861366,-1.8275234701961278,3.7837206665784118,0.2280480551897548,-11.618759627965092,3.2646437473572787,14.156084441681054,89.44773389875844,45.20800100303348
8412,0.01666666753590107,0.16562741924785077,-2.4056109429210424,2.9758757591962812,-0.1485898117398843,-12.196212309917806,2.51136783083491,17.783097598518122,57.683365427723864,39.544039313043726
8428,0.01666666753590107,-0.4806863252241164,-2.332622279077768,2.6837825721353292,-0.8804672951962799,-12.121243285912275,2.243965688644536,2.3720260878892865,26.2472336500853,30.042798800165354
8445,0.01666666753590107,-0.881468581193313,-2.026345083841681,2.8249364251881834,-1.3385079637723043,-11.81149227708578,2.3641246844636274,-16.59193309783541,-0.28196779133915384,16.614445401339772
8462,0.01666666753590107,-0.9654511519335209,-0.9898819749653339,1.7287030304819344,-1.4654006517605855,-10.767322247093915,1.1611879147736355,-50.21817015548044,-26.1877392873199,8.277995467437755
8479,0.01666666753590107,0.19453706819415092,-0.12377134109735488,-1.8816852684944867,-0.33069877551551907,-9.88954864796102,-2.605639302007854,-75.2332018208023,-50.00126042291377,6.976940053198706
8495,0.01666666753590107,0.6295091054696589,-0.22483985199928283,-3.1826948013365266,0.06419482427388429,-9.970801866802573,-4.113836418041586,-93.03160245815583,-67.58267961071434,17.073152368261365
8512,0.01666666753590107,0.9157558315247297,-1.1640665754824877,-4.803317396327853,0.22325959707051515,-10.865486268725991,-6.057629475402831,-103.92849309018335,-77.96150039419638,40.413672658548094
8528,0.01666666753590107,0.493653504955396,-1.3771844255059957,-5.220637968513369,-0.3381804730404168,-11.035023920220135,-6.705410662078857,-85.38783530515701,-61.03239842307788,48.79646969483687
8545,0.01666666753590107,0.2865076420135796,-1.6002280417382717,-5.28458758585453,-0.6905770298946649,-11.218629260033369,-6.928370399419963,-48.563153847883825,-30.226373794487788,50.77237853492445
8562,0.01666666753590107,-0.33835129956267773,-2.1681617847174404,-5.5173874569475645,-1.4867987925656139,-11.752986312103271,-7.24440516469106,-10.652526954091966,-1.636072457768472,46.62656640684801
8578,0.01666666753590107,-1.0172336538799107,-2.3238918601334095,-5.450195496684312,-2.279429179681092,-11.889006893920898,-7.206846272277832,-15.973821468516766,1.3763781000757147,45.23135341980576
8596,0.01666666753590107,-1.1846397001728415,-2.4905951649844646,-4.898946931046247,-2.5625433798640964,-12.02846797158122,-6.715735364477336,-31.68328046520819,0.5609484421334849,48.03437767781436
8612,0.01666666753590107,-1.4672547186620533,-2.5812714612096546,-3.4384263429448008,-3.0015804015561938,-12.0723135430485,-5.371391862951964,-29.96196692643284,13.183390371790368,46.698962996955565
8628,0.01666666753590107,-2.189403602449596,-1.8849609291642904,-2.85952930740267,-3.815908241216838,-11.350162467303871,-4.843170829419046,-3.3396073342993944,21.332361004485644,33.48845506661295
8645,0.01666666753590107,-2.379621784531325,-1.5469786821097136,-2.8526676049396396,-4.0527842757076025,-11.007639654210209,-4.819078444561362,24.842680379353045,25.45509050826202,13.48384356319006
8662,0.01666666753590107,-2.0230016186326742,-1.3846657211720943,-2.317304882958531,-3.682581136266887,-10.871320966228842,-4.166509292956442,52.44774539115312,24.64840760124308,-9.452193778222156
8678,0.01666666753590107,-0.604435381424427,-1.524526611804962,-1.5100802994318305,-2.2252605132505296,-11.041759365954995,-3.2321719489499925,54.15291577782514,15.077622102235638,-11.748992589479746
8695,0.01666666753590107,-0.19302038002088664,-1.6660066280722616,-1.1367698416255414,-1.7866725505001841,-11.208304849895834,-2.741510246221721,43.38407070216786,10.859871006726044,-5.4601697626109065
8712,0.01666666753590107,-0.34642172022834417,-1.4027929140150546,-1.0011844363547862,-1.9222443656370043,-10.966940564075111,-2.489221246282756,32.34047785205223,14.009406129255032,-4.231671874811727
8729,0.01666666753590107,-0.9687862877056002,-1.207990472882986,-1.6044436136066913,-2.5191487670347095,-10.786626082500815,-3.02447510106191,27.019323356505417,13.445746475547022,-11.697365750864558
8745,0.01666666753590107,-1.2070019002370536,-1.4279969133764505,-1.9212695292554796,-2.7168198954708873,-11.021407482799887,-3.284095759063214,21.85720127804589,8.130315678524678,-16.827603652504823
8761,0.01666666753590107,-0.8751590327203274,-1.8004162675619124,-1.927019032692909,-2.323422781316936,-11.412111266216636,-3.226336082403362,16.361117100118584,-6.786478093758785,-18.662347850373866
8778,0.01666666753590107,-0.982031845986843,-1.9577000021606683,-2.1506302196800706,-2.3886646304257213,-11.581052120861411,-3.408744613647461,14.645983174994804,-13.492089309065557,-17.359934936037277
8795,0.01666666753590107,-1.24179088954553,-2.0307424420177935,-2.220783952358365,-2.604591692651063,-11.666944105419516,-3.42774822399877,23.24214849076562,-11.33633902681061,-22.18474641478843
8812,0.01666666753590107,-0.952160147075355,-1.9993132845312356,-2.3951719664931295,-2.2303480456478892,-11.659312587627769,-3.5001728972837327,33.00385314500055,-7.883737311750755,-27.67976166811063
8829,0.01666666753590107,0.11899594338908791,-2.4473218404471875,-2.2549106783658264,-1.101930948760733,-12.124685535320639,-3.268982872540131,35.70819482988081,-13.88298274281268,-19.27395884714995
8845,0.01666666753590107,0.4347355251058936,-2.498552261468768,-1.9642970623381435,-0.7522279418393969,-12.189479786792397,-2.8848638743411747,33.168071383215164,-22.080603105418664,-11.768294704074203
8862,0.01666666753590107,0.13058555115684867,-2.024383428379893,-1.4488433020502327,-1.0284587391842157,-11.728744435772299,-2.2565346263058483,25.377265625311605,-38.87152864208052,-11.442713246718034
8878,0.01666666753590107,-0.8868140338744968,-1.568605992028117,-0.8291980765342712,-2.017862721374258,-11.28147763813436,-1.5716438984192906,15.586220185949589,-47.46131114607196,-17.411265515197215
8895,0.01666666753590107,-1.2682330523997545,-1.2908926279753445,-0.6131540368657559,-2.3551457341182975,-11.012129366844892,-1.3106756982665508,9.601366817242528,-48.78236876929538,-26.31007992818588
8912,0.01666666753590107,-1.551160936230421,-0.5345955370008945,-0.3462742015164345,-2.544586867412925,-10.269029026573897,-0.997633758135885,7.350921938560877,-54.369750378310954,-35.028075328182204
8928,0.01666666753590107,-1.2472447710372507,0.1559954483538866,0.45506841129958625,-2.1490948268063366,-9.58922597721517,-0.16759404314570128,3.2030481605721564,-58.486554692982345,-44.518165557240536
8945,0.01666666753590107,-0.6653082947339862,0.7530103243887424,0.3404039577761665,-1.4654005421627312,-9.00189838245809,-0.2694969590451568,-2.4007726465585777,-57.484798168173256,-43.005118146637216
8962,0.01666666753590107,0.10397972217351198,1.525365985238552,0.6905951500732451,-0.5626368786800653,-8.239643259862065,0.08185158659350127,-4.570573908596711,-64.9668674227612,-42.317622040634994
8979,0.01666666753590107,0.7815709407016634,2.116848946109414,0.36782508519776164,0.21323409681431948,-7.654111316350102,-0.24510602963231504,-8.314623210635595,-72.0354506853749,-43.28271069488487
8995,0.01666666753590107,0.9469431430794298,2.3284727581828832,0.07553659476041794,0.475249504465051,-7.445967163085937,-0.5633852128293365,-21.55427385061936,-83.03343494730777,-42.558529642850516
9012,0.01666666753590107,0.2004434792263433,2.485215810033679,-0.07362630415968596,-0.1442501385677606,-7.288098906597495,-0.804301681817323,-39.28650020019923,-97.85117518181359,-45.173942264737214
9028,0.01666666753590107,-0.6028223567372187,2.826933151963353,0.03880180514641106,-0.8436562254756689,-6.941387994164228,-0.7932287183348089,-45.13800863951378,-94.83003907794438,-52.93623027530868
9045,0.01666666753590107,-0.3988377708379179,3.203486829474568,0.07986322578787804,-0.5138549559223,-6.5574179029166695,-0.8592189015928655,-39.464016816727856,-79.23731825945224,-61.2570433448796
9062,0.01666666753590107,0.7842740621805191,3.3319366837769744,-0.5613992266438901,0.8503909040255472,-6.420200220268964,-1.5918446826659143,-12.996929622543606,-77.35842884143011,-57.568174287371605
9079,0.01666666753590107,1.8548264876633882,3.3805484467327593,-1.6663818911254404,2.0295353129840454,-6.368725469097495,-2.7111340318541974,2.480426312659266,-94.50289350726828,-46.07129593298807
9096,0.01666666753590107,2.0625316649883985,3.9356782377183435,-1.6433796395920217,2.3145949481463988,-5.8134191525012255,-2.6738741954527794,13.492972964789429,-102.8654356175734,-37.182258935796284
9112,0.01666666753590107,1.5186404763758181,4.880038816958666,-0.692141868058592,1.8540104220401494,-4.872500238147378,-1.664718487957865,27.05105300029471,-91.20085904359313,-33.73312268796656
9129,0.01666666753590107,0.23519871239569037,5.234470094510913,0.9188299052078276,0.6344640244632959,-4.522795404595136,0.020649843188375233,36.252250133123596,-66.91118322284288,-32.09373043809635
9145,0.01666666753590107,-0.4833556174986064,5.257879027149081,1.0808785891860724,-0.012120061382651329,-4.503642375835776,0.2678516760561615,34.43216864385528,-57.41912589930358,-36.03400168347959
9161,0.01666666753590107,-1.5555758300632236,6.147476919588446,0.758397278124094,-0.9600743177333846,-3.6147950095027683,0.041599546106159686,28.60162376265079,-49.027347164256234,-46.09961048219236
9178,0.01666666753590107,-1.9290657360896466,6.473878034442663,0.7564676983010024,-1.2120639328669756,-3.284396349444985,0.09891030995473266,23.732713167523443,-35.621113333057735,-54.61167909380739
9194,0.01666666753590107,-2.0040238003097475,6.379454952904582,0.5397574498087168,-1.1471212128352373,-3.3710359375,-0.0635960546631366,25.775745691679315,-31.770382452598774,-59.05430050736132
9211,0.01666666753590107,-1.2646394118219613,5.902972582176328,-0.21439090216662735,-0.2126346696164459,-3.8338638768851756,-0.7220016938691959,37.32037902119228,-27.390644883185868,-58.42006280141227
9228,0.01666666753590107,-0.46552243916615843,4.694046289747953,0.16239245591461657,0.7251442662112414,-5.031712894982099,-0.24046781190503388,50.989223380694014,-13.986981764436234,-51.72452056560257
9244,0.01666666753590107,-0.21597177814990282,3.7170880937635897,0.43247430217564103,1.092504875702411,-5.998522037395834,0.17717119684619828,66.6853430179364,1.8129981562121915,-41.426538486042205
9260,0.01666666753590107,0.561494503711909,1.755759379711747,0.9528414073377847,1.9823994130007923,-7.947401604241132,0.9448120578972011,75.88124333906394,14.45041436848983,-25.27226683474829
9278,0.01666666753590107,0.8247169855974614,-0.14957213730812072,1.724852784794569,2.302324317578226,-9.842412802776694,1.9143138100997543,73.10229208278504,19.28606194235921,-21.07675654272355
9294,0.01666666753590107,0.8404479309536517,-0.6406430053591727,1.7585341051220893,2.368015517889708,-10.320654584392905,2.1250036109924317,59.418540835419755,17.183053527101457,-19.080558625706452
9311,0.01666666753590107,1.2226738088823854,-1.5686001468092203,1.7909107725918292,2.8046580456607044,-11.233443967327474,2.2993314193725585,17.889711728820146,-7.1053049209126335,-13.314897126522501
9328,0.01666666753590107,1.3849145813666284,-2.162541606748104,1.707297254359722,2.9963439622074364,-11.82346620799601,2.1974283573426305,-27.220542437001285,-18.89029858373387,-8.712567960927109
9344,0.01666666753590107,0.9732838913857936,-2.546400638836622,1.6505051075577735,2.6092313351504504,-12.210128607067466,1.9767123072750865,-57.56027858869107,-15.48835894306894,-5.471346940300809
9361,0.01666666753590107,0.7346067988224327,-2.494028062042594,1.0758896948575973,2.3867205106206235,-12.158953715625405,1.249473333806917,-56.70449003663432,-9.136802109334003,-6.7099564962793705
9378,0.01666666753590107,0.16820698741227388,-2.037485486537218,-0.3493944524288177,1.8400939056947827,-11.700462344139813,-0.3042130886133993,-41.646050520682664,0.5066304556244594,-8.628931440766657
9394,0.01666666753590107,-0.19419307706207037,-1.1472831984639167,-1.3240730130434035,1.5086469056278466,-10.804881870159505,-1.3628995462056948,-9.573445857689162,12.877732576243128,-9.06207813226677
9411,0.01666666753590107,-0.2992364829443395,-0.5538783296197652,-1.6303718355894088,1.423652892822772,-10.20797863780558,-1.6503531341497437,19.0851263147139,20.167794967978253,-6.312071937029917
9428,0.01666666753590107,-0.2673473067305982,0.173244104796648,-1.6318191117882728,1.467346780859679,-9.478494150432944,-1.5599720876942156,45.24221683568066,20.979042148910054,-3.3069624451613184
9444,0.01666666753590107,-0.09771335525512695,0.7784153992801904,-0.8173381273925304,1.6403281430669128,-8.869169243401288,-0.5458777593199163,61.625286163791664,26.392986471878785,0.7507485669150025
9461,0.01666666753590107,-0.09076017511636018,1.0275462274491787,-0.32068039911985396,1.638681983295083,-8.615234814342855,0.1222538492064923,63.00525075351187,32.25075990220953,3.4847904756274204
9478,0.01666666753590107,-0.10693184997737407,1.5400561893701552,0.34815986913256347,1.6086046788088977,-8.095991160252689,0.9596251491937786,58.24644622289972,32.5334750923347,3.493411668463857
9495,0.01666666753590107,0.037256986857205625,1.6236194387197493,0.631232276000455,1.7344500497013329,-8.001422532764076,1.4365218728765845,45.40960428167016,26.733322845389473,3.808344007130329
9511,0.01666666753590107,0.135835872900486,1.4408873746097086,0.8219020743072032,1.8154038472048937,-8.177544823345542,1.7357962766785173,31.976288750412564,25.184961649229894,5.720989073804306
9528,0.01666666753590107,0.4205911182887852,0.7872147918075323,1.233953912309557,2.07637212042287,-8.827721380725503,2.2248116735044867,20.957663656807917,23.4063974648315,8.789390513616826
9545,0.01666666753590107,0.9588565759740769,0.35639819371104237,1.2512873244263232,2.569128457342833,-9.260772606006265,2.29409461469762,2.43991774135239,11.076550220408237,14.793909704491648
9561,0.01666666753590107,1.179050355733186,0.21479718141257761,1.2884066563785075,2.743605611065775,-9.411606141552328,2.3154919152524323,-17.447311838541957,-0.12853463526739897,20.561075552840293
9578,0.01666666753590107,0.9322636064723133,0.0053653264254331584,1.6113725360870361,2.4206878082826733,-9.644291446354984,2.527379419763386,-46.23966692621806,-8.758393407616017,24.809818631708822
9595,0.01666666753590107,0.24577362669557332,0.2805067941635847,1.3342600605368613,1.6745951543278992,-9.390358770862221,2.1109386991523205,-59.58756752681006,-11.906968034792971,23.609942224739758
9611,0.01666666753590107,0.034378947202861304,0.7064683534443378,1.0154337648510932,1.4110831879764794,-8.98349237267375,1.6316487967226654,-62.42556576846372,-11.93550541891893,19.44830113326182
9628,0.01666666753590107,-0.16428265357539057,1.0977683491885661,0.4201449819564819,1.1680715733401477,-8.60700416161418,0.8812154832150787,-56.675796411931096,-6.756208402904581,16.97586656881829
9645,0.01666666753590107,0.02821647905036807,1.1542881087899208,0.019968400262854992,1.3058876602724194,-8.564506497624516,0.3079544442659244,-44.48146012064088,-4.382795359726959,16.2426047802824
9661,0.01666666753590107,0.24735534292906522,1.189211538133025,-0.07667405609143897,1.4832085129886865,-8.537574651557206,0.1041479548798874,-39.40737405794094,-6.039054334865698,17.112110059739827
9678,0.01666666753590107,0.46144649496413764,1.4057605316489934,0.05640168161306064,1.6307508980348706,-8.330773145073652,0.11118045646571553,-32.96152646271398,0.6285976238810531,22.165476743592535
9694,0.01666666753590107,0.3891650295421481,1.6277917559683321,0.22313889330029485,1.499818433136493,-8.115745662036538,0.2050035034511471,-25.60785793433311,6.753506209314195,23.526362907413603
9711,0.01666666753590107,0.3658805270012468,1.7777637062489986,0.24151160360323265,1.415721588366851,-7.972240861943364,0.16669640018623322,-21.51188569663026,13.99456498196224,24.419891669729257
9728,0.01666666753590107,0.32032471754997965,1.8546803571909665,0.3743967917382717,1.2829934722233562,-7.9035589553833,0.23148924515219405,-23.934365965031606,13.242861682667316,26.676041463915162
9744,0.01666666753590107,0.03094488110095262,1.9669126516640185,0.593881254184246,0.9240127146732061,-7.7965674841731785,0.37648808319540694,-37.77706595966684,7.28909079732569,28.37649560496529
9761,0.01666666753590107,-0.2251710567150265,2.142584275868535,0.8231769165486097,0.5937623770449311,-7.624035327038168,0.48722007437441495,-55.25078330954007,2.879155040601451,29.185179757411046
9778,0.01666666753590107,-0.5383656301241367,2.6768366985201832,1.075190606677532,0.1822590397708118,-7.087882623723149,0.5262757081514224,-69.06063009426755,1.4290666062200164,29.309219407833062
9795,0.01666666753590107,-0.8352244972169399,2.5828712976217267,0.5501929191052913,-0.18510113132894038,-7.175122515758871,-0.1773201951291412,-70.4654565725666,0.7502184268415332,25.61688232177399
9812,0.01666666753590107,-0.794512109208852,2.5427245806723833,0.45617257314920423,-0.20290793311111627,-7.203852935680747,-0.45190556335449217,-71.60899416416682,-0.38301958633584626,20.7575254537482
9828,0.01666666753590107,-0.5617924637451768,1.8677151953309774,0.3176426388591528,-0.03591251344569027,-7.855075787243247,-0.8490437637329101,-82.68397514861324,-4.879717235054774,19.376754901705933
9845,0.01666666753590107,0.1730306812416762,1.365695647764206,0.26460093063190576,0.641197607034631,-8.330772560551763,-1.1245265922546386,-91.50080680099424,-3.8591516499319383,25.59386799936563
9862,0.01666666753590107,0.5077951718261465,1.112966502842307,0.23223303099051115,0.8982750102939083,-8.550441147392988,-1.3914797851011156,-91.80262603022793,1.0989067876858243,35.630863428097925
9879,0.01666666753590107,0.61559185847193,1.30246440782547,-0.1807367986395955,0.8702928879886865,-8.314761921471357,-2.0819078349791464,-70.52562370896524,10.832526344383897,45.53076500735702
9896,0.01666666753590107,-0.0275713130146265,2.0861989563018084,-0.382339275175333,0.12075819468810223,-7.503277196282148,-2.4293663509093224,-46.26979830574157,20.92470457896802,44.91391354794024
9912,0.01666666753590107,-0.3993675668656826,2.4548095658540725,-0.41103900769799945,-0.34536302778853567,-7.115717556110024,-2.5493757091246545,-29.000091876187454,24.467960833560515,40.11562710883083
9929,0.01666666753590107,-0.8780816421687603,2.7170798615813254,-0.4311104664765298,-0.918924045198108,-6.834546745079756,-2.6526256557188925,-24.978467955147483,22.41269885569573,27.382855052437467
9945,0.01666666753590107,-0.9326356546550989,2.5239199269592762,-0.38749402759000656,-1.0148417629078497,-7.010071654289961,-2.682403538867086,-34.64192033817178,14.817291149567895,15.216998942438918
9961,0.01666666753590107,-0.7929264474526048,2.22476513094902,-0.43813422763347626,-0.8981243497768416,-7.283759416088461,-2.835482953643799,-47.54526100116058,1.2847007397148649,8.810085986801965
9978,0.01666666753590107,-0.35211584021672604,1.273470953053236,-0.5908768116712569,-0.5011357870021834,-8.188468368420004,-3.163787271770835,-55.777414800210146,-6.681815690012095,17.568774800099586
9995,0.01666666753590107,0.5243379084892571,0.894018631491065,-0.19804858344644308,0.3173818324984982,-8.53083862130046,-2.899826830999553,-46.976371130095636,-2.0351938148662265,26.442585598084126
10011,0.01666666753590107,0.8293148347817361,1.0133721561461686,0.052285775293409824,0.550666929825209,-8.382098843163252,-2.7437548102781175,-28.815495768584103,10.493897518165713,33.916192248290415
10028,0.01666666753590107,0.6518938826918602,1.4065245017588137,0.19055150568932294,0.2706950097233057,-7.969547969597578,-2.658012171062827,-1.5784218191921562,27.410833214825132,39.60464699664384
10045,0.01666666753590107,0.025478615051694214,1.9063252042323349,-0.10327771138399838,-0.42901046198997644,-7.471404386681318,-2.935590218298137,15.436137024222315,27.93187078056497,36.67881252226381
10062,0.01666666753590107,-0.34847514562681314,2.010092452698946,-0.06402268257737159,-0.8646055265346542,-7.375786542400717,-2.858526852361858,16.12922534760748,25.047478478974,29.488095232006525
10078,0.01666666753590107,-0.876661327042058,2.078028509327769,0.4267708298370242,-1.4502870345851406,-7.312938164299726,-2.339284659576416,3.8573540295197555,27.082051813842813,20.655748804925842
10095,0.01666666753590107,-0.6033910600032657,1.9628350269615649,0.7674281413197517,-1.2014398456631228,-7.426364636993408,-1.999457953698933,0.024529223681712415,29.672643528285686,16.509723233437843
10112,0.01666666753590107,-0.3336358153481036,1.7947329612284897,0.8194587728083134,-0.9479536352962254,-7.591265276336669,-1.9547157256528733,-2.518107185649757,34.06947876873843,15.910148737526615
10128,0.01666666753590107,0.238188797589764,1.462781811031699,0.6468298773005604,-0.40491877125203607,-7.912236767357587,-2.1577733694329857,-12.51647106443646,29.403878999540268,22.134479637591724
10145,0.01666666753590107,0.038647126041352745,1.2923171078205107,0.03380348540246486,-0.6426929236263036,-8.064568432506919,-2.821866223962605,-27.007003402790005,13.70393531013632,21.139761622722332
