msFromStart,interval,accx,accy,accz,accGx,accGy,accGz,rotRate_alpha,rotRate_beta,rotRate_gamma
1698744748007.0,16,0.2,1.4000000000000001,-0.5,0.7000000000000001,9.600000000000001,4.6000000000000005,-71.8,16.6,-4.0
1698744748023.0,16,0.5,1.2000000000000002,-0.4,1.0,9.200000000000001,4.800000000000001,-74.4,18.6,-6.5
1698744748040.0,16,0.1,1.8,-0.7000000000000001,0.5,9.700000000000001,4.800000000000001,-76.80000000000001,16.6,-5.2
1698744748056.0,16,-0.4,2.1,-0.9,0.0,9.9,4.7,-81.6,17.7,-2.9
1698744748073.0,16,-0.5,2.7,-1.6,-0.1,10.3,4.2,-95.5,20.5,-3.3000000000000003
1698744748090.0,16,0.1,2.2,-1.1,0.4,9.700000000000001,5.0,-107.00000000000001,33.400000000000006,-6.5
1698744748107.0,16,0.30000000000000004,2.0,-0.6000000000000001,0.6000000000000001,9.4,5.6000000000000005,-101.50000000000001,38.5,-5.2
1698744748123.0,16,0.0,1.8,0.9,0.2,9.0,7.4,-73.2,24.8,2.5
1698744748140.0,16,-1.1,0.4,1.3,-0.9,7.5,7.9,-58.60000000000001,3.5,7.699999999999999
1698744748156.0,16,-1.0,-0.9,1.3,-0.8,6.1000000000000005,8.1,-58.400000000000006,0.0,8.1
1698744748172.0,16,-0.4,-0.9,1.0,-0.2,6.0,7.800000000000001,-50.4,-1.4,8.1
1698744748190.0,16,0.8,-1.0,0.1,1.0,5.800000000000001,7.0,-19.3,-4.0,3.4
1698744748206.0,16,0.5,-1.9000000000000001,-0.1,0.8,4.800000000000001,6.800000000000001,7.1000000000000005,-3.8,-3.4
1698744748222.0,16,0.1,-2.2,-0.2,0.30000000000000004,4.6000000000000005,6.7,15.2,-3.5,-5.500000000000001
1698744748240.0,16,-1.0,-2.1,0.30000000000000004,-0.8,4.7,7.1000000000000005,26.8,-7.2,-7.400000000000001
1698744748256.0,16,-1.2000000000000002,-2.1,0.30000000000000004,-1.0,4.9,6.9,32.6,-10.0,-6.5
1698744748273.0,16,-1.1,-2.1,0.1,-0.9,4.9,6.800000000000001,41.9,-14.900000000000002,-6.5
1698744748291.0,16,-0.9,-2.6,-0.5,-0.6000000000000001,4.4,6.1000000000000005,57.00000000000001,-19.0,-10.2
1698744748307.0,16,-0.7000000000000001,-3.1,-0.7000000000000001,-0.5,4.0,5.800000000000001,65.7,-21.5,-12.3
1698744748323.0,16,-0.7000000000000001,-3.8000000000000003,-1.1,-0.5,3.4000000000000004,5.2,78.5,-26.500000000000004,-16.400000000000002
1698744748340.0,16,-1.0,-3.7,-1.4000000000000001,-0.7000000000000001,3.7,4.7,80.4,-30.100000000000005,-19.8
1698744748356.0,16,-1.2000000000000002,-3.0,-1.3,-1.0,4.6000000000000005,4.6000000000000005,75.60000000000001,-30.200000000000003,-22.6
1698744748373.0,16,-1.2000000000000002,-2.7,-1.2000000000000002,-1.0,4.9,4.6000000000000005,71.9,-29.300000000000004,-23.700000000000003
1698744748390.0,16,-0.6000000000000001,-2.1,-0.5,-0.4,5.6000000000000005,5.0,64.2,-28.0,-24.8
1698744748407.0,16,-0.30000000000000004,-1.7000000000000002,-0.2,-0.1,6.0,5.2,60.20000000000001,-29.000000000000004,-24.1
1698744748423.0,16,0.1,-0.9,0.5,0.30000000000000004,6.9,5.800000000000001,48.9,-28.900000000000002,-20.6
1698744748440.0,16,0.5,-0.5,1.2000000000000002,0.7000000000000001,7.4,6.5,30.100000000000005,-25.5,-14.700000000000001
1698744748456.0,16,0.9,-0.8,1.7000000000000002,1.1,7.1000000000000005,6.800000000000001,13.0,-20.900000000000002,-7.500000000000001
1698744748473.0,16,1.0,-0.8,1.7000000000000002,1.2000000000000002,7.1000000000000005,6.9,6.000000000000001,-18.400000000000002,-3.6
1698744748490.0,16,0.9,-1.0,2.4000000000000004,1.2000000000000002,6.9,7.6000000000000005,-4.7,-16.700000000000003,3.2
1698744748506.0,16,0.7000000000000001,-1.4000000000000001,2.9000000000000004,1.1,6.7,7.800000000000001,-6.8,-14.800000000000002,5.7
1698744748524.0,16,0.7000000000000001,-1.4000000000000001,3.3000000000000003,1.1,6.5,8.6,-12.000000000000002,-8.9,6.8
1698744748539.0,16,0.4,-0.7000000000000001,3.1,0.8,7.2,8.5,-19.1,-2.8,7.6
1698744748556.0,16,0.0,-0.1,2.4000000000000004,0.5,7.7,7.9,-26.1,0.5,8.3
1698744748573.0,16,0.0,-0.1,2.1,0.4,7.7,7.6000000000000005,-26.8,0.4,7.6
1698744748589.0,16,0.0,0.1,1.6,0.4,7.800000000000001,7.2,-24.400000000000002,1.0999999999999999,6.1000000000000005
1698744748606.0,16,0.0,0.0,1.1,0.5,7.7,6.7,-25.400000000000002,3.6,5.300000000000001
1698744748623.0,16,0.0,-0.1,0.8,0.30000000000000004,7.2,6.2,-26.500000000000004,4.1000000000000005,4.7
1698744748640.0,16,-0.4,-0.7000000000000001,0.2,0.0,6.9,5.9,-22.3,2.1999999999999997,3.1
1698744748656.0,16,-0.8,-1.4000000000000001,-0.8,-0.30000000000000004,6.1000000000000005,5.0,-10.5,1.7,2.8
1698744748674.0,16,-0.8,-1.7000000000000002,-0.9,-0.30000000000000004,5.9,4.800000000000001,-3.7000000000000006,1.0,1.3
1698744748690.0,16,-0.6000000000000001,-1.7000000000000002,-1.5,-0.1,5.9,4.3,7.0,-0.2,2.7
1698744748707.0,16,0.0,-1.6,-1.6,0.4,5.9,4.1000000000000005,10.600000000000001,0.8,4.5
1698744748724.0,16,0.6000000000000001,-0.30000000000000004,-1.9000000000000001,1.1,7.300000000000001,3.8000000000000003,18.8,7.6,10.3
1698744748739.0,16,0.8,1.5,-2.3000000000000003,1.3,9.1,3.3000000000000003,27.3,10.5,9.700000000000001
1698744748757.0,16,0.8,1.7000000000000002,-1.7000000000000002,1.3,9.4,3.8000000000000003,37.900000000000006,9.600000000000001,0.6000000000000001
1698744748773.0,16,0.6000000000000001,1.9000000000000001,-1.3,1.1,9.600000000000001,4.1000000000000005,42.6,9.700000000000001,-1.5000000000000002
1698744748790.0,16,0.2,2.4000000000000004,-0.6000000000000001,0.6000000000000001,10.3,4.7,44.4,10.2,-2.6
1698744748806.0,16,0.2,2.2,-0.4,0.6000000000000001,10.200000000000001,4.800000000000001,42.300000000000004,11.8,0.8
1698744748823.0,16,0.4,1.9000000000000001,-0.4,0.8,9.9,4.7,43.50000000000001,11.000000000000002,3.4
1698744748840.0,16,1.0,1.5,-0.5,1.4000000000000001,9.600000000000001,4.5,47.2,10.700000000000001,7.500000000000001
1698744748856.0,16,1.1,0.9,-0.5,1.6,9.1,4.4,47.300000000000004,13.4,9.0
1698744748873.0,16,1.1,0.5,-0.30000000000000004,1.5,8.8,4.4,46.6,14.900000000000002,6.9
1698744748890.0,16,0.8,0.4,-0.30000000000000004,1.3,8.700000000000001,4.4,45.9,15.000000000000002,5.4
1698744748907.0,16,-0.1,0.7000000000000001,0.2,0.30000000000000004,9.1,4.7,42.800000000000004,11.8,1.8
1698744748927.0,16,-1.4000000000000001,1.2000000000000002,0.2,-1.0,9.600000000000001,4.7,32.0,5.2,-4.7
1698744748940.0,16,-2.2,1.3,0.4,-1.8,9.700000000000001,4.800000000000001,24.6,2.4000000000000004,-7.699999999999999
1698744748956.0,16,-2.6,0.5,0.1,-2.2,9.0,4.4,13.700000000000001,-1.9,-15.8
1698744748973.0,16,-2.0,0.1,-0.2,-1.7000000000000002,8.6,4.2,10.8,-3.8,-19.9
1698744748990.0,16,-0.1,0.0,0.0,0.1,8.5,4.3,11.6,-8.799999999999999,-22.3
1698744749007.0,16,0.9,-0.2,0.30000000000000004,1.1,8.3,4.6000000000000005,15.2,-18.3,-19.3
1698744749023.0,16,0.9,-0.30000000000000004,0.30000000000000004,1.1,8.200000000000001,4.5,13.5,-19.9,-16.1
1698744749041.0,16,0.6000000000000001,-0.4,-0.2,0.8,8.200000000000001,4.0,6.7,-14.0,-11.700000000000001
1698744749056.0,16,0.5,-0.2,-0.1,0.7000000000000001,8.4,4.1000000000000005,7.699999999999999,-7.1000000000000005,-9.0
1698744749073.0,16,0.5,0.0,0.0,0.7000000000000001,8.6,3.9000000000000004,15.5,-10.4,-5.6
1698744749090.0,16,0.5,0.0,-0.30000000000000004,0.7000000000000001,8.6,3.8000000000000003,15.2,-6.9,-3.0000000000000004
1698744749106.0,16,0.6000000000000001,0.2,0.0,0.8,8.8,4.1000000000000005,14.0,1.2000000000000002,2.6
1698744749123.0,16,0.7000000000000001,0.4,0.2,0.9,9.0,4.2,14.800000000000002,2.8,3.6
1698744749139.0,16,0.5,0.4,0.4,0.8,9.0,4.4,13.3,2.3000000000000003,2.9
1698744749156.0,16,0.0,0.2,0.4,0.2,8.8,4.4,7.2,3.4,1.7
1698744749173.0,16,-0.4,-0.2,0.30000000000000004,-0.2,8.5,4.3,4.6000000000000005,1.8,-0.30000000000000004
1698744749189.0,16,-0.4,-0.30000000000000004,0.30000000000000004,-0.2,8.4,4.3,4.3999999999999995,0.8,-1.7
1698744749206.0,16,-0.5,-0.5,0.30000000000000004,-0.30000000000000004,8.200000000000001,4.3,4.300000000000001,0.30000000000000004,-4.3999999999999995
1698744749223.0,16,-0.4,-0.4,0.30000000000000004,-0.2,8.3,4.2,4.1000000000000005,2.3000000000000003,-5.6
1698744749239.0,16,-0.30000000000000004,-0.30000000000000004,0.30000000000000004,-0.1,8.4,4.2,4.0,2.4000000000000004,-5.2
1698744749256.0,16,-0.1,-0.2,0.1,0.0,8.5,4.1000000000000005,4.300000000000001,1.7,-3.5
1698744749273.0,16,0.0,-0.2,0.1,0.2,8.5,4.0,4.5,1.4,-2.7
1698744749292.0,16,0.0,-0.2,0.1,0.1,8.5,4.0,4.9,2.4000000000000004,-3.2
1698744749306.0,16,-0.1,-0.1,0.1,0.0,8.6,4.0,5.0,2.7,-3.5
1698744749323.0,16,-0.2,-0.1,0.0,-0.1,8.700000000000001,3.9000000000000004,5.2,2.9,-3.7000000000000006
1698744749340.0,16,-0.2,0.0,0.0,-0.1,8.700000000000001,3.8000000000000003,6.1000000000000005,2.0,-3.2
1698744749356.0,16,-0.2,0.1,0.0,-0.1,8.8,3.8000000000000003,6.5,0.6000000000000001,-2.7
1698744749374.0,16,-0.2,0.1,-0.1,-0.1,8.8,3.8000000000000003,5.4,-0.30000000000000004,-2.8
1698744749391.0,16,-0.2,0.0,-0.1,-0.1,8.8,3.7,4.7,-0.8,-2.8
1698744749406.0,16,-0.1,0.0,-0.1,0.0,8.8,3.7,4.3999999999999995,-1.0999999999999999,-2.7
1698744749423.0,16,0.0,0.0,-0.1,0.1,8.700000000000001,3.7,5.7,-1.4,-2.3000000000000003
1698744749440.0,16,0.0,0.0,-0.1,0.1,8.700000000000001,3.7,6.5,-1.4,-2.1999999999999997
1698744749456.0,16,0.0,0.0,-0.2,0.0,8.8,3.6,7.6,-1.0,-2.0
1698744749473.0,16,0.0,0.0,-0.1,0.0,8.8,3.6,7.9,-0.4,-2.0
1698744749490.0,16,0.0,0.0,-0.1,0.0,8.8,3.6,8.0,-0.2,-1.9
1698744749506.0,16,0.0,0.0,-0.1,0.0,8.8,3.6,8.3,-0.30000000000000004,-2.0
1698744749523.0,16,0.0,0.0,-0.1,0.0,8.8,3.6,8.5,-0.2,-1.7
1698744749540.0,16,0.0,0.0,-0.1,0.0,8.8,3.6,8.600000000000001,-0.30000000000000004,-1.6
1698744749557.0,16,0.0,0.0,-0.1,0.0,8.9,3.6,9.0,-0.30000000000000004,-1.4
1698744749573.0,16,0.0,0.0,-0.1,0.0,8.8,3.5,9.0,-0.4,-1.0999999999999999
1698744749591.0,16,0.0,0.0,-0.1,0.0,8.8,3.5,9.0,-0.2,-1.0999999999999999
1698744749606.0,16,0.1,0.0,-0.1,0.1,8.9,3.5,9.200000000000001,-0.1,-0.9
1698744749623.0,16,0.1,0.0,-0.1,0.1,8.9,3.4000000000000004,9.200000000000001,0.1,-0.6000000000000001
1698744749640.0,16,0.0,0.1,-0.1,0.0,9.0,3.3000000000000003,8.600000000000001,0.0,-0.7
1698744749656.0,16,0.0,0.1,-0.1,0.0,9.0,3.3000000000000003,8.1,0.0,-0.7
1698744749673.0,16,0.0,0.2,-0.1,0.0,9.1,3.3000000000000003,7.2,-0.4,-1.0
1698744749690.0,16,0.0,0.1,-0.1,0.0,9.0,3.3000000000000003,6.9,-0.5,-1.0999999999999999
1698744749706.0,16,0.0,0.1,-0.1,0.0,9.0,3.3000000000000003,7.1000000000000005,-1.0,-1.6
1698744749724.0,16,0.0,0.0,-0.1,0.0,8.9,3.2,7.2,-0.6000000000000001,-1.5000000000000002
1698744749740.0,16,-0.1,0.0,-0.1,-0.1,9.0,3.2,7.500000000000001,-1.0,-1.0999999999999999
1698744749758.0,16,-0.1,0.0,-0.1,-0.1,9.0,3.2,7.400000000000001,-1.0,-1.0
1698744749773.0,16,0.0,0.1,-0.1,0.0,9.0,3.1,7.500000000000001,-1.0999999999999999,-0.7
1698744749789.0,16,0.0,0.1,-0.1,0.0,9.1,3.1,7.6,-1.0999999999999999,-0.8
1698744749806.0,16,0.0,0.1,-0.1,0.0,9.1,3.1,8.0,-1.4,-0.8
1698744749824.0,16,0.0,0.1,-0.1,-0.1,9.1,3.1,7.500000000000001,-1.0999999999999999,-0.6000000000000001
1698744749840.0,16,0.0,0.1,-0.1,-0.1,9.1,3.1,6.7,-1.0,-0.5
1698744749857.0,16,0.0,0.1,-0.1,-0.1,9.200000000000001,3.1,6.1000000000000005,-1.0,-0.6000000000000001
1698744749874.0,16,0.0,0.1,-0.1,0.0,9.200000000000001,3.1,5.0,-1.0,-0.6000000000000001
1698744749890.0,16,0.0,0.1,0.0,0.0,9.1,3.1,3.5,-1.0,-0.6000000000000001
1698744749906.0,16,0.0,0.1,0.0,0.0,9.1,3.1,2.8,-0.9,-0.7
1698744749923.0,16,0.0,0.0,0.0,0.0,9.1,3.1,1.8,-0.7,-0.8
1698744749939.0,16,0.0,0.0,0.0,0.0,9.1,3.1,1.5000000000000002,-0.7,-0.9
1698744749957.0,16,0.0,0.0,-0.1,0.0,9.1,3.0,1.3,-0.30000000000000004,-0.7
1698744749974.0,16,0.0,0.0,-0.1,0.0,9.0,3.0,1.0,-0.2,-0.5
1698744749992.0,16,0.0,-0.1,-0.1,0.0,9.0,3.0,0.6000000000000001,0.0,-0.2
1698744750007.0,16,0.0,-0.1,0.0,0.0,9.0,3.1,0.4,0.30000000000000004,0.30000000000000004
1698744750023.0,16,0.0,0.0,0.0,0.0,9.0,3.1,0.6000000000000001,0.8,0.5
1698744750040.0,16,0.1,0.1,-0.1,0.0,9.1,3.0,0.5,0.9,0.7
1698744750056.0,16,0.0,0.1,0.0,0.0,9.200000000000001,3.0,0.5,1.0999999999999999,0.7
1698744750073.0,16,0.0,0.1,0.0,0.0,9.1,3.1,0.30000000000000004,1.8,0.7
1698744750089.0,16,0.0,0.0,0.0,0.0,9.1,3.1,-0.30000000000000004,1.7,0.7
1698744750106.0,16,0.0,0.0,0.0,-0.1,9.0,3.1,-0.5,1.7,0.7
1698744750123.0,16,0.0,0.0,0.0,-0.1,9.0,3.1,-0.9,1.5000000000000002,0.8
1698744750140.0,16,-0.1,-0.1,0.0,-0.1,9.0,3.1,-0.8,1.4,0.9
1698744750156.0,16,0.0,-0.1,0.0,-0.1,9.0,3.1,-0.5,1.2000000000000002,1.0999999999999999
1698744750174.0,16,0.0,-0.1,0.0,0.0,9.0,3.1,-0.8,0.9,1.0999999999999999
1698744750190.0,16,0.0,0.0,0.0,0.0,9.0,3.1,-1.3,0.8,1.0999999999999999
1698744750207.0,16,0.0,0.0,0.0,0.0,9.1,3.0,-1.5000000000000002,1.0,1.0999999999999999
1698744750224.0,16,0.0,0.1,0.0,0.0,9.1,3.0,-1.6,1.2000000000000002,1.0999999999999999
1698744750240.0,16,0.0,0.2,-0.1,0.0,9.200000000000001,3.0,-2.0,0.5,1.3
1698744750256.0,16,0.0,0.2,-0.1,0.0,9.3,3.0,-2.1,0.30000000000000004,1.3
1698744750273.0,16,0.0,0.30000000000000004,-0.1,0.0,9.3,2.9000000000000004,-3.1,-0.9,1.3
1698744750290.0,16,0.0,0.2,0.0,0.0,9.200000000000001,3.1,-3.3000000000000003,-0.8,1.3
1698744750306.0,16,-0.1,0.1,0.0,-0.1,9.1,3.1,-3.2,-0.30000000000000004,1.4
1698744750324.0,16,-0.1,-0.1,0.0,-0.1,9.0,3.1,-4.6000000000000005,-0.6000000000000001,1.6
1698744750339.0,16,-0.1,-0.1,0.0,-0.1,8.9,3.1,-4.800000000000001,-1.3,1.6
1698744750356.0,16,0.0,-0.1,-0.1,0.0,9.0,3.1,-4.0,-1.0,1.2000000000000002
1698744750375.0,16,0.1,-0.1,0.0,0.1,9.0,3.1,-3.7000000000000006,-0.5,1.0999999999999999
1698744750389.0,16,0.1,0.0,0.0,0.1,9.0,3.2,-4.6000000000000005,0.2,1.2000000000000002
1698744750406.0,16,0.1,-0.1,0.1,0.1,9.0,3.2,-5.0,1.0999999999999999,1.5000000000000002
1698744750423.0,16,0.0,0.0,0.1,0.0,9.0,3.3000000000000003,-5.1,1.0999999999999999,1.9
1698744750440.0,16,0.0,-0.1,0.1,0.0,9.0,3.3000000000000003,-4.9,0.8,1.8
1698744750456.0,16,0.0,-0.1,0.1,0.0,8.9,3.3000000000000003,-5.0,0.6000000000000001,1.6
1698744750476.0,16,0.0,-0.2,0.1,0.1,8.8,3.3000000000000003,-5.1,0.2,1.0999999999999999
1698744750490.0,16,0.1,-0.2,0.1,0.1,8.8,3.3000000000000003,-5.0,0.2,0.6000000000000001
1698744750506.0,16,0.1,-0.1,0.1,0.1,8.9,3.3000000000000003,-4.800000000000001,0.30000000000000004,0.6000000000000001
1698744750524.0,16,0.0,0.0,0.1,0.1,9.0,3.4000000000000004,-5.500000000000001,1.0,0.6000000000000001
1698744750540.0,16,0.0,0.0,0.1,0.1,9.0,3.4000000000000004,-6.7,1.8,1.0999999999999999
1698744750556.0,16,0.0,0.0,0.1,0.1,9.0,3.4000000000000004,-7.1000000000000005,2.1999999999999997,1.2000000000000002
1698744750573.0,16,0.0,0.0,0.0,0.1,9.0,3.3000000000000003,-7.2,2.7,1.0999999999999999
1698744750590.0,16,0.0,0.0,-0.1,0.1,8.9,3.3000000000000003,-6.7,2.9,1.2000000000000002
1698744750608.0,16,0.1,0.0,-0.1,0.1,8.9,3.3000000000000003,-5.6,2.5,1.2000000000000002
1698744750623.0,16,0.0,-0.1,-0.1,0.1,8.8,3.3000000000000003,-4.800000000000001,2.3000000000000003,1.2000000000000002
1698744750640.0,16,0.0,-0.2,-0.1,0.0,8.700000000000001,3.3000000000000003,-3.4,2.6,0.7
1698744750656.0,16,0.0,-0.2,0.0,0.1,8.8,3.4000000000000004,-2.8,2.9,0.4
1698744750673.0,16,0.0,0.0,0.0,0.1,8.9,3.4000000000000004,-2.5,3.7000000000000006,0.1
1698744750690.0,16,0.1,-0.1,0.1,0.2,8.8,3.6,-2.6,4.5,0.1
1698744750706.0,16,0.1,-0.1,0.2,0.2,8.8,3.6,-2.1999999999999997,5.0,0.6000000000000001
1698744750723.0,16,0.0,-0.1,0.2,0.1,8.8,3.6,-2.0,5.0,0.7
1698744750740.0,16,0.0,0.0,0.1,0.0,8.8,3.6,-2.3000000000000003,4.5,0.8
1698744750756.0,16,-0.1,-0.1,0.2,-0.1,8.8,3.6,-2.8,3.5,0.7
1698744750773.0,16,-0.1,-0.1,0.1,-0.1,8.8,3.6,-3.0000000000000004,2.9,0.8
1698744750790.0,16,-0.1,-0.1,0.1,-0.1,8.8,3.6,-3.1,2.1,0.4
1698744750808.0,16,-0.1,-0.1,0.1,-0.1,8.700000000000001,3.6,-3.3000000000000003,1.6,-0.2
1698744750824.0,16,-0.1,-0.1,0.1,-0.1,8.8,3.6,-3.4,1.0999999999999999,-0.2
1698744750840.0,16,-0.1,0.0,0.0,-0.1,8.8,3.5,-3.4,0.7,-0.5
1698744750856.0,16,0.0,-0.1,0.0,0.0,8.8,3.5,-2.7,0.30000000000000004,-0.8
1698744750873.0,16,0.0,-0.1,0.0,0.0,8.700000000000001,3.5,-2.5,0.0,-1.0
1698744750892.0,16,0.0,-0.1,0.0,0.0,8.8,3.5,-1.6,-0.30000000000000004,-1.2000000000000002
1698744750907.0,16,0.0,-0.1,-0.1,0.0,8.8,3.5,-0.6000000000000001,-1.0,-1.3
1698744750923.0,16,0.0,0.0,-0.1,0.0,8.8,3.5,-0.1,-1.3,-1.4
1698744750940.0,16,0.0,0.1,0.0,0.0,8.9,3.5,0.6000000000000001,-1.6,-1.6
1698744750956.0,16,0.0,0.1,0.0,0.0,8.9,3.5,0.6000000000000001,-1.6,-1.7
1698744750973.0,16,0.0,0.0,0.0,0.0,8.8,3.5,0.6000000000000001,-1.4,-1.9
1698744750990.0,16,0.0,0.0,0.0,0.0,8.8,3.5,0.8,-1.6,-2.1
1698744751006.0,16,0.0,0.0,0.0,0.0,8.9,3.5,1.0999999999999999,-2.1999999999999997,-2.0
1698744751023.0,16,0.0,0.1,0.0,0.0,8.9,3.5,1.0,-2.3000000000000003,-2.1
1698744751039.0,16,0.1,0.1,0.0,0.0,8.9,3.5,0.8,-2.1999999999999997,-1.7
1698744751056.0,16,0.1,0.0,0.0,0.0,8.9,3.5,0.7,-1.7,-1.8
1698744751073.0,16,0.0,0.0,0.0,0.0,8.8,3.5,0.7,-1.0,-1.4
1698744751090.0,16,-0.1,0.0,0.0,-0.1,8.8,3.5,0.6000000000000001,-1.2000000000000002,-1.4
1698744751106.0,16,-0.1,0.0,0.0,-0.1,8.9,3.5,0.8,-1.3,-1.3
1698744751123.0,16,-0.1,0.1,0.0,-0.1,8.9,3.5,1.0999999999999999,-1.3,-1.0999999999999999
1698744751140.0,16,-0.1,0.0,0.0,-0.1,8.9,3.5,1.3,-1.6,-1.0
1698744751156.0,16,0.0,0.0,0.0,-0.1,8.8,3.5,1.2000000000000002,-1.4,-0.6000000000000001
1698744751172.0,16,0.0,0.0,0.0,-0.1,8.9,3.5,1.3,-2.1,-0.5
1698744751189.0,16,0.0,0.0,0.0,-0.1,8.9,3.5,1.3,-2.3000000000000003,-0.6000000000000001
1698744751206.0,16,0.0,0.0,-0.2,0.0,8.9,3.3000000000000003,1.8,-2.4000000000000004,-0.6000000000000001
1698744751223.0,16,0.2,-0.1,-0.2,0.1,8.8,3.3000000000000003,2.5,-1.9,-0.5
1698744751240.0,16,0.2,-0.1,-0.1,0.1,8.8,3.3000000000000003,4.9,-0.6000000000000001,-0.2
1698744751256.0,16,0.0,0.0,0.0,0.0,8.9,3.4000000000000004,5.300000000000001,0.5,0.4
1698744751273.0,16,-0.1,0.1,0.0,-0.1,9.0,3.4000000000000004,4.2,0.9,0.6000000000000001
1698744751289.0,16,-0.2,0.2,0.0,-0.2,9.0,3.5,3.7000000000000006,0.7,0.9
1698744751306.0,16,-0.2,0.1,0.1,-0.2,9.0,3.5,2.8,-0.5,0.5
1698744751323.0,16,0.0,0.0,0.1,-0.1,8.9,3.5,2.0,-1.2000000000000002,-0.2
1698744751340.0,16,0.0,0.0,0.1,0.0,8.9,3.5,1.2000000000000002,-1.4,-0.5
1698744751356.0,16,0.1,0.0,0.1,0.1,8.9,3.5,0.0,-0.9,-0.4
1698744751373.0,16,0.1,0.0,0.1,0.0,8.9,3.6,-0.4,0.30000000000000004,0.4
1698744751390.0,16,0.0,-0.1,0.1,0.0,8.8,3.5,-0.4,0.5,0.8
1698744751406.0,16,-0.1,0.0,0.1,-0.1,8.9,3.5,-0.9,0.7,1.2000000000000002
1698744751423.0,16,-0.1,0.0,0.1,-0.1,8.9,3.5,-1.2000000000000002,0.30000000000000004,1.0999999999999999
1698744751440.0,16,0.0,0.0,0.1,0.0,8.9,3.5,-2.1999999999999997,-0.4,0.4
1698744751456.0,16,0.1,-0.1,0.2,0.0,8.8,3.6,-3.1,-0.30000000000000004,0.7
1698744751473.0,16,0.0,-0.1,0.1,0.0,8.8,3.6,-5.0,-1.0999999999999999,0.8
1698744751491.0,16,0.0,-0.1,0.1,0.0,8.8,3.6,-5.300000000000001,-1.0,0.6000000000000001
1698744751506.0,16,0.0,-0.1,0.1,-0.1,8.8,3.6,-3.8,-1.0999999999999999,0.9
1698744751523.0,16,-0.2,-0.1,0.1,-0.2,8.8,3.6,-3.3000000000000003,-1.9,1.3
1698744751539.0,16,-0.2,-0.1,0.0,-0.2,8.8,3.5,-4.0,-2.8,1.2000000000000002
1698744751556.0,16,-0.2,-0.1,-0.2,-0.2,8.700000000000001,3.4000000000000004,-3.7000000000000006,-2.7,0.0
1698744751573.0,16,0.0,-0.2,-0.30000000000000004,0.0,8.700000000000001,3.2,0.5,-1.9,-1.7
1698744751589.0,16,0.2,0.0,-0.2,0.2,8.9,3.3000000000000003,3.2,-1.0,-2.1
1698744751606.0,16,0.2,0.1,-0.2,0.2,9.0,3.4000000000000004,3.1,-0.6000000000000001,-1.7
1698744751623.0,16,0.2,0.2,-0.1,0.2,9.0,3.4000000000000004,2.1999999999999997,0.1,-0.4
1698744751639.0,16,0.2,0.2,-0.1,0.1,9.0,3.4000000000000004,1.6,0.1,0.9
1698744751656.0,16,0.1,0.2,-0.1,0.0,9.0,3.4000000000000004,1.8,-0.30000000000000004,1.0999999999999999
1698744751673.0,16,0.0,0.1,-0.1,0.0,8.9,3.4000000000000004,2.4000000000000004,-1.4,0.5
1698744751689.0,16,-0.1,0.1,-0.1,-0.1,9.0,3.4000000000000004,2.3000000000000003,-1.7,0.1
1698744751706.0,16,0.0,0.1,-0.1,-0.1,8.9,3.4000000000000004,1.4,-1.9,-0.5
1698744751723.0,16,0.0,0.1,0.0,-0.1,8.9,3.4000000000000004,0.0,-1.8,-1.3
1698744751740.0,16,-0.1,0.1,-0.1,-0.1,8.9,3.4000000000000004,-0.6000000000000001,-1.3,-1.2000000000000002
1698744751756.0,16,-0.2,0.1,-0.1,-0.2,8.9,3.4000000000000004,-0.7,-1.9,-1.0
1698744751773.0,16,-0.1,0.1,0.0,-0.1,9.0,3.5,-1.2000000000000002,-3.8,-1.4
1698744751789.0,16,0.1,0.1,0.0,0.1,9.0,3.4000000000000004,-2.5,-4.3999999999999995,-0.8
1698744751806.0,16,0.2,0.1,-0.1,0.1,9.0,3.4000000000000004,-2.9,-4.2,-0.4
1698744751823.0,16,0.2,0.0,-0.1,0.1,8.8,3.4000000000000004,-2.6,-3.8,0.2
1698744751839.0,16,0.1,-0.1,-0.1,0.1,8.8,3.4000000000000004,-1.3,-2.0,0.8
1698744751856.0,16,0.1,0.0,-0.1,0.1,8.8,3.4000000000000004,-0.9,-1.4,0.9
1698744751873.0,16,0.1,0.0,-0.1,0.1,8.9,3.4000000000000004,-0.5,0.0,0.9
1698744751889.0,16,0.1,0.0,-0.1,0.1,8.9,3.4000000000000004,-0.30000000000000004,0.8,0.9
1698744751906.0,16,0.0,0.0,-0.1,0.1,8.9,3.4000000000000004,0.0,0.7,1.2000000000000002
1698744751923.0,16,0.0,0.1,-0.1,0.0,9.0,3.4000000000000004,-1.0,0.30000000000000004,1.5000000000000002
1698744751940.0,16,0.1,0.1,-0.1,0.1,9.0,3.4000000000000004,-1.9,-0.2,1.8
1698744751956.0,16,0.1,0.1,-0.1,0.1,9.0,3.4000000000000004,-2.0,-0.30000000000000004,1.6
1698744751973.0,16,0.1,0.1,-0.2,0.1,9.0,3.3000000000000003,-1.9,1.6,1.7
1698744751989.0,16,0.0,0.1,-0.2,0.0,9.0,3.4000000000000004,-1.0999999999999999,3.3000000000000003,2.1999999999999997
1698744752006.0,16,0.0,0.1,-0.1,0.0,9.0,3.4000000000000004,-1.0999999999999999,3.3000000000000003,2.1999999999999997
1698744752023.0,16,0.0,0.2,0.0,0.0,9.0,3.5,-1.8,1.2000000000000002,2.5
1698744752039.0,16,0.0,0.1,0.0,0.0,9.0,3.5,-4.6000000000000005,0.8,2.3000000000000003
1698744752056.0,16,0.0,0.0,0.0,0.0,8.9,3.5,-5.4,1.0,1.8
1698744752073.0,16,0.0,-0.1,0.0,0.0,8.8,3.5,-4.5,1.4,1.0999999999999999
1698744752090.0,16,0.0,-0.1,0.0,0.0,8.8,3.6,-3.9,2.0,1.3
1698744752106.0,16,0.0,0.0,0.1,0.0,8.8,3.6,-4.0,1.6,1.5000000000000002
1698744752123.0,16,0.0,0.0,0.0,0.0,8.9,3.6,-5.0,1.0999999999999999,1.8
1698744752139.0,16,0.0,0.0,0.0,0.1,8.9,3.6,-5.300000000000001,1.2000000000000002,1.8
1698744752156.0,16,0.0,0.0,0.0,0.1,8.8,3.6,-5.0,1.3,1.6
1698744752173.0,16,0.1,-0.1,0.0,0.1,8.8,3.6,-4.3999999999999995,1.4,1.2000000000000002
1698744752190.0,16,0.0,-0.1,0.0,0.1,8.700000000000001,3.6,-3.5,1.7,1.0999999999999999
1698744752206.0,16,0.0,-0.1,0.0,0.1,8.700000000000001,3.7,-3.5,1.5000000000000002,1.0999999999999999
1698744752223.0,16,0.0,-0.1,0.0,0.0,8.700000000000001,3.7,-3.3000000000000003,1.6,0.9
1698744752239.0,16,0.0,-0.1,0.1,0.1,8.700000000000001,3.7,-2.9,1.2000000000000002,0.7
1698744752256.0,16,0.0,-0.1,0.0,0.1,8.700000000000001,3.7,-2.4000000000000004,0.8,0.4
1698744752272.0,16,0.0,-0.1,0.1,0.1,8.700000000000001,3.8000000000000003,-2.3000000000000003,0.6000000000000001,0.30000000000000004
1698744752289.0,16,0.0,-0.1,0.1,0.1,8.700000000000001,3.8000000000000003,-2.0,0.5,-0.1
1698744752306.0,16,0.0,-0.1,0.1,0.1,8.700000000000001,3.8000000000000003,-1.6,0.4,-0.30000000000000004
1698744752323.0,16,0.0,-0.1,0.1,0.1,8.700000000000001,3.8000000000000003,-1.0999999999999999,0.5,-0.4
1698744752339.0,16,0.0,-0.1,0.1,0.1,8.700000000000001,3.8000000000000003,-0.6000000000000001,0.5,-0.4
1698744752356.0,16,0.0,0.0,0.0,0.0,8.8,3.6,-0.9,0.7,-0.2
1698744752373.0,16,-0.1,0.1,-0.1,0.0,8.8,3.6,-1.5000000000000002,0.9,-0.2
1698744752389.0,16,-0.1,0.1,-0.2,-0.1,8.9,3.5,-0.9,0.0,-0.7
1698744752407.0,16,-0.1,0.1,-0.1,-0.1,8.8,3.6,0.4,-1.9,-1.6
1698744752423.0,16,-0.1,0.0,-0.1,-0.1,8.8,3.6,1.0,-1.6,-2.0
1698744752439.0,16,0.0,0.0,-0.1,0.1,8.8,3.5,1.6,-1.0999999999999999,-2.4000000000000004
1698744752456.0,16,0.1,0.1,-0.2,0.2,8.9,3.6,1.2000000000000002,-1.9,-2.4000000000000004
1698744752473.0,16,0.2,0.1,0.0,0.2,8.9,3.7,0.8,-2.0,-2.1999999999999997
1698744752489.0,16,0.2,0.1,0.1,0.30000000000000004,8.9,3.8000000000000003,0.7,0.6000000000000001,-2.1
1698744752506.0,16,0.1,0.0,0.1,0.1,8.8,3.8000000000000003,-0.9,1.7,-1.3
1698744752523.0,16,0.0,0.0,0.1,0.0,8.8,3.8000000000000003,-1.7,1.6,-1.0
1698744752540.0,16,-0.30000000000000004,-0.1,0.1,-0.2,8.700000000000001,3.7,-2.1999999999999997,0.4,-1.0999999999999999
1698744752556.0,16,-0.30000000000000004,-0.1,0.0,-0.30000000000000004,8.700000000000001,3.8000000000000003,-2.0,-0.6000000000000001,-1.4
1698744752573.0,16,-0.2,-0.1,0.1,-0.2,8.700000000000001,3.8000000000000003,-1.4,-3.1,-2.3000000000000003
1698744752591.0,16,0.1,-0.1,0.1,0.1,8.700000000000001,3.8000000000000003,-1.8,-4.3999999999999995,-2.7
1698744752606.0,16,0.2,0.0,-0.1,0.2,8.8,3.6,-2.3000000000000003,-3.7000000000000006,-1.9
1698744752623.0,16,0.1,0.1,0.0,0.1,8.8,3.7,-2.3000000000000003,-3.5,-1.4
1698744752639.0,16,-0.1,0.0,0.2,-0.1,8.8,3.9000000000000004,-1.4,-3.5,-1.0999999999999999
1698744752656.0,16,0.0,-0.2,0.1,0.1,8.6,3.8000000000000003,-1.6,-2.3000000000000003,-1.3
1698744752672.0,16,0.1,-0.1,0.0,0.1,8.6,3.8000000000000003,-1.5000000000000002,-1.8,-1.0999999999999999
1698744752689.0,16,0.0,-0.2,0.0,0.1,8.6,3.7,-0.6000000000000001,-1.6,-0.6000000000000001
1698744752706.0,16,0.0,-0.1,0.0,0.0,8.6,3.7,0.0,-1.7,-0.4
1698744752723.0,16,-0.1,0.0,0.0,-0.1,8.700000000000001,3.7,0.6000000000000001,-1.4,-0.5
1698744752739.0,16,-0.1,0.0,0.0,-0.1,8.8,3.7,0.6000000000000001,-1.0999999999999999,-0.8
1698744752756.0,16,-0.1,0.1,0.0,-0.1,8.8,3.7,1.0,-1.0,-0.9
1698744752773.0,16,0.0,0.0,0.0,0.0,8.8,3.7,1.0999999999999999,-0.9,-0.8
1698744752789.0,16,0.0,0.1,-0.1,0.1,8.9,3.6,0.8,0.30000000000000004,-0.1
1698744752806.0,16,0.1,0.1,-0.1,0.1,8.8,3.6,0.8,1.4,0.4
1698744752823.0,16,0.0,0.0,-0.1,0.0,8.8,3.6,2.7,2.9,1.4
1698744752839.0,16,0.0,-0.1,0.1,0.0,8.700000000000001,3.8000000000000003,5.2,1.2000000000000002,1.5000000000000002
1698744752856.0,16,0.1,0.0,0.1,0.1,8.8,3.8000000000000003,4.5,1.4,1.6
1698744752873.0,16,0.1,0.1,0.1,0.2,8.9,3.8000000000000003,3.3000000000000003,2.5,1.7
1698744752889.0,16,0.0,0.1,0.0,0.1,8.9,3.7,1.4,3.8,2.0
1698744752906.0,16,-0.2,-0.1,0.0,-0.1,8.700000000000001,3.7,1.2000000000000002,3.1,1.5000000000000002
1698744752922.0,16,-0.2,-0.2,0.1,-0.1,8.5,3.7,1.6,2.1999999999999997,1.2000000000000002
1698744752944.0,16,-0.1,-0.2,0.0,-0.1,8.5,3.7,1.7,2.3000000000000003,1.0999999999999999
1698744752956.0,16,0.0,0.0,-0.1,0.0,8.700000000000001,3.6,1.6,1.9,1.2000000000000002
1698744752973.0,16,0.0,0.0,-0.1,0.0,8.8,3.5,1.9,2.0,1.2000000000000002
1698744752990.0,16,0.0,0.2,-0.2,0.0,8.9,3.5,2.7,2.3000000000000003,1.4
1698744753007.0,16,0.0,0.2,-0.2,0.1,9.0,3.5,3.3000000000000003,1.9,1.5000000000000002
1698744753023.0,16,0.1,0.1,-0.2,0.1,8.9,3.4000000000000004,4.1000000000000005,1.4,1.4
1698744753039.0,16,0.1,0.1,-0.2,0.1,8.9,3.4000000000000004,4.6000000000000005,1.0999999999999999,1.3
1698744753056.0,16,0.0,0.0,-0.1,0.0,8.9,3.5,6.000000000000001,0.9,1.2000000000000002
1698744753073.0,16,0.0,0.0,-0.1,0.0,8.9,3.5,6.3,0.6000000000000001,1.0999999999999999
1698744753089.0,16,-0.1,0.1,-0.1,-0.1,8.9,3.5,6.000000000000001,-0.2,0.8
1698744753106.0,16,-0.1,0.1,0.0,-0.1,8.9,3.5,5.300000000000001,-0.30000000000000004,0.5
1698744753123.0,16,-0.1,0.1,0.0,0.0,8.9,3.6,5.0,-0.5,0.4
1698744753139.0,16,0.0,0.1,0.0,0.0,9.0,3.5,4.1000000000000005,-1.0999999999999999,-0.1
1698744753156.0,16,0.0,0.0,0.1,0.0,8.9,3.6,3.1,-0.9,0.0
1698744753172.0,16,0.0,0.0,0.1,0.0,8.9,3.6,2.3000000000000003,-0.9,0.2
1698744753189.0,16,0.0,0.0,0.0,0.0,8.9,3.5,1.9,-0.6000000000000001,0.2
1698744753206.0,16,0.0,0.0,0.0,0.1,8.9,3.5,0.8,-0.6000000000000001,-0.1
1698744753223.0,16,0.0,0.0,0.0,0.1,8.9,3.5,0.4,-0.6000000000000001,0.0
1698744753240.0,16,0.0,0.0,-0.1,0.0,8.9,3.4000000000000004,0.0,-1.0,-0.2
1698744753256.0,16,0.0,0.0,-0.1,0.0,8.9,3.4000000000000004,-0.1,-0.7,0.1
1698744753273.0,16,0.0,0.0,-0.1,0.1,8.9,3.4000000000000004,0.4,-0.8,0.1
1698744753289.0,16,0.0,0.0,-0.1,0.0,8.9,3.4000000000000004,0.5,-0.8,0.1
1698744753306.0,16,0.0,0.1,-0.1,0.0,8.9,3.4000000000000004,0.2,-1.0,0.1
1698744753323.0,16,0.0,0.1,0.0,0.0,8.9,3.4000000000000004,0.1,-0.7,0.0
1698744753339.0,16,0.0,0.0,0.0,0.0,8.9,3.4000000000000004,0.30000000000000004,-0.30000000000000004,0.0
1698744753356.0,16,0.0,0.0,0.0,0.0,8.8,3.4000000000000004,0.7,-0.2,0.30000000000000004
1698744753373.0,16,0.0,-0.1,0.0,0.0,8.8,3.5,1.0999999999999999,0.0,0.5
1698744753389.0,16,0.0,-0.1,0.0,0.0,8.8,3.5,1.0999999999999999,0.0,0.6000000000000001
1698744753406.0,16,0.0,-0.1,0.0,0.0,8.8,3.5,1.3,-0.1,0.4
1698744753422.0,16,0.0,0.0,0.0,0.1,8.8,3.5,1.2000000000000002,-0.1,0.4
1698744753439.0,16,0.0,0.0,0.0,0.1,8.9,3.5,1.0999999999999999,0.1,0.4
1698744753456.0,16,0.0,0.0,0.0,0.0,8.9,3.5,1.0999999999999999,-0.2,0.4
1698744753472.0,16,0.0,0.0,0.0,0.1,8.9,3.5,0.9,-0.4,0.2
1698744753489.0,16,0.0,0.0,0.0,0.0,8.9,3.4000000000000004,0.8,-0.5,0.30000000000000004
1698744753506.0,16,0.0,0.0,0.0,0.1,8.9,3.4000000000000004,0.5,-0.8,0.4
1698744753523.0,16,0.0,0.0,0.0,0.1,8.9,3.4000000000000004,0.7,-0.7,0.4
1698744753539.0,16,0.1,0.0,0.0,0.1,8.9,3.4000000000000004,0.9,-0.5,0.30000000000000004
1698744753556.0,16,0.1,0.0,0.0,0.1,8.9,3.4000000000000004,1.0,-0.2,0.1
1698744753573.0,16,0.0,0.0,-0.1,0.1,8.9,3.4000000000000004,1.3,-0.1,-0.1
1698744753589.0,16,0.0,0.0,-0.1,0.1,8.9,3.4000000000000004,1.3,-0.2,-0.2
1698744753606.0,16,0.0,0.1,0.0,0.1,8.9,3.4000000000000004,1.3,-0.2,-0.4
1698744753622.0,16,0.0,0.1,0.0,0.0,8.9,3.4000000000000004,1.4,-0.30000000000000004,-0.4
1698744753639.0,16,0.0,0.0,0.0,0.0,8.9,3.4000000000000004,1.3,-0.4,-0.2
1698744753657.0,16,0.0,0.0,0.0,0.0,8.9,3.4000000000000004,1.0999999999999999,-0.30000000000000004,-0.30000000000000004
1698744753673.0,16,0.0,0.0,0.0,0.0,8.9,3.4000000000000004,1.0999999999999999,-0.6000000000000001,-0.4
1698744753690.0,16,0.0,0.0,-0.1,0.0,8.9,3.4000000000000004,1.0,-0.8,-0.4
1698744753706.0,16,0.0,0.0,0.0,0.0,8.9,3.4000000000000004,0.7,-0.9,-0.1
1698744753722.0,16,0.0,0.0,0.0,0.0,8.9,3.4000000000000004,0.8,-0.6000000000000001,-0.2
1698744753740.0,16,0.0,0.0,0.0,0.0,8.9,3.4000000000000004,0.9,-0.5,-0.2
1698744753756.0,16,0.0,0.0,0.0,0.0,8.9,3.4000000000000004,1.0,-0.2,0.0
1698744753773.0,16,0.0,0.0,0.0,0.0,8.9,3.3000000000000003,0.8,0.0,0.30000000000000004
1698744753790.0,16,0.0,0.0,0.0,0.0,8.9,3.3000000000000003,0.7,-0.1,0.5
1698744753806.0,16,0.0,0.0,0.0,0.0,8.9,3.3000000000000003,0.7,-0.2,0.6000000000000001
1698744753823.0,16,0.0,0.1,0.0,0.0,9.0,3.3000000000000003,0.2,-0.7,0.4
1698744753840.0,16,0.0,0.0,0.0,0.0,9.0,3.4000000000000004,0.2,-0.5,0.4
1698744753857.0,16,0.1,-0.1,0.0,0.1,8.8,3.3000000000000003,0.5,-0.4,0.4
1698744753873.0,16,0.0,-0.1,0.0,0.1,8.8,3.4000000000000004,0.6000000000000001,0.30000000000000004,0.6000000000000001
1698744753889.0,16,0.0,-0.1,0.0,0.1,8.8,3.4000000000000004,0.7,0.5,0.7
1698744753906.0,16,0.0,0.0,0.0,0.0,8.9,3.3000000000000003,0.7,0.30000000000000004,0.7
1698744753922.0,16,0.0,0.0,0.0,0.1,8.9,3.4000000000000004,0.7,0.30000000000000004,0.7
1698744753939.0,16,0.0,0.0,0.0,0.1,8.9,3.3000000000000003,0.7,0.30000000000000004,0.6000000000000001
1698744753956.0,16,0.0,0.0,0.0,0.1,8.9,3.3000000000000003,0.7,0.4,0.5
1698744753973.0,16,0.0,0.0,0.0,0.1,8.9,3.4000000000000004,0.8,0.5,0.4
1698744753989.0,16,0.0,0.0,0.0,0.0,8.9,3.4000000000000004,0.8,0.5,0.4
1698744754006.0,16,0.0,0.0,0.0,0.1,8.9,3.4000000000000004,0.7,0.1,0.4
1698744754022.0,16,0.0,0.0,0.0,0.1,8.9,3.4000000000000004,0.7,-0.2,0.5
1698744754039.0,16,0.0,0.0,0.0,0.1,8.9,3.4000000000000004,0.7,-0.2,0.4
1698744754056.0,16,0.0,0.0,0.0,0.1,8.9,3.3000000000000003,0.5,-0.2,0.1
1698744754073.0,16,0.0,0.0,0.0,0.1,8.9,3.3000000000000003,0.5,0.0,0.1
1698744754089.0,16,0.0,0.0,0.0,0.1,8.9,3.3000000000000003,0.7,0.2,0.1
1698744754108.0,16,0.0,0.0,0.0,0.0,8.9,3.3000000000000003,0.8,0.0,0.1
1698744754123.0,16,0.0,0.0,-0.1,0.0,9.0,3.3000000000000003,0.8,-0.4,0.30000000000000004
1698744754139.0,16,0.0,0.0,-0.1,0.1,8.9,3.3000000000000003,1.0,-0.30000000000000004,0.2
1698744754156.0,16,0.1,0.0,-0.1,0.1,8.9,3.2,1.0999999999999999,-0.2,0.1
1698744754173.0,16,0.1,0.0,-0.1,0.2,8.9,3.2,1.8,0.8,0.1
1698744754190.0,16,0.0,0.0,0.0,0.1,9.0,3.3000000000000003,2.4000000000000004,1.6,0.4
1698744754207.0,16,0.0,0.0,0.0,0.1,9.0,3.3000000000000003,2.3000000000000003,1.6,0.5
1698744754223.0,16,-0.1,0.1,0.0,0.0,9.0,3.3000000000000003,1.4,1.3,0.6000000000000001
1698744754239.0,16,-0.1,0.0,0.0,0.0,9.0,3.3000000000000003,1.4,0.7,0.4
1698744754256.0,16,0.0,0.0,0.0,0.0,8.9,3.3000000000000003,1.6,0.30000000000000004,0.4
1698744754273.0,16,0.0,-0.1,0.0,0.1,8.9,3.3000000000000003,1.4,0.5,0.1
1698744754289.0,16,0.1,0.0,0.0,0.1,8.9,3.3000000000000003,1.5000000000000002,1.3,0.1
1698744754306.0,16,0.0,0.0,0.1,0.1,8.9,3.3000000000000003,1.3,1.5000000000000002,0.0
1698744754323.0,16,0.0,0.0,0.0,0.0,8.9,3.3000000000000003,0.7,2.1999999999999997,0.30000000000000004
1698744754339.0,16,-0.1,0.0,0.1,0.0,8.9,3.4000000000000004,0.1,1.7,0.4
1698744754356.0,16,-0.1,0.0,0.1,0.0,8.9,3.4000000000000004,-0.1,1.4,0.30000000000000004
1698744754373.0,16,-0.1,0.0,0.1,0.0,8.9,3.4000000000000004,-0.9,0.30000000000000004,0.30000000000000004
1698744754389.0,16,-0.1,-0.1,0.1,0.0,8.9,3.4000000000000004,-1.7,-0.30000000000000004,-0.1
1698744754406.0,16,-0.1,0.0,0.1,0.0,8.9,3.4000000000000004,-1.9,-0.8,-0.2
1698744754423.0,16,-0.1,0.0,0.0,0.0,8.9,3.3000000000000003,-2.1999999999999997,-1.7,-0.5
1698744754439.0,16,-0.1,0.0,0.0,0.0,8.9,3.3000000000000003,-1.8,-2.4000000000000004,-0.4
1698744754456.0,16,0.0,0.0,0.0,0.0,8.9,3.3000000000000003,-1.7,-2.5,-0.5
1698744754473.0,16,0.0,0.0,0.0,0.1,8.9,3.3000000000000003,-1.2000000000000002,-2.4000000000000004,-0.5
1698744754489.0,16,0.0,0.0,-0.1,0.1,8.9,3.2,-0.9,-2.4000000000000004,-0.5
1698744754506.0,16,0.0,0.0,-0.1,0.1,9.0,3.3000000000000003,-0.1,-2.3000000000000003,-0.4
1698744754523.0,16,0.0,0.1,-0.1,0.1,9.0,3.2,0.30000000000000004,-2.5,-0.30000000000000004
1698744754539.0,16,0.0,0.1,-0.1,0.1,9.0,3.2,0.2,-2.5,-0.5
1698744754556.0,16,0.0,0.0,-0.1,0.1,9.0,3.3000000000000003,0.30000000000000004,-2.4000000000000004,-0.6000000000000001
1698744754573.0,16,0.0,0.0,0.0,0.1,9.0,3.3000000000000003,0.30000000000000004,-2.0,-0.5
1698744754590.0,16,0.1,0.0,0.0,0.2,8.9,3.3000000000000003,0.1,-1.5000000000000002,-0.5
1698744754606.0,16,0.1,0.0,0.0,0.2,8.9,3.3000000000000003,0.1,-0.6000000000000001,-0.2
1698744754623.0,16,0.1,0.0,0.0,0.1,8.9,3.3000000000000003,0.5,-0.2,0.5
1698744754639.0,16,0.0,0.1,0.0,0.1,9.0,3.3000000000000003,0.5,-0.1,0.5
1698744754656.0,16,0.0,0.0,0.0,0.1,8.9,3.3000000000000003,0.30000000000000004,-0.1,0.5
1698744754673.0,16,0.0,0.0,0.0,0.1,8.9,3.3000000000000003,0.2,0.30000000000000004,0.30000000000000004
1698744754690.0,16,0.0,0.0,0.0,0.1,8.9,3.3000000000000003,0.6000000000000001,1.0999999999999999,0.30000000000000004
1698744754706.0,16,0.0,0.0,0.0,0.0,8.9,3.3000000000000003,1.3,1.0,0.6000000000000001
1698744754723.0,16,-0.1,0.0,0.1,0.0,8.9,3.4000000000000004,1.6,0.2,0.6000000000000001
1698744754739.0,16,-0.1,0.0,0.1,0.0,8.9,3.4000000000000004,0.30000000000000004,0.1,0.4
1698744754756.0,16,-0.1,0.0,0.1,0.0,8.9,3.4000000000000004,1.0999999999999999,1.0,0.30000000000000004
1698744754773.0,16,-0.2,0.1,0.1,-0.2,9.0,3.4000000000000004,3.2,-0.7,-0.2
1698744754789.0,16,-0.4,0.1,0.0,-0.30000000000000004,9.0,3.3000000000000003,3.6,1.6,0.6000000000000001
1698744754806.0,16,0.1,-0.2,0.1,0.1,8.700000000000001,3.4000000000000004,4.1000000000000005,5.2,0.30000000000000004
1698744754822.0,16,0.2,-0.30000000000000004,0.1,0.2,8.700000000000001,3.4000000000000004,4.9,8.0,1.2000000000000002
1698744754839.0,16,0.7000000000000001,-0.2,0.0,0.7000000000000001,8.8,3.3000000000000003,6.8,9.5,4.5
1698744754856.0,16,0.9,-0.1,0.1,0.9,8.9,3.4000000000000004,5.500000000000001,10.2,9.600000000000001
1698744754873.0,16,0.7000000000000001,0.1,0.2,0.8,9.1,3.5,4.7,11.8,12.6
1698744754889.0,16,0.30000000000000004,0.30000000000000004,0.30000000000000004,0.4,9.200000000000001,3.6,3.4,14.3,14.800000000000002
1698744754906.0,16,0.1,0.2,0.2,0.30000000000000004,9.200000000000001,3.4000000000000004,2.5,15.5,14.800000000000002
1698744754923.0,16,-0.1,-0.1,0.1,0.0,8.9,3.3000000000000003,0.30000000000000004,14.600000000000001,12.200000000000001
1698744754939.0,16,-0.2,-0.4,0.1,0.0,8.5,3.3000000000000003,1.5000000000000002,12.200000000000001,8.700000000000001
1698744754956.0,16,-0.2,-0.5,0.1,0.0,8.5,3.3000000000000003,3.1,10.5,7.2
1698744754974.0,16,-0.2,-0.4,-0.1,0.0,8.5,3.1,4.3999999999999995,10.0,6.1000000000000005
1698744754989.0,16,-0.2,-0.4,-0.1,0.0,8.6,3.1,5.0,9.1,5.300000000000001
1698744755006.0,16,-0.2,-0.4,-0.1,0.0,8.700000000000001,3.0,5.8,7.9,4.7
1698744755023.0,16,-0.1,-0.2,-0.2,0.1,8.700000000000001,3.0,8.200000000000001,5.2,3.1
1698744755039.0,16,-0.1,-0.2,-0.1,0.1,8.8,3.1,9.5,1.6,0.9
1698744755056.0,16,-0.1,-0.1,-0.1,0.0,8.9,3.0,11.9,-1.0999999999999999,-0.8
1698744755073.0,16,-0.2,0.0,-0.2,0.0,8.9,2.9000000000000004,13.0,-3.1,-1.6
1698744755089.0,16,-0.4,-0.1,-0.2,-0.2,8.9,2.8000000000000003,14.800000000000002,-6.7,-3.3000000000000003
1698744755106.0,16,-0.2,-0.1,-0.1,-0.1,9.0,2.8000000000000003,15.399999999999999,-8.3,-4.9
1698744755123.0,16,-0.1,-0.1,-0.1,0.0,9.0,2.8000000000000003,15.399999999999999,-8.9,-5.9
1698744755140.0,16,0.1,-0.1,-0.1,0.2,8.9,2.8000000000000003,15.299999999999999,-9.1,-7.0
1698744755156.0,16,0.1,-0.1,0.0,0.30000000000000004,8.9,2.9000000000000004,16.6,-8.9,-7.0
1698744755172.0,16,0.1,-0.1,0.0,0.1,9.0,2.8000000000000003,18.0,-8.799999999999999,-7.2
1698744755190.0,16,-0.1,0.0,-0.1,0.1,9.0,2.7,19.6,-9.1,-7.699999999999999
1698744755206.0,16,-0.1,0.1,0.1,0.0,9.200000000000001,2.8000000000000003,18.7,-11.9,-8.5
1698744755223.0,16,-0.1,0.1,0.0,0.0,9.200000000000001,2.7,17.7,-11.9,-8.700000000000001
1698744755239.0,16,0.0,0.2,0.2,0.1,9.3,2.8000000000000003,14.900000000000002,-11.000000000000002,-8.700000000000001
1698744755256.0,16,0.1,0.1,-0.1,0.2,9.200000000000001,2.5,16.0,-11.1,-8.799999999999999
1698744755272.0,16,0.1,0.1,-0.2,0.2,9.200000000000001,2.4000000000000004,16.8,-10.0,-7.699999999999999
1698744755289.0,16,0.1,0.0,-0.30000000000000004,0.2,9.200000000000001,2.2,18.0,-8.9,-7.2
1698744755306.0,16,0.0,0.1,-0.30000000000000004,0.0,9.3,2.1,18.8,-5.9,-5.6
1698744755322.0,16,-0.1,0.2,-0.30000000000000004,-0.1,9.4,2.1,19.6,-5.500000000000001,-4.7
1698744755339.0,16,-0.30000000000000004,0.4,-0.30000000000000004,-0.30000000000000004,9.600000000000001,2.0,20.2,-8.5,-5.500000000000001
1698744755356.0,16,-0.4,0.30000000000000004,-0.30000000000000004,-0.4,9.600000000000001,1.9000000000000001,18.7,-6.5,-6.000000000000001
1698744755373.0,16,0.0,0.5,-0.4,0.0,9.8,1.8,12.5,-6.6000000000000005,-4.0
1698744755390.0,16,0.1,0.9,-0.2,0.1,10.200000000000001,2.0,7.0,-7.300000000000001,-2.4000000000000004
1698744755407.0,16,-0.30000000000000004,1.6,-0.1,-0.30000000000000004,10.8,2.1,-3.3000000000000003,-8.1,1.5000000000000002
1698744755423.0,16,-0.5,1.3,-0.1,-0.5,10.600000000000001,2.1,-9.4,-11.2,-0.8
1698744755439.0,16,-0.4,0.8,-0.2,-0.4,10.100000000000001,2.1,-10.0,-14.100000000000001,-3.6
1698744755456.0,16,0.1,0.2,-0.6000000000000001,0.1,9.5,1.7000000000000002,-12.000000000000002,-15.9,-7.400000000000001
1698744755472.0,16,0.5,0.2,0.0,0.5,9.5,2.4000000000000004,-13.6,-15.8,-8.5
1698744755489.0,16,0.6000000000000001,0.30000000000000004,0.2,0.5,9.5,2.5,-17.7,-13.9,-9.3
1698744755506.0,16,0.4,0.5,0.2,0.30000000000000004,9.700000000000001,2.6,-28.400000000000002,-12.200000000000001,-10.1
1698744755522.0,16,0.1,0.7000000000000001,-0.2,0.1,9.9,2.4000000000000004,-40.7,-10.9,-11.700000000000001
1698744755539.0,16,0.1,0.7000000000000001,-0.6000000000000001,0.0,9.8,2.1,-44.8,-10.8,-12.9
1698744755556.0,16,0.30000000000000004,0.6000000000000001,-1.0,0.2,9.700000000000001,1.8,-48.400000000000006,-9.8,-15.2
1698744755573.0,16,0.5,0.7000000000000001,-0.8,0.4,9.8,2.1,-47.7,-12.4,-17.0
1698744755589.0,16,0.6000000000000001,0.9,-0.7000000000000001,0.4,10.0,2.3000000000000003,-47.1,-13.5,-17.3
1698744755606.0,16,0.4,1.0,-1.0,0.2,10.0,2.2,-49.8,-11.3,-16.0
1698744755623.0,16,0.1,1.2000000000000002,-1.2000000000000002,-0.2,10.100000000000001,2.1,-54.3,-9.9,-14.3
1698744755640.0,16,0.1,1.1,-1.3,-0.2,10.100000000000001,2.1,-56.5,-8.600000000000001,-14.100000000000001
1698744755656.0,16,0.2,1.3,-1.5,-0.1,10.200000000000001,2.0,-60.300000000000004,-6.2,-12.9
1698744755672.0,16,0.30000000000000004,1.7000000000000002,-1.4000000000000001,0.0,10.5,2.4000000000000004,-65.5,-4.7,-9.1
1698744755689.0,16,0.30000000000000004,2.1,-1.4000000000000001,0.0,10.8,2.5,-69.7,-3.1,-6.000000000000001
1698744755706.0,16,0.2,2.5,-1.1,-0.2,11.200000000000001,2.9000000000000004,-83.8,-2.4000000000000004,-0.8
1698744755722.0,16,-0.4,3.5,-2.1,-0.7000000000000001,12.100000000000001,2.2,-103.5,-0.6000000000000001,2.8
1698744755740.0,16,-0.6000000000000001,3.7,-2.0,-1.0,12.200000000000001,2.5,-114.80000000000001,-1.8,2.8
1698744755756.0,16,-0.4,4.5,-0.4,-0.7000000000000001,12.8,4.5,-121.5,-17.0,3.7000000000000006
1698744755772.0,16,-0.6000000000000001,4.9,0.9,-0.9,13.0,6.1000000000000005,-111.0,-35.1,17.7
1698744755789.0,16,-0.6000000000000001,4.2,1.2000000000000002,-0.7000000000000001,12.3,6.5,-107.2,-43.6,26.3
1698744755806.0,16,0.6000000000000001,1.8,0.6000000000000001,0.6000000000000001,9.700000000000001,6.300000000000001,-112.5,-30.5,22.5
1698744755822.0,16,1.8,0.2,-0.4,1.9000000000000001,7.9,5.6000000000000005,-115.3,-11.6,20.2
1698744755840.0,16,1.9000000000000001,-0.2,-0.7000000000000001,2.1,7.300000000000001,5.5,-111.70000000000002,-2.7,25.3
1698744755856.0,16,1.0,-0.5,-0.7000000000000001,1.3,6.800000000000001,5.7,-92.60000000000001,3.0000000000000004,32.0
1698744755873.0,16,-0.4,-0.7000000000000001,-0.4,-0.1,6.5,6.1000000000000005,-78.60000000000001,1.9,36.9
1698744755889.0,16,-1.3,-0.8,0.2,-0.9,6.2,6.9,-75.3,-0.2,36.0
1698744755907.0,16,-1.1,-1.0,0.30000000000000004,-0.7000000000000001,5.9,7.1000000000000005,-70.10000000000001,-1.2000000000000002,28.900000000000002
1698744755922.0,16,-0.5,-1.3,0.5,0.0,5.4,7.4,-60.1,-2.7,20.2
1698744755939.0,16,-0.2,-1.6,0.6000000000000001,0.30000000000000004,5.0,7.6000000000000005,-53.8,-1.8,15.8
1698744755956.0,16,0.7000000000000001,-2.2,0.9,1.3,4.3,8.0,-42.900000000000006,5.7,9.5
1698744755974.0,16,1.2000000000000002,-1.8,0.6000000000000001,1.7000000000000002,4.6000000000000005,7.9,-33.0,10.700000000000001,6.5
1698744755989.0,16,0.30000000000000004,-1.3,0.6000000000000001,1.4000000000000001,4.9,7.9,-27.400000000000002,10.700000000000001,7.1000000000000005
1698744756006.0,16,-0.30000000000000004,-1.1,0.6000000000000001,0.30000000000000004,5.2,8.0,-14.600000000000001,9.4,11.4
1698744756023.0,16,-0.7000000000000001,-1.4000000000000001,0.6000000000000001,-0.2,4.9,8.0,-10.8,11.8,15.399999999999999
1698744756039.0,16,-0.7000000000000001,-0.7000000000000001,0.1,-0.2,5.5,7.5,-16.5,14.600000000000001,13.3
1698744756056.0,16,-0.5,-0.5,0.0,-0.1,5.7,7.4,-17.400000000000002,14.3,8.700000000000001
1698744756073.0,16,-0.5,-0.30000000000000004,-0.4,-0.1,5.9,7.0,-11.9,8.9,-1.3
1698744756091.0,16,-0.30000000000000004,-0.8,-0.1,0.1,5.300000000000001,7.300000000000001,-0.1,5.4,-11.4
1698744756107.0,16,-0.2,-1.3,0.0,0.2,4.9,7.5,5.300000000000001,4.0,-14.600000000000001
1698744756123.0,16,-0.2,-1.7000000000000002,0.0,0.1,4.5,7.5,8.9,7.2,-15.2
1698744756139.0,16,-0.1,-1.8,0.0,0.2,4.4,7.4,10.2,9.600000000000001,-13.8
1698744756156.0,16,0.30000000000000004,-1.9000000000000001,0.4,0.5,4.3,7.800000000000001,16.6,10.3,-10.1
1698744756172.0,16,1.0,-1.5,0.2,1.2000000000000002,4.7,7.6000000000000005,22.000000000000004,13.3,-1.0999999999999999
1698744756190.0,16,1.3,-1.4000000000000001,0.4,1.5,4.9,7.7,22.8,14.100000000000001,2.7
1698744756208.0,16,1.0,-1.2000000000000002,0.30000000000000004,1.2000000000000002,5.1000000000000005,7.6000000000000005,23.400000000000002,16.1,9.5
1698744756223.0,16,0.0,-0.9,0.1,0.2,5.4,7.4,22.2,18.0,14.800000000000002
1698744756240.0,16,-0.2,-0.6000000000000001,0.2,0.0,5.800000000000001,7.4,26.200000000000003,19.700000000000003,15.9
1698744756256.0,16,0.0,-0.5,0.2,0.1,5.9,7.300000000000001,28.700000000000003,21.400000000000002,16.900000000000002
1698744756274.0,16,0.0,-0.6000000000000001,0.2,0.2,5.9,7.300000000000001,32.1,22.5,18.6
1698744756290.0,16,-0.1,-0.8,0.2,0.0,5.800000000000001,7.2,32.800000000000004,22.900000000000002,17.7
1698744756306.0,16,-0.4,-0.9,0.2,-0.30000000000000004,5.7,7.2,34.2,20.3,13.9
1698744756323.0,16,-0.9,-0.4,0.2,-0.8,6.300000000000001,7.1000000000000005,34.0,17.400000000000002,13.700000000000001
1698744756340.0,16,-1.1,0.0,0.2,-1.0,6.7,7.1000000000000005,32.6,15.399999999999999,14.700000000000001
1698744756356.0,16,-1.1,0.30000000000000004,0.0,-1.0,7.1000000000000005,6.800000000000001,29.300000000000004,11.1,14.4
1698744756373.0,16,-0.9,-0.1,-0.2,-0.8,6.800000000000001,6.6000000000000005,29.300000000000004,8.200000000000001,11.000000000000002
1698744756390.0,16,-0.6000000000000001,-0.4,-0.5,-0.4,6.5,6.2,33.6,7.400000000000001,4.0
1698744756406.0,16,-0.30000000000000004,-0.4,-0.4,-0.2,6.6000000000000005,6.2,33.6,4.5,-0.1
1698744756423.0,16,0.2,-0.4,-0.30000000000000004,0.2,6.6000000000000005,6.300000000000001,32.0,4.2,-4.7
1698744756439.0,16,0.7000000000000001,-0.5,-0.2,0.8,6.6000000000000005,6.2,35.4,7.1000000000000005,-9.1
1698744756456.0,16,0.7000000000000001,-0.8,-0.2,0.7000000000000001,6.300000000000001,6.2,39.300000000000004,7.500000000000001,-9.5
1698744756473.0,16,0.5,-0.6000000000000001,-0.1,0.4,6.7,6.2,45.7,12.6,-8.0
1698744756489.0,16,0.2,-0.5,0.0,0.2,6.800000000000001,6.2,46.1,14.900000000000002,-8.3
1698744756506.0,16,0.1,-0.5,0.0,0.0,6.9,6.1000000000000005,44.6,16.900000000000002,-7.699999999999999
1698744756523.0,16,-0.1,-0.7000000000000001,0.30000000000000004,-0.30000000000000004,6.800000000000001,6.300000000000001,38.6,18.6,-5.8
1698744756539.0,16,0.0,-0.30000000000000004,-0.2,-0.2,7.2,5.7,38.900000000000006,23.8,-3.1
1698744756557.0,16,-0.1,-0.2,-0.1,-0.30000000000000004,7.4,5.7,41.6,19.400000000000002,-3.4
1698744756576.0,16,0.0,-0.7000000000000001,-0.2,-0.30000000000000004,7.0,5.4,43.400000000000006,17.0,-5.4
1698744756589.0,16,0.2,-0.8,-0.1,-0.2,7.0,5.5,41.7,17.1,-5.500000000000001
1698744756606.0,16,0.30000000000000004,-0.8,0.0,-0.1,7.0,5.6000000000000005,39.699999999999996,16.8,-7.2
1698744756623.0,16,0.4,-0.7000000000000001,0.2,0.0,7.1000000000000005,5.6000000000000005,35.3,23.6,-8.700000000000001
1698744756639.0,16,0.2,-0.2,-0.2,-0.2,7.7,5.1000000000000005,33.7,22.900000000000002,-5.2
1698744756656.0,16,-0.1,-0.4,-0.4,-0.6000000000000001,7.5,4.9,32.5,24.400000000000002,-4.0
1698744756672.0,16,-0.8,-0.8,0.0,-1.3,7.2,5.2,28.700000000000003,23.5,-1.3
1698744756689.0,16,-1.1,-1.2000000000000002,-0.1,-1.7000000000000002,6.9,5.1000000000000005,25.0,17.7,-3.2
1698744756706.0,16,-1.2000000000000002,-0.8,-0.2,-1.8,7.0,5.1000000000000005,22.900000000000002,15.7,-4.300000000000001
1698744756723.0,16,-1.3,-0.6000000000000001,-0.1,-1.9000000000000001,7.5,4.9,19.6,6.1000000000000005,-6.000000000000001
1698744756740.0,16,-0.8,-0.7000000000000001,-0.1,-1.5,7.300000000000001,4.9,15.5,-0.2,-10.2
1698744756756.0,16,-0.4,-1.2000000000000002,-0.2,-1.1,6.9,4.800000000000001,15.100000000000001,-2.6,-13.200000000000001
1698744756773.0,16,0.2,-1.5,-0.1,-0.5,6.6000000000000005,4.9,14.700000000000001,-4.800000000000001,-18.8
1698744756790.0,16,0.8,-1.1,0.2,0.0,7.0,5.1000000000000005,10.5,1.8,-15.7
1698744756806.0,16,0.6000000000000001,-1.1,0.2,-0.30000000000000004,7.0,5.1000000000000005,7.500000000000001,5.2,-14.200000000000001
1698744756823.0,16,-0.30000000000000004,-0.5,0.30000000000000004,-1.1,7.6000000000000005,5.2,0.30000000000000004,15.7,-8.700000000000001
1698744756840.0,16,-1.0,-0.1,0.5,-1.9000000000000001,8.0,5.4,-3.6,13.700000000000001,-4.300000000000001
1698744756856.0,16,-1.1,0.0,0.5,-2.0,8.1,5.4,-6.2,10.0,-2.9
1698744756873.0,16,-1.0,0.2,0.2,-2.0,8.3,5.2,-10.8,7.300000000000001,-1.0
1698744756890.0,16,-1.2000000000000002,0.0,0.6000000000000001,-2.2,8.1,5.5,-11.2,-5.500000000000001,-3.2
1698744756906.0,16,-1.3,0.0,0.5,-2.3000000000000003,8.0,5.6000000000000005,-14.3,-8.9,-5.2
1698744756923.0,16,-1.1,0.0,0.30000000000000004,-2.1,8.0,5.300000000000001,-25.5,-11.000000000000002,-8.200000000000001
1698744756940.0,16,-0.4,-0.30000000000000004,0.0,-1.4000000000000001,7.6000000000000005,5.1000000000000005,-30.200000000000003,-12.9,-12.100000000000001
1698744756956.0,16,-0.1,-0.6000000000000001,-0.1,-1.1,7.300000000000001,5.1000000000000005,-29.800000000000004,-14.700000000000001,-13.9
1698744756973.0,16,0.6000000000000001,-1.0,-0.4,-0.5,6.800000000000001,4.800000000000001,-28.900000000000002,-9.3,-18.5
1698744756990.0,16,0.9,-1.5,-0.4,-0.2,6.300000000000001,5.0,-23.700000000000003,-1.6,-20.6
1698744757009.0,16,0.5,-0.7000000000000001,-0.2,-0.6000000000000001,7.0,5.2,-18.5,4.300000000000001,-14.600000000000001
1698744757023.0,16,0.2,-0.5,0.0,-0.9,7.2,5.4,-20.1,4.2,-12.5
1698744757039.0,16,-0.30000000000000004,-0.1,0.2,-1.5,7.5,5.7,-29.1,1.0999999999999999,-8.5
1698744757056.0,16,-0.30000000000000004,-0.1,0.1,-1.5,7.4,5.7,-33.2,3.7000000000000006,-9.4
1698744757074.0,16,0.1,0.0,-0.2,-1.1,7.5,5.4,-29.000000000000004,5.500000000000001,-10.5
1698744757090.0,16,0.9,0.2,0.0,-0.30000000000000004,7.7,5.6000000000000005,-16.900000000000002,3.7000000000000006,-8.200000000000001
1698744757106.0,16,1.0,0.1,-0.1,-0.30000000000000004,7.5,5.6000000000000005,-16.400000000000002,2.7,-5.500000000000001
1698744757122.0,16,0.9,-0.2,0.1,-0.30000000000000004,7.300000000000001,5.800000000000001,-21.900000000000002,0.8,-5.300000000000001
1698744757139.0,16,0.4,-0.2,0.1,-0.9,7.1000000000000005,5.9,-30.5,-4.7,-2.5
1698744757156.0,16,0.1,-0.2,-0.1,-1.1,7.2,5.9,-31.6,-3.6,0.6000000000000001
1698744757173.0,16,0.4,-0.6000000000000001,-0.1,-0.9,6.7,5.800000000000001,-26.200000000000003,0.2,3.3000000000000003
1698744757190.0,16,0.7000000000000001,-0.5,0.0,-0.5,6.800000000000001,5.9,-7.699999999999999,13.700000000000001,8.9
1698744757206.0,16,0.9,0.0,0.0,-0.30000000000000004,7.300000000000001,5.9,-0.8,16.8,13.4
1698744757223.0,16,0.7000000000000001,0.4,0.1,-0.5,7.7,6.1000000000000005,-7.6,15.299999999999999,24.9
1698744757239.0,16,-0.2,0.2,0.0,-1.3,7.5,5.9,-21.1,9.3,32.300000000000004
1698744757256.0,16,-0.8,-0.30000000000000004,-0.1,-1.9000000000000001,7.0,5.9,-19.400000000000002,2.1,29.1
1698744757273.0,16,-0.9,-0.4,-0.1,-1.9000000000000001,6.800000000000001,6.0,-15.9,-0.6000000000000001,25.1
1698744757289.0,16,-0.6000000000000001,-0.30000000000000004,0.0,-1.6,6.9,6.0,-8.799999999999999,-4.2,17.599999999999998
1698744757306.0,16,-0.30000000000000004,-0.2,0.0,-1.3,7.0,6.1000000000000005,-4.5,-4.800000000000001,17.7
1698744757322.0,16,-0.2,0.0,0.1,-1.1,7.2,6.2,-4.0,-5.9,18.6
1698744757339.0,16,0.1,0.30000000000000004,0.1,-0.8,7.5,6.2,-8.5,-9.700000000000001,21.400000000000002
1698744757356.0,16,0.1,0.4,0.1,-0.8,7.6000000000000005,6.2,-13.6,-11.2,23.3
1698744757375.0,16,0.1,0.30000000000000004,0.1,-0.6000000000000001,7.4,6.300000000000001,-23.2,-13.0,23.8
1698744757390.0,16,0.6000000000000001,-0.2,0.2,-0.1,6.9,6.4,-25.1,-11.6,19.9
1698744757406.0,16,0.7000000000000001,-0.4,0.2,0.1,6.6000000000000005,6.6000000000000005,-20.3,-5.500000000000001,17.400000000000002
1698744757423.0,16,0.4,-0.2,0.0,-0.1,6.800000000000001,6.4,-18.5,-1.6,18.3
1698744757439.0,16,0.1,-0.1,-0.1,-0.4,6.9,6.300000000000001,-19.400000000000002,-0.4,20.0
1698744757456.0,16,-0.2,0.0,0.2,-0.7000000000000001,6.9,6.6000000000000005,-21.700000000000003,-1.3,23.1
1698744757476.0,16,-0.8,-0.2,0.1,-1.2000000000000002,6.7,6.6000000000000005,-18.6,1.2000000000000002,23.1
1698744757491.0,16,-0.8,-0.1,0.2,-1.2000000000000002,6.800000000000001,6.7,-17.599999999999998,0.0,21.900000000000002
1698744757506.0,16,-1.1,0.1,0.4,-1.5,6.9,7.0,-17.1,-5.6,20.0
1698744757523.0,16,-1.1,0.30000000000000004,0.4,-1.4000000000000001,7.1000000000000005,6.9,-18.900000000000002,-7.1000000000000005,18.900000000000002
1698744757539.0,16,-1.0,0.5,0.30000000000000004,-1.3,7.300000000000001,6.9,-23.3,-14.0,12.8
1698744757556.0,16,-1.2000000000000002,0.4,0.30000000000000004,-1.4000000000000001,7.2,7.0,-27.3,-20.4,6.1000000000000005
1698744757573.0,16,-1.0,0.30000000000000004,0.5,-1.2000000000000002,7.0,7.2,-30.599999999999998,-24.8,2.5
1698744757590.0,16,-0.9,0.0,0.4,-1.0,6.6000000000000005,7.2,-33.300000000000004,-29.300000000000004,-3.7000000000000006
1698744757606.0,16,-0.5,-0.4,0.2,-0.6000000000000001,6.2,7.1000000000000005,-32.9,-32.300000000000004,-8.700000000000001
1698744757623.0,16,0.0,-0.4,0.2,-0.30000000000000004,6.1000000000000005,7.0,-31.099999999999998,-32.4,-12.5
1698744757641.0,16,0.2,-0.30000000000000004,0.2,0.2,6.1000000000000005,7.2,-30.200000000000003,-31.7,-13.100000000000001
1698744757658.0,16,0.6000000000000001,-0.5,-0.30000000000000004,0.6000000000000001,5.800000000000001,6.800000000000001,-31.8,-26.6,-11.4
1698744757673.0,16,0.8,-0.4,-0.30000000000000004,0.9,5.9,6.800000000000001,-32.300000000000004,-24.000000000000004,-11.6
1698744757690.0,16,0.6000000000000001,-0.9,-0.1,0.7000000000000001,5.300000000000001,7.1000000000000005,-27.5,-20.8,-8.799999999999999
1698744757706.0,16,0.2,-0.4,-0.1,0.30000000000000004,5.7,7.1000000000000005,-27.8,-16.6,-5.7
1698744757724.0,16,0.2,-0.1,-0.30000000000000004,0.4,6.0,7.0,-28.1,-13.200000000000001,-3.0000000000000004
1698744757740.0,16,-0.1,-1.0,0.1,0.1,5.1000000000000005,7.4,-25.3,-12.000000000000002,-1.0
1698744757756.0,16,-0.1,-0.5,-0.1,0.1,5.5,7.2,-23.1,-11.4,-2.1999999999999997
1698744757772.0,16,-0.1,-0.4,-0.2,0.1,5.5,7.2,-22.4,-11.9,-1.9
1698744757790.0,16,-0.1,-0.30000000000000004,-0.30000000000000004,0.1,5.6000000000000005,7.1000000000000005,-20.5,-12.8,-1.8
1698744757806.0,16,-0.5,-1.1,-0.2,-0.2,4.7,7.2,-14.3,-17.7,-2.6
1698744757823.0,16,-0.30000000000000004,-0.8,-0.1,0.1,5.0,7.300000000000001,-12.000000000000002,-19.400000000000002,-6.6000000000000005
1698744757840.0,16,-0.1,-0.7000000000000001,-0.1,0.2,5.1000000000000005,7.4,-11.1,-20.1,-6.9
1698744757856.0,16,-0.2,-0.4,-0.1,0.2,5.4,7.4,-7.500000000000001,-21.200000000000003,-6.6000000000000005
1698744757872.0,16,-0.2,-0.6000000000000001,0.2,0.2,5.1000000000000005,7.7,-2.8,-20.900000000000002,-7.2
1698744757889.0,16,-0.1,-0.8,0.30000000000000004,0.4,5.0,7.800000000000001,0.5,-19.8,-7.2
1698744757906.0,16,0.0,-1.2000000000000002,0.2,0.5,4.5,7.6000000000000005,9.600000000000001,-18.8,-5.7
1698744757922.0,16,0.1,-0.9,0.1,0.6000000000000001,4.9,7.5,16.0,-18.5,-4.300000000000001
1698744757939.0,16,0.1,-0.7000000000000001,0.1,0.6000000000000001,5.1000000000000005,7.5,19.500000000000004,-18.8,-3.4
1698744757956.0,16,0.0,-0.6000000000000001,0.4,0.6000000000000001,5.2,7.800000000000001,26.8,-19.500000000000004,-1.0
1698744757972.0,16,0.0,-0.2,0.6000000000000001,0.6000000000000001,5.7,7.9,31.8,-20.2,1.0999999999999999
1698744757989.0,16,0.0,0.1,0.6000000000000001,0.7000000000000001,6.300000000000001,7.9,35.9,-19.9,1.7
1698744758006.0,16,0.2,0.6000000000000001,0.6000000000000001,0.9,6.7,7.800000000000001,39.2,-18.0,1.2000000000000002
1698744758022.0,16,0.6000000000000001,1.2000000000000002,0.6000000000000001,1.3,7.4,7.7,45.6,-14.0,-2.0
1698744758039.0,16,0.4,1.4000000000000001,0.5,1.2000000000000002,7.7,7.5,48.1,-11.4,-5.4
1698744758056.0,16,0.4,1.3,0.4,1.1,7.6000000000000005,7.4,53.1,-4.3999999999999995,-14.4
1698744758073.0,16,0.1,1.5,0.4,0.8,8.1,7.2,62.0,-2.7,-23.5
1698744758089.0,16,-0.1,1.6,0.5,0.4,8.5,7.2,69.5,-2.8,-27.400000000000002
1698744758106.0,16,-0.30000000000000004,2.1,0.4,0.30000000000000004,8.9,6.9,71.5,-2.5,-28.1
1698744758123.0,16,0.30000000000000004,2.4000000000000004,0.4,0.9,9.4,6.800000000000001,73.2,-2.4000000000000004,-28.900000000000002
1698744758140.0,16,0.7000000000000001,2.5,0.30000000000000004,1.3,9.600000000000001,6.6000000000000005,73.8,-2.9,-27.400000000000002
1698744758156.0,16,1.3,2.3000000000000003,0.6000000000000001,1.8,9.600000000000001,6.7,72.10000000000001,-6.8,-20.4
1698744758172.0,16,1.6,1.4000000000000001,0.5,2.1,8.8,6.4,67.4,-6.4,-10.5
1698744758190.0,16,1.6,0.8,0.2,2.1,8.4,6.0,65.4,-5.6,-5.2
1698744758206.0,16,1.3,0.5,0.0,1.9000000000000001,8.200000000000001,5.7,61.7,-2.9,3.9
1698744758222.0,16,0.9,0.1,-0.4,1.4000000000000001,7.800000000000001,5.2,59.400000000000006,-0.1,6.9
1698744758240.0,16,0.7000000000000001,-0.30000000000000004,-0.30000000000000004,1.2000000000000002,7.6000000000000005,5.1000000000000005,54.0,4.6000000000000005,11.5
1698744758256.0,16,0.6000000000000001,-0.30000000000000004,-0.5,1.2000000000000002,7.6000000000000005,4.800000000000001,53.400000000000006,5.300000000000001,12.4
1698744758273.0,16,0.6000000000000001,-0.30000000000000004,-0.5,1.2000000000000002,7.7,4.7,51.7,5.2,13.100000000000001
1698744758290.0,16,0.5,-0.30000000000000004,-0.5,1.1,7.7,4.6000000000000005,50.800000000000004,5.8,12.700000000000001
1698744758306.0,16,0.1,-0.30000000000000004,-0.5,0.8,7.800000000000001,4.5,48.400000000000006,7.500000000000001,11.1
1698744758322.0,16,-0.1,0.0,-0.4,0.5,8.200000000000001,4.4,48.00000000000001,8.0,8.600000000000001
1698744758339.0,16,-0.30000000000000004,0.2,-0.6000000000000001,0.4,8.5,4.1000000000000005,48.7,8.3,6.000000000000001
1698744758356.0,16,-0.30000000000000004,0.4,-0.6000000000000001,0.4,8.700000000000001,4.0,48.6,9.1,5.4
1698744758372.0,16,-0.2,0.5,-0.30000000000000004,0.5,8.9,4.1000000000000005,49.4,8.799999999999999,4.300000000000001
1698744758389.0,16,-0.1,0.4,-0.30000000000000004,0.6000000000000001,8.9,4.1000000000000005,49.3,9.1,4.1000000000000005
1698744758406.0,16,-0.1,0.30000000000000004,-0.2,0.6000000000000001,8.9,4.0,48.7,9.5,4.300000000000001
1698744758423.0,16,-0.2,0.2,-0.2,0.5,8.8,3.9000000000000004,47.2,10.2,5.0
1698744758439.0,16,-0.4,0.2,-0.2,0.30000000000000004,8.8,3.8000000000000003,46.0,9.200000000000001,5.300000000000001
1698744758456.0,16,-0.4,0.1,-0.2,0.2,8.8,3.7,45.2,8.4,5.1
1698744758473.0,16,-0.5,0.0,-0.30000000000000004,0.1,8.700000000000001,3.5,43.300000000000004,7.400000000000001,4.300000000000001
1698744758489.0,16,-0.4,0.1,-0.4,0.30000000000000004,8.9,3.3000000000000003,40.1,5.2,2.9
1698744758506.0,16,-0.30000000000000004,0.2,-0.30000000000000004,0.4,9.1,3.3000000000000003,38.6,4.2,2.0
1698744758523.0,16,-0.1,0.5,-0.30000000000000004,0.5,9.4,3.2,34.6,3.3000000000000003,1.2000000000000002
1698744758539.0,16,-0.1,0.5,-0.30000000000000004,0.5,9.4,3.1,32.5,3.0000000000000004,0.9
1698744758556.0,16,-0.2,0.5,-0.4,0.5,9.5,2.9000000000000004,28.400000000000002,2.5,0.6000000000000001
1698744758572.0,16,-0.2,0.6000000000000001,-0.5,0.5,9.600000000000001,2.7,24.400000000000002,0.8,-1.0999999999999999
1698744758589.0,16,0.0,0.7000000000000001,-0.5,0.6000000000000001,9.700000000000001,2.7,19.500000000000004,0.7,-3.6
1698744758606.0,16,0.1,0.7000000000000001,-0.5,0.8,9.8,2.6,16.5,0.30000000000000004,-4.0
1698744758622.0,16,0.4,0.6000000000000001,-0.6000000000000001,1.0,9.700000000000001,2.5,10.4,0.9,-3.3000000000000003
1698744758639.0,16,0.2,0.8,-0.7000000000000001,0.8,9.9,2.4000000000000004,5.6,2.1999999999999997,-3.2
1698744758656.0,16,0.2,1.0,-0.7000000000000001,0.9,10.0,2.4000000000000004,3.6,2.3000000000000003,-3.5
1698744758673.0,16,0.4,1.1,-0.8,1.0,10.100000000000001,2.2,-0.2,1.5000000000000002,-3.5
1698744758690.0,16,0.30000000000000004,1.1,-0.9,0.9,10.100000000000001,2.2,-5.2,0.9,-1.8
1698744758706.0,16,0.2,1.1,-0.8,0.8,10.100000000000001,2.2,-7.8,1.9,-1.3
1698744758723.0,16,0.1,0.9,-0.9,0.7000000000000001,10.0,2.2,-10.9,3.3000000000000003,-1.3
1698744758739.0,16,0.2,0.8,-1.0,0.8,9.9,2.2,-12.700000000000001,5.300000000000001,-0.5
1698744758756.0,16,0.2,0.9,-1.1,0.8,9.9,2.1,-13.3,5.7,-0.5
1698744758773.0,16,0.1,1.0,-1.2000000000000002,0.6000000000000001,10.0,2.0,-15.000000000000002,7.2,-0.5
1698744758789.0,16,-0.1,1.0,-1.2000000000000002,0.5,10.100000000000001,2.1,-18.7,8.0,-0.5
1698744758806.0,16,-0.2,1.0,-1.1,0.30000000000000004,10.100000000000001,2.1,-21.0,8.0,-0.8
1698744758823.0,16,-0.2,1.0,-1.1,0.30000000000000004,10.0,2.3000000000000003,-25.1,6.6000000000000005,-2.8
1698744758839.0,16,-0.2,1.0,-1.0,0.4,9.9,2.5,-29.700000000000003,5.0,-6.3
1698744758856.0,16,-0.1,1.1,-1.0,0.30000000000000004,10.0,2.5,-32.9,4.3999999999999995,-7.699999999999999
1698744758872.0,16,0.0,1.0,-0.9,0.4,10.0,2.7,-42.300000000000004,4.2,-9.700000000000001
1698744758889.0,16,0.1,1.2000000000000002,-0.9,0.5,10.0,2.8000000000000003,-54.2,4.1000000000000005,-11.6
1698744758905.0,16,0.2,1.6,-1.0,0.5,10.4,3.0,-65.5,3.1,-13.5
1698744758922.0,16,0.2,1.8,-1.0,0.5,10.5,3.0,-70.6,1.9,-14.4
1698744758939.0,16,0.2,2.3000000000000003,-1.3,0.5,11.0,3.0,-78.3,2.4000000000000004,-14.800000000000002
1698744758956.0,16,0.30000000000000004,3.2,-1.9000000000000001,0.6000000000000001,11.8,2.6,-88.4,-3.5,-13.0
1698744758973.0,16,0.4,3.8000000000000003,-2.0,0.6000000000000001,12.3,2.6,-98.10000000000001,-4.800000000000001,-9.4
1698744758991.0,16,0.0,3.5,-0.7000000000000001,0.30000000000000004,11.9,4.2,-117.20000000000002,-9.4,1.0999999999999999
1698744759006.0,16,-0.5,3.7,0.0,-0.1,11.9,5.300000000000001,-125.2,-22.6,9.8
1698744759022.0,16,-0.7000000000000001,3.2,0.5,-0.4,11.3,6.0,-120.60000000000001,-38.400000000000006,13.6
1698744759039.0,16,-1.0,1.7000000000000002,0.1,-0.5,9.600000000000001,5.9,-107.6,-58.60000000000001,23.0
1698744759056.0,16,-0.9,1.2000000000000002,0.2,0.30000000000000004,8.3,5.9,-101.4,-42.800000000000004,15.9
1698744759072.0,16,0.5,0.2,-0.6000000000000001,1.2000000000000002,7.7,5.6000000000000005,-98.5,-31.5,6.7
1698744759089.0,16,1.9000000000000001,0.0,-0.5,2.7,7.300000000000001,5.9,-90.0,-19.0,-2.1999999999999997
1698744759105.0,16,1.3,-0.30000000000000004,-0.5,2.2,6.9,6.1000000000000005,-77.80000000000001,-12.4,-1.4
1698744759122.0,16,0.5,-0.5,-0.4,1.4000000000000001,6.5,6.300000000000001,-72.6,-9.600000000000001,0.7
1698744759139.0,16,-0.6000000000000001,-1.0,-0.30000000000000004,0.30000000000000004,5.9,6.6000000000000005,-63.0,-9.3,-1.4
1698744759155.0,16,-0.5,-1.2000000000000002,0.0,0.30000000000000004,5.5,6.9,-57.2,-11.000000000000002,-5.4
1698744759173.0,16,-0.1,-1.2000000000000002,0.4,0.7000000000000001,5.5,7.4,-53.6,-11.000000000000002,-6.6000000000000005
1698744759189.0,16,0.5,-1.2000000000000002,0.7000000000000001,1.3,5.4,7.800000000000001,-44.3,-6.7,-6.9
1698744759206.0,16,0.6000000000000001,-1.2000000000000002,0.9,1.5,5.300000000000001,8.1,-40.9,-7.0,-5.4
1698744759223.0,16,0.5,-1.2000000000000002,0.8,1.4000000000000001,5.2,8.1,-34.300000000000004,-3.7000000000000006,0.2
1698744759239.0,16,0.2,-0.9,1.0,1.1,5.4,8.4,-32.4,-2.1,5.0
1698744759256.0,16,-0.2,-0.6000000000000001,1.1,0.7000000000000001,5.6000000000000005,8.5,-30.799999999999997,-0.30000000000000004,5.1
1698744759273.0,16,-0.1,-0.8,1.1,0.8,5.4,8.5,-29.1,0.0,3.3000000000000003
1698744759289.0,16,0.2,-1.3,1.4000000000000001,1.1,4.800000000000001,8.9,-23.2,3.1,0.1
1698744759306.0,16,0.30000000000000004,-1.8,1.0,1.2000000000000002,4.2,8.6,-17.3,8.3,0.1
1698744759322.0,16,-0.1,-2.0,0.30000000000000004,0.8,4.1000000000000005,7.9,-12.700000000000001,8.1,3.9
1698744759339.0,16,-0.2,-1.9000000000000001,0.5,0.7000000000000001,4.1000000000000005,8.1,-8.600000000000001,8.9,3.9
1698744759356.0,16,-0.4,-1.6,0.4,0.5,4.4,8.0,-2.6,8.9,4.800000000000001
1698744759373.0,16,-0.5,-1.1,0.6000000000000001,0.4,4.800000000000001,8.200000000000001,-3.7000000000000006,8.600000000000001,7.2
1698744759390.0,16,-1.1,-0.6000000000000001,0.2,-0.2,5.300000000000001,7.9,-5.1,6.7,8.799999999999999
1698744759406.0,16,-1.0,-0.5,-0.1,-0.1,5.4,7.6000000000000005,-4.800000000000001,5.4,1.4
1698744759423.0,16,-0.5,-0.7000000000000001,-0.2,0.30000000000000004,5.2,7.5,-2.9,3.6,-5.2
1698744759439.0,16,0.1,-0.8,0.0,0.9,5.1000000000000005,7.6000000000000005,4.1000000000000005,1.8,-12.8
1698744759456.0,16,0.6000000000000001,-0.9,0.0,1.4000000000000001,5.1000000000000005,7.7,12.700000000000001,8.0,-16.5
1698744759472.0,16,0.8,-1.0,-0.1,1.5,4.9,7.6000000000000005,16.900000000000002,12.5,-17.0
1698744759489.0,16,1.0,-0.9,0.1,1.7000000000000002,5.1000000000000005,7.7,23.2,24.000000000000004,-11.9
1698744759507.0,16,1.7000000000000002,-0.4,0.2,2.3000000000000003,5.6000000000000005,7.800000000000001,22.900000000000002,28.0,-3.0000000000000004
1698744759523.0,16,1.5,-0.1,0.6000000000000001,2.0,6.0,8.1,19.9,29.800000000000004,8.1
1698744759539.0,16,0.9,-0.1,0.7000000000000001,1.4000000000000001,6.1000000000000005,8.200000000000001,19.8,33.2,14.0
1698744759556.0,16,0.2,0.0,0.5,0.6000000000000001,6.2,8.0,24.3,39.00000000000001,21.3
1698744759572.0,16,0.30000000000000004,0.30000000000000004,0.4,0.7000000000000001,6.6000000000000005,7.800000000000001,28.900000000000002,42.0,20.7
1698744759589.0,16,0.4,0.30000000000000004,0.2,0.7000000000000001,6.6000000000000005,7.6000000000000005,30.4,44.8,17.9
1698744759608.0,16,0.30000000000000004,0.30000000000000004,0.0,0.5,6.7,7.300000000000001,33.1,48.2,9.8
1698744759623.0,16,0.2,0.30000000000000004,0.0,0.4,6.7,7.2,33.400000000000006,52.0,5.300000000000001
1698744759639.0,16,0.30000000000000004,0.0,0.0,0.30000000000000004,6.5,7.2,32.1,62.199999999999996,-6.4
1698744759656.0,16,0.4,-0.30000000000000004,0.1,0.30000000000000004,6.300000000000001,7.2,31.3,68.9,-11.2
1698744759672.0,16,1.1,-0.9,-0.2,0.7000000000000001,5.7,6.9,30.100000000000005,81.4,-20.2
1698744759689.0,16,0.8,-1.5,-0.6000000000000001,0.30000000000000004,5.2,6.4,31.2,84.7,-18.8
1698744759706.0,16,0.30000000000000004,-2.5,-1.5,-0.4,4.3,5.4,33.5,89.7,-12.5
1698744759722.0,16,-0.5,-3.0,-1.9000000000000001,-1.4000000000000001,3.8000000000000003,5.0,37.0,78.80000000000001,-11.2
1698744759739.0,16,-2.0,-2.7,-1.5,-3.0,4.1000000000000005,5.2,38.5,55.900000000000006,-1.0
1698744759756.0,16,-2.0,-2.1,-1.1,-3.1,4.800000000000001,5.5,34.50000000000001,44.5,12.5
1698744759774.0,16,-1.5,-1.9000000000000001,-0.9,-2.6,5.0,5.6000000000000005,32.7,38.300000000000004,17.1
1698744759790.0,16,-1.1,-1.7000000000000002,-0.8,-2.3000000000000003,5.300000000000001,5.7,30.9,22.1,20.8
1698744759807.0,16,-0.9,-1.4000000000000001,-0.5,-2.0,5.7,5.9,26.6,5.9,18.6
1698744759824.0,16,-0.7000000000000001,-1.5,-0.4,-1.8,5.6000000000000005,6.0,23.6,-1.8,15.8
1698744759839.0,16,-0.30000000000000004,-1.8,-0.2,-1.4000000000000001,5.4,6.1000000000000005,18.400000000000002,-8.0,10.0
1698744759856.0,16,-0.2,-1.7000000000000002,-0.2,-1.2000000000000002,5.4,6.1000000000000005,18.8,-8.4,2.9
1698744759873.0,16,-0.1,-1.3,-0.1,-1.2000000000000002,5.9,6.1000000000000005,21.8,-4.7,-0.7
1698744759890.0,16,-0.2,-0.9,0.1,-1.3,6.300000000000001,6.300000000000001,22.000000000000004,-4.1000000000000005,-1.4
1698744759907.0,16,-0.2,-0.4,0.30000000000000004,-1.2000000000000002,6.9,6.5,15.8,-1.8,-0.6000000000000001
1698744759922.0,16,-0.30000000000000004,-0.5,-0.2,-1.4000000000000001,6.7,5.9,9.0,2.1999999999999997,-1.3
1698744759940.0,16,-0.5,-0.6000000000000001,-0.2,-1.6,6.6000000000000005,5.9,7.2,4.9,-1.9
1698744759957.0,16,-1.2000000000000002,-0.6000000000000001,-0.2,-2.3000000000000003,6.6000000000000005,5.9,8.799999999999999,-0.1,-3.4
1698744759972.0,16,-1.6,-0.6000000000000001,0.0,-2.8000000000000003,6.9,6.1000000000000005,1.0,-3.9,-4.7
1698744759989.0,16,-1.5,-0.30000000000000004,-0.1,-2.7,7.0,6.0,-1.9,-8.5,-4.0
1698744760006.0,16,-1.3,-0.2,0.0,-2.4000000000000004,7.0,6.1000000000000005,-4.7,-22.6,-4.300000000000001
1698744760022.0,16,-1.0,-0.7000000000000001,-0.2,-2.1,6.5,5.9,-9.600000000000001,-29.400000000000002,-10.4
1698744760039.0,16,-0.7000000000000001,-1.1,-0.4,-1.7000000000000002,6.1000000000000005,5.800000000000001,-11.6,-28.500000000000004,-13.9
1698744760056.0,16,0.2,-1.6,-0.9,-0.9,5.5,5.300000000000001,-11.1,-23.0,-17.200000000000003
1698744760073.0,16,1.1,-2.5,-1.6,0.0,4.6000000000000005,4.6000000000000005,-7.6,-19.8,-15.9
1698744760089.0,16,1.5,-3.2,-1.6,0.5,3.9000000000000004,4.6000000000000005,-5.0,-18.0,-14.700000000000001
1698744760106.0,16,1.7000000000000002,-3.5,-1.6,0.7000000000000001,3.6,4.6000000000000005,3.2,-10.3,-6.9
1698744760122.0,16,0.7000000000000001,-2.5,-0.7000000000000001,-0.30000000000000004,4.5,5.4,3.9,-7.1000000000000005,1.8
1698744760139.0,16,0.0,-2.0,-0.7000000000000001,-1.0,5.1000000000000005,5.5,-1.8,-10.1,4.3999999999999995
1698744760156.0,16,-0.5,-1.3,-0.7000000000000001,-1.5,5.7,5.5,-20.8,-17.5,10.2
1698744760172.0,16,-0.30000000000000004,-0.9,-0.4,-1.1,6.0,5.9,-17.9,-18.2,14.800000000000002
1698744760189.0,16,-0.4,-0.4,0.2,-1.1,6.5,6.5,-8.5,-25.6,16.6
1698744760206.0,16,-0.5,-0.4,0.4,-1.2000000000000002,6.5,6.7,-10.8,-25.1,15.7
1698744760222.0,16,0.4,-0.6000000000000001,0.4,-0.30000000000000004,6.2,6.800000000000001,-19.700000000000003,-11.700000000000001,12.000000000000002
1698744760239.0,16,0.8,-0.7000000000000001,0.30000000000000004,0.1,6.2,6.7,-18.1,-9.9,10.0
1698744760256.0,16,0.5,-0.1,0.1,-0.1,6.7,6.5,-15.8,-15.7,10.9
1698744760272.0,16,0.1,-0.1,0.0,-0.4,6.7,6.5,-19.1,-17.8,10.8
1698744760290.0,16,0.30000000000000004,-1.2000000000000002,0.6000000000000001,-0.2,5.5,7.1000000000000005,-25.6,-11.3,3.6
1698744760306.0,16,0.1,-1.2000000000000002,0.8,-0.30000000000000004,5.5,7.300000000000001,-23.0,-9.700000000000001,3.1
1698744760322.0,16,-0.5,-0.2,0.8,-0.9,6.4,7.4,-20.5,-8.600000000000001,6.5
1698744760339.0,16,-0.9,0.1,0.7000000000000001,-1.3,6.7,7.4,-20.6,-8.9,7.6
1698744760357.0,16,-0.7000000000000001,0.30000000000000004,0.4,-1.1,6.9,7.1000000000000005,-20.2,-10.8,10.600000000000001
1698744760373.0,16,-0.5,0.30000000000000004,0.4,-0.9,6.9,7.2,-22.6,-12.200000000000001,9.8
1698744760390.0,16,-0.30000000000000004,0.0,1.0,-0.6000000000000001,6.5,7.800000000000001,-23.900000000000002,-15.7,4.800000000000001
1698744760406.0,16,-0.7000000000000001,-0.1,0.9,-1.0,6.300000000000001,7.800000000000001,-22.3,-20.2,2.7
1698744760424.0,16,-0.7000000000000001,-0.1,0.8,-1.0,6.300000000000001,7.6000000000000005,-24.3,-20.8,0.6000000000000001
1698744760440.0,16,-0.2,-0.5,0.30000000000000004,-0.4,5.800000000000001,7.2,-22.5,-19.1,-6.000000000000001
1698744760457.0,16,0.5,-0.4,0.8,0.30000000000000004,5.9,7.800000000000001,-13.9,-20.5,-8.200000000000001
1698744760473.0,16,0.4,-0.1,0.7000000000000001,0.2,6.2,7.800000000000001,-11.6,-19.1,-7.300000000000001
1698744760490.0,16,0.4,-0.2,0.8,0.30000000000000004,6.1000000000000005,7.800000000000001,-10.4,-12.8,-1.8
1698744760506.0,16,0.5,-0.30000000000000004,0.5,0.4,5.9,7.6000000000000005,-1.7,-8.1,2.3000000000000003
1698744760522.0,16,0.30000000000000004,-1.0,0.5,0.2,5.300000000000001,7.5,10.9,-8.200000000000001,4.800000000000001
1698744760541.0,16,0.2,-0.9,0.30000000000000004,0.2,5.4,7.4,15.100000000000001,-7.300000000000001,5.7
1698744760556.0,16,0.2,-0.9,0.0,0.2,5.4,7.0,22.1,-5.8,6.000000000000001
1698744760573.0,16,-0.30000000000000004,-0.8,0.0,-0.30000000000000004,5.5,6.9,28.500000000000004,-7.699999999999999,5.4
1698744760589.0,16,0.0,0.5,0.30000000000000004,0.0,7.0,7.1000000000000005,45.1,-12.100000000000001,5.300000000000001
1698744760605.0,16,0.30000000000000004,1.2000000000000002,0.30000000000000004,0.4,7.800000000000001,7.0,49.8,-13.3,3.6
1698744760622.0,16,0.7000000000000001,2.6,0.6000000000000001,0.8,9.3,7.2,63.4,-9.600000000000001,-2.4000000000000004
1698744760639.0,16,0.4,3.3000000000000003,0.8,0.5,10.200000000000001,7.300000000000001,79.8,-3.0000000000000004,-14.4
1698744760656.0,16,0.4,3.5,0.9,0.5,10.5,7.2,84.5,0.1,-21.5
1698744760672.0,16,0.0,3.6,0.8,0.0,10.9,6.9,89.0,2.8,-32.4
1698744760689.0,16,-0.8,3.7,0.30000000000000004,-0.8,11.200000000000001,6.2,91.0,0.9,-33.1
1698744760706.0,16,-0.8,3.4000000000000004,0.2,-1.0,11.0,6.0,93.5,-1.3,-30.9
1698744760722.0,16,0.0,2.6,-0.4,-0.2,10.3,5.1000000000000005,95.3,-5.9,-25.0
1698744760739.0,16,1.0,1.6,-0.6000000000000001,0.8,9.600000000000001,4.7,89.9,-10.8,-16.2
1698744760756.0,16,1.4000000000000001,1.2000000000000002,-0.7000000000000001,1.1,9.200000000000001,4.5,85.60000000000001,-11.2,-10.8
1698744760773.0,16,1.5,0.30000000000000004,-0.8,1.3,8.5,4.2,75.4,-8.700000000000001,0.30000000000000004
1698744760789.0,16,0.9,-0.2,-0.7000000000000001,0.8,8.1,4.0,67.9,-3.2,9.4
1698744760806.0,16,0.6000000000000001,-0.2,-0.6000000000000001,0.5,8.1,4.0,64.8,-1.2000000000000002,12.200000000000001
1698744760823.0,16,0.4,-0.2,-0.30000000000000004,0.30000000000000004,8.3,4.1000000000000005,58.3,1.0,15.000000000000002
1698744760839.0,16,0.2,0.0,-0.1,0.2,8.5,4.2,55.800000000000004,0.8,16.2
1698744760856.0,16,-0.1,0.30000000000000004,-0.1,-0.1,8.9,4.1000000000000005,52.1,0.9,18.7
1698744760873.0,16,-0.4,0.6000000000000001,-0.4,-0.4,9.200000000000001,3.6,50.6,3.5,17.0
1698744760889.0,16,-0.6000000000000001,0.8,-0.6000000000000001,-0.5,9.5,3.3000000000000003,48.800000000000004,4.7,12.000000000000002
1698744760906.0,16,-0.5,1.0,-0.5,-0.4,9.700000000000001,3.4000000000000004,47.300000000000004,3.8,8.600000000000001
1698744760924.0,16,-0.30000000000000004,1.1,-0.30000000000000004,-0.2,10.0,3.4000000000000004,44.4,1.0,2.6
1698744760939.0,16,-0.2,1.0,-0.4,-0.1,9.9,3.1,39.50000000000001,2.0,-0.4
1698744760956.0,16,-0.1,0.7000000000000001,-0.6000000000000001,-0.1,9.8,3.0,37.6,3.4,-1.0
1698744760972.0,16,0.0,0.5,-0.6000000000000001,0.0,9.5,2.8000000000000003,35.8,3.2,-2.7
1698744760990.0,16,0.4,0.30000000000000004,-0.4,0.4,9.3,2.9000000000000004,34.7,4.2,-3.8
1698744761007.0,16,0.5,0.30000000000000004,-0.4,0.6000000000000001,9.4,2.8000000000000003,34.2,5.7,-4.1000000000000005
1698744761023.0,16,0.5,0.4,-0.4,0.6000000000000001,9.4,2.7,31.7,8.4,-3.0000000000000004
1698744761039.0,16,0.4,0.4,-0.6000000000000001,0.4,9.5,2.4000000000000004,29.200000000000003,11.000000000000002,-0.1
1698744761057.0,16,0.4,0.4,-0.7000000000000001,0.4,9.600000000000001,2.2,28.500000000000004,12.000000000000002,1.5000000000000002
1698744761072.0,16,0.5,0.6000000000000001,-0.7000000000000001,0.5,9.8,2.2,27.400000000000002,13.700000000000001,3.1
1698744761090.0,16,0.6000000000000001,0.7000000000000001,-0.7000000000000001,0.6000000000000001,9.9,2.1,26.200000000000003,16.2,3.7000000000000006
1698744761107.0,16,0.6000000000000001,0.7000000000000001,-0.8,0.6000000000000001,9.9,1.9000000000000001,24.3,17.200000000000003,3.9
1698744761122.0,16,0.4,0.7000000000000001,-0.7000000000000001,0.4,9.9,1.9000000000000001,19.9,18.7,4.1000000000000005
1698744761139.0,16,0.2,0.5,-0.9,0.2,9.700000000000001,1.7000000000000002,19.3,20.2,4.300000000000001
1698744761155.0,16,0.30000000000000004,0.5,-0.9,0.30000000000000004,9.700000000000001,1.7000000000000002,19.500000000000004,19.9,4.300000000000001
1698744761173.0,16,0.2,0.4,-0.8,0.2,9.700000000000001,1.7000000000000002,19.3,19.9,3.6
1698744761189.0,16,0.0,0.4,-0.8,0.0,9.700000000000001,1.7000000000000002,16.700000000000003,22.8,3.8
1698744761207.0,16,0.0,0.4,-0.6000000000000001,-0.1,9.700000000000001,1.8,14.4,23.3,3.4
1698744761222.0,16,-0.2,0.4,-0.5,-0.2,9.700000000000001,1.9000000000000001,11.8,22.900000000000002,1.7
1698744761239.0,16,-0.30000000000000004,0.5,-0.5,-0.30000000000000004,9.8,1.8,12.5,19.700000000000003,0.9
1698744761256.0,16,-0.4,0.5,-0.5,-0.5,9.9,1.7000000000000002,11.4,16.1,1.4
1698744761272.0,16,-0.30000000000000004,0.4,-0.5,-0.4,9.700000000000001,1.7000000000000002,9.600000000000001,13.700000000000001,1.7
1698744761289.0,16,-0.30000000000000004,0.1,-0.30000000000000004,-0.30000000000000004,9.4,2.0,6.6000000000000005,11.6,2.0
1698744761306.0,16,-0.5,0.1,-0.6000000000000001,-0.6000000000000001,9.5,1.6,9.1,10.4,2.1999999999999997
1698744761323.0,16,-0.6000000000000001,0.1,-0.6000000000000001,-0.7000000000000001,9.5,1.6,9.700000000000001,9.1,1.3
1698744761339.0,16,-0.5,0.2,-0.5,-0.6000000000000001,9.600000000000001,1.6,10.8,5.9,-1.0999999999999999
1698744761356.0,16,-0.4,0.2,-0.4,-0.4,9.5,1.8,10.2,5.0,-1.9
1698744761373.0,16,-0.30000000000000004,0.0,-0.30000000000000004,-0.4,9.4,1.8,5.500000000000001,4.1000000000000005,-1.9
1698744761389.0,16,-0.2,-0.2,-0.2,-0.30000000000000004,9.200000000000001,1.9000000000000001,-0.1,1.0999999999999999,-1.4
1698744761406.0,16,-0.30000000000000004,0.0,-0.1,-0.4,9.3,2.0,-3.4,-0.6000000000000001,-1.6
1698744761422.0,16,-0.30000000000000004,0.0,-0.1,-0.4,9.4,2.0,-3.6,-1.0999999999999999,-2.1
1698744761439.0,16,-0.2,0.1,0.0,-0.30000000000000004,9.5,2.1,-2.8,-1.9,-3.5
1698744761455.0,16,0.0,0.2,-0.1,-0.1,9.5,2.1,-1.8,-0.6000000000000001,-3.9
1698744761472.0,16,0.1,0.2,0.0,0.0,9.600000000000001,2.2,-2.0,0.0,-3.3000000000000003
1698744761489.0,16,0.4,-0.1,0.30000000000000004,0.2,9.3,2.4000000000000004,-1.7,0.6000000000000001,-2.5
1698744761506.0,16,0.30000000000000004,-0.1,0.30000000000000004,0.1,9.3,2.2,-0.6000000000000001,1.2000000000000002,-1.8
1698744761522.0,16,0.2,0.0,0.0,0.0,9.4,2.2,-0.9,0.5,-0.7
1698744761539.0,16,-0.1,-0.1,0.0,-0.30000000000000004,9.3,2.1,-4.9,0.30000000000000004,-0.8
1698744761556.0,16,-0.1,-0.1,0.1,-0.2,9.200000000000001,2.2,-6.3,-0.4,-2.0
1698744761573.0,16,0.0,-0.1,0.0,-0.2,9.200000000000001,2.1,-5.6,-0.4,-2.5
1698744761589.0,16,0.1,-0.1,0.0,-0.1,9.200000000000001,2.2,-4.5,-1.2000000000000002,-2.4000000000000004
1698744761606.0,16,0.0,-0.30000000000000004,-0.1,-0.2,9.1,2.1,-4.0,-0.8,-1.9
1698744761624.0,16,-0.1,-0.30000000000000004,-0.1,-0.30000000000000004,9.1,2.1,-4.2,0.1,-1.0
1698744761639.0,16,-0.1,-0.2,-0.2,-0.30000000000000004,9.200000000000001,2.1,-3.7000000000000006,-0.2,-0.9
1698744761657.0,16,-0.1,0.0,-0.1,-0.30000000000000004,9.3,2.2,-3.1,-1.3,-1.0999999999999999
1698744761673.0,16,-0.1,-0.1,0.0,-0.30000000000000004,9.3,2.2,-3.1,-1.0,-1.3
1698744761690.0,16,-0.1,0.0,0.0,-0.30000000000000004,9.3,2.2,-3.5,-0.7,-1.8
1698744761706.0,16,-0.1,0.0,0.0,-0.30000000000000004,9.3,2.2,-3.7000000000000006,-0.7,-2.0
1698744761723.0,16,-0.1,0.0,0.0,-0.30000000000000004,9.3,2.2,-4.2,-0.6000000000000001,-2.1
1698744761740.0,16,-0.1,0.0,0.0,-0.30000000000000004,9.3,2.2,-4.2,-1.3,-2.0
1698744761756.0,16,-0.1,0.0,0.0,-0.30000000000000004,9.3,2.2,-4.9,-3.0000000000000004,-2.0
1698744761773.0,16,0.0,0.0,0.0,-0.30000000000000004,9.3,2.3000000000000003,-5.500000000000001,-3.0000000000000004,-2.1999999999999997
1698744761790.0,16,0.0,-0.2,0.0,-0.2,9.1,2.3000000000000003,-5.1,-2.1,-2.4000000000000004
1698744761806.0,16,0.1,-0.2,-0.1,-0.2,9.1,2.2,-2.8,-1.6,-2.5
1698744761823.0,16,0.1,-0.2,-0.1,-0.2,9.1,2.2,-2.5,-2.0,-2.5
1698744761839.0,16,0.1,-0.1,0.0,-0.2,9.200000000000001,2.3000000000000003,-2.1,-2.0,-2.1999999999999997
1698744761856.0,16,0.1,-0.1,-0.1,-0.2,9.200000000000001,2.2,-1.8,-1.2000000000000002,-2.1
1698744761874.0,16,0.0,-0.1,0.0,-0.2,9.1,2.3000000000000003,-0.6000000000000001,-0.8,-1.8
1698744761890.0,16,0.1,-0.1,0.0,-0.2,9.200000000000001,2.3000000000000003,-0.1,-1.0,-1.7
1698744761906.0,16,0.0,0.0,0.0,-0.2,9.200000000000001,2.3000000000000003,-1.0,-1.6,-1.2000000000000002
1698744761923.0,16,0.0,-0.1,0.1,-0.30000000000000004,9.200000000000001,2.4000000000000004,-2.3000000000000003,-0.8,-1.2000000000000002
1698744761939.0,16,0.0,-0.1,0.1,-0.30000000000000004,9.1,2.4000000000000004,-2.0,-0.30000000000000004,-1.3
1698744761956.0,16,-0.1,-0.1,0.0,-0.30000000000000004,9.1,2.3000000000000003,-1.2000000000000002,-0.8,-0.9
1698744761974.0,16,-0.1,0.0,0.0,-0.4,9.200000000000001,2.3000000000000003,-1.0999999999999999,-1.0999999999999999,-1.0
1698744761990.0,16,0.1,0.0,0.0,-0.2,9.3,2.4000000000000004,-0.5,-0.8,-1.5000000000000002
1698744762006.0,16,0.1,0.0,0.0,-0.2,9.3,2.3000000000000003,-0.5,-0.4,-1.0
1698744762025.0,16,0.0,0.0,0.0,-0.30000000000000004,9.200000000000001,2.4000000000000004,-1.0999999999999999,0.1,-0.8
1698744762039.0,16,-0.1,0.0,0.0,-0.4,9.200000000000001,2.4000000000000004,-1.0999999999999999,0.30000000000000004,-0.4
1698744762056.0,16,-0.1,0.0,-0.1,-0.4,9.200000000000001,2.3000000000000003,-0.6000000000000001,-0.30000000000000004,0.0
1698744762073.0,16,0.0,0.0,-0.1,-0.30000000000000004,9.200000000000001,2.3000000000000003,-0.30000000000000004,-0.6000000000000001,0.2
1698744762090.0,16,0.1,0.0,0.0,-0.2,9.200000000000001,2.4000000000000004,-0.4,-1.0,0.0
1698744762106.0,16,0.1,0.0,0.0,-0.2,9.200000000000001,2.4000000000000004,-0.8,-0.1,0.0
1698744762122.0,16,0.0,0.0,-0.1,-0.30000000000000004,9.200000000000001,2.3000000000000003,-1.2000000000000002,0.1,-0.2
1698744762139.0,16,0.0,0.1,-0.1,-0.30000000000000004,9.3,2.3000000000000003,-1.8,0.2,-0.1
1698744762156.0,16,0.0,0.1,-0.1,-0.30000000000000004,9.4,2.3000000000000003,-2.0,0.0,-0.1
1698744762173.0,16,0.0,0.1,-0.1,-0.2,9.3,2.3000000000000003,-1.7,0.30000000000000004,-0.2
1698744762189.0,16,0.1,0.0,-0.1,-0.2,9.200000000000001,2.3000000000000003,-0.6000000000000001,1.2000000000000002,0.1
1698744762206.0,16,0.1,-0.1,-0.1,-0.2,9.1,2.3000000000000003,0.0,0.9,0.30000000000000004
1698744762222.0,16,0.0,-0.1,-0.1,-0.30000000000000004,9.1,2.3000000000000003,0.5,0.9,0.4
1698744762239.0,16,0.0,-0.1,-0.1,-0.30000000000000004,9.1,2.3000000000000003,0.30000000000000004,0.9,0.6000000000000001
1698744762256.0,16,0.0,0.0,-0.1,-0.30000000000000004,9.200000000000001,2.2,-0.8,0.8,0.9
1698744762272.0,16,0.0,0.0,0.0,-0.30000000000000004,9.200000000000001,2.3000000000000003,-1.7,0.7,0.30000000000000004
1698744762289.0,16,0.0,0.0,0.0,-0.30000000000000004,9.200000000000001,2.3000000000000003,-1.7,0.7,0.1
1698744762307.0,16,0.1,0.0,0.0,-0.2,9.200000000000001,2.4000000000000004,-1.8,1.6,0.30000000000000004
1698744762323.0,16,-0.1,-0.1,0.1,-0.30000000000000004,9.1,2.4000000000000004,-1.8,1.5000000000000002,0.9
1698744762339.0,16,-0.2,-0.2,0.1,-0.5,9.0,2.5,-2.0,0.6000000000000001,1.2000000000000002
1698744762356.0,16,-0.30000000000000004,-0.1,0.1,-0.6000000000000001,9.1,2.4000000000000004,-1.5000000000000002,-2.0,2.0
1698744762373.0,16,-0.2,0.0,0.1,-0.6000000000000001,9.1,2.4000000000000004,-1.2000000000000002,-3.1,2.5
1698744762390.0,16,-0.2,0.1,0.1,-0.4,9.200000000000001,2.5,-1.0,-4.2,2.8
1698744762407.0,16,0.0,0.1,0.0,-0.2,9.3,2.4000000000000004,-0.5,-3.5,3.1
1698744762422.0,16,0.0,0.1,0.1,-0.2,9.200000000000001,2.4000000000000004,-0.30000000000000004,-2.9,3.2
1698744762440.0,16,0.0,0.0,0.1,-0.2,9.200000000000001,2.5,-0.6000000000000001,-2.6,3.3000000000000003
1698744762456.0,16,-0.1,0.1,0.1,-0.30000000000000004,9.200000000000001,2.5,-2.1999999999999997,-2.4000000000000004,3.5
1698744762473.0,16,-0.1,0.0,0.0,-0.30000000000000004,9.200000000000001,2.4000000000000004,-3.3000000000000003,-2.1999999999999997,4.0
1698744762489.0,16,0.0,0.0,0.0,-0.2,9.200000000000001,2.4000000000000004,-3.2,-2.4000000000000004,4.0
1698744762506.0,16,-0.1,0.0,0.1,-0.30000000000000004,9.200000000000001,2.5,-2.7,-3.0000000000000004,3.8
1698744762525.0,16,0.0,0.0,0.0,-0.2,9.200000000000001,2.4000000000000004,-2.3000000000000003,-3.3000000000000003,3.4
1698744762539.0,16,-0.1,0.0,0.0,-0.2,9.200000000000001,2.5,-2.3000000000000003,-3.8,3.3000000000000003
1698744762557.0,16,0.0,0.1,0.0,-0.2,9.200000000000001,2.5,-2.7,-4.1000000000000005,3.6
1698744762572.0,16,0.0,0.0,0.0,-0.2,9.200000000000001,2.5,-2.4000000000000004,-4.3999999999999995,3.5
1698744762590.0,16,0.0,0.1,0.0,-0.2,9.3,2.4000000000000004,-2.1999999999999997,-4.2,3.4
1698744762606.0,16,0.0,0.30000000000000004,0.0,-0.1,9.5,2.5,-2.6,-4.1000000000000005,3.4
1698744762622.0,16,0.1,0.30000000000000004,0.0,0.0,9.5,2.4000000000000004,-4.5,-3.3000000000000003,3.4
1698744762639.0,16,0.1,0.2,0.0,0.0,9.5,2.5,-5.500000000000001,-2.6,3.6
1698744762656.0,16,0.1,0.0,-0.2,0.0,9.3,2.3000000000000003,-5.300000000000001,-0.5,4.6000000000000005
1698744762673.0,16,0.1,0.0,-0.2,0.0,9.200000000000001,2.3000000000000003,-4.2,-0.7,5.300000000000001
1698744762689.0,16,0.0,0.0,-0.2,0.0,9.3,2.3000000000000003,-4.2,-0.30000000000000004,5.300000000000001
1698744762708.0,16,0.1,0.1,-0.1,0.1,9.3,2.4000000000000004,-5.300000000000001,0.4,5.2
1698744762723.0,16,0.0,0.0,-0.2,0.0,9.200000000000001,2.3000000000000003,-5.500000000000001,1.3,5.500000000000001
1698744762739.0,16,0.0,0.0,-0.30000000000000004,0.0,9.200000000000001,2.3000000000000003,-4.6000000000000005,1.0999999999999999,4.5
1698744762756.0,16,-0.1,-0.1,-0.30000000000000004,-0.1,9.1,2.2,-3.5,1.0999999999999999,3.7000000000000006
1698744762773.0,16,-0.1,0.0,-0.2,-0.1,9.200000000000001,2.3000000000000003,-1.7,-0.2,2.3000000000000003
1698744762790.0,16,-0.1,0.1,-0.2,-0.1,9.3,2.3000000000000003,-1.5000000000000002,-1.0,1.8
1698744762806.0,16,0.0,0.2,-0.1,0.0,9.4,2.4000000000000004,-2.8,-1.6,0.30000000000000004
1698744762823.0,16,0.2,0.1,0.0,0.2,9.3,2.5,-3.9,-0.8,-0.30000000000000004
1698744762839.0,16,0.1,0.0,0.0,0.2,9.200000000000001,2.6,-4.0,-0.5,-0.30000000000000004
1698744762856.0,16,0.1,-0.1,0.0,0.1,9.1,2.6,-3.4,0.30000000000000004,0.0
1698744762872.0,16,0.1,-0.1,0.0,0.2,9.1,2.5,-2.8,0.6000000000000001,0.30000000000000004
1698744762889.0,16,0.1,0.0,0.0,0.1,9.200000000000001,2.6,-2.9,0.6000000000000001,0.4
1698744762907.0,16,0.1,-0.1,0.0,0.1,9.1,2.6,-2.9,1.2000000000000002,0.4
1698744762922.0,16,0.0,-0.1,0.0,0.1,9.1,2.6,-2.8,1.6,0.6000000000000001
1698744762939.0,16,0.0,-0.1,0.0,0.0,9.1,2.6,-3.1,1.9,0.4
1698744762956.0,16,0.0,-0.1,0.0,0.0,9.1,2.6,-3.1,1.6,0.30000000000000004
1698744762972.0,16,0.0,-0.1,0.0,0.0,9.1,2.6,-3.0000000000000004,0.2,0.30000000000000004
1698744762989.0,16,-0.1,0.0,0.0,0.0,9.1,2.6,-3.3000000000000003,-0.8,0.30000000000000004
1698744763006.0,16,-0.1,0.0,0.0,-0.1,9.1,2.6,-3.5,-1.5000000000000002,0.4
1698744763022.0,16,-0.1,0.0,0.0,-0.1,9.200000000000001,2.6,-3.4,-2.4000000000000004,0.2
1698744763039.0,16,-0.1,0.0,0.0,-0.1,9.1,2.6,-2.5,-2.4000000000000004,-0.7
1698744763055.0,16,0.0,0.0,0.0,0.0,9.1,2.6,-2.3000000000000003,-2.4000000000000004,-1.0999999999999999
1698744763072.0,16,0.0,-0.1,0.1,0.0,9.1,2.7,-2.5,-3.1,-0.9
1698744763090.0,16,-0.2,-0.1,0.1,-0.2,9.1,2.7,-2.1999999999999997,-5.500000000000001,-0.9
1698744763106.0,16,-0.30000000000000004,0.0,0.0,-0.30000000000000004,9.1,2.7,-1.8,-6.5,-1.0999999999999999
1698744763122.0,16,-0.2,0.1,0.0,-0.2,9.200000000000001,2.7,-1.4,-7.9,-1.8
1698744763139.0,16,-0.1,0.1,0.0,-0.1,9.200000000000001,2.7,-1.4,-9.3,-3.0000000000000004
1698744763156.0,16,0.0,0.1,0.0,0.0,9.200000000000001,2.7,-1.8,-9.4,-3.3000000000000003
1698744763173.0,16,0.1,0.0,0.0,0.1,9.200000000000001,2.7,-2.6,-8.5,-3.7000000000000006
1698744763189.0,16,0.1,0.0,0.0,0.1,9.1,2.7,-2.8,-7.699999999999999,-3.3000000000000003
1698744763205.0,16,0.1,0.0,0.0,0.1,9.1,2.7,-2.6,-6.7,-3.0000000000000004
1698744763222.0,16,0.1,0.0,0.0,0.1,9.1,2.7,-2.3000000000000003,-6.000000000000001,-2.7
1698744763239.0,16,0.2,0.1,0.0,0.2,9.200000000000001,2.7,-1.7,-5.2,-2.1999999999999997
1698744763256.0,16,0.30000000000000004,0.1,0.0,0.30000000000000004,9.200000000000001,2.7,-2.0,-5.0,-1.9
1698744763273.0,16,0.2,0.1,0.1,0.2,9.200000000000001,2.8000000000000003,-3.1,-4.0,-0.7
1698744763289.0,16,0.1,0.1,0.1,0.1,9.200000000000001,2.8000000000000003,-4.800000000000001,-3.1,0.4
1698744763306.0,16,0.0,0.2,0.0,0.1,9.3,2.8000000000000003,-5.6,-3.1,0.7
1698744763323.0,16,0.0,0.30000000000000004,0.0,0.0,9.4,2.7,-8.3,-2.6,1.0999999999999999
1698744763339.0,16,-0.1,0.1,0.0,0.0,9.3,2.8000000000000003,-9.700000000000001,-2.7,1.5000000000000002
1698744763356.0,16,-0.1,0.0,0.1,-0.1,9.200000000000001,2.9000000000000004,-10.0,-2.9,1.5000000000000002
1698744763373.0,16,-0.1,-0.1,0.0,-0.1,9.0,2.9000000000000004,-10.1,-3.0000000000000004,2.1999999999999997
1698744763390.0,16,-0.1,-0.30000000000000004,-0.2,-0.1,8.8,2.7,-8.3,-3.5,3.3000000000000003
1698744763407.0,16,-0.2,-0.30000000000000004,-0.2,-0.1,8.8,2.7,-6.6000000000000005,-5.2,3.0000000000000004
1698744763422.0,16,-0.2,-0.1,-0.1,-0.1,9.0,2.8000000000000003,-3.6,-6.7,1.8
1698744763439.0,16,-0.1,-0.30000000000000004,0.0,0.0,8.8,2.9000000000000004,-2.3000000000000003,-4.800000000000001,0.30000000000000004
1698744763455.0,16,0.0,-0.30000000000000004,0.2,0.1,8.9,3.1,-2.3000000000000003,-3.6,-0.5
1698744763472.0,16,0.0,-0.30000000000000004,0.2,0.1,8.8,3.1,-1.9,-3.7000000000000006,-0.7
1698744763489.0,16,0.0,-0.2,0.30000000000000004,0.0,8.9,3.2,0.0,-3.6,-0.4
1698744763506.0,16,0.1,-0.1,0.30000000000000004,0.1,9.0,3.2,1.2000000000000002,-3.0000000000000004,0.4
1698744763522.0,16,0.1,-0.1,0.30000000000000004,0.2,9.0,3.2,1.0,-2.1999999999999997,1.0999999999999999
1698744763539.0,16,0.1,-0.1,0.30000000000000004,0.2,9.0,3.2,-0.4,-2.1999999999999997,2.5
1698744763556.0,16,0.1,0.0,0.30000000000000004,0.2,9.1,3.2,-1.4,-2.4000000000000004,2.6
1698744763574.0,16,0.2,-0.1,0.30000000000000004,0.30000000000000004,9.0,3.2,-3.3000000000000003,-2.0,2.8
1698744763589.0,16,0.30000000000000004,-0.4,0.2,0.4,8.700000000000001,3.2,-4.0,0.30000000000000004,3.3000000000000003
1698744763605.0,16,0.2,-0.5,0.2,0.30000000000000004,8.6,3.2,-4.0,0.9,2.8
1698744763622.0,16,0.1,-0.4,0.2,0.30000000000000004,8.6,3.2,-3.0000000000000004,1.2000000000000002,2.9
1698744763639.0,16,0.1,-0.5,0.2,0.2,8.6,3.2,1.0,1.9,2.9
1698744763656.0,16,0.1,-0.4,0.2,0.2,8.700000000000001,3.1,2.7,3.0000000000000004,3.1
1698744763674.0,16,0.0,-0.30000000000000004,0.1,0.2,8.700000000000001,3.0,6.3,5.0,3.4
1698744763689.0,16,-0.1,-0.1,-0.1,0.1,8.9,2.8000000000000003,7.400000000000001,4.800000000000001,2.7
1698744763707.0,16,-0.2,-0.1,-0.2,0.0,9.0,2.7,7.9,2.1,2.0
1698744763723.0,16,-0.2,-0.1,-0.2,0.0,8.9,2.7,8.600000000000001,0.7,1.4
1698744763739.0,16,-0.2,-0.2,-0.2,0.0,8.9,2.7,11.2,-0.30000000000000004,1.0999999999999999
1698744763756.0,16,-0.2,-0.2,-0.1,0.0,8.9,2.7,12.4,-0.8,0.9
1698744763773.0,16,-0.2,0.0,-0.1,0.0,9.1,2.7,12.9,-2.4000000000000004,0.1
1698744763789.0,16,-0.1,0.1,-0.1,0.1,9.200000000000001,2.7,13.0,-2.3000000000000003,-0.7
1698744763807.0,16,0.0,0.1,-0.1,0.2,9.3,2.6,13.700000000000001,-1.9,-1.0
1698744763822.0,16,0.1,0.1,0.0,0.30000000000000004,9.3,2.6,14.0,-1.7,-1.0
1698744763839.0,16,0.1,0.1,-0.1,0.30000000000000004,9.3,2.6,14.4,-1.3,-0.7
1698744763856.0,16,0.1,0.2,-0.1,0.30000000000000004,9.4,2.5,13.200000000000001,-0.7,0.4
1698744763873.0,16,0.1,0.2,-0.1,0.30000000000000004,9.4,2.5,12.3,-0.4,0.9
1698744763893.0,16,0.1,0.1,-0.1,0.30000000000000004,9.3,2.4000000000000004,10.1,-0.4,1.4
1698744763907.0,16,0.1,0.0,-0.1,0.30000000000000004,9.200000000000001,2.4000000000000004,8.0,0.0,1.2000000000000002
1698744763922.0,16,0.1,0.1,-0.1,0.30000000000000004,9.3,2.3000000000000003,7.1000000000000005,1.6,0.7
1698744763939.0,16,0.0,0.2,-0.2,0.30000000000000004,9.4,2.3000000000000003,6.4,2.3000000000000003,0.4
1698744763956.0,16,0.0,0.2,-0.1,0.2,9.4,2.3000000000000003,5.2,3.0000000000000004,0.4
1698744763974.0,16,-0.1,0.1,-0.1,0.2,9.4,2.4000000000000004,5.0,3.0000000000000004,0.4
1698744763989.0,16,-0.1,0.1,0.0,0.1,9.3,2.5,4.3999999999999995,2.3000000000000003,0.9
1698744764006.0,16,-0.2,0.0,0.0,0.0,9.200000000000001,2.4000000000000004,3.4,1.0999999999999999,1.0999999999999999
1698744764022.0,16,-0.1,0.0,-0.1,0.1,9.200000000000001,2.3000000000000003,3.1,0.1,0.30000000000000004
1698744764039.0,16,-0.1,0.0,-0.1,0.1,9.200000000000001,2.3000000000000003,3.3000000000000003,-0.6000000000000001,-0.4
1698744764056.0,16,-0.1,0.0,-0.1,0.1,9.200000000000001,2.3000000000000003,3.5,-1.3,-1.2000000000000002
1698744764072.0,16,-0.1,0.0,0.0,0.1,9.3,2.3000000000000003,2.8,-1.9,-1.4
1698744764089.0,16,-0.1,0.0,0.0,0.1,9.3,2.3000000000000003,2.4000000000000004,-2.4000000000000004,-1.2000000000000002
1698744764105.0,16,0.0,0.0,-0.1,0.2,9.200000000000001,2.3000000000000003,2.1,-3.0000000000000004,-0.9
1698744764122.0,16,0.0,0.0,0.0,0.2,9.3,2.3000000000000003,2.3000000000000003,-3.1,-1.0
1698744764140.0,16,0.0,0.1,0.0,0.2,9.3,2.3000000000000003,2.3000000000000003,-3.0000000000000004,-0.9
1698744764156.0,16,0.0,0.1,0.0,0.2,9.3,2.3000000000000003,1.6,-2.9,-1.0999999999999999
1698744764172.0,16,0.0,0.0,0.0,0.2,9.200000000000001,2.3000000000000003,0.8,-2.7,-1.3
1698744764189.0,16,0.1,0.0,0.0,0.2,9.200000000000001,2.3000000000000003,0.6000000000000001,-2.4000000000000004,-1.3
1698744764206.0,16,0.1,0.0,0.0,0.30000000000000004,9.200000000000001,2.3000000000000003,0.6000000000000001,-2.1999999999999997,-1.4
1698744764222.0,16,0.1,0.0,0.0,0.30000000000000004,9.200000000000001,2.3000000000000003,0.6000000000000001,-1.7,-1.7
1698744764239.0,16,0.0,-0.1,-0.1,0.2,9.200000000000001,2.3000000000000003,0.5,-1.5000000000000002,-1.4
1698744764256.0,16,0.0,0.0,0.0,0.2,9.200000000000001,2.3000000000000003,0.2,-1.0999999999999999,-1.6
1698744764272.0,16,0.0,0.1,0.0,0.2,9.3,2.3000000000000003,-0.1,-1.0,-1.8
1698744764289.0,16,0.1,0.0,0.0,0.2,9.3,2.3000000000000003,-0.4,-0.6000000000000001,-1.8
1698744764306.0,16,0.1,0.0,0.0,0.2,9.200000000000001,2.3000000000000003,-0.30000000000000004,0.0,-1.5000000000000002
1698744764322.0,16,0.0,-0.1,0.0,0.2,9.200000000000001,2.3000000000000003,-0.30000000000000004,1.2000000000000002,-1.3
1698744764339.0,16,-0.1,-0.1,0.0,0.1,9.1,2.3000000000000003,-0.1,1.0,-1.0999999999999999
1698744764356.0,16,-0.1,0.0,0.0,0.0,9.200000000000001,2.3000000000000003,0.0,0.0,-1.4
1698744764374.0,16,0.0,0.0,0.0,0.1,9.3,2.3000000000000003,-0.30000000000000004,-0.30000000000000004,-1.4
1698744764389.0,16,0.0,0.0,0.0,0.1,9.200000000000001,2.3000000000000003,-0.1,-0.5,-1.6
1698744764406.0,16,0.0,-0.1,0.1,0.1,9.200000000000001,2.4000000000000004,0.30000000000000004,-0.6000000000000001,-1.9
1698744764423.0,16,0.0,-0.1,0.1,0.1,9.1,2.4000000000000004,0.5,0.1,-1.6
1698744764440.0,16,0.0,-0.1,0.0,0.1,9.1,2.4000000000000004,0.6000000000000001,0.2,-1.6
1698744764456.0,16,0.0,-0.1,0.0,0.1,9.200000000000001,2.4000000000000004,0.7,0.2,-1.6
1698744764472.0,16,0.0,0.0,0.0,0.1,9.200000000000001,2.3000000000000003,0.8,0.30000000000000004,-1.4
1698744764489.0,16,0.0,0.0,0.0,0.1,9.200000000000001,2.3000000000000003,0.6000000000000001,0.30000000000000004,-1.4
1698744764505.0,16,0.0,0.0,0.0,0.1,9.200000000000001,2.3000000000000003,0.5,0.1,-1.6
1698744764522.0,16,0.0,0.0,0.0,0.1,9.200000000000001,2.3000000000000003,0.7,0.1,-1.6
1698744764539.0,16,0.0,0.0,0.0,0.1,9.200000000000001,2.3000000000000003,0.8,0.0,-1.5000000000000002
1698744764556.0,16,-0.1,0.0,0.0,0.0,9.200000000000001,2.3000000000000003,1.0,0.2,-1.3
1698744764572.0,16,-0.1,0.0,0.0,0.0,9.200000000000001,2.3000000000000003,1.2000000000000002,0.0,-1.0
1698744764589.0,16,0.0,0.0,0.0,0.0,9.200000000000001,2.3000000000000003,1.0999999999999999,0.0,-0.8
1698744764606.0,16,0.0,0.0,0.0,0.1,9.200000000000001,2.3000000000000003,1.0,0.30000000000000004,-0.6000000000000001
1698744764623.0,16,0.0,0.0,0.0,0.1,9.200000000000001,2.3000000000000003,1.0999999999999999,0.4,-0.8
1698744764640.0,16,0.0,0.0,0.0,0.1,9.3,2.3000000000000003,1.0,0.30000000000000004,-0.9
1698744764656.0,16,0.0,0.0,-0.1,0.0,9.3,2.2,0.7,0.0,-1.0
1698744764673.0,16,-0.1,0.0,-0.1,0.0,9.3,2.2,0.7,-0.2,-1.0
1698744764689.0,16,0.0,0.1,0.0,0.0,9.3,2.2,0.7,-0.9,-1.0999999999999999
1698744764707.0,16,0.0,0.1,0.0,0.0,9.3,2.3000000000000003,1.0,-1.0,-1.2000000000000002
1698744764723.0,16,0.0,0.0,0.0,0.0,9.3,2.3000000000000003,0.8,-1.0,-1.3
1698744764740.0,16,0.0,0.0,0.0,0.1,9.200000000000001,2.3000000000000003,0.4,-0.8,-1.0999999999999999
1698744764756.0,16,0.0,0.0,0.0,0.0,9.200000000000001,2.3000000000000003,0.30000000000000004,-0.5,-0.5
1698744764773.0,16,0.0,0.0,0.0,0.0,9.200000000000001,2.2,0.4,-0.2,-0.30000000000000004
1698744764789.0,16,0.0,0.0,0.0,0.0,9.3,2.2,0.7,-0.4,-0.1
1698744764806.0,16,0.0,0.0,0.0,0.0,9.200000000000001,2.2,0.30000000000000004,-0.6000000000000001,-0.2
1698744764822.0,16,0.0,0.0,0.0,0.0,9.3,2.2,0.0,-1.3,-0.30000000000000004
1698744764839.0,16,0.0,0.0,0.0,0.0,9.3,2.2,-0.30000000000000004,-1.4,-0.30000000000000004
1698744764856.0,16,0.0,0.0,0.0,0.0,9.3,2.2,-0.1,-1.0999999999999999,-0.2
1698744764872.0,16,0.0,0.0,0.0,0.1,9.200000000000001,2.3000000000000003,0.2,-1.0999999999999999,-0.2
1698744764889.0,16,0.0,-0.1,0.0,0.1,9.200000000000001,2.2,0.2,-1.0999999999999999,-0.30000000000000004
1698744764907.0,16,0.0,0.0,0.0,0.0,9.200000000000001,2.2,0.1,-1.0,0.1
1698744764922.0,16,0.0,0.0,0.0,0.0,9.3,2.2,-0.30000000000000004,-1.0,0.1
1698744764939.0,16,0.0,0.0,0.0,0.0,9.3,2.2,-0.30000000000000004,-1.0999999999999999,0.1
1698744764956.0,16,0.0,0.0,0.0,0.0,9.200000000000001,2.3000000000000003,-0.1,-1.3,0.0
1698744764973.0,16,0.0,-0.1,0.1,0.1,9.200000000000001,2.3000000000000003,-0.6000000000000001,-0.5,0.0
1698744764989.0,16,0.0,-0.1,0.0,0.1,9.1,2.3000000000000003,-0.6000000000000001,0.1,-0.2
1698744765007.0,16,0.0,0.0,-0.1,0.1,9.200000000000001,2.2,-0.30000000000000004,-0.5,0.30000000000000004
1698744765023.0,16,0.0,0.0,0.0,0.0,9.3,2.2,-0.1,-0.7,0.4
1698744765039.0,16,0.0,0.0,0.0,0.0,9.3,2.2,-0.30000000000000004,-0.6000000000000001,0.4
1698744765056.0,16,0.0,0.0,0.0,0.0,9.200000000000001,2.2,-0.7,-0.6000000000000001,0.1
1698744765074.0,16,0.0,0.0,0.0,0.0,9.200000000000001,2.2,-0.8,-0.5,0.30000000000000004
1698744765089.0,16,0.0,0.1,0.0,0.0,9.200000000000001,2.2,-0.9,-0.5,0.1
1698744765106.0,16,0.0,0.1,-0.1,0.1,9.3,2.2,-0.6000000000000001,-0.5,0.6000000000000001
1698744765122.0,16,0.0,0.1,0.0,0.1,9.3,2.2,-0.30000000000000004,-0.7,0.30000000000000004
1698744765139.0,16,0.1,0.0,0.0,0.1,9.3,2.2,-0.4,-0.2,0.30000000000000004
1698744765156.0,16,0.1,0.0,0.0,0.1,9.200000000000001,2.2,-0.8,-0.1,0.0
1698744765172.0,16,0.0,0.0,0.0,0.1,9.3,2.2,-1.2000000000000002,0.1,0.0
1698744765190.0,16,0.0,0.0,0.0,0.1,9.3,2.2,-1.3,0.0,0.30000000000000004
1698744765206.0,16,0.0,0.0,0.0,0.1,9.3,2.3000000000000003,-1.0999999999999999,-0.2,0.2
1698744765223.0,16,0.0,0.0,0.0,0.1,9.200000000000001,2.3000000000000003,-0.8,-0.30000000000000004,-0.2
1698744765239.0,16,0.0,0.0,-0.1,0.1,9.3,2.2,-1.2000000000000002,0.4,0.30000000000000004
1698744765256.0,16,0.0,0.0,0.0,0.1,9.200000000000001,2.3000000000000003,-1.3,0.8,0.2
1698744765273.0,16,0.0,0.0,0.0,0.1,9.3,2.3000000000000003,-1.2000000000000002,0.9,0.2
1698744765290.0,16,0.0,0.0,0.0,0.1,9.3,2.3000000000000003,-1.5000000000000002,0.8,0.30000000000000004
1698744765306.0,16,0.0,0.0,0.0,0.1,9.3,2.3000000000000003,-1.6,0.7,0.2
1698744765323.0,16,0.0,0.0,0.0,0.1,9.200000000000001,2.3000000000000003,-1.9,0.5,0.1
1698744765339.0,16,0.0,0.0,-0.1,0.1,9.3,2.2,-2.3000000000000003,0.4,0.0
1698744765356.0,16,0.0,0.1,-0.1,0.1,9.3,2.2,-2.6,-0.1,-0.2
1698744765373.0,16,0.0,0.1,-0.1,0.1,9.3,2.2,-3.4,-1.8,-1.2000000000000002
1698744765389.0,16,0.0,0.1,0.0,0.1,9.3,2.3000000000000003,-3.0000000000000004,-1.7,-1.7
1698744765407.0,16,0.0,0.0,0.0,0.1,9.3,2.3000000000000003,-2.8,-1.0,-1.7
1698744765423.0,16,0.0,0.0,0.0,0.0,9.3,2.3000000000000003,-3.6,0.2,-1.7
1698744765439.0,16,-0.1,0.0,0.0,0.0,9.200000000000001,2.3000000000000003,-4.0,0.9,-1.0
1698744765455.0,16,0.0,-0.1,0.0,0.0,9.200000000000001,2.4000000000000004,-2.8,0.30000000000000004,-0.5
1698744765474.0,16,0.0,-0.1,0.0,0.1,9.1,2.4000000000000004,-2.0,0.1,-0.30000000000000004
1698744765489.0,16,0.0,-0.1,0.0,0.1,9.200000000000001,2.4000000000000004,-1.7,-0.5,0.1
1698744765506.0,16,0.0,0.0,0.1,0.1,9.200000000000001,2.4000000000000004,-1.7,-0.8,0.1
1698744765522.0,16,0.0,0.0,0.1,0.0,9.200000000000001,2.5,-1.0999999999999999,-1.4,0.0
1698744765539.0,16,0.0,0.0,0.2,0.0,9.3,2.6,-0.30000000000000004,-2.0,-0.5
1698744765556.0,16,0.0,0.1,0.2,0.0,9.3,2.6,-0.2,-1.8,-1.0
1698744765573.0,16,0.0,0.1,0.2,0.0,9.3,2.6,-1.0,-1.3,-2.8
1698744765589.0,16,-0.1,0.2,0.0,-0.1,9.4,2.4000000000000004,-3.6,0.6000000000000001,-4.1000000000000005
1698744765607.0,16,-0.2,0.2,0.0,-0.2,9.5,2.4000000000000004,-4.800000000000001,0.9,-4.5
1698744765625.0,16,-0.4,0.2,-0.1,-0.4,9.4,2.3000000000000003,-5.300000000000001,0.7,-4.9
1698744765639.0,16,-0.4,0.1,-0.2,-0.4,9.3,2.3000000000000003,-6.5,-0.7,-5.1
1698744765656.0,16,-0.2,0.0,-0.1,-0.2,9.3,2.4000000000000004,-10.2,-2.3000000000000003,-4.7
1698744765676.0,16,0.0,0.0,-0.2,0.1,9.200000000000001,2.3000000000000003,-11.3,-3.0000000000000004,-4.1000000000000005
1698744765691.0,16,0.2,0.0,-0.30000000000000004,0.1,9.200000000000001,2.2,-11.8,-3.9,-2.5
1698744765706.0,16,0.2,0.0,-0.30000000000000004,0.1,9.200000000000001,2.2,-11.1,-3.2,-1.4
1698744765723.0,16,0.2,-0.1,-0.2,0.2,9.1,2.4000000000000004,-9.700000000000001,-1.9,0.1
1698744765739.0,16,0.1,0.0,-0.2,0.1,9.200000000000001,2.4000000000000004,-9.9,-0.8,1.6
1698744765756.0,16,0.1,0.0,-0.2,0.0,9.200000000000001,2.4000000000000004,-11.4,0.0,2.8
1698744765772.0,16,0.0,0.0,-0.2,0.0,9.200000000000001,2.4000000000000004,-11.6,0.1,3.3000000000000003
1698744765790.0,16,-0.2,0.0,-0.30000000000000004,-0.2,9.200000000000001,2.4000000000000004,-10.8,-1.3,4.5
1698744765807.0,16,-0.2,0.0,-0.30000000000000004,-0.2,9.200000000000001,2.4000000000000004,-10.3,-2.8,5.1
1698744765822.0,16,-0.2,-0.1,-0.2,-0.2,9.0,2.5,-9.700000000000001,-5.6,5.4
1698744765839.0,16,0.0,-0.2,-0.2,0.1,9.0,2.5,-7.2,-6.5,5.300000000000001
1698744765856.0,16,0.1,-0.2,-0.2,0.2,8.9,2.6,-5.6,-6.4,5.1
1698744765873.0,16,0.2,-0.2,-0.30000000000000004,0.30000000000000004,9.0,2.5,-1.8,-5.2,5.1
1698744765889.0,16,0.2,-0.1,0.1,0.30000000000000004,9.0,2.9000000000000004,0.7,-4.1000000000000005,5.2
1698744765906.0,16,0.0,0.1,0.5,0.1,9.200000000000001,3.2,0.30000000000000004,-5.0,4.300000000000001
1698744765923.0,16,-0.2,0.2,0.5,-0.1,9.4,3.3000000000000003,-3.8,-5.300000000000001,3.7000000000000006
1698744765939.0,16,-0.30000000000000004,0.2,0.30000000000000004,-0.2,9.3,3.1,-11.1,-4.1000000000000005,2.0
1698744765955.0,16,0.2,0.0,0.30000000000000004,0.30000000000000004,9.1,3.1,-10.8,-3.6,0.8
1698744765972.0,16,0.4,0.0,0.30000000000000004,0.5,9.1,3.2,-10.1,-3.3000000000000003,0.7
1698744765990.0,16,0.5,0.0,0.4,0.7000000000000001,9.1,3.3000000000000003,-12.3,-0.7,1.7
1698744766006.0,16,0.5,0.0,0.30000000000000004,0.5,9.1,3.1,-14.500000000000002,1.7,2.5
1698744766022.0,16,0.1,0.1,0.1,0.30000000000000004,9.200000000000001,3.1,-17.5,4.0,3.2
1698744766039.0,16,-0.1,-0.1,0.0,0.0,9.0,3.0,-16.1,4.7,1.5000000000000002
1698744766056.0,16,-0.1,-0.2,0.0,0.1,8.8,3.1,-14.500000000000002,4.1000000000000005,-0.4
1698744766072.0,16,0.0,-0.2,-0.1,0.2,8.9,3.0,-15.000000000000002,4.2,-1.0999999999999999
1698744766090.0,16,0.1,-0.1,-0.1,0.2,8.9,3.0,-14.900000000000002,4.3999999999999995,-1.0999999999999999
1698744766107.0,16,0.2,-0.2,-0.30000000000000004,0.30000000000000004,8.8,2.9000000000000004,-12.3,3.9,-0.8
1698744766123.0,16,0.2,-0.2,-0.30000000000000004,0.30000000000000004,8.8,2.9000000000000004,-8.9,4.2,-1.0
1698744766139.0,16,0.2,-0.2,-0.2,0.30000000000000004,8.700000000000001,3.0,-7.6,4.5,-0.9
1698744766156.0,16,0.1,-0.1,-0.2,0.2,8.8,3.0,-5.300000000000001,5.300000000000001,-0.7
1698744766173.0,16,0.0,0.0,-0.2,0.1,8.9,3.1,-3.4,5.500000000000001,-0.2
1698744766189.0,16,0.0,0.0,-0.1,0.1,8.9,3.1,-2.6,5.500000000000001,0.0
1698744766206.0,16,-0.1,0.0,0.0,0.0,9.0,3.2,-1.6,5.7,-0.2
1698744766222.0,16,-0.1,0.0,0.0,0.0,8.9,3.3000000000000003,-1.5000000000000002,6.1000000000000005,-1.0
1698744766240.0,16,0.0,0.0,0.0,0.0,9.0,3.3000000000000003,-1.7,6.3,-1.2000000000000002
1698744766256.0,16,-0.1,0.0,0.1,0.0,8.9,3.3000000000000003,-2.3000000000000003,6.4,-1.5000000000000002
1698744766273.0,16,-0.1,0.0,0.1,0.0,9.0,3.4000000000000004,-2.7,6.000000000000001,-1.4
1698744766290.0,16,-0.1,0.0,0.2,0.0,8.9,3.4000000000000004,-3.6,5.2,-1.2000000000000002
1698744766306.0,16,0.0,-0.1,0.2,0.1,8.8,3.5,-4.7,4.300000000000001,-1.2000000000000002
1698744766322.0,16,0.0,-0.2,0.2,0.1,8.8,3.5,-4.800000000000001,4.2,-1.3
1698744766339.0,16,-0.1,-0.1,0.1,0.0,8.8,3.5,-5.0,4.1000000000000005,-1.0
1698744766356.0,16,0.0,-0.1,0.1,0.0,8.8,3.5,-5.8,3.2,-1.4
1698744766372.0,16,0.0,-0.1,0.1,0.0,8.8,3.5,-5.9,3.3000000000000003,-1.5000000000000002
1698744766389.0,16,0.1,-0.1,0.1,0.1,8.8,3.5,-5.1,3.1,-1.5000000000000002
1698744766405.0,16,0.0,-0.1,0.1,0.0,8.8,3.5,-5.0,2.9,-1.0
1698744766422.0,16,0.0,-0.1,0.1,0.0,8.8,3.5,-5.1,2.6,-0.5
1698744766439.0,16,0.0,0.0,0.1,0.0,8.8,3.5,-5.300000000000001,2.3000000000000003,0.0
1698744766456.0,16,0.0,0.1,0.0,0.0,9.0,3.5,-5.4,2.1999999999999997,0.30000000000000004
1698744766473.0,16,0.0,0.2,-0.1,0.0,9.1,3.4000000000000004,-5.6,2.3000000000000003,0.5
1698744766489.0,16,-0.1,0.2,0.0,-0.1,9.1,3.5,-6.1000000000000005,1.9,0.8
1698744766506.0,16,-0.1,0.1,0.0,-0.1,8.9,3.5,-6.3,1.4,1.4
1698744766524.0,16,-0.1,0.0,0.0,-0.1,8.9,3.5,-6.7,1.5000000000000002,1.7
1698744766539.0,16,-0.2,0.0,0.0,-0.2,8.8,3.5,-7.2,1.5000000000000002,2.1999999999999997
1698744766555.0,16,-0.2,0.1,-0.1,-0.2,8.9,3.5,-6.9,0.9,2.1999999999999997
1698744766572.0,16,-0.1,0.2,-0.1,-0.2,9.0,3.5,-7.400000000000001,0.0,1.6
1698744766589.0,16,-0.1,0.2,-0.1,-0.1,9.0,3.5,-7.8,-0.5,1.2000000000000002
1698744766606.0,16,0.0,0.1,-0.1,-0.1,9.0,3.5,-8.600000000000001,-1.0,1.0999999999999999
1698744766623.0,16,0.0,0.1,0.0,0.0,9.0,3.6,-8.9,-1.4,1.0999999999999999
1698744766639.0,16,0.0,0.1,-0.1,0.0,8.9,3.6,-8.799999999999999,-1.6,1.0999999999999999
1698744766655.0,16,0.1,0.1,-0.1,0.0,9.0,3.6,-9.8,-1.5000000000000002,1.0999999999999999
1698744766672.0,16,0.1,0.0,0.0,0.1,8.8,3.7,-9.4,-1.3,1.0
1698744766689.0,16,0.1,0.0,-0.1,0.1,8.8,3.6,-9.200000000000001,-1.3,1.0
1698744766705.0,16,0.2,-0.1,0.0,0.2,8.700000000000001,3.7,-8.4,-0.6000000000000001,1.2000000000000002
1698744766722.0,16,0.2,-0.1,-0.1,0.2,8.6,3.7,-6.7,0.1,1.7
1698744766739.0,16,0.1,-0.2,0.0,0.2,8.6,3.7,-6.2,0.1,1.8
1698744766756.0,16,0.0,-0.1,-0.1,0.1,8.700000000000001,3.7,-6.000000000000001,0.0,2.1999999999999997
1698744766773.0,16,0.0,0.0,-0.1,0.0,8.8,3.8000000000000003,-6.3,-0.5,2.3000000000000003
1698744766789.0,16,0.0,0.0,0.1,0.0,8.8,3.9000000000000004,-5.500000000000001,-0.4,2.0
1698744766807.0,16,-0.1,-0.1,0.1,0.0,8.700000000000001,3.9000000000000004,-4.5,-1.2000000000000002,2.0
1698744766822.0,16,-0.1,-0.1,0.1,-0.1,8.6,4.0,-4.2,-1.4,2.5
1698744766839.0,16,-0.1,-0.2,0.2,0.0,8.5,4.0,-4.6000000000000005,-2.1,2.4000000000000004
1698744766856.0,16,0.0,-0.30000000000000004,0.1,0.1,8.5,4.0,-5.1,-3.0000000000000004,1.8
1698744766872.0,16,0.0,-0.2,0.2,0.1,8.5,4.1000000000000005,-4.9,-3.3000000000000003,1.3
1698744766890.0,16,0.1,-0.1,0.1,0.1,8.6,4.1000000000000005,-3.9,-3.9,0.1
1698744766905.0,16,0.1,-0.1,0.2,0.1,8.6,4.1000000000000005,-3.6,-4.5,-0.9
1698744766923.0,16,0.0,-0.2,0.2,0.1,8.5,4.2,-3.8,-5.300000000000001,-1.8
1698744766939.0,16,0.0,-0.2,0.2,0.1,8.5,4.2,-3.6,-5.7,-2.1
1698744766956.0,16,0.0,-0.30000000000000004,0.2,0.0,8.3,4.2,-2.5,-6.7,-2.7
1698744766975.0,16,0.1,-0.30000000000000004,0.1,0.2,8.4,4.1000000000000005,-1.2000000000000002,-7.400000000000001,-2.6
1698744766989.0,16,0.1,-0.2,0.1,0.2,8.4,4.1000000000000005,-1.0,-7.400000000000001,-2.7
1698744767008.0,16,0.2,-0.2,0.1,0.30000000000000004,8.4,4.1000000000000005,-0.4,-5.7,-2.4000000000000004
1698744767022.0,16,0.1,-0.1,0.1,0.2,8.5,4.1000000000000005,-0.30000000000000004,-5.300000000000001,-2.4000000000000004
1698744767039.0,16,0.1,-0.1,0.1,0.2,8.5,4.1000000000000005,-0.8,-3.9,-2.4000000000000004
1698744767055.0,16,0.0,-0.1,0.1,0.2,8.5,4.1000000000000005,-0.8,-3.0000000000000004,-2.7
1698744767072.0,16,0.0,-0.1,0.0,0.1,8.4,4.1000000000000005,-0.30000000000000004,-2.6,-2.1999999999999997
1698744767091.0,16,-0.1,0.1,-0.1,0.0,8.700000000000001,3.9000000000000004,0.0,-2.1999999999999997,-1.6
1698744767106.0,16,-0.1,0.1,0.0,0.1,8.700000000000001,4.0,-0.1,-1.7,0.7
1698744767122.0,16,0.0,0.0,0.0,0.1,8.6,4.0,1.0,-0.6000000000000001,1.0999999999999999
1698744767139.0,16,0.0,0.0,0.0,0.2,8.6,4.0,1.8,-0.2,1.7
1698744767156.0,16,0.1,0.1,-0.2,0.2,8.700000000000001,3.8000000000000003,3.6,0.6000000000000001,2.8
1698744767172.0,16,0.1,0.1,-0.2,0.30000000000000004,8.700000000000001,3.8000000000000003,4.0,0.9,2.3000000000000003
1698744767189.0,16,0.1,0.1,-0.1,0.2,8.700000000000001,3.9000000000000004,3.6,1.6,1.2000000000000002
1698744767206.0,16,0.0,0.1,-0.1,0.2,8.700000000000001,3.9000000000000004,3.3000000000000003,2.4000000000000004,0.8
1698744767222.0,16,0.0,0.1,-0.1,0.1,8.700000000000001,3.8000000000000003,2.5,3.4,0.2
1698744767239.0,16,0.0,0.1,-0.1,0.1,8.8,3.9000000000000004,1.9,3.3000000000000003,0.1
1698744767256.0,16,0.0,0.1,0.0,0.1,8.700000000000001,3.9000000000000004,2.0,3.0000000000000004,-0.2
1698744767272.0,16,0.0,0.0,0.0,0.2,8.700000000000001,3.9000000000000004,2.8,2.6,-0.30000000000000004
1698744767290.0,16,0.1,0.0,0.0,0.2,8.700000000000001,3.9000000000000004,3.5,2.1,-0.5
1698744767307.0,16,0.1,0.0,0.0,0.2,8.700000000000001,3.9000000000000004,3.5,2.3000000000000003,-0.7
1698744767322.0,16,0.0,0.1,-0.1,0.2,8.700000000000001,3.8000000000000003,3.4,2.1,-0.5
1698744767339.0,16,0.0,0.30000000000000004,-0.1,0.1,8.9,3.8000000000000003,1.9,2.1999999999999997,0.0
1698744767355.0,16,0.0,0.30000000000000004,-0.1,0.1,9.0,3.8000000000000003,1.0999999999999999,2.4000000000000004,0.2
1698744767372.0,16,0.0,0.30000000000000004,0.0,0.1,9.0,3.8000000000000003,-0.8,2.9,0.4
1698744767389.0,16,0.0,0.2,0.0,0.1,8.9,3.9000000000000004,-3.2,3.1,0.4
1698744767405.0,16,0.0,0.1,0.0,0.1,8.8,3.9000000000000004,-3.8,2.9,0.4
1698744767422.0,16,-0.1,0.0,-0.1,0.0,8.700000000000001,3.7,-3.8,3.0000000000000004,0.7
1698744767439.0,16,-0.1,0.0,-0.2,0.0,8.700000000000001,3.7,-2.5,2.0,0.9
1698744767455.0,16,0.0,0.6000000000000001,-0.5,0.1,9.3,3.4000000000000004,0.9,-1.3,0.2
1698744767472.0,16,-0.1,0.1,-0.6000000000000001,0.0,8.8,3.2,15.9,-9.1,-0.6000000000000001
1698744767489.0,16,0.0,0.2,0.4,0.1,9.0,4.2,17.1,-1.3,-0.2
1698744767506.0,16,0.0,0.2,-0.2,0.1,9.200000000000001,3.8000000000000003,4.6000000000000005,-4.5,-1.4
1698744767523.0,16,0.0,0.1,-0.1,0.1,8.9,3.7,-7.6,0.6000000000000001,-0.9
1698744767539.0,16,0.0,0.0,0.0,0.1,8.8,3.9000000000000004,-14.200000000000001,2.3000000000000003,-0.8
1698744767555.0,16,0.0,0.0,0.0,0.1,8.700000000000001,3.9000000000000004,-15.000000000000002,2.7,-1.4
1698744767572.0,16,0.0,0.0,0.0,0.0,8.700000000000001,3.9000000000000004,-13.0,1.4,-2.1
1698744767589.0,16,0.0,0.1,-0.1,0.1,8.8,3.8000000000000003,-4.6000000000000005,-1.0,-2.5
1698744767606.0,16,0.1,0.0,-0.1,0.1,8.700000000000001,3.9000000000000004,-1.9,-1.7,-2.1999999999999997
1698744767622.0,16,0.0,0.1,0.0,0.1,8.8,3.9000000000000004,2.3000000000000003,-2.1,-0.8
1698744767639.0,16,-0.1,0.1,-0.1,0.0,8.8,3.9000000000000004,2.7,-3.3000000000000003,-2.1
1698744767655.0,16,-0.1,0.1,0.0,0.0,8.700000000000001,4.0,2.7,-3.6,-2.1999999999999997
1698744767672.0,16,0.0,-0.1,0.1,0.1,8.6,4.0,-1.0,-2.4000000000000004,-1.4
1698744767689.0,16,0.0,0.0,-0.1,0.1,8.700000000000001,3.8000000000000003,-2.4000000000000004,-2.5,-2.4000000000000004
1698744767707.0,16,0.1,-0.1,0.0,0.1,8.6,3.9000000000000004,3.8,-3.3000000000000003,-2.1999999999999997
1698744767723.0,16,0.0,-0.2,0.1,0.1,8.5,4.0,4.3999999999999995,-2.5,-1.3
1698744767739.0,16,0.0,0.0,0.0,0.1,8.700000000000001,3.9000000000000004,-2.4000000000000004,-0.7,-0.5
1698744767756.0,16,0.0,-0.1,0.0,0.1,8.6,3.9000000000000004,-4.800000000000001,0.30000000000000004,0.1
1698744767773.0,16,0.0,-0.1,0.0,0.1,8.6,4.0,-7.6,1.6,0.9
1698744767789.0,16,0.0,-0.1,0.0,0.0,8.6,4.0,-9.3,2.7,1.0999999999999999
1698744767807.0,16,0.0,0.0,0.0,0.1,8.6,4.0,-8.4,2.5,0.8
1698744767822.0,16,0.0,-0.1,0.0,0.1,8.6,3.9000000000000004,-2.3000000000000003,0.30000000000000004,-0.7
1698744767839.0,16,0.0,-0.1,0.0,0.0,8.6,4.0,4.9,-2.1999999999999997,-2.1999999999999997
1698744767856.0,16,0.0,-0.1,0.1,0.0,8.6,4.1000000000000005,5.4,-2.7,-2.5
1698744767874.0,16,0.0,-0.1,0.1,0.1,8.6,4.1000000000000005,2.1999999999999997,-1.7,-2.8
1698744767889.0,16,0.0,0.0,0.0,0.1,8.6,4.0,-0.6000000000000001,-0.4,-3.2
1698744767905.0,16,0.0,0.0,0.0,0.1,8.6,4.0,-1.5000000000000002,0.5,-3.1
1698744767922.0,16,0.1,0.1,0.0,0.1,8.700000000000001,4.0,-0.9,0.5,-1.8
1698744767939.0,16,0.0,0.0,0.0,0.1,8.6,4.0,4.0,0.4,-0.4
1698744767955.0,16,0.0,0.0,0.0,0.0,8.700000000000001,4.0,2.4000000000000004,1.0999999999999999,0.0
1698744767972.0,16,0.0,0.0,0.0,0.0,8.700000000000001,3.9000000000000004,1.3,1.5000000000000002,0.30000000000000004
1698744767988.0,16,0.0,0.0,0.0,0.0,8.700000000000001,3.9000000000000004,1.3,1.2000000000000002,0.30000000000000004
