timestamp,interval,accx,accy,accz,accGx,accGy,accGz,alpha,beta,gamma
1698672747.015,16,-0.1,-0.2,-0.1,1.0,9.200000000000001,0.4,5.7,-0.2,0.7
1698672747.03,16,-0.1,-0.1,0.0,1.0,9.3,0.4,4.7,-2.1999999999999997,1.0999999999999999
1698672747.046,16,-0.2,0.2,0.30000000000000004,0.9,9.600000000000001,0.7000000000000001,5.0,-5.8,0.9
1698672747.063,16,-0.1,0.2,0.1,1.0,9.600000000000001,0.5,6.000000000000001,-4.3999999999999995,-0.9
1698672747.08,16,-0.1,0.1,0.1,1.0,9.5,0.5,5.300000000000001,-4.0,-1.8
1698672747.096,16,0.0,0.0,0.1,1.1,9.4,0.5,2.9,-3.3000000000000003,-2.3000000000000003
1698672747.113,16,0.1,0.0,0.1,1.1,9.4,0.5,2.3000000000000003,-3.2,-2.4000000000000004
1698672747.132,16,0.1,-0.1,0.1,1.2000000000000002,9.200000000000001,0.5,1.3,-0.5,-2.4000000000000004
1698672747.146,16,0.0,0.1,0.1,1.1,9.5,0.4,0.9,0.7,-1.4
1698672747.163,16,0.0,0.2,0.0,1.1,9.600000000000001,0.4,0.9,-0.2,-0.5
1698672747.18,16,0.0,0.4,-0.2,1.1,9.8,0.2,-1.0,-2.3000000000000003,1.8
1698672747.197,16,-0.1,0.5,-0.2,1.0,9.8,0.2,-3.6,-3.2,1.3
1698672747.213,16,-0.1,0.4,-0.1,1.0,9.8,0.2,-5.1,-5.8,-0.6000000000000001
1698672747.23,16,0.0,0.4,-0.2,1.1,9.700000000000001,0.2,-5.8,-5.1,-2.1
1698672747.246,16,0.2,0.0,-0.30000000000000004,1.3,9.4,0.1,-8.5,-1.8,-4.6000000000000005
1698672747.262,16,0.30000000000000004,-0.1,-0.30000000000000004,1.4000000000000001,9.3,0.1,-11.8,0.4,-4.300000000000001
1698672747.279,16,0.30000000000000004,-0.1,-0.4,1.3,9.3,0.1,-13.5,1.5000000000000002,-3.1
1698672747.296,16,0.2,-0.1,-0.30000000000000004,1.3,9.3,0.2,-14.500000000000002,0.1,-1.0999999999999999
1698672747.313,16,0.1,-0.1,-0.30000000000000004,1.2000000000000002,9.3,0.30000000000000004,-13.5,-0.7,-0.4
1698672747.33,16,0.1,-0.1,-0.2,1.1,9.5,0.5,-10.4,0.6000000000000001,0.7
1698672747.346,16,0.0,0.2,0.0,1.1,9.5,0.5,-3.8,0.1,1.0
1698672747.363,16,0.0,0.1,-0.1,1.0,9.4,0.5,3.3000000000000003,2.6,0.4
1698672747.379,16,0.0,0.0,0.0,1.1,9.4,0.6000000000000001,6.6000000000000005,2.8,0.6000000000000001
1698672747.396,16,0.1,0.0,0.2,1.2000000000000002,9.4,0.7000000000000001,13.6,3.4,1.2000000000000002
1698672747.413,16,0.2,0.0,0.2,1.3,9.4,0.7000000000000001,16.3,4.7,1.8
1698672747.43,16,0.2,0.0,0.2,1.3,9.4,0.7000000000000001,19.400000000000002,6.5,2.8
1698672747.446,16,0.0,-0.1,0.1,1.1,9.3,0.5,18.3,7.400000000000001,5.500000000000001
1698672747.463,16,-0.1,0.0,0.1,1.0,9.4,0.4,13.3,4.9,7.2
1698672747.479,16,-0.1,0.1,0.1,1.0,9.5,0.5,10.1,3.5,6.7
1698672747.496,16,-0.1,0.1,0.1,1.0,9.5,0.5,2.6,3.7000000000000006,3.8
1698672747.513,16,-0.1,0.1,0.1,1.0,9.5,0.4,-6.3,6.5,0.1
1698672747.53,16,0.0,0.1,0.0,1.1,9.5,0.30000000000000004,-14.800000000000002,8.1,-0.7
1698672747.546,16,0.0,0.0,-0.1,1.1,9.5,0.30000000000000004,-18.8,8.3,0.1
1698672747.563,16,-0.1,-0.1,-0.2,1.0,9.3,0.30000000000000004,-24.8,5.300000000000001,1.7
1698672747.579,16,-0.1,-0.1,-0.30000000000000004,1.0,9.3,0.30000000000000004,-26.700000000000003,3.8,2.1999999999999997
1698672747.596,16,-0.2,-0.1,-0.30000000000000004,0.9,9.3,0.30000000000000004,-27.400000000000002,1.0,2.5
1698672747.613,16,-0.30000000000000004,-0.2,-0.2,0.8,9.200000000000001,0.5,-23.8,-1.0,0.9
1698672747.63,16,-0.2,-0.2,-0.2,0.9,9.200000000000001,0.5,-20.0,-1.8,-0.2
1698672747.646,16,-0.1,-0.30000000000000004,-0.1,1.0,9.0,0.6000000000000001,-10.2,-3.8,-1.9
1698672747.663,16,0.0,-0.30000000000000004,0.0,1.1,9.0,0.8,0.8,-5.0,-1.8
1698672747.679,16,0.1,-0.30000000000000004,0.1,1.2000000000000002,9.0,0.8,6.4,-5.500000000000001,-1.2000000000000002
1698672747.696,16,0.2,-0.30000000000000004,0.1,1.3,9.1,0.8,16.3,-7.400000000000001,0.2
1698672747.713,16,0.30000000000000004,-0.2,0.30000000000000004,1.4000000000000001,9.200000000000001,1.0,23.5,-7.9,1.5000000000000002
1698672747.73,16,0.30000000000000004,-0.1,0.4,1.4000000000000001,9.3,0.9,27.2,-6.7,2.8
1698672747.746,16,0.30000000000000004,-0.1,0.4,1.4000000000000001,9.3,0.9,27.400000000000002,-5.4,3.0000000000000004
1698672747.764,16,0.2,-0.1,0.4,1.4000000000000001,9.3,0.8,23.400000000000002,-2.1,3.1
1698672747.78,16,0.2,-0.1,0.4,1.4000000000000001,9.3,0.7000000000000001,19.1,-1.2000000000000002,2.9
1698672747.796,16,0.1,0.0,0.4,1.3,9.4,0.7000000000000001,8.4,-0.4,1.4
1698672747.813,16,0.0,0.0,0.30000000000000004,1.1,9.4,0.6000000000000001,-3.5,1.2000000000000002,-0.2
1698672747.829,16,-0.1,0.0,0.1,1.0,9.4,0.5,-14.0,1.7,-1.8
1698672747.846,16,-0.1,0.0,0.1,1.1,9.4,0.5,-18.400000000000002,1.8,-2.6
1698672747.864,16,0.0,0.0,0.0,1.1,9.4,0.5,-23.5,2.1,-3.5
1698672747.879,16,0.0,0.0,-0.1,1.1,9.4,0.5,-24.9,1.8,-3.8
1698672747.896,16,0.0,0.0,-0.2,1.1,9.4,0.5,-24.1,0.9,-3.6
1698672747.912,16,0.0,0.0,-0.2,1.0,9.4,0.5,-20.4,-1.0,-3.4
1698672747.93,16,0.0,0.1,-0.2,1.0,9.4,0.5,-17.599999999999998,-1.8,-3.3000000000000003
1698672747.946,16,0.0,0.0,-0.2,1.0,9.4,0.6000000000000001,-10.600000000000001,-2.7,-3.4
1698672747.964,16,0.0,0.0,-0.1,1.1,9.3,0.6000000000000001,-2.6,-2.5,-2.5
1698672747.98,16,0.1,-0.1,-0.1,1.1,9.3,0.6000000000000001,4.9,-3.3000000000000003,-1.0999999999999999
1698672747.996,16,0.1,0.0,0.0,1.2000000000000002,9.3,0.7000000000000001,7.9,-3.1,-0.2
1698672748.014,16,0.1,-0.1,-0.1,1.2000000000000002,9.3,0.6000000000000001,11.8,-2.8,1.0
1698672748.029,16,0.0,0.0,0.0,1.1,9.4,0.6000000000000001,12.9,-3.2,1.7
1698672748.046,16,0.0,0.1,0.0,1.1,9.5,0.7000000000000001,11.6,-3.1,1.4
1698672748.064,16,0.0,0.1,0.1,1.1,9.5,0.7000000000000001,10.3,-2.7,1.0
1698672748.08,16,0.0,0.1,0.2,1.1,9.4,0.7000000000000001,8.4,-2.4000000000000004,0.6000000000000001
1698672748.096,16,0.1,0.0,0.2,1.2000000000000002,9.3,0.7000000000000001,4.0,-1.9,-0.2
1698672748.113,16,0.1,-0.1,0.2,1.2000000000000002,9.3,0.7000000000000001,-1.4,-0.8,-0.7
1698672748.129,16,0.1,0.0,0.2,1.2000000000000002,9.3,0.7000000000000001,-3.9,-0.5,-1.0
1698672748.146,16,0.0,0.0,0.2,1.1,9.4,0.8,-8.0,-0.8,-1.4
1698672748.163,16,0.0,0.1,0.1,1.1,9.4,0.7000000000000001,-10.3,0.30000000000000004,-1.6
1698672748.179,16,0.0,0.1,0.1,1.1,9.4,0.7000000000000001,-11.3,1.0999999999999999,-1.8
1698672748.197,16,0.0,-0.1,0.0,1.1,9.3,0.7000000000000001,-11.000000000000002,1.0999999999999999,-1.7
1698672748.213,16,0.0,-0.1,0.0,1.1,9.3,0.7000000000000001,-10.4,1.2000000000000002,-1.6
1698672748.229,16,0.0,0.0,0.0,1.1,9.4,0.7000000000000001,-8.600000000000001,1.2000000000000002,-1.0
1698672748.246,16,0.0,0.0,0.0,1.1,9.3,0.7000000000000001,-7.6,1.5000000000000002,-0.7
1698672748.263,16,0.0,0.0,-0.1,1.1,9.3,0.7000000000000001,-4.7,0.6000000000000001,0.2
1698672748.28,16,0.0,0.1,-0.1,1.1,9.4,0.6000000000000001,-3.3000000000000003,-1.5000000000000002,1.0
1698672748.296,16,0.0,0.1,-0.1,1.1,9.5,0.7000000000000001,-2.6,-2.6,1.0999999999999999
1698672748.313,16,-0.1,0.1,0.0,1.0,9.4,0.7000000000000001,-0.4,-1.9,1.6
1698672748.33,16,-0.1,0.0,-0.1,1.0,9.4,0.7000000000000001,0.8,-1.9,2.6
1698672748.346,16,-0.1,0.0,-0.1,1.0,9.4,0.7000000000000001,0.8,-2.7,3.2
1698672748.363,16,0.0,0.0,-0.30000000000000004,1.1,9.4,0.5,-3.0000000000000004,-7.9,2.3000000000000003
1698672748.38,16,0.0,0.1,0.1,1.1,9.4,0.9,-2.9,-8.4,0.7
1698672748.396,16,0.0,0.1,0.1,1.1,9.4,0.9,-2.5,-6.8,-0.6000000000000001
1698672748.415,16,0.1,0.0,-0.1,1.2000000000000002,9.4,0.7000000000000001,-3.1,-4.6000000000000005,-1.3
1698672748.429,16,0.2,-0.1,-0.1,1.3,9.3,0.7000000000000001,-4.0,-2.9,-2.1
1698672748.446,16,0.30000000000000004,-0.1,-0.1,1.4000000000000001,9.200000000000001,0.7000000000000001,-4.6000000000000005,-1.8,-2.3000000000000003
1698672748.463,16,0.5,-0.30000000000000004,0.2,1.6,9.1,1.0,-4.3999999999999995,1.4,-3.4
1698672748.479,16,0.5,-0.1,0.0,1.6,9.1,1.0,-0.30000000000000004,4.0,-0.5
1698672748.496,16,0.4,0.1,-0.1,1.5,9.5,0.7000000000000001,0.7,2.6,1.2000000000000002
1698672748.513,16,0.2,0.30000000000000004,0.1,1.3,9.600000000000001,0.9,3.4,1.5000000000000002,0.7
1698672748.529,16,-0.30000000000000004,0.30000000000000004,0.1,0.8,9.700000000000001,0.9,7.6,4.300000000000001,-1.6
1698672748.546,16,-0.5,0.2,0.30000000000000004,0.6000000000000001,9.600000000000001,1.0,12.700000000000001,-1.0,-2.5
1698672748.563,16,-0.6000000000000001,0.0,0.30000000000000004,0.5,9.4,1.0,15.100000000000001,-4.9,-2.5
1698672748.58,16,-0.4,-0.5,0.4,0.7000000000000001,8.9,1.1,17.200000000000003,-7.6,-2.4000000000000004
1698672748.596,16,-0.2,-0.9,0.7000000000000001,0.8,8.5,1.3,18.2,-7.400000000000001,-3.0000000000000004
1698672748.613,16,-0.30000000000000004,-0.9,0.7000000000000001,0.8,8.5,1.2000000000000002,19.0,-7.6,-2.5
1698672748.629,16,-0.2,-0.6000000000000001,0.5,0.9,8.8,1.1,16.5,-8.1,0.0
1698672748.646,16,-0.2,-0.5,0.6000000000000001,0.8,8.9,1.1,13.9,-8.200000000000001,-0.4
1698672748.664,16,-0.2,-0.4,0.6000000000000001,0.9,9.0,1.1,7.8,-4.800000000000001,-1.2000000000000002
1698672748.681,16,0.0,-0.30000000000000004,0.4,1.0,9.0,0.9,2.1,-2.1999999999999997,-0.4
1698672748.696,16,0.0,-0.4,0.0,1.1,9.0,0.5,-6.1000000000000005,1.7,1.8
1698672748.714,16,0.0,-0.4,-0.2,1.1,9.0,0.30000000000000004,-10.8,2.1,2.0
1698672748.729,16,0.0,-0.1,-0.2,1.1,9.3,0.4,-18.7,1.4,0.5
1698672748.746,16,0.0,0.2,-0.30000000000000004,1.1,9.600000000000001,0.30000000000000004,-21.0,1.5000000000000002,-0.4
1698672748.763,16,0.1,0.4,-0.4,1.2000000000000002,9.700000000000001,0.30000000000000004,-25.0,5.300000000000001,-3.3000000000000003
1698672748.779,16,0.2,0.2,-0.4,1.3,9.600000000000001,0.4,-24.7,8.600000000000001,-7.0
1698672748.796,16,0.5,-0.1,-0.5,1.5,9.3,0.30000000000000004,-22.000000000000004,10.9,-8.200000000000001
1698672748.813,16,0.6000000000000001,-0.1,-0.6000000000000001,1.6,9.200000000000001,0.30000000000000004,-20.4,11.2,-7.2
1698672748.829,16,0.7000000000000001,-0.1,-0.7000000000000001,1.7000000000000002,9.200000000000001,0.2,-19.1,12.4,-4.300000000000001
1698672748.846,16,0.6000000000000001,0.0,-0.5,1.6,9.3,0.5,-17.7,11.6,-2.7
1698672748.863,16,0.2,0.6000000000000001,-0.30000000000000004,1.1,9.9,0.7000000000000001,-7.9,8.3,3.0000000000000004
1698672748.879,16,-0.1,0.7000000000000001,0.0,0.9,10.0,0.9,7.300000000000001,6.8,7.0
1698672748.896,16,-0.1,0.2,0.0,0.9,9.8,1.0,15.8,7.8,6.9
1698672748.913,16,0.0,-0.1,-0.2,1.1,9.3,0.7000000000000001,30.200000000000003,9.8,5.0
1698672748.93,16,0.1,-0.4,0.1,1.1,9.0,0.9,36.9,10.3,4.300000000000001
1698672748.946,16,-0.2,0.0,0.2,0.9,9.4,0.9,42.400000000000006,1.7,8.0
1698672748.963,16,-0.4,0.2,0.4,0.6000000000000001,9.8,1.0,45.1,-5.500000000000001,11.700000000000001
1698672748.979,16,-0.6000000000000001,0.5,0.7000000000000001,0.5,9.9,1.1,46.0,-7.1000000000000005,11.8
1698672748.996,16,-0.5,0.5,0.8,0.6000000000000001,9.9,1.1,46.300000000000004,-8.0,10.0
1698672749.013,16,-0.1,0.2,0.6000000000000001,1.0,9.600000000000001,0.8,39.9,-6.4,2.0
1698672749.029,16,0.0,0.0,0.6000000000000001,1.1,9.3,0.7000000000000001,22.8,-3.0000000000000004,-3.5
1698672749.047,16,-0.1,0.1,0.5,1.1,9.5,0.6000000000000001,1.0999999999999999,-3.9,-4.0
1698672749.064,16,-0.2,0.2,0.4,0.9,9.600000000000001,0.6000000000000001,-18.8,-4.9,-6.3
1698672749.079,16,-0.1,0.1,0.30000000000000004,0.9,9.5,0.5,-26.200000000000003,-5.8,-7.400000000000001
1698672749.096,16,-0.2,-0.1,0.1,0.9,9.3,0.4,-37.7,-7.9,-7.6
1698672749.114,16,-0.2,-0.1,-0.2,0.8,9.3,0.30000000000000004,-43.6,-10.5,-6.6000000000000005
1698672749.13,16,-0.2,-0.1,-0.2,0.8,9.3,0.30000000000000004,-44.8,-11.5,-6.5
1698672749.146,16,-0.30000000000000004,-0.30000000000000004,-0.4,0.7000000000000001,9.1,0.30000000000000004,-43.6,-8.5,-8.200000000000001
1698672749.163,16,-0.2,-0.4,-0.4,0.8,9.0,0.30000000000000004,-42.1,-5.6,-9.8
1698672749.179,16,0.0,-0.4,-0.5,0.9,9.0,0.4,-35.6,-2.5,-13.5
1698672749.196,16,0.2,-0.2,-0.5,1.1,9.200000000000001,0.4,-26.400000000000002,-4.7,-13.4
1698672749.212,16,0.2,0.2,-0.4,1.1,9.5,0.6000000000000001,-15.100000000000001,-7.500000000000001,-7.500000000000001
1698672749.229,16,0.30000000000000004,0.2,-0.4,1.1,9.600000000000001,0.6000000000000001,-8.600000000000001,-8.799999999999999,-3.5
1698672749.246,16,0.1,0.0,-0.6000000000000001,1.0,9.4,0.4,3.6,-11.3,1.2000000000000002
1698672749.265,16,0.0,0.0,-0.5,0.9,9.4,0.5,8.4,-10.9,1.3
1698672749.299,16,0.1,0.30000000000000004,-0.30000000000000004,0.9,9.600000000000001,0.5,27.0,-8.200000000000001,-2.4000000000000004
1698672749.313,16,0.2,0.1,0.0,1.1,9.5,0.7000000000000001,33.7,-10.2,-3.0000000000000004
1698672749.331,16,0.2,0.2,0.1,1.1,9.600000000000001,0.8,37.4,-11.9,-2.0
1698672749.346,16,0.2,0.2,0.30000000000000004,1.0,9.600000000000001,0.8,41.5,-12.3,2.9
1698672749.363,16,0.1,0.2,0.30000000000000004,1.0,9.600000000000001,0.7000000000000001,42.0,-12.100000000000001,5.6
1698672749.38,16,0.1,0.0,0.30000000000000004,0.9,9.3,0.6000000000000001,33.5,-11.1,4.7
1698672749.396,16,-0.1,-0.1,0.4,0.9,9.3,0.6000000000000001,27.3,-8.3,2.4000000000000004
1698672749.413,16,0.0,0.0,0.5,0.9,9.4,0.7000000000000001,20.3,-6.3,0.0
1698672749.43,16,0.1,0.1,0.5,1.1,9.5,0.7000000000000001,5.9,-4.300000000000001,-3.1
1698672749.446,16,0.30000000000000004,0.0,0.4,1.2000000000000002,9.4,0.6000000000000001,-9.700000000000001,-1.6,-3.2
1698672749.462,16,0.1,-0.1,0.1,1.0,9.3,0.4,-23.2,-2.1,-2.3000000000000003
1698672749.48,16,0.0,0.0,0.0,0.9,9.4,0.30000000000000004,-29.300000000000004,-1.3,-2.8
1698672749.496,16,-0.2,0.30000000000000004,-0.1,0.7000000000000001,9.700000000000001,0.30000000000000004,-36.800000000000004,1.5000000000000002,-5.500000000000001
1698672749.514,16,0.0,0.30000000000000004,-0.1,0.9,9.700000000000001,0.5,-37.2,4.800000000000001,-9.4
1698672749.529,16,0.1,0.2,-0.1,1.0,9.700000000000001,0.5,-35.4,7.0,-10.3
1698672749.546,16,0.2,0.1,-0.1,1.0,9.5,0.6000000000000001,-27.900000000000002,6.1000000000000005,-8.799999999999999
1698672749.562,16,0.0,-0.2,-0.2,0.9,9.200000000000001,0.6000000000000001,-17.3,2.8,-3.0000000000000004
1698672749.58,16,-0.2,-0.5,-0.4,0.6000000000000001,8.9,0.5,-7.500000000000001,2.1999999999999997,0.9
1698672749.596,16,-0.2,-0.5,-0.4,0.6000000000000001,8.9,0.4,-4.1000000000000005,2.9,0.9
1698672749.613,16,-0.1,-0.30000000000000004,-0.4,0.7000000000000001,9.1,0.4,1.4,5.2,-2.1
1698672749.629,16,0.0,-0.1,-0.30000000000000004,0.8,9.3,0.5,3.8,7.1000000000000005,-3.4
1698672749.646,16,0.2,0.30000000000000004,-0.1,1.0,9.700000000000001,0.7000000000000001,10.5,9.9,-1.2000000000000002
1698672749.663,16,0.0,0.1,0.1,0.8,9.5,0.9,16.900000000000002,8.600000000000001,4.6000000000000005
1698672749.68,16,-0.1,0.0,0.2,0.7000000000000001,9.4,0.9,20.3,6.2,7.500000000000001
1698672749.696,16,-0.1,-0.5,-0.1,0.8,8.9,0.6000000000000001,22.6,0.9,11.1
1698672749.713,16,-0.2,-0.8,-0.1,0.7000000000000001,8.6,0.5,14.700000000000001,6.2,8.700000000000001
1698672749.729,16,-0.30000000000000004,-0.6000000000000001,0.1,0.6000000000000001,8.8,0.7000000000000001,11.1,6.4,6.2
1698672749.746,16,-0.4,0.2,0.1,0.5,9.600000000000001,0.6000000000000001,4.6000000000000005,5.8,4.2
1698672749.763,16,-0.2,0.30000000000000004,0.2,0.7000000000000001,9.700000000000001,0.7000000000000001,-1.4,6.8,3.8
1698672749.779,16,-0.1,0.30000000000000004,0.2,0.9,9.5,0.7000000000000001,-4.9,5.500000000000001,2.4000000000000004
1698672749.796,16,0.1,0.1,0.0,1.0,9.4,0.6000000000000001,-7.400000000000001,5.0,2.8
1698672749.812,16,0.0,0.0,0.2,1.0,9.4,0.8,-11.9,2.1999999999999997,2.4000000000000004
1698672749.829,16,0.0,0.2,0.0,0.9,9.600000000000001,0.7000000000000001,-13.700000000000001,3.1,3.5
1698672749.846,16,-0.1,0.2,0.0,0.8,9.600000000000001,0.7000000000000001,-13.5,2.6,3.2
1698672749.863,16,-0.1,0.1,0.0,0.9,9.5,0.7000000000000001,-12.4,2.5,1.9
1698672749.879,16,0.1,0.0,-0.1,1.0,9.4,0.7000000000000001,-11.2,2.5,1.0
1698672749.896,16,0.30000000000000004,-0.1,-0.1,1.2000000000000002,9.200000000000001,0.7000000000000001,-8.4,2.9,1.2000000000000002
1698672749.912,16,0.30000000000000004,-0.2,-0.1,1.3,9.200000000000001,0.7000000000000001,-5.8,2.6,3.5
1698672749.929,16,0.30000000000000004,-0.1,-0.1,1.2000000000000002,9.200000000000001,0.7000000000000001,-4.3999999999999995,3.2,4.800000000000001
1698672749.946,16,0.2,-0.1,-0.1,1.2000000000000002,9.3,0.7000000000000001,-2.5,5.300000000000001,5.500000000000001
1698672749.962,16,0.2,0.0,-0.1,1.2000000000000002,9.3,0.7000000000000001,-0.7,7.300000000000001,5.4
1698672749.979,16,0.2,0.0,0.0,1.2000000000000002,9.4,0.8,1.7,9.600000000000001,5.7
1698672749.996,16,0.2,0.0,0.0,1.3,9.4,0.8,3.1,11.1,5.6
1698672750.013,16,0.30000000000000004,0.1,0.0,1.3,9.4,0.8,5.7,14.0,6.4
1698672750.029,16,0.2,0.1,0.0,1.3,9.4,0.8,7.500000000000001,13.8,7.8
1698672750.046,16,0.1,0.0,0.0,1.2000000000000002,9.4,0.8,8.0,13.3,8.9
1698672750.063,16,-0.1,0.0,0.0,1.0,9.3,0.8,7.6,11.700000000000001,10.8
1698672750.079,16,-0.2,0.0,0.0,0.9,9.4,0.7000000000000001,6.000000000000001,10.4,10.9
1698672750.096,16,-0.30000000000000004,0.0,0.0,0.9,9.4,0.7000000000000001,4.800000000000001,10.700000000000001,9.9
1698672750.112,16,-0.30000000000000004,0.1,0.0,0.8,9.4,0.7000000000000001,2.5,11.1,7.500000000000001
1698672750.129,16,-0.4,0.1,-0.1,0.9,9.5,0.6000000000000001,-0.5,11.000000000000002,5.500000000000001
1698672750.146,16,-0.2,0.1,-0.2,1.0,9.5,0.6000000000000001,-2.4000000000000004,9.700000000000001,3.8
1698672750.163,16,0.0,0.2,0.2,1.2000000000000002,9.600000000000001,0.9,-4.6000000000000005,7.300000000000001,0.4
1698672750.179,16,0.1,0.30000000000000004,0.2,1.3,9.600000000000001,1.0,-2.8,9.700000000000001,-0.4
1698672750.196,16,0.1,0.2,0.2,1.3,9.5,1.0,-1.6,10.5,-0.2
1698672750.213,16,0.2,-0.2,0.0,1.4000000000000001,9.200000000000001,0.8,-0.2,10.0,0.9
1698672750.229,16,0.0,-0.30000000000000004,-0.2,1.2000000000000002,9.0,0.6000000000000001,-2.7,8.1,3.4
1698672750.247,16,-0.1,-0.2,-0.1,1.1,9.1,0.7000000000000001,-4.5,5.9,3.9
1698672750.263,16,-0.30000000000000004,0.0,-0.2,0.9,9.4,0.7000000000000001,-7.2,3.5,3.9
1698672750.279,16,-0.2,0.30000000000000004,-0.1,1.0,9.600000000000001,0.7000000000000001,-8.0,2.7,3.8
1698672750.296,16,-0.2,0.2,-0.1,1.0,9.600000000000001,0.8,-7.1000000000000005,3.6,1.5000000000000002
1698672750.312,16,0.0,-0.1,-0.30000000000000004,1.2000000000000002,9.200000000000001,0.6000000000000001,-7.2,7.2,0.4
1698672750.329,16,0.2,-0.2,-0.30000000000000004,1.4000000000000001,9.200000000000001,0.6000000000000001,-8.799999999999999,6.7,1.2000000000000002
1698672750.346,16,0.1,0.2,-0.4,1.3,9.5,0.5,-9.3,3.9,3.7000000000000006
1698672750.363,16,0.0,0.30000000000000004,-0.30000000000000004,1.3,9.600000000000001,0.6000000000000001,-8.3,2.3000000000000003,4.3999999999999995
1698672750.379,16,-0.1,0.2,-0.30000000000000004,1.2000000000000002,9.5,0.7000000000000001,-4.6000000000000005,1.6,2.6
1698672750.396,16,-0.1,0.1,-0.30000000000000004,1.1,9.4,0.7000000000000001,-2.6,0.7,1.0999999999999999
1698672750.412,16,0.0,-0.1,-0.1,1.2000000000000002,9.200000000000001,0.8,1.6,-1.9,-1.5000000000000002
1698672750.43,16,0.0,-0.2,0.0,1.2000000000000002,9.1,1.0,5.8,-2.1,-0.8
1698672750.446,16,-0.1,-0.2,0.1,1.2000000000000002,9.1,1.0,7.400000000000001,-2.4000000000000004,0.6000000000000001
1698672750.463,16,-0.2,0.0,0.2,1.0,9.3,1.1,11.1,-3.4,2.9
1698672750.479,16,-0.2,0.0,0.2,1.1,9.4,1.1,13.0,-2.4000000000000004,3.5
1698672750.496,16,-0.1,0.0,0.30000000000000004,1.1,9.3,1.1,12.200000000000001,-1.9,3.1
1698672750.513,16,0.0,-0.1,0.30000000000000004,1.2000000000000002,9.3,1.1,8.3,-2.5,1.9
1698672750.529,16,0.0,0.1,0.30000000000000004,1.3,9.4,1.1,2.6,-3.8,1.0
1698672750.546,16,0.0,0.2,0.30000000000000004,1.3,9.5,1.1,-0.6000000000000001,-4.7,0.6000000000000001
1698672750.563,16,0.0,0.1,0.30000000000000004,1.3,9.5,1.1,-6.9,-4.6000000000000005,-1.0999999999999999
1698672750.579,16,0.0,-0.2,0.1,1.2000000000000002,9.1,0.9,-13.5,-4.7,-1.8
1698672750.596,16,0.0,0.1,0.0,1.2000000000000002,9.200000000000001,0.9,-17.0,-5.500000000000001,-2.1999999999999997
1698672750.613,16,0.0,0.1,0.1,1.3,9.4,1.0,-21.5,-7.0,-3.1
1698672750.629,16,0.1,0.1,0.1,1.4000000000000001,9.4,1.1,-21.8,-5.7,-4.7
1698672750.646,16,0.30000000000000004,-0.1,-0.1,1.5,9.200000000000001,1.0,-21.200000000000003,-2.6,-6.9
1698672750.662,16,0.2,-0.2,-0.1,1.5,9.1,1.0,-18.900000000000002,-2.4000000000000004,-6.2
1698672750.679,16,0.30000000000000004,0.1,-0.1,1.5,9.4,1.1,-13.8,-1.3,-3.5
1698672750.696,16,0.30000000000000004,0.1,0.0,1.6,9.3,1.1,-10.1,1.0,-2.6
1698672750.713,16,0.30000000000000004,-0.30000000000000004,-0.2,1.5,9.0,1.0,-3.0000000000000004,5.0,-1.8
1698672750.729,16,0.2,-0.5,-0.2,1.4000000000000001,8.8,1.0,0.9,5.300000000000001,-0.30000000000000004
1698672750.746,16,0.0,-0.4,-0.2,1.3,8.9,1.0,2.1999999999999997,4.9,0.9
1698672750.763,16,-0.2,-0.2,-0.1,1.0,9.1,1.1,5.6,3.4,2.0
1698672750.779,16,-0.30000000000000004,-0.1,0.0,0.9,9.200000000000001,1.2000000000000002,8.9,2.4000000000000004,-0.2
1698672750.796,16,-0.30000000000000004,-0.1,0.0,0.9,9.200000000000001,1.1,9.8,2.9,-2.0
1698672750.812,16,-0.1,-0.1,0.1,1.1,9.200000000000001,1.2000000000000002,9.1,2.6,-4.5
1698672750.829,16,0.1,0.0,0.1,1.3,9.3,1.2000000000000002,7.2,1.3,-3.0000000000000004
1698672750.846,16,0.1,0.0,0.30000000000000004,1.3,9.3,1.3,3.7000000000000006,0.6000000000000001,-1.3
1698672750.863,16,0.0,0.0,0.30000000000000004,1.2000000000000002,9.3,1.4000000000000001,2.3000000000000003,1.0999999999999999,-0.9
1698672750.879,16,-0.1,0.1,0.30000000000000004,1.1,9.4,1.4000000000000001,-0.1,1.5000000000000002,-0.8
1698672750.896,16,-0.1,0.1,0.30000000000000004,1.2000000000000002,9.4,1.4000000000000001,-1.4,1.8,-1.7
1698672750.912,16,0.0,0.1,0.2,1.2000000000000002,9.4,1.3,-2.4000000000000004,2.5,-1.7
1698672750.929,16,0.0,-0.1,0.0,1.2000000000000002,9.200000000000001,1.2000000000000002,-6.5,3.1,-1.0
1698672750.946,16,0.0,-0.2,0.0,1.2000000000000002,9.200000000000001,1.1,-10.9,2.0,-0.5
1698672750.962,16,0.0,-0.1,0.0,1.1,9.200000000000001,1.1,-12.100000000000001,1.5000000000000002,-0.5
1698672750.979,16,0.0,0.0,-0.1,1.1,9.200000000000001,1.1,-12.8,0.8,-0.5
1698672750.996,16,-0.1,0.0,-0.1,1.1,9.3,1.1,-10.700000000000001,1.8,-0.30000000000000004
1698672751.013,16,-0.1,0.0,-0.2,1.1,9.3,1.1,-9.4,2.5,0.2
1698672751.029,16,-0.1,0.1,-0.2,1.0,9.4,1.0,-6.5,1.7,1.3
1698672751.046,16,-0.2,0.1,-0.2,1.0,9.4,1.0,-2.7,0.6000000000000001,1.5000000000000002
1698672751.062,16,-0.2,0.1,-0.2,0.9,9.4,1.0,0.2,-0.5,1.0
1698672751.079,16,-0.1,0.1,-0.2,1.0,9.4,1.0,0.9,-0.7,0.7
1698672751.096,16,0.1,0.30000000000000004,0.0,1.2000000000000002,9.600000000000001,1.2000000000000002,3.0000000000000004,-3.3000000000000003,0.9
1698672751.113,16,0.1,0.4,0.2,1.2000000000000002,9.700000000000001,1.5,7.500000000000001,-2.4000000000000004,3.3000000000000003
1698672751.13,16,0.1,0.2,0.2,1.2000000000000002,9.600000000000001,1.4000000000000001,9.600000000000001,-0.6000000000000001,4.300000000000001
1698672751.146,16,0.0,-0.30000000000000004,0.1,1.2000000000000002,9.200000000000001,1.4000000000000001,10.700000000000001,2.0,5.2
1698672751.163,16,-0.1,-0.5,0.1,1.1,8.8,1.2000000000000002,8.9,6.000000000000001,5.8
1698672751.179,16,-0.1,-0.4,0.1,1.1,8.9,1.3,4.800000000000001,4.800000000000001,5.500000000000001
1698672751.196,16,-0.1,-0.30000000000000004,0.2,1.1,9.1,1.3,2.8,5.0,4.5
1698672751.215,16,-0.1,-0.2,0.1,1.1,9.1,1.2000000000000002,-0.2,5.9,0.9
1698672751.229,16,0.2,-0.1,0.1,1.4000000000000001,9.200000000000001,1.3,-2.7,4.300000000000001,-3.0000000000000004
1698672751.246,16,0.30000000000000004,-0.1,0.0,1.4000000000000001,9.200000000000001,1.1,-4.2,4.7,-3.6
1698672751.262,16,0.2,0.0,0.1,1.4000000000000001,9.3,1.2000000000000002,-5.0,2.0,-2.6
1698672751.279,16,0.1,0.1,0.2,1.3,9.4,1.4000000000000001,-3.3000000000000003,-1.9,0.1
1698672751.296,16,0.2,-0.2,0.1,1.3,9.1,1.3,-2.8,-3.6,0.1
1698672751.312,16,0.2,-0.2,0.30000000000000004,1.4000000000000001,9.1,1.5,-2.8,-3.8,-0.2
1698672751.332,16,0.2,-0.1,0.4,1.4000000000000001,9.200000000000001,1.6,-0.5,-0.7,-0.4
1698672751.346,16,0.1,-0.1,0.30000000000000004,1.3,9.200000000000001,1.5,2.0,5.500000000000001,-1.0999999999999999
1698672751.363,16,0.1,-0.30000000000000004,0.0,1.3,9.1,1.3,2.0,6.6000000000000005,-1.5000000000000002
1698672751.379,16,0.1,-0.30000000000000004,0.0,1.2000000000000002,9.0,1.2000000000000002,-0.1,5.9,-1.0
1698672751.396,16,-0.1,-0.2,-0.2,1.1,9.1,1.1,-3.8,2.0,2.1
1698672751.412,16,-0.1,0.0,-0.2,1.0,9.3,1.0,-5.6,0.1,3.3000000000000003
1698672751.429,16,-0.30000000000000004,0.1,-0.1,0.9,9.4,1.2000000000000002,-6.8,-4.3999999999999995,2.9
1698672751.446,16,-0.30000000000000004,0.2,0.0,0.9,9.5,1.2000000000000002,-4.1000000000000005,-2.9,0.2
1698672751.463,16,-0.30000000000000004,0.1,-0.1,0.9,9.4,1.2000000000000002,-2.4000000000000004,-1.5000000000000002,-1.6
1698672751.479,16,-0.1,0.0,-0.1,1.1,9.3,1.2000000000000002,0.30000000000000004,-1.5000000000000002,-2.1
1698672751.496,16,0.1,-0.1,0.0,1.2000000000000002,9.200000000000001,1.2000000000000002,2.3000000000000003,-1.8,0.0
1698672751.513,16,0.0,-0.1,0.0,1.2000000000000002,9.200000000000001,1.3,4.7,-1.6,1.5000000000000002
1698672751.53,16,0.0,-0.1,0.0,1.2000000000000002,9.200000000000001,1.3,5.6,-1.5000000000000002,1.9
1698672751.546,16,-0.1,-0.1,0.1,1.1,9.200000000000001,1.3,6.7,-2.6,1.5000000000000002
1698672751.563,16,-0.1,-0.1,0.1,1.1,9.200000000000001,1.3,6.9,-3.2,0.2
1698672751.579,16,0.0,-0.1,0.2,1.2000000000000002,9.200000000000001,1.3,6.7,-2.9,-0.30000000000000004
1698672751.596,16,0.1,-0.1,0.1,1.3,9.200000000000001,1.3,4.800000000000001,-2.1999999999999997,-0.2
1698672751.613,16,0.1,0.0,0.1,1.3,9.3,1.3,2.4000000000000004,-2.1,0.5
1698672751.629,16,0.1,0.0,0.1,1.3,9.3,1.3,0.1,-1.0999999999999999,1.0999999999999999
1698672751.646,16,0.1,0.1,0.1,1.3,9.4,1.3,-0.5,-0.5,1.0999999999999999
1698672751.663,16,0.1,0.0,0.1,1.3,9.3,1.3,-1.0999999999999999,0.2,0.8
1698672751.681,16,0.1,0.0,0.0,1.3,9.3,1.2000000000000002,-1.9,1.2000000000000002,0.2
1698672751.696,16,0.0,0.0,0.0,1.3,9.3,1.2000000000000002,-2.4000000000000004,1.5000000000000002,-0.1
1698672751.712,16,0.0,-0.1,0.0,1.3,9.200000000000001,1.2000000000000002,-2.1999999999999997,1.0,-0.2
1698672751.73,16,0.0,0.0,0.0,1.3,9.3,1.2000000000000002,-2.0,1.0999999999999999,-0.2
1698672751.746,16,0.0,0.0,0.0,1.3,9.3,1.2000000000000002,-1.5000000000000002,1.3,-0.30000000000000004
1698672751.763,16,0.0,0.0,0.0,1.3,9.3,1.2000000000000002,0.1,1.7,-0.1
1698672751.779,16,0.0,0.0,-0.1,1.2000000000000002,9.3,1.1,1.0,1.3,0.4
1698672751.796,16,0.0,0.0,0.0,1.2000000000000002,9.3,1.2000000000000002,1.7,0.8,0.1
1698672751.813,16,0.0,0.0,0.0,1.2000000000000002,9.3,1.2000000000000002,2.1,0.9,0.1
1698672751.829,16,0.0,0.0,0.0,1.2000000000000002,9.200000000000001,1.2000000000000002,2.7,0.6000000000000001,0.1
1698672751.846,16,0.0,0.0,0.0,1.2000000000000002,9.3,1.2000000000000002,2.6,0.30000000000000004,0.1
1698672751.863,16,-0.1,0.0,0.0,1.2000000000000002,9.3,1.2000000000000002,2.5,-0.2,0.0
1698672751.879,16,-0.1,0.0,0.0,1.2000000000000002,9.3,1.2000000000000002,2.1999999999999997,-0.5,0.1
1698672751.896,16,-0.1,0.0,0.1,1.2000000000000002,9.3,1.2000000000000002,1.7,-0.8,-0.2
1698672751.912,16,0.0,0.0,0.1,1.2000000000000002,9.3,1.2000000000000002,1.5000000000000002,-0.7,-0.30000000000000004
1698672751.929,16,0.0,0.0,0.1,1.2000000000000002,9.3,1.2000000000000002,1.2000000000000002,-0.7,-0.4
1698672751.946,16,0.0,0.0,0.0,1.2000000000000002,9.3,1.2000000000000002,0.7,-0.6000000000000001,-0.4
1698672751.962,16,0.0,0.0,0.0,1.2000000000000002,9.3,1.2000000000000002,0.0,-0.7,-0.30000000000000004
1698672751.979,16,0.0,0.0,0.0,1.2000000000000002,9.3,1.2000000000000002,-0.1,-0.9,-0.4
1698672751.996,16,0.0,0.0,0.0,1.2000000000000002,9.3,1.2000000000000002,-0.2,-0.8,-0.30000000000000004
1698672752.013,16,0.0,0.0,0.0,1.2000000000000002,9.3,1.2000000000000002,-0.2,-0.30000000000000004,-0.2
1698672752.029,16,0.0,0.0,-0.1,1.2000000000000002,9.3,1.1,-0.2,-0.30000000000000004,0.0
1698672752.046,16,0.0,0.0,-0.1,1.2000000000000002,9.3,1.1,0.0,-0.7,-0.1
1698672752.062,16,0.1,0.1,0.0,1.3,9.4,1.1,0.5,-0.5,-0.5
1698672752.079,16,0.1,0.1,0.0,1.3,9.4,1.1,0.5,0.30000000000000004,-0.4
1698672752.096,16,0.0,0.1,-0.1,1.2000000000000002,9.4,1.1,0.6000000000000001,1.7,0.2
1698672752.113,16,0.0,0.0,0.0,1.2000000000000002,9.3,1.1,0.6000000000000001,0.30000000000000004,0.0
1698672752.132,16,0.0,0.0,0.0,1.3,9.3,1.2000000000000002,0.9,0.6000000000000001,-1.4
1698672752.146,16,0.0,-0.2,0.0,1.2000000000000002,9.200000000000001,1.1,1.0999999999999999,0.9,-0.4
1698672752.163,16,0.0,-0.2,0.0,1.3,9.1,1.1,1.0999999999999999,0.4,0.1
1698672752.18,16,0.0,-0.2,0.1,1.2000000000000002,9.0,1.2000000000000002,1.5000000000000002,-0.2,-0.1
1698672752.196,16,0.0,-0.1,0.0,1.3,9.200000000000001,1.2000000000000002,1.7,0.0,-0.2
1698672752.213,16,0.0,0.0,0.1,1.2000000000000002,9.3,1.2000000000000002,1.8,0.30000000000000004,0.1
1698672752.229,16,0.0,0.1,0.0,1.2000000000000002,9.4,1.2000000000000002,2.0,0.4,0.6000000000000001
1698672752.246,16,0.0,0.1,0.0,1.2000000000000002,9.4,1.2000000000000002,1.8,0.6000000000000001,0.30000000000000004
1698672752.262,16,-0.1,0.0,0.0,1.2000000000000002,9.3,1.1,1.0999999999999999,0.9,-0.1
1698672752.279,16,0.0,0.0,0.0,1.2000000000000002,9.3,1.1,0.4,0.8,0.1
1698672752.296,16,-0.1,0.0,0.0,1.2000000000000002,9.3,1.1,-0.7,-0.4,0.1
1698672752.313,16,0.0,-0.1,0.0,1.2000000000000002,9.200000000000001,1.1,-1.3,-0.9,-0.7
1698672752.329,16,0.1,0.0,0.0,1.3,9.3,1.1,-1.6,-1.0999999999999999,-0.7
1698672752.346,16,0.1,0.0,0.0,1.3,9.3,1.1,-1.4,-0.9,-0.6000000000000001
1698672752.362,16,0.1,0.0,0.0,1.3,9.3,1.1,-0.7,-0.30000000000000004,-0.4
1698672752.379,16,0.0,0.0,0.0,1.2000000000000002,9.3,1.1,0.2,-0.7,-0.4
1698672752.396,16,0.0,0.0,0.0,1.2000000000000002,9.3,1.1,1.4,-0.8,-0.2
1698672752.413,16,0.0,0.0,0.0,1.3,9.3,1.1,2.0,-1.0,-0.1
1698672752.429,16,0.0,0.0,0.1,1.2000000000000002,9.3,1.2000000000000002,2.8,-1.3,-0.1
1698672752.446,16,0.0,0.0,0.1,1.2000000000000002,9.3,1.2000000000000002,3.1,-0.7,-0.1
1698672752.462,16,0.0,0.0,0.0,1.2000000000000002,9.3,1.2000000000000002,3.0000000000000004,0.1,0.4
1698672752.479,16,0.0,0.0,0.0,1.2000000000000002,9.3,1.1,2.1999999999999997,0.6000000000000001,0.1
1698672752.496,16,0.0,0.0,0.0,1.2000000000000002,9.3,1.1,1.2000000000000002,0.7,0.2
1698672752.513,16,0.0,0.0,0.0,1.2000000000000002,9.3,1.1,-0.30000000000000004,0.8,0.7
1698672752.529,16,-0.1,0.1,0.0,1.2000000000000002,9.4,1.1,-1.6,0.5,0.7
1698672752.546,16,-0.1,0.0,0.0,1.2000000000000002,9.3,1.1,-1.9,0.2,0.4
1698672752.563,16,-0.1,0.0,0.0,1.1,9.3,1.1,-1.9,0.0,-0.30000000000000004
1698672752.579,16,0.0,0.0,0.0,1.2000000000000002,9.3,1.1,-1.4,-0.5,-0.2
1698672752.596,16,0.0,0.0,0.0,1.2000000000000002,9.3,1.1,-1.0,-0.7,0.0
1698672752.613,16,0.0,0.0,0.0,1.2000000000000002,9.3,1.1,-0.1,-1.0,0.2
1698672752.629,16,0.0,0.0,0.0,1.2000000000000002,9.3,1.1,0.9,-0.5,0.4
1698672752.646,16,0.0,0.0,0.0,1.2000000000000002,9.3,1.1,1.4,-0.4,0.4
1698672752.663,16,0.0,0.0,0.0,1.2000000000000002,9.3,1.1,1.7,0.0,0.1
1698672752.679,16,0.1,0.0,0.0,1.3,9.3,1.1,1.0999999999999999,0.30000000000000004,0.30000000000000004
1698672752.696,16,0.0,0.0,0.0,1.3,9.3,1.1,0.6000000000000001,0.30000000000000004,0.2
1698672752.713,16,0.0,0.0,0.0,1.2000000000000002,9.3,1.1,-0.2,0.1,0.2
1698672752.729,16,0.0,0.0,0.0,1.2000000000000002,9.3,1.1,-0.7,0.1,-0.2
1698672752.746,16,0.0,0.0,0.0,1.3,9.3,1.1,-0.8,0.30000000000000004,-0.4
1698672752.763,16,0.0,0.0,0.0,1.2000000000000002,9.3,1.1,-1.0999999999999999,0.5,-0.30000000000000004
1698672752.779,16,0.0,0.0,0.0,1.2000000000000002,9.3,1.1,-1.2000000000000002,0.7,0.2
1698672752.796,16,0.0,0.0,0.0,1.2000000000000002,9.3,1.1,-1.3,0.6000000000000001,0.5
1698672752.812,16,0.0,0.0,0.0,1.2000000000000002,9.3,1.1,-1.0999999999999999,0.2,0.30000000000000004
1698672752.829,16,0.0,0.0,0.0,1.2000000000000002,9.3,1.1,-1.0,0.0,0.0
1698672752.846,16,0.0,0.0,0.0,1.2000000000000002,9.3,1.1,-1.0,-0.2,-0.1
1698672752.863,16,0.0,0.0,0.0,1.2000000000000002,9.3,1.1,-1.0,-0.2,-0.1
1698672752.883,16,0.0,0.0,0.0,1.2000000000000002,9.3,1.1,-1.0999999999999999,0.0,0.2
1698672752.896,16,0.0,0.0,0.0,1.2000000000000002,9.3,1.1,-0.9,-0.2,0.4
1698672752.912,16,0.0,0.0,0.0,1.2000000000000002,9.3,1.1,-0.8,-0.2,0.4
1698672752.929,16,0.1,0.0,0.0,1.3,9.3,1.1,-0.7,-0.2,0.4
1698672752.946,16,0.0,-0.1,0.0,1.3,9.3,1.2000000000000002,-0.30000000000000004,0.0,0.4
1698672752.962,16,0.0,0.0,0.0,1.2000000000000002,9.3,1.1,-0.30000000000000004,0.4,0.4
1698672752.979,16,-0.1,0.0,0.0,1.2000000000000002,9.3,1.1,-0.5,0.30000000000000004,0.6000000000000001
1698672752.997,16,0.0,0.0,0.0,1.2000000000000002,9.3,1.1,-0.7,0.0,0.4
1698672753.013,16,0.0,0.0,0.0,1.2000000000000002,9.3,1.1,-0.7,0.0,0.2
1698672753.031,16,0.0,0.0,0.0,1.2000000000000002,9.3,1.1,-0.7,0.0,0.30000000000000004
1698672753.045,16,0.0,0.0,0.0,1.2000000000000002,9.3,1.1,-0.7,-0.2,0.2
1698672753.062,16,0.0,0.0,0.0,1.3,9.3,1.2000000000000002,-0.4,-0.30000000000000004,-0.1
1698672753.079,16,0.0,0.0,0.0,1.3,9.3,1.2000000000000002,-0.2,0.0,-0.1
1698672753.096,16,0.0,0.0,0.0,1.3,9.3,1.2000000000000002,0.0,0.6000000000000001,0.2
1698672753.113,16,0.0,0.0,0.0,1.3,9.3,1.1,0.1,0.8,0.2
1698672753.129,16,0.0,0.1,0.0,1.3,9.3,1.1,0.1,1.0999999999999999,0.1
1698672753.146,16,0.0,0.1,0.0,1.2000000000000002,9.4,1.1,0.0,0.9,0.2
1698672753.163,16,0.0,0.1,-0.1,1.2000000000000002,9.4,1.1,-0.2,0.5,0.2
1698672753.179,16,0.0,0.0,0.0,1.2000000000000002,9.3,1.1,-0.6000000000000001,0.1,-0.2
1698672753.196,16,0.1,0.0,0.0,1.3,9.3,1.1,-1.0,0.30000000000000004,-0.7
1698672753.212,16,0.1,0.0,0.0,1.3,9.3,1.1,-1.4,0.9,-0.9
1698672753.229,16,0.0,0.0,-0.1,1.3,9.3,1.1,-2.4000000000000004,1.4,-0.5
1698672753.246,16,-0.1,0.2,-0.1,1.2000000000000002,9.5,1.0,-3.9,-0.30000000000000004,-0.1
1698672753.262,16,-0.1,0.2,-0.1,1.1,9.5,1.1,-4.3999999999999995,-1.2000000000000002,-0.2
1698672753.279,16,-0.1,0.30000000000000004,-0.1,1.1,9.600000000000001,1.1,-5.500000000000001,-1.6,0.1
1698672753.296,16,-0.1,0.2,0.0,1.1,9.5,1.2000000000000002,-6.1000000000000005,-0.8,-1.0
1698672753.315,16,0.1,0.1,-0.2,1.3,9.5,1.0,-7.1000000000000005,-1.0,-2.1
1698672753.329,16,0.1,0.1,-0.1,1.3,9.4,1.1,-8.4,-2.1999999999999997,-2.3000000000000003
1698672753.345,16,0.0,0.30000000000000004,-0.1,1.2000000000000002,9.700000000000001,1.2000000000000002,-10.2,-4.1000000000000005,-1.0
1698672753.362,16,0.0,0.4,-0.1,1.2000000000000002,9.8,1.2000000000000002,-11.000000000000002,-3.6,-0.4
1698672753.379,16,0.0,0.5,0.0,1.2000000000000002,9.9,1.3,-12.100000000000001,-4.1000000000000005,-1.2000000000000002
1698672753.396,16,0.0,0.30000000000000004,-0.2,1.2000000000000002,9.700000000000001,1.1,-13.9,-2.6,-3.2
1698672753.412,16,0.1,0.30000000000000004,-0.2,1.3,9.600000000000001,1.1,-15.8,-2.3000000000000003,-4.6000000000000005
1698672753.429,16,0.30000000000000004,0.2,-0.30000000000000004,1.4000000000000001,9.600000000000001,1.1,-21.200000000000003,-0.4,-7.6
1698672753.445,16,0.4,0.4,-0.30000000000000004,1.5,9.8,1.2000000000000002,-25.6,1.5000000000000002,-8.799999999999999
1698672753.462,16,0.4,0.4,-0.4,1.5,9.8,1.1,-27.400000000000002,3.9,-8.600000000000001
1698672753.479,16,0.4,0.6000000000000001,-0.4,1.5,10.0,1.2000000000000002,-31.0,2.0,-6.3
1698672753.496,16,0.2,0.6000000000000001,-0.6000000000000001,1.3,9.9,1.1,-33.900000000000006,4.5,-6.000000000000001
1698672753.512,16,0.2,0.5,-0.6000000000000001,1.3,9.9,1.1,-35.7,5.0,-7.1000000000000005
1698672753.53,16,0.2,0.5,-0.7000000000000001,1.3,9.9,1.2000000000000002,-39.1,5.1,-9.0
1698672753.546,16,0.30000000000000004,0.8,-0.7000000000000001,1.3,10.200000000000001,1.3,-42.400000000000006,7.0,-8.799999999999999
1698672753.562,16,0.30000000000000004,0.8,-0.9,1.3,10.0,1.2000000000000002,-44.00000000000001,8.700000000000001,-8.700000000000001
1698672753.579,16,0.30000000000000004,0.9,-0.9,1.3,10.200000000000001,1.3,-49.0,5.300000000000001,-8.799999999999999
1698672753.596,16,0.30000000000000004,0.8,-0.8,1.3,10.100000000000001,1.6,-53.6,6.9,-9.200000000000001
1698672753.613,16,0.2,0.9,-0.9,1.1,10.200000000000001,1.7000000000000002,-57.9,7.6,-9.600000000000001
1698672753.63,16,0.30000000000000004,0.8,-1.1,1.2000000000000002,10.100000000000001,1.6,-60.20000000000001,8.0,-10.4
1698672753.646,16,0.5,0.6000000000000001,-1.5,1.4000000000000001,9.8,1.4000000000000001,-70.39999999999999,8.799999999999999,-13.0
1698672753.662,16,0.7000000000000001,0.7000000000000001,-1.4000000000000001,1.5,9.9,1.7000000000000002,-85.9,8.3,-15.000000000000002
1698672753.679,16,0.5,0.9,-1.6,1.3,9.9,1.8,-97.3,12.000000000000002,-14.200000000000001
1698672753.696,16,0.5,1.0,-1.5,1.2000000000000002,9.9,2.0,-102.9,12.8,-13.4
1698672753.713,16,0.5,1.1,-1.5,1.2000000000000002,10.0,2.2,-106.5,11.700000000000001,-13.700000000000001
1698672753.729,16,0.5,1.4000000000000001,-1.3,1.2000000000000002,10.200000000000001,2.7,-108.4,11.9,-15.000000000000002
1698672753.746,16,0.7000000000000001,1.3,-1.2000000000000002,1.3,9.9,3.1,-106.2,15.399999999999999,-14.900000000000002
1698672753.762,16,0.7000000000000001,1.1,-0.9,1.2000000000000002,9.700000000000001,4.7,-102.60000000000001,19.1,-11.8
1698672753.779,16,0.7000000000000001,1.6,0.6000000000000001,1.2000000000000002,10.0,5.4,-96.3,17.3,-9.600000000000001
1698672753.796,16,0.7000000000000001,1.6,1.2000000000000002,1.2000000000000002,9.9,6.2,-89.0,21.1,-6.9
1698672753.813,16,0.6000000000000001,1.3,1.2000000000000002,0.7000000000000001,9.1,6.5,-90.7,16.700000000000003,-4.9
1698672753.831,16,-0.4,0.8,1.2000000000000002,0.4,8.8,6.6000000000000005,-89.0,11.1,-1.6
1698672753.846,16,-0.5,0.6000000000000001,1.2000000000000002,-0.2,8.5,6.9,-83.7,8.1,0.2
1698672753.862,16,-0.7000000000000001,0.30000000000000004,1.2000000000000002,-0.30000000000000004,8.1,7.0,-76.5,5.0,1.3
1698672753.879,16,-0.6000000000000001,-0.6000000000000001,1.5,-0.30000000000000004,7.0,7.5,-59.80000000000001,-1.0999999999999999,3.7000000000000006
1698672753.896,16,-0.1,-1.8,1.6,0.30000000000000004,5.800000000000001,7.800000000000001,-42.6,0.7,3.8
1698672753.913,16,-0.1,-1.6,1.7000000000000002,0.30000000000000004,5.800000000000001,7.9,-31.0,6.8,2.8
1698672753.929,16,-0.2,-0.8,1.7000000000000002,0.1,7.2,8.0,-24.8,12.200000000000001,4.2
1698672753.946,16,-0.30000000000000004,0.1,1.5,0.0,7.5,7.9,-22.1,12.6,3.5
1698672753.963,16,-0.5,0.0,1.1,-0.2,7.300000000000001,7.5,-17.8,10.4,2.3000000000000003
1698672753.979,16,-0.6000000000000001,0.0,0.9,-0.30000000000000004,7.300000000000001,7.4,-7.8,9.0,1.0999999999999999
1698672753.996,16,-0.2,0.5,0.8,0.0,7.800000000000001,7.300000000000001,-1.7,6.1000000000000005,1.7
1698672754.012,16,0.0,0.7000000000000001,1.2000000000000002,0.30000000000000004,8.0,7.7,8.3,-2.1999999999999997,3.9
1698672754.029,16,0.0,0.6000000000000001,1.4000000000000001,0.4,7.9,7.9,10.600000000000001,-3.5,5.1
1698672754.046,16,0.0,0.4,1.6,0.30000000000000004,7.800000000000001,8.0,11.9,-4.3999999999999995,6.000000000000001
1698672754.062,16,-0.2,0.30000000000000004,1.2000000000000002,0.1,7.7,7.6000000000000005,12.4,-1.8,5.7
1698672754.079,16,-0.30000000000000004,0.2,1.0,0.0,7.7,7.4,13.8,-2.1999999999999997,5.2
1698672754.096,16,-0.4,0.1,0.7000000000000001,0.0,7.5,7.0,21.0,-5.1,3.8
1698672754.113,16,-0.30000000000000004,0.1,0.2,0.1,7.6000000000000005,6.5,29.000000000000004,-4.2,1.9
1698672754.129,16,-0.2,0.2,0.1,0.2,7.800000000000001,6.300000000000001,32.6,-5.7,1.3
1698672754.146,16,-0.1,0.30000000000000004,0.0,0.30000000000000004,8.0,6.1000000000000005,38.0,-10.1,0.7
1698672754.162,16,-0.1,0.2,-0.2,0.4,7.9,5.800000000000001,41.9,-15.2,0.7
1698672754.179,16,-0.1,-0.1,-0.4,0.4,7.5,5.4,44.3,-18.8,0.4
1698672754.196,16,-0.1,-0.6000000000000001,-0.7000000000000001,0.4,7.300000000000001,5.1000000000000005,45.4,-20.3,0.1
1698672754.212,16,-0.1,-0.9,-0.7000000000000001,0.4,7.0,5.0,49.2,-22.3,-1.2000000000000002
1698672754.229,16,-0.2,-1.0,-0.7000000000000001,0.4,6.9,4.7,54.5,-19.3,-3.2
1698672754.246,16,-0.2,-1.2000000000000002,-1.0,0.4,6.9,4.5,56.2,-16.2,-3.5
1698672754.262,16,-0.30000000000000004,-1.3,-1.1,0.30000000000000004,6.9,4.2,58.1,-11.700000000000001,-2.9
1698672754.279,16,-0.30000000000000004,-1.4000000000000001,-1.2000000000000002,0.30000000000000004,6.9,4.0,58.7,-11.9,-1.9
1698672754.296,16,-0.4,-1.7000000000000002,-1.2000000000000002,0.2,6.6000000000000005,3.9000000000000004,59.00000000000001,-15.2,0.5
1698672754.312,16,-0.5,-2.0,-1.0,0.2,6.4,3.9000000000000004,60.300000000000004,-17.599999999999998,0.7
1698672754.329,16,-0.6000000000000001,-2.1,-1.0,0.1,6.300000000000001,3.7,61.1,-17.400000000000002,0.2
1698672754.346,16,-0.6000000000000001,-2.5,-1.1,0.1,6.0,3.4000000000000004,61.300000000000004,-18.2,-0.4
1698672754.362,16,-0.7000000000000001,-2.8000000000000003,-1.0,0.0,5.800000000000001,3.4000000000000004,58.60000000000001,-21.3,-0.30000000000000004
1698672754.379,16,-0.9,-2.9000000000000004,-0.8,-0.2,5.7,3.5,57.3,-21.900000000000002,0.1
1698672754.396,16,-1.0,-3.2,-0.5,-0.2,5.5,3.5,55.0,-19.200000000000003,1.0
1698672754.413,16,-1.0,-3.3000000000000003,-0.4,-0.2,5.4,3.5,54.2,-19.1,0.9
1698672754.429,16,-1.0,-3.4000000000000004,-0.4,-0.2,5.4,3.4000000000000004,53.2,-19.200000000000003,0.5
1698672754.446,16,-0.9,-3.5,-0.2,-0.1,5.300000000000001,3.4000000000000004,50.0,-20.1,-0.4
1698672754.462,16,-0.7000000000000001,-3.4000000000000004,0.2,0.1,5.4,3.7,46.800000000000004,-20.900000000000002,-2.3000000000000003
1698672754.479,16,-0.7000000000000001,-3.1,0.5,0.2,5.800000000000001,3.9000000000000004,45.2,-20.900000000000002,-3.4
1698672754.496,16,-0.6000000000000001,-2.8000000000000003,0.6000000000000001,0.30000000000000004,6.0,3.9000000000000004,44.1,-19.6,-3.3000000000000003
1698672754.512,16,-0.4,-2.1,0.9,0.4,6.800000000000001,4.1000000000000005,40.5,-17.599999999999998,-2.9
1698672754.529,16,-0.30000000000000004,-1.7000000000000002,1.1,0.5,7.300000000000001,4.3,38.800000000000004,-16.3,-2.5
1698672754.546,16,-0.30000000000000004,-0.8,1.5,0.5,8.1,4.5,36.0,-12.000000000000002,-1.5000000000000002
1698672754.563,16,-0.30000000000000004,-0.2,1.5,0.5,8.700000000000001,4.4,32.7,-7.6,0.4
1698672754.579,16,-0.4,0.30000000000000004,1.3,0.5,9.3,4.2,28.500000000000004,-6.3,1.5000000000000002
1698672754.595,16,-0.4,0.4,1.2000000000000002,0.4,9.4,4.0,26.0,-7.500000000000001,2.1
1698672754.613,16,-0.5,0.2,0.9,0.4,9.3,3.6,19.500000000000004,-8.9,4.2
1698672754.629,16,-0.6000000000000001,0.1,0.7000000000000001,0.30000000000000004,9.200000000000001,3.3000000000000003,12.5,-10.5,1.8
1698672754.645,16,-0.5,0.1,0.5,0.4,9.200000000000001,3.2,8.600000000000001,-10.2,0.1
1698672754.662,16,-0.30000000000000004,0.4,0.7000000000000001,0.6000000000000001,9.5,3.3000000000000003,3.7000000000000006,-13.0,-3.7000000000000006
1698672754.679,16,-0.2,0.2,0.7000000000000001,0.8,9.0,3.3000000000000003,4.9,-14.700000000000001,-6.6000000000000005
1698672754.696,16,-0.1,-0.2,0.6000000000000001,0.8,8.9,3.3000000000000003,6.1000000000000005,-14.3,-6.5
1698672754.713,16,0.1,-0.30000000000000004,0.6000000000000001,1.0,8.8,3.2,9.5,-15.9,-4.5
1698672754.73,16,0.2,-0.30000000000000004,0.7000000000000001,1.1,8.8,3.3000000000000003,12.000000000000002,-19.3,0.2
1698672754.746,16,0.2,-0.30000000000000004,0.7000000000000001,1.1,8.8,3.3000000000000003,12.5,-18.400000000000002,0.9
1698672754.762,16,0.0,0.1,0.9,1.0,9.200000000000001,3.4000000000000004,12.000000000000002,-17.7,-0.7
1698672754.779,16,0.0,0.5,0.9,0.9,9.700000000000001,3.4000000000000004,8.200000000000001,-19.1,-1.6
1698672754.796,16,0.0,0.5,0.7000000000000001,1.0,9.600000000000001,3.2,4.7,-18.1,-2.1999999999999997
1698672754.813,16,0.4,-0.2,0.1,1.3,8.9,2.6,-3.8,-17.400000000000002,-2.1
1698672754.829,16,0.9,-0.6000000000000001,-0.4,1.5,8.700000000000001,2.4000000000000004,-8.0,-16.1,-2.5
1698672754.846,16,1.2000000000000002,-0.2,-0.5,2.1,8.9,2.0,-17.400000000000002,-7.6,-6.6000000000000005
1698672754.862,16,1.2000000000000002,0.30000000000000004,-0.5,2.2,9.4,2.0,-19.200000000000003,-1.9,-8.9
1698672754.879,16,1.2000000000000002,1.5,-0.1,2.1,10.600000000000001,2.5,-16.8,0.6000000000000001,-9.8
1698672754.896,16,1.1,1.6,-0.2,2.0,10.700000000000001,2.5,-12.200000000000001,-4.1000000000000005,-6.9
1698672754.913,16,1.0,0.5,-0.7000000000000001,2.0,9.600000000000001,2.0,-6.000000000000001,-9.0,5.4
1698672754.929,16,0.9,-0.5,-0.9,1.9000000000000001,8.6,1.8,-6.5,-3.2,15.299999999999999
1698672754.946,16,0.6000000000000001,-0.5,-0.8,1.7000000000000002,8.6,1.9000000000000001,-6.000000000000001,0.1,16.0
1698672754.962,16,0.6000000000000001,-0.4,-0.8,1.7000000000000002,8.6,1.9000000000000001,-5.6,1.9,14.600000000000001
1698672754.979,16,0.6000000000000001,-0.30000000000000004,-0.8,1.8,8.8,1.9000000000000001,-4.6000000000000005,4.5,10.2
1698672754.996,16,0.6000000000000001,-0.4,-1.0,1.8,8.700000000000001,1.8,-4.7,7.2,8.1
1698672755.012,16,0.6000000000000001,-0.5,-1.2000000000000002,1.8,8.6,1.6,-5.8,12.8,5.500000000000001
1698672755.029,16,0.6000000000000001,-0.5,-1.3,1.7000000000000002,8.6,1.3,-8.600000000000001,17.599999999999998,4.6000000000000005
1698672755.046,16,0.4,-0.30000000000000004,-1.6,1.6,8.9,1.1,-12.200000000000001,19.6,4.7
1698672755.062,16,0.4,0.0,-1.7000000000000002,1.5,9.0,1.1,-13.9,19.8,3.7000000000000006
1698672755.079,16,0.4,0.1,-1.8,1.5,9.1,1.0,-15.7,18.6,0.1
1698672755.096,16,0.4,0.0,-1.7000000000000002,1.5,9.0,1.1,-15.8,17.599999999999998,-2.0
1698672755.113,16,0.5,-0.1,-1.6,1.6,8.8,1.3,-13.8,19.1,-5.8
1698672755.129,16,0.5,-0.30000000000000004,-1.7000000000000002,1.5,8.700000000000001,1.2000000000000002,-9.200000000000001,16.900000000000002,-6.5
1698672755.146,16,0.5,-0.1,-1.6,1.4000000000000001,9.0,1.4000000000000001,-7.1000000000000005,15.000000000000002,-5.4
1698672755.162,16,0.2,0.2,-1.5,1.3,9.1,1.4000000000000001,-1.7,8.600000000000001,-0.2
1698672755.179,16,0.1,0.30000000000000004,-1.5,1.2000000000000002,9.3,1.4000000000000001,3.5,8.4,4.2
1698672755.195,16,0.30000000000000004,0.1,-1.4000000000000001,1.3,9.0,1.5,6.9,12.5,2.4000000000000004
1698672755.212,16,0.4,0.0,-1.2000000000000002,1.5,9.0,1.6,9.1,13.0,0.1
1698672755.229,16,0.8,0.1,-1.0,1.8,9.0,1.8,12.700000000000001,15.8,-3.5
1698672755.245,16,1.1,0.2,-1.2000000000000002,2.1,9.200000000000001,1.6,12.8,24.3,-5.1
1698672755.263,16,1.1,0.2,-1.3,2.1,9.200000000000001,1.5,10.600000000000001,26.9,-4.6000000000000005
1698672755.279,16,1.0,0.30000000000000004,-1.2000000000000002,1.9000000000000001,9.200000000000001,1.6,2.6,32.5,-0.1
1698672755.296,16,0.4,0.7000000000000001,-1.4000000000000001,1.4000000000000001,9.700000000000001,1.4000000000000001,-5.7,32.2,7.8
1698672755.312,16,0.30000000000000004,1.1,-1.5,1.2000000000000002,10.100000000000001,1.3,-9.9,25.400000000000002,12.3
1698672755.33,16,0.1,1.3,-0.7000000000000001,1.1,10.3,2.1,-15.5,10.8,15.6
1698672755.346,16,-0.1,0.9,0.6000000000000001,0.9,9.8,3.4000000000000004,-3.3000000000000003,-0.7,12.8
1698672755.362,16,-0.30000000000000004,0.8,1.1,0.8,9.8,3.9000000000000004,7.8,-6.9,12.3
1698672755.379,16,-0.6000000000000001,1.5,1.9000000000000001,0.5,10.5,4.6000000000000005,30.200000000000003,-21.5,17.7
1698672755.396,16,-0.7000000000000001,2.5,1.6,0.5,11.600000000000001,4.2,40.3,-29.300000000000004,26.6
1698672755.412,16,0.1,2.4000000000000004,1.0,1.4000000000000001,11.5,3.5,26.6,-14.0,17.599999999999998
1698672755.429,16,0.4,1.8,0.8,1.7000000000000002,10.9,3.4000000000000004,13.4,-5.9,5.1
1698672755.445,16,0.8,0.8,0.9,2.1,9.9,3.4000000000000004,-11.2,1.3,-11.2
1698672755.463,16,1.0,0.5,0.6000000000000001,2.2,9.600000000000001,3.2,-19.6,2.4000000000000004,-12.100000000000001
1698672755.48,16,0.7000000000000001,-0.2,0.4,1.9000000000000001,8.9,3.1,-29.000000000000004,2.6,-9.600000000000001
1698672755.496,16,-0.1,-0.5,0.7000000000000001,1.2000000000000002,8.5,3.4000000000000004,-23.3,-4.3999999999999995,-8.5
1698672755.514,16,-0.9,-0.6000000000000001,0.9,0.7000000000000001,8.4,3.7,-15.5,-7.300000000000001,-5.8
1698672755.529,16,-1.0,-0.5,1.0,0.2,8.5,3.8000000000000003,1.0999999999999999,-2.4000000000000004,-7.6
1698672755.545,16,-0.9,-0.8,1.3,0.30000000000000004,8.3,4.1000000000000005,10.9,-8.0,-18.7
1698672755.564,16,-0.8,-1.3,1.5,0.30000000000000004,7.800000000000001,4.2,11.700000000000001,-6.9,-22.4
1698672755.579,16,-0.6000000000000001,-2.2,1.4000000000000001,0.5,6.9,4.2,4.800000000000001,-2.6,-18.6
1698672755.596,16,-0.4,-2.2,1.5,0.6000000000000001,6.800000000000001,4.3,-5.4,4.7,-11.5
1698672755.612,16,-0.4,-1.8,1.7000000000000002,0.6000000000000001,7.2,4.5,-8.200000000000001,9.5,-11.6
1698672755.63,16,-0.1,-0.7000000000000001,1.7000000000000002,0.8,8.3,4.5,-5.7,13.9,-14.600000000000001
1698672755.645,16,0.2,0.2,1.6,1.0,9.200000000000001,4.4,-2.1,12.200000000000001,-12.9
1698672755.663,16,0.0,0.2,1.7000000000000002,0.6000000000000001,9.0,4.4,4.0,16.900000000000002,-8.5
1698672755.679,16,-0.4,-0.5,1.2000000000000002,0.4,8.6,4.1000000000000005,6.7,19.200000000000003,-6.4
1698672755.696,16,-0.8,-0.9,0.7000000000000001,0.0,8.200000000000001,3.6,5.2,19.500000000000004,-4.0
1698672755.712,16,-1.0,-0.9,0.6000000000000001,-0.2,8.1,3.5,2.6,19.1,-4.0
1698672755.73,16,-1.3,-0.6000000000000001,0.4,-0.6000000000000001,8.4,3.3000000000000003,-2.7,16.8,-3.1
1698672755.746,16,-1.4000000000000001,-0.1,0.2,-0.8,9.0,3.1,-5.7,9.0,-2.6
1698672755.762,16,-1.3,0.4,-0.1,-0.6000000000000001,9.4,2.9000000000000004,-6.5,-0.4,-5.2
1698672755.779,16,-1.0,0.4,-0.1,-0.4,9.4,2.9000000000000004,-6.9,-2.8,-8.1
1698672755.796,16,-0.7000000000000001,-0.1,0.1,-0.1,8.9,3.1,-3.9,-4.800000000000001,-15.7
1698672755.813,16,-0.5,-0.30000000000000004,0.1,0.2,8.5,3.0,2.1999999999999997,-3.3000000000000003,-18.400000000000002
1698672755.829,16,-0.2,-0.6000000000000001,-0.1,0.2,8.4,2.9000000000000004,4.800000000000001,-2.4000000000000004,-17.8
1698672755.846,16,-0.1,-0.7000000000000001,-0.30000000000000004,0.4,8.3,2.6,6.5,-2.8,-15.9
1698672755.864,16,-0.1,-0.7000000000000001,-0.30000000000000004,0.30000000000000004,8.4,2.6,6.7,-4.0,-13.3
1698672755.879,16,-0.2,-0.6000000000000001,-0.4,0.2,8.5,2.5,7.300000000000001,-2.9,-12.000000000000002
1698672755.896,16,-0.5,0.1,-0.5,-0.1,9.1,2.3000000000000003,8.3,-0.5,-11.3
1698672755.912,16,-0.5,0.30000000000000004,-0.7000000000000001,-0.2,9.4,2.2,8.0,0.1,-10.9
1698672755.93,16,-0.5,0.5,-0.8,-0.2,9.600000000000001,2.0,5.6,-2.6,-11.1
1698672755.945,16,-0.2,0.4,-0.9,0.0,9.5,1.9000000000000001,3.6,-4.9,-13.8
1698672755.962,16,-0.1,0.2,-0.9,0.1,9.3,1.9000000000000001,2.3000000000000003,-6.2,-14.4
1698672755.979,16,0.0,-0.2,-1.2000000000000002,0.2,8.8,1.6,-1.0,-7.0,-11.5
1698672755.996,16,-0.2,-0.6000000000000001,-1.5,-0.1,8.5,1.3,-6.2,-7.6,-7.300000000000001
1698672756.013,16,-0.6000000000000001,-0.7000000000000001,-1.5,-0.4,8.3,1.3,-8.700000000000001,-19.700000000000003,-1.5000000000000002
1698672756.029,16,-0.7000000000000001,-0.9,-1.4000000000000001,-0.5,8.200000000000001,1.3,-6.9,-29.200000000000003,3.1
1698672756.046,16,-0.8,-0.9,-1.5,-0.6000000000000001,8.1,1.3,-5.4,-30.4,4.0
1698672756.062,16,-1.0,-0.8,-1.6,-0.8,8.3,1.2000000000000002,-1.0999999999999999,-33.7,5.7
1698672756.079,16,-1.0,-0.5,-1.7000000000000002,-0.8,8.5,1.1,1.4,-38.1,6.2
1698672756.095,16,-0.4,0.0,-1.5,-0.1,9.0,1.3,4.3999999999999995,-52.400000000000006,2.7
1698672756.113,16,0.30000000000000004,0.2,-1.1,0.7000000000000001,9.200000000000001,1.6,11.6,-56.5,-4.800000000000001
1698672756.129,16,0.7000000000000001,0.5,-0.9,1.1,9.5,1.8,15.000000000000002,-53.9,-6.6000000000000005
1698672756.146,16,1.0,1.1,-0.5,1.4000000000000001,10.200000000000001,2.1,19.9,-38.900000000000006,-4.800000000000001
1698672756.162,16,0.9,1.3,-0.5,1.4000000000000001,10.4,2.0,19.700000000000003,-22.6,3.8
1698672756.179,16,0.6000000000000001,1.2000000000000002,-0.5,1.1,10.3,2.0,17.1,-19.9,8.9
1698672756.196,16,-0.30000000000000004,1.1,-0.9,0.2,10.200000000000001,1.6,7.6,-27.5,17.599999999999998
1698672756.212,16,-0.6000000000000001,1.0,-0.7000000000000001,0.0,10.100000000000001,1.8,-10.5,-36.4,19.500000000000004
1698672756.23,16,-0.6000000000000001,0.9,-0.5,0.0,10.0,2.0,-18.3,-38.400000000000006,16.1
1698672756.246,16,-0.4,1.4000000000000001,0.2,0.30000000000000004,10.4,2.8000000000000003,-29.700000000000003,-32.6,7.8
1698672756.262,16,0.1,2.3000000000000003,0.5,0.9,11.4,3.2,-27.900000000000002,-15.9,-2.6
1698672756.279,16,0.5,2.3000000000000003,0.7000000000000001,1.2000000000000002,11.4,3.4000000000000004,-21.5,0.4,-12.9
1698672756.296,16,0.7000000000000001,2.3000000000000003,0.9,1.4000000000000001,11.4,3.7,-16.400000000000002,1.5000000000000002,-14.200000000000001
1698672756.312,16,0.9,2.4000000000000004,1.4000000000000001,1.8,11.5,4.4,-4.0,3.3000000000000003,-12.6
1698672756.329,16,1.3,2.3000000000000003,1.4000000000000001,1.9000000000000001,11.4,4.2,0.9,6.5,-10.8
1698672756.346,16,1.0,1.5,0.7000000000000001,1.7000000000000002,10.600000000000001,3.5,-2.8,20.3,-6.4
1698672756.362,16,0.4,0.2,0.0,1.3,9.9,3.2,-9.4,27.1,-4.7
1698672756.379,16,-0.1,-0.6000000000000001,-0.4,0.7000000000000001,8.9,2.6,-21.5,25.6,-2.1999999999999997
1698672756.396,16,-0.4,-1.0,-0.5,0.1,8.1,2.5,-25.6,19.200000000000003,2.0
1698672756.413,16,-0.7000000000000001,-1.4000000000000001,-0.6000000000000001,-0.2,7.6000000000000005,2.5,-19.9,18.8,4.800000000000001
1698672756.429,16,-0.6000000000000001,-1.5,-0.5,0.0,7.5,2.5,-14.100000000000001,17.200000000000003,4.300000000000001
1698672756.446,16,0.2,-1.5,0.2,0.7000000000000001,7.6000000000000005,3.2,4.2,9.700000000000001,0.8
1698672756.462,16,0.9,-1.4000000000000001,1.0,1.5,7.7,4.0,26.200000000000003,2.9,1.6
1698672756.479,16,1.1,-1.4000000000000001,1.4000000000000001,1.6,7.7,4.6000000000000005,40.7,4.1000000000000005,7.300000000000001
1698672756.496,16,0.9,-1.5,1.7000000000000002,1.4000000000000001,7.6000000000000005,4.6000000000000005,43.400000000000006,7.1000000000000005,10.600000000000001
1698672756.513,16,0.1,-1.6,1.6,0.7000000000000001,7.5,4.4,37.5,12.5,16.5
1698672756.53,16,-0.7000000000000001,-1.1,1.4000000000000001,0.0,8.0,4.1000000000000005,21.900000000000002,13.6,19.8
1698672756.545,16,-1.1,-0.6000000000000001,1.2000000000000002,-0.30000000000000004,8.3,3.9000000000000004,12.8,13.8,19.500000000000004
1698672756.562,16,-1.1,-0.5,1.2000000000000002,-0.4,8.6,3.9000000000000004,0.1,6.3,15.7
1698672756.579,16,-0.7000000000000001,-0.5,1.0,0.0,8.6,3.7,-2.7,-1.5000000000000002,11.700000000000001
1698672756.595,16,-0.5,-0.4,0.9,0.30000000000000004,8.700000000000001,3.6,-1.5000000000000002,-3.3000000000000003,10.3
1698672756.612,16,0.0,-0.2,0.9,0.8,8.8,3.6,4.9,-2.4000000000000004,6.7
1698672756.629,16,0.2,-0.30000000000000004,0.9,1.1,8.700000000000001,3.6,9.5,-1.0,4.300000000000001
1698672756.646,16,0.4,-0.5,0.9,1.2000000000000002,8.5,3.5,18.7,3.3000000000000003,0.4
1698672756.662,16,0.6000000000000001,-0.7000000000000001,0.6000000000000001,1.4000000000000001,8.4,3.2,21.1,10.3,-1.0
1698672756.679,16,0.8,-0.7000000000000001,0.7000000000000001,1.6,8.5,3.2,18.1,9.700000000000001,2.6
1698672756.696,16,1.0,-0.6000000000000001,0.8,1.8,8.5,3.3000000000000003,16.400000000000002,6.4,5.2
1698672756.712,16,1.1,-0.5,1.0,1.9000000000000001,8.6,3.5,13.8,3.2,11.4
1698672756.729,16,1.0,-0.5,1.0,1.6,8.700000000000001,3.3000000000000003,11.9,13.8,15.399999999999999
1698672756.746,16,0.5,-0.5,0.7000000000000001,1.4000000000000001,8.700000000000001,3.1,11.4,18.8,14.100000000000001
1698672756.762,16,0.30000000000000004,-0.5,0.4,1.3,8.6,2.8000000000000003,10.5,21.400000000000002,10.3
1698672756.779,16,0.4,-0.6000000000000001,0.30000000000000004,1.4000000000000001,8.5,2.6,7.2,24.000000000000004,8.600000000000001
1698672756.795,16,0.6000000000000001,-0.6000000000000001,0.1,1.6,8.6,2.5,5.1,29.200000000000003,7.9
1698672756.814,16,0.8,-0.5,0.0,1.7000000000000002,8.6,2.3000000000000003,4.3999999999999995,30.9,7.1000000000000005
1698672756.829,16,0.7000000000000001,-0.4,-0.2,1.6,8.700000000000001,2.2,4.3999999999999995,25.6,9.0
1698672756.846,16,0.6000000000000001,-0.30000000000000004,-0.30000000000000004,1.6,8.8,2.0,4.1000000000000005,26.400000000000002,11.2
1698672756.863,16,0.2,0.1,-0.6000000000000001,1.2000000000000002,9.200000000000001,1.7000000000000002,3.3000000000000003,33.5,12.200000000000001
1698672756.879,16,-0.2,0.2,-0.9,0.8,9.3,1.5,2.3000000000000003,31.8,10.5
1698672756.896,16,-0.30000000000000004,0.1,-1.0,0.7000000000000001,9.200000000000001,1.3,2.0,28.200000000000003,9.3
1698672756.912,16,-0.30000000000000004,0.1,-1.3,0.7000000000000001,9.200000000000001,1.1,0.7,21.6,5.9
1698672756.929,16,-0.30000000000000004,0.0,-1.3,0.7000000000000001,9.0,1.0,-1.0999999999999999,21.1,4.6000000000000005
1698672756.946,16,-0.1,-0.2,-1.3,0.8,8.9,1.1,-4.5,21.900000000000002,2.9
1698672756.962,16,0.2,-0.30000000000000004,-1.1,1.2000000000000002,8.8,1.2000000000000002,-4.1000000000000005,19.400000000000002,1.5000000000000002
1698672756.979,16,0.5,-0.30000000000000004,-1.0,1.5,8.8,1.4000000000000001,-1.0999999999999999,21.5,0.2
1698672756.996,16,0.6000000000000001,-0.1,-0.8,1.6,9.0,1.6,1.2000000000000002,25.1,-1.0999999999999999
1698672757.013,16,0.4,0.0,-0.7000000000000001,1.3,9.1,1.7000000000000002,8.1,25.8,-2.6
1698672757.029,16,0.1,0.1,-0.9,1.0,9.200000000000001,1.4000000000000001,13.0,22.8,1.7
1698672757.046,16,0.0,0.1,-0.8,0.9,9.200000000000001,1.5,13.100000000000001,22.7,2.9
1698672757.063,16,0.1,0.1,-0.5,1.0,9.3,1.8,13.100000000000001,22.5,2.5
1698672757.08,16,0.4,0.30000000000000004,-0.2,1.3,9.5,2.0,12.6,28.8,-1.0999999999999999
1698672757.096,16,0.8,0.4,-0.2,1.7000000000000002,9.5,2.0,11.4,35.199999999999996,-2.9
1698672757.112,16,1.2000000000000002,0.2,-0.30000000000000004,2.0,9.4,1.8,6.000000000000001,42.7,-4.1000000000000005
1698672757.13,16,1.2000000000000002,0.2,-0.6000000000000001,2.0,9.4,1.6,-3.7000000000000006,49.4,-0.30000000000000004
1698672757.146,16,1.0,0.30000000000000004,-0.8,1.8,9.4,1.4000000000000001,-9.8,55.300000000000004,2.8
1698672757.162,16,0.8,0.4,-1.2000000000000002,1.6,9.5,1.1,-20.8,57.1,7.699999999999999
1698672757.179,16,0.5,0.5,-1.1,1.3,9.600000000000001,1.2000000000000002,-26.400000000000002,42.400000000000006,8.1
1698672757.196,16,0.30000000000000004,0.5,-0.7000000000000001,1.1,9.600000000000001,1.7000000000000002,-26.500000000000004,36.1,9.1
1698672757.213,16,-0.2,1.0,-0.4,0.6000000000000001,10.100000000000001,2.1,-18.400000000000002,26.9,12.100000000000001
1698672757.229,16,-0.5,1.6,-0.30000000000000004,0.30000000000000004,10.700000000000001,2.2,-8.4,16.2,14.700000000000001
1698672757.245,16,-0.4,1.8,-0.5,0.4,10.9,2.0,-1.4,20.1,12.700000000000001
1698672757.264,16,-0.30000000000000004,2.0,-0.6000000000000001,0.6000000000000001,11.200000000000001,1.9000000000000001,-1.9,18.0,9.200000000000001
1698672757.279,16,-0.30000000000000004,1.8,0.1,0.6000000000000001,10.9,2.6,-4.0,0.5,-0.5
1698672757.295,16,0.0,1.3,0.5,0.8,10.4,3.1,-5.2,-0.8,-2.0
1698672757.313,16,0.2,1.2000000000000002,0.6000000000000001,1.1,10.3,3.2,-6.9,-1.2000000000000002,4.3999999999999995
1698672757.33,16,0.4,1.1,0.5,1.3,10.200000000000001,3.1,-7.500000000000001,-6.5,7.1000000000000005
1698672757.346,16,0.5,0.8,0.4,1.4000000000000001,10.0,3.0,-8.5,-11.3,8.1
1698672757.362,16,0.4,0.0,0.7000000000000001,1.3,9.1,3.4000000000000004,-9.1,-10.5,4.800000000000001
1698672757.379,16,0.2,-0.7000000000000001,0.9,1.1,8.4,3.6,-0.8,-12.5,1.5000000000000002
1698672757.396,16,-0.2,-0.6000000000000001,1.0,0.8,8.5,3.7,7.699999999999999,-16.900000000000002,2.3000000000000003
1698672757.412,16,-0.6000000000000001,-0.5,1.5,0.30000000000000004,8.6,4.1000000000000005,14.100000000000001,-12.3,0.7
1698672757.429,16,-0.8,-0.4,1.7000000000000002,0.1,8.700000000000001,4.3,18.0,-9.8,-0.9
1698672757.446,16,-0.8,-0.4,1.9000000000000001,0.1,8.700000000000001,4.4,24.1,-3.3000000000000003,-6.000000000000001
1698672757.462,16,-0.7000000000000001,-0.6000000000000001,1.7000000000000002,0.2,8.6,4.2,23.900000000000002,-0.8,-9.200000000000001
1698672757.479,16,-0.9,-1.0,1.5,0.0,8.200000000000001,3.9000000000000004,14.600000000000001,1.5000000000000002,-10.600000000000001
1698672757.495,16,-1.3,-1.2000000000000002,1.4000000000000001,-0.5,8.0,3.8000000000000003,0.9,2.4000000000000004,-4.6000000000000005
1698672757.513,16,-1.5,-1.1,1.3,-0.7000000000000001,8.0,3.8000000000000003,-3.6,-1.3,-2.3000000000000003
1698672757.529,16,-1.8,-1.2000000000000002,1.1,-1.0,7.9,3.6,-7.400000000000001,-10.1,-1.6
1698672757.545,16,-2.1,-1.2000000000000002,0.5,-1.3,8.0,3.0,-6.8,-15.2,-4.3999999999999995
1698672757.562,16,-2.1,-1.2000000000000002,0.4,-1.3,8.0,2.9000000000000004,-6.3,-18.900000000000002,-6.2
1698672757.579,16,-2.0,-1.0,0.5,-1.3,8.1,3.0,-2.4000000000000004,-26.400000000000002,-12.700000000000001
1698672757.596,16,-1.8,-0.9,0.7000000000000001,-1.0,8.200000000000001,3.2,1.8,-28.400000000000002,-17.3
1698672757.612,16,-1.0,-0.6000000000000001,1.2000000000000002,-0.4,8.5,3.7,12.9,-34.800000000000004,-26.200000000000003
1698672757.629,16,-0.30000000000000004,-0.7000000000000001,1.4000000000000001,0.4,8.5,3.8000000000000003,19.6,-37.5,-26.700000000000003
1698672757.645,16,0.1,-0.7000000000000001,1.5,0.7000000000000001,8.4,3.8000000000000003,19.1,-33.6,-23.700000000000003
1698672757.662,16,0.2,-0.7000000000000001,1.4000000000000001,0.7000000000000001,8.4,3.8000000000000003,16.1,-30.000000000000004,-22.1
1698672757.679,16,0.0,-0.30000000000000004,1.2000000000000002,0.5,8.9,3.5,8.0,-24.9,-19.500000000000004
1698672757.696,16,-0.30000000000000004,0.4,0.9,0.2,9.5,3.2,-0.8,-23.700000000000003,-18.1
1698672757.714,16,-0.30000000000000004,0.6000000000000001,0.7000000000000001,0.1,9.700000000000001,3.1,-4.300000000000001,-22.5,-17.599999999999998
1698672757.729,16,-0.30000000000000004,0.30000000000000004,0.4,0.1,9.5,2.8000000000000003,-7.2,-20.2,-16.700000000000003
1698672757.746,16,-0.1,0.0,0.2,0.30000000000000004,9.1,2.6,-5.9,-20.900000000000002,-17.599999999999998
1698672757.762,16,0.0,-0.2,0.2,0.4,9.0,2.6,-3.9,-21.700000000000003,-17.9
1698672757.779,16,0.2,-0.4,0.1,0.5,8.8,2.5,1.7,-18.7,-16.3
1698672757.796,16,0.30000000000000004,-0.2,0.0,0.5,8.9,2.4000000000000004,6.5,-16.6,-15.100000000000001
1698672757.814,16,0.2,-0.1,-0.1,0.4,9.1,2.3000000000000003,6.8,-15.9,-14.600000000000001
1698672757.829,16,0.1,0.0,0.0,0.4,9.200000000000001,2.3000000000000003,5.500000000000001,-14.800000000000002,-14.500000000000002
1698672757.846,16,0.0,0.0,-0.30000000000000004,0.2,9.200000000000001,2.0,0.5,-11.4,-12.6
1698672757.862,16,-0.1,0.1,-0.6000000000000001,0.0,9.200000000000001,1.6,-9.600000000000001,-7.0,-9.1
1698672757.88,16,-0.2,0.0,-0.9,0.0,9.200000000000001,1.5,-14.100000000000001,-7.0,-7.6
1698672757.896,16,0.0,-0.1,-1.0,0.1,9.1,1.4000000000000001,-19.200000000000003,-7.699999999999999,-5.2
1698672757.913,16,0.1,-0.1,-1.1,0.2,9.0,1.3,-20.5,-8.200000000000001,-5.0
1698672757.929,16,0.2,-0.30000000000000004,-1.3,0.30000000000000004,8.8,1.2000000000000002,-21.5,-10.1,-3.7000000000000006
1698672757.946,16,0.0,-0.5,-1.4000000000000001,0.2,8.6,1.2000000000000002,-19.3,-16.700000000000003,-1.0
1698672757.962,16,-0.1,-0.7000000000000001,-1.3,0.1,8.4,1.3,-13.5,-24.6,1.6
1698672757.979,16,-0.30000000000000004,-0.7000000000000001,-1.3,-0.1,8.4,1.3,-9.5,-27.3,2.4000000000000004
1698672757.996,16,-0.6000000000000001,-0.6000000000000001,-1.4000000000000001,-0.4,8.5,1.2000000000000002,-1.9,-28.200000000000003,5.1
1698672758.013,16,-0.6000000000000001,-0.30000000000000004,-1.3,-0.4,8.8,1.2000000000000002,5.2,-32.5,5.300000000000001
1698672758.029,16,-0.5,0.0,-1.2000000000000002,-0.2,9.1,1.3,8.799999999999999,-36.7,3.8
1698672758.045,16,0.2,0.4,-0.9,0.5,9.5,1.6,15.5,-40.6,2.1
1698672758.062,16,0.4,0.7000000000000001,-0.9,0.8,9.8,1.5,17.599999999999998,-37.5,5.500000000000001
1698672758.079,16,0.30000000000000004,0.9,-1.0,0.7000000000000001,10.100000000000001,1.4000000000000001,16.3,-35.7,8.4
1698672758.095,16,0.30000000000000004,1.0,-0.7000000000000001,0.7000000000000001,10.200000000000001,1.7000000000000002,9.700000000000001,-39.00000000000001,8.5
1698672758.112,16,0.30000000000000004,0.9,-0.4,0.8,10.0,1.9000000000000001,6.5,-40.2,5.0
1698672758.129,16,0.4,0.8,-0.30000000000000004,0.9,9.9,2.0,-3.4,-33.5,-1.5000000000000002
1698672758.145,16,0.4,0.6000000000000001,-0.5,0.9,9.700000000000001,1.8,-18.2,-19.1,-0.1
1698672758.162,16,0.1,0.6000000000000001,-0.8,0.8,9.700000000000001,1.6,-34.900000000000006,-6.9,3.5
1698672758.179,16,-0.1,0.8,-0.6000000000000001,0.4,9.9,1.9000000000000001,-40.3,-2.7,4.2
1698672758.197,16,0.1,1.5,-0.6000000000000001,0.7000000000000001,10.600000000000001,2.0,-40.8,-2.8,2.7
1698672758.212,16,0.5,2.4000000000000004,-0.4,1.1,11.5,2.3000000000000003,-36.800000000000004,-8.0,-1.3
1698672758.229,16,0.7000000000000001,2.3000000000000003,-0.4,1.3,11.4,2.4000000000000004,-33.0,-2.1999999999999997,-2.8
1698672758.245,16,0.9,1.4000000000000001,0.0,1.5,10.4,2.8000000000000003,-21.200000000000003,1.5000000000000002,-2.7
1698672758.262,16,1.0,1.1,0.1,1.6,9.9,3.0,-6.3,7.500000000000001,1.2000000000000002
1698672758.279,16,1.1,0.8,0.2,1.7000000000000002,9.8,3.1,-0.6000000000000001,14.4,2.8
1698672758.296,16,0.9,0.8,0.4,1.4000000000000001,9.9,3.3000000000000003,8.700000000000001,26.0,4.6000000000000005
1698672758.312,16,0.4,0.9,0.2,1.0,10.0,3.1,11.000000000000002,31.4,6.7
1698672758.329,16,-0.4,0.9,-0.2,0.2,10.0,2.7,8.799999999999999,33.900000000000006,12.5
1698672758.346,16,-0.9,0.30000000000000004,-0.4,-0.30000000000000004,9.4,2.5,1.3,22.6,11.5
1698672758.363,16,-1.0,-0.1,-0.5,-0.4,9.0,2.4000000000000004,-3.0000000000000004,17.200000000000003,9.200000000000001
1698672758.379,16,-1.1,-0.6000000000000001,-0.1,-0.5,8.5,2.8000000000000003,-8.200000000000001,13.0,3.5
1698672758.396,16,-1.0,-0.8,0.1,-0.5,8.3,3.0,-7.2,12.100000000000001,1.0
1698672758.412,16,-0.5,-0.8,0.8,0.1,8.200000000000001,3.7,7.500000000000001,10.1,-5.7
1698672758.429,16,0.0,-0.9,1.3,0.5,8.200000000000001,4.1000000000000005,15.9,6.2,-0.30000000000000004
1698672758.446,16,0.0,-0.9,1.5,0.5,8.200000000000001,4.3,18.8,4.6000000000000005,4.2
1698672758.462,16,-0.30000000000000004,-0.9,1.6,0.2,8.200000000000001,4.4,20.5,-2.6,12.5
1698672758.479,16,-0.5,-0.9,1.7000000000000002,-0.1,8.200000000000001,4.5,19.500000000000004,-7.400000000000001,14.4
1698672758.495,16,-0.7000000000000001,-0.8,1.7000000000000002,-0.1,8.3,4.5,13.6,-11.5,13.4
1698672758.513,16,-0.7000000000000001,-0.9,1.6,0.0,8.200000000000001,4.3,4.5,-12.100000000000001,8.5
1698672758.529,16,-0.7000000000000001,-0.8,1.5,0.1,8.3,4.1000000000000005,-3.8,-10.700000000000001,3.8
1698672758.545,16,-0.5,-0.9,1.1,0.2,8.200000000000001,3.9000000000000004,-6.4,-11.3,1.7
1698672758.562,16,-0.30000000000000004,-1.0,0.9,0.4,8.1,3.7,-8.0,-14.0,-3.4
1698672758.579,16,0.1,-0.8,1.0,0.8,8.200000000000001,3.8000000000000003,-4.2,-11.6,-5.7
1698672758.596,16,0.30000000000000004,-0.5,0.9,1.0,8.6,3.7,-0.7,-8.799999999999999,-5.1
1698672758.612,16,0.8,-0.1,0.9,1.5,8.9,3.6,5.9,-5.9,-2.3000000000000003
1698672758.629,16,1.0,-0.2,0.8,1.7000000000000002,8.9,3.5,8.1,-5.4,-0.5
1698672758.646,16,1.0,-0.4,0.5,1.8,8.700000000000001,3.3000000000000003,8.799999999999999,-3.6,1.8
1698672758.662,16,1.0,-0.4,0.5,1.8,8.700000000000001,3.3000000000000003,8.799999999999999,-3.6,1.8
1698672758.68,16,0.7000000000000001,-0.8,0.4,1.4000000000000001,8.200000000000001,3.2,6.4,-0.6000000000000001,-0.2
1698672758.696,16,0.6000000000000001,-0.8,0.5,1.4000000000000001,8.200000000000001,3.2,7.2,5.300000000000001,-3.0000000000000004
1698672758.712,16,0.7000000000000001,-0.8,0.5,1.5,8.4,3.2,8.5,9.0,-3.5
1698672758.729,16,0.8,-0.6000000000000001,0.6000000000000001,1.5,8.4,3.2,11.8,14.200000000000001,-1.0999999999999999
1698672758.746,16,0.7000000000000001,-0.6000000000000001,0.5,1.4000000000000001,8.5,3.1,14.200000000000001,10.600000000000001,6.4
1698672758.763,16,0.4,-0.2,0.5,1.3,8.700000000000001,3.1,14.0,9.0,11.000000000000002
1698672758.78,16,0.1,0.0,0.5,0.9,9.0,3.1,11.3,9.8,13.100000000000001
1698672758.795,16,0.0,-0.1,0.30000000000000004,0.7000000000000001,9.0,2.9000000000000004,6.1000000000000005,8.799999999999999,7.9
1698672758.812,16,0.1,-0.2,0.1,0.9,8.8,2.7,-0.2,11.700000000000001,2.0
1698672758.829,16,0.30000000000000004,-0.4,-0.1,1.0,8.700000000000001,2.5,-2.5,12.5,0.30000000000000004
1698672758.847,16,0.4,-0.4,-0.30000000000000004,1.2000000000000002,8.700000000000001,2.3000000000000003,-6.3,14.3,-0.9
1698672758.863,16,0.30000000000000004,-0.1,-0.5,1.1,8.9,2.1,-7.2,15.6,-0.1
1698672758.879,16,0.1,0.1,-0.7000000000000001,0.9,9.1,2.0,-5.6,13.9,2.0
1698672758.896,16,-0.1,0.1,-0.8,0.6000000000000001,9.200000000000001,1.9000000000000001,-4.1000000000000005,13.3,3.6
1698672758.913,16,-0.30000000000000004,0.1,-0.9,0.5,9.200000000000001,1.7000000000000002,-2.7,11.700000000000001,4.5
1698672758.929,16,-0.5,0.1,-0.9,0.30000000000000004,9.200000000000001,1.7000000000000002,1.2000000000000002,5.2,3.3000000000000003
1698672758.948,16,-0.2,0.0,-0.9,0.5,9.1,1.7000000000000002,4.2,-0.5,-1.5000000000000002
1698672758.962,16,0.1,0.1,-0.7000000000000001,0.9,9.1,1.9000000000000001,4.6000000000000005,-4.3999999999999995,-5.4
1698672758.979,16,0.2,0.1,-0.4,1.0,9.0,2.3000000000000003,5.1,-3.7000000000000006,-5.6
1698672758.996,16,0.2,-0.30000000000000004,-0.30000000000000004,0.9,8.700000000000001,2.3000000000000003,5.6,-2.7,-4.3999999999999995
1698672759.015,16,0.1,-0.6000000000000001,-0.5,0.8,8.5,2.0,4.3999999999999995,1.0999999999999999,-1.5000000000000002
1698672759.03,16,0.1,-0.30000000000000004,-0.8,0.7000000000000001,8.6,1.8,2.8,2.1,-0.2
1698672759.046,16,0.30000000000000004,-0.1,-0.8,1.0,9.0,1.7000000000000002,-0.7,3.2,-0.7
1698672759.063,16,0.7000000000000001,0.30000000000000004,-0.6000000000000001,1.4000000000000001,9.4,2.0,-0.9,9.3,-4.5
1698672759.079,16,0.9,0.5,-0.4,1.6,9.600000000000001,2.1,3.3000000000000003,13.4,-5.500000000000001
1698672759.095,16,0.9,0.4,-0.5,1.6,9.5,2.0,5.4,15.2,-4.3999999999999995
1698672759.112,16,0.9,0.1,-0.6000000000000001,1.6,9.1,1.9000000000000001,5.6,16.0,1.7
1698672759.129,16,0.6000000000000001,0.1,-0.5,1.3,9.200000000000001,1.9000000000000001,2.0,14.600000000000001,9.4
1698672759.146,16,0.5,0.4,-0.5,1.2000000000000002,9.4,2.0,-1.0,18.0,11.4
1698672759.162,16,0.6000000000000001,0.5,-0.4,1.3,9.600000000000001,2.1,-6.1000000000000005,22.8,9.9
1698672759.179,16,0.9,0.4,-0.5,1.7000000000000002,9.5,2.0,-9.9,29.1,5.9
1698672759.196,16,1.1,0.5,-0.6000000000000001,1.8,9.600000000000001,1.9000000000000001,-12.8,35.7,4.0
1698672759.212,16,1.1,0.7000000000000001,-1.0,1.8,9.700000000000001,1.7000000000000002,-17.9,39.699999999999996,3.1
1698672759.229,16,0.7000000000000001,0.9,-1.1,1.4000000000000001,10.0,1.6,-21.8,29.600000000000005,7.500000000000001
1698672759.246,16,0.5,1.1,-0.7000000000000001,1.2000000000000002,10.200000000000001,2.0,-22.1,25.900000000000002,10.5
1698672759.262,16,-0.1,1.5,-0.30000000000000004,0.6000000000000001,10.600000000000001,2.5,-13.200000000000001,18.5,16.5
1698672759.279,16,-0.30000000000000004,1.5,-0.1,0.5,10.5,2.7,-5.4,10.8,15.6
1698672759.295,16,-0.30000000000000004,1.0,0.0,0.5,10.100000000000001,2.8000000000000003,-3.6,13.6,10.5
1698672759.313,16,-0.2,0.4,-0.2,0.5,9.4,2.6,-4.6000000000000005,10.3,1.0
1698672759.33,16,0.0,0.2,-0.5,0.7000000000000001,9.200000000000001,2.4000000000000004,-13.0,1.7,0.2
1698672759.345,16,0.1,0.30000000000000004,-0.7000000000000001,0.9,9.4,2.1,-24.000000000000004,4.5,1.7
1698672759.362,16,0.5,0.9,-0.5,1.2000000000000002,9.9,2.4000000000000004,-25.6,2.0,1.5000000000000002
1698672759.388,16,0.7000000000000001,0.30000000000000004,0.30000000000000004,1.5,9.3,3.3000000000000003,-8.799999999999999,1.8,0.9
1698672759.395,16,0.6000000000000001,-0.2,0.30000000000000004,1.4000000000000001,8.8,3.4000000000000004,0.6000000000000001,1.5000000000000002,3.4
1698672759.412,16,0.6000000000000001,-0.5,0.4,1.4000000000000001,8.5,3.4000000000000004,8.9,0.5,7.1000000000000005
1698672759.429,16,0.2,-0.9,0.6000000000000001,1.0,8.1,3.6,20.1,0.1,14.100000000000001
1698672759.446,16,-0.30000000000000004,-0.9,1.0,0.6000000000000001,8.1,3.8000000000000003,23.8,0.9,16.5
1698672759.462,16,-0.5,-0.6000000000000001,1.1,0.4,8.4,3.9000000000000004,28.200000000000003,-1.9,18.5
1698672759.479,16,-0.9,-0.1,1.3,0.0,9.0,4.1000000000000005,27.7,-2.8,16.0
1698672759.495,16,-1.1,0.1,1.5,-0.1,9.200000000000001,4.2,25.700000000000003,-0.5,12.9
1698672759.512,16,-1.2000000000000002,0.0,2.0,-0.2,9.0,4.7,20.3,2.8,4.5
1698672759.529,16,-0.8,-0.4,2.2,0.1,8.700000000000001,4.9,13.200000000000001,7.400000000000001,-3.9
1698672759.545,16,-0.4,-0.7000000000000001,2.3000000000000003,0.5,8.4,5.0,8.1,12.200000000000001,-5.9
1698672759.562,16,-0.30000000000000004,-0.7000000000000001,2.1,0.6000000000000001,8.4,4.800000000000001,-0.5,24.000000000000004,-3.8
1698672759.579,16,-0.1,-0.6000000000000001,1.3,0.8,8.5,4.0,-6.9,28.8,0.1
1698672759.595,16,-0.4,-0.7000000000000001,0.8,0.5,8.3,3.6,-9.200000000000001,25.0,2.0
1698672759.613,16,-0.7000000000000001,-0.7000000000000001,0.6000000000000001,-0.2,8.5,3.2,-9.600000000000001,15.000000000000002,5.1
1698672759.629,16,-1.3,-0.4,0.4,-0.5,8.6,3.2,-7.400000000000001,10.9,5.4
1698672759.646,16,-1.7000000000000002,-0.5,0.7000000000000001,-0.8,8.5,3.5,-0.4,4.9,3.4
1698672759.662,16,-1.6,-0.7000000000000001,0.8,-0.8,8.3,3.6,4.800000000000001,3.5,1.3
1698672759.679,16,-0.7000000000000001,-0.8,0.9,0.1,8.3,3.7,11.3,3.2,-6.000000000000001
1698672759.695,16,-0.1,-0.4,1.1,0.8,8.700000000000001,3.9000000000000004,10.600000000000001,1.7,-4.300000000000001
1698672759.713,16,0.0,-0.1,1.2000000000000002,0.8,9.0,3.9000000000000004,8.4,2.9,-1.2000000000000002
1698672759.729,16,-0.5,0.0,0.8,0.30000000000000004,9.0,3.6,2.4000000000000004,3.6,1.8
1698672759.746,16,-0.7000000000000001,-0.2,0.6000000000000001,0.1,8.8,3.4000000000000004,-1.4,3.9,0.2
1698672759.762,16,-1.0,-0.2,0.4,-0.2,8.9,3.2,-6.1000000000000005,2.7,-3.2
1698672759.779,16,-0.9,0.2,0.5,-0.2,9.200000000000001,3.3000000000000003,-5.300000000000001,0.0,-5.500000000000001
1698672759.796,16,-0.8,0.30000000000000004,0.6000000000000001,-0.1,9.3,3.4000000000000004,-2.5,0.4,-6.1000000000000005
1698672759.813,16,-0.5,0.30000000000000004,0.6000000000000001,0.2,9.4,3.4000000000000004,3.3000000000000003,6.4,-11.000000000000002
1698672759.829,16,0.30000000000000004,0.1,0.8,1.0,9.1,3.6,4.6000000000000005,10.9,-17.400000000000002
1698672759.846,16,0.9,-0.5,1.1,1.3,8.8,3.8000000000000003,4.800000000000001,11.700000000000001,-16.700000000000003
1698672759.863,16,1.1,-0.6000000000000001,1.3,1.6,8.4,4.1000000000000005,3.7000000000000006,23.0,-7.8
1698672759.879,16,1.0,-0.6000000000000001,1.1,1.6,8.4,3.9000000000000004,0.6000000000000001,37.4,5.300000000000001
1698672759.897,16,1.0,-0.5,1.0,1.6,8.6,3.8000000000000003,-3.2,42.300000000000004,9.8
1698672759.913,16,0.8,-0.1,1.0,1.4000000000000001,8.9,3.9000000000000004,-10.700000000000001,52.900000000000006,10.700000000000001
1698672759.93,16,0.6000000000000001,0.4,1.0,1.2000000000000002,9.4,3.9000000000000004,-11.6,63.900000000000006,12.000000000000002
1698672759.946,16,0.5,0.4,0.9,1.0,9.4,3.9000000000000004,-10.4,69.7,13.0
1698672759.962,16,0.30000000000000004,0.0,0.6000000000000001,0.7000000000000001,9.0,3.6,-5.9,83.0,12.8
1698672759.979,16,0.0,-0.4,-0.1,0.4,8.6,2.9000000000000004,-4.7,95.4,12.6
1698672759.995,16,-0.1,-0.4,-0.30000000000000004,0.2,8.6,2.7,-6.8,93.0,13.4
1698672760.012,16,-0.30000000000000004,-0.1,-0.30000000000000004,0.0,8.9,2.8000000000000003,-6.6000000000000005,88.5,15.2
1698672760.029,16,-0.4,-0.1,-0.30000000000000004,-0.2,8.9,2.8000000000000003,-5.8,87.2,16.8
1698672760.046,16,-0.5,-0.1,-0.30000000000000004,-0.30000000000000004,8.9,2.9000000000000004,-4.7,86.1,18.6
1698672760.064,16,-0.6000000000000001,-0.2,-0.2,-0.4,8.700000000000001,3.0,-2.8,83.60000000000001,22.3
1698672760.079,16,-0.6000000000000001,-0.1,0.0,-0.4,8.8,3.2,-1.9,83.89999999999999,23.8
1698672760.096,16,-0.7000000000000001,0.0,0.0,-0.5,9.0,3.1,-4.1000000000000005,87.7,24.000000000000004
1698672760.113,16,-0.7000000000000001,0.1,-0.2,-0.5,9.1,3.0,-6.5,87.4,23.400000000000002
1698672760.129,16,-0.7000000000000001,0.1,-0.4,-0.5,9.1,2.8000000000000003,-11.2,83.50000000000001,21.1
1698672760.146,16,-0.7000000000000001,0.0,-0.7000000000000001,-0.6000000000000001,8.9,2.6,-14.100000000000001,80.2,20.4
1698672760.163,16,-0.8,-0.1,-1.0,-0.7000000000000001,8.8,2.3000000000000003,-15.100000000000001,71.30000000000001,24.7
1698672760.179,16,-0.9,-0.1,-1.0,-0.8,8.8,2.3000000000000003,-14.600000000000001,66.7,26.500000000000004
1698672760.196,16,-1.0,-0.1,-1.0,-0.9,8.8,2.3000000000000003,-13.3,60.900000000000006,27.6
1698672760.215,16,-1.0,0.2,-0.8,-0.9,8.9,2.4000000000000004,-5.2,45.1,27.900000000000002
1698672760.229,16,-1.1,0.30000000000000004,-0.9,-0.9,9.200000000000001,2.5,-2.1,41.7,28.0
1698672760.245,16,-1.1,0.4,-1.1,-0.9,9.3,2.2,0.7,30.299999999999997,26.6
1698672760.262,16,-1.0,0.30000000000000004,-1.0,-0.9,9.200000000000001,2.3000000000000003,0.30000000000000004,23.900000000000002,24.400000000000002
1698672760.279,16,-1.2000000000000002,0.1,-0.4,-1.0,9.0,2.9000000000000004,0.9,10.2,19.700000000000003
1698672760.296,16,-0.9,0.4,0.30000000000000004,-0.7000000000000001,9.3,3.6,4.0,6.2,16.700000000000003
1698672760.312,16,-0.5,0.6000000000000001,0.6000000000000001,0.1,9.4,4.2,5.1,6.5,13.4
1698672760.329,16,0.2,0.5,1.2000000000000002,0.5,9.4,4.5,5.9,8.9,4.0
1698672760.345,16,1.3,0.4,1.0,1.6,9.3,4.4,1.0,18.900000000000002,-1.6
1698672760.362,16,1.6,-0.1,0.4,1.8,8.8,3.8000000000000003,-11.5,34.300000000000004,1.8
1698672760.379,16,1.3,-0.4,0.1,1.5,8.5,3.5,-18.3,40.9,6.4
1698672760.396,16,0.30000000000000004,-0.6000000000000001,-0.6000000000000001,0.6000000000000001,8.200000000000001,2.9000000000000004,-25.6,47.7,14.900000000000002
1698672760.414,16,-0.30000000000000004,-0.2,-1.1,0.0,8.6,2.4000000000000004,-25.700000000000003,42.6,21.6
1698672760.429,16,-0.30000000000000004,0.0,-1.2000000000000002,-0.1,8.8,2.3000000000000003,-23.3,32.9,24.400000000000002
1698672760.446,16,-0.5,0.4,-0.6000000000000001,-0.2,9.200000000000001,3.0,-13.4,15.7,29.1
1698672760.462,16,-0.4,0.5,-0.30000000000000004,0.0,9.3,3.3000000000000003,3.2,28.0,25.8
1698672760.48,16,-0.30000000000000004,0.5,-0.30000000000000004,0.0,9.3,3.3000000000000003,11.6,35.4,20.5
1698672760.496,16,-0.1,0.30000000000000004,-0.30000000000000004,0.30000000000000004,9.1,3.2,23.3,38.7,8.3
1698672760.514,16,0.5,-0.1,-0.30000000000000004,0.8,8.8,3.2,23.6,32.2,6.1000000000000005
1698672760.529,16,0.6000000000000001,-0.2,-0.2,1.0,8.6,3.3000000000000003,19.9,32.7,8.200000000000001
1698672760.546,16,0.6000000000000001,-0.4,0.4,0.9,8.5,3.8000000000000003,13.0,37.1,15.000000000000002
1698672760.562,16,0.4,-0.30000000000000004,0.5,0.6000000000000001,8.6,3.9000000000000004,10.5,45.5,21.8
1698672760.579,16,0.1,-0.2,0.5,0.4,8.700000000000001,3.9000000000000004,10.3,48.7,23.900000000000002
1698672760.596,16,-0.1,0.0,0.8,0.30000000000000004,8.8,4.2,12.200000000000001,50.4,25.2
1698672760.612,16,-0.2,0.2,0.9,0.2,8.9,4.3,17.0,52.6,27.8
1698672760.629,16,-0.2,0.30000000000000004,0.9,0.2,9.3,4.2,18.3,53.7,31.3
1698672760.645,16,-0.1,0.1,0.9,0.4,9.1,4.1000000000000005,19.700000000000003,54.4,37.6
1698672760.662,16,0.30000000000000004,-0.6000000000000001,0.9,0.9,8.4,4.1000000000000005,18.7,54.800000000000004,39.699999999999996
1698672760.679,16,0.8,-1.0,0.7000000000000001,1.4000000000000001,7.9,3.9000000000000004,16.3,60.300000000000004,38.300000000000004
1698672760.696,16,0.9,-1.2000000000000002,0.8,1.6,7.800000000000001,3.9000000000000004,15.000000000000002,63.2,37.1
1698672760.712,16,1.3,-1.2000000000000002,1.0,2.0,7.800000000000001,4.1000000000000005,15.2,69.5,36.0
1698672760.728,16,1.5,-0.9,1.1,2.2,8.1,4.2,17.3,80.8,36.2
1698672760.745,16,1.5,-0.7000000000000001,1.1,2.3000000000000003,8.3,4.2,18.1,87.7,37.300000000000004
1698672760.762,16,1.6,-0.30000000000000004,1.0,2.3000000000000003,8.6,4.0,19.700000000000003,96.2,41.0
1698672760.779,16,1.4000000000000001,-0.2,0.8,2.2,8.700000000000001,3.9000000000000004,19.400000000000002,97.10000000000001,44.1
1698672760.795,16,1.1,-0.2,0.5,1.9000000000000001,8.700000000000001,3.5,14.500000000000002,101.0,51.800000000000004
1698672760.812,16,0.5,0.0,0.5,1.4000000000000001,8.9,3.5,11.3,96.60000000000001,54.800000000000004
1698672760.828,16,0.2,0.4,0.4,1.2000000000000002,9.3,3.4000000000000004,10.8,91.60000000000001,53.00000000000001
1698672760.845,16,0.1,0.5,0.30000000000000004,1.1,9.4,3.4000000000000004,10.3,91.9,51.300000000000004
1698672760.862,16,0.0,0.2,0.30000000000000004,1.1,9.1,3.3000000000000003,10.700000000000001,92.4,46.5
1698672760.878,16,0.1,-0.1,0.30000000000000004,1.2000000000000002,8.9,3.3000000000000003,11.4,92.0,41.800000000000004
1698672760.896,16,0.2,-0.1,0.30000000000000004,1.4000000000000001,8.8,3.3000000000000003,11.1,91.9,39.9
1698672760.912,16,0.30000000000000004,-0.2,0.2,1.5,8.8,3.3000000000000003,9.8,93.9,38.0
1698672760.929,16,0.4,-0.1,0.2,1.6,8.8,3.3000000000000003,8.3,91.9,38.6
1698672760.945,16,0.5,-0.1,0.2,1.6,8.8,3.3000000000000003,7.9,91.10000000000001,39.8
1698672760.964,16,0.5,0.0,0.2,1.7000000000000002,8.9,3.3000000000000003,7.6,93.2,41.300000000000004
1698672760.979,16,0.5,0.0,0.1,1.6,8.8,3.2,8.200000000000001,95.7,41.300000000000004
1698672760.996,16,0.5,-0.2,0.0,1.7000000000000002,8.700000000000001,3.1,8.5,98.30000000000001,40.2
1698672761.012,16,0.6000000000000001,-0.5,0.0,1.9000000000000001,8.4,3.1,10.0,98.2,36.800000000000004
1698672761.029,16,0.6000000000000001,-0.6000000000000001,0.0,1.9000000000000001,8.3,3.1,12.700000000000001,98.30000000000001,37.300000000000004
1698672761.046,16,0.5,-0.6000000000000001,-0.1,1.8,8.200000000000001,3.0,13.3,99.6,39.1
1698672761.062,16,0.30000000000000004,-0.4,-0.1,1.6,8.5,3.0,14.100000000000001,100.4,44.1
1698672761.079,16,0.1,-0.4,-0.30000000000000004,1.4000000000000001,8.5,2.9000000000000004,16.400000000000002,100.50000000000001,41.7
1698672761.095,16,0.1,-0.4,-0.30000000000000004,1.5,8.4,2.8000000000000003,17.599999999999998,100.30000000000001,39.00000000000001
1698672761.112,16,0.30000000000000004,-0.6000000000000001,-0.2,1.7000000000000002,8.3,2.9000000000000004,20.5,98.6,34.7
1698672761.129,16,0.5,-0.5,-0.1,1.8,8.4,3.0,25.2,96.5,33.800000000000004
1698672761.145,16,0.6000000000000001,-0.4,-0.1,1.9000000000000001,8.5,3.0,27.400000000000002,97.2,34.400000000000006
1698672761.162,16,0.7000000000000001,-0.2,0.0,2.1,8.700000000000001,3.0,30.799999999999997,97.10000000000001,35.7
1698672761.179,16,0.6000000000000001,-0.30000000000000004,-0.1,2.0,8.6,2.9000000000000004,31.900000000000002,99.7,35.5
1698672761.196,16,0.4,-0.6000000000000001,0.0,1.8,8.3,2.9000000000000004,31.0,103.4,33.400000000000006
1698672761.212,16,0.30000000000000004,-0.6000000000000001,0.0,1.7000000000000002,8.3,2.9000000000000004,31.3,103.60000000000001,32.300000000000004
1698672761.229,16,0.2,-0.30000000000000004,-0.1,1.6,8.700000000000001,2.7,31.3,103.60000000000001,30.000000000000004
1698672761.245,16,0.1,-0.2,-0.1,1.5,8.700000000000001,2.7,31.099999999999998,104.0,28.3
1698672761.262,16,-0.1,-0.1,0.2,1.2000000000000002,8.8,2.9000000000000004,33.6,103.1,25.400000000000002
1698672761.279,16,-0.4,0.2,0.4,1.0,9.200000000000001,3.1,37.2,99.10000000000001,25.3
1698672761.296,16,-0.5,0.30000000000000004,0.6000000000000001,0.9,9.3,3.2,38.0,95.80000000000001,25.900000000000002
1698672761.312,16,-0.9,0.5,1.1,0.4,9.5,3.7,37.900000000000006,88.9,26.1
1698672761.329,16,-1.4000000000000001,0.6000000000000001,1.2000000000000002,-0.1,9.600000000000001,3.8000000000000003,34.6,85.5,27.3
1698672761.345,16,-1.5,0.6000000000000001,1.2000000000000002,-0.2,9.600000000000001,3.7,30.599999999999998,84.5,28.3
1698672761.362,16,-1.3,0.5,0.9,0.1,9.5,3.4000000000000004,18.5,84.7,28.400000000000002
1698672761.38,16,-0.5,0.6000000000000001,0.8,0.8,9.700000000000001,3.3000000000000003,6.6000000000000005,86.7,21.400000000000002
1698672761.395,16,-0.1,0.8,0.8,1.2000000000000002,9.9,3.4000000000000004,3.3000000000000003,90.30000000000001,15.9
1698672761.412,16,0.30000000000000004,0.9,0.6000000000000001,1.6,9.9,3.2,1.5000000000000002,101.8,7.300000000000001
1698672761.43,16,0.2,0.6000000000000001,0.6000000000000001,1.4000000000000001,9.600000000000001,3.2,2.7,107.10000000000001,9.600000000000001
1698672761.445,16,-0.2,0.7000000000000001,0.4,0.9,9.700000000000001,3.1,3.4,111.0,19.3
1698672761.463,16,-0.6000000000000001,0.7000000000000001,0.30000000000000004,0.5,9.700000000000001,3.0,1.4,115.10000000000002,22.6
1698672761.479,16,-1.1,0.4,-0.1,-0.1,9.5,2.7,-5.7,121.19999999999999,25.400000000000002
1698672761.496,16,-1.1,0.30000000000000004,-0.4,-0.1,9.3,2.4000000000000004,-9.700000000000001,121.70000000000002,26.1
1698672761.512,16,-1.0,0.1,-0.6000000000000001,0.0,9.1,2.3000000000000003,-16.0,117.20000000000002,25.0
1698672761.529,16,-1.3,0.0,-0.6000000000000001,-0.30000000000000004,9.0,2.3000000000000003,-16.0,115.90000000000002,22.5
1698672761.546,16,-1.4000000000000001,0.0,-0.7000000000000001,-0.5,9.0,2.2,-13.8,118.3,21.1
1698672761.563,16,-1.6,-0.1,-1.1,-0.8,8.8,2.0,-7.400000000000001,120.3,18.400000000000002
1698672761.579,16,-1.4000000000000001,-0.2,-1.2000000000000002,-0.7000000000000001,8.8,1.8,0.0,115.10000000000002,15.9
1698672761.596,16,-1.3,-0.2,-1.3,-0.6000000000000001,8.700000000000001,1.8,3.9,109.30000000000001,15.000000000000002
1698672761.614,16,-1.1,-0.30000000000000004,-1.4000000000000001,-0.4,8.6,1.7000000000000002,9.1,99.9,18.400000000000002
1698672761.629,16,-1.0,-0.30000000000000004,-1.1,-0.4,8.700000000000001,1.9000000000000001,12.5,92.7,22.8
1698672761.645,16,-1.0,-0.30000000000000004,-0.9,-0.4,8.6,2.1,15.5,89.10000000000001,23.6
1698672761.662,16,-0.9,-0.2,-0.7000000000000001,-0.30000000000000004,8.700000000000001,2.2,21.1,84.80000000000001,23.900000000000002
1698672761.679,16,-0.7000000000000001,0.0,-0.9,-0.2,9.0,2.0,22.6,79.5,24.1
1698672761.695,16,-1.0,0.0,-0.8,-0.4,9.1,2.0,18.0,69.7,25.5
1698672761.713,16,-1.2000000000000002,0.1,-0.8,-0.6000000000000001,9.1,2.1,15.299999999999999,67.5,27.2
1698672761.729,16,-1.5,0.2,-0.6000000000000001,-0.9,9.3,2.2,11.6,64.30000000000001,30.000000000000004
1698672761.745,16,-1.7000000000000002,0.30000000000000004,-0.6000000000000001,-1.1,9.3,2.2,10.600000000000001,62.300000000000004,29.700000000000003
1698672761.762,16,-1.8,0.4,-0.30000000000000004,-1.2000000000000002,9.4,2.4000000000000004,11.6,58.800000000000004,26.0
1698672761.779,16,-1.6,0.4,-0.1,-1.0,9.5,2.6,15.7,59.9,20.900000000000002
1698672761.795,16,-1.5,0.4,-0.1,-0.9,9.5,2.6,17.3,58.7,18.6
1698672761.812,16,-1.3,0.5,0.1,-0.7000000000000001,9.600000000000001,2.8000000000000003,18.6,53.50000000000001,15.9
1698672761.829,16,-1.2000000000000002,0.5,0.1,-0.6000000000000001,9.600000000000001,2.7,15.8,52.300000000000004,17.599999999999998
1698672761.847,16,-1.6,0.6000000000000001,0.30000000000000004,-1.0,9.700000000000001,2.9000000000000004,9.600000000000001,52.400000000000006,20.8
1698672761.864,16,-1.8,0.7000000000000001,0.30000000000000004,-1.2000000000000002,9.9,2.9000000000000004,6.8,54.800000000000004,21.6
1698672761.879,16,-1.9000000000000001,0.6000000000000001,0.30000000000000004,-1.3,9.700000000000001,2.9000000000000004,2.0,55.7,17.9
1698672761.895,16,-1.7000000000000002,0.30000000000000004,0.2,-1.1,9.4,2.8000000000000003,-1.5000000000000002,49.9,13.5
1698672761.912,16,-1.6,0.0,0.2,-1.1,9.1,2.8000000000000003,-3.0000000000000004,48.2,12.3
1698672761.929,16,-1.7000000000000002,-0.1,-0.30000000000000004,-1.2000000000000002,9.1,2.4000000000000004,-6.000000000000001,42.900000000000006,12.8
1698672761.945,16,-2.0,0.1,-0.4,-1.5,9.200000000000001,2.3000000000000003,-9.4,30.4,14.100000000000001
1698672761.964,16,-2.3000000000000003,0.4,-0.2,-1.7000000000000002,9.5,2.5,-8.3,24.000000000000004,13.0
1698672761.979,16,-2.2,0.4,0.0,-1.7000000000000002,9.5,2.7,-5.9,22.4,11.4
1698672761.995,16,-1.8,0.2,0.0,-1.3,9.200000000000001,2.8000000000000003,-0.8,19.9,8.200000000000001
1698672762.013,16,-1.3,-0.30000000000000004,-0.2,-0.8,8.8,2.5,-1.6,16.2,7.8
1698672762.029,16,-1.1,-0.5,-0.2,-0.6000000000000001,8.6,2.6,-3.8,12.9,8.600000000000001
1698672762.045,16,-1.0,-0.6000000000000001,-0.1,-0.5,8.5,2.6,-6.8,7.8,12.100000000000001
1698672762.062,16,-1.0,-0.5,0.1,-0.5,8.6,2.9000000000000004,-6.5,5.4,13.9
1698672762.079,16,-1.0,0.30000000000000004,0.5,-0.4,9.4,3.3000000000000003,-0.9,2.4000000000000004,13.100000000000001
1698672762.095,16,-0.8,1.2000000000000002,0.6000000000000001,-0.2,9.9,3.4000000000000004,2.3000000000000003,2.9,10.3
1698672762.112,16,-0.8,1.2000000000000002,0.6000000000000001,-0.30000000000000004,10.0,3.2,6.1000000000000005,4.800000000000001,3.8
1698672762.129,16,-1.1,0.30000000000000004,0.30000000000000004,-0.5,9.4,3.0,5.1,5.9,3.3000000000000003
1698672762.146,16,-1.3,-0.2,-0.1,-0.7000000000000001,8.9,2.7,2.5,5.4,4.300000000000001
1698672762.162,16,-1.5,-0.8,-0.6000000000000001,-0.9,8.3,2.2,-4.7,0.7,5.9
1698672762.179,16,-1.4000000000000001,-0.7000000000000001,-0.5,-0.7000000000000001,8.4,2.3000000000000003,-8.600000000000001,-3.0000000000000004,6.000000000000001
1698672762.196,16,-1.2000000000000002,-0.5,-0.5,-0.6000000000000001,8.5,2.3000000000000003,-7.9,-3.1,5.300000000000001
1698672762.212,16,-0.8,-0.30000000000000004,-0.4,-0.2,8.8,2.4000000000000004,-2.5,-4.5,2.8
1698672762.229,16,-0.30000000000000004,-0.30000000000000004,-0.2,0.30000000000000004,8.700000000000001,2.6,11.700000000000001,-8.0,1.5000000000000002
1698672762.246,16,-0.30000000000000004,-0.30000000000000004,-0.2,0.30000000000000004,8.700000000000001,2.6,11.700000000000001,-8.0,1.5000000000000002
1698672762.263,16,-0.1,-0.30000000000000004,0.2,0.6000000000000001,8.8,2.8000000000000003,20.2,-6.4,6.4
1698672762.279,16,0.0,-0.2,0.4,0.7000000000000001,8.8,3.0,25.6,-3.6,11.9
1698672762.295,16,0.1,-0.30000000000000004,0.6000000000000001,0.8,8.8,3.1,25.400000000000002,-2.1,15.7
1698672762.312,16,0.1,-0.4,0.7000000000000001,0.8,8.700000000000001,3.2,23.8,-0.6000000000000001,17.3
1698672762.33,16,0.0,-0.4,0.8,0.8,8.8,3.2,19.0,4.9,20.1
1698672762.345,16,0.0,-0.5,0.7000000000000001,0.9,8.700000000000001,3.1,15.2,7.8,19.8
1698672762.362,16,0.0,-0.6000000000000001,0.7000000000000001,1.0,8.6,3.0,13.9,6.1000000000000005,17.5
1698672762.379,16,0.0,-0.5,0.7000000000000001,1.0,8.6,3.1,14.4,5.0,16.400000000000002
1698672762.396,16,0.1,-0.2,0.9,1.1,8.9,3.2,16.900000000000002,6.2,13.700000000000001
1698672762.415,16,0.30000000000000004,0.2,0.7000000000000001,1.4000000000000001,9.3,3.0,16.900000000000002,8.5,10.1
1698672762.431,16,0.4,0.30000000000000004,0.7000000000000001,1.4000000000000001,9.4,3.0,15.299999999999999,10.3,8.5
1698672762.446,16,0.5,0.2,0.5,1.6,9.4,2.8000000000000003,11.4,11.1,8.200000000000001
1698672762.462,16,0.6000000000000001,0.30000000000000004,0.30000000000000004,1.7000000000000002,9.5,2.5,5.300000000000001,12.3,9.600000000000001
1698672762.479,16,0.7000000000000001,0.4,0.2,1.8,9.600000000000001,2.4000000000000004,0.0,12.200000000000001,10.3
1698672762.496,16,0.7000000000000001,0.5,0.2,1.9000000000000001,9.700000000000001,2.4000000000000004,-0.9,11.2,11.700000000000001
1698672762.512,16,0.6000000000000001,0.4,0.1,1.8,9.600000000000001,2.3000000000000003,0.4,11.1,14.900000000000002
1698672762.529,16,0.6000000000000001,0.30000000000000004,0.1,1.8,9.5,2.3000000000000003,1.6,11.4,15.8
1698672762.546,16,0.5,0.1,0.0,1.8,9.3,2.2,4.0,10.5,17.3
1698672762.562,16,0.4,-0.2,-0.1,1.7000000000000002,9.0,2.1,4.1000000000000005,8.3,20.4
1698672762.579,16,0.30000000000000004,-0.2,0.0,1.7000000000000002,8.9,2.1,3.5,6.2,21.400000000000002
1698672762.595,16,0.2,-0.2,0.1,1.6,8.9,2.3000000000000003,1.4,8.600000000000001,18.8
1698672762.612,16,0.1,-0.1,0.1,1.6,9.0,2.3000000000000003,-0.30000000000000004,15.8,13.9
1698672762.63,16,0.2,-0.1,0.1,1.6,9.0,2.3000000000000003,-1.2000000000000002,19.9,11.5
1698672762.645,16,0.30000000000000004,-0.1,-0.1,1.7000000000000002,9.0,2.1,-2.1999999999999997,24.9,8.9
1698672762.662,16,0.2,-0.2,-0.5,1.7000000000000002,8.9,1.8,-4.6000000000000005,26.700000000000003,8.4
1698672762.679,16,0.2,-0.30000000000000004,-0.5,1.7000000000000002,8.8,1.7000000000000002,-6.000000000000001,25.8,9.600000000000001
1698672762.695,16,0.0,-0.2,-0.5,1.5,8.9,1.8,-6.4,21.5,13.9
1698672762.713,16,-0.1,0.0,-0.5,1.5,9.0,1.9000000000000001,-4.6000000000000005,25.8,12.200000000000001
1698672762.73,16,0.0,-0.1,-0.5,1.5,8.9,1.9000000000000001,-2.4000000000000004,27.7,9.200000000000001
1698672762.746,16,0.2,-0.4,-0.6000000000000001,1.7000000000000002,8.700000000000001,1.7000000000000002,2.0,29.800000000000004,4.300000000000001
1698672762.762,16,0.30000000000000004,-0.4,-0.6000000000000001,1.8,8.700000000000001,1.7000000000000002,3.9,33.7,3.3000000000000003
1698672762.779,16,0.4,-0.2,-0.7000000000000001,1.9000000000000001,8.9,1.6,4.2,36.9,2.1999999999999997
1698672762.796,16,0.30000000000000004,0.0,-0.7000000000000001,1.9000000000000001,8.9,1.6,4.2,36.9,2.1999999999999997
1698672762.813,16,0.1,0.0,-0.7000000000000001,1.6,9.1,1.7000000000000002,4.5,30.299999999999997,5.6
1698672762.83,16,-0.30000000000000004,0.0,-0.7000000000000001,1.2000000000000002,9.0,1.6,4.0,33.0,9.600000000000001
1698672762.846,16,-0.30000000000000004,-0.1,-0.7000000000000001,1.2000000000000002,9.0,1.6,3.8,33.900000000000006,8.0
1698672762.862,16,-0.30000000000000004,-0.1,-0.7000000000000001,1.2000000000000002,8.9,1.6,2.9,34.1,4.7
1698672762.88,16,-0.2,-0.2,-0.8,1.2000000000000002,8.9,1.5,2.5,33.0,3.9
1698672762.895,16,-0.1,-0.1,-0.8,1.3,9.0,1.6,1.5000000000000002,28.400000000000002,2.9
1698672762.912,16,0.0,0.1,-0.6000000000000001,1.4000000000000001,9.1,1.7000000000000002,0.9,24.7,1.6
1698672762.929,16,0.0,0.1,-0.6000000000000001,1.4000000000000001,9.200000000000001,1.7000000000000002,0.30000000000000004,24.1,1.2000000000000002
1698672762.945,16,0.0,0.1,-0.6000000000000001,1.4000000000000001,9.1,1.8,-1.0999999999999999,21.400000000000002,1.0
1698672762.962,16,0.0,0.2,-0.5,1.4000000000000001,9.3,1.9000000000000001,-3.1,20.0,1.0
1698672762.98,16,0.0,0.2,-0.6000000000000001,1.4000000000000001,9.3,1.8,-4.0,20.6,1.5000000000000002
1698672762.995,16,0.0,0.1,-0.7000000000000001,1.4000000000000001,9.200000000000001,1.7000000000000002,-6.9,20.900000000000002,2.3000000000000003
1698672763.013,16,0.2,0.2,-0.8,1.6,9.200000000000001,1.6,-11.000000000000002,18.8,2.3000000000000003
1698672763.028,16,0.30000000000000004,0.6000000000000001,-0.7000000000000001,1.6,9.600000000000001,1.7000000000000002,-15.5,26.9,2.0
1698672763.045,16,0.4,0.6000000000000001,-0.9,1.8,9.600000000000001,1.6,-16.6,26.9,1.9
1698672763.062,16,0.5,0.7000000000000001,-0.7000000000000001,1.9000000000000001,9.700000000000001,1.8,-18.0,13.9,1.6
1698672763.079,16,0.4,0.8,-0.4,1.8,9.9,2.2,-17.400000000000002,10.5,2.4000000000000004
1698672763.096,16,0.2,1.6,-0.1,1.7000000000000002,10.200000000000001,2.4000000000000004,-15.5,8.5,4.300000000000001
1698672763.113,16,0.0,1.9000000000000001,-0.2,1.4000000000000001,10.9,2.5,-12.100000000000001,5.2,9.3
1698672763.129,16,-0.30000000000000004,2.2,-0.30000000000000004,1.1,11.200000000000001,2.3000000000000003,-13.100000000000001,3.1,11.000000000000002
1698672763.147,16,-0.5,1.8,-0.5,0.9,10.5,2.2,-22.7,-5.8,1.3
1698672763.162,16,-0.5,1.5,-0.5,0.9,10.100000000000001,2.1,-27.400000000000002,-7.2,-1.7
1698672763.179,16,-0.4,0.7000000000000001,-0.7000000000000001,1.1,9.700000000000001,2.1,-32.1,-7.8,-3.5
1698672763.196,16,-0.1,0.8,-0.5,1.3,9.700000000000001,2.5,-36.5,-6.6000000000000005,-4.800000000000001
1698672763.212,16,0.1,1.2000000000000002,0.6000000000000001,1.5,10.200000000000001,3.6,-24.5,-12.4,-7.9
1698672763.23,16,0.1,1.3,0.8,1.5,10.0,3.8000000000000003,3.6,-27.900000000000002,-6.8
1698672763.246,16,-0.1,0.5,0.9,1.3,9.5,3.9000000000000004,15.100000000000001,-29.500000000000004,-4.9
1698672763.262,16,-0.7000000000000001,-0.5,1.2000000000000002,0.7000000000000001,8.5,4.1000000000000005,31.4,-19.700000000000003,-4.2
1698672763.279,16,-0.8,-1.2000000000000002,1.4000000000000001,0.6000000000000001,8.1,4.1000000000000005,37.300000000000004,-19.9,-4.3999999999999995
1698672763.296,16,-0.8,-1.2000000000000002,1.5,0.7000000000000001,7.800000000000001,4.2,41.6,-25.8,-4.7
1698672763.312,16,-0.8,-1.2000000000000002,1.5,0.7000000000000001,7.800000000000001,4.2,39.50000000000001,-23.5,-4.800000000000001
1698672763.331,16,-0.8,-1.3,1.6,0.6000000000000001,7.800000000000001,4.1000000000000005,30.7,-24.1,-5.1
1698672763.348,16,-1.0,-1.6,1.9000000000000001,0.5,7.5,4.4,19.9,-29.500000000000004,-7.1000000000000005
1698672763.362,16,-1.2000000000000002,-1.8,2.0,0.30000000000000004,7.300000000000001,4.4,11.3,-26.9,-9.8
1698672763.379,16,-1.3,-1.6,1.8,0.1,7.4,4.2,6.4,-17.9,-12.000000000000002
1698672763.396,16,-1.3,-1.4000000000000001,1.6,0.1,7.7,4.1000000000000005,5.500000000000001,-14.4,-12.8
1698672763.412,16,-1.1,-1.0,1.3,0.2,8.1,3.7,6.000000000000001,-14.500000000000002,-12.700000000000001
1698672763.431,16,-1.0,-0.9,1.1,0.2,8.1,3.5,6.8,-16.6,-11.3
1698672763.446,16,-1.1,-0.7000000000000001,1.2000000000000002,0.1,8.4,3.5,14.200000000000001,-24.6,-5.2
1698672763.462,16,-1.2000000000000002,-0.5,1.2000000000000002,0.1,8.6,3.5,17.8,-27.400000000000002,-4.800000000000001
1698672763.479,16,-1.2000000000000002,-0.1,1.2000000000000002,0.0,9.0,3.5,23.5,-30.4,-7.6
1698672763.495,16,-1.2000000000000002,-0.1,1.3,0.0,9.1,3.5,25.400000000000002,-31.099999999999998,-10.9
1698672763.512,16,-1.2000000000000002,-0.5,1.3,0.0,8.700000000000001,3.4000000000000004,26.8,-30.9,-19.0
1698672763.53,16,-0.9,-0.9,1.1,0.30000000000000004,8.3,3.2,22.4,-27.400000000000002,-25.1
1698672763.546,16,-0.7000000000000001,-0.8,1.1,0.5,8.700000000000001,3.0,18.6,-25.900000000000002,-26.1
1698672763.566,16,-0.4,-0.1,1.0,0.6000000000000001,9.1,3.0,9.9,-22.1,-23.1
1698672763.579,16,-0.2,0.6000000000000001,1.1,0.8,9.9,3.0,3.4,-19.3,-18.5
1698672763.595,16,-0.2,0.7000000000000001,1.1,0.8,10.0,3.1,1.9,-17.599999999999998,-17.0
1698672763.612,16,-0.1,0.4,0.9,0.8,9.700000000000001,2.8000000000000003,0.8,-11.6,-15.5
1698672763.629,16,0.0,0.0,0.6000000000000001,0.9,9.200000000000001,2.5,-2.4000000000000004,-7.500000000000001,-14.200000000000001
1698672763.646,16,0.0,-0.2,0.4,0.7000000000000001,9.0,2.2,-6.1000000000000005,-3.6,-10.3
1698672763.662,16,-0.30000000000000004,-0.30000000000000004,0.0,0.6000000000000001,9.0,2.0,-7.9,-5.2,-7.9
1698672763.679,16,-0.4,-0.2,-0.1,0.4,9.0,1.9000000000000001,-9.4,-8.5,-5.6
1698672763.696,16,-0.7000000000000001,-0.2,-0.5,0.1,9.0,1.5,-12.700000000000001,-16.0,-1.6
1698672763.713,16,-0.9,-0.4,-0.6000000000000001,-0.1,8.8,1.4000000000000001,-16.0,-22.6,0.5
1698672763.729,16,-1.1,-0.5,-0.7000000000000001,-0.2,8.700000000000001,1.4000000000000001,-17.5,-26.700000000000003,0.4
1698672763.746,16,-1.0,-0.5,-0.8,-0.2,8.6,1.4000000000000001,-17.3,-29.600000000000005,-3.0000000000000004
1698672763.762,16,-1.0,-0.5,-0.7000000000000001,-0.1,8.700000000000001,1.5,-16.2,-29.500000000000004,-5.4
1698672763.779,16,-0.8,-0.5,-0.8,0.1,8.700000000000001,1.4000000000000001,-13.100000000000001,-29.600000000000005,-9.5
1698672763.796,16,-0.6000000000000001,-0.4,-0.9,0.30000000000000004,8.700000000000001,1.3,-11.8,-31.2,-8.700000000000001
1698672763.813,16,-0.2,-0.30000000000000004,-0.7000000000000001,0.6000000000000001,8.9,1.5,-9.0,-32.7,-5.2
1698672763.829,16,0.2,0.0,-0.6000000000000001,1.1,9.1,1.7000000000000002,-3.3000000000000003,-34.7,-1.9
1698672763.845,16,0.30000000000000004,0.1,-0.4,1.2000000000000002,9.200000000000001,1.8,-0.4,-35.6,-0.6000000000000001
1698672763.863,16,0.30000000000000004,0.4,0.0,1.2000000000000002,9.600000000000001,2.2,6.1000000000000005,-32.300000000000004,4.300000000000001
1698672763.879,16,0.1,0.4,0.2,1.2000000000000002,9.600000000000001,2.3000000000000003,9.200000000000001,-28.6,7.400000000000001
1698672763.895,16,-0.1,0.4,0.2,1.0,9.5,2.4000000000000004,10.700000000000001,-20.900000000000002,10.700000000000001
1698672763.912,16,-0.2,0.30000000000000004,0.1,0.8,9.4,2.2,2.8,-15.299999999999999,8.799999999999999
1698672763.928,16,-0.4,0.4,-0.30000000000000004,0.7000000000000001,9.5,1.8,-13.700000000000001,-10.2,6.5
1698672763.946,16,-0.5,0.5,-0.6000000000000001,0.6000000000000001,9.700000000000001,1.6,-23.1,-8.9,5.6
1698672763.964,16,-0.7000000000000001,0.6000000000000001,-0.7000000000000001,0.4,9.700000000000001,1.6,-37.5,-9.8,3.1
1698672763.979,16,-0.7000000000000001,0.9,-0.2,0.4,10.0,2.1,-39.300000000000004,-10.0,-1.4
1698672763.995,16,-0.30000000000000004,1.6,0.30000000000000004,0.8,10.700000000000001,2.8000000000000003,-28.500000000000004,-0.9,-7.699999999999999
1698672764.012,16,0.1,1.7000000000000002,0.1,1.1,10.8,2.6,-14.600000000000001,10.4,-10.700000000000001
1698672764.029,16,0.30000000000000004,1.7000000000000002,0.2,1.3,10.700000000000001,2.7,-9.3,13.3,-9.3
1698672764.045,16,0.6000000000000001,1.6,0.4,1.5,10.700000000000001,3.0,-1.5000000000000002,17.5,-2.3000000000000003
1698672764.063,16,0.6000000000000001,1.6,0.2,1.6,10.700000000000001,2.8000000000000003,-0.5,19.3,2.6
1698672764.079,16,0.6000000000000001,1.5,0.2,1.6,10.600000000000001,2.9000000000000004,-7.1000000000000005,19.500000000000004,11.000000000000002
1698672764.096,16,0.5,1.5,0.5,1.5,10.600000000000001,3.2,-11.6,21.6,12.5
1698672764.113,16,0.1,1.2000000000000002,0.5,1.1,10.3,3.2,-18.400000000000002,30.100000000000005,10.9
1698672764.131,16,-0.5,0.7000000000000001,-0.1,0.6000000000000001,9.8,2.7,-24.9,35.8,8.4
1698672764.146,16,-0.9,0.0,-0.30000000000000004,0.1,9.1,2.6,-27.6,30.799999999999997,6.4
1698672764.162,16,-1.2000000000000002,-0.4,-0.2,-0.2,8.6,2.7,-25.700000000000003,24.400000000000002,5.0
1698672764.179,16,-1.5,-0.9,0.0,-0.6000000000000001,8.1,3.0,-15.8,10.700000000000001,3.6
1698672764.195,16,-1.6,-1.1,0.1,-0.6000000000000001,7.9,3.2,-9.0,5.1,2.8
1698672764.212,16,-1.1,-0.8,1.1,-0.1,8.200000000000001,4.1000000000000005,5.7,3.5,-2.6
1698672764.229,16,-0.2,-0.4,1.9000000000000001,0.8,8.6,4.9,23.2,-5.8,-6.2
1698672764.245,16,0.30000000000000004,-0.4,2.5,1.1,8.8,5.2,29.000000000000004,-9.8,-4.5
1698672764.262,16,0.1,-0.8,2.3000000000000003,1.1,8.200000000000001,5.2,32.2,-8.9,4.9
1698672764.279,16,-0.1,-1.9000000000000001,1.9000000000000001,0.9,7.2,4.7,20.5,-7.6,16.700000000000003
1698672764.295,16,-0.30000000000000004,-2.1,1.6,0.7000000000000001,6.9,4.3,2.0,-8.0,19.200000000000003
1698672764.312,16,-0.30000000000000004,-2.0,1.4000000000000001,0.8,7.0,4.2,-6.1000000000000005,-8.3,16.700000000000003
1698672764.329,16,-0.2,-1.5,1.3,0.9,7.5,4.2,-13.3,-7.6,10.600000000000001
1698672764.346,16,-0.1,-1.0,1.4000000000000001,1.1,8.0,4.2,-8.200000000000001,-5.500000000000001,4.0
1698672764.362,16,0.0,-0.8,1.3,1.2000000000000002,8.3,4.2,5.0,-7.0,-2.6
1698672764.379,16,0.2,-0.8,1.3,1.4000000000000001,8.200000000000001,4.2,11.4,-5.8,-5.4
1698672764.396,16,0.5,-1.3,1.3,1.7000000000000002,7.7,4.2,19.9,-2.3000000000000003,-8.200000000000001
1698672764.412,16,0.7000000000000001,-1.4000000000000001,1.4000000000000001,1.8,7.6000000000000005,4.2,21.5,0.2,-7.699999999999999
1698672764.431,16,1.0,-1.2000000000000002,1.4000000000000001,2.1,7.800000000000001,4.2,19.6,3.9,-3.6
1698672764.446,16,1.1,-1.0,1.3,2.2,8.0,4.0,12.700000000000001,7.2,4.0
1698672764.462,16,0.8,-0.8,1.1,1.9000000000000001,8.200000000000001,3.8000000000000003,5.300000000000001,10.9,12.100000000000001
1698672764.479,16,0.5,-0.8,0.9,1.7000000000000002,8.200000000000001,3.6,3.7000000000000006,15.000000000000002,13.3
1698672764.497,16,0.1,-0.7000000000000001,0.6000000000000001,1.3,8.3,3.3000000000000003,5.0,20.6,10.700000000000001
1698672764.512,16,0.0,-0.6000000000000001,0.4,1.2000000000000002,8.4,3.1,6.5,21.700000000000003,9.700000000000001
1698672764.53,16,0.0,-0.2,0.30000000000000004,1.2000000000000002,8.8,3.0,10.3,21.5,9.5
1698672764.545,16,0.1,0.4,0.4,1.3,9.4,3.1,15.5,16.6,10.700000000000001
1698672764.562,16,0.1,0.4,0.5,1.3,9.4,3.1,18.0,15.5,10.9
1698672764.579,16,0.1,0.1,0.5,1.3,9.200000000000001,3.1,17.0,15.2,10.5
1698672764.595,16,0.1,-0.4,0.5,1.4000000000000001,8.6,3.0,11.9,14.500000000000002,9.200000000000001
1698672764.612,16,0.1,-0.6000000000000001,0.4,1.4000000000000001,8.5,2.9000000000000004,8.4,14.600000000000001,9.1
1698672764.629,16,0.1,-0.7000000000000001,0.1,1.4000000000000001,8.3,2.7,1.7,17.599999999999998,9.8
1698672764.645,16,0.1,-0.9,-0.2,1.4000000000000001,8.1,2.4000000000000004,-1.9,21.700000000000003,9.8
1698672764.663,16,0.0,-0.8,-0.30000000000000004,1.3,8.3,2.1,-2.6,23.0,9.9
1698672764.679,16,-0.1,-0.5,-0.5,1.2000000000000002,8.5,2.1,-2.1,24.1,10.8
1698672764.695,16,-0.2,-0.2,-0.6000000000000001,1.1,8.8,1.9000000000000001,1.4,21.3,10.600000000000001
1698672764.713,16,-0.30000000000000004,-0.1,-0.7000000000000001,1.0,8.8,1.9000000000000001,4.1000000000000005,19.3,9.200000000000001
1698672764.733,16,-0.5,-0.1,-0.7000000000000001,0.8,8.9,1.8,11.1,16.2,6.1000000000000005
1698672764.746,16,-0.5,-0.2,-1.0,0.9,8.8,1.5,16.6,15.000000000000002,3.4
1698672764.763,16,-0.4,-0.4,-1.1,1.0,8.6,1.4000000000000001,17.7,14.900000000000002,2.5
1698672764.779,16,0.0,-0.5,-1.2000000000000002,1.4000000000000001,8.5,1.2000000000000002,17.0,13.0,0.6000000000000001
1698672764.795,16,0.30000000000000004,0.0,-0.9,1.6,9.0,1.5,17.0,8.9,1.2000000000000002
1698672764.814,16,0.4,0.5,-0.6000000000000001,1.7000000000000002,9.5,1.7000000000000002,19.6,8.200000000000001,4.9
1698672764.831,16,0.30000000000000004,0.6000000000000001,-0.6000000000000001,1.7000000000000002,9.600000000000001,1.7000000000000002,21.0,8.600000000000001,6.2
1698672764.846,16,0.2,0.6000000000000001,-0.4,1.6,9.600000000000001,1.8,23.3,10.2,4.800000000000001
1698672764.862,16,0.30000000000000004,0.6000000000000001,-0.4,1.7000000000000002,9.600000000000001,1.7000000000000002,22.900000000000002,12.3,0.7
1698672764.879,16,0.4,0.5,-0.4,1.7000000000000002,9.600000000000001,1.6,20.6,15.299999999999999,-0.7
1698672764.895,16,0.4,0.5,-0.4,1.7000000000000002,9.600000000000001,1.6,12.3,20.3,-0.30000000000000004
1698672764.912,16,0.4,0.6000000000000001,-0.2,1.7000000000000002,9.700000000000001,1.9000000000000001,3.9,18.0,0.9
1698672764.929,16,0.5,0.6000000000000001,0.0,1.8,9.8,2.1,1.0,17.0,0.2
1698672764.946,16,0.6000000000000001,0.5,0.1,2.0,9.600000000000001,2.2,-3.1,23.1,-3.1
1698672764.963,16,0.7000000000000001,0.30000000000000004,0.1,2.1,9.5,2.1,-5.500000000000001,27.900000000000002,-4.5
1698672764.979,16,0.9,0.2,-0.1,2.2,9.3,2.0,-11.000000000000002,38.2,-4.0
1698672764.996,16,0.9,0.30000000000000004,-0.5,2.1,9.4,1.7000000000000002,-16.6,41.1,-1.8
1698672765.014,16,0.6000000000000001,0.6000000000000001,-0.30000000000000004,1.8,9.8,1.9000000000000001,-21.0,34.50000000000001,3.4
1698672765.029,16,0.4,1.5,-0.2,1.8,10.100000000000001,2.0,-20.7,29.200000000000003,6.5
1698672765.046,16,0.30000000000000004,1.8,-0.1,1.5,10.9,2.3000000000000003,-17.9,24.5,11.3
1698672765.062,16,-0.1,1.6,-0.2,1.2000000000000002,10.700000000000001,2.2,-15.9,29.200000000000003,12.9
1698672765.079,16,-0.30000000000000004,1.2000000000000002,-0.4,1.0,10.3,2.1,-16.2,17.400000000000002,10.9
1698672765.095,16,-0.4,1.0,-0.5,0.9,10.100000000000001,2.0,-18.6,12.5,8.4
1698672765.113,16,-0.5,0.7000000000000001,-0.5,0.8,9.700000000000001,2.0,-22.1,10.3,4.800000000000001
1698672765.129,16,-0.4,0.30000000000000004,-0.5,0.8,9.4,2.1,-29.300000000000004,7.500000000000001,-2.4000000000000004
1698672765.148,16,-0.30000000000000004,0.30000000000000004,-0.1,1.0,9.3,2.6,-29.200000000000003,3.7000000000000006,-5.8
1698672765.162,16,-0.1,0.7000000000000001,0.30000000000000004,1.2000000000000002,9.700000000000001,3.1,-20.4,0.9,-7.8
1698672765.179,16,-0.2,0.9,0.7000000000000001,1.0,9.9,3.6,-12.000000000000002,-3.3000000000000003,-8.600000000000001
1698672765.195,16,-0.4,0.4,0.8,0.8,9.5,3.6,6.5,-11.6,-5.2
1698672765.212,16,-0.6000000000000001,-0.30000000000000004,0.8,0.5,8.700000000000001,3.6,14.900000000000002,-13.4,-4.800000000000001
1698672765.231,16,-0.7000000000000001,-0.7000000000000001,0.8,0.5,8.3,3.5,15.6,-13.0,-5.4
1698672765.246,16,-0.7000000000000001,-1.0,0.9,0.5,8.1,3.6,12.200000000000001,-12.100000000000001,-7.1000000000000005
1698672765.262,16,-0.7000000000000001,-0.8,1.1,0.4,8.1,3.7,9.9,-12.6,-7.8
1698672765.279,16,-0.7000000000000001,-0.8,1.2000000000000002,0.4,8.3,3.9000000000000004,6.2,-16.5,-9.8
1698672765.295,16,-0.8,-0.8,1.4000000000000001,0.30000000000000004,8.200000000000001,4.1000000000000005,4.6000000000000005,-16.400000000000002,-12.4
1698672765.315,16,-0.7000000000000001,-1.0,1.6,0.30000000000000004,8.1,4.3,5.6,-12.5,-13.200000000000001
1698672765.331,16,-0.5,-1.3,1.6,0.6000000000000001,7.800000000000001,4.2,8.4,-8.700000000000001,-9.8
1698672765.346,16,-0.4,-1.5,1.5,0.6000000000000001,7.6000000000000005,4.1000000000000005,9.5,-6.3,-6.8
1698672765.362,16,-0.5,-1.6,1.2000000000000002,0.5,7.5,3.8000000000000003,10.600000000000001,-2.6,-0.7
1698672765.378,16,-0.8,-1.4000000000000001,1.0,0.2,7.7,3.6,10.3,-1.4,3.2
1698672765.396,16,-1.0,-1.1,0.9,0.0,7.9,3.5,10.0,-1.2000000000000002,3.8
1698672765.412,16,-1.1,-0.5,0.9,-0.1,8.6,3.4000000000000004,10.5,-1.9,3.1
1698672765.429,16,-1.2000000000000002,-0.1,0.9,-0.1,8.9,3.4000000000000004,12.3,-2.3000000000000003,-1.0
1698672765.446,16,-1.1,-0.1,0.9,-0.1,9.0,3.4000000000000004,13.8,-3.0000000000000004,-3.4
1698672765.462,16,-0.8,-0.30000000000000004,0.9,0.2,8.8,3.3000000000000003,17.1,-5.0,-7.6
1698672765.48,16,-0.6000000000000001,-0.30000000000000004,0.9,0.4,8.8,3.3000000000000003,19.8,-5.500000000000001,-7.500000000000001
1698672765.495,16,-0.6000000000000001,-0.30000000000000004,0.9,0.4,8.8,3.3000000000000003,20.5,-5.1,-6.2
1698672765.512,16,-0.6000000000000001,-0.2,0.8,0.30000000000000004,8.9,3.2,20.5,-3.4,-4.0
1698672765.529,16,-0.6000000000000001,-0.1,0.7000000000000001,0.30000000000000004,9.200000000000001,2.9000000000000004,16.700000000000003,-2.0,-3.8
1698672765.546,16,-0.6000000000000001,0.30000000000000004,0.6000000000000001,0.30000000000000004,9.4,2.8000000000000003,13.5,-0.6000000000000001,-4.800000000000001
1698672765.562,16,-0.4,0.5,0.6000000000000001,0.5,9.600000000000001,2.8000000000000003,7.500000000000001,2.1,-7.300000000000001
1698672765.579,16,-0.30000000000000004,0.5,0.5,0.5,9.700000000000001,2.8000000000000003,5.1,3.6,-8.799999999999999
1698672765.595,16,-0.4,0.2,0.30000000000000004,0.5,9.4,2.6,2.3000000000000003,4.2,-9.700000000000001
1698672765.615,16,-0.30000000000000004,0.0,0.30000000000000004,0.5,9.200000000000001,2.5,0.1,2.6,-7.1000000000000005
1698672765.629,16,-0.6000000000000001,-0.1,0.2,0.2,9.1,2.4000000000000004,-0.4,-3.1,-3.3000000000000003
1698672765.646,16,-0.9,0.1,0.1,-0.1,9.3,2.3000000000000003,-0.4,-4.300000000000001,-1.3
1698672765.662,16,-1.0,0.2,0.0,-0.2,9.4,2.2,-0.7,-5.2,-1.4
1698672765.679,16,-1.1,0.30000000000000004,-0.1,-0.30000000000000004,9.4,2.1,-1.5000000000000002,-6.9,-2.4000000000000004
1698672765.696,16,-1.0,0.1,-0.1,-0.2,9.3,2.1,-4.300000000000001,-11.5,-8.4
1698672765.712,16,-0.7000000000000001,0.0,-0.30000000000000004,0.0,9.1,2.0,-6.6000000000000005,-11.2,-17.7
1698672765.73,16,-0.4,-0.2,-0.4,0.30000000000000004,9.0,1.9000000000000001,-7.9,-11.700000000000001,-19.400000000000002
1698672765.747,16,-0.1,-0.30000000000000004,-0.5,0.5,8.8,1.8,-11.2,-11.6,-15.9
1698672765.762,16,-0.1,-0.5,-0.7000000000000001,0.5,8.700000000000001,1.6,-13.5,-13.4,-7.699999999999999
1698672765.779,16,-0.2,-0.5,-0.8,0.4,8.6,1.5,-13.8,-16.0,-4.6000000000000005
1698672765.796,16,-0.4,-0.4,-0.9,0.2,8.700000000000001,1.4000000000000001,-13.700000000000001,-20.6,-2.0
1698672765.812,16,-0.6000000000000001,-0.2,-0.9,0.0,8.9,1.4000000000000001,-11.2,-27.5,-2.5
1698672765.828,16,-0.6000000000000001,-0.1,-0.9,0.0,9.0,1.5,-8.0,-33.300000000000004,-3.2
1698672765.845,16,-0.5,-0.1,-0.7000000000000001,0.1,9.0,1.6,-2.9,-35.4,-4.1000000000000005
1698672765.865,16,-0.4,-0.2,-0.8,0.2,8.9,1.6,-0.5,-35.199999999999996,-4.0
1698672765.879,16,-0.4,-0.2,-0.8,0.30000000000000004,8.9,1.6,2.8,-36.4,-2.7
1698672765.895,16,-0.30000000000000004,-0.2,-0.7000000000000001,0.4,9.1,1.7000000000000002,5.500000000000001,-37.6,-2.3000000000000003
1698672765.913,16,-0.1,0.1,-0.5,0.6000000000000001,9.200000000000001,1.8,6.4,-37.6,-2.7
1698672765.931,16,0.0,0.5,-0.4,0.8,9.600000000000001,1.9000000000000001,6.6000000000000005,-37.300000000000004,-3.5
1698672765.946,16,0.1,0.6000000000000001,-0.4,0.9,9.700000000000001,1.9000000000000001,5.0,-38.1,-3.5
1698672765.962,16,0.2,0.6000000000000001,-0.1,0.9,9.700000000000001,2.1,-0.7,-39.2,-3.7000000000000006
1698672765.979,16,0.0,0.30000000000000004,-0.1,0.8,9.5,2.2,-8.3,-38.1,-2.0
1698672765.996,16,-0.2,0.1,-0.30000000000000004,0.6000000000000001,9.200000000000001,2.0,-18.400000000000002,-33.400000000000006,0.1
1698672766.012,16,-0.30000000000000004,0.0,-0.5,0.5,9.200000000000001,1.8,-23.5,-31.2,1.0
1698672766.031,16,-0.6000000000000001,0.4,-0.9,0.30000000000000004,9.5,1.5,-32.4,-27.3,-1.4
1698672766.045,16,-0.7000000000000001,0.8,-1.2000000000000002,0.1,9.9,1.4000000000000001,-35.9,-26.500000000000004,-6.9
1698672766.062,16,-0.7000000000000001,0.9,-1.3,0.1,10.0,1.3,-36.800000000000004,-24.7,-9.200000000000001
1698672766.079,16,-0.4,1.3,-0.5,0.4,10.4,2.1,-33.300000000000004,-21.8,-12.200000000000001
1698672766.095,16,0.2,2.4000000000000004,-0.2,0.9,11.5,2.5,-15.2,-17.599999999999998,-14.600000000000001
1698672766.113,16,0.6000000000000001,2.3000000000000003,-0.6000000000000001,1.3,11.4,2.1,-8.3,-12.200000000000001,-15.6
1698672766.129,16,0.8,1.8,-0.6000000000000001,1.6,10.9,2.2,-5.500000000000001,-7.2,-15.299999999999999
1698672766.145,16,1.4000000000000001,0.9,0.2,2.2,10.0,2.9000000000000004,3.4,-8.0,0.4
1698672766.162,16,1.2000000000000002,0.9,0.0,2.0,10.0,2.7,2.7,-3.0000000000000004,9.0
1698672766.178,16,0.4,0.9,0.0,1.2000000000000002,10.0,2.7,-8.200000000000001,14.100000000000001,18.900000000000002
1698672766.195,16,0.0,1.1,0.1,0.8,10.100000000000001,2.9000000000000004,-12.5,18.0,17.0
1698672766.212,16,-0.7000000000000001,1.3,0.0,0.2,10.4,2.9000000000000004,-15.299999999999999,15.7,9.0
1698672766.229,16,-0.9,1.0,-0.2,-0.1,10.0,2.7,-16.5,10.8,5.300000000000001
1698672766.245,16,-1.0,0.0,-0.2,-0.2,9.0,2.7,-17.599999999999998,10.2,4.7
1698672766.262,16,-0.9,-0.4,-0.30000000000000004,-0.1,8.700000000000001,2.6,-17.0,9.4,3.1
1698672766.279,16,-0.8,-0.7000000000000001,-0.4,0.0,8.3,2.6,-14.900000000000002,7.9,-3.0000000000000004
1698672766.295,16,-0.8,-0.6000000000000001,-0.2,0.0,8.4,2.8000000000000003,-12.700000000000001,6.6000000000000005,-6.8
1698672766.313,16,-0.8,-0.4,0.30000000000000004,-0.1,8.5,3.4000000000000004,-2.7,3.4,-13.200000000000001
1698672766.329,16,-0.4,-0.5,0.5,0.30000000000000004,8.5,3.5,6.9,2.4000000000000004,-12.200000000000001
1698672766.347,16,0.0,-0.6000000000000001,0.7000000000000001,0.7000000000000001,8.4,3.7,9.0,2.3000000000000003,-9.600000000000001
1698672766.362,16,0.6000000000000001,-1.0,1.3,1.2000000000000002,8.0,4.2,11.4,-2.4000000000000004,-3.4
1698672766.379,16,0.5,-1.2000000000000002,1.4000000000000001,1.2000000000000002,7.9,4.4,10.0,-4.1000000000000005,3.7000000000000006
1698672766.396,16,0.30000000000000004,-1.3,1.6,0.8,7.6000000000000005,4.5,6.1000000000000005,-2.0,9.0
1698672766.412,16,-0.1,-1.5,1.4000000000000001,0.6000000000000001,7.5,4.3,3.9,-1.0,9.600000000000001
1698672766.429,16,-0.30000000000000004,-1.4000000000000001,1.2000000000000002,0.5,7.6000000000000005,4.2,-0.30000000000000004,0.4,7.400000000000001
1698672766.446,16,-0.30000000000000004,-1.2000000000000002,1.2000000000000002,0.5,7.800000000000001,4.2,-1.4,0.8,6.000000000000001
1698672766.462,16,-0.2,-0.5,1.2000000000000002,0.6000000000000001,8.4,4.2,2.9,-8.5,4.3999999999999995
1698672766.479,16,-0.30000000000000004,-0.4,1.2000000000000002,0.5,8.5,4.2,5.2,-9.9,4.0
1698672766.495,16,-0.2,-0.30000000000000004,1.1,0.6000000000000001,8.700000000000001,4.1000000000000005,8.1,-10.4,4.0
1698672766.513,16,0.0,-0.30000000000000004,1.2000000000000002,0.8,8.700000000000001,4.1000000000000005,8.1,-11.6,3.4
1698672766.529,16,0.5,-0.4,1.5,1.3,8.6,4.4,7.6,-8.4,-1.3
1698672766.546,16,0.8,-0.5,1.3,1.7000000000000002,8.5,4.2,6.8,-3.1,-4.800000000000001
1698672766.562,16,1.0,-0.5,1.1,2.0,8.4,4.0,2.3000000000000003,3.8,-5.7
1698672766.58,16,1.2000000000000002,-0.6000000000000001,1.1,2.0,8.4,4.0,0.7,7.300000000000001,-5.9
1698672766.596,16,1.3,-0.6000000000000001,0.9,2.1,8.4,3.8000000000000003,0.5,12.5,-3.7000000000000006
1698672766.612,16,1.1,-0.8,0.5,1.9000000000000001,8.200000000000001,3.4000000000000004,0.1,17.200000000000003,3.7000000000000006
1698672766.628,16,0.8,-0.9,0.30000000000000004,1.2000000000000002,8.1,3.2,-0.30000000000000004,16.400000000000002,9.3
1698672766.646,16,-0.2,-0.8,0.2,1.2000000000000002,8.1,3.2,-0.7,16.0,15.2
1698672766.663,16,-0.5,-0.8,0.1,0.4,8.1,3.1,1.2000000000000002,9.0,20.4
1698672766.694,16,-0.7000000000000001,-0.5,0.1,0.30000000000000004,8.4,3.1,6.1000000000000005,-3.5,18.5
1698672766.695,16,-0.7000000000000001,-0.5,0.1,0.30000000000000004,8.4,3.1,6.1000000000000005,-3.5,18.5
1698672766.712,16,0.5,0.4,0.7000000000000001,1.5,9.3,3.6,16.2,-0.2,6.000000000000001
1698672766.728,16,0.7000000000000001,0.30000000000000004,0.8,1.7000000000000002,9.200000000000001,3.6,17.400000000000002,2.1,4.9
1698672766.745,16,0.9,-0.2,0.6000000000000001,1.9000000000000001,8.8,3.4000000000000004,15.5,2.8,6.000000000000001
1698672766.762,16,0.6000000000000001,-0.5,0.6000000000000001,1.6,8.5,3.4000000000000004,8.600000000000001,1.2000000000000002,11.5
1698672766.779,16,0.30000000000000004,-0.6000000000000001,0.4,1.4000000000000001,8.4,3.2,5.500000000000001,2.0,14.0
1698672766.795,16,0.1,-0.5,0.0,1.2000000000000002,8.5,2.7,-0.8,7.500000000000001,15.399999999999999
1698672766.812,16,0.1,-0.4,-0.1,1.3,8.6,2.7,-2.1999999999999997,9.5,14.4
1698672766.83,16,0.2,0.0,0.0,1.4000000000000001,8.9,2.8000000000000003,-0.1,10.1,10.700000000000001
1698672766.845,16,0.30000000000000004,-0.2,0.0,1.5,8.8,2.7,7.300000000000001,11.1,7.400000000000001
1698672766.862,16,0.4,-0.6000000000000001,-0.30000000000000004,1.5,8.6,2.6,10.3,13.6,6.2
1698672766.879,16,0.30000000000000004,-0.8,-0.30000000000000004,1.6,8.200000000000001,2.4000000000000004,13.0,18.0,6.8
1698672766.896,16,0.30000000000000004,-0.6000000000000001,-0.30000000000000004,1.5,8.3,2.4000000000000004,13.0,20.8,10.700000000000001
1698672766.912,16,0.30000000000000004,-0.5,-0.5,1.6,8.5,2.1,11.4,26.0,12.8
1698672766.931,16,0.5,-0.4,-0.6000000000000001,1.7000000000000002,8.6,2.0,8.9,25.400000000000002,13.200000000000001
1698672766.945,16,0.5,-0.30000000000000004,-0.6000000000000001,1.7000000000000002,8.700000000000001,2.0,8.0,25.1,12.9
1698672766.962,16,0.4,-0.1,-0.5,1.7000000000000002,8.8,2.1,8.1,26.200000000000003,12.100000000000001
1698672766.979,16,0.4,0.30000000000000004,-0.5,1.7000000000000002,9.3,2.1,10.600000000000001,31.8,9.1
1698672766.996,16,0.30000000000000004,0.2,-0.7000000000000001,1.6,9.200000000000001,1.9000000000000001,13.4,39.400000000000006,5.9
1698672767.012,16,0.4,-0.1,-0.8,1.6,8.9,1.8,15.5,42.900000000000006,5.500000000000001
1698672767.029,16,0.4,-0.1,-0.7000000000000001,1.8,8.9,1.8,16.0,43.300000000000004,6.2
1698672767.046,16,0.7000000000000001,-0.1,-0.5,2.0,8.9,2.0,16.5,47.300000000000004,7.1000000000000005
1698672767.062,16,1.0,0.1,-0.30000000000000004,2.2,9.1,2.1,18.1,58.400000000000006,7.400000000000001
1698672767.078,16,1.1,0.30000000000000004,-0.4,2.3000000000000003,9.3,2.0,18.8,65.0,8.5
1698672767.095,16,1.3,0.6000000000000001,-0.7000000000000001,2.5,9.600000000000001,1.7000000000000002,15.399999999999999,79.2,11.3
1698672767.113,16,1.2000000000000002,0.5,-0.8,2.4000000000000004,9.5,1.6,8.3,78.60000000000001,18.3
1698672767.128,16,0.8,0.9,-0.7000000000000001,2.0,9.9,1.7000000000000002,0.2,69.80000000000001,29.600000000000005
1698672767.146,16,0.5,1.1,-0.6000000000000001,1.8,10.200000000000001,1.8,-2.5,73.30000000000001,30.599999999999998
1698672767.162,16,0.6000000000000001,0.8,-0.5,1.9000000000000001,9.9,1.9000000000000001,-2.8,81.2,25.3
1698672767.178,16,0.8,0.6000000000000001,-0.7000000000000001,2.0,9.700000000000001,1.8,-1.9,86.7,22.2
1698672767.195,16,1.2000000000000002,0.30000000000000004,-1.1,2.4000000000000004,9.4,1.4000000000000001,-4.3999999999999995,106.2,18.6
1698672767.212,16,1.5,0.2,-1.3,2.7,9.3,1.4000000000000001,-7.699999999999999,117.1,16.8
1698672767.229,16,1.4000000000000001,0.1,-1.3,2.5,9.1,1.3,-13.200000000000001,105.9,20.0
1698672767.246,16,1.2000000000000002,0.30000000000000004,-1.3,2.3000000000000003,9.3,1.4000000000000001,-14.700000000000001,101.50000000000001,25.0
1698672767.264,16,0.9,0.5,-1.2000000000000002,2.1,9.4,1.5,-15.9,101.9,30.299999999999997
1698672767.279,16,0.2,0.2,-1.4000000000000001,1.4000000000000001,9.200000000000001,1.4000000000000001,-15.2,108.10000000000001,34.900000000000006
1698672767.296,16,0.2,0.1,-1.4000000000000001,1.3,9.0,1.5,-13.100000000000001,113.0,26.6
1698672767.313,16,0.1,1.1,-0.5,1.2000000000000002,10.100000000000001,2.4000000000000004,-2.5,108.4,18.3
1698672767.33,16,0.0,1.9000000000000001,0.0,0.8,11.4,3.4000000000000004,18.1,88.00000000000001,24.3
1698672767.346,16,-0.30000000000000004,2.4000000000000004,0.4,0.5,11.3,3.6,28.3,72.6,28.1
1698672767.362,16,-0.7000000000000001,1.9000000000000001,0.7000000000000001,0.30000000000000004,10.200000000000001,3.7,31.8,61.50000000000001,28.200000000000003
