msFromStart,interval,accx,accy,accz,accGx,accGy,accGz,rotRate_alpha,rotRate_beta,rotRate_gamma
2,0.01666666753590107,0.012232727976888418,-0.251339444129169,0.5626420663118362,1.1709141763549298,-4.017470385742187,-8.417564124298096,22.39904872263946,-18.84773284482635,-6.474242826040822
174,0.01666666753590107,0.5435994756570085,0.3451552074238658,0.5255231727510691,0.9892542349884286,-2.825756217138469,-8.743624462890624,-23.033614277668665,-14.554103470279793,-9.87460341234701
190,0.01666666753590107,0.4245257543239742,0.17066694778501987,-0.03175356713533401,0.8406640579223632,-2.9465137633725997,-9.320478009906411,-20.087678556561297,-14.65834069475065,-5.388819472106838
206,0.01666666753590107,0.3333769452162087,0.07424363234043121,-0.3434621397703886,0.7212532135894522,-3.002178659710288,-9.64698609226644,-12.525422881117407,-9.590499986273038,-0.8609566573809201
223,0.01666666753590107,0.07777984364256263,0.07969137635231018,-0.49085868660509585,0.4537012145996093,-2.9773394020080564,-9.801263046264648,0.1524918039256964,2.786966910156731,2.773448471685395
240,0.01666666753590107,-0.07082772294972091,0.12324030296057462,-0.20748364352881907,0.31663316955566406,-2.9420249275207517,-9.514707035064697,5.403636286850711,7.556376590115799,3.1234544720701165
257,0.01666666753590107,-0.05104373934306204,0.11737871745079755,0.042483635464310644,0.35239652032162994,-2.961926144298911,-9.259424698528647,5.027632665494217,6.623417145721662,2.215240376152113
274,0.01666666753590107,-0.052971382937394076,0.0536418660774827,0.3881728036344051,0.36361934060361234,-3.0310590094968677,-8.911367632183431,-2.542672814773354,2.435683450953805,-0.09093513757756637
291,0.01666666753590107,-0.1071696042560041,-0.04641162256300449,0.5100801044255495,0.42766423501279205,-2.9251155860349534,-8.849268026623129,-9.075321869067425,-0.8878054906780055,-2.1950008180940728
306,0.01666666753590107,-0.06816982885207981,-0.08758271412402391,0.40639118189215656,0.4164414512634277,-2.9276594252988692,-8.967482318115234,-11.493146509775762,-2.923955532028034,-3.6313234330901696
323,0.01666666753590107,0.08747578315082936,-0.17602642899155616,0.16645020687282083,0.4750993554046377,-3.012952567180991,-9.212887988281249,-5.512794235731739,-1.910561858977123,-5.6300532158552254
340,0.01666666753590107,0.12065963881760836,-0.113444592872262,-0.09557985035777092,0.49949032135009763,-3.0319565428584814,-9.450212643322349,0.6997758256345493,-0.09659696419311026,-4.881533638487174
356,0.01666666753590107,0.11078333777375518,-0.011396423283219336,-0.1426362005650997,0.4950011932373047,-2.97838657297343,-9.48178676223755,5.021915370272093,2.2057619945748392,-2.8739544918787208
373,0.01666666753590107,0.10711023875158279,0.23846534950882195,0.034115620091557504,0.5150526321411133,-2.783109207805991,-9.286509689331055,4.0972652778900995,2.2222016195768255,-0.23646675195539496
390,0.01666666753590107,0.06179028388280421,0.20921382832229135,0.20840894168019294,0.4809352584838867,-2.8229131026670333,-9.108291303253173,-0.1001699602119269,0.40344105154139104,0.5448646806594272
406,0.01666666753590107,0.043892296685837204,0.19300883571356534,0.3050824324935674,0.4670189613342285,-2.835781936590373,-9.012523236846924,-3.3258227318938394,-2.588452157685365,-0.9080348034522908
423,0.01666666753590107,0.12200491594672203,0.12925269511789084,0.20363865853846072,0.550965657043457,-2.885760896246135,-9.118167385101318,-2.0146676023064574,-3.049118535125106,-3.3256355420218986
440,0.01666666753590107,0.10105587061606347,0.0010664601877331734,-0.01802256342470646,0.5398924378326162,-2.9940982291072604,-9.345765595898031,2.36022565543762,-1.6080783938466459,-3.4840980652003104
457,0.01666666753590107,0.02952277587596327,0.0033031331986188885,-0.06311375103890896,0.4789899696350097,-2.9806311370298264,-9.393949488830566,5.944724299785944,0.3954517312444595,-2.3295156308253615
473,0.01666666753590107,-0.08461195468492805,0.010002338576316832,0.06584405278563499,0.3779845870971679,-2.9668641852229833,-9.266607888031006,5.5675087467385955,-0.5106824653495695,-1.9202077936324735
490,0.01666666753590107,-0.04702675878666341,0.06144990947991609,0.2696627440661192,0.4186860153198242,-2.9195787024348974,-9.061305095672607,3.8433115874730324,-2.0739912103426033,-3.0197867146213095
506,0.01666666753590107,0.0034694662088528274,0.10086071337014436,0.35997663671970365,0.47150808944702144,-2.885162345831096,-8.96927796936035,1.7906265119160494,-2.7937860002693427,-4.013846043122618
523,0.01666666753590107,0.07630768873076886,0.08321312073767184,0.281250306007266,0.5449801163604483,-2.900425381414592,-9.048735536956787,-2.5880803392624223,-3.6882236046314305,-3.822990067144952
540,0.01666666753590107,0.02754179465919733,0.03476443938910961,0.10898352181017398,0.4900631157806143,-2.939630141338706,-9.224259861645102,-3.6158359791471657,-2.6734685895015713,-2.359763763894998
557,0.01666666753590107,0.016868278823047877,0.048996086098253726,0.044025604209303855,0.474351203918457,-2.918232256262004,-9.291747005462646,-2.301384002624783,0.09041505602486692,-0.3647523788027794
573,0.01666666753590107,0.054200559406168754,0.04889116441905498,-0.0261117618560791,0.512059916598536,-2.9200279075071216,-9.361328491210937,1.8283120806615947,2.473326331017038,1.1440314996545713
590,0.01666666753590107,0.0768433665100485,0.06787088243812323,0.07135667872726917,0.544531203549169,-2.9101518256589767,-9.260472161754965,3.8056763913726157,2.3822790556071216,1.6663647736243017
607,0.01666666753590107,0.04518423619251698,0.08135609469413757,0.13464870894253253,0.5201402741363271,-2.9053631300777196,-9.194033065685629,2.414873998986892,1.4547239983937577,1.4787615685171482
623,0.01666666753590107,0.0017236089222133159,0.04489975669533014,0.16770926702320574,0.48198272171020506,-2.944269491577148,-9.159916861072182,-0.9699248550690688,0.7546911868916866,0.8165236087873426
640,0.01666666753590107,-0.0008994330577552319,0.03701777127385139,0.1805032821446657,0.48063598327636714,-2.945167024938762,-9.14929200668335,-1.703124958459016,0.773947731317774,1.6513319541479268
657,0.01666666753590107,-0.016778920039162037,0.04806055881381035,0.19495266325771807,0.46462475967407224,-2.9282582679748534,-9.136722447967529,-1.7401848178435648,-0.5533150120449081,1.671219437298594
673,0.01666666753590107,0.009043795742467045,0.015760463711619377,0.1933440590173006,0.4875193130493164,-2.9533970931455493,-9.140762663269042,-0.8537380012018628,-2.2534279638016543,0.5225777733976755
690,0.01666666753590107,0.002222973279096186,0.024115035080909727,0.18259353242218493,0.47719431838989257,-2.944119561712444,-9.151985483551025,0.2599982744303963,-2.1567848424707936,0.22676150671205642
707,0.01666666753590107,-0.004476232098601758,0.08229717493653296,0.17856676112413405,0.4659714981079101,-2.8875565474912523,-9.155726423645019,0.11592842725665618,-1.664056810015072,0.27277267584945064
723,0.01666666753590107,-0.020569727156870065,0.08524024265110493,0.17184008321762084,0.4435258940765634,-2.8827681441709396,-9.163357941436766,-2.7547817781271617,-2.785633956051521,0.41162524567307945
740,0.01666666753590107,-0.037304661923833186,0.064704527361691,0.1267640931725502,0.42003271722104396,-2.8950387199401852,-9.211391612243652,-4.6880702377938555,-2.4976853469182423,0.6762736783090644
757,0.01666666753590107,-0.05478584848083556,0.08744535147994756,0.10747311724722385,0.39758714972231535,-2.8616692420408127,-9.234286165618895,-4.6664164036908,-2.0192888656102057,0.30036864112828554
773,0.01666666753590107,-0.03128032360039651,0.05111059403419494,-0.04425298322439193,0.41808750143740325,-2.890848867034912,-9.388412897491454,-0.9940061810918297,-0.6841118539901829,-0.38374508049174855
790,0.01666666753590107,-0.0453335815353319,0.06793605662882328,-0.08173486487865447,0.4059668190002441,-2.87633372720927,-9.425074110412597,2.7170379393302597,1.3240821163652774,-0.19322383714426575
806,0.01666666753590107,-0.07341028678882866,0.1208908172249794,-0.020372341421246526,0.3820247658660635,-2.832190634100139,-9.360729356274009,4.036521844280237,1.3856715329368692,0.039099577986296666
823,0.01666666753590107,-0.01449760416895151,0.12676233960688113,0.008398410511016845,0.443076944732666,-2.835781936590373,-9.328857131195068,2.462725450538355,0.8202483564016738,0.020829995895276152
840,0.01666666753590107,-0.03915777897723019,0.11991174305975437,0.0923649799644947,0.4182371025085449,-2.8440120047971607,-9.24446152267456,2.2817866957921358,1.5096709492758063,0.45689568613107107
857,0.01666666753590107,-0.01910940881334245,0.14457447515130042,0.1412298408985138,0.44068274307250976,-2.822015277044475,-9.194632200622559,1.773696714119409,1.5399543005083502,0.4387741537263959
873,0.01666666753590107,0.044200230123847724,0.08137275356799363,0.23546996708512305,0.504278688137792,-2.8829177817746996,-9.101108113750815,-0.4436780694679064,0.7104740363089049,1.2737914335064735
890,0.01666666753590107,0.019012232049182055,0.025422610548138616,0.23562252729833125,0.4746504791259765,-2.929155801336467,-9.104251672473548,-2.1572849403840855,-0.5082123914692578,1.5685747141214077
907,0.01666666753590107,-0.0044262189444154495,-0.003304594503343105,0.2227887646883726,0.44756610937807706,-2.94980608291626,-9.119813398742675,-2.2917103203259295,-1.3106938783749946,1.1031102355114382
923,0.01666666753590107,-0.0012815642431378365,-0.11120879664421081,0.11244681400656699,0.44636893548276274,-3.050960810796916,-9.23249051437378,0.28116377668822284,-0.05864002883018912,0.21648584729152925
940,0.01666666753590107,-0.004741057047247886,-0.14268179327249525,0.018419453787803648,0.44621929787900294,-3.084479634039104,-9.325714741516112,3.017003625977941,2.1161951626675233,0.12529931339578146
957,0.01666666753590107,-0.027370529745519158,-0.11364099222719669,0.045755789002776145,0.43200376205444335,-3.0647277626037597,-9.295039032745361,3.954180925627972,3.3322723514610355,0.671235880187651
973,0.01666666753590107,-0.03209087279830128,-0.04688917694687843,0.204546421033144,0.4364928901672363,-3.0092122116088866,-9.132233319854736,1.4785631728661004,1.3442630842068437,0.38719472622900164
990,0.01666666753590107,-0.002003156515955925,0.017071838571131228,0.3773638248503208,0.4670189613342285,-2.947112606048584,-8.958803337097168,-1.1582471510297778,-0.9143123876297672,-0.6093568209065685
1006,0.01666666753590107,0.012747253370285034,0.040083296324312685,0.33213527459204195,0.47764323120117186,-2.9206264579221606,-9.005340631866455,-2.359691833465301,-2.3636806639405887,-1.4144302578806194
1023,0.01666666753590107,0.053549511618912214,0.03663987787216902,0.20147300493717193,0.5132569078307598,-2.9188305144160984,-9.137919548797607,-1.9955915242848463,-1.7239031409661354,-0.9691989340263434
1041,0.01666666753590107,0.13423490397725255,0.022444471520185468,0.03496200778782368,0.5897217598846182,-2.9321482611507177,-9.304914530071615,-0.8742687494341278,-1.119395754370276,0.7639859004133103
1057,0.01666666753590107,0.12184841021075844,0.028570553185045717,0.04882394440174102,0.5747580725738778,-2.927061167144775,-9.290849179840087,0.16928171624648355,0.07871155356247651,2.3733411127479256
1073,0.01666666753590107,0.078389244245179,0.05842910035401582,0.08150164064466953,0.5303156677246094,-2.902370962524414,-9.2565821685791,0.8442598864288536,0.45779684421468964,2.4867024027328615
1090,0.01666666753590107,0.021566081250458953,0.027728841663897035,0.16447276932001112,0.4739022911071777,-2.935141305486858,-9.172934748077392,-0.5045721140850525,0.31311332055227975,2.6697651328675436
1107,0.01666666753590107,-0.025963220230862498,0.09739946700036525,0.16425649622082708,0.4246715194702148,-2.8612203292295333,-9.17458076171875,-2.0909302929276463,-0.7102981055769242,2.0231133446585896
1123,0.01666666753590107,-0.021767814367637035,0.09496201072037219,0.17033260126411914,0.42751463394165035,-2.858377214758098,-9.170241271209717,-2.316974976622395,-0.07045465526872446,1.8953988390196947
1140,0.01666666753590107,-0.051101424347050485,0.08081365838050841,0.0794160665422678,0.3993827644348144,-2.8664576453611255,-9.263016001018881,-2.615299496878569,0.4947614011159755,1.5518929375690036
1156,0.01666666753590107,-0.05000069656353444,0.057475745151937006,0.026613866159319877,0.40491935577392574,-2.8809724929258227,-9.318382498931884,-2.8259615273453917,1.8399184930521504,1.1175500024687857
1172,0.01666666753590107,-0.034546339659020306,0.030997488071024416,0.04549100058674812,0.42482112054135646,-2.9019217574521896,-9.301024536895751,-2.5155919684879,2.104684799812171,1.2403868992666454
1190,0.01666666753590107,0.03596223433893174,0.0433548653408885,0.1056844802647829,0.49904140853881834,-2.8821695937559006,-9.242965146636962,-2.1405567398896665,1.5562916861161975,1.1182150921392158
1207,0.01666666753590107,0.09504406298063695,0.07591974885910749,0.23574819950461387,0.560542463684082,-2.8438623671934007,-9.114576082611084,-2.787977778153893,1.6023315367120206,1.0433822589320867
1223,0.01666666753590107,0.14819343283344058,0.06722089409679174,0.23655483971238134,0.6145616386413574,-2.8431141791746017,-9.11667100906372,-5.076074501522062,0.8738432499931772,2.1921957447793132
1240,0.01666666753590107,0.0845265048911795,0.04748217440396547,0.2377460953235626,0.5493196799347176,-2.8423659911558032,-9.121908325195312,-7.227216967408191,0.8109192251299356,3.538667434687304
1256,0.01666666753590107,0.07253744947705418,-0.027115678201615808,0.24406068529784677,0.5363011718749999,-2.8995278480529785,-9.121010499572753,-8.0955645298013,0.9000458300009031,3.651597568980883
1273,0.01666666753590107,0.07644311514608562,-0.11881751808226108,0.19121172316372392,0.5398924743652344,-2.9703061423704025,-9.18026699066162,-9.594810689412961,0.5579432122595323,2.3774784998376606
1290,0.01666666753590107,0.06565474075861275,-0.20112346084713933,-0.14026070360541343,0.5373485985687002,-3.027617344610393,-9.51889688796997,-6.0644276338586485,5.3128728911781735,2.5260918902329137
1307,0.01666666753590107,0.036826121159270406,-0.03173077078163623,-0.04381634537279606,0.5255272644042969,-2.8520924354001878,-9.42342809677124,-1.2726359575979778,6.665655035549022,2.816837034944489
1323,0.01666666753590107,0.06658329031299799,0.016872808867692945,0.03920329861938953,0.5704185455322265,-2.803909419250488,-9.339481401062011,-0.589099280241104,6.971952307557304,4.121654602755746
1340,0.01666666753590107,0.09265702171362936,-0.10466828895956277,-0.07368132228255271,0.6079775840759277,-2.9210753707334396,-9.453056342315673,-4.370008818713872,2.272451961630844,6.044358830529859
1357,0.01666666753590107,-0.12286471111383289,-8.767828345298767e-06,-0.17961831600368022,0.3930979850769043,-2.8137855010986326,-9.559747953796386,-2.0104967046011066,2.093954572626081,7.179718978146276
1373,0.01666666753590107,-0.17338358633257447,0.1287584818601608,0.027336335214972494,0.34311902542114253,-2.688389189147949,-9.351751684570312,1.9541192559747638,2.264856364386967,6.940857017587175
1391,0.01666666753590107,-0.10769202069491147,0.19360183317065238,0.34228666625022885,0.40716388329770414,-2.632424140819907,-9.03422068939209,0.36701151723161396,0.5728779011274411,6.139882441167072
1406,0.01666666753590107,0.004831621407531202,0.17663813114911317,0.4223854543596506,0.513256944363378,-2.6454429046079513,-8.955660362896323,-4.512895949263716,-4.773928276981855,3.474130044436911
1423,0.01666666753590107,0.06226955529972911,0.07915946143269538,0.39844402227997777,0.5502174690246582,-2.7290903251096603,-8.984840280151367,-6.775389281641269,-11.922906281221195,-0.4028457578665421
1440,0.01666666753590107,0.10775482026543468,-0.1142871811762452,0.3535971648156643,0.549768592745997,-2.9034184257507323,-9.037662354278565,-3.980500632707793,-15.77595259580879,-2.1911547812611207
1456,0.01666666753590107,0.12006645869743078,-0.11413812809437512,0.18868951120972632,0.5247791129181161,-2.89533770288676,-9.206603208923338,-1.4544082088663504,-14.042479612763525,-1.0418322328773169
1473,0.01666666753590107,0.048723698897659776,-0.03967266969680786,0.06929156289100646,0.4282628219604492,-2.819321800176799,-9.32751039276123,0.0746225781065264,-5.6115092522586405,2.2349446181339534
1490,0.01666666753590107,-0.008493176122382283,0.02471709262728691,0.08772153807282447,0.3672106796264648,-2.7558754561826584,-9.308955329895019,-0.3850266747760515,5.08999058506914,8.89192958230529
1506,0.01666666753590107,-0.3257845173258334,0.12095599141567945,0.05385667787194252,0.06090254126284271,-2.6532240600034593,-9.344269804382323,-8.11471296513943,9.511072570188606,14.105667400322606
1522,0.01666666753590107,0.0032688656028360126,0.08699147023260594,0.0014484452426433562,0.4100070343017578,-2.663549346923828,-9.402778107452392,-12.13400010770961,14.114115490552265,17.45457403717697
1540,0.01666666753590107,0.07546338339373469,-0.5827253616586328,0.4900882867544889,0.4970961196899414,-3.2972643065854905,-8.923937775421143,-11.74915992911441,4.695620158147658,15.780718360302165
1556,0.01666666753590107,0.22373872235696762,-0.07948913177847862,0.5791951417058706,0.6486790122985839,-2.772934143011272,-8.840739267730712,-7.746138882052617,6.818621390879688,12.047518813759847
1573,0.01666666753590107,0.136276712003164,-0.15056874713003635,0.6243266613304614,0.5725134719848632,-2.8266543350219724,-8.800037839508056,-7.866847961480606,8.375572403694203,10.757214971048045
1590,0.01666666753590107,0.14403514411021023,-0.36459962034523485,0.3931020767301321,0.6027402679443359,-3.012653584234416,-9.038111267089842,-10.570635547264452,12.270917226038039,11.144829913993561
1607,0.01666666753590107,0.271315845035389,-0.23742314697951078,0.501399369841814,0.7558195731231943,-2.8568811309814452,-8.936507334136962,-13.657790552103714,14.272447813249624,10.465320006678379
1623,0.01666666753590107,0.2063941677916795,-0.22419044817984102,0.5042746330171823,0.7199065482208505,-2.8080989798948166,-8.941894287872314,-16.359329298103333,15.288743249480731,11.531439965357439
1640,0.01666666753590107,0.15382599536031483,-0.3166957133978605,0.6877478708833455,0.7064391273498535,-2.84086990737915,-8.772354882812499,-21.597539683916803,13.01866499202988,9.6131599926182
1656,0.01666666753590107,0.2338405027197674,-0.2609475226908922,0.5588467656821012,0.8110357758453115,-2.7269956909179687,-8.915109156799316,-26.31343696616294,12.28430525058491,7.154176205084544
1673,0.01666666753590107,0.14839019751455634,-0.16261881201639772,0.5616629921466112,0.7564180870056152,-2.5594011363156137,-8.928127043804526,-30.457913792256637,16.649323762336444,9.913546589673485
1690,0.01666666753590107,0.11530622202567756,0.21813494753316043,0.4946376206219196,0.7546223626952618,-2.0775680522091684,-9.018059243664146,-31.742952412892006,7.2403087324998125,23.682704229967904
1706,0.01666666753590107,0.4381272864360362,0.21991130955591798,0.4034311630427837,1.0640730003356933,-2.004844322912395,-9.126996003723145,-28.455355261574965,-3.9287324945541506,29.31713218198652
1723,0.01666666753590107,0.6023736631216481,0.07598945309445261,0.3172194450110197,1.2017395592620597,-2.0886413810178635,-9.228748989757895,-24.334439173023227,-1.241357319737316,30.523329929032432
1740,0.01666666753590107,1.1441492843523622,-0.5173831209152937,0.04513327319025993,1.734748813452199,-2.5984566970273852,-9.519944351196289,-32.49003167411883,8.075481212320524,38.413386873312746
1756,0.01666666753590107,1.19558107316494,-1.6501203460238874,-1.0104828644454478,1.7750012557983397,-3.649062459155172,-10.593743795776367,-36.18718916618464,1.249507763129551,56.565089290768945
1773,0.01666666753590107,0.6690510614588856,-1.8394956475406885,-1.0546300492078065,1.2095207511901855,-3.782539201708883,-10.651653548431396,-12.591869522684231,-3.0371170389797473,71.68099118820791
1790,0.01666666753590107,-0.691574516499415,-1.1330967060707509,0.8792997857868671,-0.19856902712397276,-3.1069252746030687,-8.71399621734619,16.780137252867817,-2.6598205908794164,64.99677682113668
1806,0.01666666753590107,-0.7536474532485008,-2.546578333491087,0.9328811538487672,-0.3416226493835449,-4.556763871300966,-8.656684430584312,2.4417414018607833,-39.19624266541209,59.064197451468665
1823,0.01666666753590107,-0.8925875757746398,-2.901800176899135,0.1901543230652809,-0.6313210319961421,-4.898985363360494,-9.407416873168945,-14.834988169707398,-49.83768080738655,42.40384976381182
1840,0.01666666753590107,-1.75596834628731,-0.6526296496205032,1.7536901722222566,-1.6078559884666,-2.5556604884825647,-7.86540136642456,-47.84699143793506,-10.490888819836323,2.1978199786739956
1856,0.01666666753590107,-1.3535695950321853,-0.3283732917100191,0.9091729460030794,-1.215805448349705,-2.0648490020200607,-8.741529536437987,-83.76974983040266,-2.1935252837899384,-17.31229607412373
1873,0.01666666753590107,-1.2062583883933722,-0.678881696730107,0.4070663046747446,-1.052700487651024,-2.1704931502744556,-9.284265125274658,-106.14431573996221,6.677727821793842,-26.471897354907235
1890,0.01666666753590107,-0.7938007460691034,-0.5701829832106828,-0.1136269637018442,-0.6006452866927721,-1.7040728124205022,-9.852588159832358,-97.90680024241418,8.597435730956436,-34.01753859519506
1906,0.01666666753590107,0.031533622508030386,-0.182515571815148,-0.08344108427464962,0.2549825133392587,-1.0953470403257757,-9.8449572265625,-73.50353837576661,6.544896010362726,-35.77767151411818
1923,0.01666666753590107,0.41821927459090946,0.0691514237679541,-0.09788169755935669,0.6503250442062504,-0.6842925427976996,-9.872789820861815,-51.12795818311531,-6.541194474719402,-30.898833239032225
1940,0.01666666753590107,0.6240313316456974,0.7042004085123539,-0.537248681858182,0.8149264083419926,0.09906034941729158,-10.32334864578247,-37.25435158248577,-17.947189478233096,-17.85347928282052
1957,0.01666666753590107,0.37828430069610475,1.1792550845250487,-0.7865671415537595,0.5267243835006841,0.6655883537843823,-10.578629813274741,-34.42990102105083,-16.089082618308023,-9.434778503385918
1973,0.01666666753590107,0.2221476720395498,1.4312788576565683,-0.8011977244526147,0.3344400809356943,1.0049663660462944,-10.59793364868164,-34.063830202294824,-13.533751755455343,-3.1415790193629802
1990,0.01666666753590107,-0.08840656119491905,1.4212228891968726,-0.6307008725374936,-0.03321951606862712,1.1109098625734448,-10.432284821319579,-33.960031817478146,-21.792027612985624,1.0718471790198205
2007,0.01666666753590107,-0.5251130210475996,1.4640945010654627,-0.8380845628231763,-0.5327098408436577,1.2424411884141153,-10.64222637939453,-35.96170071602042,-26.44353670192605,-3.6521589251532935
2024,0.01666666753590107,-0.6659023881696164,1.4888507566593587,-0.9040110331952571,-0.7426513635276351,1.3637973215959034,-10.709563301086424,-39.61949924299403,-27.508463938821293,-8.008675132048628
2041,0.01666666753590107,-0.7135814733851701,1.286673256714642,-0.9709341133892535,-0.8891465867416002,1.3010991553457627,-10.776001812633872,-41.27328270144546,-31.178126504383215,-10.656738619488927
2057,0.01666666753590107,-0.37150713471136987,0.9991217316713183,-1.1556225722640752,-0.6328173715011216,1.1145011193979064,-10.958111360931396,-37.61607157074047,-35.38042771199024,-13.781097664737246
2074,0.01666666753590107,-0.2370257451597601,0.7136046350650489,-1.3908756817281245,-0.5886743331909179,0.9148844920502975,-11.189151821136473,-29.93601903777596,-33.38738534236969,-16.6086995047005
2090,0.01666666753590107,-0.16425156431738286,0.4779394376687705,-1.7656576733916998,-0.61530975359492,0.7603088656327687,-11.557858292278647,-20.5982010460739,-22.879190530723847,-16.966770464391125
2106,0.01666666753590107,-0.08110803821720182,0.39027854374200105,-1.6171879443675279,-0.5820902420928702,0.723049120562896,-11.405378158569336,-21.142239273843753,-16.03525731255374,-13.096068110799049
2123,0.01666666753590107,-0.03005348521918058,0.25287849026471376,-1.361862937733531,-0.5699695961883291,0.6456865159517153,-11.145756916046142,-27.464574850762084,-14.287452885082494,-6.044830967356236
2141,0.01666666753590107,0.18552735738437623,0.007852941990084945,-0.9807885679274797,-0.3947439621856436,0.5084687967713922,-10.75744733428955,-35.40444265711201,-8.475530514650048,-0.9998690447206394
2157,0.01666666753590107,-0.05977835953850299,0.07097188066076487,-0.3995668888300657,-0.6575076309204101,0.6645408174928278,-10.16997010192871,-37.035823095085796,-5.922949229825121,0.4503567404961359
2174,0.01666666753590107,-0.17187449694387613,0.07400397836565971,-0.20362813714444636,-0.7857470573425293,0.7609074343141168,-9.966911873626708,-35.29449027185314,-7.586767516827771,3.248437115484418
2190,0.01666666753590107,-0.5279634055100381,-0.17252331624142825,-0.1427320621550083,-1.1818377944946288,0.6239890268739312,-9.89508582382202,-28.035998722009108,-17.37722214482658,1.9558652230813482
2207,0.01666666753590107,-0.732942665002495,-0.5767116543270647,-0.7654653168141842,-1.43652099609375,0.2789247126039117,-10.509348187255858,-17.915569117470522,-19.566202151167285,-3.0164533688629316
2224,0.01666666753590107,-0.7130309998955577,-0.48621137225590644,-0.6983855847537517,-1.4695908334594219,0.40476993736587463,-10.435127935791016,-5.886380823895696,-10.345973549989807,-11.027329315928185
2240,0.01666666753590107,-0.48345520541556175,-0.40341370045132935,-0.7174667173206806,-1.265185793658346,0.49769488930068906,-10.45128821247518,-4.979437143163314,-8.043056596783181,-10.112318754899196
2258,0.01666666753590107,-0.162564159219712,-0.4480206847451627,-0.7841852148532867,-0.9675566728454082,0.4694133821900934,-10.514585503387451,-9.954092300133972,-8.544094514859575,-7.348448556307686
2273,0.01666666753590107,0.017634513955190778,-0.2904281033929437,-0.843271610072255,-0.8141781289916485,0.6700773357667028,-10.567257355388998,-15.56148465587039,-5.552110085254802,-4.386731256236179
2290,0.01666666753590107,0.025734672171995043,-0.2623481832690537,-0.7082464690327644,-0.8213606609068811,0.7365164318360388,-10.427046920666099,-14.52192474155257,-6.661338782880397,-0.5293757326125423
2307,0.01666666753590107,0.21692557174339888,-0.1912296972118318,-0.36351825484931466,-0.6545148788452148,0.8403650019105523,-10.076745874786376,-11.263896332926162,-13.46782933090732,2.6019699558264664
2323,0.01666666753590107,0.1353991619836539,-0.25743060061112044,-0.7098170793503522,-0.7974187173705548,0.8062476282533257,-10.413879396057128,-6.923192867733053,-21.860015315983933,2.7324060784062
2340,0.01666666753590107,-0.1076746311686933,-0.31752303106747565,-1.1142536200433968,-1.092952984796092,0.7558197557862848,-10.812065059661865,0.21436151171730983,-18.581589401174927,-0.19611423446279763
2356,0.01666666753590107,-0.28858123341724273,-0.4328234809394926,-1.4974761077940464,-1.3123217849731446,0.6274306917604059,-11.192743123626709,9.361761219837542,-11.35028285800119,-5.041313534401752
2373,0.01666666753590107,-0.029957550564035772,-0.37033005375601347,-1.492967105937004,-1.0814308893065898,0.645237566607818,-11.190049646759032,13.314132999109107,-3.812805401318817,-9.622465271588698
2389,0.01666666753590107,-0.0411777404975146,-0.3000749795950949,-1.4607038357138633,-1.099537185491994,0.6826469675477593,-11.160421401214599,10.03019768296084,0.07022074797007796,-9.698728602540122
2407,0.01666666753590107,0.00405073669552803,-0.15113500271067024,-1.1567787565618752,-1.0550947441101073,0.808192990167439,-10.858751992034911,6.872446696633974,0.6588509329534197,-8.503402809105577
2423,0.01666666753590107,0.13308482062667606,-0.07294840489812195,-0.883953164550662,-0.9286508958678692,0.8569747759278863,-10.588505895122886,10.140308870117908,-0.5271407132892143,-6.7270703890184835
2440,0.01666666753590107,0.16087321045808492,-0.07563581735119224,-0.7304641460597515,-0.904559241662547,0.820163925402984,-10.43782141265869,15.497784604123558,-1.3994962627037981,-6.065422707043355
2457,0.01666666753590107,0.08110738063007593,0.020210648053511977,-0.6431658018350601,-0.992097312927246,0.8518871704652905,-10.35537109298706,20.31707387493076,-1.064479219174375,-6.89018512479532
2474,0.01666666753590107,0.10723470538146793,-0.026981822688877583,-0.6229787538528442,-0.9657610946655273,0.7490861366823315,-10.339808782196044,21.82117886036324,2.700123402737546,-7.503055010812802
2490,0.01666666753590107,0.0764126469425857,-0.003941138841211796,-0.5532043758809566,-0.9864110839843749,0.7140708643373102,-10.275614250183105,22.36945522051309,6.257598617078126,-7.561478741425799
2507,0.01666666753590107,0.02463021806143224,0.030077962073311208,-0.4750479540109634,-1.0125975915770977,0.666785308483988,-10.205882542309164,24.58200620967951,8.954854407581324,-7.332115866454893
2523,0.01666666753590107,-0.06752462628372013,-0.003908369082771241,-0.2462994041353464,-1.084573278985545,0.5639843477662653,-9.983521647644043,27.90150034442051,7.420750377540502,-8.618456491900796
2540,0.01666666753590107,-0.019214695818722247,0.06089388303235173,-0.05238251366615295,-1.0218751230102032,0.5518637018617242,-9.795277542114258,30.173607168054854,5.034438522115311,-10.11532659945494
2557,0.01666666753590107,0.08892083085998892,0.24481957737375049,0.27961130662858485,-0.9030629386901855,0.6316205446656793,-9.469067565917967,28.465158290581225,2.0434406279587822,-9.218625214269816
2573,0.01666666753590107,0.0959578168246895,0.4216518063228577,0.4579214626431465,-0.8951321456909179,0.737863279867731,-9.293393019104004,24.95942026509961,-0.6632244418171963,-7.693432873548567
2590,0.01666666753590107,0.09710552555508911,0.500064029584825,0.42202948052883144,-0.8996212738037109,0.7550715495011768,-9.330503144836426,21.942588887954802,-2.8036968181984427,-6.949627834255118
2607,0.01666666753590107,0.06966960242316127,0.48635954855494196,0.23986615621745586,-0.9367313264708965,0.6655882624528371,-9.513359712108969,21.659006263805043,-3.120144391643599,-7.338789815047642
2623,0.01666666753590107,0.12697525170519947,0.4437873945569619,0.0011930091768503188,-0.8895955543518066,0.564134003636334,-9.751882637023925,23.156632814809765,-4.551967192637127,-7.391617059409459
2639,0.01666666753590107,0.10604871046729385,0.48785738589726385,-0.13101765896379947,-0.9238625656127929,0.5457285555409965,-9.883264453125,24.211598220800546,-5.767344713927536,-6.427082504256
2657,0.01666666753590107,0.025062033607438205,0.5424465062296018,-0.5773743560194969,-1.0242693246703594,0.5165492410741513,-10.327688136291503,23.54755527686086,-5.423650021779317,-4.503279042912338
2673,0.01666666753590107,0.019439225289598107,0.42084052647259085,-0.8404699966549873,-1.045069024658203,0.33623593311021105,-10.588805754852295,21.63366113934242,-6.8840379545423085,-4.316023430400914
2690,0.01666666753590107,0.06851407571248709,0.35407091980725525,-0.9754904615193605,-1.01514150390625,0.21458055212036706,-10.721085396575926,20.727078177975578,-8.40630142477009,-5.384224889229535
2707,0.01666666753590107,0.16098960337936877,0.2484368545554578,-1.1806354329675435,-0.9545382743835449,0.03531471194932237,-10.921300510406493,21.8891546105305,-9.506382791549745,-5.185606403260149
2723,0.01666666753590107,0.21468999471105635,0.15653808559691532,-1.4534294607967138,-0.9216180015563964,-0.11641781826307997,-11.190199284362793,24.035440811916747,-6.3869380674092495,-4.754091273198022
2740,0.01666666753590107,0.23082338338829575,0.15921408160682768,-1.5592840369313954,-0.9139864106994122,-0.17926559357587246,-11.292999733623862,26.552589209761766,-0.2409526921362124,-3.719021781372664
2756,0.01666666753590107,0.18542349515110254,0.11795940341558307,-1.35274498077631,-0.9546879119873046,-0.316333711685054,-11.083208397674559,29.599379504153543,1.0117183557135538,0.08562487894129302
2773,0.01666666753590107,0.15144618755169212,-0.01565788011997938,-1.0954103878855705,-0.9879074600219726,-0.529417586373724,-10.822090779113768,33.506664350940206,0.2895961521467061,3.3762436152336965
2790,0.01666666753590107,0.04442322522476315,-0.053555831761844454,-0.8929016101598739,-1.0926537826538085,-0.6570584623808041,-10.614693060302734,37.93089206505929,1.9705708338077972,3.2206322691469427
2807,0.01666666753590107,-0.1769806609764695,-0.09027852907925844,-0.639111558008194,-1.301248602294922,-0.8319848577085882,-10.352827253723143,44.50376751847015,6.3474979938206575,1.7083504800608988
2823,0.01666666753590107,-0.34058000846281644,-0.04933912738226354,-0.11325754586756229,-1.4449007019042968,-0.9091978612486272,-9.81951883392334,48.91836466585951,9.39585410907966,1.3915896784092736
2840,0.01666666753590107,-0.36975334984660146,0.08815905270725488,0.22168460283875463,-1.4495394676208495,-0.899172141796723,-9.475202707672118,51.6658389953484,9.961714791247706,1.2258331535275233
2857,0.01666666753590107,-0.39205892435275014,0.2785105057798326,1.0008335770905017,-1.441010124206543,-0.8863033078733831,-8.679729206085204,53.697164575266875,8.501749049552787,1.733220372767679
2873,0.01666666753590107,-0.378515552168712,0.417782782869786,1.691644342675805,-1.4080898513793945,-0.8836097579404711,-7.973589353942871,54.95486877884385,7.282907768579536,1.2433674230657097
2890,0.01666666753590107,-0.36959194873981177,0.542392182226479,1.9592928243100642,-1.3805565322875977,-0.8996211276732384,-7.687931168365478,56.801680213429016,7.804971570242168,0.459548734375945
2906,0.01666666753590107,-0.3448462876051664,0.8142527285978197,2.4669395641088485,-1.3275848205566405,-0.8216599361144006,-7.152228546905517,58.566119566623826,8.988199391109328,-1.284998599995701
2923,0.01666666753590107,-0.4420568079046905,1.0667249761492013,2.9350246933698654,-1.4001590583801269,-0.7167639758788049,-6.660369743347167,58.539918960967654,10.209619922267905,-1.7140199639588327
2940,0.01666666753590107,-0.46204453392252326,1.2590182109393178,3.163549371361732,-1.3914800773620604,-0.6687303050719201,-6.406734004974365,55.34157701417705,11.505339251217881,-4.023587173539526
2956,0.01666666753590107,-0.29348727176785466,1.3955518568456171,3.382666169539094,-1.1833341705322264,-0.7012015189573169,-6.155791743469238,44.10021262154911,9.141932435174327,-8.131620244656151
2973,0.01666666753590107,-0.15460421319119633,1.4511226451590655,3.265371330979466,-1.0238204118590801,-0.7456440334044396,-6.252457635498047,34.97342698463294,3.4661811983468973,-9.097578040477911
2990,0.01666666753590107,-0.035143794095516205,1.5384095912069082,3.12164675065577,-0.896329246520996,-0.7393592540465295,-6.37785394744873,29.51818221530043,-0.8581257574133614,-8.555015987342424
3006,0.01666666753590107,0.325629107568413,1.59957381561324,2.878998270243406,-0.538845011138916,-0.7761699584409594,-6.596175211334228,28.90980702064364,-4.713862739647117,-7.730118673354352
3023,0.01666666753590107,0.46997138139903544,1.5583593233019113,2.5462416488826274,-0.40447044296264645,-0.8882483775265514,-6.909965266418457,26.276501010678803,-7.105978548319526,-5.436512548646921
3040,0.01666666753590107,0.4825520460307598,1.5477017356872558,2.3045126214027403,-0.411503264208883,-0.9549868949338793,-7.135169275555014,17.986705537676205,-11.326736634611217,-3.160450191709491
3056,0.01666666753590107,0.4543320598490536,1.3328443485200405,1.8770470872998237,-0.48512511138916015,-1.2096700965330005,-7.547571096038818,6.53584472905199,-17.308920253126452,-1.8899536841473137
3073,0.01666666753590107,0.5519570792336017,1.0550661025375128,1.4602636907309292,-0.43290158767700193,-1.4975728461667894,-7.9569795799255365,1.8132954828844985,-20.405430909581337,-1.2977449069257083
3090,0.01666666753590107,0.5777504958555102,0.9483478953108191,1.126982168713212,-0.4586391824584454,-1.6066583670467138,-8.284086797222495,0.18213361096414846,-21.525954178773194,-0.6510220420607041
3106,0.01666666753590107,0.5564923845756798,0.718610918919742,0.3493091122329235,-0.548421817779541,-1.8363523810788989,-9.053972853088379,0.21990595779670735,-19.562407981083343,0.8579060174211574
3123,0.01666666753590107,0.507815812755376,0.5062444717854261,-0.5193266561985016,-0.6370072792053222,-2.052579010772705,-9.916783276367187,4.105604511979862,-11.03613855241021,2.620978585730023
3140,0.01666666753590107,0.38376799280419943,0.4861304890394211,-0.6460322971820831,-0.7767688011169434,-2.0901377570554613,-10.036792634582518,11.196237332781662,-0.16088886783977915,5.820281241316073
3157,0.01666666753590107,0.3346631125692278,0.6160752580747008,-0.335130364754796,-0.8245031236510724,-2.0025994665950537,-9.714323598480224,14.738981323186406,2.4836476006265733,9.867192657097547
3173,0.01666666753590107,0.4941111125297844,0.4546057622238993,0.03707154728770256,-0.673518854522705,-2.192639223369956,-9.333046984100342,11.031202886961228,-3.4000344447733206,13.098287068505657
3190,0.01666666753590107,0.47762649926207956,0.4240712154895067,0.1400958684325218,-0.7160159339904785,-2.240373911230266,-9.221866244506835,6.935252420486356,-9.545650402861796,15.804043456317759
3207,0.01666666753590107,0.3041283466391265,0.40653731236457824,0.07989478996992111,-0.9403227020263671,-2.272097083227336,-9.271396291351317,7.408343338913174,-10.480911621006227,16.459958475145132
3223,0.01666666753590107,0.10215937487855553,0.2817199693456292,0.02228372800052166,-1.1758524364747107,-2.413953531591594,-9.319579599761962,10.850593902285874,-7.967758883825667,15.599766158621017
3240,0.01666666753590107,0.06773118170648813,0.250733294929564,-0.06683072573542595,-1.2386999377928674,-2.4693191527217624,-9.39768984440267,13.181664895251295,-6.587890770527487,14.056486623203929
3256,0.01666666753590107,-0.07687646506205201,0.15509323881715537,-0.21503274373412132,-1.4115313701353966,-2.6065371276304123,-9.529670795440673,16.310988634252567,-1.7349496912881615,14.170751419150012
3273,0.01666666753590107,-0.27284341992884875,0.15977116750031709,0.08059738528132439,-1.6199766983032227,-2.638110662023723,-9.221417331695555,17.12306056052665,-1.384073802279615,12.96164486529132
3291,0.01666666753590107,-0.21972338576838374,0.1537108445480466,0.27326749055981636,-1.5837643981933593,-2.679709623607993,-9.015516573444009,15.619054612837134,-5.531393267728507,11.311440425964975
3306,0.01666666753590107,-0.10803951895833015,0.03838613701760769,0.5747580360412597,-1.510441972351074,-2.8363804870054126,-8.69559079208374,13.350189567737605,-11.197952564036981,10.781205156734067
3323,0.01666666753590107,-0.14775149775221944,0.03313917627483606,0.7537649421483278,-1.589450481005758,-2.868701917156577,-8.502109370422362,12.555774534241653,-14.184610726749613,10.611018186958507
3340,0.01666666753590107,-0.13792436961233615,0.009677928927540779,0.7911439479500055,-1.6223707538329064,-2.9173344306394458,-8.450035484313965,11.233023877877704,-14.483769597301587,8.92606089136149
3356,0.01666666753590107,-0.13686053977310655,-0.08562748840302228,0.8304056987583637,-1.6750433364868162,-3.037942339269817,-8.393921382904052,6.485685527334709,-14.290685272107204,6.286460008302838
3373,0.01666666753590107,-0.22293021898567675,-0.10407529150247573,0.7886398561745882,-1.8014871116638183,-3.065027037811279,-8.426093467712402,2.740659935131337,-16.08356211791136,4.218344895080562
3391,0.01666666753590107,-0.23035335472375154,-0.13639467582702636,0.6586182225108146,-1.8516155627928672,-3.101687958471477,-8.547299926757812,2.5147648752680936,-17.569229007679393,1.2477258308081183
3407,0.01666666753590107,-0.32247005901560183,-0.17580694102197886,0.5654775819987058,-2.0020013545714317,-3.155258220617473,-8.62541075592041,5.75995274169829,-20.851556668051767,-5.718891778842289
3423,0.01666666753590107,-0.17392565732002258,-0.1666653109282255,0.39346038864850996,-1.8996493797302245,-3.166032128088176,-8.782380602264404,7.487486448373405,-22.588128849432923,-10.191309038876748
3440,0.01666666753590107,-0.07482625453397632,-0.13098667930364608,0.33835692558586594,-1.845180999700725,-3.1537615523189304,-8.821285794720053,7.292657009846083,-21.417104869065284,-11.921262766952161
3457,0.01666666753590107,0.050985506349802014,-0.021660043144226072,0.30237200449109075,-1.7703626362122595,-3.0686180480405687,-8.839242891693115,2.5478880910914823,-19.052577048224205,-13.301369083097645
3473,0.01666666753590107,0.13871639677286146,-0.053740942537784574,0.35408640963733196,-1.7149965766906736,-3.109169838659465,-8.77819074935913,-0.8287905218149797,-17.734705708248583,-14.709616632397228
3490,0.01666666753590107,0.28560937799960373,-0.01503098039329052,0.55558513353765,-1.6083049652099608,-3.074154347118735,-8.56720172805786,-3.2498902382303383,-18.980101910941197,-17.160493412272903
3507,0.01666666753590107,0.3404432303406298,0.0026350246787071228,0.5405576602756976,-1.5861585998535155,-3.0550013183593747,-8.575880709075927,-5.831381152490991,-20.86230226316349,-19.811981385808316
3524,0.01666666753590107,0.28485665993615983,-0.09500409629642963,0.21067980922162532,-1.673397030584514,-3.1474767729610202,-8.900743946838379,-7.387931318578591,-19.28190747979655,-23.194805034533672
3540,0.01666666753590107,0.3748343063727021,-0.17380583033263683,-0.012000818917155265,-1.6090531532287597,-3.2191534774228927,-9.120262311553955,-7.971293506721149,-14.259841845362718,-28.38156531287673
3557,0.01666666753590107,0.4885740827992558,-0.1716743712618947,-0.0817424636632204,-1.499668064880371,-3.2128686980649825,-9.190442347717285,-8.684320006067228,-9.30060797487748,-31.394571784086335
3573,0.01666666753590107,0.661173606082052,-0.09117927731126546,-0.08261749293208122,-1.3162123626708984,-3.1268270759031176,-9.195530026245116,-10.042687537631855,-2.7989914581905384,-32.21831650365197
3590,0.01666666753590107,0.7391608088649809,0.04897942722439766,0.10665654016733168,-1.2032359718322754,-2.970156504766643,-9.019256929016112,-14.454215368762942,2.6143900145019,-32.24941777003762
3607,0.01666666753590107,0.7791315847255289,0.08348784602582454,0.19563772291243076,-1.1308113716125487,-2.914341970825195,-8.944138851928711,-16.352490571196856,3.4915617544158417,-30.859542575831725
3623,0.01666666753590107,0.7480122238405048,0.15641659637540578,0.43856852739751334,-1.1314099220275877,-2.819321800176799,-8.71474440536499,-14.128599760460924,2.536976223562152,-28.041135024264957
3640,0.01666666753590107,0.7301205933190882,0.2155254956871271,0.642889907503128,-1.119139638519287,-2.740612420599162,-8.52290899734497,-8.9327322786333,-0.7991542776454416,-24.887720354287403
3657,0.01666666753590107,0.7303818746037781,0.16656740351170302,0.7101321366488933,-1.103876602935791,-2.782959862463176,-8.460809391784668,-6.549444489463132,-1.730617643807081,-23.493178433331096
3674,0.01666666753590107,0.7611803329713642,0.19483283627033232,0.7914362088948488,-1.057489091900736,-2.7492914016172287,-8.384345160785317,-7.766607251447853,0.43541319372664716,-22.091109643909437
3690,0.01666666753590107,0.7578411055460572,0.2975590512514114,0.8488713297754525,-1.036539535113424,-2.6222487837642428,-8.339453295135497,-16.771999082471748,0.5476121242530648,-19.598773615771783
3706,0.01666666753590107,0.766926037016511,0.2836503528863191,0.8340811724007129,-1.0157399081908165,-2.5944164817258715,-8.36968009109497,-24.958412812197032,-2.914225714111939,-17.727242019033053
3724,0.01666666753590107,0.7359726803481579,0.2642708218947053,0.5090238733708858,-1.0438720699585973,-2.555211721801758,-8.713397666931153,-29.456621720311105,-4.285990661733545,-15.399050804576438
3740,0.01666666753590107,0.5446583735927939,0.2746989846676588,0.06451601905226707,-1.2345102310180662,-2.4558520606443284,-9.184756118774413,-30.705501319480426,-4.168823035390208,-12.835588601516857
3757,0.01666666753590107,0.46856122234016656,0.21275369288623333,-0.21603870590627192,-1.3124714225769043,-2.449716918890178,-9.484779514312743,-29.977857361536874,-4.456222454625535,-10.59700263878164
3773,0.01666666753590107,0.276614901291579,0.18089315824508667,-0.6086228962421417,-1.5132850868225096,-2.3952488311216236,-9.900023864746093,-25.72763554671304,-5.089752382221836,-4.833328724646163
3790,0.01666666753590107,0.00699263536632061,0.23249971910268066,-0.7173907294750214,-1.792957914379984,-2.2890064247131345,-10.021828874206543,-20.0976762459589,-4.3252719334239345,0.16088808076719902
3807,0.01666666753590107,-0.07575842081755399,0.230596808090806,-0.5988631342500448,-1.8863316329956055,-2.2469579657956955,-9.913042336273193,-15.97544022335006,-3.3743695820801745,3.11891538447982
3824,0.01666666753590107,-0.2629411807261407,0.13517258668616414,-0.3506272090941667,-2.0772692153930663,-2.2890061324521898,-9.67811129837036,-17.036074686351952,3.1396531194604482,2.2850429884789394
3840,0.01666666753590107,-0.4667212935619056,0.10030366400927304,-0.13043898229300974,-2.269104769543558,-2.276735848943889,-9.472359593200682,-21.363298346331216,6.850804388475142,-1.0634100811258564
3857,0.01666666753590107,-0.585770428442955,0.03253536516278982,-0.03255319308042526,-2.365920153045654,-2.2899039580747482,-9.392453112792968,-23.498654537498155,9.84577916027591,-2.941607088720874
3873,0.01666666753590107,-0.7123492281764745,-0.004803308628499508,0.23584464561641214,-2.4607903938293454,-2.255636946813762,-9.147496355438232,-20.930962739795042,6.533528014262886,-3.4275744078370467
3890,0.01666666753590107,-0.6717755179867148,-0.05006912215724587,0.4776251110225916,-2.4105121589660645,-2.2575823817931115,-8.91780263366699,-15.806054947028327,0.27995758128905446,-2.354072935655908
3908,0.01666666753590107,-0.7790643647082149,-0.04190013648793101,0.5123743528425693,-2.525134563446045,-2.215833344213664,-8.889521126556396,-12.08095258974706,-7.271688329094144,0.07259944138981424
3923,0.01666666753590107,-0.8575847975850105,-0.031324674198776485,0.49625674625635147,-2.6414029815673827,-2.172887498065084,-8.90598184749186,-7.5678811899990395,-13.309224654416806,0.7449276449165649
3940,0.01666666753590107,-0.8295365147083997,-0.10151230914667247,0.6271089855253696,-2.6430491413392123,-2.2263081226073203,-8.773252708435058,-6.837332267224115,-10.532253299223566,-1.965712221430391
3956,0.01666666753590107,-0.8182897290289401,-0.06986191012486816,0.6168658239305019,-2.6512789172850546,-2.176179525347799,-8.783876978302002,-10.131386935514579,-6.714137425825064,-4.931343646783138
3973,0.01666666753590107,-0.8201252738930285,0.04583090006560087,0.5835737951815128,-2.6645968101501465,-2.0196585918150842,-8.823979856109618,-17.20034244343805,-4.365325870264182,-6.86971077898456
3990,0.01666666753590107,-0.7311569506295025,0.1208227204248309,0.4440045809715986,-2.58558815536499,-1.9030908984862267,-8.970624707794189,-18.832728626767125,-6.544601458454769,-6.940282854810071
4007,0.01666666753590107,-0.683740973329544,0.10541998410969972,0.3988917660474777,-2.552967157745361,-1.8776522135861218,-9.02150090855062,-16.65044732845491,-8.81341058138047,-6.096623011171974
4023,0.01666666753590107,-0.6690387864992022,0.16067425381988287,0.0724094026505947,-2.5673325138367713,-1.7763477019712328,-9.351751684570312,-14.019518224321235,-10.025064795799576,-4.6947544316703596
4040,0.01666666753590107,-0.8457692721068859,0.08925020894482731,-0.2644832956016063,-2.7618613987244665,-1.8157023917600512,-9.69157868270874,-13.86312567534816,-5.701034676144114,-4.283235961063914
4058,0.01666666753590107,-0.8662805836074053,0.024350012880563734,-0.33826983182430265,-2.787748704174906,-1.8483235355101524,-9.770736975097655,-14.511807523844489,-0.6363527167142208,-6.287478133375993
4073,0.01666666753590107,-0.8014936386592686,-0.09635083473026752,-0.272855987149477,-2.7085902656555176,-1.9273320441648363,-9.71641852493286,-13.772927904716264,5.475773329769801,-8.494515025448099
4090,0.01666666753590107,-0.6731460756875575,-0.14796119498014448,0.04552782546579837,-2.561945413970947,-1.9508251479551195,-9.407117597961426,-12.132104730214932,5.61586435162817,-8.002526254248325
4107,0.01666666753590107,-0.5669260272413492,-0.2265185988664627,0.23367080870866774,-2.4401402583800254,-2.006789611761272,-9.226354788097739,-8.893942780563151,4.12096688808369,-6.605970708147335
4123,0.01666666753590107,-0.41965252226442096,-0.41279198884516954,0.638451048272848,-2.2816740359984338,-2.1695951785214245,-8.828169124493002,-7.813901188808313,0.2918547036061589,-3.321718641976308
4140,0.01666666753590107,-0.5164240666247903,-0.6779048145219684,0.6585965952008962,-2.378938478442281,-2.416647154589742,-8.811260659790038,-7.532308711027967,-0.854919623928275,-2.190811564255328
4157,0.01666666753590107,-0.5975256020359695,-0.8850121720843016,0.6658247928887605,-2.4598924220763148,-2.608931183160096,-8.806771531677246,-5.838412832241519,1.8374476721198985,-4.278522703649783
4173,0.01666666753590107,-0.6366707407273352,-1.1041149417363108,0.7125766071915626,-2.4920646530151367,-2.8187233958922326,-8.763077351379394,-2.928925561866276,1.1228383831553739,-7.9242650929646725
4190,0.01666666753590107,-0.5277130840107799,-1.2317366746515035,0.6639952393740415,-2.3808840595521032,-2.946813184710592,-8.812008847808837,-1.811539697380982,0.24529018242428785,-9.24830067866623
4207,0.01666666753590107,-0.4516926512561738,-1.277406246675551,0.6464426315486431,-2.3036709098815917,-2.994846709387004,-8.82936680984497,-1.0079116991900352,-1.6091260808323022,-9.216289289573671
4223,0.01666666753590107,-0.4582451416395604,-1.282973233152926,0.4550245721578598,-2.3172879318237305,-3.0102595287047325,-9.017610915374755,1.9924611632108649,-4.1929114050455505,-7.946176339822073
4240,0.01666666753590107,-0.4929167881786823,-1.3525573492497205,0.30375965945720673,-2.366967762402445,-3.0986952063962816,-9.16246011581421,6.440780875523283,-7.502308812645978,-7.493099156323862
4256,0.01666666753590107,-0.5435886985346675,-1.410790488640219,0.17098609673678875,-2.4344541755676268,-3.187430451556295,-9.286210414123534,12.70191411549689,-6.3963321388389565,-7.934204725754333
4273,0.01666666753590107,-0.7458778421603143,-1.4331851296693086,0.056552492827177045,-2.6454433429993687,-3.277063230077922,-9.386018695831298,17.73313476473948,0.13790853629471259,-13.239826517354892
4290,0.01666666753590107,-0.8486502343706787,-1.3769300123535095,0.13809329643845558,-2.7413610470093785,-3.285742357226461,-9.292944106292724,16.600260805980948,3.5487054648896956,-18.194309137498742
4307,0.01666666753590107,-0.8383391221061348,-1.2992280562527476,0.17125146967470645,-2.71352830657959,-3.2625485286436975,-9.252093040466308,12.632914690727777,5.612141471643691,-22.614397756980793
4324,0.01666666753590107,-0.7767920358620584,-1.1577329885467886,0.18938626130223274,-2.614767488098144,-3.1775543697081505,-9.229348124694823,6.7176148458862475,9.316970546807891,-28.0181428999714
4340,0.01666666753590107,-0.7611743416219949,-1.0060084955103694,0.17126842080950735,-2.559251790972799,-3.051858636419475,-9.249548616680503,3.2899657328551535,9.817993096958652,-30.21800339765994
4357,0.01666666753590107,-0.7167077156469226,-0.9439394312188029,0.12657120094895363,-2.477250676373392,-3.01040902017802,-9.296834683990477,2.5036457541861363,7.661580286354213,-30.257300891049606
4373,0.01666666753590107,-0.6369574487142264,-0.8703700448781252,0.010201660540699958,-2.3512555217467246,-2.9677623031064866,-9.414898753356933,6.080064071302924,7.513305417209699,-28.075606989006012
4390,0.01666666753590107,-0.518880081474781,-0.8044599411189556,-0.046318099060654636,-2.198924587249756,-2.931849278204143,-9.470863217163085,8.505448450761996,8.513686512674678,-26.22004608209406
4407,0.01666666753590107,-0.5465406802080571,-0.8141765946216881,-0.03288578603565693,-2.1885994464598593,-2.975094545690715,-9.456498007202148,9.776739608145421,11.12346337472247,-23.833564325713265
4424,0.01666666753590107,-0.4460148978807032,-0.8759247563958168,0.21747838332056998,-2.03177952998057,-3.0822352161131796,-9.205256470489502,9.693848432378147,11.769988590988365,-22.1945938400243
4440,0.01666666753590107,-0.2642351660594344,-0.9889159064121544,0.5078823021203279,-1.8086698627747595,-3.2276828208371997,-8.914061693572998,9.68542254026329,12.12769072046381,-20.196966705923376
4457,0.01666666753590107,-0.1926912941969931,-1.0120805089004337,0.618180413660407,-1.6940474582947789,-3.2842459811888634,-8.802731316375732,11.457762714780511,13.888090870538203,-17.369592823523675
4474,0.01666666753590107,-0.038843817657232285,-1.0113552633658052,0.8993833733946085,-1.4814121310912072,-3.333326969091594,-8.518568922314047,13.776370320057952,13.993041849777327,-12.507219573205678
4490,0.01666666753590107,0.021325258231908083,-1.0787725568175315,1.0800275253146887,-1.3819032707214354,-3.438971263476461,-8.334365616607666,13.855746509723607,12.716338621250312,-8.618181576786702
4506,0.01666666753590107,-0.00490998387336731,-1.0852904142789541,1.1762690544515848,-1.3729250144958496,-3.4807200087949632,-8.234407697296142,12.407655051900756,12.107105384079038,-6.2969797802851275
4523,0.01666666753590107,0.07090089778378605,-1.1290963843882083,1.2281412805080414,-1.2542623947143554,-3.5597286635801195,-8.179640334320068,7.064720790638064,10.940897540849905,-5.792707767636732
4540,0.01666666753590107,0.011116875689476727,-1.1910090890742837,1.1906547226786612,-1.2853870162963867,-3.6361934791013595,-8.21734901046753,3.5566466270168933,9.645573509098144,-5.13568924637158
4557,0.01666666753590107,0.09420271678566933,-1.1932768878757953,1.1896066749304532,-1.1761517116822302,-3.6475662292480466,-8.219593574523925,2.7555104739342373,9.156717233406466,-5.40631158657124
4573,0.01666666753590107,0.35952567808181046,-1.1972677110776304,1.0701596267729998,-0.8719381709776818,-3.664026073400676,-8.340950255694985,3.573647821634701,13.08697029882459,-3.6263566049031013
4590,0.01666666753590107,0.3990104970563203,-1.144602581077814,0.8956471094757318,-0.793827634076029,-3.6201825477600096,-8.518120594024658,2.6797877951443025,16.746073391929674,-0.5857986446855483
4607,0.01666666753590107,0.41325120385475456,-1.101028520028293,0.758046564990282,-0.7365162857055664,-3.5802290152952074,-8.660126679992675,0.6218281060007771,19.18081043479661,3.5739743900543925
4623,0.01666666753590107,0.35420389853715895,-1.0381620217487215,0.7785679594933986,-0.7365163587708026,-3.5143887619018552,-8.647407483673096,-0.39342500601039043,19.355275664313535,9.308139965984711
4640,0.01666666753590107,0.38266814180351794,-0.7595587231189012,0.8473089027643204,-0.6702268272399902,-3.2314237609311935,-8.584110777282714,-0.9580850423079691,16.694905029762523,11.782674813598017
4656,0.01666666753590107,0.3827401841264218,-0.6862865661591291,0.7292705523610115,-0.6420948846679181,-3.1492727164670824,-8.707561215862631,-3.7138654154361275,12.698846506785909,13.698927927701053
4673,0.01666666753590107,0.31431992417722937,-0.5653054403021931,0.1369254217028618,-0.6875848623413592,-3.002328735705465,-9.30910496749878,-8.46784057541826,9.984390165518503,17.370574663216864
4690,0.01666666753590107,0.19027064292132853,-0.17243775684982537,-0.538061751806736,-0.7990648771423846,-2.581248372595012,-9.992649541473389,-10.163686900099568,10.193160873915467,19.43420362281491
4707,0.01666666753590107,0.03342405763082206,0.06118965110853314,-1.1400625995606184,-0.9355342987060546,-2.3032217048093675,-10.607958783611654,-12.922918546470994,11.37983623276619,21.144271255121833
4723,0.01666666753590107,-0.0816836461480707,0.12442819757089019,-1.4098007469505072,-1.0392332311768084,-2.199074078723043,-10.888978787994384,-15.445952006059622,7.737075221024011,21.903824149320393
4740,0.01666666753590107,-0.06814969937950373,0.1428150642633438,-1.8474100739270447,-1.0236709203857928,-2.1374233859740195,-11.337293048858642,-14.2077437236948,5.416045886798978,22.47593103948442
4756,0.01666666753590107,0.02072042420655489,0.2389814823374152,-1.8627549425750969,-0.931494083404541,-1.9945194743834436,-11.36407817993164,-10.546413988920294,7.243630765757378,21.517742583843546
4773,0.01666666753590107,0.11817783193923533,0.27493995381668207,-1.9851082335680723,-0.8246528343200683,-1.9264342185422778,-11.494861445617675,-11.586009761731257,10.730682247443484,20.75853973683995
4791,0.01666666753590107,0.10315313515625893,0.23438465606644748,-2.0629279708296058,-0.8194155181884765,-1.9300255210325121,-11.583147631835937,-13.858638241063462,15.03480535387612,22.13415008096427
4806,0.01666666753590107,0.005334565960988402,0.23075185252204536,-1.9568559525519609,-0.8912416410584002,-1.894262133733928,-11.488427028656005,-12.480576712800751,16.091328042997667,25.677327788381312
4823,0.01666666753590107,-0.16864442898146806,0.3253773247644305,-1.3578577937453984,-1.0348935945373028,-1.7628803176328538,-10.900351245880126,-3.600481713892977,13.949742719307677,27.860208435793197
4841,0.01666666753590107,-0.31942813403643666,0.08702624928504228,-0.8808189581781625,-1.164928672204539,-1.9967638923093676,-10.42614909504354,4.766930321290354,14.797708997217468,24.87211678712851
4856,0.01666666753590107,-0.30320633642338213,0.00468903459906578,-0.6006821663707494,-1.1222819551330059,-2.0943276099607346,-10.14498062210083,10.940588474789962,16.003995536722588,19.887793070500873
4874,0.01666666753590107,-0.23479024119265376,0.07678498738631606,-0.3396925581037998,-1.0076595506530255,-2.064399943078309,-9.878475465282797,17.557042242652795,20.654251285950316,18.47374925191689
4890,0.01666666753590107,-0.09987009489759802,0.4006646209388971,0.2581114224821329,-0.8292916000366211,-1.7859246547423302,-9.273790493011473,21.765019337460103,22.4613349252281,19.769511269549177
4907,0.01666666753590107,-0.08356134965345263,0.7276137250646948,0.9835025030612945,-0.756717435278371,-1.5301939899168908,-8.53592746887207,23.892392745034588,20.573286223528985,23.029881579287252
4923,0.01666666753590107,-0.12005224750898778,0.8546952136233449,1.3672399545967577,-0.7636006919860839,-1.4574699683591723,-8.141184054675698,22.77764610833327,13.44648669729832,22.721215085410623
4940,0.01666666753590107,-0.07566044033579528,1.0172197714850306,1.8355664913982153,-0.716165498529002,-1.3608039301998913,-7.6568065467834465,19.805487583454926,-1.4919844945851755,17.922310514181323
4957,0.01666666753590107,0.017346052402630447,1.0904505735211074,1.8251573255866764,-0.6489782875061034,-1.3299788760863245,-7.6547116203308105,16.235918025084956,-11.105219939449364,12.990813188141859
4973,0.01666666753590107,0.17270312978774308,1.1910326160803437,1.6085966416329145,-0.5382464607238769,-1.2611454322263598,-7.859864775085449,10.881504777148413,-18.956618013027402,9.565134371242904
4990,0.01666666753590107,0.4500330474808812,1.3407409469887615,0.7639227635473013,-0.31768070584721864,-1.1305120964050293,-8.69514187927246,6.4596757400884774,-21.071425580076355,8.868478981563698
5007,0.01666666753590107,0.5239123765535653,1.424881411704421,-0.015960370197892187,-0.3094505645751953,-1.0655687918514012,-9.464428215679526,7.520485653574674,-13.427937611059859,8.788027037103763
5023,0.01666666753590107,0.5672824394635856,1.4103238940417766,-0.2422422376990318,-0.30137013397216794,-1.098190081731975,-9.682750064086914,8.370032266503676,-11.38259904428546,6.541342177560204
5040,0.01666666753590107,0.6476831331290305,1.1102169118732212,-0.5725806920021772,-0.2615666044373065,-1.4196116546079516,-10.003573086547851,5.04597428473664,-10.389038746480384,3.149464899646583
5057,0.01666666753590107,0.7816968321036547,0.9317921895682811,-0.865112855002284,-0.14993687896728514,-1.6054615584775804,-10.291924748992919,1.3704481084939686,-6.172063731215234,-0.009462319960553524
5073,0.01666666753590107,0.7735046116892248,0.8642550691291689,-0.9700251818507909,-0.1632546987671405,-1.673397030584514,-10.396222158813476,-0.9427669557120403,1.5857132595745564,-1.9787662070381662
5090,0.01666666753590107,0.7770620119098574,0.766879275265336,-0.9558429272413254,-0.14155710009150207,-1.7675193756103516,-10.384700063323974,-0.6781416283253571,7.452102653378153,-2.5939999788387076
5107,0.01666666753590107,0.8394423341076821,0.6574526858627796,-0.6064975746512412,-0.05536584032587707,-1.878999098150432,-10.037091909790039,2.6287889070459327,10.41375720108666,-1.3468991103396455
5123,0.01666666753590107,0.8367811520744115,0.6489262650579214,-0.3608037351936102,-0.029328970336914062,-1.896955610601604,-9.791536602020264,5.319535313826698,11.95370872683066,0.9627553975963768
5140,0.01666666753590107,0.6000801088243722,0.5725514659076929,-0.07886369335651397,-0.23044198285527526,-1.9883844787597655,-9.508722115436196,5.805981813401829,9.157567591958133,3.50156520678556
5157,0.01666666753590107,0.44792548074238,0.34312779324948783,0.18973814347982407,-0.36272155151367186,-2.226906526891887,-9.239374428668617,6.525055164597486,5.351221842046856,2.922274878605388
5173,0.01666666753590107,0.47098567300811406,0.2730053324922919,0.3370072645425796,-0.3298012786865234,-2.313696337072551,-9.088389501953124,8.949282680765887,2.6843106610353202,1.4325384767524985
5190,0.01666666753590107,0.49488355820700525,0.2871384872630238,0.5251467406541109,-0.3006219459533691,-2.3286600974485276,-8.89266351623535,9.881395181702942,-0.4686333128588851,1.3903806282044757
5207,0.01666666753590107,0.5246563267886638,0.3244607944414019,0.5653636002302169,-0.2744353652954101,-2.311302135412395,-8.846575134277343,7.616564217081952,-3.023931145343626,2.4393156174883712
5223,0.01666666753590107,0.6063215604972094,0.3308776757463813,0.5030056359946727,-0.20216032961420713,-2.318933653204143,-8.904185611724852,5.165523939553019,-3.1101230100273094,2.5326038352762863
5242,0.01666666753590107,0.6072624215438962,0.2912476761475205,0.38996260966062546,-0.2032078659057617,-2.373551670837402,-9.012822512054443,5.567163395298687,2.2719725677284734,2.7070460129047653
5257,0.01666666753590107,0.664013067291677,0.30565847881585356,0.43129298343658445,-0.13946231976933776,-2.372204932403564,-8.968380143737793,5.988228762817517,2.4358926254971367,3.1939558981264
5273,0.01666666753590107,0.7642693850278854,0.25580431458353997,0.47616263725459573,-0.03755896547846496,-2.435201779064536,-8.919896975597739,5.443533983113694,-0.045156461676217036,4.520558567738823
5290,0.01666666753590107,0.9164569655314088,0.19123831890970466,0.606716185837984,0.10324987352900207,-2.5133129004880783,-8.78447552871704,4.0497284419272805,-5.110673678536409,6.966969257670957
5307,0.01666666753590107,0.9614030455864966,0.11908172197639942,0.5408972674936056,0.12734160079956053,-2.592022280065715,-8.846575134277343,3.00032024859995,-8.122255201530416,7.859867508148853
5323,0.01666666753590107,0.9613682665340602,0.014055121098458766,0.48313890600800513,0.10265139617919922,-2.7012577308103443,-8.900893584442137,1.9487628935615928,-7.627919406577098,7.749084401132185
5340,0.01666666753590107,0.9834658243127167,-0.05113631299734115,0.35914720015823837,0.09891045608520507,-2.768295377294719,-9.02195040588379,0.74072270298707,-4.5260666884176155,7.232775887618935
5357,0.01666666753590107,0.8971559066034853,-0.12353840912431478,0.15715338621735572,0.0032920272827148436,-2.8386253433227537,-9.223661895751952,-0.9930055583784229,-0.9450026687264559,6.9133219637219145
5373,0.01666666753590107,0.810560084624961,-0.13005495141148565,0.12008943771421908,-0.08798691101074219,-2.8387746886655685,-9.262118759918213,-3.0122186515775238,-0.5865686951536143,6.137020591904837
5390,0.01666666753590107,0.7616729387938976,-0.2140510392203927,0.042647886115312575,-0.1444002876281738,-2.9080568992063403,-9.343072703552245,-4.645595425779662,-3.836156537430621,4.213955217878359
5407,0.01666666753590107,0.8325695987939834,-0.30977906587719917,0.021726094117760657,-0.0848445213317871,-2.9920038871765136,-9.36626653213501,-4.479976571898369,-6.575566974830669,3.4303860978975647
5423,0.01666666753590107,0.806249454884231,-0.3190329241737723,-0.06024082595109939,-0.1282393533568829,-2.9905075111389157,-9.4496146774292,-4.055505074417819,-6.799988634823893,4.041815240886997
5440,0.01666666753590107,0.6445943002682178,-0.3257844442605972,-0.1440782160669565,-0.3003226707458496,-2.9831749762937423,-9.536404487609863,-5.09275339658841,-1.8387144587675242,3.9183138947489424
5457,0.01666666753590107,0.4989218738123774,-0.32665976579040285,0.022181436669826506,-0.4348468034606427,-2.9704557799741624,-9.375095150756835,-7.040499232293906,1.2865342186201902,2.419869642034522
5473,0.01666666753590107,0.4728123769786209,-0.36779461699426175,0.14371931962668894,-0.4490625219482928,-2.994847001647949,-9.259425283050536,-7.776451261589134,2.0048114258907175,1.592548357943035
5490,0.01666666753590107,0.4152491727389395,-0.4103834663987159,0.40301089180409905,-0.48766895065307614,-3.0183398131772874,-9.007285920715331,-6.560923476136985,-0.2345732420905676,1.8569429530018189
5506,0.01666666753590107,0.3599640694990754,-0.41500118932723995,0.6086094522386789,-0.5307645805358886,-3.0131024970456957,-8.805574430847168,-5.003550699141221,-1.8032529703704643,2.3906191434705306
5523,0.01666666753590107,0.3102892073564231,-0.4175511660709977,0.6886240691959857,-0.587477305426076,-3.005770254461467,-8.72761323928833,-3.830994195078561,-5.413141775741253,3.47002189909456
5540,0.01666666753590107,0.14188845093771815,-0.48079526549130674,0.7639245171129703,-0.7778162643432617,-3.060088704626262,-8.652644799804687,-2.708842352656479,-8.523101074671894,4.091104447258748
5556,0.01666666753590107,-0.060415305735170836,-0.4692012738093734,0.7540870137095451,-1.0051157844543457,-3.0458731322690844,-8.660725230407714,-1.4050426964749658,-11.45961454981923,4.233489558904596
5573,0.01666666753590107,-0.18881167628467083,-0.48842649102210994,0.7141355270713567,-1.1646294700622557,-3.0644281951352954,-8.697685718536377,0.12534996618538796,-12.5341595468395,3.5091608040294373
5590,0.01666666753590107,-0.5033362561885267,-0.41706338255405423,0.7886533001780509,-1.530942324066162,-2.994248158971965,-8.617330325317383,-2.2424744748070693,-20.065809998386207,0.3001837457730192
5606,0.01666666753590107,-0.9278769888859242,-0.2002098531335592,0.40685470775067806,-2.011279105200246,-2.7684450148984787,-8.99531491241455,-7.732083206514377,-25.904692833019986,-3.5961633267902364
5623,0.01666666753590107,-1.132840977744013,-0.07258066756427288,0.2307838550955057,-2.2789807052612305,-2.616562847082317,-9.170540546417236,-14.827048074797258,-28.908587831876794,-11.213025937761554
5640,0.01666666753590107,-1.2520634233653545,-0.05296820459961891,-0.4621171607673168,-2.479644731903076,-2.539798756353557,-9.868450330352783,-25.471471009439004,-29.760244119485684,-27.92449759135594
5657,0.01666666753590107,-1.0862724110536277,-0.03067278616130352,-1.3410259014099835,-2.3588871856689453,-2.4582462623044847,-10.756848783874512,-31.437943485315916,-24.091986240507993,-39.87609578973307
5673,0.01666666753590107,-1.0049025800950824,0.10964140119701624,-1.720033401814103,-2.300827795410156,-2.252943616076559,-11.149198580932616,-32.43004212263861,-16.730572277608328,-43.717100480813926
5690,0.01666666753590107,-0.9872048647105693,0.38361294837296006,-2.1083266169577835,-2.298134172412008,-1.8993496661312876,-11.555015177807212,-26.7271210336231,-14.9414930169827,-40.76966211808916
5707,0.01666666753590107,-0.8649462662637233,0.35385450057759876,-1.8491805907309053,-2.19608147277832,-1.8867802535459397,-11.303175675201416,-18.312753155443225,-21.258586423713044,-38.77745986173652
5724,0.01666666753590107,-0.8354464694045484,0.3778009010933339,-1.6307003368914126,-2.2104466827392577,-1.8418891185484825,-11.08335803527832,-9.554506596894363,-32.07950998424438,-37.44536465281435
5740,0.01666666753590107,-0.8242720183089375,0.5423335839070379,-1.333632284027338,-2.287360411071777,-1.6730977553769946,-10.774057108306884,-7.112071077059177,-37.30927996379101,-40.1243799962522
5757,0.01666666753590107,-0.7444638837091624,0.5617145762033761,-1.6568828258961439,-2.2698528114318846,-1.644966032000631,-11.08949317703247,-13.676899713854116,-31.0835147240002,-42.50276456337195
5773,0.01666666753590107,-0.7806329291991889,0.48143926248326896,-2.0083067383259534,-2.340631105749309,-1.703174767602235,-11.44039277332723,-17.213126850017023,-16.28526443429101,-44.6045674502412
5790,0.01666666753590107,-0.7553697469964623,0.42214638490676876,-2.0525836869478225,-2.2975359142579137,-1.7393873599730432,-11.492916156768798,-10.150570375572206,5.524881536128546,-42.979846446708166
5807,0.01666666753590107,-0.6144003105998039,0.4081823030926287,-1.4168851522535084,-2.1097407215394077,-1.7540516990110278,-10.864587858581542,-2.460552383165233,12.894998440691275,-38.47673346277003
5824,0.01666666753590107,-0.5886690724939108,0.38163463403731585,-0.9353250398695468,-2.03177952998057,-1.7975963878355918,-10.38724390258789,4.924440459966371,11.250544166872434,-33.64588751188716
5840,0.01666666753590107,-0.6442939290821552,0.36385099393501874,-0.008367430850863456,-2.043301333209127,-1.8607433104917406,-9.456348369598388,14.16853075389611,0.9146419442572203,-26.125632377196975
5856,0.01666666753590107,-0.6276188347436488,0.4757262916639447,0.7690186253815889,-2.0196587379455564,-1.8026839202329514,-8.667159647369385,22.521244221985572,-6.033820702414175,-22.52765435452163
5874,0.01666666753590107,-0.6585714607596397,0.5248423508800566,1.0840618953973054,-2.0536264739990235,-1.8252791984006762,-8.334066341400145,28.357263499809825,-6.132534438280608,-21.677017472646366
5890,0.01666666753590107,-0.6579859159566461,0.7099778228700161,1.5159107591509817,-2.047192203167826,-1.7408837360106408,-7.877372374725342,24.189897002260125,-1.3410546028442303,-23.60726991322699
5907,0.01666666753590107,-0.8120845907784998,0.8559639183849096,1.7959996201634405,-2.1830630012512207,-1.6527470412656664,-7.584681221771239,15.68528866476604,3.0607245206288387,-24.73782331521501
5924,0.01666666753590107,-0.793568398617953,0.9574597147881985,1.9856009855210779,-2.1399675174988806,-1.5888517844602466,-7.388506323242187,7.998095169024279,2.0830077003772547,-26.12822101889241
5940,0.01666666753590107,-0.6454957060873509,1.056102752108872,2.2200497928649185,-1.976263686724752,-1.5182225432246923,-7.148636659893393,2.416686987324707,-7.942570853713953,-26.353513101117986
5957,0.01666666753590107,-0.38439196992143987,0.9799690682381391,1.8771867880314588,-1.7277157730102537,-1.607556484930217,-7.486070040893554,1.3462695589972409,-15.919943228796413,-26.052445192692996
5973,0.01666666753590107,-0.3195936267964542,0.944535935807228,1.5829671103358267,-1.6882114456176758,-1.6563386360168455,-7.772925327301025,2.5220697625854225,-17.910087890661586,-22.546698629474918
5990,0.01666666753590107,-0.2503194534316659,0.9990051926195621,0.9231190537691116,-1.6585832000732421,-1.6213231444761156,-8.421454701995849,3.1311025763932383,-15.944484098484269,-17.44101781922179
6007,0.01666666753590107,-0.14967559768259525,0.7297530751809478,0.3688946871906519,-1.5776294025696813,-1.903240389959514,-8.969128331756592,1.9885244129279989,-9.162027705486151,-15.445366317338294
6024,0.01666666753590107,-0.21750731715410945,0.6563228050500154,0.19785539896190166,-1.651699870300293,-1.9838950583860278,-9.137171360778808,-0.43857284990886564,-5.072744357414858,-13.744203544161776
6040,0.01666666753590107,-0.42099034673944113,0.5162789590656757,0.035599136647582054,-1.8558054156981407,-2.1269483153194186,-9.298480113109946,-0.7738982658071442,-2.5032107565133708,-11.874913103244454
6057,0.01666666753590107,-0.2470136898845434,0.3862228386104107,0.24409166495800017,-1.6798315936766564,-2.262669914190471,-9.088688192638754,1.9927826089886786,-2.6414081084243546,-11.781536733327565
6073,0.01666666753590107,-0.22851795599013566,0.2855219919770956,0.2814525505810976,-1.6599297923766076,-2.381631809179485,-9.04634133529663,5.518984094667063,-2.5739952085333866,-9.539017435404066
6090,0.01666666753590107,-0.2870139841005206,0.2722618206486106,0.2557020232528448,-1.7179894748963414,-2.4118586051389572,-9.067290599822998,5.4931937272479185,-1.9361368619940011,-8.246301682141603
6107,0.01666666753590107,-0.30153292331844567,0.1726654281258583,0.2954641247987747,-1.7301101208008824,-2.5273791275024413,-9.023297144317626,5.026641007404096,-0.5996195324710691,-8.361765176287022
6124,0.01666666753590107,-0.34356253140494225,0.07980974203497171,0.37312019593119616,-1.7615338714599609,-2.641253051702678,-8.941146099853515,5.520227189096006,2.1357459388364504,-8.500396672097125
6140,0.01666666753590107,-0.4061326770864427,0.08014028916358948,0.4405851279169321,-1.81315884475708,-2.6563661574214694,-8.870816426086424,5.421016983854278,1.9905847821798155,-8.13408252785194
6157,0.01666666753590107,-0.4307214671589434,0.049936874079704284,0.5439519788891076,-1.8288707931518553,-2.7003599051877853,-8.764722780498861,5.1077670061577445,1.665424128509544,-7.965026808157662
6173,0.01666666753590107,-0.46467546694800255,0.0008072247296571731,0.631973961213231,-1.853710489245504,-2.767097984203696,-8.672845291790365,3.9980678792530657,-0.07545011155336898,-9.088356431324748
6190,0.01666666753590107,-0.46625762157291173,-0.005193476989865302,0.6229974585533141,-1.848622810717672,-2.784456238500774,-8.679429346355795,2.5493337433179977,0.5575050129355936,-10.28877327701189
6207,0.01666666753590107,-0.3964513871580362,-0.0375274743616581,0.540461798685789,-1.7700633610047398,-2.824409478704631,-8.760982424926757,0.6839466487896332,1.5656836231117883,-10.663650770928978
6223,0.01666666753590107,-0.2994787672676146,-0.07587561745643616,0.4218219752579927,-1.6558898693360387,-2.868103659002483,-8.88054287033081,-0.3995274865491059,3.875422441195378,-9.351042091708853
6240,0.01666666753590107,-0.2162963339291513,-0.10264584322124719,0.37888182819783683,-1.5578770927429197,-2.896534511455893,-8.92513487625122,-1.0523605425960683,4.190480284587848,-7.367397208612594
6257,0.01666666753590107,-0.17056743293330073,-0.2571124745726585,0.267044670522213,-1.4920366932190954,-3.0508111731931566,-9.03990691833496,-1.5101277181765507,6.072193985831777,-3.059940969864991
6273,0.01666666753590107,-0.2235968662008643,-0.3925046953588724,0.2477583707720041,-1.534832901763916,-3.183988932800293,-9.061305095672607,-1.850644024483186,3.708084087190535,1.119595964290322
6290,0.01666666753590107,-0.34527123501896856,-0.49445583431422707,0.2895814965009689,-1.654692622375488,-3.283048734228313,-9.02060366744995,0.32135018184577135,0.859324242169287,5.3663823006833455
6307,0.01666666753590107,-0.38933088762834667,-0.727591220971942,0.46649639876484866,-1.7105074485778808,-3.526957736095786,-8.838793394359946,7.39718366358302,-1.41073139027994,7.601465230147992
6323,0.01666666753590107,-0.4615642030596733,-0.8531964994981884,0.6534422811776399,-1.791760813549906,-3.6739021552488205,-8.64411545639038,10.259305279611516,0.46912087097174765,8.497415294524414
6340,0.01666666753590107,-0.5297875521972775,-0.8748428063780069,0.6817670429080724,-1.8638859924316404,-3.7171474227353927,-8.608651344299316,8.393337725725406,2.2303310387930213,7.320842639229787
6357,0.01666666753590107,-0.5824547280237078,-0.9938274977207183,0.7098387066602706,-1.9092260402403771,-3.8563103942319747,-8.575431796264647,3.9630029687146897,7.513890252157381,5.285544450535306
6373,0.01666666753590107,-0.5830735905744135,-0.9629419455915689,0.8760843308717012,-1.8980035122193395,-3.8347625792905684,-8.40798731765747,0.8331165395196837,7.250238973779365,3.211929114040465
6390,0.01666666753590107,-0.5267264110609888,-0.980222750738263,0.8581973765254021,-1.8321626743040977,-3.8542154677793383,-8.426542380523681,-0.9779041168452305,4.326354518407381,2.0853436250733988
6407,0.01666666753590107,-0.46172553110122677,-0.9587196517214178,0.8467652974069118,-1.7691655353821814,-3.8373064185544847,-8.436268824768065,-0.878900364743337,0.11174469626618537,1.7038645398800816
6423,0.01666666753590107,-0.429183590067178,-0.8595183959960937,0.5664204158067703,-1.7462708358764647,-3.746476393072307,-8.712649478912352,1.1310331160555083,0.7809341610650508,1.621436643037604
6440,0.01666666753590107,-0.44740006862878795,-0.8736977279961109,0.46889469207823276,-1.7600376415528356,-3.7707179771423336,-8.807669357299805,3.3048877752009274,7.816171372933697,0.7871091856832712
6457,0.01666666753590107,-0.3636373511843383,-0.8155769629389047,0.49663434739708895,-1.6473603797912597,-3.731063719885051,-8.77819074935913,2.075158959247264,15.612444697267854,-0.09612986996733129
6473,0.01666666753590107,-0.1961613083951175,-0.823538151076436,0.9242863439828157,-1.4471451198302208,-3.7494691451475024,-8.351722994121909,0.6726637098893011,17.873223652163734,1.1158885589531802
6490,0.01666666753590107,-0.059421764653176064,-0.8150012088775634,1.178276887142658,-1.2726678930420428,-3.7428850905820723,-8.102128055572509,-0.7660616375907595,16.377782761693414,2.1928783368094913
6507,0.01666666753590107,0.05702697847113013,-0.7883850046306848,1.4802303739607334,-1.1180921022277324,-3.7114614860534667,-7.806593788146972,-3.584676656153568,12.673602981387189,4.50544805486064
6523,0.01666666753590107,0.09356624551303684,-0.7692541877031326,1.4931921468645333,-1.0588356842041016,-3.6810844679683443,-7.800009733581542,-5.914343191470905,12.178958974147573,7.107514060222309
6540,0.01666666753590107,0.13659458231329918,-0.7787310411006212,1.4603805951088666,-0.9938930372375995,-3.6715082458496093,-7.841459349822998,-8.30207871445122,11.840586280023263,9.66424895383625
6557,0.01666666753590107,0.22709961362481115,-0.8645300866782665,1.2530202856987713,-0.8786720092773437,-3.726125386700034,-8.061426627349853,-8.424287020402026,12.358250586086761,13.812017077336247
6574,0.01666666753590107,0.28024302866086365,-0.8740589625239372,1.0496446620106696,-0.8065466111999005,-3.7141546706601973,-8.2736127494812,-6.668066946099682,13.55727663450416,19.079330899203143
6590,0.01666666753590107,0.27595636431761084,-0.8254521680042147,0.9275117357701063,-0.7944260383605957,-3.6442736174434422,-8.404096739959716,-5.7979367043332,13.374724461009937,26.238195602266078
6607,0.01666666753590107,0.186327165992558,-0.5547556969761848,0.8889613481014966,-0.8803180229187011,-3.3399110236570237,-8.453177873992919,-8.644418040936014,5.296523125852455,34.972125833596046
6623,0.01666666753590107,0.2494183398734778,-0.5163371189936995,0.6153577574551106,-0.8457518095154315,-3.264793238830566,-8.73434693145752,-12.966417459973867,-7.094147380016595,39.18544755142889
6640,0.01666666753590107,0.21290610696896908,-0.5855675993472338,0.33346798450052734,-0.9422680639404803,-3.2849943153381345,-9.023297144317626,-17.699911017069244,-18.072096562679704,39.806882067778744
6657,0.01666666753590107,0.07259528061151505,-0.464587934795022,-0.8126461701840162,-1.1861774311341344,-3.0807386939451096,-10.179696546173096,-22.873200454821745,-20.986688545685883,37.058844247683325
6673,0.01666666753590107,-0.14032485488280652,-0.4215045798718929,-2.2801088325083256,-1.4645032279968262,-2.967313390295207,-11.657517520904541,-24.167545208201258,-11.948150660393562,34.042537087557314
6690,0.01666666753590107,-0.13182707565054297,-0.4350745478019118,-2.7181220641106365,-1.4839561164855957,-2.915239504186809,-12.109123809051512,-19.144593356722616,7.308018959063088,31.73079467616938
6707,0.01666666753590107,-0.014095160847902298,-0.2472971830010414,-2.7593723583877083,-1.3332710494995117,-2.661903041021526,-12.172121240234373,-14.294552866724723,25.893341058619427,30.663557127787378
6723,0.01666666753590107,0.02378843347504735,-0.1960425043210387,-2.5445067879140377,-1.2476783401489258,-2.5604487456724048,-11.97654489212036,-17.932659958321185,28.470443149451523,33.373550794205826
6740,0.01666666753590107,0.14018245073743163,-0.1790118745431304,-2.2816589845597743,-1.0836754533629864,-2.485629797662049,-11.7342816116333,-18.5888157413168,27.155568554974245,36.13666284179947
6757,0.01666666753590107,0.14332169861122965,-0.10168810410499572,-1.8085960668861865,-1.0244191084045917,-2.3479633483335376,-11.282824961090087,-6.441524512369169,25.50235541731851,40.25469659052146
6773,0.01666666753590107,-0.07846928721144796,0.06718041595593094,-1.398942668327689,-1.209969737066701,-2.1669019939146934,-10.880449444580078,6.54244653377163,23.17282207068999,42.048871172267916
6789,0.01666666753590107,-0.15992197414785622,0.1969680947333574,-1.1648539264678954,-1.2623428253173827,-2.0545240073606372,-10.645668044281006,16.751592184779042,20.621643962852676,43.08339552962015
6807,0.01666666753590107,-0.1865965575184673,0.3739733056291938,-0.7192085925519466,-1.2578536972045897,-1.9271824065610765,-10.191667554473876,21.887993478371598,19.543795715595056,43.04188505493939
6823,0.01666666753590107,-0.3103412298046052,0.5987039981655776,-0.3003039660453796,-1.35975690536499,-1.7438764880858362,-9.765050746154785,20.627511095349718,18.372973225807936,41.068694630141486
6840,0.01666666753590107,-0.38478411104418336,0.7151242458477616,-0.1422574303805828,-1.4170681076049805,-1.66486783330068,-9.599551556396484,18.17546806067326,14.543724997835959,36.425678881433974
6856,0.01666666753590107,-0.34981326236277815,0.8779127153426408,0.05040858324468136,-1.370680450439453,-1.5472525306150315,-9.396642965698241,16.61096541995765,8.59723424037592,28.253200445162804
6873,0.01666666753590107,-0.24389431575499473,1.0640893669486045,-0.0054775546282529826,-1.2644377517700194,-1.394472537176311,-9.443928448486327,16.016993386713125,4.957961747752324,21.98794475913827
6890,0.01666666753590107,-0.16334274237677454,1.1666034004837273,-0.11294190404713153,-1.1846809089660644,-1.3259385146543383,-9.542389991760253,15.732273536066558,5.07050490914074,17.0841455577305
6907,0.01666666753590107,0.10491203458756208,1.4021087311431766,-0.1963023243010044,-0.9120412679810076,-1.13320528101176,-9.61481459197998,13.30794826281566,5.166574081137909,12.962705252159964
6924,0.01666666753590107,0.3394052655950188,1.5659794429168103,-0.2961953616827726,-0.6741174049377441,-0.9947907897949219,-9.708188456726074,10.239863146139076,4.262384247301512,11.525312431898291
6940,0.01666666753590107,0.3515788837958127,1.6411749691545963,-0.35062545552849766,-0.6582557458739727,-0.940621392711997,-9.757269006237387,9.655895632481325,5.286803766663527,10.61831282899208
6957,0.01666666753590107,0.3453589133024215,1.7361963088467716,-0.4927981302350759,-0.6485293746948242,-0.8794199050351977,-9.891793796539305,13.574376866864933,10.43738624052032,8.754052822398474
6973,0.01666666753590107,0.38024624841883775,1.742728633224964,-0.26773966704905033,-0.5889736083984375,-0.9077014121457934,-9.65955623550415,16.001640829006227,13.587910032931667,7.125793780875379
6990,0.01666666753590107,0.4011079807922244,1.7587819424033164,-0.09455109183192252,-0.5391442863464355,-0.9286509689331054,-9.478794010162353,15.171094948574554,13.764001701244704,6.668936941445213
7006,0.01666666753590107,0.4103803245935589,1.820583441799879,0.3166834384381771,-0.4950012663025409,-0.9091974959224463,-9.05876125640869,12.126047206194777,11.596241385107934,8.444229465231171
7023,0.01666666753590107,0.36216779008843003,1.7901263442158697,0.6774573630154133,-0.5249286409240216,-0.9645637015745043,-8.692447817882895,10.046258872794125,8.522449645379805,10.427459414335353
7040,0.01666666753590107,0.30925372682884333,1.7328925911262631,0.7441688462853431,-0.5687726049561053,-1.042525185394287,-8.620472714996337,9.194830542748784,5.71607859467789,11.271902168407063
7057,0.01666666753590107,0.141531088867411,1.5788810100659727,0.7860445789843797,-0.7281366529602556,-1.221342121887207,-8.571990131378174,7.894718548388843,6.055740060121216,11.252359289644364
7073,0.01666666753590107,0.08285488188453018,1.4435449033811687,0.7473106514424085,-0.7809586540222168,-1.3703808829709887,-8.607154968261717,5.03023624822846,5.245295426416891,10.269929638865472
7090,0.01666666753590107,0.07561258260607719,1.3372013746857643,0.694912355685234,-0.7829038698058575,-1.48141169269979,-8.658629719433188,0.4194478399851539,4.941777614513979,9.805288091328782
7107,0.01666666753590107,0.08001140208691358,1.1952043488070367,0.5193284097641706,-0.7769184387207031,-1.6111474951595066,-8.838045206341146,-5.559160548025548,2.213698887833806,10.900779570986188
7123,0.01666666753590107,0.05470810706950724,1.0898282038390636,0.3267249399811029,-0.8083423355102538,-1.6986857856199145,-9.035417790222168,-6.329134176463432,-0.31129499612917544,13.048118475278267
7140,0.01666666753590107,0.030067075353115796,0.9980129667118192,0.20660919878184794,-0.8473976770263165,-1.774253067779541,-9.159018450927734,-4.165706761581389,-2.8482110820101196,14.695186150228285
7157,0.01666666753590107,-0.1265218088492751,0.8031266466885805,0.04196224193871021,-1.0293570031981916,-1.9560621718257665,-9.325115606579184,-1.6303244266950832,-3.6117054222466005,13.205477496018897
7173,0.01666666753590107,-0.2558027071483433,0.6150578977257013,-0.04135843082666397,-1.1742062767028807,-2.1353283133909104,-9.409511799621582,-2.946406363829866,-1.7590635674311859,10.607171936682143
7190,0.01666666753590107,-0.26051022725217043,0.527283752682805,-0.0466249730527401,-1.1872248212952166,-2.2086507392331955,-9.418190780639648,-6.90397442295593,0.21062691902562025,7.194655748087448
7206,0.01666666753590107,-0.20228753619045017,0.40193332570046186,-0.15604045653939247,-1.1282675323486326,-2.299779747661948,-9.53760158843994,-11.402250352301232,3.1872808823165935,3.1995237829604295
7224,0.01666666753590107,-0.20787373882494867,0.3076645579412579,-0.12259294496774673,-1.1260229682922362,-2.3635256591245533,-9.513659571838378,-11.052717129073123,4.4604896153095,1.1760099117400422
7240,0.01666666753590107,-0.14641360021196304,0.2887295558467507,-0.08910743947327136,-1.055394019317627,-2.3566423293516037,-9.488370816802979,-8.527606438203163,3.6571744184381987,0.3681437544886758
7257,0.01666666753590107,0.005835208959504961,0.26638299174308777,0.08935235414505005,-0.9033621408324688,-2.3518539260312914,-9.317484673309325,-5.800417343662384,-1.8433841737256973,1.8751908705865656
7273,0.01666666753590107,0.11682247180752456,0.2452022565484047,0.19800211395621298,-0.8122328401427715,-2.355744503729045,-9.211690302929282,-3.9637624003730303,-8.236588299368199,3.129997366408166
7290,0.01666666753590107,0.19962832691855728,0.2022173935636878,0.21887071446180342,-0.7606079399108886,-2.3882158637449145,-9.190591985321044,-1.7687291388804,-12.316960385006741,3.9348920445250326
7307,0.01666666753590107,0.2903431285232305,0.10916297003030777,0.22577859415411947,-0.7166144844055176,-2.4732100226804614,-9.18101517868042,-0.35211092594870225,-10.517024538695376,3.203813782089432
7323,0.01666666753590107,0.3484869821950793,-0.0019148937106132505,0.15744330907464027,-0.6838437761168926,-2.5757117812559005,-9.248950650787354,-3.7369681034168725,-8.220454538774982,0.5976430998408495
7340,0.01666666753590107,0.2923802603740245,-0.20927695668637752,0.13090835337042808,-0.7561188117980957,-2.761860960333049,-9.279476721954346,-7.602985801011966,-3.6931362181919623,-1.644639969586901
7357,0.01666666753590107,0.2860208083447069,-0.23307898029536006,0.18145196117162704,-0.7655460539001971,-2.766799293518066,-9.233687615203857,-7.533854895101328,-1.9872892159052844,-3.126516531252398
7373,0.01666666753590107,0.34291246999837455,-0.3504600358337164,0.3763058402299881,-0.7085339807372539,-2.867954021398723,-9.043198945617675,-6.584293822155829,-3.8038151648237872,-4.034883879539904
7390,0.01666666753590107,0.3923476051010191,-0.45289165178239343,0.48324470447003837,-0.6735187083922326,-2.951002891485393,-8.939798776897787,-7.032553587855066,-9.246632404961453,-5.014601091444655
7406,0.01666666753590107,0.40597982461228965,-0.4926715812459588,0.4542506651759147,-0.6799531984191387,-2.9740470824643968,-8.970923398479819,-8.332573801548035,-11.109360741633685,-6.753198423914721
7423,0.01666666753590107,0.40737076751403506,-0.5025149298682808,0.2511409989476204,-0.6965630455017089,-2.9664155646726487,-9.176526050567626,-8.83371844133021,-9.476701350737809,-8.048349139616294
7440,0.01666666753590107,0.465263422903791,-0.4269255820073187,0.20514672501385212,-0.6533177780151367,-2.869450543566793,-9.22635537261963,-7.796803517768479,-6.544775201391782,-8.990007683692088
7457,0.01666666753590107,0.5275759405624121,-0.4051698234036565,0.18362053738236425,-0.5976525163512677,-2.8335375186644494,-9.25074630203247,-7.439156029806394,-5.178614423984172,-8.921505155185091
7473,0.01666666753590107,0.5214041200596838,-0.3675651921525597,0.15209376474022865,-0.6042366439819336,-2.7856534854613244,-9.284863675689696,-6.917999362642904,-4.161317938152833,-7.903483388641262
7490,0.01666666753590107,0.46249622321277856,-0.3287798266842961,0.0751239223062992,-0.6697779144287109,-2.7340283660337326,-9.364320658764242,-5.430325677919359,-7.501735930529343,-6.405701450832921
7507,0.01666666753590107,0.4469425341196358,-0.3761399821437895,0.11355857464075088,-0.7010521005492657,-2.7757772574827073,-9.325415466308593,-2.5863503804117047,-11.30973287867247,-5.81145706379524
7523,0.01666666753590107,0.3640065498229116,-0.3513688212417066,0.10983341663777828,-0.8063971197266131,-2.75482799295634,-9.325415466308593,0.4083547056385541,-14.748347220085785,-5.348794990457386
7540,0.01666666753590107,0.2319544332448393,-0.36404344776719805,0.11187924325168132,-0.9689034843444824,-2.7790694308958948,-9.316586847686766,1.3668125268648177,-13.191834193151797,-7.5916229275540035
7557,0.01666666753590107,0.15174202869310974,-0.4181880026698112,0.001502221256494522,-1.0640730003356933,-2.8395228766843674,-9.42342809677124,-0.5748616441945067,-9.935211949720765,-11.57073233610523
7573,0.01666666753590107,-0.03694587508141994,-0.5733931774288415,-0.11162030005455016,-1.2449849363464862,-2.99918634602651,-9.536404487609863,-2.3888309145684565,-1.8134816055393814,-19.00265348803329
7590,0.01666666753590107,-0.08342917464114726,-0.5903355444014072,0.06002864450514316,-1.2707224580626935,-3.017591771288961,-9.367014720153808,-3.817476396937459,0.4595333130894596,-24.234289816770623
7607,0.01666666753590107,-0.03423836968839168,-0.6010881168231368,0.1784685614466667,-1.203984159851074,-3.025522418157756,-9.251494490051268,-5.05610089395483,-0.1323806454199244,-28.231543622851987
7623,0.01666666753590107,0.02064955092743039,-0.5395585662357509,0.44628480086326594,-1.1314099220275877,-2.9580360049925742,-8.987384119415283,-5.438604720967061,-5.094677375500239,-30.851028745031304
7640,0.01666666753590107,-0.030719547912478447,-0.3540698968939483,0.6130132401555777,-1.1833341705322264,-2.770988854162395,-8.820987104034423,-3.1488245694118944,-11.445552897865467,-30.270643665593227
7657,0.01666666753590107,-0.029938918928802013,-0.17045374342575667,0.6764876412004232,-1.2027872051514685,-2.5903762664243577,-8.754248732757567,-2.5146532443638465,-21.205297287808605,-31.289629342583673
7673,0.01666666753590107,0.040440293068438764,0.06075359777882695,0.37628129031062124,-1.1917138763427733,-2.3566423293516037,-9.04753843612671,-8.08163179766812,-29.278702122621443,-32.525712582342976
7690,0.01666666753590107,-0.08186272904202342,-0.04208016922995448,-0.378758494079113,-1.3617021942138672,-2.442683951513469,-9.80051485824585,-14.87885164455722,-25.652812531902843,-37.196271068878566
7707,0.01666666753590107,-0.13848229575604198,-0.030274726754426953,-0.7492004107117652,-1.4437036010742186,-2.399738105364889,-10.175357055664062,-21.299760511577173,-15.341673800453746,-43.27821984550559
7723,0.01666666753590107,-0.2202666988648474,0.02076426334828138,-1.1962620411664247,-1.524507907104492,-2.2899039580747482,-10.637138700866698,-26.095290969356487,-8.396214942913275,-46.924099692377524
7740,0.01666666753590107,-0.04247194502651691,0.053662616604566574,-1.3653180466234682,-1.3413516262330114,-2.209847986193746,-10.818349839019774,-23.843795949089944,-10.008198497417876,-44.60142214812841
7757,0.01666666753590107,-0.05052227275222539,0.11141162573993206,-1.3226356737166642,-1.355417414855957,-2.1163244838438926,-10.783334639739989,-16.11170078974452,-15.484426461654305,-39.2227301390134
7773,0.01666666753590107,-0.10610767411291598,0.2529382576279342,-1.1265180583328007,-1.452831348773092,-1.9577084777280687,-10.58536350544393,-4.6495052821926715,-25.61258442523876,-31.592572137935832
7790,0.01666666753590107,-0.22602760047912596,0.399009693338722,-1.1170365287601947,-1.6217723495483398,-1.8155527541562915,-10.567856490325926,-2.1025115189956374,-26.873814713974756,-29.68892328417241
7807,0.01666666753590107,-0.3110107996292412,0.4332379800245166,-1.3136585865348576,-1.7486651836670934,-1.783231031744182,-10.757746609497069,-6.005904011729041,-20.62290413275454,-30.616589331959787
7823,0.01666666753590107,-0.5932096385329961,0.36735827140361066,-1.7393337300896643,-2.05587103805542,-1.8363525272093713,-11.182567766571044,-10.010571134380807,-8.934514958006673,-33.698538025104206
7840,0.01666666753590107,-0.7317198452092707,0.37357977626696226,-1.6609440839856862,-2.183212784985453,-1.8234836932860314,-11.107449689483643,-5.103130161484953,2.106317641910627,-33.62541743494463
7857,0.01666666753590107,-0.7522736806772649,0.4408560538128018,-1.3984604377686976,-2.1715409057617188,-1.765573940631002,-10.847678809356688,2.5232144596016344,7.37727878479431,-31.5826034768422
7873,0.01666666753590107,-0.8466840488642454,0.5598677792929112,-0.7591250078767537,-2.2218192867554722,-1.6828241996213793,-10.206332039642334,10.769608349297032,4.0310666575675125,-25.259825645175113
7890,0.01666666753590107,-0.8855459867000579,0.6661021485254168,0.048688335323333734,-2.248454634094238,-1.6180314094543455,-9.39035818634033,16.095605448965387,-5.430120772244258,-20.145540504115058
7907,0.01666666753590107,-0.901546835038811,0.7574957992397249,0.39193303295075893,-2.2762872283935547,-1.5783771521970629,-9.03272431335449,20.211311810727697,-12.07516485819912,-17.301017724256745
7923,0.01666666753590107,-0.9502847085922956,0.9115110335618257,0.852298381614685,-2.3502082046508788,-1.500116831561178,-8.549544490814208,19.86994407865234,-10.954672324858528,-16.965059502004035
7940,0.01666666753590107,-1.0647621516436339,1.0299857295557855,0.8625847978293896,-2.477849226788431,-1.4318819381162524,-8.524255735778809,15.579034826942737,-8.494207666935447,-17.937487194517093
7957,0.01666666753590107,-1.1138929700374602,1.0685016304329038,0.8630161749839782,-2.5317186180114746,-1.4342758475154638,-8.512284142956137,12.713042201202134,-5.083154846370427,-18.227275045527808
7973,0.01666666753590107,-1.037881158980727,1.1800491575121879,1.0873048228412865,-2.4540568477906284,-1.371428638458252,-8.275109125518798,11.485073226176807,-4.693029808904932,-18.89322361224593
7991,0.01666666753590107,-0.9769552733749151,1.2371002475112676,1.3079209196656942,-2.3956980361938474,-1.346588503973186,-8.045265766143798,8.999114033403007,-8.000910914509616,-17.249263673368265
8006,0.01666666753590107,-0.9726830028831959,1.234891339290142,1.2874755130082367,-2.407369915417582,-1.3721768264770506,-8.0567878616333,5.266886508156947,-13.89275162087309,-15.028337164732118
8023,0.01666666753590107,-0.9544058801755309,1.1618842630073427,1.1477256815344095,-2.429516280774027,-1.4616598212644456,-8.18562583847046,0.9800729153501211,-17.700006639717625,-13.717465914882116
8040,0.01666666753590107,-0.9326154886499046,1.1018179168403148,0.9454483744770288,-2.4387938122071326,-1.5263032660886644,-8.381651099395752,-1.5857840160654895,-15.23247785864546,-14.3845047505465
8057,0.01666666753590107,-0.8638280758887529,1.051350296884775,0.7856313220083713,-2.392406155041605,-1.5755343299865723,-8.538172032928466,-4.326474900491503,-11.34598240014502,-16.08302253296693
8073,0.01666666753590107,-0.739200702483952,0.8915712383389472,0.5713298151582479,-2.2789808513917027,-1.7245730910703538,-8.753650182342529,-7.418090018858782,-6.1764482857755585,-15.47756724418032
8090,0.01666666753590107,-0.4384055919207632,0.7726374004006386,0.5743050315767526,-1.9852422352112828,-1.829768618774414,-8.75335090713501,-8.448791177823093,-7.943391330188001,-14.261698803043316
8106,0.01666666753590107,-0.25313655667901036,0.652261546960473,0.6286316650480032,-1.8104655140198767,-1.9363103003904223,-8.70112738342285,-7.113417478099316,-7.8702963532378165,-11.866071423363874
8123,0.01666666753590107,-0.04746785361766815,0.5424038726642727,0.6689964086621999,-1.6235678546629846,-2.0305816984981298,-8.661921746715903,-5.516444118069464,-8.726241999645474,-6.465429320690567
8140,0.01666666753590107,0.068475570333004,0.41988603875935077,0.647899260097742,-1.5254057327270507,-2.142660555975139,-8.68287159576416,-4.59772775252892,-8.198195806043557,-2.722188969181507
8156,0.01666666753590107,0.17151012061089277,0.33729835644364353,0.6892910086721181,-1.440261936187744,-2.2164318946287036,-8.640823429107666,-3.0165118523577,-6.767318986250076,1.1691972249297775
8173,0.01666666753590107,0.2226119468167424,0.2822986460164189,0.9097153823167086,-1.4151228187561034,-2.2608742629453538,-8.418761225128174,-2.7155180087965203,-7.945699934127465,5.873667707416186
8191,0.01666666753590107,0.22807664196342228,0.032870880727469916,0.8799649716973305,-1.434276578167826,-2.4996958785459396,-8.447042732238769,-3.430535508285659,-8.082565826037118,7.344411914508209
8207,0.01666666753590107,0.19783494069576263,-0.12335545377284288,0.8708598742216825,-1.4863504642762242,-2.6446950088500976,-8.455272800445556,-3.018047577703895,-5.5718134734629965,7.23666055770938
8223,0.01666666753590107,0.07722980854436755,-0.20754034215211867,0.8026841636180877,-1.6223708999633788,-2.716071561321616,-8.524105513653158,-2.815607174007064,-0.7538218318763908,6.4101799204943335
8240,0.01666666753590107,0.06408712611570953,-0.2562745624437928,0.7640268084436654,-1.63927980305776,-2.7518352408811446,-8.565555129894614,-5.810342889186882,0.4059529069695161,5.764733020343653
8257,0.01666666753590107,0.0785579884082079,-0.2927908139362931,0.7311778472870588,-1.6271593032836913,-2.7667990012571213,-8.603713303375244,-9.481592619957185,0.4209675837559082,6.235588759364584
8273,0.01666666753590107,0.04124810231998562,-0.21616145550310611,0.6976303824722766,-1.6722003681458533,-2.651877467700094,-8.645911107635497,-11.068058587722618,-1.5142879437113232,6.845106303160059
8290,0.01666666753590107,0.05633198194429278,-0.17346709989756345,0.5318097056746482,-1.6648681255616247,-2.581248372595012,-8.817545439147949,-9.538970477853523,-0.6482866580198198,7.810550981020422
8307,0.01666666753590107,0.05669204742833971,-0.16673443064168095,0.46173488345146174,-1.670853483581543,-2.549674984332174,-8.89281315383911,-8.190008116776005,-0.13779847953562546,9.705841390787043
8323,0.01666666753590107,0.026077567325532434,-0.16977321381568908,0.17849194232225418,-1.7096097690857945,-2.52004673878774,-9.182810829925536,-8.407692222039834,1.142236654006739,11.915486134461624
8340,0.01666666753590107,-0.0407949517250061,-0.2503705990970135,-0.0010831190615892409,-1.7790414710998534,-2.5766096068784594,-9.367912545776367,-7.37683909136649,3.637735273173519,12.966557478851852
8357,0.01666666753590107,-0.04215338059663772,-0.2906216532036662,-0.05714169089198112,-1.7757494438171386,-2.5965115543089805,-9.42986251373291,-4.640649088160103,7.490263774044661,14.536459384106358
8373,0.01666666753590107,-0.20367329146042465,-0.3100857937388122,-0.03132511259019374,-1.9191021220885216,-2.5987559722349047,-9.411606141552328,-1.8448353754809135,10.83769167494372,16.383583299846048
8390,0.01666666753590107,-0.34285131439566613,-0.39185149214714765,0.12836451410651206,-2.0439000297546386,-2.6708812972471114,-9.25688144378662,-2.218928251417097,9.348083766024592,16.068277862096163
8406,0.01666666753590107,-0.38039077145606276,-0.4271137980557978,0.19642156676650047,-2.070834798431396,-2.6937758506223557,-9.193734375,-3.162825816880186,7.629581703866349,15.118929378788582
8423,0.01666666753590107,-0.5000264740534126,-0.4675089368082583,0.18391396737098692,-2.1742343826293946,-2.7148747527524826,-9.213785813903808,-3.3101986741674354,9.650975334957977,13.520486674313531
8440,0.01666666753590107,-0.6136076989173889,-0.4397331872627139,0.11530863317847251,-2.2704513618469235,-2.672676948492229,-9.288903890991211,-3.9673943534641847,10.541676398957245,11.505151421015706
8457,0.01666666753590107,-0.6834551421254873,-0.4754160566709935,0.12144085232317448,-2.3187841617308558,-2.693925342095643,-9.289951354217528,-4.0465272176406595,12.059228319318187,9.699244281822457
8473,0.01666666753590107,-0.663266925099492,-0.44711891359984873,0.217704008769989,-2.263867307281494,-2.6481365276060997,-9.203760094451903,-3.698358751586083,13.435601083308613,8.14778986374251
8490,0.01666666753590107,-0.6264901229746639,-0.43928807384371754,0.2855851203411817,-2.1978771240234374,-2.628234726306051,-9.143605777740477,-3.422691462910722,14.126774392405238,7.972339379437807
8506,0.01666666753590107,-0.6080614629670977,-0.4681095330499112,0.3229395762234926,-2.1470004848755897,-2.646789643041789,-9.113977532196044,-2.1695382997550885,16.095407373479457,8.71687268765151
8523,0.01666666753590107,-0.5958838261783123,-0.4846342591322958,0.5796417164295912,-2.0877439937867224,-2.654870219775289,-8.866776210784911,-0.6992512884506336,15.49481176428731,8.802085273962943
8540,0.01666666753590107,-0.5016249952912331,-0.6169833128303289,0.7670487866133451,-1.9624971733093262,-2.7813138488218185,-8.685565072631835,-1.6889820912871527,13.924056085386551,7.992088017649253
8557,0.01666666753590107,-0.5054384160995483,-0.7018053300693631,0.8463467797338962,-1.9366098678588866,-2.856581563512981,-8.612990834808349,-3.7546407910074575,13.662673283586626,7.21038055110411
8573,0.01666666753590107,-0.5011826583512127,-0.7806462270721792,0.8656213890463114,-1.8899229354858398,-2.915239504186809,-8.604610544475912,-5.983202170475211,15.7560886981551,5.6459278561468045
8590,0.01666666753590107,-0.4871256375566125,-0.8627829507499932,0.9271896642088889,-1.8365023109436034,-2.981080049841106,-8.552387605285643,-5.441677025433097,18.15030905886552,5.399792171008463
8606,0.01666666753590107,-0.4707818209990859,-0.8762399598248303,0.9228232856929302,-1.7779938617430626,-2.980182224218547,-8.565854405102133,-4.638994474833668,18.096756960678032,5.619011361288254
8623,0.01666666753590107,-0.36627120681926606,-0.9781438986375928,0.9409358654886484,-1.619976844433695,-3.0645779788695275,-8.558822022247314,-4.392581313260295,16.876398523935393,7.2338507886395655
8640,0.01666666753590107,-0.23857268234081566,-0.9742867848180233,0.885743555098772,-1.456123449121043,-3.0472197245724497,-8.621669231304526,-4.553530879070237,16.15972214225159,8.63605788939192
8657,0.01666666753590107,-0.17943769873976706,-1.0229027855575084,0.8358622105985879,-1.3474866949219255,-3.076399349566549,-8.681973770141601,-4.913771704482811,18.278981285092097,9.960954932702544
8674,0.01666666753590107,-0.22421068725027143,-0.9495373973563312,0.8707131592273711,-1.3521253875732422,-2.986616641180217,-8.655487329754234,-5.932083754066366,17.727009792601272,11.638433171158397
8690,0.01666666753590107,-0.1735118888873607,-0.6522253066033125,0.7338122874438763,-1.2716203567504882,-2.6675891238339244,-8.800486167797446,-8.616981171040074,11.38307032733819,14.912678156421707
8706,0.01666666753590107,-0.25731238105893134,-0.6170687991566955,0.1911433341026306,-1.3422493787903338,-2.594266990252584,-9.35264951019287,-9.5780724570782,5.002852312298587,20.160421778769223
8723,0.01666666753590107,-0.3607902911901474,-0.4219945553459227,-0.08674480199515819,-1.4475941787719726,-2.370558626501262,-9.636212769317627,-8.612287123532981,2.0874885179161944,21.87951550606432
8740,0.01666666753590107,-0.6090598263546824,-0.07243059156909584,-0.8176718893915415,-1.706467160211131,-1.9940705615721641,-10.371382316589354,-8.025617416284845,-1.9213309328641175,23.316360203645097
8756,0.01666666753590107,-0.7255497052069753,0.1478071734622121,-1.6452818199515342,-1.8640357031006365,-1.7329527968809006,-11.202319930267333,-12.085999245770052,-15.40209536139897,21.639104800110918
8773,0.01666666753590107,-0.7277176968958229,0.11470014589130878,-2.3464070588022468,-1.9234417587280273,-1.7259199756346641,-11.904269929504395,-14.6143013425297,-20.714949469556927,16.560773774841813
8790,0.01666666753590107,-0.9384412721939385,0.09209931476563214,-3.3611651163488623,-2.1812673500061033,-1.7118538947507738,-12.920009983825683,-10.087500408776307,-9.908025235503176,10.631212495013296
8807,0.01666666753590107,-0.9783207165092229,0.2986364712245762,-3.383751042166352,-2.2294506584167477,-1.4875471267148852,-12.944849826049804,-2.213823325342747,5.305434815172029,5.405128683184358
8824,0.01666666753590107,-0.7670869266666471,0.6349827876403927,-2.884703788408637,-1.9783587593078613,-1.154603604479879,-12.450297545623778,3.3233470017631213,18.77482569807834,1.5304338705789986
8840,0.01666666753590107,-0.710838677483052,1.0059751777626573,-1.9482938759118318,-1.8709188867431132,-0.7896371966488659,-11.519102152904868,1.5509470630906625,21.81427012401777,1.7924424884616266
8856,0.01666666753590107,-0.6057075933173298,1.3893183692835271,-0.9697972183138132,-1.698835715484619,-0.4115031180784106,-10.5475057762146,3.5920174019640387,19.0090277620762,4.338307349454904
8873,0.01666666753590107,-0.5331270718835294,1.5395977780781684,-0.4802414310008287,-1.5855601225037126,-0.27458471063822504,-10.059986463165282,8.358365449627648,15.341125677772853,6.831917207872764
8890,0.01666666753590107,-0.4719701540008187,1.7317396216988563,0.06407879667878151,-1.4927847351074217,-0.1108813182555139,-9.513659571838378,9.378640324823936,6.7714640573026275,10.637056575621887
8906,0.01666666753590107,-0.6392286085166037,1.7927242517545818,-0.017155132940411568,-1.6537948698181657,-0.06793517984598875,-9.592069676208496,7.947622632378823,3.723133555253012,13.845206674060632
8923,0.01666666753590107,-0.676606445274502,1.818010814832896,-0.04131809881627559,-1.6889597067017108,-0.0603036620542407,-9.613018940734863,9.851404674831063,4.183811031750154,15.791916455446401
8940,0.01666666753590107,-0.6948861252654344,1.8574238106802106,0.13253507778942583,-1.7031752790588885,-0.057161418505758045,-9.432406352996825,15.076302168178533,4.002303023425297,16.732090287151365
8956,0.01666666753590107,-0.6968366017460823,1.9406819396033883,0.44655952615141864,-1.707215494360402,-0.008678688757121562,-9.111134417724609,15.665291578423535,0.3718249863274747,17.04809923438576
8973,0.01666666753590107,-0.6691532066591084,1.9986051362618802,0.5637848066061735,-1.6949451377868652,0.01750789190083742,-8.985738105773926,13.11841648976333,-5.820973651743183,16.727876060433466
8990,0.01666666753590107,-0.5796705041326582,2.025560070943832,0.6764408794492482,-1.6494553062438964,0.01167202535420656,-8.86138925704956,10.913612642662997,-13.623109412819327,16.023762104180605
9006,0.01666666753590107,-0.5052850521687418,1.9595174268461764,0.5393693272739648,-1.620425684179738,-0.0778114078246057,-8.98828194503784,11.28764404689665,-15.890025292684465,12.870074226636252
9023,0.01666666753590107,-0.5095053732775151,1.910266781464964,0.34070495001673695,-1.6675615293640642,-0.15098404993265865,-9.176675688171386,10.16277763116631,-13.660314307002032,7.674006108001759
9040,0.01666666753590107,-0.7379075208682566,1.7983287937633692,-0.12779811239540576,-1.9355624046325683,-0.2890995582029223,-9.63456675567627,6.522980067750272,-8.3036547806022,-0.37275365193075843
9056,0.01666666753590107,-0.8232504201762377,1.7041273921519517,-0.38048458721935746,-2.034622498321533,-0.3975868209287524,-9.88236662750244,4.447830286569705,-4.477787923156204,-6.7119107841556405
9073,0.01666666753590107,-0.8568805217731743,1.699037083275616,-0.34761925944983957,-2.071583059515431,-0.4158427547179162,-9.846154327392577,3.583638894286549,-3.2019726192212907,-13.876471011212718
9090,0.01666666753590107,-0.8508245827350766,1.670885778415948,-0.2787988212019205,-2.062604657159373,-0.4617812068112194,-9.77372914265096,1.9874582630872422,-3.495570648571816,-24.270018536318958
9107,0.01666666753590107,-0.7240017451126128,1.6766626082517206,-0.274832840180397,-1.9271826988220213,-0.4671683066770434,-9.7683427734375,0.18506908486315976,-1.37993438747747,-30.21400773699548
9123,0.01666666753590107,-0.6924657662507147,1.7348578998498618,-0.19535832144916057,-1.876455624212697,-0.41823695637807246,-9.689184481048583,-0.6986369449513026,2.0510810483190878,-33.325254526584665
9140,0.01666666753590107,-0.4830253626309335,1.9268352005586027,0.0711374830186367,-1.6332944450378417,-0.23597820886820553,-9.424624613079429,-1.8278636360539011,1.9481146659206763,-34.21595559058394
9156,0.01666666753590107,-0.3388569840624928,1.9435515036903321,0.2961865938544273,-1.467795328344777,-0.22460589711293577,-9.200916979980468,-2.0820292757786505,-0.20441214057199622,-33.97289989387445
9173,0.01666666753590107,-0.32384237028211355,1.9175145606361328,0.40442368121147154,-1.4354736059326678,-0.25543109735697506,-9.093626818084717,-2.2539346784607046,-1.2609765045196488,-33.69810430809191
9190,0.01666666753590107,-0.3359551251411438,1.8876066213674842,0.44490065302848814,-1.4282908548217266,-0.28760318216532466,-9.054870094189047,-4.596529054329583,-1.881485530236967,-33.830145525126596
9207,0.01666666753590107,-0.39195568317398427,1.7172196595676241,0.45522681673169135,-1.4707881534852087,-0.45295273431986566,-9.047239160919188,-7.472860452039468,-2.972377944705428,-34.470595288125764
9223,0.01666666753590107,-0.36849217080436647,1.6394216957464813,0.4255325202137232,-1.4366706336975097,-0.5192421927854418,-9.080757399639486,-9.527126076059075,-4.231674009245841,-35.10796122071468
9240,0.01666666753590107,-0.3679681469302624,1.4838101321436463,0.43898821411430833,-1.4264952035766094,-0.6545144404537976,-9.072976244243979,-10.458268690133988,-6.162515980529202,-35.2627025714559
9257,0.01666666753590107,-0.35147936894409354,1.3230631053484976,0.4872206223636865,-1.4091372415404766,-0.798765236608684,-9.028533875927328,-10.581208680099632,-8.958765544654803,-35.5017011357984
9273,0.01666666753590107,-0.3589489741723984,1.2148635735228657,0.516248563927412,-1.4211083959717303,-0.8912412757322191,-9.00249751739502,-10.131663558175964,-10.085861163375505,-36.70445988259721
9290,0.01666666753590107,-0.4180694177914411,1.0801537820428608,0.5185948347926139,-1.4854524925231933,-1.0072102725155652,-9.003694033703207,-9.926430887769067,-10.043350919754992,-38.83298588459414
9305,0.01666666753590107,-0.43572519373036916,0.9730226101011037,0.5279717349469661,-1.5078980600219218,-1.0990877612240613,-8.997110563659668,-11.42654277385803,-11.499996335739638,-41.17353461880659
9323,0.01666666753590107,-0.4319892951376736,0.8745674965679645,0.564339517879486,-1.5129858116149901,-1.1783959834776818,-8.963891015625,-13.579063230409208,-14.270152015914853,-44.05677603352242
9339,0.01666666753590107,-0.40368170373775064,0.7523086058601737,0.5232756860852241,-1.5067011053223163,-1.26743021158427,-9.009530484771728,-16.772227893808942,-18.193764429912434,-48.65470228842409
9356,0.01666666753590107,-0.34112069121077654,0.6800909263893962,0.3101566670179367,-1.4640544613160191,-1.3109747542783616,-9.22635537261963,-17.90204875800848,-18.90808781142717,-52.53208115192985
9373,0.01666666753590107,-0.28050584431551395,0.6621921354748308,0.16215221741795538,-1.422604845074564,-1.299901571600139,-9.37808790283203,-17.972153819649492,-18.416652285550168,-55.274805084851
9389,0.01666666753590107,-0.1709283752001822,0.7269507311113178,-0.11445523121953009,-1.3299790222167969,-1.199045826666057,-9.66000514831543,-17.603994670554755,-14.859563190341103,-58.39414906370124
9405,0.01666666753590107,-0.12518135402575134,0.716071901961416,-0.291168473431468,-1.2895769422668963,-1.1842317038938401,-9.841216286468505,-17.376455456092245,-13.50834259796925,-59.73708719793081
9423,0.01666666753590107,-0.031202801384776827,0.7372326172813772,-0.32557401638031,-1.2020390171326696,-1.1385923808775842,-9.879673150634765,-16.976471040559836,-15.636864331097941,-60.37624264008226
9440,0.01666666753590107,0.15151479580849408,0.7262778002858161,-0.3419178329378366,-1.0372880153931676,-1.119887534277141,-9.899574951934813,-15.819525787618884,-18.706583570533454,-60.240683875625024
9456,0.01666666753590107,0.28827392103374,0.7407260123550892,-0.404163568970561,-0.920121698584035,-1.085620669146627,-9.963170933532714,-15.075125668093998,-19.539072639783996,-59.421621250735434
9473,0.01666666753590107,0.33682650114819407,0.7301821142479777,-0.4770300677388906,-0.8901941047668457,-1.078138788958639,-10.037091909790039,-14.334106492208267,-17.101022955169604,-58.04262654787737
9491,0.01666666753590107,0.35300621318519115,0.6953494319282472,-0.47068332906067367,-0.8889970039367675,-1.0904087802059947,-10.033051109966635,-14.410510695811322,-14.211499473964661,-57.62672266893695
9507,0.01666666753590107,0.40921413035839793,0.5850136187262833,-0.373292045366764,-0.841412245941162,-1.182735473986715,-9.937882178497313,-14.694923187945239,-14.051463019069384,-56.5564217807122
9523,0.01666666753590107,0.4091498329505324,0.5279978923015296,-0.22912556649446486,-0.8536826755799353,-1.2225389304563403,-9.795277542114258,-13.477875685402761,-16.60343513639771,-55.43813539847352
9540,0.01666666753590107,0.49623716477304697,0.4436493377931416,0.0635644174158573,-0.7965209648132324,-1.2915220119200645,-9.501389288330078,-10.697026490308247,-21.06058948495813,-55.18458511610431
9556,0.01666666753590107,0.47738735674396154,0.3864700913697481,0.2348147180467844,-0.846200795391947,-1.3407527835570274,-9.32736075515747,-11.345891900138518,-23.407283681876308,-55.65145928172594
9573,0.01666666753590107,0.4473322640895843,0.37160555358454583,0.1948638159304857,-0.9114427906312048,-1.3431469852171838,-9.364620518493652,-14.595569548730941,-24.705526765724603,-57.367680914475045
9590,0.01666666753590107,0.3751405958428979,0.2594429633468389,-0.01823825200200081,-1.0319010616578161,-1.4296373740598558,-9.575310264587403,-17.226981888748394,-24.846308917349614,-60.59596982568157
9606,0.01666666753590107,0.3413791960164904,0.26350553661063314,-0.20447277127504349,-1.1011832721985877,-1.4061442702695726,-9.759663207897542,-16.7233356921827,-25.372269341933738,-63.30383930326815
9623,0.01666666753590107,0.37099063655659553,0.24857465559095143,-0.3328367008596658,-1.1071687763489781,-1.4059946326658128,-9.885209741973876,-15.077161064466662,-25.390309579079034,-66.24644189206055
9640,0.01666666753590107,0.279484173117578,0.31985256999358536,-0.42825697674155233,-1.2460323265075683,-1.3224968497678637,-9.975291579437256,-14.632548192897389,-26.42096634181374,-71.42252316963629
9657,0.01666666753590107,0.23968320086598394,0.409842491389811,-0.48855742392539975,-1.318606710461527,-1.2234369022093712,-10.031854593658446,-16.68590796307832,-24.88709197688376,-75.97621711947296
9675,0.01666666753590107,0.16086875347867607,0.44263402327075596,-0.48375557660162444,-1.4244004963196812,-1.1785456210814416,-10.024671988677978,-18.569834645613334,-23.410345314171767,-80.15418236306724
9690,0.01666666753590107,0.11853066396489739,0.6183093007370829,-0.383560925924778,-1.492784881237894,-0.9880568053647876,-9.922619142913819,-17.854000084744733,-19.960553368181724,-87.3663840133588
9706,0.01666666753590107,-0.04622223747074604,0.7947383191801607,-0.15114567023515701,-1.6680103691101074,-0.8062472629271448,-9.689333534130453,-17.28211859082332,-18.972605778327107,-93.42782173190828
9723,0.01666666753590107,-0.14237141214907167,0.9020397331222891,-0.08453881638348103,-1.7700633610047398,-0.6955154361449182,-9.622296472167967,-18.592239373638268,-18.239478886027328,-98.81115143946971
9740,0.01666666753590107,-0.39827845645472404,1.1527829649239778,0.11544365773499012,-2.03671742477417,-0.4333502082273364,-9.422380049023031,-23.513114047971072,-23.005871756807366,-105.27248990373427
9756,0.01666666753590107,-0.5941458964698016,1.3850764939300715,0.21022855832278728,-2.2530936920717357,-0.18375483128651976,-9.32691184234619,-27.350790729378843,-29.164518435171757,-109.03963975931978
9773,0.01666666753590107,-0.6452955073401332,1.4908923454895615,0.1534329043895006,-2.338985530499369,-0.0538693912230432,-9.381529567718506,-31.25830267995541,-34.506330837863274,-114.26559507821496
9790,0.01666666753590107,-0.6331954658322035,1.5574017303161323,-0.18326456355154513,-2.3768438442505895,0.05581526459380984,-9.716118665203451,-37.64775681830016,-31.468812525269787,-122.82289320251381
9807,0.01666666753590107,-0.580486642821133,1.5312038976117968,-0.5989496434897184,-2.3430257458008823,0.07032981989756226,-10.134655627441406,-40.87900661651189,-22.046184074643676,-127.14826075858613
9824,0.01666666753590107,-0.5292772645875812,1.5103344203233717,-0.6372913568437099,-2.288108599090576,0.09531929972544312,-10.180594371795653,-42.76587369548459,-14.230031484730198,-127.56450614698504
9840,0.01666666753590107,-0.43033582884222266,1.3212512336209417,-0.4801245266228914,-2.1733367031373083,-0.028730273791402576,-10.0357451713562,-41.454241733315776,-14.291743097654908,-121.63948096653907
9856,0.01666666753590107,-0.4778432838179171,1.0379242674700915,-0.2011608702480793,-2.2218192867554722,-0.26740225178822874,-9.762805597576499,-37.370898515388284,-19.51682500610997,-116.98375082069157
9873,0.01666666753590107,-0.5615820358648896,0.8632078981637954,-0.0017705168038606642,-2.3252188709534702,-0.39683877904042597,-9.565883095550536,-32.428235537603136,-22.112146626553074,-112.60622794011704
9890,0.01666666753590107,-0.537251166076213,0.8550500184103846,0.010426701468229294,-2.3186348163880406,-0.3745427760802209,-9.554360415539145,-33.610848641444996,-20.57078637429276,-108.06855078388405
9906,0.01666666753590107,-0.672551909186691,0.8631273072082549,-0.15539455985128878,-2.469469374847412,-0.32591055485829706,-9.722403444561362,-38.35294311425272,-18.447464976443385,-101.8959995479168
9923,0.01666666753590107,-0.7629629786044358,0.7240330900989472,-0.26608839271068574,-2.5775080170229074,-0.3923497239928692,-9.83852280960083,-41.03096808026092,-16.049513624898847,-93.5281708711941
9940,0.01666666753590107,-0.7319660750553012,0.5608543061122298,-0.24950901383161544,-2.5655370087221265,-0.502931913171336,-9.824307237243652,-35.20352239739233,-19.627996580135683,-88.52755032320682
9957,0.01666666753590107,-0.8710340617448091,0.386291227671504,-0.17382921120822428,-2.736273514612019,-0.6382043069701642,-9.746794958496093,-28.78109893592392,-24.675909357936135,-81.19646240022202
9974,0.01666666753590107,-0.9477002450570463,0.0705582948911935,-0.1975660606265068,-2.8809730774477122,-0.9232640151977538,-9.760262342834473,-20.50768225655101,-31.591079741602186,-74.86340854894864
9990,0.01666666753590107,-0.9625205053091048,-0.08749635101482271,-0.0942991628974676,-2.958185934857279,-1.072901472827047,-9.645041387939452,-17.259406504285735,-33.28062265545322,-74.23596688122376
10008,0.01666666753590107,-1.029914125624299,-0.33210619462803004,0.051399932369589806,-3.0876226082399487,-1.315015188775584,-9.4864255279541,-17.22941514364021,-31.694116560326414,-76.61632878810822
10023,0.01666666753590107,-0.9894451909832656,-0.504604449493438,0.1912818657904863,-3.1214407066896555,-1.4847042314391583,-9.330502560314535,-19.34124816330562,-29.65718339509936,-82.48923962518701
10040,0.01666666753590107,-0.9119495711095631,-0.6036631549429148,0.18741174635887145,-3.0937576038636267,-1.5843628755431622,-9.323020680126547,-17.92944293922211,-27.589715869187767,-86.10302441314906
10056,0.01666666753590107,-0.7892284697175026,-0.7909710756011307,0.37849955088198184,-3.015946196039021,-1.782333425317332,-9.120411364635824,-13.815169209638208,-27.395808506198396,-88.94023035285899
10074,0.01666666753590107,-0.6212701963692903,-0.937374738940969,0.5199971028059721,-2.910601030731201,-1.9636941280089317,-8.960299128612876,-8.687603619510712,-29.649663356823176,-92.32945901147852
10090,0.01666666753590107,-0.5830658456593751,-0.9543988659128546,0.5582265879571437,-2.920477258709818,-2.017414246954396,-8.906280538177489,-8.035623643418914,-29.69498166196621,-96.52042210506333
10107,0.01666666753590107,-0.5569483847148716,-0.9779029294885695,0.5552244835317135,-2.936338844708353,-2.0802619674682616,-8.894309529876708,-10.013240030798991,-26.874801676309822,-102.67174511309017
10123,0.01666666753590107,-0.4815386312045157,-0.8638143396243453,0.42703532599210736,-2.90132379155904,-2.0163666375976055,-9.006237872967123,-14.208959497367061,-23.600338978766718,-113.04595551888247
