ts,interval,accx,accy,accz,accGx,accGy,accGz,alpha,beta,gamma
1698419233010.0,16,0.0,-0.1,-0.1,-0.30000000000000004,9.4,0.7000000000000001,1.9,0.5,0.5
1698419233026.0,16,0.0,0.0,0.0,-0.30000000000000004,9.4,0.7000000000000001,2.1,0.8,0.7
1698419233043.0,16,0.0,0.1,0.0,-0.30000000000000004,9.5,0.7000000000000001,2.1999999999999997,1.0,0.8
1698419233060.0,16,0.0,0.1,-0.1,-0.30000000000000004,9.5,0.6000000000000001,2.1999999999999997,1.0,1.0
1698419233076.0,16,-0.1,0.1,-0.1,-0.4,9.600000000000001,0.6000000000000001,1.8,0.8,1.0999999999999999
1698419233093.0,16,-0.1,0.1,-0.1,-0.30000000000000004,9.5,0.6000000000000001,1.0999999999999999,0.2,0.9
1698419233110.0,16,-0.1,0.1,0.0,-0.30000000000000004,9.600000000000001,0.6000000000000001,0.8,-0.2,0.9
1698419233126.0,16,-0.1,0.1,0.0,-0.30000000000000004,9.600000000000001,0.6000000000000001,0.5,-0.9,0.4
1698419233143.0,16,0.0,0.1,-0.1,-0.30000000000000004,9.600000000000001,0.6000000000000001,0.2,-0.9,0.0
1698419233160.0,16,0.0,0.1,0.0,-0.30000000000000004,9.600000000000001,0.7000000000000001,0.0,-0.9,-0.2
1698419233176.0,16,0.0,0.0,0.0,-0.30000000000000004,9.5,0.7000000000000001,-0.1,-0.5,-0.5
1698419233193.0,16,0.0,-0.1,0.1,-0.30000000000000004,9.4,0.7000000000000001,0.1,-0.1,-0.8
1698419233211.0,16,0.0,-0.1,0.1,-0.30000000000000004,9.4,0.7000000000000001,0.30000000000000004,-0.30000000000000004,-0.8
1698419233227.0,16,0.0,-0.1,0.1,-0.30000000000000004,9.4,0.7000000000000001,0.8,-0.1,-0.8
1698419233243.0,16,0.0,0.0,0.0,-0.2,9.5,0.7000000000000001,1.3,-0.1,-0.8
1698419233260.0,16,0.0,0.0,0.0,-0.30000000000000004,9.5,0.7000000000000001,1.4,-0.1,-0.8
1698419233276.0,16,0.0,0.0,0.0,-0.2,9.5,0.7000000000000001,1.5000000000000002,0.4,-0.5
1698419233293.0,16,0.1,0.0,0.0,-0.2,9.5,0.7000000000000001,1.6,1.2000000000000002,-0.6000000000000001
1698419233310.0,16,0.1,0.0,0.1,-0.2,9.5,0.7000000000000001,1.6,1.5000000000000002,-0.4
1698419233327.0,16,0.0,0.0,0.0,-0.2,9.5,0.7000000000000001,1.7,1.8,-0.30000000000000004
1698419233343.0,16,0.0,0.0,0.0,-0.30000000000000004,9.5,0.7000000000000001,1.7,1.7,-0.4
1698419233360.0,16,0.0,0.0,0.0,-0.30000000000000004,9.5,0.7000000000000001,1.6,1.7,-0.2
1698419233376.0,16,0.0,0.0,0.0,-0.30000000000000004,9.5,0.7000000000000001,1.4,2.0,0.30000000000000004
1698419233393.0,16,0.0,0.0,0.0,-0.30000000000000004,9.5,0.7000000000000001,1.0,1.0999999999999999,-0.30000000000000004
1698419233409.0,16,0.0,0.0,0.0,-0.30000000000000004,9.5,0.7000000000000001,0.9,1.0999999999999999,-0.4
1698419233426.0,16,0.0,0.0,0.0,-0.30000000000000004,9.5,0.7000000000000001,0.5,0.8,-0.1
1698419233443.0,16,0.0,0.0,0.1,-0.30000000000000004,9.5,0.7000000000000001,0.2,0.30000000000000004,0.1
1698419233460.0,16,0.0,0.0,0.0,-0.30000000000000004,9.5,0.7000000000000001,0.1,0.30000000000000004,0.1
1698419233477.0,16,0.0,0.0,0.0,-0.30000000000000004,9.5,0.7000000000000001,0.0,0.1,0.2
1698419233493.0,16,0.0,0.0,0.0,-0.30000000000000004,9.5,0.7000000000000001,0.1,0.2,0.6000000000000001
1698419233510.0,16,0.0,0.0,0.0,-0.30000000000000004,9.5,0.7000000000000001,-0.1,-0.2,0.30000000000000004
1698419233527.0,16,0.0,0.0,0.0,-0.30000000000000004,9.5,0.6000000000000001,-0.1,-0.4,0.1
1698419233543.0,16,0.0,0.0,0.0,-0.30000000000000004,9.5,0.6000000000000001,0.0,-0.30000000000000004,0.1
1698419233560.0,16,0.0,0.0,0.0,-0.30000000000000004,9.5,0.7000000000000001,-0.1,-0.5,0.0
1698419233576.0,16,0.0,0.0,0.0,-0.30000000000000004,9.5,0.7000000000000001,-0.1,-0.6000000000000001,0.1
1698419233595.0,16,0.1,0.0,0.0,-0.2,9.5,0.7000000000000001,-0.1,-0.1,0.1
1698419233610.0,16,0.1,0.1,0.0,-0.2,9.600000000000001,0.6000000000000001,-0.30000000000000004,0.0,0.1
1698419233626.0,16,0.1,0.1,0.0,-0.2,9.600000000000001,0.7000000000000001,-1.0999999999999999,0.6000000000000001,0.2
1698419233644.0,16,0.1,0.1,0.0,-0.1,9.600000000000001,0.6000000000000001,-2.1999999999999997,2.0,0.9
1698419233660.0,16,0.1,0.2,0.0,-0.1,9.700000000000001,0.6000000000000001,-2.9,2.8,1.5000000000000002
1698419233676.0,16,0.1,0.2,-0.1,-0.2,9.700000000000001,0.6000000000000001,-4.1000000000000005,4.5,2.9
1698419233693.0,16,0.0,0.1,-0.1,-0.2,9.600000000000001,0.6000000000000001,-5.4,5.300000000000001,4.6000000000000005
1698419233711.0,16,0.0,0.0,-0.1,-0.30000000000000004,9.600000000000001,0.6000000000000001,-6.6000000000000005,5.2,6.2
1698419233726.0,16,-0.1,0.0,-0.1,-0.30000000000000004,9.5,0.6000000000000001,-6.8,4.7,6.8
1698419233743.0,16,-0.1,-0.1,-0.2,-0.30000000000000004,9.5,0.6000000000000001,-7.0,2.8,7.0
1698419233760.0,16,-0.2,-0.2,-0.1,-0.30000000000000004,9.3,0.6000000000000001,-6.4,1.0999999999999999,6.4
1698419233776.0,16,-0.2,-0.30000000000000004,-0.1,-0.4,9.200000000000001,0.6000000000000001,-5.8,0.5,6.000000000000001
1698419233793.0,16,-0.2,-0.30000000000000004,-0.1,-0.4,9.200000000000001,0.6000000000000001,-3.8,-1.9,4.7
1698419233810.0,16,-0.30000000000000004,-0.2,-0.1,-0.4,9.3,0.7000000000000001,-1.7,-5.2,2.8
1698419233827.0,16,-0.30000000000000004,-0.2,-0.1,-0.4,9.3,0.7000000000000001,-0.6000000000000001,-6.6000000000000005,1.7
1698419233843.0,16,-0.2,-0.1,-0.1,-0.4,9.4,0.7000000000000001,0.8,-9.1,-0.8
1698419233860.0,16,-0.1,0.0,0.0,-0.30000000000000004,9.5,0.6000000000000001,1.9,-10.4,-3.7000000000000006
1698419233877.0,16,0.0,-0.1,0.0,-0.2,9.4,0.8,2.1,-10.1,-5.0
1698419233894.0,16,0.1,-0.1,-0.1,-0.1,9.4,0.7000000000000001,2.5,-7.9,-6.3
1698419233910.0,16,0.1,-0.1,-0.1,-0.1,9.4,0.6000000000000001,3.0000000000000004,-5.9,-6.2
1698419233926.0,16,0.1,-0.1,-0.1,-0.1,9.4,0.6000000000000001,3.1,-4.6000000000000005,-5.7
1698419233943.0,16,0.1,0.0,-0.1,-0.1,9.5,0.6000000000000001,2.6,-2.0,-3.9
1698419233960.0,16,0.2,0.1,0.0,-0.1,9.5,0.7000000000000001,2.1,0.0,-1.9
1698419233977.0,16,0.2,0.1,0.0,0.0,9.5,0.7000000000000001,1.9,1.3,-1.3
1698419233993.0,16,0.2,0.0,0.1,-0.1,9.5,0.8,1.6,3.7000000000000006,-0.2
1698419234009.0,16,0.1,-0.1,0.1,-0.1,9.4,0.8,1.6,5.1,0.30000000000000004
1698419234026.0,16,0.0,-0.1,0.1,-0.2,9.4,0.8,1.7,4.9,0.7
1698419234043.0,16,0.0,0.0,0.0,-0.2,9.5,0.7000000000000001,1.6,4.3999999999999995,0.9
1698419234060.0,16,-0.1,0.1,0.0,-0.30000000000000004,9.600000000000001,0.7000000000000001,1.4,3.1,1.0
1698419234076.0,16,-0.1,0.1,0.0,-0.30000000000000004,9.600000000000001,0.7000000000000001,1.0999999999999999,2.0,0.9
1698419234093.0,16,-0.1,0.1,0.0,-0.30000000000000004,9.600000000000001,0.7000000000000001,0.5,-0.2,0.30000000000000004
1698419234110.0,16,-0.1,0.1,-0.1,-0.30000000000000004,9.600000000000001,0.6000000000000001,0.1,-1.4,0.0
1698419234129.0,16,-0.1,0.1,-0.1,-0.30000000000000004,9.600000000000001,0.6000000000000001,-0.1,-1.4,-0.2
1698419234144.0,16,0.0,0.0,0.0,-0.30000000000000004,9.5,0.6000000000000001,-0.9,-2.0,-1.0
1698419234160.0,16,0.0,0.0,0.0,-0.2,9.5,0.7000000000000001,-1.4,-2.5,-1.0
1698419234176.0,16,0.0,0.0,0.0,-0.2,9.5,0.7000000000000001,-1.7,-3.0000000000000004,-0.9
1698419234195.0,16,0.0,0.0,0.0,-0.2,9.600000000000001,0.7000000000000001,-2.3000000000000003,-4.6000000000000005,-0.9
1698419234210.0,16,0.0,0.0,0.0,-0.2,9.5,0.7000000000000001,-3.0000000000000004,-5.300000000000001,-1.7
1698419234227.0,16,0.0,0.0,0.0,-0.2,9.5,0.7000000000000001,-3.4,-5.6,-1.9
1698419234243.0,16,0.1,0.0,0.0,-0.2,9.5,0.7000000000000001,-3.9,-5.6,-2.8
1698419234259.0,16,0.1,0.0,-0.1,-0.1,9.5,0.6000000000000001,-4.1000000000000005,-4.7,-3.5
1698419234277.0,16,0.1,-0.1,0.0,-0.1,9.5,0.7000000000000001,-3.9,-3.0000000000000004,-3.3000000000000003
1698419234293.0,16,0.2,-0.1,0.0,-0.1,9.4,0.7000000000000001,-3.4,-1.4,-2.7
1698419234309.0,16,0.2,0.0,0.0,-0.1,9.5,0.8,-3.4,0.8,-1.7
1698419234326.0,16,0.2,0.0,0.1,-0.1,9.5,0.8,-3.4,2.6,-1.4
1698419234343.0,16,0.1,0.0,0.1,-0.1,9.5,0.9,-3.1,3.7000000000000006,-1.0999999999999999
1698419234359.0,16,0.1,-0.1,0.1,-0.2,9.4,0.9,-2.3000000000000003,5.1,-0.8
1698419234376.0,16,0.0,-0.1,0.0,-0.2,9.4,0.9,-1.5000000000000002,6.2,-0.4
1698419234393.0,16,0.0,-0.1,0.1,-0.2,9.4,0.9,-1.0999999999999999,6.2,-0.4
1698419234409.0,16,-0.1,-0.1,0.0,-0.30000000000000004,9.4,0.8,-0.6000000000000001,6.1000000000000005,-0.1
1698419234426.0,16,-0.1,-0.1,0.0,-0.4,9.4,0.8,-0.30000000000000004,5.500000000000001,0.0
1698419234443.0,16,-0.1,0.0,0.0,-0.4,9.5,0.8,-0.1,5.300000000000001,-0.1
1698419234459.0,16,-0.1,0.0,0.0,-0.4,9.5,0.8,0.2,4.3999999999999995,0.30000000000000004
1698419234476.0,16,-0.1,0.0,0.0,-0.4,9.4,0.8,0.5,3.5,0.4
1698419234493.0,16,-0.1,0.0,0.0,-0.4,9.4,0.8,0.4,2.9,0.6000000000000001
1698419234509.0,16,-0.1,0.0,0.0,-0.4,9.5,0.8,0.30000000000000004,1.7,0.30000000000000004
1698419234526.0,16,-0.1,0.0,0.0,-0.4,9.5,0.8,0.30000000000000004,1.0999999999999999,0.0
1698419234543.0,16,-0.1,0.0,0.0,-0.30000000000000004,9.5,0.8,0.30000000000000004,0.30000000000000004,-0.30000000000000004
1698419234559.0,16,-0.1,0.0,0.1,-0.30000000000000004,9.5,0.9,0.2,0.2,-0.2
1698419234576.0,16,0.0,0.0,0.1,-0.30000000000000004,9.4,0.9,0.4,0.5,-0.1
1698419234594.0,16,0.0,0.0,0.1,-0.30000000000000004,9.5,0.9,0.5,0.5,-0.1
1698419234610.0,16,0.0,0.0,0.1,-0.30000000000000004,9.5,0.9,0.8,0.4,-0.1
1698419234626.0,16,0.0,0.0,0.1,-0.30000000000000004,9.5,0.9,1.0999999999999999,0.6000000000000001,0.4
1698419234643.0,16,0.0,0.0,0.1,-0.30000000000000004,9.5,0.9,1.0999999999999999,0.8,0.5
1698419234659.0,16,0.0,0.0,0.1,-0.30000000000000004,9.5,1.0,1.0999999999999999,1.4,0.9
1698419234676.0,16,0.0,0.0,0.1,-0.30000000000000004,9.5,0.9,1.0999999999999999,1.3,1.0
1698419234693.0,16,0.0,0.0,0.1,-0.30000000000000004,9.5,0.9,1.0,1.0999999999999999,1.0
1698419234710.0,16,0.0,0.1,0.1,-0.30000000000000004,9.5,0.9,1.0,1.0999999999999999,0.9
1698419234726.0,16,0.0,0.0,0.0,-0.30000000000000004,9.5,0.8,0.8,0.5,0.6000000000000001
1698419234743.0,16,0.0,0.0,0.0,-0.30000000000000004,9.5,0.9,0.5,0.0,0.4
1698419234759.0,16,0.0,0.0,0.0,-0.30000000000000004,9.5,0.9,0.1,-0.30000000000000004,0.2
1698419234777.0,16,0.0,0.1,0.0,-0.30000000000000004,9.600000000000001,0.8,0.0,-0.30000000000000004,0.30000000000000004
1698419234793.0,16,0.0,0.1,0.0,-0.30000000000000004,9.5,0.8,-0.1,-0.8,0.4
1698419234810.0,16,0.0,0.0,0.0,-0.30000000000000004,9.5,0.8,-0.1,-1.0999999999999999,0.30000000000000004
1698419234826.0,16,0.0,0.0,0.0,-0.30000000000000004,9.5,0.8,-0.5,-1.0999999999999999,0.30000000000000004
1698419234844.0,16,0.0,0.0,0.0,-0.30000000000000004,9.5,0.8,-0.7,-1.2000000000000002,0.30000000000000004
1698419234859.0,16,0.0,0.0,0.0,-0.30000000000000004,9.5,0.9,-0.6000000000000001,-1.2000000000000002,0.4
1698419234877.0,16,0.0,0.0,0.0,-0.30000000000000004,9.5,0.8,-0.6000000000000001,-1.7,0.1
1698419234893.0,16,0.0,0.0,0.0,-0.30000000000000004,9.5,0.8,-0.5,-2.0,0.0
1698419234910.0,16,0.0,0.0,0.0,-0.30000000000000004,9.5,0.8,-0.2,-2.1999999999999997,-0.1
1698419234927.0,16,0.0,0.0,0.0,-0.30000000000000004,9.5,0.8,0.1,-2.3000000000000003,-0.2
1698419234943.0,16,0.0,0.0,0.0,-0.30000000000000004,9.5,0.8,0.2,-2.5,-0.1
1698419234960.0,16,0.0,0.0,0.0,-0.30000000000000004,9.5,0.8,0.2,-2.1999999999999997,-0.1
1698419234976.0,16,0.0,0.0,-0.1,-0.30000000000000004,9.5,0.8,-0.1,-2.0,0.2
1698419234993.0,16,0.0,0.0,-0.1,-0.30000000000000004,9.5,0.8,0.0,-2.1,-0.2
1698419235010.0,16,0.0,0.0,-0.1,-0.30000000000000004,9.5,0.8,0.0,-2.1999999999999997,-0.2
1698419235027.0,16,0.0,0.0,-0.1,-0.30000000000000004,9.5,0.8,-0.30000000000000004,-2.3000000000000003,-0.1
1698419235043.0,16,0.0,0.0,-0.1,-0.30000000000000004,9.5,0.7000000000000001,-0.6000000000000001,-2.4000000000000004,-0.4
1698419235061.0,16,0.0,0.0,-0.1,-0.30000000000000004,9.5,0.8,-0.7,-2.3000000000000003,-0.4
1698419235077.0,16,0.0,0.0,0.0,-0.2,9.5,0.8,-0.5,-1.8,-0.4
1698419235095.0,16,0.0,0.0,0.0,-0.30000000000000004,9.4,0.8,-0.2,-1.6,-0.2
1698419235110.0,16,0.0,0.0,0.0,-0.2,9.4,0.8,-0.1,-1.3,-0.1
1698419235127.0,16,0.0,0.0,0.0,-0.2,9.5,0.8,0.1,-0.7,0.1
1698419235143.0,16,0.0,0.0,0.0,-0.2,9.5,0.8,0.2,-0.30000000000000004,0.1
1698419235160.0,16,0.0,0.0,0.0,-0.2,9.5,0.8,0.5,-0.1,0.0
1698419235176.0,16,0.0,0.0,0.0,-0.2,9.5,0.8,0.6000000000000001,0.4,0.1
1698419235193.0,16,0.0,0.0,0.0,-0.2,9.5,0.8,0.8,0.5,0.1
1698419235209.0,16,0.1,0.0,0.0,-0.2,9.5,0.8,1.0,0.5,0.1
1698419235227.0,16,0.1,0.0,0.0,-0.2,9.5,0.8,1.0,0.7,-0.4
1698419235243.0,16,0.0,0.0,0.0,-0.2,9.5,0.8,1.0999999999999999,0.7,-0.2
1698419235260.0,16,0.0,0.0,0.0,-0.2,9.5,0.8,1.0999999999999999,0.8,-0.2
1698419235276.0,16,0.0,0.0,0.0,-0.30000000000000004,9.5,0.8,1.0,1.0,0.0
1698419235293.0,16,0.0,0.0,0.0,-0.30000000000000004,9.5,0.8,0.9,1.0999999999999999,0.1
1698419235310.0,16,0.0,0.0,0.0,-0.30000000000000004,9.5,0.8,1.0,1.0999999999999999,0.1
1698419235326.0,16,0.0,0.0,0.0,-0.2,9.5,0.8,0.9,1.0999999999999999,0.2
1698419235343.0,16,0.0,0.0,0.0,-0.2,9.5,0.8,0.7,1.0999999999999999,0.0
1698419235360.0,16,0.0,0.0,0.0,-0.2,9.5,0.8,0.8,1.2000000000000002,0.0
1698419235376.0,16,0.0,0.0,0.0,-0.30000000000000004,9.5,0.8,0.8,1.2000000000000002,-0.1
1698419235393.0,16,0.0,0.0,0.0,-0.30000000000000004,9.5,0.8,0.7,1.2000000000000002,-0.1
1698419235411.0,16,0.0,0.0,0.0,-0.2,9.5,0.8,0.6000000000000001,1.3,0.1
1698419235426.0,16,0.0,0.0,0.0,-0.2,9.5,0.8,0.5,1.3,-0.1
1698419235443.0,16,0.0,0.0,0.0,-0.2,9.5,0.8,0.6000000000000001,1.6,-0.1
1698419235460.0,16,0.0,0.0,0.0,-0.2,9.5,0.8,0.6000000000000001,1.7,0.0
1698419235476.0,16,0.0,0.0,0.0,-0.30000000000000004,9.5,0.7000000000000001,0.7,1.6,0.0
1698419235493.0,16,0.0,0.0,0.0,-0.30000000000000004,9.5,0.8,0.5,1.4,0.0
1698419235509.0,16,0.0,0.0,0.0,-0.30000000000000004,9.5,0.8,0.30000000000000004,1.7,0.1
1698419235527.0,16,0.0,0.0,0.0,-0.30000000000000004,9.5,0.7000000000000001,0.30000000000000004,1.6,0.1
1698419235543.0,16,0.0,0.0,0.0,-0.30000000000000004,9.5,0.7000000000000001,0.2,0.8,0.0
1698419235560.0,16,0.0,0.0,0.0,-0.30000000000000004,9.5,0.8,0.0,0.5,-0.1
1698419235576.0,16,0.0,0.0,0.0,-0.30000000000000004,9.5,0.8,0.0,0.2,-0.1
1698419235593.0,16,0.0,0.0,0.0,-0.30000000000000004,9.5,0.7000000000000001,-0.1,-0.4,-0.2
1698419235610.0,16,0.0,0.0,0.0,-0.30000000000000004,9.5,0.7000000000000001,-0.5,-1.0,-0.4
1698419235626.0,16,0.0,0.0,0.0,-0.30000000000000004,9.5,0.7000000000000001,-0.4,-1.0,-0.4
1698419235643.0,16,0.0,0.0,0.0,-0.30000000000000004,9.5,0.8,-0.1,-0.8,-0.4
1698419235659.0,16,0.0,0.0,0.0,-0.30000000000000004,9.5,0.7000000000000001,0.0,-1.0999999999999999,-0.30000000000000004
1698419235676.0,16,0.0,0.0,0.0,-0.30000000000000004,9.5,0.7000000000000001,-0.1,-1.4,-0.2
1698419235693.0,16,0.0,0.0,0.0,-0.30000000000000004,9.5,0.8,-0.2,-1.4,-0.2
1698419235710.0,16,0.0,0.0,0.0,-0.30000000000000004,9.5,0.8,-0.1,-1.3,-0.2
1698419235726.0,16,0.0,-0.1,0.0,-0.30000000000000004,9.4,0.8,0.30000000000000004,-1.0999999999999999,-0.1
1698419235743.0,16,0.0,0.0,0.0,-0.2,9.4,0.8,0.8,-0.9,-0.1
1698419235765.0,16,0.0,0.0,0.0,-0.2,9.5,0.8,1.0999999999999999,-0.6000000000000001,0.0
1698419235776.0,16,0.0,0.0,0.0,-0.30000000000000004,9.5,0.8,1.0999999999999999,-0.5,0.1
1698419235793.0,16,0.0,0.0,0.0,-0.30000000000000004,9.5,0.7000000000000001,1.2000000000000002,-0.30000000000000004,0.2
1698419235809.0,16,0.0,0.0,0.0,-0.30000000000000004,9.5,0.7000000000000001,1.0999999999999999,-0.1,0.30000000000000004
1698419235827.0,16,0.0,0.0,0.0,-0.30000000000000004,9.5,0.7000000000000001,1.0999999999999999,0.0,0.4
1698419235843.0,16,0.0,0.0,0.0,-0.30000000000000004,9.5,0.8,0.8,-0.1,0.0
1698419235860.0,16,0.0,0.0,0.0,-0.30000000000000004,9.5,0.7000000000000001,0.6000000000000001,-0.1,-0.1
1698419235876.0,16,0.0,0.0,0.0,-0.30000000000000004,9.5,0.7000000000000001,0.7,0.1,0.1
1698419235893.0,16,0.0,0.0,0.1,-0.30000000000000004,9.5,0.8,0.7,0.0,-0.1
1698419235909.0,16,-0.1,0.0,0.0,-0.30000000000000004,9.4,0.8,0.9,0.0,-0.2
1698419235926.0,16,0.0,0.0,0.0,-0.30000000000000004,9.5,0.8,0.8,-0.1,-0.2
1698419235942.0,16,0.0,0.0,0.0,-0.30000000000000004,9.5,0.7000000000000001,0.8,-0.30000000000000004,-0.30000000000000004
1698419235959.0,16,0.0,0.0,0.0,-0.30000000000000004,9.5,0.7000000000000001,0.7,-0.5,-0.2
1698419235976.0,16,0.0,0.0,0.0,-0.30000000000000004,9.5,0.7000000000000001,0.8,-0.4,-0.2
1698419235993.0,16,0.0,0.0,0.0,-0.30000000000000004,9.5,0.7000000000000001,0.8,0.0,-0.1
1698419236009.0,16,0.0,0.0,0.0,-0.30000000000000004,9.5,0.7000000000000001,0.6000000000000001,0.30000000000000004,-0.1
1698419236026.0,16,0.0,0.0,0.0,-0.30000000000000004,9.5,0.7000000000000001,0.6000000000000001,0.30000000000000004,-0.1
1698419236043.0,16,0.0,0.0,0.0,-0.30000000000000004,9.5,0.7000000000000001,0.6000000000000001,0.30000000000000004,0.0
1698419236059.0,16,0.0,0.0,0.0,-0.30000000000000004,9.5,0.7000000000000001,0.8,0.4,0.2
1698419236076.0,16,0.0,0.0,0.0,-0.30000000000000004,9.5,0.7000000000000001,0.8,0.4,0.1
1698419236093.0,16,0.0,0.0,0.0,-0.30000000000000004,9.5,0.7000000000000001,0.8,0.5,-0.1
1698419236110.0,16,0.0,0.0,0.0,-0.30000000000000004,9.5,0.7000000000000001,1.0,0.5,0.0
1698419236126.0,16,0.0,0.0,0.0,-0.30000000000000004,9.5,0.7000000000000001,1.0,0.6000000000000001,-0.1
1698419236143.0,16,0.0,0.0,0.0,-0.30000000000000004,9.5,0.7000000000000001,0.8,0.5,0.0
1698419236160.0,16,0.0,0.0,0.0,-0.30000000000000004,9.5,0.7000000000000001,0.8,0.5,0.0
1698419236176.0,16,0.0,0.0,0.0,-0.30000000000000004,9.5,0.7000000000000001,0.8,0.6000000000000001,0.30000000000000004
1698419236193.0,16,0.0,0.0,0.0,-0.30000000000000004,9.5,0.7000000000000001,0.8,0.7,0.2
1698419236209.0,16,0.0,0.1,0.0,-0.30000000000000004,9.5,0.7000000000000001,0.6000000000000001,0.6000000000000001,0.30000000000000004
1698419236226.0,16,0.0,0.0,0.0,-0.30000000000000004,9.5,0.7000000000000001,0.8,0.8,0.6000000000000001
1698419236243.0,16,0.0,0.0,0.0,-0.30000000000000004,9.5,0.7000000000000001,0.6000000000000001,0.8,0.7
1698419236259.0,16,0.0,0.0,0.0,-0.30000000000000004,9.5,0.7000000000000001,0.5,0.8,0.7
1698419236276.0,16,0.0,0.0,0.0,-0.30000000000000004,9.5,0.7000000000000001,0.6000000000000001,0.7,0.6000000000000001
1698419236294.0,16,0.0,0.0,0.0,-0.30000000000000004,9.5,0.6000000000000001,0.6000000000000001,0.5,0.6000000000000001
1698419236310.0,16,0.0,0.0,0.0,-0.30000000000000004,9.5,0.7000000000000001,0.6000000000000001,0.1,0.4
1698419236327.0,16,0.0,0.0,-0.1,-0.30000000000000004,9.5,0.6000000000000001,0.5,-0.1,0.4
1698419236343.0,16,0.0,0.0,-0.1,-0.30000000000000004,9.5,0.6000000000000001,0.4,0.2,0.4
1698419236360.0,16,0.0,0.0,-0.1,-0.30000000000000004,9.5,0.6000000000000001,0.4,0.30000000000000004,0.4
1698419236378.0,16,0.0,0.0,0.0,-0.30000000000000004,9.5,0.6000000000000001,0.5,-0.1,0.2
1698419236393.0,16,0.0,0.0,0.0,-0.30000000000000004,9.5,0.6000000000000001,0.5,-0.30000000000000004,0.1
1698419236410.0,16,0.0,0.0,0.0,-0.30000000000000004,9.5,0.6000000000000001,0.30000000000000004,-0.2,0.1
1698419236427.0,16,0.0,0.0,0.0,-0.30000000000000004,9.5,0.6000000000000001,0.30000000000000004,-0.2,0.1
1698419236443.0,16,0.0,0.0,0.0,-0.30000000000000004,9.5,0.6000000000000001,0.30000000000000004,-0.30000000000000004,0.1
1698419236459.0,16,0.0,0.0,0.0,-0.30000000000000004,9.5,0.6000000000000001,0.2,-0.30000000000000004,0.1
1698419236476.0,16,0.0,0.0,0.0,-0.30000000000000004,9.5,0.6000000000000001,0.30000000000000004,-0.7,0.2
1698419236494.0,16,0.0,0.0,0.0,-0.30000000000000004,9.5,0.6000000000000001,0.30000000000000004,-0.6000000000000001,0.2
1698419236509.0,16,0.0,0.0,0.0,-0.30000000000000004,9.5,0.6000000000000001,0.30000000000000004,-0.2,0.30000000000000004
1698419236527.0,16,0.0,0.0,0.0,-0.2,9.5,0.6000000000000001,0.30000000000000004,-0.1,0.30000000000000004
1698419236543.0,16,0.0,0.0,0.0,-0.2,9.5,0.6000000000000001,0.2,-0.4,0.1
1698419236559.0,16,0.0,0.0,0.0,-0.2,9.5,0.6000000000000001,0.2,-0.30000000000000004,0.1
1698419236576.0,16,0.0,0.0,0.0,-0.30000000000000004,9.5,0.6000000000000001,0.2,0.1,0.0
1698419236593.0,16,0.0,0.0,-0.1,-0.30000000000000004,9.5,0.6000000000000001,0.0,0.0,0.1
1698419236609.0,16,0.0,0.0,0.0,-0.30000000000000004,9.5,0.6000000000000001,0.0,-0.30000000000000004,0.1
1698419236627.0,16,0.0,0.0,0.0,-0.30000000000000004,9.5,0.6000000000000001,0.0,-0.30000000000000004,0.2
1698419236643.0,16,0.0,0.0,0.0,-0.30000000000000004,9.5,0.6000000000000001,0.2,-0.30000000000000004,0.4
1698419236659.0,16,0.0,0.0,0.0,-0.30000000000000004,9.5,0.6000000000000001,0.2,-0.6000000000000001,0.4
1698419236677.0,16,0.0,0.0,0.0,-0.30000000000000004,9.5,0.6000000000000001,0.0,-0.7,0.2
1698419236694.0,16,0.0,0.0,0.0,-0.30000000000000004,9.5,0.6000000000000001,0.0,-0.7,0.0
1698419236709.0,16,0.0,0.0,0.0,-0.30000000000000004,9.5,0.6000000000000001,-0.1,-0.5,-0.1
1698419236726.0,16,0.0,0.0,0.0,-0.2,9.5,0.6000000000000001,0.0,-0.4,-0.30000000000000004
1698419236743.0,16,0.0,0.0,0.0,-0.30000000000000004,9.5,0.6000000000000001,0.2,-0.4,-0.2
1698419236759.0,16,0.0,0.0,0.0,-0.2,9.5,0.6000000000000001,0.2,-0.4,-0.30000000000000004
1698419236776.0,16,0.0,0.0,0.0,-0.30000000000000004,9.5,0.6000000000000001,0.30000000000000004,-0.7,-0.1
1698419236793.0,16,0.0,0.0,0.0,-0.30000000000000004,9.5,0.6000000000000001,0.1,-0.9,-0.2
1698419236810.0,16,0.0,0.1,0.0,-0.30000000000000004,9.600000000000001,0.6000000000000001,0.2,-0.5,-0.2
1698419236826.0,16,0.0,0.0,0.0,-0.2,9.5,0.6000000000000001,0.0,-0.30000000000000004,-0.2
1698419236843.0,16,0.0,0.0,0.0,-0.2,9.5,0.6000000000000001,0.0,-0.30000000000000004,-0.4
1698419236859.0,16,0.0,0.0,0.0,-0.30000000000000004,9.5,0.7000000000000001,-0.30000000000000004,0.1,-0.4
1698419236876.0,16,0.0,0.0,0.0,-0.30000000000000004,9.5,0.7000000000000001,-0.1,0.1,-0.4
1698419236893.0,16,0.0,0.0,0.0,-0.30000000000000004,9.5,0.7000000000000001,-0.1,-0.1,-0.2
1698419236909.0,16,0.0,0.0,0.0,-0.30000000000000004,9.5,0.6000000000000001,-0.1,0.0,-0.30000000000000004
1698419236926.0,16,0.0,0.0,0.0,-0.30000000000000004,9.5,0.6000000000000001,-0.30000000000000004,-0.4,-0.30000000000000004
1698419236943.0,16,0.0,0.0,0.0,-0.30000000000000004,9.5,0.6000000000000001,-0.30000000000000004,-0.6000000000000001,-0.30000000000000004
1698419236960.0,16,0.0,0.0,0.0,-0.2,9.5,0.6000000000000001,-0.30000000000000004,-0.5,-0.30000000000000004
1698419236976.0,16,0.0,0.0,0.0,-0.30000000000000004,9.5,0.6000000000000001,-0.2,-0.30000000000000004,-0.4
1698419236993.0,16,0.0,0.0,0.0,-0.2,9.5,0.6000000000000001,-0.1,-0.30000000000000004,-0.2
1698419237011.0,16,0.0,0.0,0.0,-0.2,9.5,0.6000000000000001,0.0,-0.6000000000000001,-0.4
1698419237026.0,16,0.0,-0.1,0.0,-0.2,9.4,0.6000000000000001,0.0,-0.8,-0.6000000000000001
1698419237044.0,16,0.0,0.0,0.0,-0.2,9.4,0.6000000000000001,0.2,-1.0999999999999999,-0.7
1698419237060.0,16,0.1,0.0,-0.1,-0.2,9.5,0.6000000000000001,0.1,-1.5000000000000002,-0.7
1698419237076.0,16,0.0,0.0,0.0,-0.30000000000000004,9.5,0.6000000000000001,-0.5,-2.1999999999999997,-0.7
1698419237093.0,16,0.0,-0.1,0.1,-0.2,9.4,0.7000000000000001,-0.6000000000000001,-2.3000000000000003,-0.8
1698419237109.0,16,0.0,-0.1,0.1,-0.2,9.4,0.7000000000000001,0.2,-0.9,-0.8
1698419237126.0,16,0.0,-0.1,0.0,-0.30000000000000004,9.4,0.6000000000000001,1.2000000000000002,-0.9,-1.0
1698419237143.0,16,0.0,0.0,0.0,-0.30000000000000004,9.4,0.6000000000000001,1.8,-0.8,-0.6000000000000001
1698419237160.0,16,0.0,0.0,-0.1,-0.30000000000000004,9.5,0.6000000000000001,2.0,-0.5,-0.5
1698419237176.0,16,0.0,0.0,0.0,-0.2,9.5,0.6000000000000001,2.0,-0.30000000000000004,-0.30000000000000004
1698419237193.0,16,0.1,0.0,0.1,-0.2,9.5,0.7000000000000001,2.1,0.6000000000000001,-0.4
1698419237210.0,16,0.1,0.0,0.2,-0.2,9.5,0.8,2.0,0.9,-0.4
1698419237227.0,16,0.0,0.0,0.2,-0.2,9.5,0.8,2.5,1.7,-0.4
1698419237243.0,16,0.0,-0.1,0.2,-0.30000000000000004,9.4,0.8,3.0000000000000004,3.0000000000000004,-0.1
1698419237260.0,16,0.0,0.0,0.2,-0.30000000000000004,9.5,0.8,3.1,3.5,0.1
1698419237276.0,16,-0.1,0.1,0.0,-0.30000000000000004,9.600000000000001,0.7000000000000001,2.5,3.4,0.30000000000000004
1698419237293.0,16,-0.1,0.2,0.0,-0.4,9.600000000000001,0.6000000000000001,1.9,3.1,0.2
1698419237310.0,16,-0.1,0.2,0.0,-0.4,9.700000000000001,0.6000000000000001,1.0,2.1,-0.1
1698419237326.0,16,-0.1,0.1,0.0,-0.4,9.700000000000001,0.6000000000000001,0.0,1.0999999999999999,-0.1
1698419237344.0,16,0.0,0.1,0.0,-0.30000000000000004,9.700000000000001,0.6000000000000001,-1.4,0.7,0.4
1698419237359.0,16,0.0,0.1,0.0,-0.30000000000000004,9.600000000000001,0.6000000000000001,-2.0,0.6000000000000001,0.4
1698419237376.0,16,-0.1,0.1,-0.1,-0.4,9.700000000000001,0.5,-3.1,0.5,0.5
1698419237393.0,16,-0.1,0.1,-0.1,-0.4,9.600000000000001,0.5,-3.3000000000000003,0.5,0.6000000000000001
1698419237410.0,16,-0.1,0.0,-0.1,-0.4,9.5,0.5,-3.8,0.2,0.30000000000000004
1698419237426.0,16,-0.1,0.0,-0.1,-0.4,9.5,0.6000000000000001,-4.2,-0.8,0.0
1698419237443.0,16,0.0,-0.1,-0.1,-0.30000000000000004,9.5,0.6000000000000001,-4.1000000000000005,-1.4,-0.1
1698419237460.0,16,0.0,-0.1,0.0,-0.30000000000000004,9.4,0.6000000000000001,-3.7000000000000006,-1.8,-0.2
1698419237477.0,16,0.1,-0.1,0.0,-0.2,9.4,0.6000000000000001,-2.9,-2.5,-0.2
1698419237493.0,16,0.1,-0.1,0.0,-0.2,9.4,0.6000000000000001,-2.0,-2.5,0.0
1698419237509.0,16,0.1,-0.1,0.0,-0.2,9.4,0.7000000000000001,-1.7,-2.3000000000000003,0.2
1698419237527.0,16,0.1,-0.1,0.0,-0.2,9.4,0.6000000000000001,-0.9,-1.0999999999999999,0.4
1698419237543.0,16,0.1,-0.1,0.0,-0.2,9.4,0.7000000000000001,-0.2,-0.5,0.5
1698419237560.0,16,0.1,-0.1,0.0,-0.2,9.4,0.6000000000000001,0.5,-0.1,0.4
1698419237576.0,16,0.1,0.0,0.0,-0.2,9.4,0.7000000000000001,0.8,-0.1,0.4
1698419237594.0,16,0.1,0.0,-0.1,-0.2,9.5,0.6000000000000001,0.8,0.5,0.7
1698419237610.0,16,0.0,0.0,0.0,-0.2,9.5,0.6000000000000001,0.9,0.6000000000000001,0.6000000000000001
1698419237627.0,16,0.0,0.0,0.0,-0.30000000000000004,9.5,0.6000000000000001,1.3,0.6000000000000001,1.0999999999999999
1698419237643.0,16,0.0,-0.1,0.0,-0.30000000000000004,9.4,0.7000000000000001,1.2000000000000002,1.0999999999999999,1.3
1698419237659.0,16,0.0,-0.1,0.0,-0.30000000000000004,9.4,0.6000000000000001,1.0999999999999999,1.3,1.2000000000000002
1698419237676.0,16,-0.1,0.0,0.0,-0.30000000000000004,9.5,0.7000000000000001,1.3,1.6,0.7
1698419237693.0,16,-0.1,0.1,0.1,-0.30000000000000004,9.600000000000001,0.7000000000000001,1.6,1.4,0.4
1698419237710.0,16,-0.1,0.1,0.1,-0.30000000000000004,9.5,0.7000000000000001,1.6,1.3,0.2
1698419237726.0,16,0.0,0.0,0.1,-0.30000000000000004,9.5,0.7000000000000001,1.3,1.0,0.0
1698419237743.0,16,0.0,0.0,0.0,-0.30000000000000004,9.5,0.7000000000000001,1.0,0.9,-0.2
1698419237760.0,16,0.0,0.0,0.1,-0.30000000000000004,9.5,0.7000000000000001,0.9,0.9,-0.2
1698419237776.0,16,0.0,0.0,0.0,-0.30000000000000004,9.5,0.7000000000000001,1.0999999999999999,0.8,0.1
1698419237793.0,16,0.0,0.0,0.0,-0.30000000000000004,9.5,0.6000000000000001,1.0,0.5,0.1
1698419237811.0,16,0.0,0.1,0.0,-0.30000000000000004,9.5,0.7000000000000001,0.8,0.1,0.0
1698419237826.0,16,0.0,0.1,0.0,-0.30000000000000004,9.600000000000001,0.6000000000000001,0.5,0.2,-0.1
1698419237843.0,16,0.0,0.0,0.0,-0.30000000000000004,9.5,0.7000000000000001,0.2,0.8,0.1
1698419237859.0,16,0.0,0.0,0.0,-0.2,9.5,0.7000000000000001,0.1,0.8,0.1
1698419237876.0,16,0.0,0.0,0.1,-0.2,9.5,0.7000000000000001,-0.1,0.6000000000000001,0.1
1698419237894.0,16,0.0,0.0,0.0,-0.30000000000000004,9.5,0.7000000000000001,-0.1,0.5,0.2
1698419237910.0,16,0.0,-0.1,0.0,-0.30000000000000004,9.4,0.7000000000000001,-0.1,0.4,0.30000000000000004
1698419237927.0,16,0.0,0.0,0.0,-0.30000000000000004,9.5,0.7000000000000001,0.1,0.30000000000000004,0.1
1698419237943.0,16,0.0,0.0,0.0,-0.30000000000000004,9.5,0.6000000000000001,0.0,0.0,-0.2
1698419237960.0,16,0.0,0.0,0.0,-0.30000000000000004,9.5,0.7000000000000001,-0.1,0.0,-0.2
1698419237976.0,16,0.0,0.0,0.0,-0.30000000000000004,9.5,0.6000000000000001,-0.1,0.0,0.0
1698419237993.0,16,0.0,0.0,0.0,-0.30000000000000004,9.5,0.7000000000000001,0.1,-0.2,0.1
1698419238011.0,16,0.0,0.0,0.0,-0.30000000000000004,9.5,0.7000000000000001,0.2,-0.1,0.30000000000000004
1698419238026.0,16,0.0,0.0,0.0,-0.30000000000000004,9.5,0.7000000000000001,0.2,0.1,0.1
1698419238043.0,16,0.0,0.0,0.0,-0.30000000000000004,9.5,0.7000000000000001,0.2,0.30000000000000004,0.0
1698419238060.0,16,0.0,0.0,0.0,-0.30000000000000004,9.5,0.7000000000000001,0.2,0.2,-0.1
1698419238076.0,16,-0.1,0.0,0.0,-0.30000000000000004,9.5,0.6000000000000001,0.4,-0.1,-0.30000000000000004
1698419238093.0,16,0.0,0.0,0.0,-0.30000000000000004,9.5,0.6000000000000001,0.30000000000000004,0.0,-0.4
1698419238111.0,16,0.0,0.0,0.0,-0.30000000000000004,9.5,0.6000000000000001,0.4,-0.2,-0.1
1698419238126.0,16,0.0,0.0,0.0,-0.30000000000000004,9.5,0.6000000000000001,0.30000000000000004,-0.30000000000000004,-0.1
1698419238143.0,16,0.0,0.0,0.0,-0.30000000000000004,9.5,0.6000000000000001,0.2,-0.30000000000000004,0.1
1698419238159.0,16,0.0,0.0,0.0,-0.2,9.5,0.6000000000000001,0.2,0.0,0.1
1698419238176.0,16,0.0,0.0,0.0,-0.2,9.5,0.7000000000000001,0.2,-0.1,0.0
1698419238193.0,16,0.0,0.0,0.0,-0.30000000000000004,9.5,0.6000000000000001,0.2,0.0,-0.1
1698419238210.0,16,0.0,0.0,0.0,-0.30000000000000004,9.5,0.6000000000000001,0.30000000000000004,0.0,-0.2
1698419238226.0,16,0.0,0.0,0.0,-0.30000000000000004,9.5,0.6000000000000001,0.30000000000000004,-0.1,-0.2
1698419238243.0,16,0.0,0.0,0.0,-0.30000000000000004,9.5,0.6000000000000001,0.30000000000000004,-0.1,-0.1
1698419238260.0,16,0.0,0.0,0.0,-0.30000000000000004,9.5,0.6000000000000001,0.30000000000000004,-0.4,-0.2
1698419238277.0,16,0.0,0.0,0.0,-0.30000000000000004,9.5,0.6000000000000001,0.30000000000000004,-0.5,-0.2
1698419238293.0,16,0.0,0.0,0.0,-0.30000000000000004,9.5,0.6000000000000001,0.2,-0.5,-0.2
1698419238310.0,16,0.0,0.0,0.0,-0.30000000000000004,9.5,0.6000000000000001,0.0,-0.5,-0.2
1698419238326.0,16,0.0,0.0,0.0,-0.30000000000000004,9.5,0.6000000000000001,0.0,-0.2,-0.2
1698419238343.0,16,0.0,0.0,-0.1,-0.30000000000000004,9.5,0.6000000000000001,-0.2,-0.1,-0.1
1698419238360.0,16,0.0,0.0,-0.1,-0.30000000000000004,9.5,0.6000000000000001,-0.30000000000000004,-0.1,0.0
1698419238377.0,16,0.0,0.0,0.0,-0.30000000000000004,9.5,0.6000000000000001,-0.30000000000000004,0.0,0.0
1698419238393.0,16,0.0,0.0,-0.1,-0.30000000000000004,9.5,0.6000000000000001,-0.2,-0.1,-0.1
1698419238411.0,16,0.0,0.0,0.0,-0.2,9.5,0.6000000000000001,-0.2,-0.1,-0.1
1698419238426.0,16,0.0,0.0,0.0,-0.2,9.5,0.6000000000000001,-0.1,-0.1,-0.1
1698419238443.0,16,0.0,0.0,0.0,-0.2,9.5,0.6000000000000001,-0.1,0.0,-0.1
1698419238459.0,16,0.0,0.0,0.0,-0.2,9.5,0.6000000000000001,-0.1,0.0,0.0
1698419238476.0,16,0.0,0.0,0.0,-0.30000000000000004,9.5,0.6000000000000001,-0.30000000000000004,0.6000000000000001,0.30000000000000004
1698419238493.0,16,0.0,0.0,0.0,-0.30000000000000004,9.5,0.6000000000000001,-0.5,0.5,0.4
1698419238510.0,16,0.0,0.0,0.0,-0.30000000000000004,9.5,0.6000000000000001,-0.4,0.9,0.4
1698419238526.0,16,0.0,0.0,0.0,-0.30000000000000004,9.5,0.6000000000000001,-0.6000000000000001,1.4,0.2
1698419238543.0,16,0.0,0.0,0.0,-0.30000000000000004,9.5,0.6000000000000001,-0.7,1.7,0.30000000000000004
1698419238560.0,16,0.0,0.0,0.0,-0.30000000000000004,9.5,0.6000000000000001,-0.6000000000000001,1.3,0.6000000000000001
1698419238576.0,16,0.0,0.0,-0.1,-0.30000000000000004,9.5,0.6000000000000001,-0.8,0.8,0.6000000000000001
1698419238593.0,16,0.0,0.1,0.0,-0.30000000000000004,9.600000000000001,0.6000000000000001,-0.9,0.6000000000000001,0.4
1698419238610.0,16,0.0,0.1,0.0,-0.30000000000000004,9.600000000000001,0.6000000000000001,-1.2000000000000002,1.0999999999999999,-0.2
1698419238627.0,16,0.0,0.0,0.0,-0.30000000000000004,9.600000000000001,0.6000000000000001,-1.2000000000000002,1.4,-0.2
1698419238643.0,16,0.0,0.0,0.0,-0.30000000000000004,9.5,0.6000000000000001,-1.7,1.0999999999999999,-0.1
1698419238660.0,16,-0.1,0.0,0.0,-0.30000000000000004,9.5,0.6000000000000001,-1.7,1.5000000000000002,1.0
1698419238676.0,16,-0.1,0.0,0.0,-0.4,9.5,0.6000000000000001,-1.9,1.7,1.4
1698419238694.0,16,-0.1,0.1,0.0,-0.4,9.600000000000001,0.6000000000000001,-2.1,0.8,0.7
1698419238711.0,16,-0.1,0.0,0.0,-0.4,9.600000000000001,0.6000000000000001,-2.6,0.9,-0.1
1698419238726.0,16,-0.1,0.0,0.0,-0.4,9.5,0.6000000000000001,-3.4,0.9,0.1
1698419238744.0,16,-0.1,0.0,0.0,-0.4,9.5,0.6000000000000001,-3.4,0.5,0.2
1698419238760.0,16,-0.1,0.0,0.0,-0.30000000000000004,9.5,0.6000000000000001,-3.1,-0.30000000000000004,0.30000000000000004
1698419238776.0,16,0.0,0.0,-0.1,-0.30000000000000004,9.600000000000001,0.6000000000000001,-3.9,-0.2,0.5
1698419238793.0,16,0.0,0.1,0.0,-0.30000000000000004,9.600000000000001,0.7000000000000001,-4.3999999999999995,-0.2,0.6000000000000001
1698419238809.0,16,-0.1,0.1,0.0,-0.4,9.600000000000001,0.7000000000000001,-5.4,-0.5,0.2
1698419238826.0,16,-0.1,0.1,0.0,-0.4,9.700000000000001,0.7000000000000001,-6.9,-2.0,-0.9
1698419238843.0,16,-0.1,0.1,0.0,-0.4,9.600000000000001,0.7000000000000001,-7.300000000000001,-2.1,-1.4
1698419238860.0,16,-0.1,0.1,0.0,-0.5,9.600000000000001,0.7000000000000001,-7.400000000000001,-1.7,-2.0
1698419238879.0,16,-0.1,0.0,-0.1,-0.5,9.600000000000001,0.6000000000000001,-8.600000000000001,-2.7,-2.6
1698419238895.0,16,-0.1,0.0,-0.1,-0.5,9.5,0.7000000000000001,-9.4,-3.8,-3.0000000000000004
1698419238909.0,16,-0.1,0.0,0.0,-0.5,9.5,0.8,-9.9,-4.1000000000000005,-3.7000000000000006
1698419238930.0,16,-0.2,0.0,0.0,-0.5,9.5,0.8,-9.700000000000001,-3.3000000000000003,-3.7000000000000006
1698419238943.0,16,-0.2,0.0,-0.1,-0.6000000000000001,9.5,0.8,-9.4,-2.6,-3.2
1698419238960.0,16,-0.2,0.1,-0.1,-0.6000000000000001,9.600000000000001,0.8,-9.4,-2.0,-3.3000000000000003
1698419238976.0,16,-0.2,0.0,0.0,-0.6000000000000001,9.5,0.9,-9.600000000000001,-0.6000000000000001,-3.0000000000000004
1698419238992.0,16,-0.2,0.0,-0.1,-0.6000000000000001,9.5,0.9,-9.700000000000001,-0.30000000000000004,-2.8
1698419239009.0,16,-0.2,0.0,-0.1,-0.7000000000000001,9.5,0.9,-10.4,-1.3,-2.4000000000000004
1698419239027.0,16,-0.2,-0.1,0.0,-0.7000000000000001,9.4,0.9,-10.5,-1.0999999999999999,-1.7
1698419239043.0,16,-0.2,-0.1,-0.1,-0.7000000000000001,9.4,0.9,-10.2,-0.7,-1.5000000000000002
1698419239059.0,16,-0.2,-0.1,-0.2,-0.7000000000000001,9.4,0.9,-9.700000000000001,-1.0999999999999999,-1.3
1698419239076.0,16,-0.2,0.0,-0.1,-0.8,9.5,1.0,-9.5,-2.1999999999999997,-1.0
1698419239093.0,16,-0.2,0.0,-0.1,-0.7000000000000001,9.5,1.0,-9.5,-2.1999999999999997,-0.9
1698419239110.0,16,-0.2,0.0,-0.1,-0.7000000000000001,9.5,1.0,-9.600000000000001,-2.3000000000000003,-1.0
1698419239126.0,16,-0.2,0.0,-0.1,-0.7000000000000001,9.4,1.0,-10.3,-2.0,-1.0
1698419239143.0,16,-0.2,-0.1,-0.1,-0.7000000000000001,9.4,1.0,-10.3,-1.7,-0.8
1698419239160.0,16,-0.1,-0.1,-0.1,-0.7000000000000001,9.4,1.0,-10.0,-1.2000000000000002,-0.30000000000000004
1698419239176.0,16,-0.1,-0.1,-0.1,-0.7000000000000001,9.4,1.1,-9.4,-1.0,0.7
1698419239193.0,16,0.0,0.0,-0.1,-0.6000000000000001,9.4,1.2000000000000002,-8.9,-0.30000000000000004,1.4
1698419239210.0,16,0.1,-0.1,-0.1,-0.5,9.4,1.2000000000000002,-8.799999999999999,1.6,2.8
1698419239226.0,16,0.1,-0.2,-0.1,-0.4,9.3,1.1,-7.8,3.7000000000000006,5.0
1698419239243.0,16,0.1,-0.2,-0.2,-0.4,9.200000000000001,1.1,-7.300000000000001,5.2,6.1000000000000005
1698419239259.0,16,0.1,-0.2,-0.4,-0.4,9.3,0.8,-7.0,8.1,7.6
1698419239276.0,16,0.1,0.0,-0.5,-0.4,9.4,0.8,-9.3,15.7,11.000000000000002
1698419239293.0,16,0.2,0.0,-0.5,-0.30000000000000004,9.4,0.8,-8.799999999999999,16.3,15.5
1698419239309.0,16,0.2,-0.1,-0.4,-0.2,9.4,0.9,-8.4,14.200000000000001,17.200000000000003
1698419239327.0,16,0.2,-0.1,-0.2,-0.1,9.3,1.1,-7.300000000000001,8.1,19.400000000000002
1698419239343.0,16,0.4,-0.1,-0.1,0.0,9.3,1.2000000000000002,-8.600000000000001,-1.9,16.700000000000003
1698419239359.0,16,0.5,-0.30000000000000004,-0.1,0.2,9.200000000000001,1.3,-10.600000000000001,-6.8,14.3
1698419239377.0,16,0.6000000000000001,-0.4,-0.30000000000000004,0.30000000000000004,9.0,1.1,-14.3,-15.7,8.0
1698419239393.0,16,0.2,-0.2,-0.5,-0.1,9.200000000000001,1.0,-14.500000000000002,-17.8,5.0
1698419239411.0,16,-0.2,0.2,-0.7000000000000001,-0.30000000000000004,9.600000000000001,0.8,-9.5,-17.7,4.0
1698419239426.0,16,-0.4,0.9,-0.7000000000000001,-0.5,10.3,0.7000000000000001,-2.7,-17.7,7.6
1698419239443.0,16,0.4,0.9,-0.6000000000000001,0.30000000000000004,10.3,0.9,1.4,-11.000000000000002,7.8
1698419239459.0,16,1.0,0.9,-0.6000000000000001,0.9,10.3,0.9,1.6,-7.8,6.7
1698419239476.0,16,1.9000000000000001,0.9,-0.30000000000000004,1.8,10.3,1.1,-3.7000000000000006,-1.4,6.4
1698419239492.0,16,1.8,0.4,-0.1,1.8,9.8,1.4000000000000001,-11.700000000000001,5.1,8.9
1698419239510.0,16,1.4000000000000001,0.1,-0.2,1.4000000000000001,9.5,1.3,-14.600000000000001,6.5,11.000000000000002
1698419239526.0,16,0.5,-0.2,-0.5,0.5,9.200000000000001,1.0,-15.8,4.3999999999999995,13.700000000000001
1698419239543.0,16,0.0,-0.4,-0.7000000000000001,0.1,9.0,0.9,-14.3,3.2,14.800000000000002
1698419239560.0,16,-0.4,-0.6000000000000001,-0.9,-0.30000000000000004,8.8,0.7000000000000001,-10.8,2.7,17.5
1698419239577.0,16,-0.2,-0.6000000000000001,-1.1,-0.1,8.8,0.5,-8.4,1.0,15.000000000000002
1698419239593.0,16,0.2,-0.7000000000000001,-1.2000000000000002,0.4,8.700000000000001,0.5,-9.1,-2.0,10.0
1698419239609.0,16,0.4,-0.6000000000000001,-1.2000000000000002,0.6000000000000001,8.700000000000001,0.5,-10.600000000000001,-2.7,8.1
1698419239626.0,16,0.6000000000000001,-0.5,-1.2000000000000002,0.9,8.8,0.5,-14.100000000000001,-3.4,5.9
1698419239643.0,16,0.7000000000000001,-0.5,-1.3,1.0,8.8,0.4,-16.1,-3.8,5.1
1698419239659.0,16,0.7000000000000001,-0.5,-1.4000000000000001,0.9,8.8,0.4,-16.700000000000003,-3.5,4.6000000000000005
1698419239676.0,16,0.4,-0.6000000000000001,-1.7000000000000002,0.7000000000000001,8.700000000000001,0.1,-18.6,-2.1999999999999997,3.5
1698419239693.0,16,0.30000000000000004,-0.7000000000000001,-1.8,0.5,8.6,0.1,-18.900000000000002,-1.9,3.4
1698419239709.0,16,0.1,-0.7000000000000001,-1.9000000000000001,0.4,8.6,-0.1,-17.599999999999998,0.0,1.3
1698419239726.0,16,0.0,-0.5,-2.1,0.30000000000000004,8.700000000000001,-0.1,-15.2,-1.0999999999999999,-1.5000000000000002
1698419239743.0,16,0.30000000000000004,-0.2,-1.9000000000000001,0.6000000000000001,9.1,0.0,-11.3,-2.8,-4.3999999999999995
1698419239759.0,16,0.30000000000000004,0.0,-1.8,0.6000000000000001,9.3,0.1,-8.600000000000001,-1.8,-7.2
1698419239776.0,16,0.4,0.2,-1.7000000000000002,0.7000000000000001,9.5,0.30000000000000004,-4.0,-1.9,-9.8
1698419239793.0,16,0.5,0.4,-1.6,0.7000000000000001,9.600000000000001,0.4,-5.6,2.4000000000000004,-8.799999999999999
1698419239809.0,16,0.5,0.30000000000000004,-1.6,0.7000000000000001,9.5,0.4,-7.8,3.5,-7.300000000000001
1698419239826.0,16,0.6000000000000001,0.30000000000000004,-1.7000000000000002,0.8,9.5,0.30000000000000004,-14.600000000000001,3.9,-5.7
1698419239843.0,16,0.9,0.4,-1.5,1.0,9.700000000000001,0.5,-20.4,5.2,-5.6
1698419239860.0,16,1.1,0.6000000000000001,-1.4000000000000001,1.2000000000000002,9.8,0.6000000000000001,-21.6,6.1000000000000005,-5.7
1698419239877.0,16,1.6,1.4000000000000001,-1.4000000000000001,1.8,10.600000000000001,0.7000000000000001,-21.700000000000003,11.5,-5.4
1698419239894.0,16,1.9000000000000001,1.9000000000000001,-1.5,2.1,11.100000000000001,0.7000000000000001,-21.900000000000002,16.1,-4.800000000000001
1698419239909.0,16,1.5,2.7,-1.9000000000000001,2.1,11.8,0.30000000000000004,-23.8,26.700000000000003,-3.3000000000000003
1698419239926.0,16,0.9,3.0,-1.2000000000000002,1.0,12.3,1.1,-23.2,34.50000000000001,1.4
1698419239943.0,16,-0.7000000000000001,4.2,-2.1,-0.5,13.5,0.2,-4.800000000000001,3.0000000000000004,16.2
1698419239960.0,16,-0.7000000000000001,3.8000000000000003,-2.6,-0.5,13.100000000000001,-0.30000000000000004,-6.7,-16.8,24.5
1698419239977.0,16,-1.4000000000000001,2.4000000000000004,-1.3,-1.1,11.600000000000001,1.0,-16.8,-19.500000000000004,14.800000000000002
1698419239993.0,16,-0.5,2.5,-2.2,-0.2,11.700000000000001,0.1,-12.100000000000001,-26.3,-2.1
1698419240011.0,16,0.2,2.1,-1.5,0.5,11.4,0.9,-13.9,-21.6,-8.700000000000001
1698419240026.0,16,1.3,1.1,-0.7000000000000001,1.6,10.4,1.7000000000000002,0.0,0.7,-19.200000000000003
1698419240043.0,16,1.3,0.5,0.6000000000000001,1.5,9.8,2.9000000000000004,29.1,13.6,-19.6
1698419240060.0,16,0.8,0.4,1.6,1.0,9.700000000000001,3.8000000000000003,47.900000000000006,12.5,-17.1
1698419240076.0,16,-0.1,0.8,2.9000000000000004,0.0,10.200000000000001,4.9,75.4,3.2,-8.0
1698419240093.0,16,-0.8,0.1,4.5,-0.7000000000000001,9.5,6.4,43.300000000000004,5.8,-0.8
1698419240109.0,16,-0.6000000000000001,-0.30000000000000004,4.3,-0.5,9.1,6.2,-4.0,12.8,-0.2
1698419240126.0,16,1.1,-1.4000000000000001,1.1,1.2000000000000002,8.0,3.1,-18.900000000000002,31.2,10.0
1698419240143.0,16,1.2000000000000002,-2.3000000000000003,1.0,1.3,7.1000000000000005,3.0,-1.9,23.700000000000003,4.800000000000001
1698419240159.0,16,0.8,-2.3000000000000003,1.0,0.7000000000000001,7.2,3.0,-0.8,20.7,1.7
1698419240176.0,16,0.4,-1.8,0.9,0.5,7.6000000000000005,2.9000000000000004,-1.7,17.7,2.1
1698419240194.0,16,-0.5,-1.2000000000000002,0.4,-0.30000000000000004,8.200000000000001,2.4000000000000004,1.0999999999999999,14.700000000000001,1.7
1698419240210.0,16,-1.0,-1.3,0.2,-0.9,8.0,2.2,0.9,16.6,0.7
1698419240227.0,16,-1.4000000000000001,-2.1,0.0,-1.3,7.2,2.0,-2.8,23.3,-1.2000000000000002
1698419240243.0,16,-1.0,-2.6,-0.1,-1.0,6.7,1.9000000000000001,-7.300000000000001,33.1,-0.7
1698419240260.0,16,-0.5,-2.6,-0.4,-0.4,6.6000000000000005,1.7000000000000002,-9.3,37.4,5.0
1698419240277.0,16,-0.30000000000000004,-2.5,-0.6000000000000001,-0.30000000000000004,6.800000000000001,1.5,-7.6,36.6,8.600000000000001
1698419240294.0,16,-0.4,-1.9000000000000001,-0.9,-0.4,7.300000000000001,1.2000000000000002,-0.6000000000000001,31.5,13.4
1698419240310.0,16,-0.6000000000000001,-1.8,-1.1,-0.6000000000000001,7.4,1.0,2.8,28.400000000000002,13.4
1698419240327.0,16,-0.9,-1.7000000000000002,-1.3,-0.9,7.6000000000000005,0.7000000000000001,5.9,22.6,9.5
1698419240343.0,16,-1.3,-1.6,-1.7000000000000002,-1.3,7.6000000000000005,0.30000000000000004,5.1,16.6,3.2
1698419240360.0,16,-1.5,-1.4000000000000001,-1.9000000000000001,-1.5,7.800000000000001,0.1,0.6000000000000001,12.8,-0.2
1698419240376.0,16,-1.6,-1.2000000000000002,-2.0,-1.6,8.0,0.0,-1.6,11.3,-0.30000000000000004
1698419240393.0,16,-1.7000000000000002,-0.6000000000000001,-2.0,-1.7000000000000002,8.6,0.0,-3.6,6.3,2.4000000000000004
1698419240410.0,16,-1.9000000000000001,-0.1,-1.8,-1.9000000000000001,9.0,0.2,-3.8,-2.8,6.5
1698419240426.0,16,-2.1,0.0,-1.6,-2.0,9.1,0.4,-3.6,-7.300000000000001,8.200000000000001
1698419240443.0,16,-2.1,0.30000000000000004,-1.3,-2.1,9.5,0.7000000000000001,-1.6,-14.0,6.9
1698419240459.0,16,-1.6,1.0,-1.4000000000000001,-1.6,10.200000000000001,0.6000000000000001,-4.7,-20.3,-2.7
1698419240476.0,16,-1.3,1.2000000000000002,-1.1,-1.3,10.4,0.9,-9.4,-26.3,-9.0
1698419240493.0,16,-0.7000000000000001,1.5,-0.9,-0.7000000000000001,10.700000000000001,1.1,-14.800000000000002,-28.700000000000003,-17.3
1698419240509.0,16,-0.1,2.5,-1.8,-0.5,11.200000000000001,0.8,-12.200000000000001,-26.3,-24.1
1698419240526.0,16,0.2,3.0,-2.7,0.0,12.200000000000001,-0.6000000000000001,-10.9,-26.500000000000004,-26.8
1698419240545.0,16,0.2,3.4000000000000004,-4.0,0.0,12.600000000000001,-2.0,-13.9,-30.799999999999997,-27.5
1698419240559.0,16,-0.5,4.800000000000001,1.7000000000000002,-0.7000000000000001,14.0,3.8000000000000003,-10.3,-26.9,-19.3
1698419240576.0,16,0.9,7.7,3.9000000000000004,0.7000000000000001,17.0,6.0,28.8,2.7,-21.0
1698419240593.0,16,1.7000000000000002,6.1000000000000005,-0.5,1.3,15.5,1.4000000000000001,74.60000000000001,59.7,-40.6
1698419240610.0,16,2.2,0.6000000000000001,7.2,2.3000000000000003,12.0,7.1000000000000005,72.8,40.8,-28.900000000000002
1698419240626.0,16,1.4000000000000001,-0.6000000000000001,0.6000000000000001,0.9,8.8,2.3000000000000003,23.8,58.60000000000001,-6.2
1698419240643.0,16,-0.2,-3.0,1.2000000000000002,-0.7000000000000001,6.5,2.7,36.5,-11.000000000000002,0.8
1698419240660.0,16,-2.3000000000000003,-1.3,2.8000000000000003,-2.8000000000000003,8.200000000000001,4.2,61.50000000000001,-29.800000000000004,3.9
1698419240677.0,16,-3.3000000000000003,1.6,5.300000000000001,-3.9000000000000004,11.100000000000001,6.6000000000000005,54.1,-28.400000000000002,-0.5
1698419240693.0,16,-2.8000000000000003,7.300000000000001,5.7,-3.4000000000000004,16.8,6.9,33.400000000000006,3.8,-27.400000000000002
1698419240710.0,16,0.5,3.5,2.5,-0.30000000000000004,13.0,3.8000000000000003,-6.8,-8.5,-65.3
1698419240726.0,16,-0.2,-1.7000000000000002,2.3000000000000003,-1.2000000000000002,7.800000000000001,3.7,-18.5,-21.400000000000002,-68.2
1698419240743.0,16,0.6000000000000001,-2.5,1.5,-0.4,7.0,2.9000000000000004,-11.700000000000001,3.0000000000000004,-30.100000000000005
1698419240759.0,16,1.2000000000000002,-2.7,0.7000000000000001,0.2,6.800000000000001,2.1,-2.8,-0.6000000000000001,12.6
1698419240776.0,16,2.0,-2.4000000000000004,0.8,1.0,7.1000000000000005,2.2,-6.6000000000000005,1.3,31.0
1698419240793.0,16,1.9000000000000001,-2.4000000000000004,0.5,1.1,7.1000000000000005,2.0,-15.2,8.5,35.8
1698419240810.0,16,1.6,-3.1,0.2,0.9,6.300000000000001,1.8,-17.599999999999998,15.299999999999999,20.1
1698419240827.0,16,1.4000000000000001,-3.6,0.0,0.7000000000000001,5.800000000000001,1.5,-18.3,15.6,14.800000000000002
1698419240843.0,16,1.1,-4.0,-0.30000000000000004,0.4,5.4,1.3,-15.5,6.8,14.3
1698419240860.0,16,0.6000000000000001,-3.8000000000000003,-0.1,0.0,5.5,1.6,-10.8,-4.2,20.5
1698419240877.0,16,0.0,-3.2,0.0,-0.2,5.800000000000001,1.7000000000000002,-11.3,-6.6000000000000005,23.0
1698419240893.0,16,-0.30000000000000004,-2.8000000000000003,-0.2,-0.8,6.5,1.5,-14.900000000000002,-7.699999999999999,20.2
1698419240910.0,16,-0.6000000000000001,-2.5,-0.6000000000000001,-1.0,6.800000000000001,1.2000000000000002,-14.700000000000001,-4.1000000000000005,10.3
1698419240927.0,16,0.0,-2.4000000000000004,-1.1,-0.8,6.9,1.0,-13.9,-0.9,4.6000000000000005
1698419240943.0,16,0.6000000000000001,-2.5,-1.2000000000000002,0.1,6.7,0.6000000000000001,-11.4,2.1999999999999997,-7.2
1698419240960.0,16,1.7000000000000002,-2.1,-1.3,1.2000000000000002,7.1000000000000005,0.5,-11.3,2.1999999999999997,-16.3
1698419240976.0,16,2.9000000000000004,-1.1,-1.2000000000000002,2.3000000000000003,8.1,0.7000000000000001,-15.5,12.6,-19.200000000000003
1698419240993.0,16,3.2,-0.5,-1.4000000000000001,2.7,8.700000000000001,0.5,-18.1,23.700000000000003,-16.700000000000003
1698419241009.0,16,3.1,0.0,-1.5,2.6,9.1,0.4,-21.1,45.5,-5.4
1698419241027.0,16,2.5,0.1,-1.5,1.9000000000000001,9.3,0.5,-19.400000000000002,55.0,3.3000000000000003
1698419241043.0,16,0.5,1.0,-1.5,-0.1,10.100000000000001,0.4,-10.5,67.9,25.2
1698419241059.0,16,-1.2000000000000002,2.2,-1.9000000000000001,-1.6,11.4,0.1,4.2,41.2,38.2
1698419241076.0,16,-2.8000000000000003,3.7,-2.1,-3.2,12.9,-0.2,19.9,6.9,39.1
1698419241093.0,16,-3.0,4.6000000000000005,-2.3000000000000003,-3.4000000000000004,13.9,-0.5,24.6,1.2000000000000002,34.900000000000006
1698419241110.0,16,-1.5,5.5,-3.2,-1.8,14.8,-1.5,11.9,9.1,-5.2
1698419241127.0,16,-0.30000000000000004,4.6000000000000005,-3.6,-0.7000000000000001,13.9,-1.9000000000000001,-4.7,6.5,-34.2
1698419241143.0,16,1.2000000000000002,4.0,3.0,0.7000000000000001,13.4,4.7,-11.4,14.800000000000002,-55.900000000000006
1698419241159.0,16,0.9,6.300000000000001,1.6,0.30000000000000004,15.700000000000001,3.3000000000000003,49.7,-77.0,0.1
1698419241176.0,16,0.5,2.4000000000000004,4.9,-0.1,11.8,6.5,64.4,-60.300000000000004,18.5
1698419241193.0,16,-1.4000000000000001,-1.1,3.1,-1.8,8.4,4.4,101.9,-46.5,48.9
1698419241210.0,16,0.2,-1.5,2.5,-0.1,8.0,3.7,27.6,-26.0,22.5
1698419241227.0,16,0.9,-1.4000000000000001,1.8,0.6000000000000001,8.1,3.0,12.700000000000001,0.30000000000000004,9.8
1698419241243.0,16,2.6,1.0,3.8000000000000003,2.4000000000000004,10.5,5.0,16.3,10.4,-14.800000000000002
1698419241259.0,16,3.1,5.1000000000000005,5.2,2.8000000000000003,14.600000000000001,6.4,3.3000000000000003,9.5,-6.3
1698419241276.0,16,0.8,3.9000000000000004,3.6,0.6000000000000001,13.5,4.800000000000001,0.8,1.4,43.6
1698419241293.0,16,0.6000000000000001,1.4000000000000001,3.2,0.5,10.9,4.4,6.7,-6.6000000000000005,69.80000000000001
1698419241310.0,16,0.5,0.0,1.8,0.7000000000000001,9.600000000000001,3.0,-0.9,4.3999999999999995,44.4
1698419241326.0,16,-0.8,-2.1,0.4,-0.7000000000000001,7.5,1.7000000000000002,-14.800000000000002,12.9,-1.3
1698419241343.0,16,-1.4000000000000001,-3.0,0.2,-1.3,6.6000000000000005,1.5,-20.900000000000002,19.1,-9.700000000000001
1698419241359.0,16,-1.5,-3.9000000000000004,-0.2,-1.4000000000000001,5.6000000000000005,1.2000000000000002,-28.400000000000002,31.2,-8.700000000000001
1698419241376.0,16,-1.1,-4.1000000000000005,-0.4,-1.0,5.4,1.0,-23.6,31.099999999999998,-0.9
1698419241393.0,16,-0.9,-4.0,-0.5,-0.8,5.5,1.0,-11.9,20.1,4.6000000000000005
1698419241409.0,16,-0.7000000000000001,-4.0,-0.30000000000000004,-0.7000000000000001,5.4,1.2000000000000002,-6.7,15.399999999999999,5.9
1698419241426.0,16,-1.0,-3.9000000000000004,-0.4,-1.0,5.4,1.1,-2.5,11.9,6.1000000000000005
1698419241451.0,16,-1.0,-3.9000000000000004,-0.5,-1.0,5.4,1.1,-4.800000000000001,13.0,4.300000000000001
1698419241459.0,16,-1.4000000000000001,-3.7,-0.9,-1.4000000000000001,5.6000000000000005,0.6000000000000001,-8.1,13.200000000000001,-2.4000000000000004
1698419241476.0,16,-1.5,-3.1,-0.9,-1.5,6.2,0.7000000000000001,-11.3,9.700000000000001,-6.2
1698419241492.0,16,-1.7000000000000002,-1.9000000000000001,-1.1,-1.7000000000000002,7.300000000000001,0.6000000000000001,-15.7,-0.8,0.6000000000000001
1698419241510.0,16,-1.9000000000000001,-1.2000000000000002,-1.1,-2.0,8.1,0.5,-19.500000000000004,-10.700000000000001,7.2
1698419241527.0,16,-2.7,-0.5,-1.3,-2.7,8.8,0.4,-27.7,-30.200000000000003,21.1
1698419241543.0,16,-3.0,-0.4,-1.6,-2.8000000000000003,9.0,0.0,-31.4,-37.7,23.6
1698419241560.0,16,-2.5,0.1,-1.8,-2.4000000000000004,9.3,0.1,-34.1,-52.50000000000001,8.9
1698419241576.0,16,-1.0,0.6000000000000001,-2.0,-0.9,9.8,0.0,-22.2,-63.4,-21.5
1698419241593.0,16,-0.1,0.9,-2.1,0.0,10.100000000000001,-0.2,-15.000000000000002,-63.0,-33.7
1698419241610.0,16,1.1,2.5,-2.4000000000000004,1.1,11.700000000000001,-0.4,-2.8,-40.4,-44.7
1698419241627.0,16,2.0,4.4,-2.7,1.8,13.600000000000001,-0.8,8.600000000000001,-18.400000000000002,-46.300000000000004
1698419241643.0,16,1.9000000000000001,5.0,-3.6,1.6,14.200000000000001,-1.8,16.400000000000002,-13.5,-29.000000000000004
1698419241660.0,16,1.1,4.7,-3.5,0.8,14.0,-1.7000000000000002,13.200000000000001,-16.0,-8.200000000000001
1698419241676.0,16,0.6000000000000001,8.0,4.2,0.4,17.3,6.0,38.2,6.9,17.9
1698419241692.0,16,0.4,4.2,3.5,0.2,13.600000000000001,5.0,50.1,56.400000000000006,-30.9
1698419241709.0,16,-0.1,1.0,6.5,-0.4,10.4,8.1,22.900000000000002,87.4,-39.1
1698419241726.0,16,1.5,-2.9000000000000004,2.8000000000000003,1.0,6.6000000000000005,4.1000000000000005,68.1,37.0,-52.2
1698419241743.0,16,-0.8,-3.7,1.4000000000000001,-1.5,5.7,2.6,64.60000000000001,1.8,-32.7
1698419241759.0,16,-1.9000000000000001,-2.5,2.9000000000000004,-2.6,7.0,4.0,59.300000000000004,-13.9,-18.400000000000002
1698419241776.0,16,-3.7,6.1000000000000005,9.1,-4.4,15.700000000000001,10.100000000000001,47.900000000000006,-26.400000000000002,-4.300000000000001
1698419241793.0,16,-0.6000000000000001,10.4,2.9000000000000004,-1.4000000000000001,20.0,3.9000000000000004,-10.2,16.900000000000002,-27.7
1698419241810.0,16,1.9000000000000001,9.8,3.5,0.9,19.400000000000002,4.5,-26.700000000000003,1.6,-61.300000000000004
1698419241826.0,16,-1.2000000000000002,-1.1,1.5,-2.4000000000000004,8.5,2.6,-14.800000000000002,1.9,-68.60000000000001
1698419241843.0,16,0.6000000000000001,-3.7,-0.30000000000000004,-0.6000000000000001,5.9,0.9,-9.4,6.9,5.9
1698419241859.0,16,2.3000000000000003,-3.8000000000000003,-0.1,1.1,5.7,1.1,-15.2,2.8,36.9
1698419241876.0,16,3.1,-3.5,0.2,2.2,6.0,1.5,-30.000000000000004,-4.6000000000000005,55.4
1698419241893.0,16,1.8,-3.5,0.1,1.0,6.0,1.5,-32.6,-16.1,41.9
1698419241911.0,16,1.2000000000000002,-3.7,0.1,0.5,5.7,1.5,-33.900000000000006,-15.2,32.1
1698419241926.0,16,0.9,-4.6000000000000005,-0.1,0.30000000000000004,4.800000000000001,1.4000000000000001,-27.0,-8.5,14.800000000000002
1698419241943.0,16,1.0,-5.0,-0.30000000000000004,0.4,4.4,1.3,-16.400000000000002,-1.9,6.5
1698419241960.0,16,1.4000000000000001,-4.9,-0.2,0.7000000000000001,4.3,1.3,-13.0,1.3,5.7
1698419241976.0,16,1.4000000000000001,-4.7,-0.2,0.8,4.6000000000000005,1.4000000000000001,-14.4,3.0000000000000004,9.0
1698419241993.0,16,1.3,-3.4000000000000004,-0.7000000000000001,0.7000000000000001,5.800000000000001,1.0,-21.3,3.4,11.9
1698419242009.0,16,1.0,-2.8000000000000003,-1.2000000000000002,0.5,6.5,0.6000000000000001,-22.4,3.6,10.1
1698419242026.0,16,0.5,-1.7000000000000002,-1.9000000000000001,0.1,7.5,0.0,-21.900000000000002,8.799999999999999,9.3
1698419242043.0,16,0.6000000000000001,-1.1,-1.8,0.1,8.1,0.0,-23.400000000000002,21.0,-0.2
1698419242061.0,16,1.0,-1.5,-2.1,0.2,7.9,-0.1,-24.1,26.1,-8.700000000000001
1698419242078.0,16,1.5,-1.6,-2.0,0.9,7.5,-0.1,-25.8,32.4,-16.2
1698419242093.0,16,2.5,-0.9,-1.8,1.9000000000000001,8.200000000000001,0.2,-24.400000000000002,44.3,-6.6000000000000005
1698419242110.0,16,2.4000000000000004,1.5,-1.0,1.9000000000000001,10.600000000000001,1.1,-11.3,48.400000000000006,9.5
1698419242126.0,16,1.5,2.7,-0.8,0.9,11.8,1.3,1.5000000000000002,45.6,18.3
1698419242143.0,16,-1.3,4.1000000000000005,-1.4000000000000001,-1.8,13.3,0.6000000000000001,27.0,11.000000000000002,31.6
1698419242159.0,16,-3.8000000000000003,4.2,-2.4000000000000004,-4.2,13.4,-0.6000000000000001,30.299999999999997,-19.700000000000003,36.3
1698419242176.0,16,-4.4,4.4,-3.1,-4.800000000000001,13.600000000000001,-1.3,20.900000000000002,-16.3,30.200000000000003
1698419242192.0,16,-2.5,4.800000000000001,-1.6,-2.9000000000000004,14.100000000000001,0.2,-13.200000000000001,-11.700000000000001,-18.5
1698419242210.0,16,-1.3,9.4,0.9,-1.9000000000000001,18.8,2.7,13.3,-36.1,-44.9
1698419242226.0,16,1.2000000000000002,8.0,2.3000000000000003,0.7000000000000001,17.400000000000002,4.0,35.5,-79.8,-25.6
1698419242243.0,16,2.4000000000000004,0.4,4.2,1.9000000000000001,9.9,5.800000000000001,72.10000000000001,-54.3,11.700000000000001
1698419242259.0,16,1.7000000000000002,-2.2,2.9000000000000004,1.0,8.1,5.2,81.6,-48.800000000000004,35.3
1698419242276.0,16,2.1,-2.2,2.0,1.9000000000000001,7.300000000000001,3.3000000000000003,45.6,-30.200000000000003,31.7
1698419242293.0,16,2.6,-0.7000000000000001,3.2,2.5,8.8,4.4,22.3,2.7,8.4
1698419242309.0,16,1.9000000000000001,5.5,5.800000000000001,1.8,15.0,7.1000000000000005,2.6,6.7,6.5
1698419242326.0,16,1.4000000000000001,7.7,4.9,1.3,17.3,6.2,-16.0,21.200000000000003,21.0
1698419242342.0,16,0.5,2.5,2.6,0.5,12.0,4.0,-13.200000000000001,7.699999999999999,52.7
1698419242359.0,16,0.6000000000000001,0.1,1.7000000000000002,0.9,9.700000000000001,3.1,3.0000000000000004,1.0999999999999999,48.2
1698419242376.0,16,0.4,-0.6000000000000001,0.8,0.7000000000000001,9.0,2.2,-3.1,5.300000000000001,29.300000000000004
1698419242393.0,16,-1.1,-2.6,0.0,-0.8,6.9,1.5,-25.0,9.8,-5.500000000000001
1698419242409.0,16,-1.9000000000000001,-4.3,-0.2,-1.6,5.300000000000001,1.4000000000000001,-36.9,19.500000000000004,-11.1
1698419242426.0,16,-1.8,-4.800000000000001,-0.4,-1.6,4.7,1.3,-37.5,25.5,-8.1
1698419242443.0,16,-1.4000000000000001,-5.0,-0.8,-1.2000000000000002,4.4,0.9,-31.900000000000002,29.1,-2.3000000000000003
1698419242459.0,16,-0.9,-4.800000000000001,-0.8,-0.8,4.5,1.1,-19.3,21.6,2.5
1698419242477.0,16,-0.8,-4.7,-0.7000000000000001,-0.7000000000000001,4.6000000000000005,1.1,-12.200000000000001,18.6,5.0
1698419242494.0,16,-1.0,-4.5,-0.7000000000000001,-0.8,4.800000000000001,1.2000000000000002,-3.4,15.100000000000001,5.9
1698419242510.0,16,-1.3,-4.0,-0.6000000000000001,-1.1,5.300000000000001,1.3,-3.3000000000000003,10.3,3.0000000000000004
1698419242526.0,16,-1.6,-3.5,-0.5,-1.5,5.7,1.3,-5.9,7.400000000000001,2.0
1698419242543.0,16,-2.3000000000000003,-2.1,-0.5,-2.1,7.1000000000000005,1.4000000000000001,-15.299999999999999,-5.6,3.9
1698419242559.0,16,-3.2,-0.5,-0.8,-2.6,7.9,1.4000000000000001,-21.900000000000002,-15.000000000000002,7.0
1698419242576.0,16,-3.5,-0.2,-1.3,-3.4000000000000004,9.0,0.7000000000000001,-37.7,-33.800000000000004,17.200000000000003
1698419242593.0,16,-3.3000000000000003,-0.5,-2.0,-3.1,8.700000000000001,0.2,-51.7,-49.8,13.100000000000001
1698419242610.0,16,-2.2,-0.30000000000000004,-2.8000000000000003,-2.0,8.8,-0.5,-45.9,-61.599999999999994,-12.4
1698419242626.0,16,-1.2000000000000002,0.2,-3.1,-1.0,9.3,-0.8,-40.8,-71.9,-27.3
1698419242643.0,16,0.7000000000000001,1.3,-2.5,0.9,10.4,-0.1,-27.2,-64.9,-47.7
1698419242659.0,16,2.1,2.9000000000000004,-2.6,2.1,11.9,-0.2,-3.9,-26.500000000000004,-48.6
1698419242676.0,16,3.0,3.9000000000000004,-2.8000000000000003,3.0,13.0,-0.4,9.4,-15.000000000000002,-45.1
1698419242695.0,16,2.8000000000000003,4.6000000000000005,-3.8000000000000003,2.7,13.8,-1.5,27.8,2.9,-30.4
1698419242710.0,16,1.5,5.7,2.4000000000000004,1.4000000000000001,14.9,4.6000000000000005,36.6,7.300000000000001,15.000000000000002
1698419242726.0,16,2.8000000000000003,9.8,5.0,2.8000000000000003,19.1,7.1000000000000005,75.80000000000001,19.8,20.900000000000002
1698419242743.0,16,1.0,4.4,6.6000000000000005,0.8,13.9,8.4,66.80000000000001,32.6,-40.7
1698419242759.0,16,0.7000000000000001,-1.8,3.6,0.4,7.6000000000000005,5.4,56.2,79.9,-31.900000000000002
1698419242776.0,16,-0.5,-4.0,1.3,-0.9,5.4,2.9000000000000004,72.30000000000001,60.8,-37.6
1698419242793.0,16,-2.5,-3.2,1.5,-3.0,6.2,2.9000000000000004,77.3,0.4,-22.900000000000002
1698419242810.0,16,-3.6,3.0,7.0,-4.1000000000000005,12.5,8.200000000000001,67.0,-26.8,1.2000000000000002
1698419242827.0,16,-3.7,9.5,10.200000000000001,-4.2,19.1,11.3,48.7,-17.5,-0.5
1698419242843.0,16,1.6,12.100000000000001,3.0,0.9,21.700000000000003,4.2,-25.700000000000003,-17.8,-55.1
1698419242860.0,16,-0.8,-0.2,2.2,-1.8,9.4,3.6,-29.300000000000004,8.799999999999999,-84.80000000000001
1698419242876.0,16,-0.8,-2.3000000000000003,0.7000000000000001,-1.9000000000000001,7.300000000000001,2.1,-18.5,16.700000000000003,-56.2
1698419242893.0,16,1.9000000000000001,-4.5,0.0,0.8,5.1000000000000005,1.5,-15.8,5.7,16.3
1698419242909.0,16,2.8000000000000003,-4.1000000000000005,-0.5,1.9000000000000001,5.4,1.0,-18.1,-4.3999999999999995,44.4
1698419242926.0,16,1.5,-2.9000000000000004,-0.2,0.7000000000000001,6.5,1.4000000000000001,-31.3,-11.4,37.1
1698419242943.0,16,1.0,-2.8000000000000003,-0.1,0.30000000000000004,6.6000000000000005,1.5,-38.800000000000004,-9.200000000000001,27.8
1698419242959.0,16,0.6000000000000001,-3.8000000000000003,-0.6000000000000001,-0.1,5.6000000000000005,1.2000000000000002,-36.7,-2.1999999999999997,7.9
1698419242976.0,16,1.1,-5.0,-0.9,0.2,4.9,1.1,-23.3,-0.30000000000000004,2.1
1698419242993.0,16,1.1,-5.4,-1.0,0.5,4.0,0.9,-17.0,-1.5000000000000002,3.4
1698419243009.0,16,1.4000000000000001,-5.300000000000001,-0.9,0.8,3.9000000000000004,1.0,-9.4,-0.6000000000000001,10.1
1698419243026.0,16,1.1,-4.4,-0.7000000000000001,0.6000000000000001,4.9,1.2000000000000002,-18.5,-2.7,14.700000000000001
1698419243043.0,16,0.8,-3.6,-0.8,0.30000000000000004,5.6000000000000005,1.2000000000000002,-21.6,-7.400000000000001,13.9
1698419243059.0,16,0.2,-2.1,-1.2000000000000002,-0.30000000000000004,7.1000000000000005,0.8,-17.7,-12.3,10.8
1698419243076.0,16,0.1,-1.0,-1.8,-0.30000000000000004,8.200000000000001,0.30000000000000004,-15.000000000000002,-1.2000000000000002,1.4
1698419243093.0,16,0.4,-1.0,-2.0,-0.1,8.1,0.1,-16.6,6.8,-8.0
1698419243110.0,16,1.3,-1.5,-2.2,0.8,7.6000000000000005,-0.1,-21.6,16.8,-18.8
1698419243126.0,16,2.9000000000000004,-0.7000000000000001,-2.3000000000000003,2.4000000000000004,8.4,-0.1,-26.500000000000004,29.500000000000004,-7.400000000000001
1698419243143.0,16,3.6,0.2,-1.8,3.1,9.3,0.4,-24.1,36.4,1.2000000000000002
1698419243159.0,16,2.8000000000000003,2.1,-1.3,2.3000000000000003,11.100000000000001,0.9,-4.2,43.7,16.1
1698419243178.0,16,0.1,4.1000000000000005,-1.1,-0.30000000000000004,13.200000000000001,1.1,18.1,26.0,25.400000000000002
1698419243192.0,16,-1.2000000000000002,4.6000000000000005,-1.6,-1.6,13.700000000000001,0.5,27.1,6.6000000000000005,24.5
1698419243209.0,16,-3.8000000000000003,4.6000000000000005,-2.8000000000000003,-4.1000000000000005,13.8,-0.8,22.6,-9.200000000000001,19.8
1698419243226.0,16,-2.3000000000000003,4.2,-3.7,-2.7,13.4,-1.7000000000000002,-9.3,1.9,-11.000000000000002
1698419243244.0,16,-1.8,4.0,0.6000000000000001,-1.6,15.200000000000001,4.0,-21.8,5.1,-35.1
1698419243259.0,16,-0.6000000000000001,8.6,1.3,-1.1,17.900000000000002,3.3000000000000003,27.3,-40.6,-24.7
1698419243276.0,16,2.1,2.0,4.9,1.6,11.4,6.800000000000001,70.5,-57.00000000000001,17.5
1698419243293.0,16,1.5,0.30000000000000004,3.9000000000000004,1.1,9.8,5.6000000000000005,86.0,-35.0,36.3
1698419243309.0,16,1.0,-1.8,3.0,0.8,7.6000000000000005,4.5,67.80000000000001,-36.7,40.9
1698419243327.0,16,1.4000000000000001,-1.3,1.2000000000000002,1.2000000000000002,8.200000000000001,2.7,14.0,1.3,14.200000000000001
1698419243343.0,16,2.1,-0.30000000000000004,2.6,2.0,9.200000000000001,4.1000000000000005,12.5,9.9,5.500000000000001
1698419243360.0,16,1.4000000000000001,5.1000000000000005,6.2,1.3,14.600000000000001,7.7,-0.30000000000000004,17.9,8.200000000000001
1698419243376.0,16,0.6000000000000001,6.0,3.1,0.6000000000000001,15.5,4.6000000000000005,-14.4,14.600000000000001,50.4
1698419243393.0,16,0.6000000000000001,2.4000000000000004,2.6,0.8,11.9,4.1000000000000005,-7.500000000000001,-1.0999999999999999,64.2
1698419243410.0,16,1.0,0.2,1.5,1.3,9.700000000000001,3.1,-0.1,-1.5000000000000002,46.0
1698419243426.0,16,0.0,-2.2,0.1,0.4,7.4,1.7000000000000002,-20.1,9.4,3.8
1698419243443.0,16,-1.0,-3.3000000000000003,-0.1,-1.2000000000000002,5.4,1.3,-36.7,21.3,-13.5
1698419243460.0,16,-1.4000000000000001,-4.4,-0.8,-1.1,5.0,1.0,-41.0,28.400000000000002,-13.0
1698419243476.0,16,-1.3,-4.800000000000001,-0.8,-1.1,4.6000000000000005,1.1,-39.8,29.200000000000003,-6.5
1698419243493.0,16,-1.1,-4.800000000000001,-1.1,-0.9,4.5,0.9,-24.000000000000004,17.599999999999998,2.3000000000000003
1698419243509.0,16,-1.1,-4.800000000000001,-1.2000000000000002,-0.9,4.5,0.8,-15.399999999999999,10.8,5.1
1698419243526.0,16,-1.4000000000000001,-4.7,-1.2000000000000002,-1.1,4.5,0.9,-2.8,4.1000000000000005,4.9
1698419243543.0,16,-1.5,-4.5,-1.1,-1.6,5.1000000000000005,1.1,0.30000000000000004,4.6000000000000005,3.2
1698419243560.0,16,-2.1,-3.6,-0.7000000000000001,-1.9000000000000001,5.6000000000000005,1.4000000000000001,0.30000000000000004,7.8,0.5
1698419243576.0,16,-2.2,-2.0,-0.5,-2.1,7.1000000000000005,1.5,-6.7,6.000000000000001,1.5000000000000002
1698419243593.0,16,-2.5,-1.0,-0.6000000000000001,-2.3000000000000003,8.200000000000001,1.4000000000000001,-13.700000000000001,-1.7,4.0
1698419243610.0,16,-2.8000000000000003,0.4,-1.4000000000000001,-2.6,9.600000000000001,0.7000000000000001,-35.1,-25.0,12.8
1698419243626.0,16,-2.7,-0.4,-2.4000000000000004,-2.5,8.700000000000001,-0.1,-54.3,-44.00000000000001,13.700000000000001
1698419243643.0,16,-2.3000000000000003,-0.8,-2.6,-2.1,8.3,-0.2,-60.599999999999994,-52.900000000000006,4.6000000000000005
1698419243659.0,16,-1.9000000000000001,-0.7000000000000001,-3.0,-1.6,8.3,-0.5,-59.20000000000001,-65.89999999999999,-24.8
1698419243676.0,16,-0.30000000000000004,1.0,-3.3000000000000003,-0.2,10.0,-0.7000000000000001,-48.7,-70.2,-44.3
1698419243693.0,16,0.2,1.9000000000000001,-2.6,0.4,10.9,0.1,-39.300000000000004,-63.2,-48.7
1698419243709.0,16,1.6,4.0,-2.3000000000000003,1.6,13.0,0.4,-1.6,-31.6,-40.2
1698419243726.0,16,2.8000000000000003,5.7,-3.6,2.8000000000000003,14.700000000000001,-1.0,30.4,-8.600000000000001,-26.700000000000003
1698419243742.0,16,1.9000000000000001,4.3,-1.8,1.8,13.5,0.7000000000000001,36.0,-2.1999999999999997,-1.8
1698419243759.0,16,2.2,6.0,5.4,2.2,15.200000000000001,7.800000000000001,57.00000000000001,4.3999999999999995,11.4
1698419243776.0,16,3.6,7.7,1.5,3.6,17.0,3.5,123.6,26.500000000000004,-26.400000000000002
1698419243793.0,16,-0.1,2.3000000000000003,9.3,-0.2,11.600000000000001,11.4,51.0,12.5,-41.4
1698419243810.0,16,0.2,-2.5,2.4000000000000004,0.0,6.9,4.3,57.3,59.400000000000006,-18.3
1698419243826.0,16,-2.0,-3.5,1.2000000000000002,-2.3000000000000003,5.9,2.9000000000000004,76.4,-2.0,-21.700000000000003
1698419243843.0,16,-2.9000000000000004,-2.2,2.2,-3.2,7.2,3.8000000000000003,77.4,-10.2,-17.0
1698419243859.0,16,-3.0,4.800000000000001,9.4,-3.4000000000000004,14.3,10.700000000000001,64.7,-17.400000000000002,-3.6
1698419243878.0,16,2.0,12.3,2.4000000000000004,1.6,21.900000000000002,3.8000000000000003,-16.0,-0.1,-34.2
1698419243893.0,16,2.3000000000000003,8.6,3.2,1.7000000000000002,18.2,4.7,-44.3,-27.1,-71.7
1698419243913.0,16,-1.2000000000000002,-2.0,1.3,-2.1,7.5,2.9000000000000004,-23.8,28.700000000000003,-71.8
1698419243926.0,16,-0.1,-4.1000000000000005,-0.6000000000000001,-1.0,5.4,1.0,-6.8,16.6,-2.1999999999999997
1698419243942.0,16,2.5,-4.6000000000000005,-0.7000000000000001,1.7000000000000002,4.9,1.0,-9.3,13.5,44.7
1698419243959.0,16,2.7,-4.3,-0.30000000000000004,2.0,5.2,1.4000000000000001,-13.100000000000001,11.4,51.0
1698419243976.0,16,1.6,-3.6,0.1,1.1,5.800000000000001,1.9000000000000001,-32.1,8.9,41.0
1698419243993.0,16,0.9,-3.6,-0.30000000000000004,0.4,5.800000000000001,1.5,-33.400000000000006,6.6000000000000005,29.1
1698419244010.0,16,0.30000000000000004,-4.3,-0.9,-0.1,5.0,1.0,-27.5,9.0,7.500000000000001
1698419244026.0,16,0.6000000000000001,-5.2,-0.8,0.2,4.1000000000000005,1.1,-17.400000000000002,10.0,1.4
1698419244042.0,16,1.2000000000000002,-5.5,-0.4,0.8,3.7,1.6,-9.4,12.700000000000001,5.300000000000001
1698419244059.0,16,1.3,-5.2,-0.2,0.9,4.0,1.8,-11.1,13.6,9.1
1698419244076.0,16,1.1,-3.6,-0.7000000000000001,0.7000000000000001,5.6000000000000005,1.3,-14.900000000000002,11.000000000000002,11.000000000000002
1698419244093.0,16,0.8,-2.4000000000000004,-0.9,0.5,6.800000000000001,1.2000000000000002,-15.5,8.5,8.200000000000001
1698419244110.0,16,0.7000000000000001,-0.5,-1.2000000000000002,0.30000000000000004,8.700000000000001,0.9,-12.4,14.700000000000001,-2.7
1698419244126.0,16,0.9,-0.30000000000000004,-2.2,0.5,8.8,-0.1,-13.3,37.4,-23.400000000000002
1698419244143.0,16,1.2000000000000002,-1.6,-2.9000000000000004,0.6000000000000001,7.5,-0.7000000000000001,-21.900000000000002,49.7,-25.2
1698419244159.0,16,1.5,-1.9000000000000001,-2.9000000000000004,0.9,7.2,-0.8,-26.0,53.2,-11.000000000000002
1698419244177.0,16,2.4000000000000004,-0.30000000000000004,-2.6,1.8,8.8,-0.30000000000000004,-24.000000000000004,53.9,31.7
1698419244195.0,16,2.3000000000000003,1.6,-2.4000000000000004,1.8,10.700000000000001,-0.2,-16.2,48.1,48.1
1698419244209.0,16,-1.0,7.0,-1.4000000000000001,-0.1,14.8,0.9,12.8,24.1,53.50000000000001
1698419244226.0,16,-2.0,7.300000000000001,-2.0,-2.2,16.5,0.1,50.0,-7.500000000000001,33.800000000000004
1698419244243.0,16,-3.5,5.300000000000001,-3.5,-3.7,14.600000000000001,-1.6,45.0,-6.9,-4.1000000000000005
1698419244259.0,16,-3.3000000000000003,4.2,-2.3000000000000003,-3.6,13.5,-0.5,22.1,-5.500000000000001,-31.2
1698419244276.0,16,-3.4000000000000004,7.1000000000000005,2.7,-3.8000000000000003,16.5,4.5,16.6,-14.200000000000001,-42.7
1698419244292.0,16,0.8,2.9000000000000004,3.3000000000000003,0.4,12.4,5.0,33.5,-74.10000000000001,3.5
1698419244309.0,16,1.6,0.4,3.3000000000000003,1.2000000000000002,9.8,5.0,42.1,-55.900000000000006,9.5
1698419244326.0,16,2.0,-1.6,2.5,1.7000000000000002,7.9,4.0,67.5,-46.5,24.7
1698419244342.0,16,2.5,-1.3,1.9000000000000001,2.3000000000000003,8.1,3.2,42.7,-19.6,6.5
1698419244359.0,16,2.4000000000000004,-0.4,2.8000000000000003,2.3000000000000003,9.1,4.1000000000000005,26.200000000000003,-5.7,-3.5
1698419244376.0,16,2.1,4.7,5.5,1.9000000000000001,14.200000000000001,6.800000000000001,7.9,0.9,1.0
1698419244393.0,16,1.7000000000000002,6.0,5.0,0.6000000000000001,16.2,4.9,-23.0,13.9,33.300000000000004
1698419244409.0,16,0.7000000000000001,4.5,2.6,0.7000000000000001,14.100000000000001,4.0,-20.5,4.6000000000000005,52.2
1698419244427.0,16,0.6000000000000001,0.30000000000000004,1.8,0.8,9.9,3.3000000000000003,-2.4000000000000004,-2.8,55.2
1698419244443.0,16,-0.2,-1.8,0.30000000000000004,0.1,7.7,1.8,-14.0,3.3000000000000003,15.399999999999999
1698419244459.0,16,-0.7000000000000001,-3.0,-0.1,-0.4,6.6000000000000005,1.4000000000000001,-27.5,9.200000000000001,-0.5
1698419244477.0,16,-1.6,-4.4,-0.30000000000000004,-1.4000000000000001,5.1000000000000005,1.4000000000000001,-42.300000000000004,21.200000000000003,-11.000000000000002
1698419244492.0,16,-1.3,-4.7,-0.6000000000000001,-1.2000000000000002,4.7,1.2000000000000002,-43.2,25.5,-7.300000000000001
1698419244510.0,16,-1.2000000000000002,-4.6000000000000005,-0.7000000000000001,-1.0,4.7,1.2000000000000002,-39.400000000000006,22.4,-4.300000000000001
1698419244526.0,16,-0.9,-4.5,-0.7000000000000001,-0.8,4.800000000000001,1.3,-25.3,12.200000000000001,2.5
1698419244543.0,16,-1.0,-4.5,-0.9,-0.9,4.800000000000001,1.1,-12.200000000000001,5.500000000000001,7.0
1698419244559.0,16,-1.4000000000000001,-4.4,-0.9,-1.3,4.9,1.1,-6.8,5.500000000000001,4.7
1698419244576.0,16,-1.7000000000000002,-4.2,-1.0,-1.5,5.1000000000000005,1.0,-6.5,6.000000000000001,2.9
1698419244592.0,16,-2.2,-3.3000000000000003,-0.9,-2.0,5.800000000000001,1.1,-10.9,2.4000000000000004,0.4
1698419244609.0,16,-2.2,-1.9000000000000001,-1.0,-2.1,7.300000000000001,1.1,-18.900000000000002,-7.8,6.4
1698419244626.0,16,-2.5,-1.1,-1.2000000000000002,-2.3000000000000003,8.0,1.0,-24.9,-22.4,10.5
1698419244643.0,16,-2.7,-0.6000000000000001,-2.2,-2.5,8.5,0.0,-39.2,-42.900000000000006,19.0
1698419244659.0,16,-1.9000000000000001,-0.2,-2.5,-1.7000000000000002,8.9,-0.2,-50.800000000000004,-61.4,2.6
1698419244676.0,16,-1.6,0.30000000000000004,-2.6,-1.3,9.4,-0.2,-49.9,-67.3,-14.900000000000002
1698419244692.0,16,-0.2,2.2,-3.2,0.0,11.200000000000001,-0.6000000000000001,-43.6,-65.5,-44.9
1698419244710.0,16,1.2000000000000002,3.4000000000000004,-2.6,1.2000000000000002,12.4,0.0,-32.7,-37.800000000000004,-57.1
1698419244727.0,16,2.0,3.6,-2.3000000000000003,2.0,12.600000000000001,0.30000000000000004,-20.5,-20.6,-56.300000000000004
1698419244742.0,16,3.5,4.1000000000000005,-3.7,3.3000000000000003,13.200000000000001,-1.1,8.9,-2.5,-46.300000000000004
1698419244759.0,16,2.5,4.3,-4.5,2.3000000000000003,13.4,-1.9000000000000001,18.5,-9.5,-10.5
1698419244776.0,16,1.4000000000000001,5.0,-0.5,1.3,14.100000000000001,2.0,20.4,-12.9,17.1
1698419244792.0,16,2.3000000000000003,10.8,3.7,2.2,20.1,5.9,108.4,31.5,25.0
1698419244809.0,16,-1.1,1.1,10.4,-1.2000000000000002,10.4,12.4,61.599999999999994,20.900000000000002,-29.500000000000004
1698419244826.0,16,-1.3,-1.5,8.4,-1.5,7.800000000000001,10.4,33.7,45.9,-34.800000000000004
1698419244843.0,16,-0.8,-4.2,0.4,-1.2000000000000002,5.1000000000000005,2.3000000000000003,59.60000000000001,20.0,-32.800000000000004
1698419244859.0,16,-3.0,-2.5,3.3000000000000003,-3.5,6.9,4.9,77.1,-30.7,-19.200000000000003
1698419244876.0,16,-3.5,6.0,10.200000000000001,-3.9000000000000004,9.8,7.2,78.5,-42.0,-5.7
1698419244893.0,16,-3.3000000000000003,10.100000000000001,5.9,-3.8000000000000003,19.6,7.4,10.3,17.200000000000003,-4.300000000000001
1698419244909.0,16,1.4000000000000001,9.0,3.0,0.7000000000000001,18.5,4.6000000000000005,-41.7,-20.4,-69.10000000000001
1698419244926.0,16,-0.5,2.2,2.5,-1.2000000000000002,11.700000000000001,4.2,-39.50000000000001,-11.4,-89.8
1698419244943.0,16,-0.5,-2.7,-0.4,-1.4000000000000001,6.800000000000001,1.4000000000000001,-21.900000000000002,7.2,-41.9
1698419244959.0,16,2.9000000000000004,-4.3,-0.8,2.0,5.1000000000000005,1.0,-24.000000000000004,4.7,27.3
1698419244976.0,16,3.6,-4.9,-0.5,2.8000000000000003,4.6000000000000005,1.4000000000000001,-24.7,7.8,41.9
1698419244993.0,16,2.8000000000000003,-5.0,-0.6000000000000001,2.1,4.4,1.3,-17.599999999999998,-0.7,41.1
1698419245009.0,16,1.3,-4.6000000000000005,-0.9,0.7000000000000001,4.7,1.1,-17.0,1.0999999999999999,26.700000000000003
1698419245026.0,16,0.9,-4.6000000000000005,-1.0,0.4,4.800000000000001,1.0,-19.500000000000004,3.0000000000000004,19.1
1698419245043.0,16,0.6000000000000001,-4.800000000000001,-1.3,0.1,4.5,0.8,-19.6,-3.6,10.1
1698419245059.0,16,0.5,-4.7,-1.3,0.1,4.6000000000000005,0.8,-12.8,-3.7000000000000006,7.8
1698419245076.0,16,0.0,-4.3,-1.1,-0.2,4.6000000000000005,0.9,-6.7,3.5,12.200000000000001
1698419245093.0,16,0.0,-3.8000000000000003,-1.1,-0.4,5.4,1.0,-7.8,4.3999999999999995,15.9
1698419245109.0,16,0.2,-2.2,-1.3,-0.1,6.9,0.9,-16.6,1.9,12.700000000000001
1698419245127.0,16,0.5,-1.7000000000000002,-1.4000000000000001,0.1,7.5,0.8,-19.0,3.9,4.6000000000000005
1698419245143.0,16,1.4000000000000001,-1.3,-0.9,1.1,7.800000000000001,1.3,-15.399999999999999,18.6,-19.6
1698419245159.0,16,2.7,-1.0,-1.9000000000000001,2.2,8.0,0.30000000000000004,-14.700000000000001,39.300000000000004,-36.5
1698419245176.0,16,3.2,-0.6000000000000001,-2.2,2.7,8.5,0.1,-20.2,49.9,-34.2
1698419245193.0,16,3.0,0.6000000000000001,-2.0,2.4000000000000004,9.600000000000001,0.30000000000000004,-25.6,59.5,0.4
1698419245209.0,16,1.0,2.3000000000000003,-2.4000000000000004,0.5,11.4,-0.1,-21.8,57.5,55.7
1698419245227.0,16,-1.7000000000000002,4.6000000000000005,-2.7,-2.0,13.700000000000001,-0.30000000000000004,-4.800000000000001,7.6,73.60000000000001
1698419245243.0,16,-3.1,5.2,-3.1,-3.2,14.3,-0.7000000000000001,5.8,-19.6,69.4
1698419245259.0,16,-4.0,6.0,-3.2,-4.1000000000000005,15.100000000000001,-0.9,16.900000000000002,-16.6,40.0
1698419245277.0,16,-3.3000000000000003,6.1000000000000005,-3.7,-3.2,15.4,2.2,11.3,1.6,-37.300000000000004
1698419245292.0,16,-2.7,7.2,2.6,-3.0,16.400000000000002,4.800000000000001,32.9,3.1,-65.10000000000001
1698419245309.0,16,0.9,5.4,3.8000000000000003,0.6000000000000001,14.8,5.7,82.9,-66.7,-13.4
1698419245326.0,16,2.9000000000000004,-0.1,4.4,2.6,9.3,6.300000000000001,91.9,-57.3,11.6
1698419245344.0,16,2.4000000000000004,-2.4000000000000004,4.2,2.3000000000000003,7.0,5.800000000000001,79.2,-56.900000000000006,41.300000000000004
1698419245360.0,16,2.0,-1.5,1.5,2.1,7.9,2.9000000000000004,37.6,-16.900000000000002,33.5
1698419245376.0,16,1.8,0.9,3.6,1.9000000000000001,10.4,5.0,14.600000000000001,13.8,11.9
1698419245393.0,16,1.8,3.3000000000000003,5.6000000000000005,1.9000000000000001,12.8,7.1000000000000005,12.200000000000001,18.900000000000002,7.2
1698419245409.0,16,1.5,7.9,5.2,1.7000000000000002,17.400000000000002,6.7,-17.8,30.4,29.700000000000003
1698419245426.0,16,1.0,5.6000000000000005,3.0,1.3,15.100000000000001,4.5,-20.4,27.3,50.5
1698419245443.0,16,0.30000000000000004,1.2000000000000002,1.9000000000000001,0.8,10.8,3.4000000000000004,-5.2,-0.4,71.4
1698419245460.0,16,-0.6000000000000001,-1.2000000000000002,0.30000000000000004,0.1,8.3,1.9000000000000001,-4.3999999999999995,5.2,35.0
1698419245476.0,16,-2.4000000000000004,-3.7,-0.5,-1.7000000000000002,5.800000000000001,1.2000000000000002,-22.1,14.0,-2.1
1698419245492.0,16,-2.7,-4.2,-0.7000000000000001,-2.1,5.300000000000001,1.0,-30.799999999999997,20.5,-9.0
1698419245509.0,16,-2.1,-4.4,-1.3,-1.5,5.0,0.6000000000000001,-42.800000000000004,28.200000000000003,-12.3
1698419245526.0,16,-1.6,-4.1000000000000005,-1.3,-1.1,5.2,0.7000000000000001,-38.5,17.200000000000003,-7.400000000000001
1698419245543.0,16,-1.3,-4.1000000000000005,-1.4000000000000001,-0.9,5.2,0.6000000000000001,-31.4,9.8,-3.0000000000000004
1698419245559.0,16,-1.3,-4.4,-1.5,-0.8,4.800000000000001,0.6000000000000001,-16.8,1.2000000000000002,3.2
1698419245576.0,16,-1.6,-4.4,-1.4000000000000001,-1.2000000000000002,4.800000000000001,0.7000000000000001,-6.5,2.8,0.8
1698419245593.0,16,-1.8,-4.1000000000000005,-1.2000000000000002,-1.3,5.1000000000000005,0.9,-3.0000000000000004,3.5,-2.4000000000000004
1698419245609.0,16,-2.0,-2.8000000000000003,-0.7000000000000001,-1.6,6.4,1.4000000000000001,-0.2,3.6,-5.7
1698419245626.0,16,-2.1,-1.1,-0.7000000000000001,-1.7000000000000002,7.2,1.5,-12.5,-11.700000000000001,-0.8
1698419245642.0,16,-2.2,-0.5,-0.9,-1.7000000000000002,8.700000000000001,1.3,-24.9,-30.100000000000005,4.800000000000001
1698419245659.0,16,-3.0,-0.7000000000000001,-1.7000000000000002,-2.6,8.4,0.5,-51.400000000000006,-50.0,12.8
1698419245676.0,16,-3.1,-1.2000000000000002,-2.9000000000000004,-2.6,7.9,-0.5,-65.8,-57.400000000000006,-5.1
1698419245693.0,16,-1.9000000000000001,0.2,-3.4000000000000004,-1.5,9.200000000000001,-0.8,-60.20000000000001,-67.3,-37.5
1698419245709.0,16,-0.5,1.3,-3.5,-0.1,10.3,-0.8,-55.4,-66.0,-50.800000000000004
1698419245726.0,16,1.1,2.3000000000000003,-3.0,1.4000000000000001,11.200000000000001,-0.2,-49.3,-54.6,-58.2
1698419245743.0,16,3.5,3.9000000000000004,-2.0,3.6,12.9,0.8,-19.700000000000003,-19.500000000000004,-56.900000000000006
1698419245760.0,16,4.2,4.800000000000001,-3.6,4.3,13.8,-0.9,17.1,-4.2,-35.5
1698419245776.0,16,2.1,4.2,-2.3000000000000003,2.2,13.3,0.30000000000000004,25.0,2.4000000000000004,-0.7
1698419245792.0,16,1.5,5.800000000000001,4.2,1.6,14.9,6.800000000000001,43.400000000000006,6.2,16.3
1698419245810.0,16,3.2,8.6,0.8,3.3000000000000003,17.900000000000002,3.1,124.90000000000002,79.9,-12.4
1698419245826.0,16,-1.4000000000000001,-0.9,11.3,-1.5,8.5,13.3,68.5,19.8,-33.2
1698419245842.0,16,-2.0,-2.5,5.4,-2.2,6.9,7.4,44.2,56.1,-24.000000000000004
1698419245859.0,16,-2.6,-3.2,0.9,-2.8000000000000003,6.2,2.7,48.6,3.3000000000000003,-12.200000000000001
1698419245876.0,16,-4.6000000000000005,0.1,4.6000000000000005,-4.9,9.5,6.300000000000001,63.50000000000001,-17.5,-6.000000000000001
1698419245893.0,16,-3.5,5.0,7.1000000000000005,-3.8000000000000003,14.5,8.700000000000001,86.60000000000001,-10.1,-3.4
1698419245910.0,16,2.4000000000000004,12.600000000000001,5.800000000000001,2.0,22.200000000000003,7.2,-4.800000000000001,14.700000000000001,-45.800000000000004
1698419245926.0,16,0.2,2.5,2.5,-0.4,12.100000000000001,4.2,-57.2,-3.3000000000000003,-101.50000000000001
1698419245942.0,16,-1.0,-2.9000000000000004,0.1,-1.9000000000000001,6.6000000000000005,1.9000000000000001,-38.7,40.3,-42.300000000000004
1698419245959.0,16,0.30000000000000004,-3.9000000000000004,-0.8,-0.7000000000000001,5.6000000000000005,1.1,-33.2,28.500000000000004,-0.30000000000000004
1698419245976.0,16,2.7,-4.800000000000001,-1.1,1.9000000000000001,4.6000000000000005,0.8,-29.600000000000005,14.700000000000001,47.7
1698419245992.0,16,2.3000000000000003,-4.4,-0.6000000000000001,1.7000000000000002,5.0,1.4000000000000001,-20.4,6.3,48.2
1698419246010.0,16,1.6,-4.1000000000000005,-0.5,1.1,5.300000000000001,1.6,-13.100000000000001,9.200000000000001,39.50000000000001
1698419246026.0,16,0.8,-3.9000000000000004,-0.5,0.30000000000000004,5.5,1.5,0.0,20.8,16.700000000000003
1698419246043.0,16,0.7000000000000001,-4.2,-0.6000000000000001,0.30000000000000004,5.1000000000000005,1.4000000000000001,1.7,24.1,7.9
1698419246061.0,16,1.1,-5.2,-0.4,0.7000000000000001,4.1000000000000005,1.6,-17.200000000000003,25.700000000000003,3.6
1698419246076.0,16,1.3,-5.5,-0.9,0.9,3.7,1.2000000000000002,-24.9,21.0,4.6000000000000005
1698419246092.0,16,1.2000000000000002,-5.2,-1.1,0.8,4.0,1.1,-23.5,25.2,6.7
1698419246109.0,16,0.8,-4.0,-1.5,0.4,5.1000000000000005,0.7000000000000001,-19.0,24.9,12.000000000000002
1698419246126.0,16,0.2,-2.0,-1.5,-0.2,7.1000000000000005,0.7000000000000001,-14.700000000000001,15.000000000000002,9.0
1698419246143.0,16,0.1,-1.1,-1.6,-0.30000000000000004,8.0,0.6000000000000001,-13.5,16.400000000000002,4.2
1698419246159.0,16,0.2,-0.5,-2.6,-0.2,8.6,-0.30000000000000004,-18.5,32.4,-13.8
1698419246176.0,16,1.2000000000000002,-1.1,-2.9000000000000004,0.7000000000000001,8.0,-0.6000000000000001,-30.200000000000003,41.9,-18.5
1698419246193.0,16,2.6,-0.1,-2.5,2.0,8.9,-0.1,-32.5,49.9,5.4
1698419246209.0,16,2.8000000000000003,1.0,-2.4000000000000004,2.3000000000000003,10.0,0.0,-26.6,47.300000000000004,22.4
1698419246226.0,16,1.0,3.5,-1.9000000000000001,0.6000000000000001,12.5,0.6000000000000001,-4.0,37.900000000000006,48.800000000000004
1698419246243.0,16,-1.8,6.300000000000001,-1.6,-2.1,15.4,0.8,32.800000000000004,7.400000000000001,45.800000000000004
1698419246259.0,16,-2.8000000000000003,6.5,-2.0,-3.0,15.600000000000001,0.30000000000000004,47.400000000000006,-8.5,35.0
1698419246276.0,16,-3.9000000000000004,4.9,-3.4000000000000004,-4.1000000000000005,14.100000000000001,-1.3,44.3,-4.7,-2.6
1698419246293.0,16,-2.6,4.5,1.8,-3.7,13.200000000000001,-0.4,26.8,-5.300000000000001,-29.200000000000003
1698419246309.0,16,-2.4000000000000004,7.0,1.8,-2.8000000000000003,16.3,3.8000000000000003,26.700000000000003,-22.4,-43.6
1698419246328.0,16,1.4000000000000001,3.3000000000000003,4.6000000000000005,1.0,12.600000000000001,6.5,32.1,-79.6,5.300000000000001
1698419246343.0,16,2.0,-0.4,3.2,1.7000000000000002,9.1,5.0,57.400000000000006,-44.7,23.0
1698419246359.0,16,2.0,-1.3,1.9000000000000001,1.8,8.1,3.6,66.60000000000001,-39.2,28.3
1698419246377.0,16,2.2,-1.3,1.5,2.0,8.200000000000001,3.0,48.9,-17.7,8.700000000000001
1698419246392.0,16,2.2,-0.1,3.5,2.0,9.4,5.0,28.0,-12.6,-2.4000000000000004
1698419246409.0,16,1.9000000000000001,5.5,6.2,1.7000000000000002,15.0,7.7,13.8,-7.8,11.700000000000001
1698419246427.0,16,0.30000000000000004,7.4,2.7,0.4,17.0,4.3,-34.0,11.8,56.5
1698419246443.0,16,0.5,0.30000000000000004,2.8000000000000003,0.8,9.8,4.5,-15.100000000000001,-8.600000000000001,67.0
1698419246459.0,16,0.9,-0.6000000000000001,1.8,1.3,9.0,3.5,-1.8,-5.7,47.0
1698419246476.0,16,0.30000000000000004,-1.9000000000000001,0.2,0.7000000000000001,7.6000000000000005,1.9000000000000001,-13.3,0.9,-0.2
1698419246493.0,16,-1.1,-3.3000000000000003,-0.2,-0.8,6.2,1.6,-41.6,9.700000000000001,-16.8
1698419246509.0,16,-1.5,-3.7,-0.30000000000000004,-1.2000000000000002,5.7,1.6,-47.800000000000004,12.5,-14.900000000000002
1698419246526.0,16,-1.5,-4.3,-0.7000000000000001,-1.2000000000000002,5.1000000000000005,1.4000000000000001,-48.00000000000001,14.3,-7.2
1698419246543.0,16,-1.5,-4.6000000000000005,-0.9,-1.3,4.7,1.3,-36.0,10.8,-0.7
1698419246559.0,16,-1.3,-4.9,-1.2000000000000002,-1.1,4.4,1.1,-21.1,-0.1,0.8
1698419246577.0,16,-1.3,-4.9,-1.3,-1.1,4.3,1.0,-15.5,-2.9,1.2000000000000002
1698419246593.0,16,-1.4000000000000001,-4.7,-1.2000000000000002,-1.2000000000000002,4.3,1.0,-12.000000000000002,-3.6,0.7
1698419246610.0,16,-1.8,-3.8000000000000003,-0.7000000000000001,-1.6,5.4,1.6,-10.4,-7.400000000000001,-2.7
1698419246626.0,16,-2.0,-3.1,-0.4,-1.9000000000000001,6.0,1.9000000000000001,-11.700000000000001,-7.2,-1.0999999999999999
1698419246642.0,16,-2.2,-1.2000000000000002,-0.7000000000000001,-2.1,7.9,1.7000000000000002,-19.9,-21.900000000000002,5.4
1698419246661.0,16,-2.7,-0.4,-1.4000000000000001,-2.5,8.6,1.1,-36.1,-44.6,11.4
1698419246676.0,16,-2.5,-0.4,-2.5,-2.2,8.6,0.1,-46.5,-54.5,10.700000000000001
1698419246693.0,16,-1.4000000000000001,-0.30000000000000004,-2.9000000000000004,-1.1,8.700000000000001,-0.2,-68.1,-67.7,-15.7
1698419246709.0,16,-0.5,0.5,-3.8000000000000003,-0.30000000000000004,9.4,-0.9,-68.1,-66.4,-51.7
1698419246726.0,16,0.0,1.3,-3.9000000000000004,0.1,10.200000000000001,-0.9,-66.1,-61.4,-60.900000000000006
1698419246742.0,16,1.5,2.7,-2.5,1.5,11.600000000000001,0.6000000000000001,-44.9,-28.500000000000004,-61.900000000000006
1698419246759.0,16,2.9000000000000004,4.800000000000001,-2.9000000000000004,2.8000000000000003,13.700000000000001,0.2,5.300000000000001,-8.9,-49.2
1698419246777.0,16,3.2,5.5,-3.6,3.1,14.4,-0.6000000000000001,27.5,-3.9,-39.2
1698419246793.0,16,2.1,5.1000000000000005,-3.2,1.9000000000000001,14.100000000000001,-0.30000000000000004,50.5,-10.5,-1.6
1698419246809.0,16,2.3000000000000003,8.700000000000001,5.6000000000000005,2.3000000000000003,17.8,8.3,115.39999999999999,16.3,31.3
1698419246826.0,16,3.3000000000000003,9.700000000000001,2.1,3.2,18.900000000000002,4.5,155.9,60.00000000000001,7.9
1698419246843.0,16,-0.9,-0.7000000000000001,12.5,-1.1,8.700000000000001,14.600000000000001,60.300000000000004,7.400000000000001,-37.0
1698419246859.0,16,-0.4,-3.6,0.0,-1.0,7.1000000000000005,7.6000000000000005,34.2,61.50000000000001,-28.500000000000004
1698419246876.0,16,-2.0,-4.2,-0.1,-2.4000000000000004,5.2,1.9000000000000001,45.4,2.4000000000000004,-22.5
1698419246893.0,16,-4.0,-1.3,2.8000000000000003,-4.5,8.1,4.6000000000000005,48.7,-22.7,-8.799999999999999
1698419246909.0,16,-3.8000000000000003,2.6,5.1000000000000005,-4.2,11.9,6.800000000000001,64.8,-15.000000000000002,0.6000000000000001
1698419246926.0,16,0.2,12.100000000000001,7.0,-0.30000000000000004,21.6,8.6,-23.3,6.9,-56.0
1698419246943.0,16,0.9,5.300000000000001,2.7,0.2,14.9,4.4,-56.400000000000006,-10.5,-82.4
1698419246959.0,16,-0.7000000000000001,-1.9000000000000001,0.7000000000000001,-1.7000000000000002,7.6000000000000005,2.6,-52.1,28.700000000000003,-51.2
1698419246976.0,16,1.0,-3.4000000000000004,-0.1,0.0,6.1000000000000005,1.8,-49.3,22.3,-10.5
1698419246995.0,16,2.7,-5.4,-0.8,1.9000000000000001,4.0,1.3,-41.300000000000004,0.9,37.4
1698419247010.0,16,2.6,-5.1000000000000005,-1.0,1.8,4.3,1.2000000000000002,-36.5,-5.6,44.2
1698419247027.0,16,1.1,-3.4000000000000004,-0.7000000000000001,0.4,5.9,1.5,-24.6,-5.2,39.2
1698419247042.0,16,0.1,-2.6,-0.8,-0.5,6.7,1.5,-8.0,6.000000000000001,16.2
1698419247060.0,16,0.0,-3.8000000000000003,-1.2000000000000002,-0.6000000000000001,5.5,1.1,1.7,6.000000000000001,0.9
1698419247076.0,16,0.2,-4.5,-1.2000000000000002,-0.4,4.800000000000001,1.1,2.0,2.4000000000000004,1.2000000000000002
1698419247093.0,16,0.8,-5.300000000000001,-1.1,0.2,3.9000000000000004,1.2000000000000002,-2.8,1.0,9.5
1698419247110.0,16,0.8,-5.2,-1.2000000000000002,0.30000000000000004,3.8000000000000003,1.2000000000000002,-6.1000000000000005,1.9,13.8
1698419247128.0,16,0.7000000000000001,-4.800000000000001,-1.2000000000000002,0.2,4.3,1.1,-13.3,0.30000000000000004,17.599999999999998
1698419247143.0,16,0.5,-3.2,-1.1,0.1,5.9,1.2000000000000002,-20.0,0.0,10.9
1698419247159.0,16,1.1,-1.6,-0.8,0.6000000000000001,7.4,1.6,-21.900000000000002,12.8,-8.0
1698419247176.0,16,2.3000000000000003,-0.6000000000000001,-1.9000000000000001,1.8,8.5,0.6000000000000001,-24.400000000000002,38.1,-25.0
1698419247193.0,16,3.0,-0.2,-2.4000000000000004,2.4000000000000004,8.8,0.1,-28.0,46.800000000000004,-26.200000000000003
1698419247210.0,16,3.2,0.0,-2.9000000000000004,2.6,9.0,-0.4,-32.7,56.400000000000006,-5.6
1698419247226.0,16,1.6,1.4000000000000001,-3.1,1.0,10.4,-0.5,-29.200000000000003,48.9,39.00000000000001
1698419247242.0,16,0.30000000000000004,2.5,-2.9000000000000004,-0.2,11.5,-0.2,-21.900000000000002,33.400000000000006,54.800000000000004
1698419247259.0,16,-2.2,5.300000000000001,-2.2,-2.6,14.3,0.5,8.5,-6.8,52.900000000000006
1698419247276.0,16,-3.2,6.0,-2.4000000000000004,-3.4000000000000004,15.100000000000001,0.2,24.000000000000004,-15.7,41.6
1698419247294.0,16,-3.5,5.300000000000001,-3.1,-3.8000000000000003,14.4,-0.7000000000000001,33.300000000000004,-0.9,-2.7
1698419247309.0,16,-1.9000000000000001,3.9000000000000004,2.0,-2.3000000000000003,13.100000000000001,4.3,27.7,19.3,-55.800000000000004
1698419247326.0,16,-1.2000000000000002,6.7,0.8,-1.7000000000000002,15.9,3.1,51.5,14.700000000000001,-50.800000000000004
1698419247344.0,16,1.6,4.6000000000000005,5.300000000000001,1.1,13.9,7.4,69.2,-67.80000000000001,14.0
1698419247359.0,16,2.7,0.0,3.5,2.4000000000000004,9.4,5.300000000000001,72.9,-39.50000000000001,40.7
1698419247377.0,16,2.0,-0.7000000000000001,2.7,1.8,8.700000000000001,4.5,68.9,-39.300000000000004,43.400000000000006
1698419247393.0,16,0.9,-0.6000000000000001,1.3,0.8,8.9,3.0,43.2,-15.8,19.500000000000004
1698419247409.0,16,1.0,1.9000000000000001,4.6000000000000005,0.9,11.4,6.2,22.6,9.4,4.6000000000000005
1698419247427.0,16,0.6000000000000001,4.3,6.4,0.6000000000000001,13.8,8.0,13.5,18.2,14.100000000000001
1698419247443.0,16,0.0,6.4,3.9000000000000004,0.1,15.9,5.5,-24.200000000000003,15.000000000000002,56.0
1698419247459.0,16,0.8,0.6000000000000001,2.6,1.1,10.100000000000001,4.4,-16.900000000000002,-11.1,64.7
1698419247476.0,16,1.1,-1.1,0.5,1.5,8.4,2.3000000000000003,-9.8,-1.9,24.7
1698419247493.0,16,0.2,-2.1,-0.1,0.7000000000000001,7.4,1.8,-14.100000000000001,2.0,5.4
1698419247509.0,16,-0.7000000000000001,-2.9000000000000004,-0.30000000000000004,-0.30000000000000004,6.6000000000000005,1.6,-21.400000000000002,9.3,-5.2
1698419247527.0,16,-1.4000000000000001,-3.8000000000000003,-0.7000000000000001,-1.1,5.7,1.2000000000000002,-37.1,21.900000000000002,-9.9
1698419247543.0,16,-1.5,-4.4,-0.9,-1.2000000000000002,5.0,1.2000000000000002,-40.6,18.0,-4.6000000000000005
1698419247559.0,16,-1.6,-4.7,-1.1,-1.3,4.6000000000000005,1.1,-30.4,5.0,2.9
1698419247577.0,16,-1.4000000000000001,-4.800000000000001,-1.3,-1.1,4.6000000000000005,0.9,-18.5,-3.9,3.7000000000000006
1698419247593.0,16,-1.4000000000000001,-4.800000000000001,-1.3,-1.1,4.4,1.0,-13.4,-3.0000000000000004,2.1
1698419247610.0,16,-1.7000000000000002,-4.3,-1.1,-1.4000000000000001,4.800000000000001,1.2000000000000002,-6.3,2.5,-3.7000000000000006
1698419247626.0,16,-1.9000000000000001,-3.8000000000000003,-0.8,-1.6,5.300000000000001,1.5,-3.5,3.1,-5.4
1698419247642.0,16,-2.1,-2.3000000000000003,-0.4,-1.9000000000000001,6.9,1.9000000000000001,-1.4,0.2,-3.5
1698419247660.0,16,-2.1,-0.5,-0.7000000000000001,-1.8,8.6,1.6,-11.1,-16.5,4.0
1698419247676.0,16,-2.2,-0.4,-1.5,-1.9000000000000001,8.700000000000001,0.9,-34.900000000000006,-38.7,9.200000000000001
1698419247693.0,16,-1.9000000000000001,-0.7000000000000001,-2.1,-1.6,8.4,0.30000000000000004,-48.00000000000001,-41.5,6.000000000000001
1698419247710.0,16,-0.9,-0.9,-3.1,-0.6000000000000001,8.1,-0.5,-66.60000000000001,-50.1,-15.399999999999999
1698419247727.0,16,-0.6000000000000001,0.2,-4.0,-0.6000000000000001,8.4,-0.8,-70.7,-50.4,-26.700000000000003
1698419247743.0,16,-0.2,1.2000000000000002,-3.8000000000000003,0.0,10.100000000000001,-0.9,-69.5,-43.50000000000001,-41.5
1698419247760.0,16,0.4,2.9000000000000004,-2.2,0.5,11.8,0.8,-39.9,-25.8,-45.1
1698419247776.0,16,1.5,4.800000000000001,-2.3000000000000003,1.5,13.700000000000001,0.7000000000000001,18.5,-14.4,-30.5
1698419247793.0,16,2.3000000000000003,5.2,-3.1,2.3000000000000003,14.200000000000001,-0.2,42.6,-11.1,-20.7
1698419247810.0,16,1.9000000000000001,3.8000000000000003,-1.9000000000000001,2.0,12.9,0.8,58.60000000000001,-10.0,4.300000000000001
1698419247828.0,16,1.4000000000000001,4.9,4.3,1.4000000000000001,14.0,6.9,75.0,-10.2,16.8
1698419247842.0,16,3.2,8.0,2.0,3.2,17.3,4.3,127.10000000000001,46.900000000000006,-13.5
1698419247859.0,16,-1.4000000000000001,0.0,8.4,-1.5,9.3,10.600000000000001,23.0,34.400000000000006,-34.7
1698419247876.0,16,-1.4000000000000001,-3.3000000000000003,1.6,-1.6,6.0,3.7,49.7,19.0,-26.1
1698419247894.0,16,-3.3000000000000003,-2.2,1.8,-2.9000000000000004,6.1000000000000005,3.2,54.5,-9.8,-25.1
1698419247909.0,16,-3.3000000000000003,0.4,3.3000000000000003,-3.6,9.700000000000001,5.1000000000000005,61.1,-15.299999999999999,-1.3
1698419247926.0,16,-1.0,9.4,5.9,-2.9000000000000004,14.3,7.2,92.8,-9.700000000000001,-17.1
1698419247942.0,16,1.7000000000000002,10.8,5.6000000000000005,1.3,20.3,7.1000000000000005,49.2,9.700000000000001,-42.7
1698419247959.0,16,-0.7000000000000001,2.3000000000000003,2.3000000000000003,-1.4000000000000001,11.9,4.0,-48.50000000000001,-12.8,-75.2
1698419247976.0,16,-1.7000000000000002,-1.1,1.7000000000000002,-2.4000000000000004,8.4,3.5,-47.900000000000006,2.9,-63.900000000000006
1698419247993.0,16,0.30000000000000004,-3.2,0.0,-0.5,6.300000000000001,1.9000000000000001,-38.2,5.300000000000001,-3.8
1698419248009.0,16,2.5,-3.5,-0.9,1.8,5.9,1.1,-30.599999999999998,-6.9,30.7
1698419248026.0,16,2.3000000000000003,-3.1,-0.30000000000000004,1.7000000000000002,6.300000000000001,1.7000000000000002,-18.400000000000002,-3.9,30.299999999999997
1698419248042.0,16,1.3,-3.1,-0.30000000000000004,0.7000000000000001,6.2,1.7000000000000002,-0.4,9.9,14.200000000000001
1698419248059.0,16,0.9,-3.4000000000000004,-0.6000000000000001,0.4,5.9,1.4000000000000001,6.7,12.5,6.6000000000000005
1698419248076.0,16,0.8,-4.6000000000000005,-0.9,0.30000000000000004,4.800000000000001,1.1,9.9,6.9,3.9
1698419248092.0,16,0.9,-5.1000000000000005,-1.1,0.5,4.2,0.9,1.3,0.9,12.100000000000001
1698419248117.0,16,0.6000000000000001,-4.800000000000001,-1.3,0.2,4.4,0.7000000000000001,-12.5,1.3,18.3
1698419248125.0,16,0.4,-4.4,-1.5,0.0,4.800000000000001,0.5,-17.0,-1.6,19.200000000000003
1698419248142.0,16,-0.2,-3.4000000000000004,-1.8,-0.5,5.800000000000001,0.30000000000000004,-22.900000000000002,-4.800000000000001,15.7
1698419248159.0,16,-0.5,-2.8000000000000003,-1.8,-0.8,6.4,0.30000000000000004,-25.3,-4.5,10.1
1698419248175.0,16,-0.30000000000000004,-1.4000000000000001,-1.4000000000000001,-0.6000000000000001,7.7,0.8,-29.500000000000004,3.6,-9.1
1698419248192.0,16,1.6,-0.30000000000000004,-1.1,1.2000000000000002,8.700000000000001,1.2000000000000002,-27.1,28.700000000000003,-30.599999999999998
1698419248210.0,16,2.9000000000000004,0.1,-1.5,2.5,9.200000000000001,0.8,-24.400000000000002,40.7,-36.2
1698419248226.0,16,4.800000000000001,0.4,-2.6,4.3,9.5,-0.30000000000000004,-24.9,56.7,-23.6
1698419248242.0,16,3.0,0.1,-2.6,2.5,9.1,-0.2,-21.200000000000003,53.7,25.6
1698419248259.0,16,1.4000000000000001,0.5,-2.5,0.9,9.5,-0.1,-17.0,49.8,52.0
1698419248276.0,16,-1.3,3.2,-2.1,-1.6,12.3,0.30000000000000004,4.3999999999999995,7.300000000000001,64.2
1698419248293.0,16,-4.4,5.1000000000000005,-2.1,-2.9000000000000004,13.600000000000001,0.4,18.8,-15.8,56.800000000000004
1698419248309.0,16,-4.800000000000001,5.1000000000000005,-2.6,-4.9,14.3,-0.4,36.0,-7.0,25.3
1698419248325.0,16,-2.3000000000000003,4.800000000000001,-1.8,-2.5,14.0,0.30000000000000004,27.0,16.1,-40.0
1698419248342.0,16,-0.1,6.7,0.0,-0.6000000000000001,16.0,2.0,56.900000000000006,13.8,-55.0
1698419248359.0,16,1.0,6.800000000000001,0.7000000000000001,0.6000000000000001,16.1,2.6,59.9,-24.3,-14.4
1698419248375.0,16,4.4,-1.5,3.8000000000000003,4.1000000000000005,7.9,5.5,67.1,-30.4,30.200000000000003
1698419248392.0,16,1.7000000000000002,-1.1,3.3000000000000003,1.5,8.3,4.800000000000001,79.6,-14.200000000000001,46.2
1698419248409.0,16,1.1,-0.6000000000000001,2.0,1.1,8.9,3.3000000000000003,80.4,4.800000000000001,41.300000000000004
1698419248425.0,16,-0.4,2.6,4.800000000000001,-0.4,12.100000000000001,6.0,51.800000000000004,18.0,21.900000000000002
1698419248443.0,16,-0.8,7.5,6.800000000000001,-0.7000000000000001,17.0,8.0,5.2,35.7,34.800000000000004
1698419248459.0,16,-0.5,8.200000000000001,5.0,-0.30000000000000004,17.8,6.300000000000001,-17.0,40.2,53.2
1698419248476.0,16,0.1,1.7000000000000002,2.6,0.5,11.3,3.9000000000000004,-15.299999999999999,19.6,65.3
1698419248492.0,16,1.0,-0.30000000000000004,1.2000000000000002,1.5,9.200000000000001,2.6,-3.0000000000000004,16.3,38.5
1698419248509.0,16,0.7000000000000001,-0.8,0.4,0.5,8.3,1.3,-10.8,22.6,0.2
1698419248526.0,16,-0.8,-1.8,-0.4,-0.30000000000000004,7.800000000000001,1.0,-19.0,27.6,-8.600000000000001
1698419248542.0,16,-1.7000000000000002,-3.0,-0.8,-1.2000000000000002,6.5,0.7000000000000001,-31.900000000000002,33.800000000000004,-7.300000000000001
1698419248559.0,16,-2.2,-4.1000000000000005,-0.9,-1.8,5.4,0.7000000000000001,-35.5,34.6,-2.7
1698419248576.0,16,-2.1,-4.3,-0.9,-1.6,5.1000000000000005,0.8,-34.300000000000004,30.000000000000004,3.9
1698419248592.0,16,-1.6,-4.7,-1.1,-1.2000000000000002,4.7,0.7000000000000001,-26.6,22.900000000000002,3.2
1698419248609.0,16,-1.3,-4.800000000000001,-1.4000000000000001,-0.9,4.5,0.4,-23.400000000000002,20.7,1.7
1698419248626.0,16,-1.4000000000000001,-4.800000000000001,-1.2000000000000002,-1.0,4.5,0.7000000000000001,-20.5,18.3,-1.7
1698419248642.0,16,-1.3,-3.9000000000000004,-0.9,-0.9,5.300000000000001,1.0,-15.9,18.3,-4.800000000000001
1698419248659.0,16,-1.4000000000000001,-3.2,-0.8,-1.3,7.0,1.3,-12.6,10.0,-5.4
1698419248676.0,16,-1.8,-1.2000000000000002,-0.7000000000000001,-1.5,8.0,1.3,-13.6,2.1999999999999997,-2.7
1698419248692.0,16,-2.3000000000000003,0.30000000000000004,-1.3,-2.0,9.5,0.7000000000000001,-27.8,-26.3,5.9
1698419248709.0,16,-2.7,-0.2,-2.2,-2.4000000000000004,8.9,0.0,-53.300000000000004,-32.4,11.2
1698419248725.0,16,-2.4000000000000004,-0.8,-2.5,-2.0,8.3,-0.2,-64.10000000000001,-34.900000000000006,3.7000000000000006
1698419248742.0,16,-1.4000000000000001,-1.1,-3.1,-1.1,8.0,-0.6000000000000001,-68.9,-41.7,-21.0
1698419248759.0,16,-0.2,-0.1,-3.3000000000000003,0.1,9.0,-0.6000000000000001,-60.20000000000001,-43.2,-36.800000000000004
1698419248775.0,16,0.1,0.8,-2.6,0.30000000000000004,9.8,0.1,-48.800000000000004,-35.4,-39.400000000000006
1698419248792.0,16,0.8,3.0,-1.4000000000000001,0.9,12.100000000000001,1.3,-0.9,-17.0,-33.400000000000006
1698419248809.0,16,2.5,5.2,-1.6,2.6,14.200000000000001,1.0,55.300000000000004,-7.500000000000001,-26.400000000000002
1698419248826.0,16,3.0,4.7,-2.2,3.0,13.9,0.30000000000000004,73.2,-2.0,-23.700000000000003
1698419248842.0,16,2.0,4.6000000000000005,2.2,2.0,13.8,4.4,86.9,-8.799999999999999,-0.5
1698419248859.0,16,1.9000000000000001,5.5,1.9000000000000001,1.9000000000000001,14.9,3.8000000000000003,82.2,14.3,-18.400000000000002
1698419248876.0,16,-0.8,1.3,5.0,-0.8,10.700000000000001,6.9,9.600000000000001,30.200000000000003,-31.2
1698419248892.0,16,-1.8,-1.2000000000000002,2.6,-2.0,8.1,4.6000000000000005,-12.700000000000001,37.0,-8.600000000000001
1698419248909.0,16,-2.9000000000000004,-1.8,1.1,-3.2,7.6000000000000005,3.1,23.900000000000002,-32.4,-31.5
1698419248926.0,16,-3.2,-1.2000000000000002,2.0,-3.5,8.200000000000001,3.9000000000000004,38.900000000000006,-41.4,-31.3
1698419248942.0,16,-1.8,5.0,5.9,-2.2,14.4,7.6000000000000005,92.60000000000001,-20.5,-32.5
1698419248959.0,16,2.8000000000000003,8.5,6.2,2.2,18.1,7.6000000000000005,106.10000000000001,-26.6,-82.9
1698419248976.0,16,2.8000000000000003,7.1000000000000005,5.800000000000001,2.1,16.7,7.2,3.5,-8.4,-82.10000000000001
1698419248992.0,16,-1.0,-1.1,1.7000000000000002,-2.0,8.4,3.3000000000000003,-57.00000000000001,-37.5,-59.400000000000006
1698419249009.0,16,-1.3,-2.3000000000000003,1.2000000000000002,-2.3000000000000003,7.1000000000000005,3.0,-55.2,-15.9,-32.800000000000004
1698419249026.0,16,0.6000000000000001,-2.0,-0.1,-0.30000000000000004,7.5,1.8,-41.800000000000004,-27.900000000000002,14.700000000000001
1698419249042.0,16,1.5,-0.6000000000000001,-0.4,0.7000000000000001,8.8,1.6,-27.1,-34.2,28.1
1698419249059.0,16,1.3,-0.8,-0.30000000000000004,0.6000000000000001,8.6,1.7000000000000002,-12.5,-18.3,14.800000000000002
1698419249075.0,16,1.1,-1.8,-0.5,0.4,7.5,1.5,-6.1000000000000005,-17.3,3.4
1698419249092.0,16,1.0,-4.2,-0.8,0.30000000000000004,5.1000000000000005,1.3,-1.7,-26.500000000000004,-7.9
1698419249109.0,16,1.1,-5.1000000000000005,-0.6000000000000001,0.4,4.2,1.4000000000000001,-4.3999999999999995,-31.3,-0.4
1698419249126.0,16,1.0,-5.1000000000000005,-0.8,0.4,4.2,1.2000000000000002,-7.1000000000000005,-32.0,4.800000000000001
1698419249142.0,16,0.7000000000000001,-4.6000000000000005,-1.3,0.1,4.6000000000000005,0.8,-17.400000000000002,-31.8,12.000000000000002
1698419249159.0,16,0.30000000000000004,-4.0,-1.6,-0.2,5.2,0.6000000000000001,-25.1,-34.900000000000006,14.0
1698419249176.0,16,0.2,-3.5,-1.7000000000000002,-0.30000000000000004,5.7,0.5,-27.8,-35.9,12.9
1698419249192.0,16,0.4,-2.5,-1.2000000000000002,-0.1,6.6000000000000005,1.1,-33.1,-36.6,3.2
1698419249209.0,16,1.6,-1.2000000000000002,-0.5,1.2000000000000002,7.800000000000001,1.9000000000000001,-28.900000000000002,-31.4,-14.3
1698419249226.0,16,2.5,-0.5,-0.7000000000000001,2.0,8.6,1.8,-24.7,-21.900000000000002,-21.400000000000002
1698419249242.0,16,3.9000000000000004,0.4,-2.6,3.4000000000000004,9.5,0.0,-26.3,9.8,-22.900000000000002
1698419249259.0,16,3.0,0.4,-3.2,2.5,9.4,-0.6000000000000001,-38.2,12.700000000000001,-2.4000000000000004
1698419249276.0,16,0.6000000000000001,0.8,-3.4000000000000004,1.4000000000000001,9.600000000000001,-0.5,-40.6,10.2,15.100000000000001
1698419249292.0,16,-0.6000000000000001,1.1,-3.5,-0.9,10.100000000000001,-0.8,-35.7,-7.699999999999999,38.900000000000006
1698419249309.0,16,-1.2000000000000002,1.4000000000000001,-2.8000000000000003,-1.4000000000000001,10.3,0.0,-16.0,-28.700000000000003,33.900000000000006
1698419249326.0,16,-0.9,2.5,-1.8,-1.1,11.5,0.9,14.500000000000002,-9.1,12.100000000000001
1698419249342.0,16,-1.0,3.7,0.8,-1.2000000000000002,12.8,3.5,40.9,4.6000000000000005,-2.6
1698419249359.0,16,-0.9,7.6000000000000005,0.30000000000000004,-1.2000000000000002,16.8,2.7,125.10000000000001,-16.8,-12.9
1698419249375.0,16,1.5,1.6,2.3000000000000003,1.2000000000000002,10.9,4.3,146.1,2.3000000000000003,-22.900000000000002
1698419249392.0,16,2.5,0.0,2.9000000000000004,2.2,9.3,4.6000000000000005,137.9,0.4,-23.5
1698419249409.0,16,1.4000000000000001,1.6,7.0,1.1,11.0,8.4,67.1,-17.5,3.5
1698419249426.0,16,0.4,5.2,5.5,-0.5,15.8,5.1000000000000005,23.2,11.4,59.5
1698419249442.0,16,-0.2,5.4,3.2,-0.30000000000000004,14.9,4.6000000000000005,13.200000000000001,43.900000000000006,70.3
1698419249459.0,16,1.5,3.0,3.3000000000000003,1.6,12.5,4.7,14.800000000000002,43.900000000000006,36.1
1698419249475.0,16,2.4000000000000004,1.5,1.2000000000000002,2.5,11.0,2.5,7.8,43.1,10.1
1698419249492.0,16,2.0,1.0,0.8,2.1,10.600000000000001,2.2,-3.6,37.900000000000006,6.8
1698419249509.0,16,0.30000000000000004,0.9,0.1,0.5,10.5,1.5,-24.3,29.800000000000004,12.200000000000001
1698419249525.0,16,-1.5,0.0,-0.6000000000000001,-1.3,9.5,1.0,-41.300000000000004,23.8,18.0
1698419249542.0,16,-1.8,-1.1,-0.6000000000000001,-1.6,8.4,1.0,-45.9,21.200000000000003,17.8
1698419249559.0,16,-1.9000000000000001,-3.3000000000000003,-0.9,-1.7000000000000002,6.1000000000000005,0.9,-48.00000000000001,32.300000000000004,9.0
1698419249576.0,16,-1.8,-4.4,-0.9,-1.6,5.0,1.0,-42.1,39.2,3.1
1698419249592.0,16,-1.5,-4.5,-0.8,-1.4000000000000001,4.800000000000001,1.1,-36.3,40.4,2.7
1698419249609.0,16,-1.2000000000000002,-4.4,-1.1,-1.0,4.9,1.0,-21.6,37.1,1.4
1698419249626.0,16,-1.0,-4.6000000000000005,-1.2000000000000002,-0.9,4.7,0.9,-11.3,28.200000000000003,0.8
1698419249642.0,16,-0.9,-4.6000000000000005,-1.1,-0.8,4.6000000000000005,1.0,-8.600000000000001,24.6,0.9
1698419249659.0,16,-1.0,-4.0,-0.8,-0.9,5.2,1.3,-6.3,19.6,2.3000000000000003
1698419249676.0,16,-1.5,-2.1,-0.4,-1.4000000000000001,7.0,1.7000000000000002,-10.5,14.0,6.8
1698419249692.0,16,-1.9000000000000001,-0.9,-0.4,-1.8,8.3,1.8,-14.600000000000001,8.600000000000001,10.700000000000001
1698419249709.0,16,-2.9000000000000004,0.7000000000000001,-0.7000000000000001,-2.8000000000000003,9.8,1.5,-25.2,-13.200000000000001,21.400000000000002
1698419249726.0,16,-3.1,-0.7000000000000001,-1.4000000000000001,-2.9000000000000004,8.4,1.0,-38.900000000000006,-32.800000000000004,20.7
1698419249742.0,16,-2.8000000000000003,-1.5,-1.9000000000000001,-2.6,7.6000000000000005,0.5,-45.6,-40.4,12.200000000000001
1698419249759.0,16,-1.7000000000000002,-1.7000000000000002,-2.9000000000000004,-1.4000000000000001,7.300000000000001,-0.30000000000000004,-56.5,-45.6,-7.699999999999999
1698419249775.0,16,-0.5,0.1,-3.4000000000000004,-0.30000000000000004,9.0,-0.7000000000000001,-64.30000000000001,-36.2,-24.000000000000004
1698419249792.0,16,0.1,1.4000000000000001,-3.0,0.30000000000000004,10.4,-0.2,-61.199999999999996,-29.900000000000006,-30.799999999999997
1698419249809.0,16,1.5,4.2,-2.6,1.6,13.200000000000001,0.30000000000000004,-29.600000000000005,-28.8,-36.9
1698419249826.0,16,1.7000000000000002,5.5,-2.7,1.8,14.5,0.2,11.1,-37.1,-23.6
1698419249842.0,16,1.4000000000000001,5.2,-2.9000000000000004,1.5,14.200000000000001,-0.1,27.0,-35.5,-12.3
1698419249859.0,16,0.4,4.5,-1.6,0.5,13.600000000000001,1.1,37.900000000000006,-22.4,-2.1999999999999997
1698419249876.0,16,1.4000000000000001,7.6000000000000005,2.5,1.5,16.8,5.0,58.400000000000006,14.600000000000001,-10.9
1698419249892.0,16,2.5,7.0,0.7000000000000001,2.5,16.3,3.1,58.3,61.900000000000006,-30.4
1698419249909.0,16,0.5,-0.2,3.8000000000000003,0.30000000000000004,9.0,6.1000000000000005,23.0,61.599999999999994,-36.2
1698419249926.0,16,-0.8,0.0,4.0,-1.1,9.3,6.300000000000001,9.4,23.700000000000003,-21.900000000000002
1698419249942.0,16,-1.2000000000000002,-0.4,2.5,-1.5,8.9,4.9,5.500000000000001,8.700000000000001,-24.1
1698419249959.0,16,-2.3000000000000003,-0.9,4.4,-2.7,8.4,6.7,24.000000000000004,-29.300000000000004,-16.2
1698419249976.0,16,-2.0,2.0,4.7,-2.4000000000000004,11.4,6.9,63.2,-23.0,-17.9
1698419249992.0,16,-1.3,3.2,3.7,-1.8,12.600000000000001,5.800000000000001,70.9,-12.700000000000001,-31.2
1698419250009.0,16,0.1,1.9000000000000001,3.5,-0.6000000000000001,11.3,5.6000000000000005,8.5,13.0,-55.800000000000004
1698419250026.0,16,-0.6000000000000001,-0.2,2.1,-1.5,9.200000000000001,4.2,-20.8,-8.3,-52.7
1698419250042.0,16,-0.1,-0.8,1.9000000000000001,-1.0,8.6,4.1000000000000005,-21.8,-4.9,-39.699999999999996
1698419250059.0,16,2.2,-0.8,0.2,1.2000000000000002,8.6,2.4000000000000004,-18.5,6.2,-4.1000000000000005
1698419250076.0,16,3.2,-1.3,-0.7000000000000001,2.3000000000000003,8.0,1.5,-9.1,-1.0,20.3
1698419250092.0,16,2.4000000000000004,-1.8,-0.4,2.1,7.800000000000001,1.6,-7.500000000000001,-6.3,23.3
1698419250109.0,16,1.7000000000000002,-2.3000000000000003,-0.5,1.0,7.0,1.7000000000000002,-8.1,-9.0,14.200000000000001
1698419250126.0,16,0.4,-3.6,-0.7000000000000001,-0.30000000000000004,5.7,1.6,-22.2,-7.400000000000001,1.8
1698419250142.0,16,0.0,-4.1000000000000005,-0.7000000000000001,-0.7000000000000001,5.2,1.7000000000000002,-20.4,-11.000000000000002,-4.5
1698419250159.0,16,-0.2,-3.9000000000000004,-0.7000000000000001,-0.9,5.300000000000001,1.7000000000000002,-15.9,-10.1,-3.0000000000000004
1698419250176.0,16,0.0,-3.2,-1.0,-0.7000000000000001,6.0,1.5,-6.7,-11.8,1.7
1698419250192.0,16,0.6000000000000001,-2.5,-1.3,-0.1,6.6000000000000005,1.1,-4.2,-15.5,4.800000000000001
1698419250209.0,16,0.9,-2.3000000000000003,-1.5,0.2,6.800000000000001,0.9,-5.8,-16.900000000000002,6.6000000000000005
1698419250226.0,16,1.1,-2.2,-2.1,0.5,6.9,0.4,-12.4,-19.500000000000004,7.500000000000001
1698419250242.0,16,1.1,-2.2,-2.5,0.5,6.800000000000001,0.0,-23.700000000000003,-19.0,4.1000000000000005
1698419250259.0,16,1.0,-2.4000000000000004,-2.5,0.4,6.7,0.0,-29.000000000000004,-16.900000000000002,0.1
1698419250276.0,16,1.1,-2.4000000000000004,-3.1,0.5,6.6000000000000005,-0.5,-37.4,-9.0,-8.3
1698419250292.0,16,1.9000000000000001,-1.5,-2.7,1.3,7.5,0.1,-43.2,8.3,-13.8
1698419250309.0,16,2.5,-0.5,-2.7,1.9000000000000001,8.4,0.1,-39.6,18.400000000000002,-14.900000000000002
1698419250325.0,16,3.2,2.1,-2.6,2.6,10.9,0.30000000000000004,-23.3,43.2,-10.1
1698419250342.0,16,2.2,3.1,-2.3000000000000003,1.5,12.0,0.5,6.1000000000000005,47.2,8.9
1698419250359.0,16,1.3,2.6,-1.8,0.6000000000000001,11.600000000000001,1.0,23.0,40.0,18.400000000000002
1698419250376.0,16,-0.4,1.5,-2.6,-1.0,10.5,0.0,51.1,11.8,21.900000000000002
1698419250392.0,16,-1.2000000000000002,0.9,-2.8000000000000003,-1.7000000000000002,10.0,-0.30000000000000004,51.2,-4.0,18.1
1698419250409.0,16,-1.3,1.3,-1.4000000000000001,-1.9000000000000001,10.4,1.0,45.3,4.800000000000001,7.8
1698419250426.0,16,-4.1000000000000005,8.6,5.4,-4.6000000000000005,17.8,7.6000000000000005,95.3,3.1,-5.1
1698419250442.0,16,-0.30000000000000004,8.6,2.8000000000000003,-0.9,18.0,4.7,55.900000000000006,-63.300000000000004,30.599999999999998
1698419250459.0,16,1.1,3.8000000000000003,5.300000000000001,0.6000000000000001,13.100000000000001,7.2,-3.0000000000000004,-68.60000000000001,7.9
1698419250476.0,16,0.4,-0.1,2.9000000000000004,0.0,9.3,4.800000000000001,20.7,-47.900000000000006,8.600000000000001
1698419250492.0,16,0.8,-0.8,0.5,0.4,8.6,2.3000000000000003,28.0,-17.8,8.700000000000001
1698419250509.0,16,0.8,-1.2000000000000002,0.6000000000000001,0.4,8.200000000000001,2.4000000000000004,25.700000000000003,-0.9,-6.9
1698419250526.0,16,1.5,0.30000000000000004,3.0,1.1,9.700000000000001,4.7,43.400000000000006,17.9,-26.500000000000004
1698419250542.0,16,1.8,4.7,5.0,1.3,14.200000000000001,6.5,68.80000000000001,24.7,-2.6
1698419250559.0,16,1.8,6.300000000000001,5.4,1.3,15.9,6.9,34.800000000000004,22.000000000000004,17.400000000000002
1698419250576.0,16,1.7000000000000002,1.7000000000000002,1.8,1.4000000000000001,11.3,3.3000000000000003,-4.7,22.4,61.8
1698419250592.0,16,0.8,0.1,1.4000000000000001,0.8,9.600000000000001,3.0,-5.9,20.900000000000002,68.7
1698419250609.0,16,0.0,-0.2,0.9,0.0,9.3,2.4000000000000004,-8.4,32.2,44.3
1698419250626.0,16,-1.8,-0.9,0.30000000000000004,-1.8,8.6,1.9000000000000001,-19.400000000000002,37.800000000000004,20.8
1698419250642.0,16,-2.2,-1.7000000000000002,-0.30000000000000004,-2.2,7.800000000000001,1.4000000000000001,-29.1,28.500000000000004,18.400000000000002
1698419250659.0,16,-1.8,-2.3000000000000003,-0.6000000000000001,-1.6,7.1000000000000005,1.2000000000000002,-31.8,18.0,18.400000000000002
1698419250675.0,16,-1.7000000000000002,-2.5,-0.7000000000000001,-1.5,6.9,1.2000000000000002,-30.9,13.700000000000001,15.100000000000001
1698419250692.0,16,-1.1,-2.8000000000000003,-0.4,-1.0,6.6000000000000005,1.5,-25.8,8.799999999999999,9.0
1698419250708.0,16,-0.6000000000000001,-3.1,-0.6000000000000001,-0.4,6.2,1.4000000000000001,-19.8,14.200000000000001,5.7
1698419250726.0,16,-0.4,-3.3000000000000003,-0.7000000000000001,-0.30000000000000004,6.0,1.3,-18.5,16.900000000000002,4.7
1698419250742.0,16,-0.5,-3.6,-0.9,-0.4,5.6000000000000005,1.2000000000000002,-18.3,18.2,4.800000000000001
1698419250758.0,16,-0.8,-3.7,-1.3,-0.7000000000000001,5.5,0.9,-22.1,14.900000000000002,7.1000000000000005
1698419250775.0,16,-0.9,-3.7,-1.4000000000000001,-0.8,5.5,0.7000000000000001,-25.900000000000002,14.200000000000001,8.700000000000001
1698419250792.0,16,-1.3,-3.1,-1.6,-1.1,6.0,0.6000000000000001,-35.199999999999996,12.100000000000001,13.4
1698419250810.0,16,-1.5,-2.5,-1.4000000000000001,-1.3,6.6000000000000005,0.9,-38.800000000000004,8.9,16.6
1698419250825.0,16,-2.1,-0.8,-1.2000000000000002,-1.9000000000000001,8.3,1.2000000000000002,-38.300000000000004,3.0000000000000004,24.6
1698419250842.0,16,-2.1,-0.4,-1.6,-1.8,8.700000000000001,1.0,-31.2,-11.1,24.200000000000003
1698419250858.0,16,-1.9000000000000001,-1.1,-1.8,-1.5,7.9,0.8,-28.500000000000004,-17.7,6.6000000000000005
1698419250875.0,16,-1.8,-1.1,-2.2,-1.5,8.0,0.5,-26.3,-14.200000000000001,-1.5000000000000002
1698419250892.0,16,-1.2000000000000002,0.1,-3.3000000000000003,-0.9,9.1,-0.6000000000000001,-25.1,-5.500000000000001,-10.9
1698419250909.0,16,-0.30000000000000004,1.2000000000000002,-2.9000000000000004,0.0,10.100000000000001,-0.2,-20.1,-9.1,-21.0
1698419250926.0,16,0.30000000000000004,1.5,-2.4000000000000004,0.5,10.5,0.30000000000000004,-10.8,-13.9,-22.6
1698419250942.0,16,1.6,2.6,-2.0,1.8,11.600000000000001,0.7000000000000001,13.9,-20.8,-15.6
1698419250959.0,16,1.3,3.3000000000000003,-1.9000000000000001,1.5,12.4,0.7000000000000001,24.7,-17.400000000000002,-9.1
1698419250976.0,16,-0.5,3.8000000000000003,-2.4000000000000004,-0.30000000000000004,12.9,0.1,36.1,-5.300000000000001,5.0
1698419250992.0,16,-2.1,3.0,0.30000000000000004,-1.8,12.100000000000001,2.7,30.299999999999997,-8.600000000000001,11.9
1698419251009.0,16,-0.2,6.800000000000001,3.0,0.0,16.0,5.300000000000001,50.0,8.600000000000001,3.4
1698419251027.0,16,1.4000000000000001,6.2,3.8000000000000003,1.9000000000000001,11.600000000000001,6.800000000000001,39.9,50.1,-21.200000000000003
1698419251042.0,16,1.6,0.0,4.9,1.7000000000000002,9.3,7.0,49.6,41.800000000000004,-46.4
1698419251059.0,16,0.8,-1.6,3.5,0.7000000000000001,7.7,5.5,53.00000000000001,41.4,-39.50000000000001
1698419251077.0,16,0.4,-2.1,1.4000000000000001,0.2,7.300000000000001,3.3000000000000003,58.5,29.500000000000004,-29.900000000000006
1698419251092.0,16,-0.8,0.1,2.9000000000000004,-1.0,9.5,4.6000000000000005,59.5,3.7000000000000006,-8.200000000000001
1698419251109.0,16,-1.1,5.5,6.2,-1.3,14.9,7.7,64.9,4.5,-3.1
1698419251126.0,16,-1.8,7.2,6.1000000000000005,-2.1,16.7,7.6000000000000005,43.50000000000001,18.6,-13.3
1698419251142.0,16,-3.0,3.8000000000000003,2.0,-3.4000000000000004,13.3,3.5,2.3000000000000003,-3.1,-37.5
1698419251159.0,16,-3.2,-0.7000000000000001,2.0,-3.8000000000000003,8.9,3.6,-7.0,-9.200000000000001,-46.5
1698419251177.0,16,-1.8,-1.5,1.9000000000000001,-2.5,8.1,3.5,-6.7,-6.3,-38.800000000000004
1698419251192.0,16,1.2000000000000002,-1.7000000000000002,1.1,0.4,7.800000000000001,2.7,-6.9,4.7,-22.2
1698419251209.0,16,3.3000000000000003,-1.9000000000000001,0.4,2.5,7.5,2.0,-11.4,8.600000000000001,-12.4
1698419251226.0,16,3.6,-2.1,0.2,2.8000000000000003,7.4,1.9000000000000001,-13.200000000000001,7.8,-8.600000000000001
1698419251242.0,16,3.3000000000000003,-2.6,-0.1,2.6,6.800000000000001,1.6,-15.8,9.600000000000001,-2.4000000000000004
1698419251259.0,16,2.2,-2.9000000000000004,-0.30000000000000004,1.5,6.5,1.4000000000000001,-16.3,11.2,6.2
1698419251275.0,16,1.5,-2.9000000000000004,-0.4,0.8,6.4,1.4000000000000001,-15.8,11.6,11.4
1698419251292.0,16,0.2,-2.7,-0.4,-0.4,6.7,1.4000000000000001,-12.5,14.700000000000001,18.6
1698419251309.0,16,-0.6000000000000001,-2.2,-0.6000000000000001,-1.3,7.1000000000000005,1.2000000000000002,-6.000000000000001,16.8,18.0
1698419251326.0,16,-0.8,-2.1,-0.7000000000000001,-1.4000000000000001,7.2,1.1,-3.4,17.400000000000002,15.8
1698419251342.0,16,-0.5,-2.3000000000000003,-1.0,-1.1,7.0,0.8,-2.8,18.5,8.9
1698419251359.0,16,0.2,-2.5,-1.3,-0.4,6.800000000000001,0.5,-5.1,17.400000000000002,4.0
1698419251376.0,16,0.9,-2.3000000000000003,-1.4000000000000001,0.2,7.0,0.4,-17.9,21.3,-8.700000000000001
1698419251392.0,16,1.1,-1.9000000000000001,-1.4000000000000001,0.5,7.300000000000001,0.5,-21.200000000000003,26.500000000000004,-9.8
1698419251409.0,16,1.7000000000000002,-0.7000000000000001,-1.5,1.0,8.5,0.4,-22.1,40.7,-7.300000000000001
1698419251425.0,16,1.7000000000000002,0.0,-1.9000000000000001,1.0,9.200000000000001,0.0,-17.5,51.5,-1.5000000000000002
1698419251442.0,16,1.4000000000000001,0.2,-1.9000000000000001,0.7000000000000001,9.4,0.1,-13.4,56.5,3.7000000000000006
1698419251459.0,16,0.5,0.1,-1.9000000000000001,-0.2,9.3,0.1,1.3,55.7,13.4
1698419251475.0,16,-0.9,-0.30000000000000004,-2.4000000000000004,-1.6,8.9,-0.5,10.700000000000001,50.5,17.200000000000003
1698419251492.0,16,-1.5,-0.2,-2.2,-2.2,9.0,-0.4,24.400000000000002,28.700000000000003,19.700000000000003
1698419251509.0,16,-2.1,0.4,-1.3,-2.8000000000000003,9.700000000000001,0.4,36.800000000000004,12.700000000000001,13.9
1698419251526.0,16,-2.0,0.9,-0.8,-2.6,10.100000000000001,0.8,43.400000000000006,10.5,6.8
1698419251542.0,16,-0.4,1.6,-0.30000000000000004,-1.1,10.9,1.2000000000000002,47.5,12.6,-10.600000000000001
1698419251559.0,16,1.7000000000000002,1.5,-0.4,1.0,10.8,1.0,15.100000000000001,16.3,-21.0
1698419251575.0,16,2.2,0.7000000000000001,-0.8,1.5,10.0,0.6000000000000001,-32.2,26.500000000000004,-27.1
1698419251592.0,16,4.6000000000000005,0.2,0.2,3.7,9.5,1.7000000000000002,-36.7,39.00000000000001,-32.800000000000004
1698419251609.0,16,-0.2,5.800000000000001,-2.2,-1.1,15.100000000000001,-0.7000000000000001,-18.6,37.300000000000004,-5.4
1698419251626.0,16,-2.2,6.4,1.9000000000000001,-3.0,15.8,3.5,19.200000000000003,-50.1,47.6
1698419251642.0,16,-3.9000000000000004,3.8000000000000003,3.0,-4.6000000000000005,13.200000000000001,4.4,50.1,-52.0,48.9
1698419251658.0,16,-3.6,-0.4,3.2,-4.2,9.0,4.4,94.60000000000001,-36.0,35.0
1698419251675.0,16,-0.6000000000000001,-1.3,3.6,-1.2000000000000002,8.200000000000001,4.800000000000001,-9.1,-21.5,-21.400000000000002
1698419251692.0,16,0.0,-1.4000000000000001,2.2,-0.7000000000000001,8.0,3.4000000000000004,-16.700000000000003,-9.4,-26.8
1698419251709.0,16,1.9000000000000001,0.7000000000000001,4.0,1.1,10.100000000000001,5.300000000000001,4.2,23.6,-28.1
1698419251725.0,16,3.1,3.5,4.0,2.3000000000000003,14.600000000000001,5.300000000000001,33.800000000000004,6.7,-20.2
1698419251742.0,16,2.4000000000000004,3.8000000000000003,4.1000000000000005,1.7000000000000002,13.3,5.1000000000000005,67.60000000000001,-16.3,33.2
1698419251759.0,16,1.3,0.30000000000000004,3.2,0.8,9.9,4.2,23.2,-2.3000000000000003,52.300000000000004
1698419251776.0,16,-0.9,-1.0,2.2,-1.3,8.6,3.2,-10.8,6.8,29.400000000000002
1698419251792.0,16,-1.9000000000000001,-0.5,1.9000000000000001,-2.3000000000000003,9.0,2.9000000000000004,-15.2,5.4,20.5
1698419251809.0,16,-2.8000000000000003,1.0,1.5,-3.1,10.5,2.6,-15.7,-0.2,8.799999999999999
1698419251825.0,16,-2.5,0.9,1.7000000000000002,-2.8000000000000003,10.4,2.9000000000000004,-11.6,-15.399999999999999,9.5
1698419251842.0,16,-2.1,0.30000000000000004,1.8,-2.5,9.9,3.0,-8.600000000000001,-22.900000000000002,13.3
1698419251859.0,16,-1.6,-0.5,1.8,-1.9000000000000001,9.1,3.0,-8.700000000000001,-28.3,11.9
1698419251875.0,16,-1.5,-1.1,1.6,-1.8,8.5,2.9000000000000004,-14.700000000000001,-29.400000000000002,3.9
1698419251892.0,16,-1.6,-1.3,1.5,-1.8,8.200000000000001,2.8000000000000003,-18.8,-31.7,-0.5
1698419251909.0,16,-2.0,-1.3,1.1,-2.2,8.200000000000001,2.5,-23.0,-40.3,-5.7
1698419251926.0,16,-2.2,-0.8,1.0,-2.5,8.700000000000001,2.5,-20.8,-49.2,-8.0
1698419251942.0,16,-2.2,-0.6000000000000001,0.8,-2.5,8.9,2.3000000000000003,-19.8,-53.9,-9.1
1698419251959.0,16,-2.1,-0.5,0.6000000000000001,-2.4000000000000004,9.0,2.2,-22.4,-64.10000000000001,-11.6
1698419251975.0,16,-2.0,-0.4,0.30000000000000004,-2.4000000000000004,9.1,2.0,-25.5,-69.00000000000001,-12.9
1698419251992.0,16,-2.0,-0.4,0.1,-2.4000000000000004,9.0,1.8,-36.4,-87.5,-15.9
1698419252009.0,16,-2.2,-0.7000000000000001,-0.30000000000000004,-2.6,8.700000000000001,1.6,-39.1,-96.5,-16.2
1698419252026.0,16,-2.4000000000000004,-1.3,-0.7000000000000001,-2.8000000000000003,8.1,1.4000000000000001,-41.800000000000004,-113.60000000000001,-16.5
1698419252042.0,16,-2.5,-1.4000000000000001,-0.9,-2.9000000000000004,7.9,1.2000000000000002,-41.800000000000004,-119.1,-15.7
1698419252059.0,16,-2.2,-1.3,-1.3,-2.5,8.0,1.0,-39.9,-136.8,-17.200000000000003
1698419252075.0,16,-1.4000000000000001,-0.5,-1.4000000000000001,-1.7000000000000002,8.700000000000001,1.0,-33.6,-155.60000000000002,-22.900000000000002
1698419252092.0,16,-1.4000000000000001,0.0,-1.0,-1.7000000000000002,9.200000000000001,1.4000000000000001,-29.000000000000004,-164.4,-26.700000000000003
1698419252109.0,16,-0.7000000000000001,-0.1,-0.9,-0.9,9.1,1.6,-17.7,-172.1,-27.5
1698419252126.0,16,-1.3,-0.7000000000000001,-0.9,-1.5,8.5,1.6,-8.799999999999999,-184.4,-20.7
1698419252142.0,16,-1.9000000000000001,-0.1,-0.9,-2.0,9.1,1.7000000000000002,-7.1000000000000005,-183.9,-19.500000000000004
1698419252159.0,16,-2.3000000000000003,0.5,-1.7000000000000002,-2.4000000000000004,9.700000000000001,0.9,-9.3,-184.20000000000002,-28.500000000000004
1698419252175.0,16,-2.1,-0.4,-2.4000000000000004,-2.1,8.8,0.2,-23.3,-187.4,-33.400000000000006
1698419252192.0,16,-2.0,-1.0,-2.5,-2.0,8.200000000000001,0.2,-36.4,-192.10000000000002,-21.5
1698419252209.0,16,-1.5,-1.5,-1.9000000000000001,-1.4000000000000001,7.6000000000000005,0.8,-38.0,-194.10000000000002,-14.3
1698419252225.0,16,0.0,0.4,-0.6000000000000001,0.30000000000000004,9.5,2.3000000000000003,-26.1,-195.3,-8.600000000000001
1698419252242.0,16,2.1,2.6,0.4,2.5,11.700000000000001,3.2,-2.7,-200.4,-22.6
1698419252259.0,16,3.3000000000000003,3.2,1.3,3.8000000000000003,12.3,4.2,6.7,-204.20000000000002,-37.5
1698419252275.0,16,5.9,2.3000000000000003,1.4000000000000001,6.5,11.4,4.2,4.5,-184.70000000000002,-70.3
1698419252293.0,16,3.6,-0.1,-0.30000000000000004,4.1000000000000005,9.0,2.6,-71.30000000000001,-172.5,-74.5
1698419252309.0,16,1.6,-1.0,-0.7000000000000001,2.1,8.1,2.3000000000000003,-76.7,-168.6,-69.2
1698419252326.0,16,-0.30000000000000004,-0.7000000000000001,-1.5,0.2,8.3,1.7000000000000002,-73.10000000000001,-145.2,-48.9
1698419252343.0,16,-0.5,1.0,-2.7,0.0,9.1,1.0,-61.599999999999994,-154.0,-34.400000000000006
1698419252359.0,16,-0.30000000000000004,1.8,-2.8000000000000003,0.30000000000000004,10.700000000000001,0.6000000000000001,-54.800000000000004,-158.5,-29.500000000000004
1698419252376.0,16,0.1,2.0,-3.3000000000000003,0.8,10.9,0.1,-36.2,-165.9,-32.300000000000004
1698419252393.0,16,0.4,1.5,-3.4000000000000004,1.1,10.4,0.0,-27.8,-169.50000000000003,-40.5
1698419252409.0,16,0.4,-0.1,-3.5,1.2000000000000002,8.700000000000001,-0.1,-13.9,-172.9,-57.1
1698419252426.0,16,0.30000000000000004,-1.4000000000000001,-3.4000000000000004,1.1,7.5,0.0,-5.500000000000001,-174.3,-62.6
1698419252443.0,16,0.30000000000000004,-1.7000000000000002,-3.2,1.1,7.2,0.1,-2.7,-174.8,-62.1
1698419252459.0,16,0.30000000000000004,-1.5,-3.0,1.1,7.4,0.30000000000000004,0.7,-171.50000000000003,-57.3
1698419252475.0,16,0.7000000000000001,-0.30000000000000004,-2.7,1.6,8.6,0.6000000000000001,3.6,-166.1,-53.6
1698419252492.0,16,1.3,0.7000000000000001,-2.3000000000000003,2.1,9.700000000000001,0.8,6.000000000000001,-159.2,-54.3
