msFromStart,interval,accx,accy,accz,accGx,accGy,accGz,rotRate_alpha,rotRate_beta,rotRate_gamma
2,0.01666666753590107,-0.22733455489184706,0.041673488125205035,-0.19745032529234885,0.3609254984097555,-2.96282338539958,-9.513958847045897,-12.120067375576431,15.837069128502064,-10.350488305031186
175,0.01666666753590107,-0.1623750663883984,0.1413940915495157,0.2841618095397949,0.44128111082445826,-2.069636820818484,-9.25089593963623,3.350889312704375,-1.10009844225258,2.480626095692489
191,0.01666666753590107,-0.16835468878727405,0.14197218369841574,0.29767186397612094,0.429908616406098,-2.070983413121849,-9.237279502215982,-1.6671279405423447,-2.894058299927007,2.1676589305162772
207,0.01666666753590107,-0.10411839999184012,0.1586034388951957,0.10908639766275882,0.4840774289671331,-2.0507824827447534,-9.427318674468994,0.4206596382738758,-1.372141888686426,-0.07815313223697508
224,0.01666666753590107,-0.09470986259020864,0.14280483513027428,0.23255378737747667,0.49126003394760187,-2.069038416533917,-9.303418738555907,1.2457573489449794,-1.421652649319379,-1.2413034252758963
242,0.01666666753590107,-0.07613258789218962,0.13094605503231285,0.206200617980957,0.504577780682221,-2.0823560171380637,-9.329754956817627,0.00465109202051423,-3.0516982121972553,0.018359788612832283
258,0.01666666753590107,0.03614920827839523,0.08795447004586458,0.23754677335917948,0.4972455380979925,-2.0539248724237082,-9.32122561340332,0.38850654943646723,-3.1296513746380223,0.6052319736172627
275,0.01666666753590107,0.04057860556058585,0.0018947277054190634,0.18484394169747828,0.4978440885130316,-2.127546573473513,-9.376890802001952,0.6656825095056076,-1.6886266012851947,0.006889072871177665
292,0.01666666753590107,0.00833681651689112,-0.02301598779782653,0.1803419541031122,0.4703107694212347,-2.1407146826043726,-9.383774131774901,-0.7073545074880603,-1.3918930882188103,0.5725284942627127
307,0.01666666753590107,0.020576412625983358,-0.04754354920238256,0.1387070444226265,0.48587304367963224,-2.160616337773949,-9.426271211242675,-2.1385057621479584,-4.0449870099828225,1.9227001723492934
325,0.01666666753590107,0.056659569930844006,-0.08505772569105029,0.07436229028403758,0.5204393666807562,-2.1998213899590073,-9.490316105651855,-1.100001752387142,-6.266640079991931,2.0960584843338563
341,0.01666666753590107,0.033379414771497244,-0.08888181402385234,0.0912754311621189,0.48736941971722986,-2.202365375353396,-9.4741552444458,0.2728559454603866,-6.0108533375563615,1.0710003422844447
358,0.01666666753590107,0.0022568390160799027,-0.05603080704063177,0.16143442453742027,0.44831404166854916,-2.1760293032221494,-9.402927745056152,-1.9819821589201845,-5.461823949050519,0.2636753441226697
374,0.01666666753590107,-0.03739818542618304,-0.03636778293251991,0.14525135149955748,0.4013278340879827,-2.16136467192322,-9.418340418243409,-2.4769313902383354,-3.965349138694589,-0.2868770431659534
392,0.01666666753590107,-0.08397694471701979,-0.03365662427768111,0.1729220332354307,0.3523963011259213,-2.1598682958856226,-9.390507823944091,-1.1323637222831913,-3.186953887010079,-0.6446533175464904
408,0.01666666753590107,-0.012896269919537007,0.0016574118182063101,0.16535072119832037,0.42302528663314876,-2.1371235262446104,-9.395296227264403,0.48525559206031604,-5.531790272474014,0.3512329264752383
424,0.01666666753590107,-0.061271082314290105,0.039674423262476916,0.2765998498529196,0.3685572353972122,-2.1100389738336203,-9.281870923614502,-0.5915119912045582,-4.720192190573602,-0.8176041660583798
442,0.01666666753590107,-0.11011110106799751,0.0538444029122591,0.2598614810198545,0.3131912489408627,-2.0950750673271714,-9.299079248046874,-3.003355413912374,-2.4878953379600866,-1.9582269744302916
457,0.01666666753590107,-0.07333042648565023,0.0426926020398736,0.2644371183723211,0.3465604711119085,-2.097170286040753,-9.296685630908607,-5.637134414477236,-1.0209901240684345,-2.5833843707646267
475,0.01666666753590107,0.028215163876116275,0.05180982834473252,0.20546938109695911,0.44217889991439874,-2.076520150591433,-9.358485376739502,-7.0220069220029195,-2.1725252268564996,-1.9936780041001851
491,0.01666666753590107,0.07471906783245504,-0.0026057985842227933,0.126210550943017,0.4819825025144964,-2.113779767797142,-9.44183352203369,-5.600413609951955,-3.1731289437997385,-2.5015224191279084
508,0.01666666753590107,0.10664295003339648,-0.019741934563219547,0.11703531084060668,0.5062237577909603,-2.120363968493044,-9.453654892730713,-4.799178205682923,-3.4799173490980277,-2.050296643781594
524,0.01666666753590107,0.09274035261552781,-0.02037438724786043,0.10529343512058258,0.4789897869719192,-2.1128822344355283,-9.467720827484131,-4.897315644338135,-3.8189594017609982,-0.9278284782235762
541,0.01666666753590107,0.11265190812461078,-0.013437281461060047,0.07056991226375102,0.48632202955614773,-2.0986665159478783,-9.504531678009032,-1.7953318719239535,-3.6091304409295057,-1.0273196817166264
558,0.01666666753590107,0.14354180763531477,-0.024122633865475654,0.11045359436273575,0.5126582112852484,-2.107046221758425,-9.465326625823973,-1.35241779646731,-2.8637200937376917,-0.9129651328159822
574,0.01666666753590107,0.17686762905605136,-0.05678600932210683,0.08879121313095092,0.5463266721311957,-2.13742280145213,-9.48747299118042,-3.4106910339824212,-2.9311334205154824,-0.17299014878004346
591,0.01666666753590107,0.20905429037902504,-0.10661606202647089,0.14023673820793628,0.5801447705809026,-2.1781240835443136,-9.437942944335937,-4.610640652041653,-2.516538803461593,0.1018946296681014
608,0.01666666753590107,0.22073870029076934,-0.12011004211083054,0.17450199590325355,0.5918165036741644,-2.182613211657107,-9.405621806445717,-4.696676703034895,-1.1035831193897558,0.10206087540528244
625,0.01666666753590107,0.26494992673266676,-0.1596720910400152,0.1554161871612072,0.6423940137449652,-2.213737833239138,-9.426271211242675,-5.22975247718688,-1.858623606424465,0.3355090039126491
641,0.01666666753590107,0.2826691232966259,-0.19790449880063532,0.10931085406839847,0.662744654791057,-2.2424681070305406,-9.47430488204956,-4.950253879273965,-4.293623825017858,0.827676027041504
658,0.01666666753590107,0.28271128193791956,-0.1960600399777293,0.07115384963154793,0.6573577741209418,-2.2331907217279077,-9.514258122253418,-4.604803828509054,-5.65306711137676,1.151392522589141
675,0.01666666753590107,0.19813030691314487,-0.18523060292750596,-0.057635611888766286,0.5704182898038997,-2.2225663057304916,-9.643096099090576,-2.645665450711388,-4.903678819323648,-0.07079330992159544
691,0.01666666753590107,0.27212982829939575,-0.1549172977283597,-0.020544190856814384,0.6525693708006293,-2.1999711736932395,-9.604040684509277,-1.4732258069165587,-2.8104634012318095,0.042426893968297796
708,0.01666666753590107,0.28592611579857763,-0.18011282152235508,0.020000000977516173,0.6706755208555608,-2.2293001440301534,-9.562441430664062,-0.6942382497649615,-2.0016669775515727,0.4648749479072327
725,0.01666666753590107,0.28853812492787834,-0.08028583511412143,0.04199029898941516,0.6842925427976996,-2.1420611287772653,-9.537302313232422,0.3798264995792917,-1.8245874931298223,0.812213545977653
741,0.01666666753590107,0.2232187536034733,-0.07799889322072268,0.11495733552277088,0.6301237667692825,-2.1510398233942687,-9.46143604812622,1.2749916258096918,-2.0666999834036144,0.17012313685529093
758,0.01666666753590107,0.2685469648439437,-0.05529635528624057,0.13593699518740177,0.6735186353269964,-2.1354772203423082,-9.438990407562255,1.0843236934776124,-3.076873862591099,0.26930830251679966
774,0.01666666753590107,0.26090328169036653,-0.05782397406771779,0.14152443993091582,0.6649892919126897,-2.145503085924685,-9.431807802581787,0.3557441330198995,-4.336820502649957,0.07987620753766947
791,0.01666666753590107,0.2243725998137146,-0.054499944211542604,0.1414087045967579,0.6337149961942806,-2.1458020688712596,-9.430909392437338,-0.9257804886896301,-4.716474433231,-0.22597096567648034
808,0.01666666753590107,0.1778054578954354,-0.05597746941819787,0.08603577694296836,0.5825389722410589,-2.143408159472048,-9.48732335357666,-1.6790182326702792,-5.5293079255975375,0.13922320096759458
825,0.01666666753590107,0.10178462328203022,-0.03290551364943385,0.021683424019813536,0.5045777441496029,-2.1200646932855247,-9.55181716079712,0.3664334857926752,-3.0965484359387325,-0.15082282318961995
841,0.01666666753590107,0.1528267186572775,-0.06547536560371518,0.07473930690288544,0.5627868085447698,-2.1570250352837146,-9.497498710632323,2.134516931672671,-3.122871131226315,-0.09056884200289798
858,0.01666666753590107,0.1860066653339192,-0.09112228642702103,0.06640460927784443,0.5954077696317807,-2.190095091845095,-9.504232402801513,2.9199035223029237,-2.0365530225110593,1.3747908281456274
874,0.01666666753590107,0.11826445077676326,-0.0702152536071837,0.1181061549425125,0.5366001913541928,-2.1779742998100815,-9.450213227844237,2.788189514018163,-0.2856527584376551,1.1672408026193921
891,0.01666666753590107,0.02466558163575828,-0.0065104048073291775,0.09477204110622406,0.4481644040647894,-2.1220099821344016,-9.471611405181884,2.023644818753381,0.463418623510139,1.5208843056239687
908,0.01666666753590107,-0.10895535516161471,-0.02992547492533922,0.1360661745250225,0.32216954169906675,-2.14864547560364,-9.42926396331787,1.185132696593652,3.63675343348033,2.742006336171476
924,0.01666666753590107,0.0007228709144517779,0.0771519210025668,0.206004803147912,0.4447227391783148,-2.0521292211785913,-9.356391034808754,4.381442555384473,3.13635114988357,1.9293730537249845
941,0.01666666753590107,-0.19975593535359948,-0.0966470411978662,0.31717385230362416,0.25707714753095057,-2.242019194219261,-9.241019857788086,6.214623493707229,3.050576353626081,1.1897836285316075
958,0.01666666753590107,-0.21468035009987652,-0.170531484837085,0.46455169443786143,0.24495653815902768,-2.333298424773663,-9.089586602783202,6.845496904603219,-1.7596942927123542,1.3049600412884748
974,0.01666666753590107,-0.20501330789253114,-0.2791490959443152,0.5797264721035957,0.2413652356687933,-2.461986617876589,-8.97047507019043,5.046626994689198,-4.343585805022855,3.0491697615438813
992,0.01666666753590107,-0.3997971539219841,-0.4226655864752829,0.5224544328302144,0.032620741891302166,-2.6140182771660387,-9.026439533996582,1.7555502888768604,-4.855029943186586,3.8196014395429794
1008,0.01666666753590107,-0.5012578059466556,-0.5022128781817853,0.4049123415112495,-0.08005637373980135,-2.693475844762474,-9.144503603363036,-0.9483085870064478,-2.0213500886356686,2.924844310393782
1026,0.01666666753590107,-0.5485759123627096,-0.6473444026939571,0.5556342333763837,-0.12734181999526917,-2.8299453393913803,-8.99576324070394,-5.357593554768832,2.7351189441671644,0.6450560852641095
1041,0.01666666753590107,-0.5996172040203586,-0.5026743582136929,0.4681897586792707,-0.1723827387269586,-2.6725267263665793,-9.08584566268921,-8.285292670792268,3.657938972738417,-1.3423039938538137
1058,0.01666666753590107,-0.7092551346186549,-0.5866958727248013,0.5358259555786847,-0.2714428689485416,-2.735224736211449,-9.022548956298827,-10.664120346434418,4.315144470432098,-3.038734513152571
1075,0.01666666753590107,-1.0740966739609836,-0.7877714027769863,0.3117629331707954,-0.6376059757508337,-2.904614649797976,-9.253739638629556,-11.523410224214443,-5.7733800398328885,0.7182524478347859
1091,0.01666666753590107,-2.0801697591401633,-0.49004722409173845,-0.4231254590719938,-1.6916533296998588,-2.5830434393182395,-9.995941568756104,-14.660312911873492,-28.594866998014353,4.342962550261091
1108,0.01666666753590107,-1.2964479240149258,-0.3481958902940154,-0.6747621325820684,-0.98626173864156,-2.418292291448265,-10.255413173675537,-7.189242823170212,-23.168857145876796,5.125005976736034
1124,0.01666666753590107,-1.7246476176112888,-1.462070301761478,0.4254442574083805,-1.4845549408952705,-3.5070556425347923,-9.162609753417968,-13.628551366040535,-20.436315317460842,0.20432034656481096
1141,0.01666666753590107,-1.8473868391819297,-0.6304070041574538,-0.5667524242401123,-1.6656163318467325,-2.6358655134454367,-10.1644335105896,-21.567452700622898,-23.357233763185747,-5.179945883985501
1158,0.01666666753590107,-1.7336891483314334,-0.8222272146083414,-0.39352527057826514,-1.6096518589074258,-2.764703490282595,-10.005069462585448,-28.522456747528462,-25.255177701444918,-13.330362382350703
1175,0.01666666753590107,-1.5773568692386148,-0.9587819033026694,-0.4364239165842533,-1.4987705041192936,-2.8015143408074974,-10.068066893768309,-27.72285333158424,-7.7015727514919305,-22.63402089046624
1191,0.01666666753590107,-1.3111189850546419,-1.1229062975764275,-0.1994961519062519,-1.2270286065584048,-2.9062605173088607,-9.842263165172934,-18.483687177159258,2.1286572696950348,-25.428652553532196
1208,0.01666666753590107,-1.1084085472770036,-0.9308660146340727,-0.4813824177294969,-0.9935939264268614,-2.6853957064203917,-10.129119620624184,-3.25927961390499,13.76720762128638,-23.07290323332187
1224,0.01666666753590107,-0.8114241541083902,-1.0763492751933634,0.22296529029905796,-0.6169560777635313,-2.8549349653497336,-9.419088606262207,17.26751223128325,24.649823157948564,-22.012471968447787
1241,0.01666666753590107,-0.6273761120289564,-1.0116389026127754,0.8616729436814784,-0.35748443631147964,-2.8449092458978296,-8.768314667510985,26.101743790574854,25.765421860748845,-22.167785347532
1258,0.01666666753590107,-0.5779881040036678,-0.9537588144436479,1.0977151576966047,-0.2478000910218805,-2.858675905443728,-8.51647516490519,31.947878578559898,13.19113666008281,-23.029680088706737
1274,0.01666666753590107,-0.5000261087272316,-1.0173837298750876,1.7002070038378239,-0.13048431927207857,-3.0337519018426535,-7.889792295837402,34.852925372200986,0.2644147921416029,-26.915552292445412
1291,0.01666666753590107,-0.3662099416187033,-0.9403115961104631,1.8276327757894992,0.009726188516058026,-3.034649727465212,-7.745392008209228,28.547412551208396,-6.500920264278423,-29.643809884704474
1308,0.01666666753590107,-0.3759963724220171,-1.0497311712503432,1.7460025403290986,0.0008975698942318559,-3.2008971052423116,-7.81437494354248,18.838655523419405,-5.056508143984091,-32.22012650378202
1324,0.01666666753590107,-0.45720074715316295,-1.2708376819401979,1.7527274646699427,-0.06539192510396241,-3.4563284948602315,-7.799262130084633,4.409981220170902,-2.581372026280412,-35.881456238556524
1341,0.01666666753590107,-0.4591394235981628,-1.4573741067692636,1.6364450180232524,-0.05461801763325929,-3.6379885458245873,-7.91612851409912,-5.369265921173561,-3.5045094452046586,-34.30787286133938
1358,0.01666666753590107,-0.5543026194464415,-1.524164062102884,1.5190245072573423,-0.14200637822896242,-3.6800368586115537,-8.038831349182129,-11.136708819070416,-4.858706719394169,-30.15746401595153
1375,0.01666666753590107,-0.49881424871943886,-1.677480646636337,1.2661591687351466,-0.08828647847920655,-3.7913670896783467,-8.301146068572997,-10.044544495312453,-8.921215725919012,-26.027366445608003
1391,0.01666666753590107,-0.5446664107687771,-1.8169464004717766,0.6410708753824234,-0.14095891500264404,-3.9119749983087178,-8.930672052112222,-2.5929609363112194,-5.712002679290685,-24.572884492042956
1408,0.01666666753590107,-0.5947991727467626,-1.8342672453679143,0.5374538490414619,-0.183755269677937,-3.9302307859674093,-9.03377177658081,4.635719399126646,-0.7736479500462338,-26.785768452931414
1425,0.01666666753590107,-0.8022217337381095,-1.5287654184184967,0.1781681171953678,-0.36167441708091647,-3.652054480578005,-9.38571942062378,14.990293011055147,9.742495600967917,-27.878200861614303
1441,0.01666666753590107,-0.563805776328966,-2.151424438797682,0.5074760594069957,-0.07915862118247896,-4.313452689196169,-9.045593147277831,18.220164818601823,12.491244614510665,-27.59702417159968
1458,0.01666666753590107,-0.3120652040529996,-1.9567413862615823,0.4243097004204988,0.2213136871671304,-4.1635159563593565,-9.115922821044922,19.90560108121439,14.62300471107959,-27.077624143713354
1474,0.01666666753590107,-0.1843181277250871,-1.9413927182212471,0.48660628985762594,0.42033170016761867,-4.205115064074099,-9.036016340637207,16.571056624637265,13.898196989188884,-23.777703623586316
1491,0.01666666753590107,0.1535753085348755,-2.0736407957628367,0.25547230615019795,0.7939767602231353,-4.37046461622864,-9.25688144378662,13.491161257112083,3.2641631991615494,-19.954139820551084
1508,0.01666666753590107,0.2519290075201541,-2.2124048310697075,0.2658271114259958,0.8873506980344653,-4.5394056170038874,-9.239523481750489,12.826791317865881,-16.49750914765457,-13.850438598964862
1525,0.01666666753590107,0.09471921494044364,-2.175244144193828,0.07216214989125729,0.6376055008267983,-4.537161052947491,-9.430311426544188,9.377458702097524,-41.149639201995306,-6.075308978980125
1541,0.01666666753590107,-0.162371120865643,-2.178735639571398,-0.7755915740311146,0.2786248528745025,-4.563197849871218,-10.277709761157631,9.499928262784083,-39.39591641560825,-2.379084874953083
1558,0.01666666753590107,0.38382819855883715,-1.9244069504983723,-0.851321061015129,0.7447459885861725,-4.338891227965802,-10.34923595123291,15.774058925861404,-24.550524160247626,-5.602136525170091
1574,0.01666666753590107,0.5223371631260961,-1.5990829633563757,-0.7728706246346235,0.8607151314999908,-4.079868389727175,-10.254515348052978,18.120961443549266,2.2432548239197434,-11.807461570095994
1591,0.01666666753590107,-0.10940518128834664,-1.5136600576147436,-1.7508523184478282,0.2653071061398834,-4.010137266375124,-11.227010719409584,-6.633784092221273,21.633743101612456,-9.588986245598234
1607,0.01666666753590107,-0.2768031904052943,-1.5676900462269783,-1.5918331383585929,0.1773202316617593,-4.013130164580792,-11.077821443939209,-34.454715098305485,40.45593103894296,4.597018693515708
1625,0.01666666753590107,-0.5942466899631544,-1.4828715361192821,-1.4488760352760552,-0.004339855835214257,-3.7770018797174094,-10.965144328308105,-52.2354699419383,42.746113958215744,28.98877766782733
1642,0.01666666753590107,-0.33230661257095634,-1.0266028091192245,-1.1324696602135895,0.3113954880978912,-3.2166090536370873,-10.669759698486327,-35.356392276300966,15.597131413148684,54.81114452323386
1657,0.01666666753590107,-1.0149296147212385,-1.3812816316917538,-1.0647481231182814,-0.39010559832789,-3.5190266508355736,-10.615141973114014,-17.33840959486798,2.06256409041776,68.86569649535538
1675,0.01666666753590107,1.7948843523979185,-1.6309287388198077,-1.633458111166954,2.3825297078672794,-3.7419866804376243,-11.19214457321167,-7.78592046509971,0.7003661567500794,31.50717086764858
1691,0.01666666753590107,-0.05632752496488392,-2.0145503088906405,-2.1013018328875304,0.5011360427305102,-4.119223225646466,-11.663203749847412,-5.68261792482082,-12.21987607614418,23.20665029010177
1708,0.01666666753590107,-0.8468618896491825,-1.9750027268782258,-2.5569483363360166,-0.3449149323945865,-4.071189408709109,-12.123788878741859,-5.102161982170103,-18.630450866949904,20.425436533660303
1724,0.01666666753590107,-0.9311952465884387,-1.37124568310678,-2.362033667001128,-0.4875196418428793,-3.446602050615847,-11.936292376708984,-11.677132169222043,-6.9009593213241915,17.955778441114386
1741,0.01666666753590107,-0.9895203751113265,-0.9301384310118853,-2.454194648826122,-0.5606924300814047,-2.969557369829714,-12.036848846435547,-18.760361064963547,4.690127405394499,22.172928479977017
1758,0.01666666753590107,-0.5464582260889932,-0.7238239773929118,-2.160747124546766,-0.09097995534688234,-2.7081404760614034,-11.75373450012207,-13.566959281426298,19.67993333858446,29.308847162523296
1775,0.01666666753590107,-0.22240210345834494,-0.45611865100488064,-1.8744208304494618,0.27159192203041166,-2.430861996294558,-11.467477764129638,4.061352997007819,24.530460479560716,33.46269500815825
1791,0.01666666753590107,-0.02836122128330171,-0.16668021623641252,-0.6559270837306976,0.5081690101072192,-2.1836605287529527,-10.237905574035643,25.09350200114884,24.125201450441764,40.93419112991101
1808,0.01666666753590107,-0.03804148829840123,0.4772825811952352,0.5452876114070415,0.534505264901556,-1.6693562307611107,-9.006388679614663,45.17281528352416,16.065615795867153,49.98285989328975
1825,0.01666666753590107,0.023542934281378984,0.7154058392681181,1.1210685607552529,0.5973530584806576,-1.5607193304315208,-8.400506021991372,50.42612551004524,10.355181498764631,55.633465148357544
1841,0.01666666753590107,0.5038826014922931,0.6467515513673424,1.9805577306568622,1.0603318410459905,-1.7606351690545676,-7.509712782287597,48.70773187714007,1.017336826636124,55.07337939113275
1858,0.01666666753590107,0.8798189873553812,0.5717407340466976,3.1248277187794447,1.3492820173734799,-2.011427792955935,-6.323835357013344,52.23726286659542,-28.176172986797987,44.66062964294866
1875,0.01666666753590107,1.047137355364859,0.6179834297835827,3.2998598760366438,1.400308476788178,-2.0901368802726266,-6.1188312553405755,44.04695422149594,-42.74003508985444,32.989157993001264
1891,0.01666666753590107,1.1903761249329894,0.5651359289541841,3.05534618627429,1.4009070272032171,-2.246807743670046,-6.337152519226074,39.21910330856413,-56.163774695895675,21.533043915131667
1908,0.01666666753590107,1.2249226837877183,0.710281774252653,2.8748569326549767,1.2306194906359975,-2.232293188366294,-6.479906793212891,38.35968109586893,-53.07818209682905,13.451989268448413
1924,0.01666666753590107,1.3123299682796001,0.9224354554191231,2.5635300528138876,1.189918015035102,-2.116024185723066,-6.759729112243652,39.040169427782715,-42.03700713367961,12.438746073002655
1941,0.01666666753590107,1.4302046525537966,1.127589779217541,2.3609821121215817,1.1857282260619104,-2.038063286425173,-6.917447731128335,38.72370627296851,-23.022204446660158,14.422012734373624
1959,0.01666666753590107,1.4091796924427151,1.1591145060330628,2.1025895346105097,1.1104604748381302,-2.0959730390802025,-7.143250290679931,35.71657205689783,-7.127177747955953,27.24409975944866
1975,0.01666666753590107,1.4669152575746178,1.3332596513226627,2.03190564057827,1.1481691875182092,-2.00185098631531,-7.184699906921386,32.92897719622428,11.95799552430849,33.41547791042595
1991,0.01666666753590107,1.654965301837027,0.8295663253247737,2.1597078446269036,1.3464390490325167,-2.5831930769219995,-7.0287781083256,33.66976243813094,20.608996160057103,32.87308917334065
2008,0.01666666753590107,1.9718116757519542,0.8518664199382067,2.2925299226641656,1.6916529826399869,-2.63706232201457,-6.8682163749694825,30.491026549352856,24.898616213560864,24.28129517863865
2024,0.01666666753590107,2.0296764202214774,0.5788832992777228,2.1665964350968596,1.8119616343291476,-2.9803312773004174,-6.968772844696044,13.006129887355613,29.638871657934555,17.10425534219431
2042,0.01666666753590107,1.597655268640816,0.07064969950169324,1.874548840743303,1.4562729223280213,-3.4961320974603294,-7.259369655719399,-7.2928798447677545,29.99905485362601,10.603870393992088
2058,0.01666666753590107,1.2312214186057449,-0.24589053107351064,1.5924503934741019,1.170614759583515,-3.7799946317926048,-7.555052976226806,-19.74670185281592,48.36560087142496,7.384147393778404
2074,0.01666666753590107,0.804747379758209,-0.4161673104971647,1.0689718782931565,0.869394299747725,-3.895215586687624,-8.099584800830483,-24.791704970029947,56.567049555060734,7.696124821855199
2091,0.01666666753590107,0.40577984506078063,-0.14853081156164408,0.5078291106283664,0.6302734043730422,-3.551797286058962,-8.686613120380043,-22.152675261540637,56.081501652248285,26.9734996173638
2108,0.01666666753590107,0.07972436530645936,-0.7555623469591141,-0.4146212500989437,0.39579131581410765,-4.120420180346072,-9.620500820922851,-10.269648747335854,47.47680884529871,41.89554367068489
2124,0.01666666753590107,-0.08205795935317874,-1.133086038546264,-0.5280266800045966,0.3096000560484826,-4.501397519518434,-9.72973627166748,11.07704370157577,45.685226320342274,38.241754464754074
2141,0.01666666753590107,-0.14522555947117508,-1.0729358134880662,-0.6342483358860016,0.3390787005217746,-4.527583807915449,-9.79946739501953,37.36746293023577,31.88270832859422,22.45672283999105
2158,0.01666666753590107,-0.4747056068466976,-1.2509867340445517,-1.0001309817790984,0.04668674970995634,-4.80770540215373,-10.124180995178222,43.966498008167775,15.574625939833494,19.953146028026847
2175,0.01666666753590107,-0.811539158790186,-1.0397396463289856,-1.0893278531014918,-0.2858079693116247,-4.701163720537722,-10.171616700091958,40.13681435563621,5.590321151679615,22.41138062918592
2191,0.01666666753590107,-1.535714945295453,-0.3176709881708026,-0.944269393825531,-1.0342952633179723,-4.065802454973757,-9.992499903869628,29.56138999198993,-6.322093532089618,28.39920427640829
2207,0.01666666753590107,-1.8765537508249281,-0.24478899957239628,-0.9090952045917511,-1.4703392041413113,-4.0650542669549585,-9.931896674346923,12.582550583335395,-28.541581277204497,32.74783033415179
2224,0.01666666753590107,-1.6884002461880445,-0.39945524514913555,-1.0683937861442565,-1.3979146039215846,-4.23609004805237,-10.088716883087157,-3.0578995970768035,-38.68261243982713,27.03655763132865
2241,0.01666666753590107,-1.715339398778975,-0.7680065257295966,-2.0626532455414535,-1.5494974417313,-4.554818144060671,-11.107150998798012,-22.264381297868905,-36.94005359763846,-4.4215408884543255
2258,0.01666666753590107,-1.7418632485672831,-0.4762430090144276,-1.7648200535237788,-1.6587329564080107,-4.203618395775556,-10.835109250640869,-31.275456700055898,-45.995692569065206,-30.36520763465205
2274,0.01666666753590107,-1.8364729387186467,-0.5446455141112208,-2.4884113912045955,-1.8168998944489285,-4.1657600820243355,-11.602001969909667,-58.75856014648893,-40.95141345190319,-58.70360444442701
2291,0.01666666753590107,-1.3141038460843264,-0.5700397753477097,-3.1876632373988625,-1.3048400138121883,-3.957315192247927,-12.39074236384928,-84.78777586581472,-17.84650736722523,-81.69693085127636
2308,0.01666666753590107,-1.0294411743503062,-0.19214111296832562,-3.326137057587504,-0.9606735759678995,-3.3686405667960644,-12.603825727081299,-87.2756654408027,7.0539585469402395,-88.61259983875182
2324,0.01666666753590107,-0.7279924952492117,-0.04284457773119211,-3.078697251245379,-0.545578904237505,-3.0220801687493917,-12.420070749664307,-71.39896584718892,28.26651419140245,-83.16880246646825
2341,0.01666666753590107,-0.18214385242592543,0.2038046627551317,-2.0366116263121365,0.1744772633207962,-2.593667709185183,-11.429020899963378,-37.71458680423415,32.665967101854605,-58.404722196536426
2358,0.01666666753590107,-0.26344978783540424,0.6395484881207346,-0.9228653712689876,0.19363084006942807,-2.0953744886651635,-10.32933414993286,-10.617101324188049,20.877827283146928,-36.02379396576501
2375,0.01666666753590107,-0.49358138956725595,0.8963084959939122,-0.3622890053153038,0.00538673453964293,-1.8388956358209252,-9.766547122192382,11.874513537178009,-2.8474998885627922,-18.231878593028398
2391,0.01666666753590107,-0.9030940644808113,1.1919181667432188,0.2933732899993658,-0.46297896522842347,-1.6083040884271262,-9.094674281311034,24.5255666490204,-39.21732745937992,-7.401099069524729
2408,0.01666666753590107,-0.9963751363769173,1.112787346883118,0.3619032208681106,-0.6763622247224673,-1.7447735830560325,-9.01372092219889,20.15897377866518,-60.01110072705338,-10.636878136929822
2425,0.01666666753590107,-1.0425084534551947,1.0576134489327669,0.31547640073597427,-0.8646062937196344,-1.8353043333306907,-9.05307561198771,8.240969011947115,-62.71601273272934,-21.83792648420811
2442,0.01666666753590107,-1.2229456115610897,0.909138166950643,0.24400574024021623,-1.1948564601012621,-1.9855401952445506,-9.125649265289306,-7.717843969642193,-44.0483749008433,-43.06440760372751
2457,0.01666666753590107,-1.165796102688834,0.8747226871296763,0.46155426618754863,-1.1821372866145683,-1.994818018938601,-8.915857344818114,-15.574415911516516,-18.53811866220238,-57.713418260071926
2475,0.01666666753590107,-0.9532410011146217,0.7842693860054015,0.8242652963072061,-0.9371805646508058,-2.0453955290094017,-8.565257023730874,-17.607356831173696,8.501341799523527,-63.785319828429856
2491,0.01666666753590107,-0.4540917117545381,0.8539686529144644,1.8368799120843409,-0.31558597119082693,-1.9327184133782982,-7.564480145263672,-7.163512646793128,29.050413294897524,-55.36249105341563
2507,0.01666666753590107,-0.19903772234795614,1.0643506482332945,3.2239322361320255,0.04773413987103849,-1.7232260603755711,-6.174945356750488,9.279007501627314,29.937391905799135,-39.76462027228929
2523,0.01666666753590107,-0.22566472198348492,1.1300611377671361,3.7785067313224077,0.10534454425331205,-1.6988345464408396,-5.60542463684082,25.81131560932945,19.049469312151846,-23.53384367210206
2541,0.01666666753590107,-0.23491898213885723,1.0149161707177758,4.403582165193558,0.1403597435330972,-1.9231416067376732,-4.945073891448974,40.18028850970334,-2.0084941785138235,-11.089357678875656
2558,0.01666666753590107,-0.10694233483877032,0.7505500717550516,4.5286634198457,0.2539347578519955,-2.2888559103265402,-4.7881046296268694,42.334765815451725,-15.68127080598678,-9.86008328394521
2575,0.01666666753590107,0.09587108838930726,0.5487728231742978,4.3893607476174825,0.41120387940350916,-2.588430685314536,-4.8965913078308105,38.56502048798161,-28.2097433665686,-11.22707307556333
2591,0.01666666753590107,0.15495810466278342,0.2823565136834979,3.838827636772394,0.38127632211893797,-2.9688091818109155,-5.410447423663735,33.03227014704239,-32.575661755743276,-12.721539810303277
2608,0.01666666753590107,0.16050010282937435,-0.032905075258016586,3.21415084683001,0.3248629272351973,-3.35861484734416,-6.009895079803466,28.96851932674907,-27.87680750302362,-15.755887207574585
2624,0.01666666753590107,0.20358064474090934,-0.31662849338054655,2.7229519684851167,0.3269578628209885,-3.7030809034600853,-6.479607518005371,21.515954781828295,-19.08908440933792,-22.102191625837783
2641,0.01666666753590107,0.18425646066572515,-1.0774749182224272,1.6820669515132902,0.29792818595790305,-4.509478242382407,-7.503727278137206,7.777009629553782,-8.42801288859427,-32.038856698304464
2658,0.01666666753590107,0.0602226327072829,-1.5841533975109456,0.6212398012310266,0.18944088669945486,-5.025727683092653,-8.56076731109619,2.1017531545543546,-4.476154654170925,-36.501299320829766
2674,0.01666666753590107,0.047400231741555034,-1.7561960175633429,0.13857844960689544,0.20141190413339063,-5.199756508526206,-9.042301704517007,1.0143524608556516,-2.3973276698959523,-34.14104207576724
2691,0.01666666753590107,0.09278711436670273,-1.9571698408067226,-1.2158452780365943,0.26665389937264844,-5.406705314525961,-10.39412723236084,4.726071275901691,-5.750613738668767,-20.56809698730707
2708,0.01666666753590107,0.20646367109762503,-2.2060741667434574,-2.1577976270914077,0.3806777351712808,-5.673808144976198,-11.329212618255614,11.105649387593429,-5.380633917273401,-12.103664676284644
2724,0.01666666753590107,0.1767510900042951,-2.301579490560293,-2.4937305404007435,0.3543415351758711,-5.8021972090020775,-11.652580064502358,16.379435667472556,2.056758643066661,-7.785271597128559
2741,0.01666666753590107,0.2959169831328094,-2.455255848316848,-2.7970155680835247,0.5129573586286045,-6.014084055925905,-11.93255143661499,19.532157073249355,17.110173701110128,-4.2645588087785145
2758,0.01666666753590107,0.5322083130707964,-2.563762108004093,-2.765771704035997,0.794874622378312,-6.170305714251101,-11.88137537612915,20.64747403074637,18.537362218751802,2.227965018575847
2774,0.01666666753590107,0.45167738062180574,-2.5326450852066276,-2.740142757260799,0.7460927635526284,-6.1921525121390815,-11.833640980529784,23.8149025413535,13.411074727772744,12.900627370341011
2791,0.01666666753590107,0.3697070264868438,-2.549072780655324,-2.666130011066794,0.6696279662976973,-6.29809622786194,-11.722909153747558,31.202814223138226,8.116954120960841,26.481821619771264
2808,0.01666666753590107,0.5664231922857463,-2.774740315650403,-2.6055109994530676,0.8556274712384678,-6.602758681377768,-11.629535873523354,32.70801716147979,8.267497466683446,29.69184319004259
2825,0.01666666753590107,0.6546361671373248,-2.577740072213113,-2.529664023569226,0.943015868366789,-6.479456711357831,-11.522095489501952,26.025465945471446,15.518512520707253,27.264160025040987
2841,0.01666666753590107,0.8328199202932417,-2.3136714948922394,-2.5885470051705837,1.1323074919218197,-6.2674208113521335,-11.557858876800536,4.4393907340765075,13.26795665145159,27.330291624132343
2858,0.01666666753590107,0.6053185209345072,-1.8577879678174851,-3.1121365795105693,0.8940843902036547,-5.815066042925417,-12.080243751525877,-4.915310204593357,6.41079677195375,31.947345823804636
2875,0.01666666753590107,0.418925084772706,-1.6297972505718468,-3.375403485059738,0.6821975432798266,-5.582529206682741,-12.34629999553263,0.17112460000213084,3.0703243515072915,36.37730748173194
2891,0.01666666753590107,0.2900124169978313,-1.1875509114444256,-3.5005069515436884,0.5125085188825614,-5.179255864550173,-12.45523617106974,24.182154982835915,7.812740056649411,42.54068577364386
2908,0.01666666753590107,0.1579108169885352,-0.4799173136129975,-2.9003730667054652,0.3592796126325615,-4.55541669447571,-11.81777939453125,44.75209953631347,14.410748044884981,47.41385499171871
2924,0.01666666753590107,0.13382983030769974,-0.07327741765677928,-2.4726620334088802,0.3191767530912533,-4.273499741253256,-11.33235500793457,59.00305359801871,18.13831866177756,52.500611055329024
2941,0.01666666753590107,0.07930608509546146,0.621666209949553,-1.3258388536721468,0.24166449261000378,-3.7710163755670187,-10.092158547973632,61.143313865009716,17.996257557230468,53.065665775175006
2958,0.01666666753590107,0.34323717190809544,0.8921233192637562,-0.33358722696602344,0.48153357143690806,-3.634097968126833,-9.032126347461343,53.37827670329732,12.308574620253259,46.480717962406146
2975,0.01666666753590107,0.4897236181605607,0.9890466931849717,0.10099719923138618,0.6003458288221619,-3.645769701220095,-8.540566819110513,40.38111314677464,7.053823650704132,34.829125578038074
2991,0.01666666753590107,0.6577215659320355,1.1279022061675785,0.5830202529519796,0.7456439603392034,-3.5911519758477803,-8.013093681335448,14.046904721572048,6.825869502249541,15.461471903401184
3007,0.01666666753590107,0.5703648791162297,1.432067523816228,0.7460550984233617,0.666784943157807,-3.2975627050101757,-7.844153411212563,-4.088929032008099,11.250506600831999,2.979827973542619
3025,0.01666666753590107,0.48857364440783857,1.5049579879820345,0.879023891454935,0.6190505475584417,-3.2043387701287864,-7.721899488940834,-12.375530110913248,17.648940730388027,-5.065852696542315
3041,0.01666666753590107,0.37938689164314415,1.7911738074421881,1.3705880959808825,0.5832871419935487,-2.8869571202933786,-7.24590168685913,-5.824098036401642,24.265942620931753,-6.287125097973268
3058,0.01666666753590107,0.13468717778939754,2.314465567879379,1.9382476981937884,0.4034227605406195,-2.36547036345154,-6.675483725848793,8.201818367624602,29.493347647478267,-0.5836328343884195
3075,0.01666666753590107,-0.11404387393966317,2.7555735506266354,2.56307763287127,0.24420831360761075,-1.9826973730340598,-6.0154316711425775,29.269078386080896,34.37241131880683,8.006714867756834
3091,0.01666666753590107,-0.20576591635812072,2.8507728772342205,2.785902637916803,0.21652539344467223,-1.9674343374505638,-5.745037105670571,40.05709238764382,34.903342413559436,11.723127516866555
3108,0.01666666753590107,-0.4091355852294713,2.763459919962287,3.249801421403885,0.06838416572250425,-2.1556787352412936,-5.220407082366943,46.60535183928596,34.43128071926317,19.969999519803853
3125,0.01666666753590107,0.2775530223919079,2.748961439010501,3.432293247017264,0.825700078350678,-2.3130969098746776,-4.948964469146728,47.5198151314077,33.839741940910464,13.136835802407562
3141,0.01666666753590107,0.07682564819026738,2.7873908306479454,3.4774124916821716,0.6771099743498489,-2.380284778484702,-4.835539165496826,47.36382044095377,30.07125336824763,14.693697168989221
3158,0.01666666753590107,-0.19058957267738877,2.782826299211383,3.4959465117603536,0.44831404166854916,-2.4908669676631687,-4.747253563800454,48.39129945817714,26.632755140050204,17.894643125400894
3175,0.01666666753590107,-0.20074761327207089,2.7373966734230515,3.075380089521408,0.4780919248167425,-2.6855449056327343,-5.067178760638833,52.847820306692036,29.54179759435575,22.103113701375733
3191,0.01666666753590107,-0.14570742470398546,2.6303619475930926,2.8930051682859657,0.5656299230162054,-2.908954432567954,-5.168034505572915,51.84671606494868,31.734257582078577,24.26078924320298
3208,0.01666666753590107,-0.002066723271459341,2.2816870416104793,2.4642723907262085,0.7330744746886193,-3.361308324211836,-5.52237635127604,41.15130918324737,24.20543397507461,23.984788129031934
3224,0.01666666753590107,0.00038169279396533964,1.6689835980564356,1.5471540386766194,0.7423520061217248,-4.064754699486494,-6.373963954272866,21.276355160838833,11.327487955419919,15.075718187004497
3241,0.01666666753590107,-0.005981193301454186,1.3860861093640326,1.183070551159978,0.7378628049436956,-4.3813878690421575,-6.713341455078124,10.103296928779255,3.7356942731366654,3.5575469313268653
3257,0.01666666753590107,-0.0751759447544813,1.039272905600071,0.38783904163539407,0.6693288554869592,-4.738423191612958,-7.501034385791421,-0.07577439879659914,-3.816006198718614,-3.932147162252334
3275,0.01666666753590107,-0.2946451365660876,0.9576958616316318,-0.34698680676519866,0.43320064368881284,-4.796033669060469,-8.25490804901123,-17.356552284850828,-15.419430381512463,-5.601562362392987
3291,0.01666666753590107,-0.5129124052420259,0.9854302562534809,-0.8036708365678786,0.18540077186264098,-4.715828497967124,-8.75215439082682,-31.55022838017634,-21.672816906306807,-6.044367368266322
3308,0.01666666753590107,-0.7719931111477315,0.9207575853347778,-1.8090870652735231,-0.11686711466684936,-4.702809441918134,-9.816377028766274,-41.428051372943365,-28.174542279133647,-7.6897684770588555
3324,0.01666666753590107,-1.07128746175915,0.30236791283786296,-2.8126445143699645,-0.47509953806772826,-5.1904789770931,-10.914717040362953,-48.551119054566264,-25.444648856568364,-12.154080010095802
3341,0.01666666753590107,-1.0145477757968009,-0.19490122533142565,-3.1899352739840743,-0.44382527888193724,-5.583576962170005,-11.363480214038491,-46.73647781097186,-18.27057161467652,-18.287334606447022
3358,0.01666666753590107,-1.2340823609948157,0.0025490999609231947,-3.424771619340777,-0.6657378817902877,-5.28594776829183,-11.66365324718058,-44.30953742904249,-12.85733336251324,-24.711803709571846
3375,0.01666666753590107,-1.1847593810297548,-0.12926350877285003,-3.183691995680332,-0.6109705918794498,-5.279662988933921,-11.509227240100502,-48.9656739711456,-20.34380723534219,-30.616275143257965
3391,0.01666666753590107,-0.9148178200222551,-0.3775339207202196,-3.061791709151864,-0.3474587351258844,-5.409547844475507,-11.45984624633789,-55.13684209380592,-27.200167982707136,-39.18081668317162
3408,0.01666666753590107,-0.4347423201728612,-0.7928887457907199,-2.8012510136961937,0.12599460663739592,-5.642084680718183,-11.30661734008789,-61.6048707283625,-25.344516575788685,-47.123858819938306
3425,0.01666666753590107,-0.32260848110560325,-0.7627534275069833,-2.5554490376889705,0.2531866428984329,-5.471947017504275,-11.138125982776284,-56.27707728894243,-12.291920057735828,-44.91824730296862
3441,0.01666666753590107,-0.33177542830370366,-0.581053629054129,-2.2626310434848067,0.27847532486859705,-5.172821155327558,-10.906336750030517,-41.71574235587889,-1.089390199737881,-33.977257554564915
3459,0.01666666753590107,-0.49025867488533253,-0.055964756067097186,-1.47893098179996,0.15801709037460385,-4.5449420622125265,-10.173711626544595,-26.032285889357702,-2.1621514501677197,-13.60629946349828
3476,0.01666666753590107,-0.6172677557948977,0.25291969905793665,-1.1139952613681554,0.020799334661662578,-4.174140080095827,-9.841216870990396,-29.48289404295356,-15.712160336508163,-2.5669897823224805
3491,0.01666666753590107,-0.6824797212220728,0.13831599927842617,-1.146225213843584,-0.10339987645894289,-4.208706366564333,-9.917681686511635,-40.89381788172706,-34.78556263151174,2.775010023684389
3508,0.01666666753590107,-1.1745999521955848,-0.04952683197408914,-1.4240648346245288,-0.7263411478456109,-4.251502721239627,-10.273519323730468,-52.97215024015377,-44.342021808735076,0.8611382977241602
3524,0.01666666753590107,-1.7330302460312843,-0.15610650751292704,-1.8360867158800362,-1.380257549341023,-4.229356355883181,-10.749815816497803,-56.85941921757772,-39.4011654159854,-9.87824134185369
3541,0.01666666753590107,-1.7669062121480703,-0.17429419837146998,-1.8086586107283829,-1.4707882265504448,-4.117128153063357,-10.7828863114506,-52.54202590736139,-23.331699100973655,-26.142562708602146
3558,0.01666666753590107,-1.4188266417101025,-0.2653910580962896,-1.0928116035640238,-1.0987892532015218,-4.0650542669549585,-10.127772882190346,-34.184734795887806,11.04531747288106,-39.20449011883488
3575,0.01666666753590107,-0.6336719973027706,-0.027245734322071075,0.5336456889301538,-0.2229603583956137,-3.768472244042158,-8.522011171722411,-11.696727981950808,33.13665592812769,-34.27549093448435
3591,0.01666666753590107,-0.3968524422395974,0.33511575170755387,1.4914911881655453,0.12928659738749265,-3.403207145525515,-7.559393051257729,11.240434633127167,40.54275981876675,-16.31647327615609
3608,0.01666666753590107,-0.34375980754271146,1.1012509306073188,3.079327950364351,0.2958332503721118,-2.7082901136651634,-5.934478312030434,33.1681533454852,27.666109827507068,13.058263013743028
3624,0.01666666753590107,-0.5743414911296219,1.2228273920089006,4.089448411238194,0.09172748577855527,-2.68494664747864,-4.880280809020996,46.79669617378928,12.363422746835754,25.516604899474448
3641,0.01666666753590107,-0.5185947617273777,1.1242270247861743,4.317074679085612,0.13153123450912535,-2.908804502703249,-4.598214510455727,55.32324478644473,-1.827128323501067,25.81070089230415
3658,0.01666666753590107,-0.20929756108298897,0.7062710773065686,4.4465287419945,0.3839697989866137,-3.505409628893435,-4.389769328418374,55.21573760890873,-13.608377548553257,15.13754335182416
3675,0.01666666753590107,0.01246916708126664,0.36873511271476744,4.174470627224445,0.5621881850644945,-3.9647967801749706,-4.6055461685180665,48.8531329441913,-13.886706049683983,3.3529661170988816
3691,0.01666666753590107,0.10106599015127866,0.24461072039604184,3.8133009813278913,0.6286273176664486,-4.189852028490603,-4.917541156879067,39.54206197327901,-6.849146786940945,-7.8308579871965165
3707,0.01666666753590107,0.19096483573056755,-0.37268121999204157,3.1323493464559315,0.7365160299772396,-4.9019773847833275,-5.548562347412109,24.386543271106667,3.0327971577731256,-20.073400046101384
3724,0.01666666753590107,0.3876883445857093,-1.010370928503573,2.1455337733238933,0.9698010177060962,-5.579536162346601,-6.5120788780212395,14.129266557678646,5.020055851270556,-24.532338781582467
3741,0.01666666753590107,0.319052213396132,-1.227015491348505,1.5500100126296281,0.9403224097654223,-5.816412781359255,-7.094169741168618,7.81462860395492,3.6667836408267602,-22.694811281626645
3758,0.01666666753590107,-0.020582403975352645,-1.4573805365100503,0.15314765770733355,0.6340142348691821,-6.070796707750857,-8.475773152160643,14.31791125991252,-2.7773369837572477,-17.838128432660916
3774,0.01666666753590107,-0.20908969048596918,-1.8331176369413733,-0.8373299450635909,0.45504758770726617,-6.489183155602216,-9.44258171005249,26.05495187211839,-7.657684517206367,-17.545558987110713
3791,0.01666666753590107,-0.16128865939117967,-1.9501871423125265,-1.295666418248415,0.5017345931455492,-6.670543931359052,-9.865906491088866,33.2358029541196,-12.841759677431964,-19.251622421016716
3808,0.01666666753590107,-0.13072452123612166,-2.0495885967850684,-1.9732605593860149,0.5309139258787036,-6.867766585375368,-10.488997473144531,34.45124536220712,-7.875048457352853,-20.71780448862999
3825,0.01666666753590107,-0.122010103578493,-2.0191604330345987,-2.4253829803615807,0.5626369517453015,-6.906821999956667,-10.899603057861327,30.636120257891438,6.460339549098438,-20.085419471493314
3841,0.01666666753590107,-0.04007050990797579,-2.0401181731283664,-2.580335057142377,0.7004532578732818,-6.983136885613202,-11.017667127227783,22.25908448616756,21.985060711761232,-16.55718963307485
3858,0.01666666753590107,0.21920717987455426,-2.2142273703217503,-2.7139742967814207,1.0634741576597093,-7.201607787102461,-11.1153810670048,10.73817667251028,33.73582744287789,-4.579840767753126
3874,0.01666666753590107,0.339637174654752,-2.4199288066089153,-2.5255448978126047,1.256506666509807,-7.42486767643392,-10.908881173816322,4.942605774950843,33.04019999666877,6.7422590221853
3891,0.01666666753590107,0.37821013948135074,-2.327589545607567,-2.4010803137540817,1.342099375860393,-7.338526194542646,-10.775554068866372,-3.1898865994849532,21.614772251192747,15.52610256842243
3908,0.01666666753590107,0.4116545823130756,-2.526476625704765,-2.764530179542303,1.3587090768124908,-7.508964009746909,-11.157878146472573,-21.439671814083006,-10.425266069838132,21.750264421305584
3924,0.01666666753590107,-0.013510419762507081,-2.2434031959235665,-3.922613004440069,0.8635583190366626,-7.172278816765546,-12.355128614154458,-30.672887166193618,-24.43863370881177,21.27773144395659
3941,0.01666666753590107,-0.21490005726516245,-2.083963160073757,-4.290341570460796,0.5825388991758227,-6.957399510027468,-12.762891084399818,-20.198464224898903,-20.35041202826959,20.47804094310045
3958,0.01666666753590107,-0.38882666443325575,-1.3708321338698266,-3.9792654505103826,0.3414726464536041,-6.250661107470095,-12.454188123321533,20.466475725288326,4.367627217127653,26.458831203025
3975,0.01666666753590107,-0.3890856076303869,-0.1571726754397154,-2.6678607803821563,0.3266585967466235,-5.119101255577802,-11.09622686920166,45.988421832693724,20.19100736587254,39.44294226804379
3991,0.01666666753590107,-0.30668519151508805,0.36321430346667766,-1.8796943869382141,0.3996818204466253,-4.723460015758872,-10.23416463394165,57.580079307094934,25.706041903652043,54.00132997448047
4008,0.01666666753590107,0.06299472776912153,0.7137187629640102,-0.17464052759110926,0.7223004210874437,-4.5522745970577,-8.421156011310218,52.79459605758471,13.899471673242736,63.16924359548388
4025,0.01666666753590107,0.3714081313163042,0.6061842709183692,0.9871697933971881,0.9549869679991155,-4.768650572094321,-7.19457657329142,38.0477566017582,-3.9473759227805236,60.03178937004935
4041,0.01666666753590107,0.6345949573665857,0.5936708263039588,1.2781821994841098,1.1109093876494094,-4.850202481621504,-6.864775294604897,19.003881214536598,-23.770706094781637,48.137192515390566
4058,0.01666666753590107,0.7634405329883098,0.7296487380236387,1.324014560854435,1.0793358532560988,-4.732736962670088,-6.814347422137856,-9.622431974416493,-33.272320560517066,27.9861639542774
4075,0.01666666753590107,0.5622958101574331,1.1197340972810983,0.9762287126660346,0.7841008610380813,-4.309263128551841,-7.187543605914711,-21.57176425753647,-25.64734155037766,12.71281765873317
4091,0.01666666753590107,0.5662688054416328,1.2847089709043502,1.0504711759626866,0.7365161213087849,-4.098123885124922,-7.145045941925049,-20.880354453139834,-11.085323598397117,3.0778776869556794
4108,0.01666666753590107,0.2827934255297296,1.8552087649792433,1.3774024521708488,0.44726659670853985,-3.487303771099448,-6.844573633575439,-6.849215515719468,10.991786719034732,2.3015167644267756
4125,0.01666666753590107,0.17612444600593297,2.554004099577665,1.8696750972270963,0.3715499874724075,-2.7937328931510446,-6.348226286426186,10.902126825799973,27.567654358168625,9.36621450317639
4141,0.01666666753590107,0.08191511681638658,2.8119465952336786,2.303541146022081,0.33294346743607894,-2.5775065557181835,-5.885546815600991,26.01039342552052,42.326033418597866,19.062523511203036
4157,0.01666666753590107,0.08999335546232759,3.0420851381629705,3.007590747886896,0.4276640888823196,-2.438344168743491,-5.117755686187744,34.24485753605685,48.13651291156815,27.11049442909404
4175,0.01666666753590107,0.23735972635447977,2.8783745853871103,3.579080722042918,0.632368330825679,-2.675968683513999,-4.493318550220132,32.12468485541485,44.32319439228794,28.790377747911382
4191,0.01666666753590107,0.25280984547529367,2.765572382071614,3.6868940310299396,0.6953657985411584,-2.853438881573081,-4.338144355121255,26.436740663701887,39.641270470973446,26.07126236385638
4208,0.01666666753590107,0.4270045289950445,2.4781273130774495,3.6174113294810053,0.9270047726286574,-3.2094261563956734,-4.355801007843017,20.83852808220997,33.34888356601833,18.665595605324206
4224,0.01666666753590107,0.6110928665522486,2.255177804869413,3.4427035818725824,1.1525086414946242,-3.4756314534842967,-4.496759630584717,18.500132565133356,31.26406052942573,16.076667041944233
4241,0.01666666753590107,0.6594862375169992,2.1725451143682,3.3223189606040715,1.2373531262937933,-3.5950422612845894,-4.5878889312744136,14.176283872377722,26.184298579525507,16.363464977645776
4258,0.01666666753590107,0.81359499534145,1.7202596117854116,2.5961492968678472,1.4127284344328566,-4.07986868198812,-5.288642414203286,6.5665050213493545,14.014714040013777,17.024931232721077
4275,0.01666666753590107,0.7948558080799877,1.015076037454605,1.475053848105669,1.3881879039488731,-4.793789689525962,-6.403741837421059,-0.39858444019596817,3.3089037129894834,13.182511838708376
4291,0.01666666753590107,0.6684699005700647,0.7291741062492132,0.6626894174724817,1.2491745335234328,-5.075256853154301,-7.22031365661621,-4.716711355417835,-0.19519981620723573,5.745462495374108
4308,0.01666666753590107,0.18629907240923493,0.2337690083861351,-0.7858247987538576,0.7683889126433059,-5.555893420952558,-8.679579568481445,-5.341872593733578,-0.7973805095345009,-9.363391927501883
4324,0.01666666753590107,-0.14615560686290263,-0.06253332080245018,-1.9662340217500924,0.4508579539977014,-5.838708492058515,-9.868750190082192,-6.083526123438474,-7.06993307874843,-19.61737392842902
4342,0.01666666753590107,-0.3742071143850684,-0.0935977366298437,-2.4753455734044314,0.2362776302061975,-5.847686748284101,-10.392930716052652,-12.753569982416051,-15.5167708224689,-30.28312925139601
4358,0.01666666753590107,-0.4333569302290678,-0.23739012149274347,-3.601189093476534,0.20605083424672482,-5.923254322704673,-11.565640616717934,-30.867509991498544,-13.475088968221396,-43.309389413782945
4374,0.01666666753590107,-0.6056465107798576,-0.41205286091566085,-4.357330117106438,0.08678966405019163,-6.018423254173994,-12.373534039416908,-35.80243778004865,1.9234973834914808,-44.89819386756546
4390,0.01666666753590107,-0.6817508224256337,-0.6064046356707811,-4.3316006325662135,0.0921766177855432,-6.1352902227103705,-12.394034391131996,-28.812903711794085,14.186921892010016,-42.78955396133703
4408,0.01666666753590107,-0.9165112530019134,-0.056101241928339,-3.779794433045387,-0.01646028254404664,-5.5054655484855175,-11.883171611896156,-22.55053890333576,19.434567330388212,-34.47489489220829
4425,0.01666666753590107,-0.8042886031400411,-0.41229134584665295,-3.446707556816935,0.1777691810056567,-5.798306339043378,-11.582848356628418,-30.83770987614978,14.263623208841967,-32.451625520415845
4441,0.01666666753590107,-0.5257068587549031,-1.1783557975977659,-3.1624446249902247,0.5612905055724084,-6.443993183788657,-11.36377890472412,-43.6473642493881,14.49382022066526,-39.72840660930988
4458,0.01666666753590107,-0.6219060831200331,-1.4338842178493738,-3.0211984174787996,0.5576991300169378,-6.590787673076987,-11.278635108184814,-44.34645118641183,18.703692692967245,-43.31459060283591
4476,0.01666666753590107,-0.8764470267042517,-1.1227835479795931,-2.582428230029344,0.40402138402089477,-6.179882228630781,-10.886435533252358,-34.39720490549398,23.52646536025115,-38.39911860813658
4491,0.01666666753590107,-0.9911001185834407,-0.7969231158733368,-2.206305929672718,0.38352103230580686,-5.784390041893721,-10.537331003680825,-19.039201830282025,21.865766335265082,-27.024486979517945
4509,0.01666666753590107,-0.8698658947482705,0.0794248343706131,-1.3383528828084468,0.5687722396299243,-4.866961893242597,-9.683049339294433,-6.741558074021727,-2.240829466434154,-5.375544999454918
4524,0.01666666753590107,-0.9602493455067277,0.6157640001684427,-1.064767412340641,0.439335712377727,-4.3156969609916205,-9.424925057330727,-9.759396050295466,-27.491439692315037,12.627216605412693
4541,0.01666666753590107,-1.423300718384236,0.6650827423498034,-1.2056214056640864,-0.1699886101320386,-4.231152007128298,-9.609577860370278,-21.231151261364396,-43.124065891032984,27.862614369928334
4557,0.01666666753590107,-1.5979628732852638,0.5000456171452999,-1.3446739025235175,-0.4758477991517633,-4.3529573088496925,-9.792135152435302,-25.152159665740907,-42.400298065443415,26.352763487856578
4575,0.01666666753590107,-1.9209959730111061,0.3704024614050984,-1.396805656298995,-0.9117422119691967,-4.434659148241579,-9.885808292388916,-22.975166641393574,-32.41259440440381,16.530358942467746
4591,0.01666666753590107,-2.2945408240951597,0.4989893860906362,-1.008158805412054,-1.358260748523101,-4.256141486956179,-9.533561373138427,-10.578201689317535,-3.6803616300099224,2.737258714368082
4608,0.01666666753590107,-2.276934147994965,0.649139615547657,-0.43022097029089923,-1.323993737262115,-4.102613305498659,-8.955660947418213,8.608336712871775,18.164700267446737,-0.8643342926471972
4625,0.01666666753590107,-1.927272276801616,1.1821943528473378,1.2945353683918714,-0.9271548851564526,-3.6147944249808788,-7.200112580108642,31.70141461745457,24.33131094638336,4.526107242665812
4642,0.01666666753590107,-1.503142462992668,1.9003706797420978,2.989000029185414,-0.46597164423838255,-3.035247985619306,-5.421370384216308,58.60733292807568,12.4227574539293,18.56268173000504
4658,0.01666666753590107,-1.3651168249629437,2.236315868011117,3.6136452549457547,-0.34581272148452696,-2.8487995313346386,-4.7093952500492335,71.06981220089683,0.20927931736629143,28.35744962246471
4674,0.01666666753590107,-1.3071817917361854,2.605145088750124,4.44106404684782,-0.3410242450989783,-2.648135504692793,-3.783288120380044,75.9607194202462,-10.183795830789732,32.40695608324396
4691,0.01666666753590107,-1.0274585491657255,2.676650236037373,4.659004202461243,-0.1654994089540094,-2.8001673101127147,-3.4299931533813472,72.90904554059787,-22.507167202106178,26.692353663200443
4708,0.01666666753590107,-0.8259962117530405,2.6591531577914953,4.591570834657549,-0.051026569012552495,-2.9676117887198923,-3.4027596940189597,65.23924853667214,-29.13746747096392,18.06804796804918
4725,0.01666666753590107,-0.52541189439632,2.261429851001501,4.159773993352055,0.14469941670522093,-3.5387791067928074,-3.719243225970864,59.49227955769921,-27.244082683975734,3.8902738337719245
4741,0.01666666753590107,-0.30469577126353975,1.6789041035681962,3.790135794317722,0.3197754131041467,-4.238483957451582,-4.005050464630127,54.4087336829988,-21.023761104953422,-8.776245814559138
4758,0.01666666753590107,-0.09261603211611509,1.4432090955555439,3.440130516514182,0.5156509633604437,-4.569481752446293,-4.283077132415771,40.5359364597859,-17.231609341911078,-18.708120363096704
4775,0.01666666753590107,0.21346271793842314,0.7943623254746198,2.677732770577073,0.8236051518980413,-5.28669595631063,-4.9916117707401515,13.971078522727504,-18.51497968884167,-26.839766220962243
4791,0.01666666753590107,0.25610592787861824,0.17702771498858927,1.7561913413882255,0.8734344739500433,-5.911880695775151,-5.906345858001709,-0.33621488795511406,-20.40777878710853,-31.970701655671494
4808,0.01666666753590107,0.15734598618000745,-0.05198211617171764,1.3778005115777254,0.7890389384947717,-6.1269111014217135,-6.29465602428019,-7.136712692037291,-20.730472781993072,-37.76896535531121
4824,0.01666666753590107,0.02677219852618873,-0.5350467878997326,0.44206864447295663,0.6869859466001391,-6.5756736905753606,-7.255029580688476,-10.969901939160364,-22.912738712379657,-45.55143998997465
4841,0.01666666753590107,-0.01283390874043107,-1.0303899264425038,-0.5520581284552812,0.6772595023557544,-7.037904248589276,-8.272416233173013,-14.122139255279738,-21.748432223060725,-49.24776078386713
4858,0.01666666753590107,0.0544108046233654,-1.200562368708849,-1.0248808076322078,0.7821555356565862,-7.165096211785078,-8.775048359680175,-19.816248546492282,-15.70637516628116,-47.59722508036604
4874,0.01666666753590107,0.34456491338051853,-1.5599650049328804,-1.8099030578315256,1.1394900603696703,-7.448360195702314,-9.611523149219154,-27.630118145675684,0.8933671856531,-36.716248789104654
4891,0.01666666753590107,0.6205054956071079,-1.925430302196741,-2.382692424148321,1.4752769162718207,-7.747785625347495,-10.22743152629435,-29.952046076663397,11.917735828019497,-22.86797023746481
4908,0.01666666753590107,0.664683002442494,-2.1544261048316953,-2.5288760880619288,1.571194547216594,-7.916277567180991,-10.41238360454142,-24.67652578250873,17.384265777408153,-3.937510141411263
4925,0.01666666753590107,0.6668850425314158,-2.400294131812453,-2.585105340284109,1.5993264897886663,-8.107215149578451,-10.505458194079994,-20.018724381795433,8.66011893829058,16.49139271325282
4941,0.01666666753590107,0.7356345344349742,-2.7384803770065305,-3.239215145459771,1.638830671050772,-8.398558395054936,-11.196484063720703,-31.173813239922353,-7.6756197401931745,23.411649880303237
4957,0.01666666753590107,0.6763620420593768,-2.993400309970975,-3.7153994100242853,1.515230156475678,-8.582763454326987,-11.729493792834877,-40.92902750689848,-17.899842606906567,25.067912697423385
4974,0.01666666753590107,0.6504355736423283,-2.703492065733671,-4.254255527079105,1.3934250008847564,-8.19146053597331,-12.34749651184082,-31.82131517323956,-13.280970723141403,26.261662424706948
4991,0.01666666753590107,0.5821041610203683,-1.811868220424652,-3.901213658058643,1.2666820966307073,-7.261463413128256,-12.025476973071694,-8.257031055554048,-0.351501651730396,34.623007544360014
5008,0.01666666753590107,0.5256062479246407,-1.2178326524615286,-3.3247727834969756,1.1659759162351488,-6.68475950371623,-11.44099249278605,16.429161152177542,14.94057264899204,50.542266046692134
5025,0.01666666753590107,0.46826950938459483,-0.37429450040757656,-1.9266297411143778,1.0485105068815872,-5.924899751824141,-9.990405561938882,29.61046831627106,23.756871546617777,71.74947066482646
5041,0.01666666753590107,0.5244207644671202,-0.22336685683727264,-0.5501356359601021,1.038335149825923,-5.8446945807307955,-8.569297239032387,26.002632623076092,18.000309566955575,79.02005677214329
5058,0.01666666753590107,0.45201833954658355,-0.26417408352196214,-0.09647592241466045,0.8765769366942345,-5.939414599388837,-8.08282538920939,15.673588550717808,6.870865080954292,75.56314093884893
5074,0.01666666753590107,0.23174404189717024,-0.3285644303679466,0.5511082803845405,0.521935797517281,-6.030992812889814,-7.4218760934025045,-3.199309699218632,-7.985470418117156,55.5237825555709
5091,0.01666666753590107,0.1695269474370405,-0.20578268482983111,0.7954419374048709,0.36496595117328684,-5.885844337242841,-7.196371640014648,-21.454351598156656,-17.36407744576889,34.07232012743315
5108,0.01666666753590107,0.22997122353836894,-0.04058043219149112,0.8403308804452418,0.35119931902685203,-5.6568988034904,-7.197868600574135,-39.667430095494595,-18.170070503681657,14.679169356624604
5125,0.01666666753590107,0.22429160699937492,0.6093038642436266,0.8912006514608859,0.2928406307276571,-4.876090371593833,-7.237522565570473,-50.626629128225545,-10.306804122647078,-2.491450024536255
5141,0.01666666753590107,0.30357237499048934,1.1732669500261546,1.244175300464034,0.3675098178366665,-4.207209698265791,-6.9544082192569965,-46.13828642836756,-0.018657382089403853,-6.184504067014766
5159,0.01666666753590107,0.3073549805354327,1.4573346515417098,1.486331613445282,0.38711233479604124,-3.8394010527461764,-6.766463388934731,-30.311389159086936,8.878154798296666,-1.248818340910203
5175,0.01666666753590107,0.28923929546717553,2.1120266405195,1.9794675973325966,0.40102860454623585,-3.140143945854902,-6.30138913192749,-0.5366598091972435,22.427735517153515,16.531552518025205
5191,0.01666666753590107,0.28654890560572965,2.4545295798689124,2.496399467349052,0.4213793643233366,-2.8176749097526073,-5.7713733239322895,17.410823260448456,29.951322076611376,31.890829423517367
5208,0.01666666753590107,0.2560679704884067,2.558108027765155,2.7354899630188942,0.40925870928564106,-2.767696534618735,-5.497536509051919,30.23895500293895,34.14605543461803,41.13680527654485
5224,0.01666666753590107,0.184992866915185,2.4805706145763398,3.080405808728933,0.357334488180466,-2.9471114370048044,-5.0854339637756345,37.790613639885564,34.97024070138512,42.39532568772765
5242,0.01666666753590107,0.0955568713409826,2.1091946319639683,3.2504958334088325,0.28356316779321056,-3.4002146857112643,-4.8600797325134275,36.3245647609611,34.84007095618302,39.4734834589175
5258,0.01666666753590107,0.051120859699882566,1.9745465075433253,3.2053473626494404,0.25677803672021254,-3.607911095207929,-4.854693363299965,30.359603464438056,33.39728911666621,35.55963138524386
5274,0.01666666753590107,0.1611350397320464,1.628021473070979,3.020981559857726,0.3838203805785626,-4.0246518216788765,-4.989516844287515,17.821940884327987,23.21035396017921,31.35033264883216
5291,0.01666666753590107,0.11315335484072565,1.1024901170134545,2.3724486780315637,0.32276825651088725,-4.580256244438886,-5.617096954455971,9.848090325536313,5.972026273445778,29.063749239251973
5308,0.01666666753590107,0.13045458172094077,0.8176321419030428,1.8880384369134902,0.29014722235864027,-4.882524204033613,-6.0902504730224605,6.164966310893944,-16.200469343292593,22.55047913918052
5325,0.01666666753590107,0.2040119488302618,0.3345698082625866,0.6691372784376144,0.2576758988753892,-5.381715250176191,-7.299023620715737,5.088345363252814,-36.129778011116095,5.609408542202039
5341,0.01666666753590107,-0.031480851141177116,0.046349078720808026,-0.572027149772644,-0.051774654283362906,-5.6765019141048185,-8.53562877818644,-0.01681790008812835,-34.00485493390635,-7.036190663588098
5359,0.01666666753590107,-0.3340162660330534,0.03445347374379635,-1.2047446228295564,-0.3972879019142594,-5.677099879997968,-9.176227359881997,-11.43994872765147,-24.65529755456833,-17.039537592261148
5374,0.01666666753590107,-0.6653143591485917,-0.16041034218668937,-2.33614343894124,-0.7399580510567407,-5.821350530022382,-10.343550306811927,-24.773039770575597,-15.122530596028472,-25.339969377348748
5390,0.01666666753590107,-0.861949714796245,-0.29699264954030513,-3.535372513219714,-0.9243115697556175,-5.897965567669272,-11.584943867602943,-32.55967569799086,-13.83580235734717,-32.40726002666203
5407,0.01666666753590107,-0.9478890456274152,-0.33081951581835745,-4.2228515040338035,-0.983568058561196,-5.8622015958487985,-12.32056291220784,-31.821813777048973,-8.469372245339635,-38.80675795818129
5425,0.01666666753590107,-1.238509237526357,-0.9407797981441021,-4.671847901943326,-1.1988966137539827,-6.402393345421553,-12.816760037231445,-16.76019993068055,1.0705624631256234,-49.41186973905503
5441,0.01666666753590107,-1.075973792944476,-0.6054694006472826,-4.352244776666164,-0.9599253377167507,-6.0398214315116405,-12.514642299762368,-9.127951037943312,-1.0168703460601531,-54.973194176387
5459,0.01666666753590107,-1.0238254533603788,-0.5693874489188194,-4.004600967296958,-0.8473979144883341,-5.980415302819013,-12.18139935618937,-12.112322794831282,-17.851203122279614,-55.24767557346772
5475,0.01666666753590107,-0.46280331640057265,-0.8522901983082294,-3.648967912739515,-0.268450025541801,-6.213850549206137,-11.857882856860757,-19.36774075954881,-40.11829429770172,-58.621239193225826
5491,0.01666666753590107,-0.3701050128284842,-0.9987269602000712,-3.353545288994908,-0.17836818807842209,-6.313060280498862,-11.59317393580973,-20.908766332539795,-36.242797151312296,-59.395864607375316
5508,0.01666666753590107,-0.5660593274094164,-0.815850519183278,-3.2189193764060735,-0.35314492753613735,-6.088154962047934,-11.48498594829142,-13.7260104815338,-17.664964354180874,-56.239828852303766
5525,0.01666666753590107,-0.9093930184945463,-0.04776245265007019,-2.1381039155840873,-0.6212955134736373,-5.302407904705405,-10.41313179256022,4.057324466057981,5.07468797312055,-40.09278695624631
5541,0.01666666753590107,-0.8197768988467753,0.8088894479990005,-0.6844681185603141,-0.47345359749160704,-4.458152544292807,-8.949376752582191,8.044827323325507,4.5719565950168155,-25.15026599579352
5558,0.01666666753590107,-0.5699185235882177,1.059340126594901,-0.22114742722213268,-0.20739790147412568,-4.214990853661298,-8.480711777606606,-1.248773837958892,-13.785659377329168,-10.576690509963669
5575,0.01666666753590107,-0.6046653907880186,1.1057219385415316,0.10623919153809547,-0.3187283334703184,-4.136880609020591,-8.176498529163002,-20.19581581904823,-39.71447643849764,4.437893215100982
5591,0.01666666753590107,-0.8845667664043605,0.9867612125962972,0.04757189851403236,-0.7046436405015177,-4.20152346932292,-8.272266595569253,-29.298000822121317,-48.708612971543005,5.943154210050488
5608,0.01666666753590107,-0.8852010457199067,0.7511398543417453,0.09364683646857738,-0.8182186228543752,-4.368669257244467,-8.270171084594725,-32.9938195971098,-48.46418440681034,1.6344418568258372
5625,0.01666666753590107,-1.1480583475548773,0.7798609219133853,0.09154781836271285,-1.1985974070451222,-4.244320408520102,-8.330175763702393,-30.915601353444604,-31.677980238412257,-8.131294103123283
5641,0.01666666753590107,-1.390132462145388,0.9462848253011703,0.46757425712943074,-1.4685436076951213,-4.021958344811201,-7.987057322803139,-18.007718614657747,-5.36232132633495,-13.55553408249216
5658,0.01666666753590107,-1.305356914396584,1.0027630838483572,1.006933647531271,-1.3474868684518615,-3.951778308647871,-7.455992882537841,6.545725878346883,20.90602742668262,-13.429788592324932
5675,0.01666666753590107,-0.9761495099499821,1.569594418543577,2.3296213436961173,-0.9151838083570124,-3.4578245786368846,-6.090100835418701,41.97147829878251,34.63527456410936,-2.2888653330932076
5691,0.01666666753590107,-0.6391614615645259,2.112667861032486,3.7023417755305763,-0.5125090212060603,-3.029112843865156,-4.647295059967041,61.085038691011164,29.62837707227483,10.46069852993122
5707,0.01666666753590107,-0.580850142371282,2.3733926808834074,4.182355827516317,-0.4218286241944879,-2.9131437009513377,-4.075829635730385,70.52015955762923,20.056164063730858,21.111404384835733
5724,0.01666666753590107,-0.38709874466210603,2.5290309863626956,4.807804770874977,-0.2380736376443412,-2.963421935814619,-3.3150720582157374,71.45754837970011,5.831309862391529,26.13232937767817
5741,0.01666666753590107,-0.09713474251641892,2.0961147856384517,4.94935259168148,0.018554861936811357,-3.54341787250936,-3.072659140124917,66.77770766608248,-3.54228594084353,21.537191547505156
5758,0.01666666753590107,0.232620788199082,1.5032780720710754,4.698572242739797,0.29688080949655266,-4.308065443199872,-3.200449069213867,55.326366182895434,-10.813234475073196,6.950622053666177
5775,0.01666666753590107,0.40400636911485344,1.1574883661359547,4.446436972057819,0.4432263722738716,-4.752040213555097,-3.379565865436196,38.983608631265845,-14.100603668826688,-7.004334234412335
5791,0.01666666753590107,0.7139304329533129,0.30346973659992216,3.41965646828413,0.7407059673641925,-5.664679958885908,-4.361786511993408,18.73534891222296,-18.343019431202844,-20.324566592450264
5808,0.01666666753590107,0.8345315465167165,-0.6159826113551855,2.1101357122063638,0.8728359646341995,-6.6045537481009955,-5.655553818622231,-1.4727098074691052,-14.399372364822325,-35.388309750292436
5824,0.01666666753590107,0.7567352631960064,-0.9293851284265517,1.3486340383261441,0.8366236325582954,-6.906074104198813,-6.425888202777505,-9.022842110579631,-5.535509310477086,-43.79895346782736
5841,0.01666666753590107,0.674482658053562,-1.2326678180217743,-0.2006108351498842,0.8273460737257264,-7.1851476506888865,-7.99259391414225,-13.06072956580705,9.178235744386592,-44.75415200815906
5859,0.01666666753590107,0.7097489825502038,-1.5003490328818558,-1.3168144202172756,0.9928453000166453,-7.4105018819510935,-9.137322167426348,-15.6277631040289,23.204922252241754,-35.41654575232127
5874,0.01666666753590107,0.5687760390222072,-1.6449918970942496,-1.8625509444355963,0.9500488905424251,-7.518989144676923,-9.706094114795327,-17.33254929256011,26.35575681826034,-25.216220009966456
5891,0.01666666753590107,0.6323359994586557,-2.2958500069975853,-2.893657494714856,1.0978908795896918,-8.130558031243085,-10.761937046924233,-18.46866246853252,23.799155540222035,-18.36162657404925
5909,0.01666666753590107,0.6522073325552046,-2.9277210923582313,-3.7459038538813587,1.2134110731596126,-8.711002880749106,-11.645846372333168,-15.890559754987018,25.018298203292414,-11.660944620889111
5925,0.01666666753590107,0.5907857723869383,-3.1172593293517825,-4.006079223155975,1.2231374808713793,-8.87425692192912,-11.919832824817298,-7.658943833334588,33.43360523248317,-1.916581816956843
5941,0.01666666753590107,0.6652734426163136,-3.0043466513991355,-4.110084956553578,1.364545089489594,-8.756492712292074,-12.0217360329777,1.4441755182726135,36.10815021710925,10.053252132730572
5959,0.01666666753590107,0.7518550168737769,-2.551789346137643,-4.228730625200272,1.5050547263547778,-8.314163371056317,-12.127978731647133,-0.3318066144956791,27.07933339855315,25.669790674632203
5974,0.01666666753590107,0.7391118551567196,-2.460989131271839,-4.399596310427785,1.4906895163938403,-8.219442767876386,-12.301857042694092,-9.268904798071219,15.60579209301626,34.05640578666702
5991,0.01666666753590107,0.4608581006169319,-2.1485265253990886,-4.522786636766791,1.1828849654600024,-7.89188546872437,-12.438775450134276,-9.96334037627017,12.40939675013911,40.523146930565055
6008,0.01666666753590107,0.09087254944965242,-1.3670283576726914,-3.8103742802262306,0.765845109912008,-7.1206538434684274,-11.723059375873207,13.333513660879017,20.232070463162657,50.66001167779398
6024,0.01666666753590107,-0.089538451301679,-0.8391063070863485,-3.2983056323319673,0.5505164519712329,-6.655878861668706,-11.167604006195068,38.432094761449406,27.71023284954535,61.58942084045993
6042,0.01666666753590107,-0.49312414731904863,-0.053311903470754624,-2.0113994436442852,0.08439542585741729,-6.020219489941001,-9.772383573260903,57.27194898306815,29.494549760772188,76.10974048755754
6058,0.01666666753590107,-0.6243604174695908,0.08940905276834964,-0.8083546104699373,-0.1171663533417508,-6.005405367168784,-8.474277360644937,57.241991773368476,23.290374748947784,78.72581905288833
6075,0.01666666753590107,-0.5523728934928774,0.13648176958858965,-0.29862229656875133,-0.13093304942026734,-6.074088442772626,-7.876325496020913,49.06735499731958,14.260868081285514,71.64845899719114
6091,0.01666666753590107,-0.5299998432410881,0.09451368243098258,0.5361246462643147,-0.21473007099311797,-6.2294128599971526,-6.9524623458862305,29.926050376682326,4.34029792271114,43.8562963210042
6108,0.01666666753590107,-0.3626718671530485,0.1951432173937559,0.8251450017511844,-0.09502002451792359,-6.168959268078208,-6.631190410614013,8.300116742612135,-1.0074200322915001,15.169020278614163
6125,0.01666666753590107,-0.3194659087635576,0.38056758932769297,0.8930009788811206,-0.05446827043164521,-5.977422550743818,-6.5686418922424314,-14.13725361013933,3.370434539344601,-10.689804419034603
6141,0.01666666753590107,-0.334717582702823,1.1882353865772486,1.223833354181051,-0.021398323468118905,-5.124638431438803,-6.274155672565103,-28.746859197614647,13.632001465345038,-26.994171184886845
6157,0.01666666753590107,-0.2652775512518361,2.028182820662856,1.7447423111349343,0.16714505726918577,-4.2012241941154,-5.816863155475258,-28.717274233224735,25.459316687810965,-32.84218598244093
6174,0.01666666753590107,-0.26322368746194985,2.345025249055028,2.063310248145461,0.27548268239125606,-3.833115104344487,-5.533449533954262,-18.58951071306485,32.14530519651912,-26.435772484387037
6191,0.01666666753590107,-0.25543591966256496,2.9140146385669707,2.5752479631364342,0.38441885792836544,-3.23725875069499,-5.035455588641763,-5.139091534351893,35.84860644374335,-14.997087341732017
6208,0.01666666753590107,-0.39024712569043035,3.2043028220325707,2.9233810173273085,0.36092575413808226,-2.9544442641109225,-4.671088023486734,11.32661539875345,37.43715476543199,0.9659849031350293
6224,0.01666666753590107,-0.4882186204250902,3.2222236786484717,3.0280057594060894,0.32830475651845337,-2.9706045407950876,-4.5319244674682615,21.81671191664605,36.25054941602026,8.557770261125233
6241,0.01666666753590107,-0.5662540462639183,3.0906326037108895,3.2193875784397123,0.31528628499135375,-3.1793489980399605,-4.269310472869873,33.95818425130766,30.55986461090283,11.187311983083747
6258,0.01666666753590107,-0.376780618134886,2.8359628461152315,3.278725318071246,0.5388448650084435,-3.5069057126700875,-4.144214020648598,37.714412634410316,22.516789231099434,10.993860535221476
6275,0.01666666753590107,-0.20543781691491603,2.7062007401704786,3.1619501194715496,0.7261912179809064,-3.713256552776694,-4.192845657348633,38.27042418379521,14.887981899930233,12.914942593067712
6291,0.01666666753590107,0.004539689256250858,2.390598667228222,3.0119840144097805,0.926106983538717,-4.127752715191245,-4.256592445594072,34.75319094994046,4.688434372253982,18.40795233209486
6308,0.01666666753590107,0.2564743227995932,1.8577046734482048,2.49110662163794,1.1439793346129357,-4.727350593456626,-4.721366258350014,30.50338236156141,-3.385944404845819,22.722173019441716
6325,0.01666666753590107,0.3315954686269164,1.5643980189442634,2.065557150289416,1.1638811359129846,-5.078399827355146,-5.1003983086735,25.22472701057771,-12.135593249333516,23.047826193784168
6341,0.01666666753590107,0.12031798577308654,0.877936680740118,0.8948059824764728,0.8729856342040002,-5.820303651317953,-6.228216928210855,13.98073214134567,-14.026476479538186,13.849398702663727
6358,0.01666666753590107,-0.19869864485301075,0.1511421631038189,-0.14445581720769404,0.5138553121153265,-6.56310413185954,-7.256525956726073,1.0260043366928702,-14.153780960383468,2.2817866957921358
6374,0.01666666753590107,-0.35154344715625047,-0.10382628517746925,-0.6197755738973617,0.3384801135741174,-6.804619808849692,-7.746739331164956,-14.66961050688117,-18.360156375830407,-9.933118496740157
6391,0.01666666753590107,-0.631427067920193,-0.3945966992020607,-1.5213994196951388,0.03920497911982238,-7.030123677715658,-8.711004049792885,-33.56921863845377,-29.02403851941752,-23.924110435992834
6408,0.01666666753590107,-1.1218236899714917,-0.36633389679193495,-2.7160926041096447,-0.4631286028321832,-6.9238803945243355,-9.97798505630493,-43.45816459428416,-32.524476318103204,-29.963346624645183
6425,0.01666666753590107,-1.349107062665373,-0.33254853156805037,-3.2261306229591367,-0.6982092052735388,-6.795940243309736,-10.57264606269002,-48.453730802285634,-31.721457807573973,-33.68679692992095
6441,0.01666666753590107,-1.3187816286370158,-0.7476403217881917,-3.764053843078017,-0.6624458179749548,-7.0832444425284855,-11.220576302447915,-42.3937649895023,-26.75764002638201,-36.97385278874627
6458,0.01666666753590107,-1.117051507133618,-0.5972124444335699,-3.6558997578293084,-0.45474882395640015,-6.852652895134687,-11.17927632381022,-32.98862865334059,-29.954631303264247,-37.68229025474375
6475,0.01666666753590107,-1.031448787845671,-0.3316547975987196,-3.235792185273766,-0.37289705469980833,-6.5191106763541695,-10.81550730907023,-31.934003049261015,-35.092712823392624,-34.87990461942253
6491,0.01666666753590107,-0.6619103959240019,-0.6805284410238266,-3.08981135045588,-0.03785860601216554,-6.752694975823164,-10.765078852081299,-50.92483177229372,-44.065136185066514,-38.18905272511826
6508,0.01666666753590107,-0.2552612937480211,-1.0272019440561533,-3.235313461846113,0.35957894263900814,-6.974607542198896,-11.008390180316567,-64.78683046642882,-32.96673106686153,-52.86685604390886
6525,0.01666666753590107,-0.4985085437711328,-1.1423574324995278,-3.252050077113509,0.16460107187479733,-6.940490168541669,-11.133187357330321,-69.4244811015433,-7.618610712512017,-65.13105151002996
6541,0.01666666753590107,-0.5338246256936341,-0.6634662470638751,-2.77380478836596,0.28386231513656673,-6.270413563427328,-10.777798632922767,-52.5110919806104,21.658449603387687,-63.723615899467966
6558,0.01666666753590107,-0.5706835531439631,0.29597265884280205,-1.443928642001748,0.3830720464292913,-5.212026207512617,-9.501389872851968,-29.296583557868537,28.393405445802948,-46.41519595769822
6575,0.01666666753590107,-0.5631633137069643,0.8593898011803627,-0.6171680217474699,0.48796800666488704,-4.5968666029781104,-8.697686303058266,-13.04870074890501,13.061314400754732,-22.575346150401245
6591,0.01666666753590107,-0.596771276537329,1.3022861286491154,0.24861118820905684,0.4441241887632757,-4.122814089745283,-7.854179130664467,-9.23839946569065,-32.47813689967925,2.8687481801838786
6608,0.01666666753590107,-0.8992538287308066,1.3285054425328968,0.5836036057978868,0.03142360452860594,-4.074331506127119,-7.547421458435058,-13.761325120863706,-61.1295373734538,7.5269657955497244
6624,0.01666666753590107,-0.8682093597128987,1.2096680507063864,0.6048223349153995,-0.09217698311172426,-4.15633349750936,-7.566725293841958,-22.738031011147193,-74.02884822483229,2.205827308258778
6641,0.01666666753590107,-0.9732412212878465,1.2017208910942077,0.3674731299549341,-0.3896565759187564,-4.076277379497886,-7.877073684039711,-37.41170548058452,-62.15407257914488,-12.099900388278321
6658,0.01666666753590107,-1.0007133117116986,1.3019061894208193,0.41574820830225945,-0.5059250305727124,-3.887135448345542,-7.89084034358561,-41.5571214576891,-41.814411268628895,-23.451539892603407
6674,0.01666666753590107,-0.9656013740591705,1.2863538155019283,0.558597174835205,-0.4996401416169479,-3.81186714913249,-7.805696547046304,-37.47725480604913,-17.72848852855658,-29.30690738879901
6691,0.01666666753590107,-0.7683842730008065,1.4297177458196877,1.2077186702042817,-0.26500852505210787,-3.5809763265311716,-7.207145547485351,-16.794958763366747,8.148463491149402,-21.975708475240193
6707,0.01666666753590107,-0.5454468205567449,1.7662328429311513,2.1821663446724413,0.0007479322904720902,-3.2336674482047556,-6.236446996417642,10.088318323929418,11.175244746367628,-7.039432015236091
6724,0.01666666753590107,-0.4415712163448334,1.9393015911608933,2.83452901391983,0.11926087793558836,-3.114855190819502,-5.550657273864746,38.085964679975255,2.8983730584917513,11.263736677254313
6741,0.01666666753590107,-0.13002930551357567,1.9660884757995605,3.695410514962673,0.36915567621439693,-3.239653536877036,-4.600459074512123,60.38070958379945,-18.865322289486425,29.568493388726743
6758,0.01666666753590107,0.35898214578963816,1.530938816934824,4.011052919915318,0.7571660192960873,-3.814410988396406,-4.201076310077309,64.07212630186787,-31.902584179078957,34.765177931933835
6775,0.01666666753590107,0.5822891621984541,1.3494336642712355,3.9458722994744777,0.8566750440626405,-4.131343433159589,-4.18162283706665,59.09495379330123,-37.45902844624896,32.63405645805231
6791,0.01666666753590107,0.5300624236159026,0.8875292694717645,3.505492923262715,0.6510729764967225,-4.739321017235517,-4.525340997424721,41.7506787734835,-31.990010600455122,20.384520285437343
6808,0.01666666753590107,0.5061918282827362,0.06761866124272346,2.843442388215661,0.5481223051100038,-5.628168968090415,-5.1394537232548,23.493832423944124,-24.335902541052903,6.72072215507178
6826,0.01666666753590107,0.5319450224921107,-0.3566121287226677,2.4246225173830984,0.5301658094980856,-6.081570907482504,-5.537489164733886,4.858454856168525,-19.045932981709072,-8.02259164248253
6841,0.01666666753590107,0.4871323595583439,-1.1182716235131025,1.6056798774033785,0.473602787570795,-6.825867764061689,-6.368876275745034,-17.015346769768254,-15.870938329048863,-27.26178994939899
6858,0.01666666753590107,0.9567590922381728,-1.9297189393013714,0.35822599366009233,0.9561840699351616,-7.586924032261967,-7.652167781066894,-30.42567188427959,-18.125850151447704,-37.11670961033167
6875,0.01666666753590107,1.0679124323680995,-2.2391268337786197,-0.28523148459792136,1.0866680284833128,-7.825746232384443,-8.344990470996498,-35.13448626035642,-17.319454112373904,-40.33774827573423
6891,0.01666666753590107,0.6743762020044028,-2.252888232627511,-1.3366355574965476,0.7315779890531674,-7.745989974102377,-9.460239531818031,-30.46017458487191,-6.806896944282538,-35.58022099049687
6908,0.01666666753590107,0.41857948620542884,-2.345901447367668,-2.3779952062427996,0.5205889220861252,-7.77636640766561,-10.543166870227456,-28.40644939957038,8.682445119140061,-25.261063616962176
6925,0.01666666753590107,0.41539051743838934,-2.614536601951718,-2.79711727489233,0.5786483397443778,-7.9845123144954435,-11.001207575336098,-27.318026311930293,22.51375150446607,-12.676754259915503
6941,0.01666666753590107,0.5115666166562587,-3.2147248473256824,-3.430880457609892,0.7683888213117607,-8.515575585716963,-11.677419322204589,-18.86720229905547,35.14402803462693,0.06388481369996556
6958,0.01666666753590107,0.6365435341510921,-3.7154999477893114,-3.3693601132422684,0.9723448935026302,-8.986186434063315,-11.63237898799479,-10.207671610807159,38.780622239322234,1.690654847303571
6976,0.01666666753590107,0.6126657784247771,-3.590592296138406,-3.389327965515852,1.0250173300260677,-8.840887736290693,-11.661857595935464,-10.732925964585833,31.813812210436303,0.8816224085709986
6991,0.01666666753590107,0.7178846504718065,-3.413361752054095,-3.6916274892926215,1.1879727170530705,-8.616132055443526,-11.991060324206948,-22.384560183862572,12.965182903281386,8.080518476833408
7008,0.01666666753590107,0.7629137326352298,-2.8372569775789973,-3.930181393867731,1.2306193975919857,-7.993939483532309,-12.25846213760376,-19.082976512672637,2.951053240343002,20.153210806552984
7024,0.01666666753590107,0.7103736903198064,-2.432089200001955,-3.810573017668724,1.1420339361662044,-7.5707637555778025,-12.151920748248696,1.8710948915186736,-0.19237229131362235,35.54737802587286
7041,0.01666666753590107,0.2783229473184794,-1.396730837497115,-3.1301433608442544,0.6382041243070736,-6.603207009667158,-11.432761840057372,40.344175483743214,10.834073382230905,58.144150479700436
7057,0.01666666753590107,-0.1711472055826336,-0.5520376701891422,-2.0543997964590788,0.1330275740141049,-5.8734244161307805,-10.286088882446288,58.57430896343867,20.409863702352673,72.1124610682668
7074,0.01666666753590107,-0.17325018747756257,-0.3252443460345268,-1.522878260076046,0.06898271613754332,-5.783642438396811,-9.666440149798989,62.67867891872605,20.747234066216283,77.67368988295038
7091,0.01666666753590107,-0.034410730580613016,-0.3194464734107256,-0.44889059944748877,0.11252727709794416,-5.947046701702475,-8.47876648875773,50.79198800803156,13.828061191696607,68.6669174999405
7108,0.01666666753590107,0.04677677521412261,-0.21928221787214278,0.24006255557239053,0.12524647341752423,-5.934326336339116,-7.728782234191894,30.15159005326532,7.025982092099867,51.185342017427175
7125,0.01666666753590107,0.4949635646406561,-0.06598433803915978,0.5465379037290812,0.5063734753098222,-5.819106550487875,-7.395240599933266,-2.653078980725202,-2.2781645610979133,21.595173023369394
7141,0.01666666753590107,0.667335343582183,0.11476853495240211,0.6287614289075136,0.654514673349238,-5.612756294903159,-7.331494980731606,-20.790884097654544,-0.874515756822159,5.549250370426682
7158,0.01666666753590107,0.5638686489647254,0.9366425522089004,0.6661386811435223,0.554107894883718,-4.7375253659904,-7.332242584228515,-28.39017305877824,5.792034140229839,-2.1615497531905237
7175,0.01666666753590107,0.5685545782912522,1.5588701954334974,0.9144196144849062,0.5913676570782554,-4.045601086205243,-7.132925880542397,-17.888991143862707,15.236063707959715,0.1012385313013835
7191,0.01666666753590107,0.43408878816757346,1.872176850914955,1.101160914236307,0.49081116680209524,-3.7131063306510446,-6.959346260181069,0.3110220020057865,22.969022886235148,9.245002551070758
7208,0.01666666753590107,0.2847053783645853,2.3821055641710758,1.5099971511930226,0.3745427486807573,-3.22424086368978,-6.535572566333412,19.069500549440203,29.505204855877405,21.312778852135217
7224,0.01666666753590107,0.17195041172429917,2.652114929717779,1.9580460391193628,0.29538447455815037,-3.0355478453487157,-6.029797465625405,37.187217653133715,33.988916687478124,33.81655344867827
7241,0.01666666753590107,0.13485440584877506,2.6984277680814266,2.1423533897221088,0.276829420825094,-3.077146514672041,-5.781847956195473,45.52952874311725,34.468966288008716,36.30232908011813
7258,0.01666666753590107,0.15066031613731756,2.6213737544953823,2.3723668449670074,0.3078043865370564,-3.253868524712324,-5.4779333984375,49.22040246114664,33.40305038123111,35.206992133490694
7274,0.01666666753590107,0.3227788327038288,2.610963419640064,2.485115272268653,0.49978948695976283,-3.399316860088706,-5.261857283130288,48.22178099316659,34.2286051009268,33.82806573252433
7291,0.01666666753590107,0.2866448950598016,2.677354000392556,2.4977193177759647,0.4804862360747531,-3.4290947432368992,-5.173271821704507,45.45943392675999,36.10987483987468,34.80163406662877
7308,0.01666666753590107,0.04181930807037279,2.520045715874433,2.3805115729779005,0.2503435832259245,-3.6749487416923046,-5.218761068725586,41.27060185219623,34.52207442390015,35.29386530954408
7324,0.01666666753590107,-0.1787668868061155,2.003663880956173,1.7861784833729266,0.027832484701462087,-4.289360742729902,-5.7321682717472315,30.51335443774963,18.415545794904624,32.984943766283365
7341,0.01666666753590107,-0.20277716460460796,1.6380629746139048,1.252185588440299,-0.026934878274612127,-4.707298570030927,-6.222829389953613,21.74216040185536,0.05205185780846225,25.666462664959113
7358,0.01666666753590107,0.019520619962736963,0.7757195843249559,0.15012743310332297,0.1276407846755348,-5.615449187248945,-7.287052612414955,13.48571845011723,-19.893124033148066,7.172283463461071
7374,0.01666666753590107,-0.2194065383715555,0.45116205151081085,-1.0559417163282632,-0.14888946597331668,-5.960663139122724,-8.475773152160643,7.718262318728856,-17.04969579110425,-6.931018556974595
7391,0.01666666753590107,-0.3902480755385011,0.40852351774573326,-1.5490636716902255,-0.3227683935082052,-6.011539924401045,-8.961796673694252,0.8754111519336654,-7.772106407503359,-17.60130186847448
7407,0.01666666753590107,-0.6226712953388691,0.40239363668859,-2.254844042870402,-0.52852015347681,-6.013634850853681,-9.670779055786133,-3.8438490379833476,-2.4724620986436197,-24.993210918470957
7424,0.01666666753590107,-0.7207406974900513,0.31065643323361875,-2.60203718586266,-0.5714661731553263,-6.09084785439372,-10.02961061412394,-6.367210346652137,-5.027302255093117,-29.72333036211635
7442,0.01666666753590107,-0.7436158885776997,0.3099778033196926,-2.8067303218901154,-0.5584476833619177,-6.076483228954673,-10.24643550197184,-7.358516255144285,-8.39010277737976,-30.040780479265617
7458,0.01666666753590107,-0.6807465407539158,-0.026110592812299726,-2.827546899947524,-0.4495114712921902,-6.394312914818525,-10.281600338855386,-4.623901037428409,-7.04989842636549,-30.04437657386363
7474,0.01666666753590107,-0.5632151900246739,0.42439854774773117,-2.280594570198655,-0.29149419825449585,-5.933578732842206,-9.74200655517578,-5.168151427949359,-5.720308616208244,-34.31949101311758
7491,0.01666666753590107,-0.31706783464588223,0.3130997347325086,-2.0245716444283723,0.0007480784209445119,-6.022313831871748,-9.503335161700845,-16.73338290045179,-9.451503929115987,-39.03271427630365
7508,0.01666666753590107,-0.17806104009170085,-0.08814648548662662,-2.0267887359559533,0.20724793507680295,-6.342987801250815,-9.56992389537394,-40.55366080068209,-13.44038477704856,-52.33847602481126
7524,0.01666666753590107,-0.2791201255781576,-0.43838264943659305,-2.2451211057573555,0.17732037779223173,-6.593331512340903,-9.866056713214515,-52.0971210452051,-6.3689392382857966,-61.23864964544475
7541,0.01666666753590107,-0.6301394392624498,-0.4131178597986698,-2.2536463575184342,-0.0719759066041559,-6.457160708397627,-9.956137966156005,-47.54343734065219,8.197162739931592,-63.34732711771362
7558,0.01666666753590107,-0.9695058341518044,0.33272739526629447,-1.442522282335162,-0.2491468294557184,-5.603627816551923,-9.214983499255776,-21.746145817236066,20.723063734290903,-48.09445602175379
7574,0.01666666753590107,-0.9790316412575543,1.2732289609909058,-0.26866613424420355,-0.16355412010513246,-4.627242452019453,-8.059033010211586,-7.736793475720747,9.657893462813554,-30.5440868739201
7591,0.01666666753590107,-0.845725652160868,1.5497574991732834,0.01315349608361721,-0.0011973200257867575,-4.329912533348798,-7.789834961047768,-10.435023848841142,-15.322561223608757,-14.625528465977908
7608,0.01666666753590107,-0.893199350997433,1.5578291619479656,0.22289690123796463,-0.11432334846816956,-4.258086483544111,-7.634511128345132,-37.32632128577019,-42.00129890469878,-4.724020938490217
7625,0.01666666753590107,-1.144281678560376,1.1033680688917635,-0.19271862059533595,-0.44786556724868715,-4.607939785656333,-8.134151087298989,-62.55122758881362,-44.37696505652886,-9.402193378403078
7641,0.01666666753590107,-1.365808314358443,0.8807786261677741,-0.4936462714970112,-0.7282864366944879,-4.679316922649741,-8.546552323260903,-77.66018659896127,-32.740535692118215,-23.59308361032087
7658,0.01666666753590107,-1.6177122605025767,0.9320108007550238,-0.5234831913560628,-0.9768344234742223,-4.393957427757978,-8.732851139941811,-79.55680718806875,-8.55379850612287,-41.68475720270912
7674,0.01666666753590107,-1.2915472924917935,1.063337087276578,-0.05113748204112053,-0.5840357866700738,-4.095730267986655,-8.361001110076904,-66.07805040826305,16.025988745850032,-43.1847418765248
7691,0.01666666753590107,-1.1067062734037636,1.142680088582635,0.6376543449372053,-0.29149434438496824,-3.8902778380244967,-7.739406504058837,-41.450519280218124,34.7196752116832,-30.201334320990522
7708,0.01666666753590107,-0.6323189021933824,1.6720160976201295,2.0163491750061513,0.31334092307724054,-3.2966654639095068,-6.385335827636719,1.2726414004049726,33.68658519405668,4.755084638835436
7724,0.01666666753590107,-0.5224460303280503,1.9332903680473565,3.4526585741758344,0.45534700904525816,-3.0783442000240084,-4.919785720935463,32.85652937969796,17.329188839488463,33.38825277639428
7741,0.01666666753590107,-0.5006284585345536,2.14921450766325,3.9417899985969065,0.4329013684812933,-2.9732980176627635,-4.368370566558838,57.04519011771831,-3.018329749893981,55.582494861676324
7758,0.01666666753590107,-0.4626780825857073,2.0350252339035273,4.426470288828015,0.3136401252195239,-3.2965152417838572,-3.7675755874633787,71.81124972586923,-24.36492572238358,66.59845618150467
7774,0.01666666753590107,-0.20286336331702767,1.3599983129054307,4.373281719475984,0.42257637382186947,-4.134186547631025,-3.725677642932534,68.56896575705335,-31.684035201111474,59.46953502776307
7791,0.01666666753590107,0.05322185056712478,0.9985866749465465,4.196060527741909,0.5351038883818313,-4.636669621056318,-3.8153105675846337,57.75161950809981,-32.089092739649914,44.23098683849276
7808,0.01666666753590107,0.32326172084994614,0.08319090890586375,3.883998319363594,0.6578067234648391,-5.686677271160483,-4.038569872394204,34.303173691190416,-28.20494345112937,18.933931539699206
7825,0.01666666753590107,0.6380215708144009,-0.8237666991353034,3.1489737335205077,0.9038109075132756,-6.641514236229658,-4.741117837524413,11.1061343310245,-25.168857770714297,-0.6398516945599714
7841,0.01666666753590107,0.8775972196526824,-1.3804635933071374,2.5330975051492453,1.109413066410739,-7.199214169964194,-5.357326074329018,-8.550025680380084,-21.6768279348969,-18.61529809227623
7858,0.01666666753590107,0.8061732478428631,-1.9395020821690558,1.2087807464778422,1.0443206539763137,-7.709627451866865,-6.717082979694008,-23.493408952215585,-10.611386163400041,-31.064745364161002
7874,0.01666666753590107,0.41281800006926056,-2.0242823060929775,-0.2232154656678438,0.6880335011580028,-7.739704610222578,-8.187422074237466,-26.223754874813377,0.6467467171662463,-30.934449260459257
7890,0.01666666753590107,0.2777778441237286,-2.11355516526103,-0.7707862195760011,0.605433489083685,-7.773971621483564,-8.77220524520874,-23.744025668336278,8.293986647832048,-25.642731172687903
7908,0.01666666753590107,0.14825411351211368,-2.5058780743122098,-1.830035160756111,0.5478230847014114,-8.104671310314536,-9.871443666949867,-18.611150459902742,9.909968424322043,-19.85377872843421
7924,0.01666666753590107,0.12493797372393309,-2.996229395917058,-2.984069002524018,0.5686226750914007,-8.557175424084067,-11.049390883746742,-15.29717341046382,6.996585384798955,-16.965284898246647
7941,0.01666666753590107,-0.013216112991049885,-3.1482167776733636,-3.519723693189025,0.46866475577987726,-8.681075359997152,-11.602152192035316,-9.107751607246646,10.297389560649862,-12.684354552914435
7958,0.01666666753590107,-0.18139146315604449,-3.3926386974990366,-4.1215480153322215,0.36511553397811947,-8.917053276604413,-12.205640647998452,5.046111315406863,23.71180254337945,-4.946960874320372
7974,0.01666666753590107,0.13399663824196903,-3.061252779969573,-4.123608454993367,0.7405562452787533,-8.607303436821699,-12.188581961169838,14.666883553855044,29.665430848522153,1.568252201126536
7991,0.01666666753590107,0.10582060079984366,-2.7191964153438803,-3.89720968311429,0.763151559979096,-8.298900919994711,-11.934946222797036,14.84559716103572,25.364947379143484,10.227306697123653
8008,0.01666666753590107,0.40407223742529746,-2.2904729901343583,-3.6214918767929074,1.0839745824400335,-7.901911772698163,-11.635222102466225,5.075582727901821,13.78538104712049,20.789125323943264
8025,0.01666666753590107,0.22107523876875637,-1.6229565908968449,-3.41393049185276,0.8934859128538518,-7.246798343437909,-11.419594315448403,4.727755344418922,13.677012411975422,25.803628231418603
8041,0.01666666753590107,0.016886910458281636,-1.184616027036309,-3.217143014383316,0.6842926158629358,-6.832601456230878,-11.206211092486978,14.956111329353819,21.77699436662243,30.726978849325533
8058,0.01666666753590107,-0.22032142472676933,-0.6563058539152145,-2.556220022061467,0.44831404166854916,-6.382941041454672,-10.48899805766642,36.20711282799356,27.119494910872824,38.63783030453395
8074,0.01666666753590107,-0.343583574192971,-0.3069014646142721,-1.5542302606731653,0.3158848354063928,-6.127509067314863,-9.419089190784096,46.86191423507915,24.257968375075762,44.33656107249365
8091,0.01666666753590107,-0.4952344905365258,-0.07612813091278076,-1.1820680961191654,0.13407514683827756,-6.0027113057792185,-8.96987710429728,48.11405866467173,14.737902153297544,47.12317921611589
8108,0.01666666753590107,-0.670408029025793,0.12455635399520397,-0.524642882785201,-0.11836349070444703,-5.927742866295576,-8.221090535083412,36.34323166796275,-4.178288396919376,38.23420027553204
8125,0.01666666753590107,-0.4054280359484255,0.05162380425333976,-0.029343583384156224,0.07631503178700805,-6.063464172905683,-7.680748563385009,21.939711670766933,-17.276248043231696,20.6020959614481
8141,0.01666666753590107,-0.15047427377961575,0.12522855416834353,0.15360533834695816,0.27338768287338316,-6.018273616570234,-7.478439107623696,5.163853531414127,-23.323719732475787,-0.9984078111250798
8158,0.01666666753590107,0.03620345921628177,0.6291869608432055,0.3532996431738138,0.43544528081044553,-5.497983668297529,-7.293187754169106,-14.822352319742874,-11.762394274404958,-21.779448112081756
8174,0.01666666753590107,-0.13560009138323365,1.535705592945218,0.6306318989545107,0.2973298090728,-4.55212495945394,-7.045387882342935,-19.841424623772948,5.37090602034801,-27.527219638282148
8191,0.01666666753590107,-0.17097130102645605,1.883404347372055,0.9117670541495084,0.328454357589595,-4.1656110289424655,-6.790854318347573,-13.811849737701582,18.551852465075985,-23.882955131148922
8208,0.01666666753590107,-0.219206047363393,2.426617490592599,1.4893237809985875,0.3776850926939398,-3.60731312931478,-6.21819120875895,6.5734291256204544,24.776798082166394,-9.939432152854186
8224,0.01666666753590107,-0.11778591001220047,2.6597224821120498,2.085967485633492,0.530914072009176,-3.403656350597739,-5.594202401080727,22.769791390787752,20.74077099971416,2.837078727436645
8241,0.01666666753590107,-0.08541742584891616,2.710261998260021,2.2420342456579205,0.5835864354673773,-3.412036056408286,-5.389498159137368,33.902996322813955,13.706488093338612,13.903982159415884
8257,0.01666666753590107,-0.020809271533787248,2.771264456233382,2.506886959093809,0.6364085826598107,-3.458573351177573,-5.0381490655094385,43.36859349350861,9.351124053978893,23.201394459535443
8274,0.01666666753590107,-0.05523030431270599,2.808691977351904,2.678351779258251,0.5777506419859826,-3.515286003002524,-4.790049918475747,48.17001498944706,8.17334330897482,26.25306150899461
8292,0.01666666753590107,-0.045323608130589124,2.83708395909965,2.5946593505710362,0.5597940930021926,-3.587111468285322,-4.790049333953857,50.54846444336392,8.73178469815694,26.21576867612634
8307,0.01666666753590107,0.04955167415440082,2.6390532035708425,2.5052298395365473,0.6220433726988732,-3.9181098478019236,-4.764312250629067,48.13242845844448,10.662387185932527,25.67816448655464
8324,0.01666666753590107,0.2592747306404635,2.3041601547032595,2.3387094900369645,0.8059479877196252,-4.340237528008222,-4.8531969872623675,39.730650326452235,9.248059914497986,26.261489962430407
8341,0.01666666753590107,0.3830848328456282,2.100304638543725,2.1614608257740735,0.8981247516356408,-4.611680141228437,-4.969764680591226,28.5008784723931,4.876913015513661,25.44756534734396
8358,0.01666666753590107,0.4807878128372132,1.5346066917926071,1.5837117912232874,0.9461584224425256,-5.234621485680341,-5.49663868342936,15.13767312541839,-3.120594330355174,17.163432101163302
8374,0.01666666753590107,0.4126449085246771,0.8860948527544736,0.8828186075627803,0.8436567369323223,-5.903502159008384,-6.18018267288208,5.321420446037621,-10.28358916343185,7.057215693400689
8392,0.01666666753590107,0.3419095035009086,0.5520861855059862,0.3881108443140983,0.7468411707671359,-6.239588217052817,-6.674436262622475,-2.654104149430939,-14.05416521265977,-3.5119831662605336
8408,0.01666666753590107,0.16320388189535587,0.16789514498412608,-0.33171441883146763,0.5406404797209426,-6.6051522985160345,-7.413645440673828,-11.748106372434936,-24.57525286013766,-10.606906413078159
8425,0.01666666753590107,-0.2603262124547735,0.3411345736056566,-1.2856243321835994,0.07975673320610076,-6.404488856396079,-8.3955679810673,-16.31371900237328,-34.62229378959175,-8.53554482556601
8441,0.01666666753590107,-0.5057379105027765,0.4194786270022392,-2.133064752373099,-0.25498264120342207,-6.280737973564863,-9.289502441406249,-20.306067025083284,-48.74516814398091,-4.409455722491634
8458,0.01666666753590107,-0.4566630600798875,0.23080840501487254,-2.5927625770390033,-0.2913445789170451,-6.425438120922446,-9.792584065246581,-26.55003984165406,-50.04718319979835,-7.204514272380715
8474,0.01666666753590107,-0.41600948958694933,-0.4735404720574617,-3.1447242593824862,-0.31663334308560004,-7.072471119579673,-10.398318254309892,-33.74841206642364,-39.783153990602116,-16.160620312127445
8491,0.01666666753590107,-0.6252487446114421,-0.07868132252693176,-2.9787177046239375,-0.5452796107636765,-6.576572100719809,-10.32319900817871,-46.64511720063377,-19.554654008828084,-33.13996173968598
8508,0.01666666753590107,-0.5784992683961987,-0.2656833190411329,-2.7158395061314105,-0.4631285662995651,-6.656328943523764,-10.153360912433266,-64.29455141218934,-11.973057798975661,-43.89190892733665
8524,0.01666666753590107,-0.37435795756522566,-0.5193582203805446,-2.8682974280089137,-0.19467868688823653,-6.765713447350263,-10.426150264087319,-79.83187256632351,-3.194904654090797,-53.38191377903035
8541,0.01666666753590107,-0.6637263593047857,-0.6400012003242969,-2.9396640436083077,-0.34805724900830537,-6.663809654667973,-10.671704987335204,-78.95551831467584,15.056055779931322,-57.03764275868544
8558,0.01666666753590107,-0.7823842298459261,-0.6455079810470342,-2.8100954144090413,-0.34252069420181214,-6.522852200970053,-10.64806283046305,-57.1792120896123,23.332523846315933,-49.230446254321144
8575,0.01666666753590107,-0.8236511099316179,-0.15245149213671683,-1.8521558071494102,-0.27219102043472226,-5.939415183910727,-9.750087570300698,-25.840574432186493,23.149524295431075,-31.3684770463623
8591,0.01666666753590107,-0.7792948124632239,0.6214589969396591,-0.8332990821123123,-0.16011245521865783,-5.129127559551597,-8.75275352576375,-2.4116288053574895,-2.9267162091131884,-2.4463974564406166
8608,0.01666666753590107,-0.8635913445234298,0.8865542869597672,-0.5770446856737137,-0.28999793181475253,-4.862473349651694,-8.501062491717935,-2.278500734471125,-30.527957382195115,14.923698666647523
8625,0.01666666753590107,-1.3137249297693372,0.8694628669053316,-0.6138683956801891,-0.8503907213624566,-4.865764792412519,-8.555081666675209,-14.536660874686874,-48.66953745930136,16.453964984148445
8641,0.01666666753590107,-1.1795488798398523,0.49116146894395346,-0.6865723973631859,-0.8714896600252017,-5.1699780408561224,-8.688258549499512,-40.68723198009086,-43.65294451394,1.225748843379956
8658,0.01666666753590107,-1.1871759406521916,0.46925534208416936,-0.6567290477633476,-0.9406221598969772,-5.087378668102621,-8.73344969035685,-57.11042183938652,-22.377460202220345,-12.79644564115716
8674,0.01666666753590107,-1.061394940232858,0.9053016575276851,-0.11055763925909995,-0.8114849078522994,-4.5204012029349805,-8.275707675933837,-63.84974217268142,1.8642990667379227,-20.603055603026487
8691,0.01666666753590107,-0.9693206137780099,1.0798673663169145,0.7032108129531145,-0.6374564112123101,-4.164413343590498,-7.576751013293862,-59.46293706502484,25.89976826662841,-19.33545445534216
8708,0.01666666753590107,-1.0542907342508434,1.187581891104579,1.0890630646854638,-0.6334162324434146,-3.936814548271894,-7.261614219775796,-48.471929841329136,34.94942569988951,-11.967748180669622
8724,0.01666666753590107,-1.100878444033116,1.2644529493391512,1.9731348871797323,-0.5719151042329147,-3.7526112425655125,-6.436362835040688,-22.083919162260706,29.931391584613277,2.1330924103439
8741,0.01666666753590107,-0.9537355796985327,1.3377934953600168,3.0704145760685204,-0.3863645486360416,-3.6632770085990427,-5.346102669525147,7.527279984251545,13.560686606447288,14.019641167726295
8758,0.01666666753590107,-0.8555319567084312,1.469053730908036,3.6198493702828882,-0.3064580682283267,-3.5848669042289254,-4.7662575394779445,36.9917034881421,-5.927990336319413,25.8600011977333
8774,0.01666666753590107,-0.7178200608029961,1.7856284482747316,4.342779029184579,-0.27488446076977996,-3.417272788017988,-3.95806484157145,57.45012812794627,-25.98777354653673,37.773562072622624
8791,0.01666666753590107,-0.37798484282549466,1.7225521066367626,4.499034589779376,-0.055066820846684274,-3.6085096456229686,-3.725677642932534,55.93828283063687,-33.94089704251835,38.71322876278172
8808,0.01666666753590107,-0.22277106463490054,1.5661971773207186,4.365733788314461,-0.020949465455766765,-3.87561276833415,-3.790021812549233,44.45687143962884,-31.48478492264386,30.86573414231434
8824,0.01666666753590107,0.03069742741221562,0.9516437219858169,3.991145857918262,0.11447258421313017,-4.586092695507407,-4.101865994262695,21.356311062810295,-22.755651191658533,12.67181944824017
8841,0.01666666753590107,0.20755749421631917,0.14761924967467785,3.118129682445526,0.23478121763598173,-5.414486469921469,-4.958541860309243,2.0178432133836903,-21.650127017884024,1.6097275643660864
8858,0.01666666753590107,0.1461944136364851,-0.27281857774853707,2.4942057566970584,0.13467366300398717,-5.822697268456221,-5.590909789276123,-12.523305522474704,-19.64977463830427,-8.202123164816316
8875,0.01666666753590107,0.17700093657951801,-1.255825990769267,0.9899585473328828,0.14050952498404076,-6.7561372252315275,-7.128885665240883,-20.761669671027107,-19.017796017423205,-24.247152770525048
8891,0.01666666753590107,0.23052810850245878,-2.0555080499619245,-0.5291513001203537,0.20395586441160413,-7.509412338036299,-8.679280293273925,-23.402249832458008,-10.913899510608138,-35.692143885331284
8908,0.01666666753590107,0.17017035990711302,-2.2945284030050037,-1.2262480141073464,0.1931819363913033,-7.6936162282645695,-9.412804411426187,-28.609630451905335,5.845545684169128,-42.38055198855291
8925,0.01666666753590107,0.1902312607590109,-2.480465400636196,-2.356793428260088,0.34042532935775816,-7.78309951531291,-10.60481697845459,-37.46102627658119,25.929336155545393,-40.45243056699333
8941,0.01666666753590107,0.24984723281003535,-2.748979559189081,-3.1624054620236155,0.5132567799665965,-7.965657391899824,-11.462241032519936,-39.57786240981363,30.864077821440613,-32.44793038807487
8958,0.01666666753590107,0.2474619085760787,-3.029202860236168,-3.4029338815420864,0.6117183049742132,-8.15943808876872,-11.75268762141764,-37.27928177295632,27.288043489021227,-22.187924160299783
8974,0.01666666753590107,0.33872079046219583,-3.451087379336357,-3.8893852730989456,0.803404075390473,-8.485798287090658,-12.292131182971596,-25.442440997919157,25.12024902193861,-6.492972485405466
8991,0.01666666753590107,0.3179587556036189,-3.187114371344447,-4.327255296838283,0.8406638021940365,-8.17874192417562,-12.752266814532875,-13.831676923088484,26.621241148656857,2.9802330891377657
9008,0.01666666753590107,0.318716040244326,-2.886939584636688,-4.474331525677442,0.8946829771513118,-7.857469988903403,-12.90833825073242,-7.3251712716162825,30.62359027585905,12.442103110979716
9025,0.01666666753590107,0.6672489804729819,-2.659045605763793,-4.7800411501586435,1.3033432364866138,-7.619695836529135,-13.215544835773109,-1.3021739644373442,33.19332942276587,26.46477346760291
9041,0.01666666753590107,0.7264325524561107,-2.149853974610567,-4.390749571627378,1.3968668119017034,-7.12514297158122,-12.814964970508218,10.791985756565287,35.83592619754922,36.73609390373812
9058,0.01666666753590107,0.5789480350770055,-1.7523463563978672,-3.9180683467477557,1.2767078160826115,-6.778283590587973,-12.309938057819009,28.93542706022036,39.63869207456177,47.9420096145737
9075,0.01666666753590107,0.31486937475353477,-1.1180471671074628,-2.58126210885942,1.0333970723692327,-6.2763984830558295,-10.890625386157632,50.8689881456397,39.95543185203735,60.67434624640747
9090,0.01666666753590107,0.11122808586657047,-0.7189040566474199,-1.281481241029501,0.8207620374266058,-6.006602467998862,-9.509919216266274,56.26026819339503,31.44246165545188,66.28663755532608
9108,0.01666666753590107,0.037996114786714316,-0.5954267300605773,-0.8033627935320139,0.7046433299742638,-6.011540508922934,-8.951471679034828,51.630847936230424,14.463174869406705,65.30850665485606
9125,0.01666666753590107,-0.18018636168260127,-0.5499409901708364,-0.19099311197698116,0.37948078047167505,-6.105063426750898,-8.253112397766113,37.10902906260999,-10.54117864892148,48.75578225795111
9141,0.01666666753590107,-0.11046104701682924,-0.48002691146731374,0.15121815094947813,0.3552395617278293,-6.103417413109541,-7.869442166247963,22.55871293222497,-23.670010323395434,27.65472731725524
9158,0.01666666753590107,0.07580182156786322,-0.3566758416086435,0.16078852784931658,0.46402606312856076,-6.011240649193525,-7.842058484759926,5.584267042754045,-23.80759765403617,7.592939446516524
9175,0.01666666753590107,0.17924108018912374,0.3307435279726982,0.10042086064815521,0.5199905269347131,-5.317221442955732,-7.909245768848061,-7.1254360497175995,-11.265789149099902,-8.950743487474623
9191,0.01666666753590107,0.27802038417533037,1.0950058987379074,0.45593058108687395,0.6224922489775344,-4.5389562658011915,-7.563432682037353,-3.7230161613766524,0.6620517303532168,-10.205809530484684
9208,0.01666666753590107,0.31495478801466525,1.4115864613234996,0.6893336787700652,0.6836941019805148,-4.224717297905683,-7.327305127826333,7.581412648518481,11.616556929020492,-3.8720261296305893
9224,0.01666666753590107,0.2911090713944286,2.0696558177798985,1.2774550542533396,0.6979096743376925,-3.6191345000118016,-6.7001739304691545,30.35103157702969,20.628650029393814,13.204671533696835
9241,0.01666666753590107,0.01761339810192585,2.6108470997840163,2.006494720467925,0.4378395190032199,-3.1601959692806005,-5.911134845843911,46.39628999407562,21.326678287096193,27.211811747694714
9258,0.01666666753590107,-0.10624602313768118,2.8846599492669105,2.3120284038603303,0.30526060207206757,-2.998288082012534,-5.523274176898599,58.49475091998636,17.765163229304964,36.920987124570374
9274,0.01666666753590107,-0.20961323943603782,3.072590166541934,2.8400884016126393,0.1544258974822238,-2.986915624126792,-4.861875968280434,66.60755399347913,8.044055511949294,40.84749895387062
9291,0.01666666753590107,-0.22049433360826223,3.1174533906191586,3.1816496761977673,0.08948321398310363,-3.078643475231528,-4.413262432208657,65.719007854163,2.3302641768697128,38.13926406116345
9308,0.01666666753590107,-0.11668273454327135,3.1562568762660024,3.1938977478742596,0.1381154534713365,-3.16678002384603,-4.297742202106118,59.94668521299099,2.2343170945039588,33.43101659078773
9326,0.01666666753590107,0.014125994377583264,2.9943215164691206,3.0453473548293113,0.22131397942807524,-3.470394137352705,-4.325874071612954,46.9444673164825,11.582934469057458,24.53856962165281
9341,0.01666666753590107,0.21871470191618425,2.8202579119831324,2.566051095724106,0.4158428095168434,-3.7234313253104685,-4.735431608581543,34.089204355061426,17.684664327294485,22.230648701105505
9357,0.01666666753590107,0.20281937804482877,2.708676190373301,2.1338626247525214,0.3932475313491188,-3.8887808774650097,-5.119252646747231,21.54256178374008,16.92061887616935,24.872697353207958
9374,0.01666666753590107,0.1717992762831971,2.4197920284867287,1.1427777037382125,0.34057511309199034,-4.215440350994467,-6.076334760394692,8.338271033089471,14.0045046147519,25.555374760750734
9391,0.01666666753590107,0.2446122912986204,1.6103689120024443,-0.041156770774722094,0.3998316407134756,-5.039494634899497,-7.247099372211098,7.141936079205058,11.974414445299555,17.6265564929306
9407,0.01666666753590107,0.3157012955330312,1.0313508804291487,-0.4851040686011314,0.4709095024993643,-5.633855197033286,-7.676857985687255,8.594295551485521,8.669940750317059,4.049262281516427
9424,0.01666666753590107,0.029324001900851725,0.6904582988858222,-1.2190344294667244,0.21218604906611144,-5.9949307349056005,-8.391378128162026,6.5513923740370545,4.910098343369814,-11.847766516388239
9441,0.01666666753590107,-0.28089882568847385,0.7401847450852393,-1.6741490179955958,-0.06748661409458145,-5.950787641796469,-8.840440577045083,-0.03702907017243077,-2.58433120573832,-19.514277345549555
9458,0.01666666753590107,-0.2661031518884003,0.7532283510535955,-1.829768618774414,-0.026635511735547332,-5.9281917791068555,-9.004144115558265,-9.091834705159577,-11.023540268486121,-24.863923975219077
9474,0.01666666753590107,0.01715549826659262,0.5265513467550278,-2.1915262936919926,0.2853588007720187,-6.115089146202802,-9.401731228747963,-19.156544480222845,-14.497525598289993,-30.89649048414691
9491,0.01666666753590107,0.32040808498449624,0.15582301439642907,-2.127801717278361,0.6229412165877409,-6.443842961663007,-9.375095150756835,-22.735828275139866,-9.112332102858785,-34.68352302040633
9507,0.01666666753590107,0.29542364665791393,0.3200345024317503,-1.9675369210422038,0.647781077078171,-6.227167711418867,-9.260024417987465,-30.367454766888986,-3.1755722305318987,-36.188599600248246
9524,0.01666666753590107,0.3126444287130609,0.1483358735114336,-1.522023689073324,0.7387607036314904,-6.284030000847578,-8.91211640472412,-59.373393285005974,-6.816563369505399,-36.83944491116417
9541,0.01666666753590107,0.372048876905255,-0.35022622707784173,-2.096100172591209,0.8376711597166955,-6.634332215771079,-9.610326048389076,-87.57420617923478,-18.580590486008813,-41.02351975897102
9558,0.01666666753590107,0.14238061836883426,-0.6540753183841705,-2.4798510681301353,0.638802784319967,-6.74192106835246,-10.152014173999428,-101.06037371428994,-20.555392835450842,-46.791611097952206
9575,0.01666666753590107,-0.17736366894468664,-0.8481956224709749,-2.7868776204288004,0.3758894779814407,-6.675930885094404,-10.65464688502848,-76.49829628906123,-8.75149150145972,-45.95021033938209
9591,0.01666666753590107,-0.3358161550618708,0.0880336727619171,-1.976475429779291,0.27398634288627655,-5.61829288624227,-9.928604647064208,-34.536066066414925,7.70759953966082,-29.512632686599797
9608,0.01666666753590107,-0.626150881082937,0.8982230974435805,-1.1965835282057522,0.03681070439442992,-4.768650572094321,-9.172635472869873,-5.180906806224357,16.801701867624843,-2.587452602189016
9627,0.01666666753590107,-0.81670238677226,1.8122557584375143,-0.2872790647774935,-0.1680432482179254,-3.8402977093249557,-8.274660212707518,-15.408198135422378,-11.457203493042217,29.83094682267907
9642,0.01666666753590107,-1.025912634897977,1.196399403810501,-0.5090203662395477,-0.48407772122807796,-4.403085906109213,-8.54161428233683,-40.93368228081784,-40.929454393721606,37.27863632007975
9658,0.01666666753590107,-1.1157774686098099,0.5809516299843788,-0.8119459129601716,-0.7315783909119665,-4.9148459264457225,-8.92483618556559,-58.9644493688298,-61.23424417343009,25.933340353946313
9675,0.01666666753590107,-1.5858037950664758,-0.22857611591815946,-1.5135153884470463,-1.4056958323823288,-5.5524523405879735,-9.747243871307372,-59.156466476966365,-61.92539101554369,-4.983169414657903
9691,0.01666666753590107,-1.998642837923765,-0.27567162909209725,-2.0883248624145985,-1.9096752179131375,-5.481822807091474,-10.398466722869873,-48.19796753862534,-42.096388798323694,-30.322098895705516
9708,0.01666666753590107,-1.8109072664380073,-0.07803250322937964,-1.5755711548656224,-1.704372471220512,-5.175365579113364,-9.95269688579142,-24.471430569658878,3.9719342948281273,-48.602765529975315
9725,0.01666666753590107,-1.6040689350754023,0.18909283131361007,-0.8445563891857862,-1.391180893486086,-4.876688337486982,-9.238775878253579,-2.529067077946689,33.98123613975645,-45.3003110096662
9741,0.01666666753590107,-0.9068336163353174,0.9264344619274139,1.1763315982937812,-0.550068014083989,-4.152742195019126,-7.204901567950844,16.911809639687323,47.537051113778226,-31.105449876519696
9758,0.01666666753590107,-0.721415016555041,1.2595534868597984,2.1414567331433294,-0.23657723420727997,-3.871871828240156,-6.2014317971378565,32.56666298151179,41.45524918621835,-10.77419652887199
9774,0.01666666753590107,-0.5249871296456083,1.5388210946172476,3.72456588229835,0.03710997960194945,-3.7117601767390966,-4.53895801936686,48.575065697796326,13.004275490995955,13.775229678466559
9791,0.01666666753590107,-0.4856110317425802,1.5465829607903956,4.520045813626051,0.05177446477040648,-3.8199475797355174,-3.670311145019531,56.25168606070291,-10.384716090509412,23.664892804159802
9808,0.01666666753590107,-0.40238099640272557,1.150859887906909,4.5774990546852345,0.02289437071215361,-4.385278446739912,-3.5058600030094382,59.18272855432507,-34.46435932541355,21.569872295136374
9824,0.01666666753590107,-0.3353228185869753,0.9953431629806756,4.399981510353088,-0.012569704846292733,-4.663604974254966,-3.6026755326420066,55.595830806030776,-38.82560245010135,9.600583906808916
9841,0.01666666753590107,-0.2714388138279319,0.5019786310344935,4.024705013170838,-0.026486020262259987,-5.2624540799796575,-3.9050925453186034,44.70342077809879,-33.29270526009497,-7.051699034985434
9858,0.01666666753590107,-0.0377806819377467,-0.08322130404412746,3.2112048565059896,0.16669614445790648,-5.940611700218915,-4.651335859790444,22.935307364944673,-20.152210183839575,-25.412869693907588
9874,0.01666666753590107,0.014365520488191395,-0.299081730774045,2.7572604808002708,0.23523011218095197,-6.1830246183097355,-5.084985050964355,4.705197790911309,-10.393826709088565,-35.068677387703346
9891,0.01666666753590107,0.25313094892213117,-0.8281254788666963,1.790489916831255,0.5156510181593709,-6.702117465752363,-6.057929335132241,-11.760851505426182,-6.96953997011982,-41.152709372027225
9908,0.01666666753590107,0.37734548547603186,-1.397726862797141,0.6927057855516672,0.7077856831206009,-7.210287352642417,-7.198766426196694,-28.439490439680316,-9.345982629081167,-45.844318501584794
9924,0.01666666753590107,0.37063992342278357,-1.6786083354920147,0.12823591929078101,0.7459432720793411,-7.422473474773764,-7.811382775989174,-32.3162272654041,-15.159715853417314,-45.30975033109916
9941,0.01666666753590107,0.2658914088338613,-2.027229465460777,-1.0777613339483738,0.6649892553800717,-7.705737458691001,-9.063100746917724,-24.31686851138337,-24.793743781497195,-41.397988295311556
9958,0.01666666753590107,0.35792923920322206,-2.261917926779389,-2.111712752264738,0.7448957723204046,-7.901014531597495,-10.12552831813395,0.5655013501846803,-33.27193465482896,-31.86663006328801
9974,0.01666666753590107,0.37496498354766516,-2.2431875073462724,-2.5802707597345114,0.7363664289060979,-7.895926853069662,-10.585663365173339,13.978494400618846,-26.67840300182069,-21.004368490352462
9991,0.01666666753590107,0.4293851770538836,-2.2701304593294855,-3.466154600086808,0.7742247426573187,-7.959373197063803,-11.446379446521401,21.566781634536945,-8.857251004341842,-8.829213931572587
10008,0.01666666753590107,0.4558009268252179,-2.6146961764276027,-3.837658008471131,0.8206123632902279,-8.366536532372235,-11.771990287780762,20.88288162313274,20.59461519675964,5.197446963073189
10024,0.01666666753590107,0.563247484859079,-2.7221879983752966,-3.856379075554013,0.9675564901823177,-8.506149001201987,-11.76540681773722,8.384554956226417,26.202051948725664,10.78037358120262
10041,0.01666666753590107,0.4497115604415536,-2.9617595555603504,-3.9643420221447943,0.8771753775114193,-8.748861194500327,-11.869853865161538,-5.8938889093408315,13.731403769657172,14.911096967628849
10058,0.01666666753590107,0.026230127538740634,-2.5501521003246306,-3.9730496447354553,0.43349984583109613,-8.316407935112714,-11.894842760467528,-6.8174444639083305,0.15063064407793403,20.414993174419354
10075,0.01666666753590107,-0.14872750317752362,-2.1378391271680592,-3.7240059103280303,0.2240072736326605,-7.907598001641035,-11.64494854671061,9.34272035997884,1.2138398749535098,24.881590259507316
10091,0.01666666753590107,-0.3258664599882439,-1.190261923968792,-2.686129427522421,0.0055363721434026954,-7.022043247112632,-10.563367946735024,31.557823550533392,11.546664457017398,33.41718545771845
10108,0.01666666753590107,-0.26147538248989727,-0.43158465985953803,-1.7546090406328438,0.043843616972211744,-6.337600262993574,-9.577405775561928,36.00560858709985,17.032275393626133,39.5561185025909
10125,0.01666666753590107,-0.08012543865432963,-0.24703005649745463,-1.4097066389262676,0.19572578478837385,-6.223427355846762,-9.179968299975991,28.45553626158797,15.848979270867273,41.57063157186738
10141,0.01666666753590107,0.18136987237874416,-0.26401392452418804,-0.9529232404023409,0.40521844831835474,-6.296150646752118,-8.681675079455971,10.711871906469268,4.8880107922544624,33.96361083660323
10158,0.01666666753590107,0.44090405767299234,-0.20475100369453428,-0.6254997967630624,0.6218937168288045,-6.250361540001631,-8.344840248870849,1.9510204845256935,-1.2977189735512034,24.185940615183394
10174,0.01666666753590107,0.62357408939749,-0.02530921330153942,-0.5580108993798494,0.7647976649519987,-6.069300039452314,-8.27944920054972,-3.912194472139434,-6.6828735155598,16.144501065686214
10191,0.01666666753590107,0.8126871597815305,0.5475707539081573,-0.5856278051018714,0.9057562237616162,-5.480027155846357,-8.320598957061767,-7.245931685734026,-4.932781828490249,15.015238569451327
10208,0.01666666753590107,0.8657050487417727,0.9980804789900779,-0.42780280323326586,0.9252091076838085,-5.0188440610587595,-8.17141026611328,-2.324819448884155,-1.4578369638296966,19.22211600380226
