timestamp,interval,accx,accy,accz,accGx,accGy,accGz,alpha,beta,gamma
1698419978.016,16,0.0,0.0,0.0,-1.0,9.5,-0.30000000000000004,0.4,0.2,0.2
1698419978.033,16,0.0,0.0,0.0,-1.0,9.5,-0.30000000000000004,0.30000000000000004,0.2,0.1
1698419978.049,16,0.0,0.0,0.0,-1.0,9.5,-0.30000000000000004,0.4,0.30000000000000004,0.30000000000000004
1698419978.066,16,0.0,0.0,0.0,-1.0,9.5,-0.30000000000000004,0.5,0.30000000000000004,0.1
1698419978.083,16,0.0,0.0,0.0,-1.0,9.5,-0.30000000000000004,0.5,0.2,0.1
1698419978.099,16,0.0,0.0,0.0,-1.1,9.5,-0.4,0.5,0.0,-0.1
1698419978.116,16,0.0,0.0,0.0,-1.1,9.5,-0.30000000000000004,0.6000000000000001,-0.30000000000000004,-0.1
1698419978.133,16,0.0,0.0,0.0,-1.0,9.5,-0.30000000000000004,0.6000000000000001,-0.4,-0.1
1698419978.149,16,0.0,0.0,0.0,-1.0,9.5,-0.30000000000000004,0.8,-0.5,-0.4
1698419978.166,16,0.0,0.0,0.0,-1.0,9.5,-0.30000000000000004,0.8,-0.6000000000000001,-0.4
1698419978.186,16,0.0,0.0,0.0,-1.1,9.5,-0.30000000000000004,0.8,-0.7,-0.2
1698419978.199,16,0.0,0.0,0.0,-1.0,9.600000000000001,-0.30000000000000004,0.5,-0.9,-0.2
1698419978.216,16,0.0,0.0,0.0,-1.0,9.600000000000001,-0.30000000000000004,0.5,-0.7,-0.2
1698419978.233,16,0.0,0.0,0.0,-1.0,9.5,-0.30000000000000004,0.5,-0.5,-0.2
1698419978.249,16,0.0,0.0,0.0,-1.0,9.5,-0.30000000000000004,0.6000000000000001,-0.6000000000000001,0.0
1698419978.266,16,0.0,0.0,0.0,-1.0,9.5,-0.30000000000000004,0.5,-0.6000000000000001,0.1
1698419978.283,16,0.0,0.0,0.0,-1.0,9.5,-0.30000000000000004,0.6000000000000001,-0.7,0.1
1698419978.299,16,0.0,0.0,0.0,-1.0,9.5,-0.30000000000000004,0.8,-0.8,0.1
1698419978.316,16,0.0,0.0,0.0,-1.0,9.5,-0.30000000000000004,0.6000000000000001,-0.9,0.1
1698419978.333,16,0.0,0.0,0.0,-1.1,9.5,-0.30000000000000004,0.6000000000000001,-1.0,0.2
1698419978.35,16,0.0,0.0,0.0,-1.0,9.5,-0.30000000000000004,0.4,-1.0999999999999999,-0.1
1698419978.366,16,0.0,0.0,0.0,-1.0,9.5,-0.30000000000000004,0.4,-0.9,-0.1
1698419978.383,16,0.0,0.0,0.0,-1.0,9.5,-0.30000000000000004,0.6000000000000001,-0.9,-0.2
1698419978.399,16,0.0,0.0,0.0,-1.0,9.5,-0.30000000000000004,0.5,-0.8,-0.1
1698419978.416,16,0.0,0.0,0.0,-1.0,9.5,-0.30000000000000004,0.5,-0.8,0.0
1698419978.433,16,0.0,0.0,0.0,-1.0,9.5,-0.30000000000000004,0.5,-0.6000000000000001,-0.1
1698419978.449,16,0.0,0.0,0.0,-1.0,9.5,-0.30000000000000004,0.30000000000000004,-0.8,0.1
1698419978.466,16,0.1,0.0,0.0,-1.0,9.5,-0.30000000000000004,0.30000000000000004,-0.6000000000000001,0.1
1698419978.483,16,0.0,0.0,0.0,-1.1,9.5,-0.30000000000000004,0.30000000000000004,-0.5,-0.1
1698419978.5,16,0.0,0.0,0.0,-1.1,9.5,-0.4,0.4,-0.5,0.0
1698419978.517,16,0.0,0.0,0.0,-1.0,9.5,-0.30000000000000004,0.2,-0.30000000000000004,0.2
1698419978.533,16,0.0,0.0,0.0,-1.0,9.5,-0.30000000000000004,0.2,-0.30000000000000004,0.2
1698419978.549,16,0.0,0.0,0.0,-1.0,9.5,-0.30000000000000004,0.1,-0.5,0.2
1698419978.566,16,0.0,0.0,0.0,-1.0,9.5,-0.30000000000000004,0.1,-0.30000000000000004,-0.1
1698419978.583,16,0.0,0.0,0.0,-1.0,9.5,-0.30000000000000004,0.1,-0.4,0.0
1698419978.6,16,0.0,0.0,0.0,-1.0,9.5,-0.30000000000000004,0.2,-0.30000000000000004,0.0
1698419978.617,16,0.0,0.0,0.0,-1.0,9.5,-0.30000000000000004,0.0,-0.1,-0.2
1698419978.633,16,0.0,0.0,0.0,-1.0,9.5,-0.30000000000000004,0.0,-0.1,-0.1
1698419978.649,16,0.0,0.0,0.0,-1.0,9.5,-0.30000000000000004,0.0,-0.1,-0.1
1698419978.666,16,0.0,0.0,0.0,-1.0,9.5,-0.30000000000000004,0.0,0.0,-0.1
1698419978.683,16,0.0,0.0,0.0,-1.0,9.5,-0.4,0.0,-0.1,-0.1
1698419978.7,16,0.0,0.0,0.0,-1.1,9.5,-0.30000000000000004,0.0,-0.2,-0.1
1698419978.716,16,0.0,0.0,0.0,-1.1,9.5,-0.30000000000000004,0.0,-0.30000000000000004,0.0
1698419978.733,16,0.0,0.0,0.0,-1.1,9.5,-0.30000000000000004,0.0,-0.4,0.0
1698419978.749,16,0.0,0.0,0.0,-1.0,9.5,-0.4,0.2,-0.5,0.1
1698419978.766,16,0.0,0.0,0.0,-1.0,9.5,-0.4,-0.1,-0.30000000000000004,-0.1
1698419978.783,16,0.0,0.0,0.0,-1.0,9.5,-0.4,0.0,-0.30000000000000004,-0.1
1698419978.799,16,0.0,0.0,0.0,-1.0,9.5,-0.4,0.0,-0.30000000000000004,-0.1
1698419978.816,16,0.0,0.0,0.0,-1.0,9.5,-0.4,0.1,-0.4,-0.1
1698419978.833,16,0.0,0.0,0.0,-1.0,9.5,-0.4,0.0,-0.2,-0.1
1698419978.852,16,0.0,0.0,0.0,-1.0,9.5,-0.30000000000000004,0.1,-0.30000000000000004,0.0
1698419978.866,16,0.0,0.0,0.0,-1.0,9.5,-0.4,0.30000000000000004,-0.1,0.1
1698419978.883,16,0.0,0.0,0.0,-1.0,9.5,-0.4,0.30000000000000004,0.0,-0.1
1698419978.899,16,0.0,0.0,0.0,-1.0,9.5,-0.4,0.2,0.0,0.0
1698419978.916,16,0.0,0.0,0.0,-1.1,9.5,-0.4,0.30000000000000004,0.0,-0.2
1698419978.933,16,0.0,0.0,0.0,-1.0,9.5,-0.4,0.30000000000000004,0.0,0.1
1698419978.949,16,0.0,0.0,0.0,-1.0,9.5,-0.4,0.30000000000000004,-0.1,0.1
1698419978.966,16,0.0,0.0,0.0,-1.0,9.5,-0.30000000000000004,0.5,0.0,0.0
1698419978.983,16,0.0,0.0,0.0,-1.0,9.5,-0.4,0.30000000000000004,-0.1,0.0
1698419978.999,16,0.0,0.0,0.0,-1.0,9.5,-0.4,0.2,-0.2,0.0
1698419979.016,16,0.0,0.1,0.0,-1.0,9.600000000000001,-0.30000000000000004,0.0,-0.30000000000000004,0.1
1698419979.033,16,0.0,0.0,0.0,-1.0,9.5,-0.30000000000000004,0.30000000000000004,-0.2,0.0
1698419979.05,16,0.0,0.0,0.0,-1.0,9.5,-0.4,0.2,-0.1,0.0
1698419979.066,16,0.0,0.0,0.0,-1.0,9.5,-0.4,-0.1,-0.1,0.0
1698419979.083,16,0.0,0.0,0.0,-1.0,9.5,-0.4,0.0,-0.1,0.1
1698419979.1,16,0.0,-0.1,0.0,-1.0,9.5,-0.4,0.2,0.0,-0.1
1698419979.116,16,0.0,0.0,0.0,-1.0,9.5,-0.4,0.30000000000000004,0.1,-0.1
1698419979.133,16,0.0,0.0,0.0,-1.0,9.5,-0.4,0.4,0.0,-0.1
1698419979.149,16,0.0,0.0,0.0,-1.0,9.5,-0.4,0.4,0.0,-0.1
1698419979.166,16,0.0,0.0,0.0,-1.0,9.5,-0.30000000000000004,0.30000000000000004,0.1,-0.30000000000000004
1698419979.183,16,0.0,0.0,0.0,-1.0,9.5,-0.4,0.4,0.2,-0.30000000000000004
1698419979.199,16,0.0,0.0,0.0,-1.0,9.5,-0.4,0.5,0.30000000000000004,-0.2
1698419979.216,16,0.0,0.0,0.0,-1.0,9.5,-0.4,0.30000000000000004,0.30000000000000004,-0.2
1698419979.233,16,0.0,0.0,0.0,-1.1,9.5,-0.4,0.30000000000000004,0.30000000000000004,-0.2
1698419979.249,16,0.0,0.0,0.0,-1.0,9.5,-0.4,0.30000000000000004,0.30000000000000004,-0.1
1698419979.266,16,0.0,0.0,0.0,-1.0,9.5,-0.30000000000000004,0.2,0.2,-0.1
1698419979.283,16,0.0,0.0,0.0,-1.0,9.5,-0.30000000000000004,0.1,0.5,-0.1
1698419979.299,16,0.0,0.0,0.0,-1.0,9.5,-0.30000000000000004,0.1,0.4,-0.1
1698419979.316,16,0.0,0.0,0.0,-1.0,9.5,-0.4,0.1,0.30000000000000004,-0.1
1698419979.333,16,0.0,0.0,0.0,-1.0,9.5,-0.30000000000000004,-0.1,0.30000000000000004,0.0
1698419979.349,16,0.0,0.0,0.0,-1.0,9.5,-0.4,-0.2,0.30000000000000004,0.0
1698419979.366,16,0.0,0.0,0.0,-1.0,9.5,-0.30000000000000004,-0.30000000000000004,0.4,-0.1
1698419979.383,16,0.0,0.0,0.0,-1.1,9.5,-0.4,-0.30000000000000004,0.30000000000000004,-0.2
1698419979.399,16,0.0,0.0,0.0,-1.1,9.5,-0.30000000000000004,-0.4,0.30000000000000004,-0.2
1698419979.416,16,0.0,0.0,0.0,-1.1,9.5,-0.4,-0.30000000000000004,0.2,-0.2
1698419979.433,16,0.0,0.0,0.0,-1.1,9.5,-0.4,-0.30000000000000004,0.1,-0.30000000000000004
1698419979.45,16,0.0,0.0,0.0,-1.0,9.5,-0.4,-0.30000000000000004,0.2,-0.2
1698419979.466,16,0.0,0.0,0.0,-1.1,9.5,-0.4,-0.2,0.2,-0.30000000000000004
1698419979.483,16,0.0,0.0,0.0,-1.1,9.5,-0.4,-0.1,0.1,-0.2
1698419979.499,16,0.0,0.0,0.0,-1.0,9.5,-0.4,-0.1,0.2,-0.2
1698419979.516,16,0.0,0.0,0.0,-1.1,9.5,-0.4,0.0,0.2,-0.2
1698419979.533,16,0.0,0.0,0.0,-1.1,9.5,-0.4,0.0,0.30000000000000004,-0.2
1698419979.549,16,0.0,0.0,0.0,-1.0,9.5,-0.4,0.0,0.30000000000000004,-0.1
1698419979.566,16,0.0,0.0,0.0,-1.1,9.5,-0.4,0.0,0.5,-0.1
1698419979.583,16,0.0,0.0,0.0,-1.0,9.5,-0.4,0.2,0.4,-0.2
1698419979.599,16,0.0,0.0,0.0,-1.0,9.5,-0.4,0.30000000000000004,0.30000000000000004,-0.2
1698419979.616,16,0.0,0.0,0.0,-1.0,9.5,-0.4,0.30000000000000004,0.4,-0.2
1698419979.633,16,0.0,0.0,0.0,-1.0,9.5,-0.4,0.30000000000000004,0.4,-0.1
1698419979.649,16,0.0,0.0,0.0,-1.1,9.5,-0.4,0.4,0.5,-0.2
1698419979.666,16,0.0,0.0,0.0,-1.1,9.5,-0.4,0.30000000000000004,0.5,-0.2
1698419979.683,16,0.0,0.0,0.0,-1.1,9.5,-0.30000000000000004,0.5,0.7,-0.30000000000000004
1698419979.699,16,0.0,0.0,0.1,-1.1,9.5,-0.30000000000000004,0.6000000000000001,1.0,-0.6000000000000001
1698419979.716,16,-0.1,0.0,0.1,-1.1,9.600000000000001,-0.30000000000000004,0.6000000000000001,1.3,-0.7
1698419979.733,16,-0.1,0.0,0.0,-1.2000000000000002,9.5,-0.30000000000000004,0.2,1.4,-0.9
1698419979.749,16,-0.1,0.0,0.1,-1.2000000000000002,9.600000000000001,-0.30000000000000004,-0.2,1.4,-1.3
1698419979.766,16,-0.2,0.1,0.1,-1.3,9.600000000000001,-0.30000000000000004,-0.5,1.9,-1.7
1698419979.783,16,-0.2,0.0,0.1,-1.3,9.5,-0.30000000000000004,-0.9,2.4000000000000004,-2.1
1698419979.799,16,-0.2,0.0,0.0,-1.4000000000000001,9.5,-0.30000000000000004,-1.0,2.4000000000000004,-1.8
1698419979.816,16,-0.2,0.1,0.1,-1.4000000000000001,9.600000000000001,-0.2,-1.0999999999999999,2.1,-1.8
1698419979.833,16,-0.30000000000000004,0.0,0.1,-1.4000000000000001,9.600000000000001,-0.2,-0.8,2.1999999999999997,-1.5000000000000002
1698419979.849,16,-0.30000000000000004,0.0,0.0,-1.5,9.600000000000001,-0.4,-1.0999999999999999,1.3,-1.4
1698419979.867,16,-0.30000000000000004,0.0,0.0,-1.5,9.600000000000001,-0.30000000000000004,-1.9,-0.1,-1.0
1698419979.883,16,-0.2,0.0,0.0,-1.4000000000000001,9.5,-0.30000000000000004,-2.3000000000000003,-0.8,-0.7
1698419979.899,16,-0.2,0.0,0.0,-1.4000000000000001,9.5,-0.4,-3.1,-1.9,-0.4
1698419979.916,16,-0.2,0.0,0.0,-1.4000000000000001,9.4,-0.30000000000000004,-3.4,-2.1,-0.2
1698419979.932,16,-0.2,-0.1,-0.1,-1.4000000000000001,9.4,-0.4,-3.4,-3.1,0.4
1698419979.949,16,-0.2,0.0,0.0,-1.4000000000000001,9.5,-0.30000000000000004,-3.6,-3.6,1.0
1698419979.966,16,-0.1,0.0,0.0,-1.4000000000000001,9.5,-0.30000000000000004,-3.6,-3.9,1.0999999999999999
1698419979.982,16,-0.1,0.0,0.0,-1.4000000000000001,9.5,-0.30000000000000004,-3.7000000000000006,-4.3999999999999995,1.0999999999999999
1698419979.999,16,-0.1,0.0,0.0,-1.4000000000000001,9.5,-0.30000000000000004,-3.7000000000000006,-5.0,1.2000000000000002
1698419980.016,16,-0.1,0.0,0.0,-1.4000000000000001,9.5,-0.30000000000000004,-3.7000000000000006,-5.300000000000001,1.4
1698419980.035,16,-0.1,0.0,0.0,-1.4000000000000001,9.5,-0.30000000000000004,-3.9,-6.3,1.7
1698419980.049,16,-0.1,-0.1,0.0,-1.4000000000000001,9.5,-0.30000000000000004,-3.9,-7.300000000000001,1.8
1698419980.066,16,0.0,0.0,-0.1,-1.3,9.5,-0.30000000000000004,-4.1000000000000005,-7.8,1.8
1698419980.082,16,0.0,0.0,0.0,-1.2000000000000002,9.5,-0.2,-4.1000000000000005,-8.1,1.7
1698419980.099,16,0.0,0.0,0.0,-1.3,9.5,-0.2,-4.0,-8.600000000000001,1.5000000000000002
1698419980.116,16,0.0,0.0,0.0,-1.2000000000000002,9.5,-0.2,-4.1000000000000005,-8.9,1.5000000000000002
1698419980.133,16,0.0,0.0,0.0,-1.2000000000000002,9.5,-0.2,-4.1000000000000005,-8.9,1.5000000000000002
1698419980.15,16,0.1,0.0,0.0,-1.2000000000000002,9.5,-0.1,-4.3999999999999995,-8.600000000000001,1.7
1698419980.166,16,0.1,0.0,0.1,-1.2000000000000002,9.5,-0.1,-4.5,-8.4,1.6
1698419980.182,16,0.1,0.0,0.0,-1.1,9.5,-0.1,-4.300000000000001,-8.3,1.8
1698419980.199,16,0.1,0.0,0.0,-1.1,9.5,0.0,-3.9,-8.1,1.8
1698419980.216,16,0.1,0.0,0.0,-1.1,9.5,0.0,-3.4,-7.8,2.0
1698419980.233,16,0.1,0.0,0.0,-1.1,9.5,0.0,-3.4,-7.500000000000001,2.0
1698419980.249,16,0.1,0.0,0.0,-1.1,9.5,-0.1,-3.4,-7.2,2.0
1698419980.266,16,0.1,0.0,0.0,-1.0,9.5,0.0,-3.3000000000000003,-7.400000000000001,2.1
1698419980.283,16,0.1,0.0,0.0,-1.0,9.5,-0.1,-3.4,-7.2,2.0
1698419980.3,16,0.2,0.0,-0.1,-1.0,9.5,-0.1,-3.5,-7.2,2.1999999999999997
1698419980.316,16,0.2,0.0,-0.1,-0.9,9.5,-0.1,-3.8,-7.500000000000001,2.5
1698419980.332,16,0.2,0.0,-0.1,-0.9,9.600000000000001,-0.1,-3.9,-7.6,2.4000000000000004
1698419980.35,16,0.30000000000000004,0.0,-0.1,-0.8,9.600000000000001,0.0,-4.1000000000000005,-8.0,2.6
1698419980.366,16,0.30000000000000004,0.0,-0.1,-0.7000000000000001,9.5,-0.1,-4.2,-8.3,2.9
1698419980.382,16,0.4,0.0,-0.1,-0.7000000000000001,9.5,-0.1,-4.300000000000001,-8.600000000000001,3.1
1698419980.399,16,0.4,0.1,-0.1,-0.6000000000000001,9.600000000000001,0.0,-4.7,-8.799999999999999,3.2
1698419980.416,16,0.5,0.1,-0.1,-0.5,9.600000000000001,-0.1,-4.7,-9.700000000000001,3.3000000000000003
1698419980.432,16,0.5,0.0,-0.1,-0.5,9.600000000000001,0.0,-4.6000000000000005,-10.3,3.4
1698419980.449,16,0.6000000000000001,0.0,-0.1,-0.4,9.600000000000001,0.0,-4.3999999999999995,-11.4,3.4
1698419980.466,16,0.7000000000000001,0.0,-0.1,-0.2,9.5,0.0,-4.1000000000000005,-12.4,3.8
1698419980.483,16,0.7000000000000001,0.0,-0.1,-0.2,9.5,0.0,-3.7000000000000006,-12.700000000000001,3.9
1698419980.499,16,0.8,-0.1,-0.1,0.0,9.5,0.0,-2.8,-11.9,3.2
1698419980.517,16,1.0,-0.1,-0.1,0.1,9.4,0.0,-1.4,-9.5,2.5
1698419980.533,16,1.0,-0.1,-0.1,0.2,9.4,0.0,-0.5,-7.699999999999999,2.1999999999999997
1698419980.549,16,1.0,0.0,-0.2,0.2,9.5,-0.1,1.8,-2.3000000000000003,2.5
1698419980.566,16,0.9,-0.1,-0.30000000000000004,0.1,9.4,-0.2,4.7,3.7000000000000006,2.5
1698419980.583,16,0.9,-0.2,-0.4,0.0,9.3,-0.30000000000000004,6.1000000000000005,6.1000000000000005,2.3000000000000003
1698419980.6,16,0.8,-0.2,-0.5,0.0,9.3,-0.4,7.8,9.9,1.7
1698419980.617,16,0.8,-0.1,-0.4,0.0,9.4,-0.4,8.700000000000001,13.5,0.0
1698419980.633,16,0.6000000000000001,0.0,-0.5,-0.1,9.4,-0.4,8.9,15.000000000000002,-1.4
1698419980.649,16,0.4,0.0,-0.4,-0.4,9.600000000000001,-0.4,8.9,17.200000000000003,-4.1000000000000005
1698419980.666,16,0.0,0.30000000000000004,-0.2,-0.8,9.9,-0.30000000000000004,8.4,16.0,-5.500000000000001
1698419980.683,16,-0.5,0.4,0.0,-1.1,10.0,-0.1,8.3,14.600000000000001,-6.000000000000001
1698419980.7,16,-0.5,0.30000000000000004,0.0,-1.4000000000000001,9.8,-0.2,9.1,10.4,-6.8
1698419980.716,16,0.0,0.2,-0.1,-0.9,9.700000000000001,-0.2,8.600000000000001,7.1000000000000005,-5.6
1698419980.733,16,0.30000000000000004,0.1,0.0,-0.5,9.600000000000001,-0.2,8.200000000000001,5.0,-5.2
1698419980.75,16,0.5,-0.1,0.1,-0.4,9.5,-0.1,7.400000000000001,3.3000000000000003,-4.7
1698419980.767,16,0.6000000000000001,-0.1,0.1,-0.30000000000000004,9.5,-0.1,6.7,3.8,-3.7000000000000006
1698419980.783,16,0.4,0.0,0.2,-0.4,9.5,0.0,6.4,4.6000000000000005,-2.1
1698419980.799,16,0.30000000000000004,0.0,0.2,-0.6000000000000001,9.5,0.0,6.2,5.4,-1.6
1698419980.816,16,-0.1,0.0,0.2,-1.0,9.5,-0.1,5.300000000000001,7.6,-1.0999999999999999
1698419980.833,16,-0.2,0.0,0.2,-1.2000000000000002,9.600000000000001,-0.1,4.5,8.799999999999999,-0.4
1698419980.849,16,-0.4,0.1,0.1,-1.3,9.600000000000001,-0.2,4.2,8.9,-0.1
1698419980.866,16,-0.30000000000000004,0.1,0.1,-1.3,9.600000000000001,-0.2,3.4,8.799999999999999,-0.5
1698419980.883,16,-0.30000000000000004,0.0,0.1,-1.2000000000000002,9.5,-0.30000000000000004,2.8,8.5,-1.0
1698419980.899,16,-0.30000000000000004,0.0,0.0,-1.2000000000000002,9.5,-0.30000000000000004,2.7,8.1,-1.3
1698419980.916,16,-0.30000000000000004,0.0,0.0,-1.2000000000000002,9.5,-0.30000000000000004,2.4000000000000004,7.500000000000001,-1.4
1698419980.932,16,-0.30000000000000004,0.0,0.0,-1.2000000000000002,9.5,-0.4,2.0,6.9,-1.5000000000000002
1698419980.949,16,-0.30000000000000004,0.0,0.0,-1.2000000000000002,9.5,-0.4,1.7,6.4,-1.6
1698419980.966,16,-0.30000000000000004,0.0,0.0,-1.3,9.5,-0.30000000000000004,0.8,5.4,-2.1
1698419980.983,16,-0.4,0.0,0.0,-1.4000000000000001,9.600000000000001,-0.30000000000000004,0.1,4.6000000000000005,-2.1999999999999997
1698419980.999,16,-0.30000000000000004,0.0,0.1,-1.3,9.600000000000001,-0.30000000000000004,-0.1,4.300000000000001,-2.1999999999999997
1698419981.016,16,-0.30000000000000004,0.0,0.1,-1.3,9.5,-0.2,0.0,3.6,-2.5
1698419981.033,16,-0.2,0.0,0.1,-1.3,9.5,-0.30000000000000004,0.2,3.3000000000000003,-2.4000000000000004
1698419981.049,16,-0.2,0.0,0.1,-1.3,9.5,-0.30000000000000004,0.2,3.0000000000000004,-2.1999999999999997
1698419981.066,16,-0.2,0.0,0.0,-1.2000000000000002,9.5,-0.30000000000000004,-0.1,3.0000000000000004,-1.9
1698419981.082,16,-0.1,0.0,0.0,-1.2000000000000002,9.5,-0.30000000000000004,-0.8,2.3000000000000003,-1.4
1698419981.099,16,-0.1,0.0,0.0,-1.2000000000000002,9.5,-0.30000000000000004,-1.0999999999999999,2.3000000000000003,-1.3
1698419981.116,16,-0.1,0.0,0.1,-1.2000000000000002,9.5,-0.2,-1.8,2.7,-1.0
1698419981.132,16,-0.2,0.0,0.1,-1.3,9.5,-0.2,-2.1999999999999997,2.6,-1.0
1698419981.149,16,-0.2,0.0,0.1,-1.3,9.600000000000001,-0.2,-2.1999999999999997,2.3000000000000003,-1.0
1698419981.166,16,-0.2,0.0,0.0,-1.3,9.5,-0.30000000000000004,-2.5,1.9,-0.9
1698419981.183,16,-0.1,0.0,0.0,-1.3,9.5,-0.30000000000000004,-2.7,1.4,-0.8
1698419981.199,16,-0.1,0.0,0.0,-1.3,9.5,-0.30000000000000004,-2.7,1.2000000000000002,-0.5
1698419981.216,16,-0.1,0.0,0.1,-1.2000000000000002,9.5,-0.2,-2.7,1.0999999999999999,-0.5
1698419981.233,16,-0.1,0.0,0.0,-1.2000000000000002,9.5,-0.2,-2.7,0.9,-0.30000000000000004
1698419981.25,16,-0.1,0.0,0.0,-1.2000000000000002,9.5,-0.2,-2.7,0.9,-0.30000000000000004
1698419981.266,16,-0.1,0.0,0.0,-1.2000000000000002,9.5,-0.2,-2.5,1.0999999999999999,-0.4
1698419981.283,16,-0.1,0.0,0.1,-1.3,9.5,-0.2,-2.4000000000000004,0.5,-0.4
1698419981.299,16,-0.1,0.0,0.0,-1.3,9.5,-0.2,-2.3000000000000003,0.4,-0.5
1698419981.316,16,0.0,0.0,0.0,-1.2000000000000002,9.5,-0.2,-2.0,0.30000000000000004,-0.5
1698419981.333,16,0.0,0.0,0.0,-1.2000000000000002,9.5,-0.2,-1.9,0.6000000000000001,-0.7
1698419981.349,16,0.0,0.0,0.0,-1.2000000000000002,9.5,-0.30000000000000004,-1.9,0.6000000000000001,-0.8
1698419981.366,16,0.0,0.0,0.0,-1.2000000000000002,9.5,-0.2,-1.9,0.8,-0.9
1698419981.383,16,0.0,0.0,0.0,-1.1,9.5,-0.2,-1.4,1.0999999999999999,-1.0
1698419981.4,16,0.1,-0.1,0.0,-1.1,9.5,-0.2,-1.2000000000000002,1.4,-1.0
1698419981.416,16,0.1,-0.1,0.0,-1.1,9.4,-0.2,-1.2000000000000002,1.3,-0.9
1698419981.433,16,0.1,0.0,0.0,-1.1,9.5,-0.2,-1.0999999999999999,1.5000000000000002,-1.0
1698419981.449,16,0.0,0.0,0.0,-1.1,9.5,-0.2,-1.0999999999999999,1.8,-1.0
1698419981.466,16,0.0,0.0,0.0,-1.2000000000000002,9.5,-0.2,-1.0999999999999999,2.0,-0.7
1698419981.483,16,0.0,0.0,0.0,-1.2000000000000002,9.5,-0.2,-0.9,1.9,-0.4
1698419981.5,16,0.0,0.0,0.0,-1.1,9.5,-0.2,-0.8,1.7,-0.30000000000000004
1698419981.516,16,0.0,0.0,0.0,-1.1,9.5,-0.1,-0.9,1.6,-0.5
1698419981.533,16,0.0,0.0,0.0,-1.2000000000000002,9.5,-0.2,-1.0999999999999999,1.4,-0.6000000000000001
1698419981.549,16,0.0,0.0,0.1,-1.2000000000000002,9.5,-0.1,-1.0999999999999999,1.4,-0.5
1698419981.566,16,0.0,0.0,0.1,-1.2000000000000002,9.5,-0.1,-0.9,1.4,-0.30000000000000004
1698419981.582,16,0.0,0.0,0.1,-1.1,9.5,-0.1,-0.8,1.7,-0.2
1698419981.599,16,0.1,0.0,0.1,-1.1,9.5,-0.1,-0.4,1.9,-0.1
1698419981.616,16,0.1,0.0,0.1,-1.1,9.5,-0.1,-0.30000000000000004,2.0,-0.2
1698419981.633,16,0.0,0.0,0.1,-1.1,9.5,-0.1,-0.1,1.9,-0.30000000000000004
1698419981.65,16,0.0,0.0,0.0,-1.1,9.5,-0.1,-0.1,1.8,0.1
1698419981.666,16,0.1,0.0,0.0,-1.1,9.5,-0.1,-0.30000000000000004,1.5000000000000002,0.2
1698419981.683,16,0.1,0.1,0.0,-1.1,9.600000000000001,-0.1,-0.4,1.3,0.0
1698419981.699,16,0.0,0.0,0.0,-1.1,9.5,-0.1,-0.5,1.4,-0.30000000000000004
1698419981.716,16,0.0,0.0,0.0,-1.2000000000000002,9.5,-0.2,-0.5,1.2000000000000002,-0.30000000000000004
1698419981.733,16,0.0,0.0,0.0,-1.1,9.5,-0.1,-0.5,1.0,-0.1
1698419981.753,16,0.1,0.0,0.0,-1.1,9.5,-0.1,-0.1,0.9,0.0
1698419981.766,16,0.1,0.0,0.0,-1.1,9.5,-0.1,0.0,0.9,0.1
1698419981.783,16,0.1,0.0,0.0,-1.1,9.5,-0.1,0.8,1.0999999999999999,0.30000000000000004
1698419981.8,16,0.1,-0.1,0.0,-1.1,9.5,-0.1,1.2000000000000002,1.6,0.30000000000000004
1698419981.816,16,0.1,-0.1,0.0,-1.1,9.4,-0.2,1.4,1.8,0.30000000000000004
1698419981.833,16,0.0,-0.1,0.0,-1.1,9.4,-0.2,1.7,1.8,0.2
1698419981.849,16,0.0,0.0,-0.1,-1.1,9.5,-0.30000000000000004,1.7,1.8,0.2
1698419981.866,16,0.0,0.0,-0.1,-1.1,9.5,-0.2,1.7,1.5000000000000002,0.30000000000000004
1698419981.883,16,0.0,0.0,-0.1,-1.1,9.5,-0.30000000000000004,1.9,1.0,0.30000000000000004
1698419981.899,16,0.0,0.0,-0.1,-1.1,9.5,-0.30000000000000004,2.0,0.6000000000000001,0.2
1698419981.917,16,0.0,0.0,-0.1,-1.1,9.5,-0.30000000000000004,2.1,0.4,0.2
1698419981.933,16,0.0,0.0,-0.1,-1.1,9.5,-0.30000000000000004,2.0,-0.30000000000000004,0.30000000000000004
1698419981.949,16,0.0,0.0,-0.1,-1.1,9.5,-0.30000000000000004,2.0,-1.0,0.1
1698419981.967,16,0.0,0.0,-0.1,-1.1,9.5,-0.30000000000000004,2.0,-1.0,0.1
1698419981.982,16,0.0,0.0,0.0,-1.1,9.5,-0.30000000000000004,2.0,-1.3,0.1
1698419981.999,16,0.1,0.0,0.0,-1.1,9.5,-0.30000000000000004,1.9,-1.6,0.1
1698419982.016,16,0.0,0.0,0.0,-1.1,9.5,-0.30000000000000004,1.5000000000000002,-1.5000000000000002,-0.1
1698419982.032,16,0.0,0.1,0.0,-1.1,9.600000000000001,-0.30000000000000004,1.3,-1.6,0.0
1698419982.049,16,0.1,0.0,0.0,-1.1,9.5,-0.2,1.2000000000000002,-1.6,-0.1
1698419982.066,16,0.1,0.0,0.0,-1.1,9.5,-0.2,1.0999999999999999,-1.0999999999999999,-0.1
1698419982.082,16,0.0,0.0,0.0,-1.1,9.5,-0.30000000000000004,1.0,-1.0999999999999999,-0.1
1698419982.099,16,0.1,0.0,0.0,-1.0,9.600000000000001,-0.2,1.2000000000000002,-0.5,-0.1
1698419982.116,16,0.1,0.0,0.0,-1.0,9.5,-0.30000000000000004,1.0999999999999999,0.0,-0.30000000000000004
1698419982.133,16,0.1,0.0,0.0,-1.1,9.5,-0.30000000000000004,1.0999999999999999,0.1,-0.5
1698419982.149,16,0.0,0.0,0.0,-1.1,9.5,-0.2,1.0999999999999999,0.0,-0.7
1698419982.166,16,0.0,0.0,0.0,-1.1,9.5,-0.2,1.0,-0.1,-0.7
1698419982.183,16,0.0,0.0,0.0,-1.1,9.5,-0.30000000000000004,0.8,-0.30000000000000004,-0.4
1698419982.199,16,0.0,0.0,0.0,-1.1,9.5,-0.30000000000000004,0.6000000000000001,-0.5,-0.2
1698419982.217,16,0.0,0.0,0.0,-1.0,9.600000000000001,-0.30000000000000004,0.6000000000000001,-0.4,-0.1
1698419982.233,16,0.1,0.1,-0.1,-1.1,9.600000000000001,-0.4,0.7,-0.2,-0.1
1698419982.25,16,0.0,0.0,0.0,-1.1,9.5,-0.30000000000000004,0.5,-0.1,0.1
1698419982.266,16,0.1,0.0,0.0,-1.0,9.5,-0.30000000000000004,0.6000000000000001,-0.1,0.4
1698419982.283,16,0.0,0.0,0.0,-1.1,9.5,-0.30000000000000004,0.4,0.2,0.30000000000000004
1698419982.299,16,0.0,0.0,0.0,-1.1,9.5,-0.30000000000000004,0.2,0.5,0.1
1698419982.316,16,0.0,0.0,0.0,-1.1,9.5,-0.30000000000000004,0.30000000000000004,0.6000000000000001,0.2
1698419982.333,16,0.0,0.0,0.0,-1.1,9.5,-0.2,0.7,0.5,0.4
1698419982.349,16,0.0,0.0,0.0,-1.1,9.5,-0.30000000000000004,1.0,0.6000000000000001,0.6000000000000001
1698419982.366,16,0.0,-0.1,0.0,-1.1,9.5,-0.30000000000000004,1.4,0.6000000000000001,0.30000000000000004
1698419982.382,16,0.0,0.0,0.0,-1.1,9.5,-0.30000000000000004,1.6,0.6000000000000001,0.4
1698419982.399,16,0.0,0.0,-0.1,-1.1,9.5,-0.4,1.8,0.30000000000000004,0.4
1698419982.416,16,0.0,0.0,0.0,-1.1,9.5,-0.30000000000000004,2.1,0.4,0.5
1698419982.433,16,0.0,0.0,0.0,-1.1,9.5,-0.30000000000000004,2.4000000000000004,0.30000000000000004,0.4
1698419982.449,16,0.0,0.0,0.0,-1.1,9.5,-0.30000000000000004,3.1,0.8,0.2
1698419982.466,16,0.0,0.0,0.0,-1.1,9.5,-0.4,3.8,0.8,0.30000000000000004
1698419982.483,16,0.0,0.0,0.0,-1.1,9.5,-0.4,3.9,0.6000000000000001,0.4
1698419982.499,16,0.0,0.0,0.0,-1.1,9.5,-0.4,4.0,0.30000000000000004,0.5
1698419982.516,16,0.0,0.0,0.0,-1.1,9.5,-0.4,4.1000000000000005,0.2,0.6000000000000001
1698419982.533,16,0.0,0.0,0.0,-1.1,9.5,-0.4,4.3999999999999995,0.30000000000000004,0.2
1698419982.549,16,0.0,0.0,0.0,-1.1,9.5,-0.4,4.7,0.5,0.2
1698419982.566,16,0.0,0.0,0.0,-1.1,9.5,-0.4,4.300000000000001,0.2,0.0
1698419982.583,16,0.0,0.0,0.0,-1.1,9.5,-0.4,4.0,0.0,0.0
1698419982.599,16,0.0,0.1,0.0,-1.1,9.600000000000001,-0.5,3.1,-0.30000000000000004,-0.4
1698419982.616,16,0.0,0.1,0.0,-1.1,9.600000000000001,-0.4,2.4000000000000004,-0.4,-0.4
1698419982.633,16,0.0,0.1,0.0,-1.1,9.600000000000001,-0.5,2.0,-0.30000000000000004,-0.30000000000000004
1698419982.649,16,0.0,0.1,0.0,-1.1,9.600000000000001,-0.5,1.2000000000000002,-0.2,-0.4
1698419982.666,16,0.0,0.1,-0.1,-1.1,9.600000000000001,-0.5,0.4,0.0,-0.4
1698419982.683,16,0.0,0.0,0.0,-1.1,9.600000000000001,-0.5,0.0,0.1,-0.4
1698419982.699,16,0.0,0.0,0.0,-1.1,9.600000000000001,-0.5,-0.6000000000000001,0.2,-0.2
1698419982.716,16,0.0,0.0,0.0,-1.1,9.5,-0.5,-1.0999999999999999,0.5,0.1
1698419982.733,16,0.0,0.0,0.0,-1.1,9.5,-0.5,-1.6,0.7,-0.1
1698419982.749,16,0.0,0.0,0.0,-1.1,9.5,-0.5,-1.7,0.7,-0.1
1698419982.766,16,0.0,0.0,0.0,-1.1,9.5,-0.5,-1.7,0.5,-0.2
1698419982.782,16,0.0,0.0,0.0,-1.1,9.5,-0.5,-1.9,-0.1,0.1
1698419982.799,16,0.0,0.0,-0.1,-1.1,9.5,-0.5,-1.8,-0.2,0.0
1698419982.816,16,0.0,0.0,-0.1,-1.1,9.5,-0.5,-1.8,-0.30000000000000004,0.0
1698419982.833,16,0.0,0.0,-0.1,-1.1,9.5,-0.5,-1.6,-0.5,0.1
1698419982.849,16,0.0,-0.1,-0.1,-1.1,9.5,-0.5,-1.6,-0.30000000000000004,0.1
1698419982.866,16,0.0,0.0,-0.1,-1.1,9.5,-0.5,-1.4,-0.1,0.1
1698419982.882,16,0.0,0.0,-0.1,-1.1,9.5,-0.5,-1.4,-0.2,0.0
1698419982.9,16,0.0,0.0,-0.1,-1.1,9.5,-0.6000000000000001,-1.4,-0.30000000000000004,-0.2
1698419982.916,16,0.0,0.0,0.0,-1.1,9.5,-0.5,-1.6,-0.6000000000000001,-0.2
1698419982.933,16,0.0,0.0,-0.1,-1.1,9.5,-0.5,-1.0999999999999999,-0.7,-0.1
1698419982.949,16,0.0,0.0,0.0,-1.1,9.5,-0.5,-1.0,-0.8,-0.1
1698419982.966,16,0.0,0.0,-0.1,-1.1,9.5,-0.5,-0.9,-0.9,-0.1
1698419982.983,16,0.0,0.0,0.0,-1.1,9.5,-0.5,-1.4,-1.0999999999999999,-0.2
1698419982.999,16,0.0,0.0,0.0,-1.1,9.5,-0.4,-1.3,-1.0999999999999999,-0.30000000000000004
1698419983.016,16,0.0,0.0,0.0,-1.1,9.5,-0.5,-1.2000000000000002,-0.8,-0.2
1698419983.032,16,0.0,0.0,-0.1,-1.1,9.5,-0.5,-0.9,-0.5,-0.2
1698419983.05,16,0.0,0.0,0.0,-1.1,9.5,-0.5,-1.0,-0.30000000000000004,-0.30000000000000004
1698419983.066,16,0.0,0.0,0.0,-1.1,9.600000000000001,-0.5,-1.0999999999999999,0.0,-0.4
1698419983.082,16,0.0,0.0,0.1,-1.1,9.5,-0.4,-1.2000000000000002,0.0,-0.30000000000000004
1698419983.099,16,0.0,0.0,0.1,-1.1,9.5,-0.30000000000000004,-1.2000000000000002,0.2,-0.2
1698419983.118,16,0.1,0.0,0.2,-1.0,9.5,-0.30000000000000004,-0.8,0.2,-0.2
1698419983.133,16,0.0,0.0,0.1,-1.1,9.5,-0.30000000000000004,-0.1,0.1,-0.30000000000000004
1698419983.149,16,0.0,-0.1,0.1,-1.1,9.4,-0.30000000000000004,-0.1,-0.2,-0.1
1698419983.166,16,0.0,0.0,0.1,-1.1,9.5,-0.30000000000000004,-0.6000000000000001,-0.5,-0.2
1698419983.183,16,0.0,0.1,0.0,-1.1,9.600000000000001,-0.4,-0.9,0.0,-0.2
1698419983.202,16,0.0,0.1,0.0,-1.1,9.600000000000001,-0.30000000000000004,-1.2000000000000002,0.6000000000000001,-0.30000000000000004
1698419983.216,16,0.0,0.0,0.0,-1.1,9.5,-0.30000000000000004,-1.2000000000000002,0.7,-0.1
1698419983.232,16,0.0,0.0,0.0,-1.1,9.5,-0.4,-1.4,0.8,-0.2
1698419983.249,16,0.0,0.0,0.0,-1.1,9.5,-0.30000000000000004,-1.5000000000000002,0.6000000000000001,-0.2
1698419983.266,16,0.0,-0.1,0.1,-1.1,9.5,-0.30000000000000004,-1.8,0.4,-0.30000000000000004
1698419983.283,16,0.0,0.0,0.1,-1.1,9.5,-0.30000000000000004,-1.9,0.30000000000000004,-0.4
1698419983.3,16,0.0,0.0,0.0,-1.1,9.5,-0.30000000000000004,-1.9,0.5,-0.5
1698419983.316,16,0.0,0.0,0.0,-1.1,9.5,-0.30000000000000004,-1.9,0.6000000000000001,-0.5
1698419983.332,16,0.0,0.0,0.1,-1.1,9.5,-0.2,-1.7,1.0999999999999999,-0.8
1698419983.349,16,0.0,0.0,0.2,-1.1,9.5,-0.1,-1.0999999999999999,0.9,-0.5
1698419983.366,16,0.0,-0.1,0.0,-1.1,9.4,-0.30000000000000004,-0.8,0.9,-0.2
1698419983.382,16,0.0,0.0,0.0,-1.1,9.5,-0.30000000000000004,-1.3,0.6000000000000001,-0.2
1698419983.399,16,0.0,0.0,0.0,-1.1,9.5,-0.30000000000000004,-1.3,0.5,-0.2
1698419983.416,16,0.0,0.0,0.0,-1.1,9.5,-0.30000000000000004,-1.4,0.6000000000000001,-0.1
1698419983.432,16,0.0,0.0,0.0,-1.1,9.5,-0.30000000000000004,-1.4,0.6000000000000001,-0.1
1698419983.449,16,0.0,0.0,0.0,-1.1,9.5,-0.30000000000000004,-1.6,0.6000000000000001,-0.1
1698419983.466,16,0.0,0.0,0.0,-1.2000000000000002,9.600000000000001,-0.30000000000000004,-2.0,0.6000000000000001,0.1
1698419983.483,16,0.0,0.0,0.0,-1.1,9.600000000000001,-0.30000000000000004,-1.9,0.6000000000000001,0.1
1698419983.499,16,0.0,0.0,0.0,-1.1,9.5,-0.30000000000000004,-1.9,0.5,0.1
1698419983.516,16,0.0,0.0,0.0,-1.2000000000000002,9.5,-0.2,-1.7,-0.1,0.1
1698419983.532,16,0.0,0.0,0.1,-1.2000000000000002,9.5,-0.2,-1.6,-0.30000000000000004,0.1
1698419983.549,16,0.0,0.0,0.0,-1.2000000000000002,9.5,-0.2,-1.5000000000000002,-0.5,0.1
1698419983.566,16,0.0,0.0,0.0,-1.1,9.5,-0.2,-1.6,-0.8,0.1
1698419983.583,16,0.0,0.0,0.0,-1.1,9.5,-0.2,-1.5000000000000002,-1.0,0.1
1698419983.599,16,0.0,0.0,0.0,-1.1,9.5,-0.2,-1.3,-1.0,-0.1
1698419983.616,16,0.0,0.0,0.0,-1.2000000000000002,9.5,-0.2,-1.2000000000000002,-1.4,-0.1
1698419983.633,16,0.0,0.0,0.0,-1.2000000000000002,9.5,-0.2,-0.9,-1.5000000000000002,0.1
1698419983.649,16,0.0,0.0,0.0,-1.1,9.5,-0.2,-0.8,-1.6,0.1
1698419983.666,16,0.0,0.0,-0.1,-1.1,9.5,-0.30000000000000004,-0.9,-1.4,0.2
1698419983.683,16,0.0,0.0,0.1,-1.1,9.5,-0.2,-1.0999999999999999,-1.0999999999999999,0.1
1698419983.699,16,0.0,0.0,0.0,-1.1,9.5,-0.2,-0.8,-0.8,0.1
1698419983.716,16,0.0,0.0,0.0,-1.1,9.5,-0.2,-0.7,-0.6000000000000001,-0.1
1698419983.734,16,0.0,0.0,0.0,-1.1,9.5,-0.2,-0.7,-0.6000000000000001,0.30000000000000004
1698419983.75,16,0.0,0.0,0.0,-1.1,9.5,-0.2,-0.6000000000000001,-0.6000000000000001,0.30000000000000004
1698419983.766,16,0.0,0.0,0.0,-1.1,9.5,-0.2,-0.6000000000000001,-0.4,0.4
1698419983.782,16,0.0,0.0,0.0,-1.1,9.5,-0.2,-1.3,-0.1,0.4
1698419983.799,16,0.0,0.0,0.0,-1.1,9.600000000000001,-0.2,-1.9,-0.5,0.4
1698419983.816,16,0.0,0.0,0.0,-1.1,9.5,-0.2,-1.9,-0.7,0.5
1698419983.833,16,0.0,0.0,0.0,-1.1,9.5,-0.2,-1.9,-1.2000000000000002,0.6000000000000001
1698419983.849,16,0.1,0.0,0.0,-1.0,9.5,-0.2,-1.6,-1.6,0.30000000000000004
1698419983.866,16,0.1,0.0,0.0,-1.0,9.5,-0.2,-1.6,-1.4,0.2
1698419983.882,16,0.1,0.0,0.0,-1.0,9.5,-0.2,-1.4,-0.8,-0.4
1698419983.899,16,0.1,0.0,0.0,-1.1,9.5,-0.2,-1.4,-0.9,-0.7
1698419983.916,16,0.0,0.0,0.0,-1.1,9.5,-0.2,-1.4,-0.9,-0.7
1698419983.935,16,0.0,0.0,0.0,-1.1,9.5,-0.2,-1.3,-1.0,-0.4
1698419983.949,16,0.1,0.0,0.0,-1.1,9.5,-0.2,-1.2000000000000002,-0.8,-0.30000000000000004
1698419983.966,16,0.1,0.0,0.0,-1.0,9.5,-0.2,-1.2000000000000002,-0.8,-0.4
1698419983.983,16,0.1,0.0,0.0,-1.1,9.5,-0.2,-1.0999999999999999,-0.8,-0.5
1698419983.999,16,0.0,0.0,-0.1,-1.1,9.5,-0.2,-1.0999999999999999,-0.8,-0.4
1698419984.016,16,0.0,0.0,-0.1,-1.1,9.5,-0.2,-1.2000000000000002,-0.9,-0.1
1698419984.033,16,0.0,0.0,-0.1,-1.1,9.600000000000001,-0.2,-1.3,-0.8,-0.1
1698419984.049,16,0.0,0.0,-0.1,-1.1,9.5,-0.30000000000000004,-1.7,-0.30000000000000004,0.0
1698419984.066,16,0.1,0.0,-0.1,-1.0,9.5,-0.2,-1.9,-0.30000000000000004,0.0
1698419984.082,16,0.1,0.0,0.0,-1.0,9.5,-0.2,-2.1,-0.6000000000000001,0.0
1698419984.099,16,0.1,0.1,0.0,-1.0,9.600000000000001,-0.2,-2.1999999999999997,-0.30000000000000004,-0.2
1698419984.116,16,0.0,0.1,0.0,-1.1,9.600000000000001,-0.2,-2.1999999999999997,0.0,-0.2
1698419984.132,16,0.0,0.1,-0.1,-1.1,9.600000000000001,-0.2,-1.8,0.4,-0.1
1698419984.149,16,0.0,0.0,0.0,-1.1,9.5,-0.1,-1.6,0.5,0.1
1698419984.166,16,0.0,0.0,0.0,-1.1,9.5,-0.1,-1.5000000000000002,0.4,0.0
1698419984.182,16,-0.1,0.0,0.1,-1.2000000000000002,9.5,-0.1,-1.2000000000000002,0.6000000000000001,-0.1
1698419984.199,16,0.0,0.0,0.0,-1.1,9.5,-0.1,-0.8,0.7,-0.1
1698419984.216,16,0.0,-0.1,0.0,-1.1,9.4,-0.1,-0.9,0.4,-0.2
1698419984.233,16,-0.1,-0.1,0.0,-1.2000000000000002,9.4,-0.2,-1.0999999999999999,0.2,-0.4
1698419984.249,16,-0.1,-0.1,-0.1,-1.2000000000000002,9.4,-0.2,-1.4,-0.30000000000000004,-0.2
1698419984.266,16,-0.1,0.1,-0.1,-1.2000000000000002,9.600000000000001,-0.2,-1.7,-1.0999999999999999,-0.1
1698419984.283,16,0.0,0.1,-0.2,-1.1,9.600000000000001,-0.30000000000000004,-1.7,-1.6,-0.2
1698419984.299,16,0.0,0.1,-0.2,-1.1,9.600000000000001,-0.30000000000000004,-1.6,-1.9,-0.5
1698419984.316,16,-0.1,0.0,-0.1,-1.2000000000000002,9.5,-0.2,-2.1,-1.7,-0.5
1698419984.333,16,-0.1,0.0,-0.1,-1.2000000000000002,9.5,-0.2,-3.7000000000000006,-1.2000000000000002,-0.5
1698419984.349,16,0.0,0.0,-0.1,-1.2000000000000002,9.5,-0.2,-5.4,-0.5,-0.6000000000000001
1698419984.366,16,0.0,0.0,-0.1,-1.1,9.5,-0.2,-6.4,-0.30000000000000004,-0.7
1698419984.383,16,0.0,0.0,0.0,-1.1,9.5,-0.1,-8.0,-1.5000000000000002,-0.30000000000000004
1698419984.399,16,0.1,-0.1,-0.2,-1.0,9.5,-0.2,-8.5,-3.6,0.2
1698419984.416,16,0.1,0.0,-0.2,-1.0,9.5,-0.30000000000000004,-10.2,-5.2,0.30000000000000004
1698419984.433,16,0.2,0.0,-0.2,-1.0,9.5,-0.2,-11.000000000000002,-5.6,0.2
1698419984.449,16,0.2,-0.2,-0.2,-0.9,9.3,-0.2,-12.000000000000002,-6.9,-0.5
1698419984.466,16,0.30000000000000004,-0.2,-0.30000000000000004,-0.8,9.3,-0.2,-13.6,-7.6,-0.9
1698419984.486,16,0.4,-0.2,-0.4,-0.7000000000000001,9.3,-0.30000000000000004,-14.100000000000001,-7.9,-1.6
1698419984.499,16,0.30000000000000004,-0.1,-0.6000000000000001,-0.8,9.3,-0.4,-14.100000000000001,-7.400000000000001,-2.1
1698419984.516,16,0.2,0.0,-0.8,-0.9,9.4,-0.7000000000000001,-13.9,-5.6,-2.0
1698419984.533,16,0.2,0.0,-1.0,-0.9,9.5,-0.8,-13.9,-4.7,-1.6
1698419984.549,16,0.2,0.1,-1.0,-0.8,9.600000000000001,-0.8,-13.6,-5.0,-0.1
1698419984.566,16,0.30000000000000004,0.1,-1.0,-0.7000000000000001,9.600000000000001,-0.8,-13.5,-5.6,0.5
1698419984.582,16,0.5,0.2,-1.0,-0.6000000000000001,9.700000000000001,-0.7000000000000001,-12.700000000000001,-7.1000000000000005,1.2000000000000002
1698419984.599,16,0.6000000000000001,0.1,-1.1,-0.5,9.600000000000001,-0.8,-10.5,-8.9,1.7
1698419984.616,16,0.6000000000000001,-0.30000000000000004,-1.2000000000000002,-0.5,9.200000000000001,-0.9,-7.2,-10.700000000000001,2.6
1698419984.633,16,0.5,-0.30000000000000004,-1.3,-0.6000000000000001,9.200000000000001,-1.0,-5.4,-11.4,2.9
1698419984.649,16,0.4,-0.2,-1.6,-0.6000000000000001,9.3,-1.2000000000000002,-3.8,-11.2,3.1
1698419984.666,16,0.30000000000000004,-0.1,-1.6,-0.8,9.4,-1.3,-2.7,-10.4,2.7
1698419984.682,16,0.2,0.0,-1.6,-0.8,9.5,-1.3,-2.1999999999999997,-10.700000000000001,2.8
1698419984.699,16,0.2,-0.2,-1.7000000000000002,-0.8,9.3,-1.3,-0.2,-13.700000000000001,3.2
1698419984.716,16,0.30000000000000004,-0.2,-1.5,-0.7000000000000001,9.3,-1.2000000000000002,0.30000000000000004,-13.6,3.3000000000000003
1698419984.732,16,0.2,-0.4,-1.5,-0.7000000000000001,9.1,-1.2000000000000002,0.7,-13.8,3.1
1698419984.749,16,0.1,-0.5,-1.3,-0.8,9.0,-1.0,-2.5,-10.2,3.9
1698419984.766,16,-0.1,-1.0,-0.5,-1.1,8.5,-0.2,-10.700000000000001,0.2,2.9
1698419984.782,16,-0.4,-1.3,-0.30000000000000004,-1.4000000000000001,8.1,0.0,-14.900000000000002,9.4,4.0
1698419984.799,16,-1.2000000000000002,-1.5,-0.7000000000000001,-2.1,7.9,-0.30000000000000004,-22.6,26.500000000000004,7.8
1698419984.816,16,-1.4000000000000001,0.0,-1.3,-2.3000000000000003,9.5,-0.8,-34.7,40.4,13.100000000000001
1698419984.832,16,-0.4,1.6,-1.1,-1.3,11.100000000000001,-0.6000000000000001,-38.400000000000006,42.0,14.0
1698419984.849,16,1.4000000000000001,2.8000000000000003,-0.8,0.5,12.3,-0.2,-29.300000000000004,41.300000000000004,8.799999999999999
1698419984.866,16,1.0,1.4000000000000001,-1.9000000000000001,0.1,10.8,-1.2000000000000002,-18.5,38.2,-7.9
1698419984.883,16,0.30000000000000004,1.2000000000000002,-2.5,-0.6000000000000001,10.700000000000001,-1.8,-19.9,43.800000000000004,-14.100000000000001
1698419984.899,16,-0.30000000000000004,1.8,-2.6,-1.3,11.3,-1.9000000000000001,-26.3,57.5,-18.1
1698419984.916,16,-0.1,0.7000000000000001,-2.1,-1.2000000000000002,10.200000000000001,-1.3,-28.400000000000002,60.599999999999994,-21.5
1698419984.933,16,-0.30000000000000004,0.30000000000000004,-1.9000000000000001,-1.5,9.700000000000001,-1.1,-30.5,60.00000000000001,-23.900000000000002
1698419984.949,16,-0.7000000000000001,-0.30000000000000004,-1.5,-1.9000000000000001,9.1,-0.7000000000000001,-37.300000000000004,53.9,-29.300000000000004
1698419984.966,16,-0.9,-0.30000000000000004,-1.1,-2.2,9.1,-0.1,-42.400000000000006,43.7,-35.0
1698419984.982,16,-1.1,-0.4,-1.0,-2.5,9.0,0.0,-42.1,38.5,-41.4
1698419984.999,16,-1.5,0.2,-1.5,-3.1,9.5,-0.30000000000000004,-38.2,31.6,-50.800000000000004
1698419985.016,16,-1.2000000000000002,0.6000000000000001,-2.3000000000000003,-3.0,9.9,-1.1,-35.4,24.9,-50.800000000000004
1698419985.032,16,-1.3,0.8,-2.5,-3.2,10.100000000000001,-1.2000000000000002,-34.400000000000006,21.0,-50.6
1698419985.049,16,-1.3,0.8,-2.2,-3.4000000000000004,10.100000000000001,-0.8,-31.4,18.2,-46.2
1698419985.066,16,-0.8,0.2,-2.0,-3.1,9.4,-0.6000000000000001,-19.1,11.8,-39.8
1698419985.083,16,-0.6000000000000001,0.4,-2.4000000000000004,-2.9000000000000004,9.600000000000001,-1.0,-12.700000000000001,8.799999999999999,-36.9
1698419985.099,16,-0.7000000000000001,0.5,-2.7,-3.1,9.600000000000001,-1.3,-3.3000000000000003,11.8,-32.0
1698419985.116,16,-0.9,1.0,-3.7,-3.4000000000000004,10.100000000000001,-2.4000000000000004,6.000000000000001,11.8,-23.6
1698419985.133,16,-1.2000000000000002,1.7000000000000002,-3.1,-3.8000000000000003,10.9,-1.9000000000000001,10.0,7.699999999999999,-11.6
1698419985.151,16,-1.4000000000000001,0.8,-3.1,-4.0,10.0,-1.8,13.3,7.699999999999999,-7.9
1698419985.166,16,-1.3,2.8000000000000003,-1.7000000000000002,-3.9000000000000004,12.0,-0.6000000000000001,7.699999999999999,-2.0,-3.5
1698419985.182,16,-0.5,3.7,2.4000000000000004,-0.9,11.4,4.4,12.100000000000001,-14.4,2.9
1698419985.199,16,3.1,-0.7000000000000001,0.4,0.5,8.5,1.6,22.7,-11.2,2.5
1698419985.216,16,0.7000000000000001,-3.0,-0.8,-1.9000000000000001,6.2,0.30000000000000004,24.400000000000002,-48.9,-2.4000000000000004
1698419985.233,16,-0.4,-2.0,-1.1,-3.0,7.2,0.0,20.1,-73.0,1.7
1698419985.249,16,-1.0,0.2,1.1,-3.5,9.4,2.3000000000000003,-4.3999999999999995,-62.8,21.400000000000002
1698419985.266,16,0.2,0.1,0.6000000000000001,-2.2,9.4,1.8,-10.3,-47.0,19.8
1698419985.283,16,0.6000000000000001,-0.9,0.30000000000000004,-1.6,8.3,1.6,-11.9,-42.800000000000004,30.799999999999997
1698419985.299,16,0.4,0.1,-0.8,-1.8,9.3,0.5,-12.8,-42.900000000000006,32.5
1698419985.316,16,-0.4,1.2000000000000002,-0.6000000000000001,-2.5,10.5,0.8,-21.700000000000003,-30.299999999999997,31.2
1698419985.333,16,-0.9,0.7000000000000001,-0.9,-3.0,10.0,0.5,-18.1,-40.2,28.200000000000003
1698419985.349,16,-1.3,-0.7000000000000001,-1.6,-3.3000000000000003,8.6,0.0,-19.400000000000002,-47.5,19.1
1698419985.366,16,-0.6000000000000001,-1.3,-1.8,-2.5,8.0,-0.2,-20.1,-45.9,18.8
1698419985.382,16,0.4,-2.1,-1.8,-1.3,7.2,-0.1,-19.400000000000002,-47.800000000000004,27.7
1698419985.399,16,0.7000000000000001,-2.5,-1.9000000000000001,-1.0,6.800000000000001,-0.1,-18.0,-48.9,33.7
1698419985.416,16,0.7000000000000001,-2.8000000000000003,-1.2000000000000002,-0.8,6.4,0.6000000000000001,-15.8,-49.9,44.7
1698419985.433,16,0.5,-2.7,-0.6000000000000001,-0.8,6.5,1.2000000000000002,-5.9,-54.9,55.4
1698419985.449,16,0.5,-2.1,-1.1,-0.7000000000000001,7.2,0.8,-0.1,-57.2,58.7
1698419985.466,16,0.5,-0.2,-2.6,-0.5,9.1,-0.7000000000000001,2.0,-42.0,54.9
1698419985.482,16,1.9000000000000001,0.8,-2.6,1.1,10.100000000000001,-0.7000000000000001,0.2,-23.700000000000003,36.4
1698419985.499,16,2.9000000000000004,1.3,-2.1,2.1,10.600000000000001,-0.2,5.0,-22.2,29.400000000000002
1698419985.516,16,2.6,1.6,-2.0,1.9000000000000001,10.9,-0.2,26.8,-17.5,17.9
1698419985.532,16,1.1,0.9,-3.4000000000000004,0.5,10.3,-1.8,41.9,16.0,18.6
1698419985.549,16,0.7000000000000001,1.1,-4.0,0.2,10.5,-2.5,45.4,32.4,22.8
1698419985.566,16,-0.4,2.9000000000000004,-4.4,-0.9,12.3,-3.1,50.2,20.0,19.700000000000003
1698419985.583,16,-1.6,1.7000000000000002,-2.0,-2.2,11.200000000000001,-0.9,51.400000000000006,12.200000000000001,-18.1
1698419985.599,16,-1.6,2.7,-0.6000000000000001,-2.2,12.100000000000001,0.4,51.400000000000006,45.4,-30.599999999999998
1698419985.616,16,-3.7,4.4,16.3,-4.4,13.9,17.3,20.4,-40.1,-17.1
1698419985.632,16,1.0,-1.9000000000000001,-4.0,0.2,7.6000000000000005,-3.2,55.800000000000004,-0.30000000000000004,-35.4
1698419985.649,16,5.9,-1.2000000000000002,6.0,5.1000000000000005,8.3,6.800000000000001,23.0,43.800000000000004,-26.700000000000003
1698419985.666,16,4.7,3.2,2.6,3.8000000000000003,12.700000000000001,3.4000000000000004,5.1,41.5,-29.900000000000006
1698419985.682,16,-3.0,12.200000000000001,2.8000000000000003,-3.9000000000000004,21.8,3.7,-10.3,39.00000000000001,-5.2
1698419985.699,16,-4.2,10.8,3.1,-3.6,14.4,4.3,3.8,8.600000000000001,10.9
1698419985.716,16,-0.7000000000000001,2.0,2.7,-1.6,11.700000000000001,3.5,5.7,-12.100000000000001,20.7
1698419985.732,16,0.8,3.0,-0.1,-0.1,12.700000000000001,0.8,-12.4,-8.5,9.700000000000001
1698419985.749,16,0.7000000000000001,1.8,0.2,-0.2,9.9,1.6,-23.700000000000003,2.3000000000000003,-10.1
1698419985.766,16,0.9,-1.1,0.6000000000000001,0.0,8.6,1.6,-25.2,9.4,-14.700000000000001
1698419985.782,16,1.3,-3.4000000000000004,-0.2,0.30000000000000004,6.2,0.9,-25.400000000000002,15.7,-27.900000000000002
1698419985.799,16,0.30000000000000004,-4.1000000000000005,-1.4000000000000001,-0.8,5.5,-0.30000000000000004,-18.2,27.1,-34.50000000000001
1698419985.816,16,-0.5,-4.6000000000000005,-1.7000000000000002,-1.6,5.0,-0.6000000000000001,-13.5,22.5,-26.1
1698419985.832,16,-1.2000000000000002,-6.7,-2.1,-2.4000000000000004,2.8000000000000003,-0.9,-8.3,7.0,8.200000000000001
1698419985.85,16,-1.9000000000000001,-8.700000000000001,-1.6,-3.0,0.8,-0.4,-0.2,-14.600000000000001,15.2
1698419985.866,16,-1.8,-9.200000000000001,-1.7000000000000002,-2.9000000000000004,0.2,-0.5,3.5,-15.299999999999999,9.5
1698419985.883,16,-1.3,-8.700000000000001,-1.9000000000000001,-2.4000000000000004,0.6000000000000001,-0.8,4.7,-9.3,-5.8
1698419985.9,16,-0.8,-8.0,-1.9000000000000001,-2.0,1.3,-0.8,7.2,-4.3999999999999995,-8.3
1698419985.916,16,-0.1,-5.9,-1.9000000000000001,-1.2000000000000002,3.3000000000000003,-0.9,5.6,0.9,5.2
1698419985.932,16,-0.4,-0.6000000000000001,-1.1,-1.5,8.6,0.0,1.4,-20.7,14.200000000000001
1698419985.949,16,-0.7000000000000001,2.5,-0.4,-2.0,13.3,1.6,3.5,-33.7,4.1000000000000005
1698419985.966,16,-0.5,5.5,0.8,-1.7000000000000002,14.8,1.8,12.4,-10.5,-43.900000000000006
1698419985.982,16,2.0,8.5,-4.1000000000000005,0.6000000000000001,17.900000000000002,-3.2,27.8,48.00000000000001,-29.500000000000004
1698419985.999,16,3.7,5.1000000000000005,-4.6000000000000005,2.4000000000000004,14.5,-3.8000000000000003,37.2,46.6,4.5
1698419986.016,16,-0.1,7.1000000000000005,-0.30000000000000004,-1.4000000000000001,16.6,0.4,27.0,0.2,10.1
1698419986.035,16,1.4000000000000001,5.5,10.5,0.2,15.0,11.200000000000001,31.7,25.0,-8.3
1698419986.049,16,-1.1,-0.8,-4.0,-2.5,8.700000000000001,-3.5,62.300000000000004,-23.1,-32.5
1698419986.066,16,-3.9000000000000004,-2.9000000000000004,-0.7000000000000001,-5.300000000000001,6.6000000000000005,-0.30000000000000004,25.900000000000002,-26.400000000000002,-31.8
1698419986.082,16,-0.30000000000000004,4.1000000000000005,4.4,-1.7000000000000002,13.600000000000001,4.9,-21.0,-43.400000000000006,-6.9
1698419986.099,16,0.6000000000000001,9.8,5.5,-0.8,19.400000000000002,6.1000000000000005,-26.8,-45.800000000000004,22.1
1698419986.116,16,1.9000000000000001,8.700000000000001,3.5,0.6000000000000001,18.400000000000002,4.2,-10.3,-38.400000000000006,30.000000000000004
1698419986.133,16,-1.3,1.1,3.5,-2.6,10.8,4.2,-2.8,-15.2,-0.9
1698419986.149,16,-2.6,0.4,0.5,-4.0,10.100000000000001,1.3,-4.3999999999999995,27.0,3.9
1698419986.166,16,-1.6,0.1,-1.0,-2.9000000000000004,9.8,-0.2,-11.000000000000002,28.400000000000002,11.2
1698419986.182,16,-0.7000000000000001,-2.1,0.30000000000000004,-2.0,7.6000000000000005,1.1,-21.6,13.0,25.1
1698419986.199,16,-0.8,-3.8000000000000003,-0.30000000000000004,-1.9000000000000001,5.800000000000001,0.7000000000000001,-21.0,4.6000000000000005,41.5
1698419986.216,16,-0.4,-4.2,-0.5,-1.5,5.4,0.5,-24.9,3.6,44.6
1698419986.233,16,1.2000000000000002,-4.4,0.6000000000000001,0.30000000000000004,5.2,1.7000000000000002,-24.000000000000004,6.1000000000000005,44.1
1698419986.249,16,2.3000000000000003,-4.5,0.0,1.5,5.0,1.1,-16.900000000000002,0.8,27.8
1698419986.266,16,2.0,-4.7,-0.5,1.3,4.800000000000001,0.6000000000000001,-10.8,3.8,19.500000000000004
1698419986.282,16,0.8,-5.1000000000000005,-1.8,0.1,4.4,-0.7000000000000001,1.5000000000000002,11.1,11.8
1698419986.299,16,-0.5,-5.6000000000000005,-2.6,-1.2000000000000002,3.8000000000000003,-1.5,6.8,18.3,7.8
1698419986.316,16,-0.7000000000000001,-5.800000000000001,-1.8,-1.4000000000000001,3.6,-0.8,8.799999999999999,20.7,8.3
1698419986.333,16,0.0,-4.7,-1.5,-0.6000000000000001,4.7,-0.6000000000000001,22.8,13.8,9.600000000000001
1698419986.349,16,0.8,-3.4000000000000004,-2.6,0.2,6.0,-1.8,36.5,25.2,13.200000000000001
1698419986.366,16,1.4000000000000001,-2.9000000000000004,-3.0,0.8,6.5,-2.3000000000000003,39.9,42.0,22.1
1698419986.383,16,2.1,-1.6,-1.9000000000000001,1.7000000000000002,7.7,-1.3,33.900000000000006,71.0,42.0
1698419986.399,16,2.3000000000000003,1.4000000000000001,-1.3,2.1,10.8,-0.8,16.8,1.0999999999999999,65.2
1698419986.416,16,-0.6000000000000001,3.6,-1.1,-0.7000000000000001,13.0,-0.6000000000000001,14.100000000000001,-35.8,54.3
1698419986.433,16,-5.300000000000001,2.5,-1.2000000000000002,-5.6000000000000005,12.0,-0.8,37.300000000000004,-15.8,-19.9
1698419986.449,16,-0.9,8.3,8.700000000000001,-1.2000000000000002,17.8,9.0,21.6,117.8,-0.2
1698419986.466,16,-3.8000000000000003,10.4,12.600000000000001,-4.1000000000000005,20.0,12.9,11.6,35.8,16.900000000000002
1698419986.483,16,-0.8,-1.9000000000000001,-2.4000000000000004,-1.0,7.6000000000000005,-2.2,75.80000000000001,-36.0,14.600000000000001
1698419986.499,16,9.4,0.30000000000000004,5.300000000000001,9.3,9.8,5.5,12.700000000000001,38.1,6.4
1698419986.516,16,5.2,3.5,3.7,5.1000000000000005,13.0,3.8000000000000003,-2.5,33.7,-16.2
1698419986.533,16,-2.6,13.4,3.2,-2.7,23.0,3.5,-23.5,35.0,0.30000000000000004
1698419986.55,16,-0.5,6.9,1.1,-0.7000000000000001,16.7,1.4000000000000001,2.1999999999999997,-9.1,15.100000000000001
1698419986.566,16,1.4000000000000001,3.7,0.9,2.1,13.100000000000001,0.9,3.0000000000000004,-20.0,17.7
1698419986.583,16,1.8,3.0,-0.1,1.7000000000000002,12.8,0.2,-11.3,-23.8,6.1000000000000005
1698419986.599,16,0.5,0.30000000000000004,0.6000000000000001,0.4,10.100000000000001,1.0,-20.8,-10.600000000000001,-20.6
1698419986.616,16,0.4,-0.9,0.9,0.30000000000000004,7.9,1.2000000000000002,-22.000000000000004,-3.3000000000000003,-27.5
1698419986.633,16,0.6000000000000001,-2.8000000000000003,0.6000000000000001,0.30000000000000004,6.9,1.1,-20.8,7.0,-46.2
1698419986.649,16,-0.2,-5.0,0.1,-0.7000000000000001,4.7,0.7000000000000001,-19.0,14.500000000000002,-62.4
1698419986.666,16,-1.0,-5.2,-0.4,-2.0,3.9000000000000004,-0.2,-13.4,15.9,-56.800000000000004
1698419986.682,16,-1.8,-6.4,-1.0,-2.5,3.2,-0.4,-13.0,11.1,-45.800000000000004
1698419986.699,16,-1.3,-7.0,-1.1,-2.1,2.5,-0.5,-12.700000000000001,-0.7,-4.9
1698419986.716,16,-1.5,-6.5,-1.0,-2.3000000000000003,2.9000000000000004,-0.30000000000000004,-8.200000000000001,-7.0,6.7
1698419986.733,16,-1.9000000000000001,-6.2,-1.1,-2.8000000000000003,3.3000000000000003,-0.4,-8.700000000000001,-4.300000000000001,-2.1
1698419986.749,16,-1.5,-4.800000000000001,-1.2000000000000002,-2.4000000000000004,4.6000000000000005,-0.5,-8.9,-2.7,-19.6
1698419986.766,16,-0.1,-2.5,-0.2,-1.0,6.9,0.5,4.0,-2.8,-6.3
1698419986.782,16,0.0,-1.4000000000000001,-0.5,-0.9,7.9,0.1,15.5,-8.600000000000001,-7.9
1698419986.799,16,0.0,-0.6000000000000001,-2.4000000000000004,-1.0,8.8,-1.9000000000000001,31.8,-29.500000000000004,-30.299999999999997
1698419986.816,16,1.0,2.7,0.0,-0.2,12.100000000000001,0.4,28.0,-16.6,-48.7
1698419986.832,16,1.2000000000000002,3.1,-1.0,0.0,12.5,-0.6000000000000001,24.3,15.5,-47.5
1698419986.849,16,1.7000000000000002,0.30000000000000004,-3.2,0.5,9.700000000000001,-2.9000000000000004,25.0,32.4,5.6
1698419986.866,16,1.5,9.3,5.9,0.30000000000000004,18.7,6.2,4.9,-73.9,16.2
1698419986.882,16,5.5,8.0,12.9,4.4,17.400000000000002,13.200000000000001,2.1999999999999997,-42.300000000000004,12.100000000000001
1698419986.899,16,0.6000000000000001,-2.1,0.2,-0.5,7.4,0.4,63.50000000000001,-1.9,-15.5
1698419986.916,16,-6.4,-1.3,-1.0,-7.6000000000000005,8.200000000000001,-0.8,6.9,-6.1000000000000005,0.7
1698419986.933,16,-4.800000000000001,6.1000000000000005,2.2,-6.0,15.600000000000001,2.4000000000000004,-16.3,-43.50000000000001,13.3
1698419986.949,16,0.1,16.1,7.1000000000000005,-1.1,25.700000000000003,7.5,-32.2,-67.80000000000001,5.300000000000001
1698419986.966,16,3.2,3.2,2.6,2.1,12.8,3.0,7.300000000000001,-33.400000000000006,-11.4
1698419986.982,16,0.30000000000000004,1.6,1.9000000000000001,-0.9,11.200000000000001,2.4000000000000004,6.6000000000000005,-10.8,-21.8
1698419986.999,16,-3.1,2.0,-0.7000000000000001,-4.4,11.700000000000001,-0.2,-11.000000000000002,-2.8,-7.400000000000001
1698419987.016,16,-1.1,0.2,0.0,-2.4000000000000004,9.9,0.5,-21.6,-6.2,15.000000000000002
1698419987.033,16,-0.7000000000000001,-1.4000000000000001,-0.30000000000000004,-1.9000000000000001,8.200000000000001,0.2,-21.200000000000003,-1.7,21.6
1698419987.049,16,-0.4,-2.9000000000000004,-0.6000000000000001,-1.5,6.800000000000001,-0.1,-22.4,2.1,30.599999999999998
1698419987.066,16,1.0,-4.7,-0.2,0.1,4.9,0.5,-29.1,0.30000000000000004,51.0
1698419987.082,16,1.7000000000000002,-5.2,0.0,0.9,4.5,0.7000000000000001,-29.300000000000004,-2.3000000000000003,49.5
1698419987.099,16,2.1,-5.800000000000001,-0.1,1.4000000000000001,3.8000000000000003,0.7000000000000001,-28.700000000000003,-7.500000000000001,37.5
1698419987.116,16,1.9000000000000001,-6.0,0.4,1.3,3.5,1.3,-26.500000000000004,-16.900000000000002,19.9
1698419987.133,16,1.7000000000000002,-5.800000000000001,0.6000000000000001,1.2000000000000002,3.7,1.6,-19.700000000000003,-24.6,12.9
1698419987.149,16,0.0,-5.2,-1.2000000000000002,-0.5,4.2,-0.2,-6.4,-13.100000000000001,14.800000000000002
1698419987.166,16,-0.7000000000000001,-3.5,-1.8,-1.1,5.9,-0.8,0.9,5.6,30.200000000000003
1698419987.182,16,-0.2,-2.2,-2.7,-0.5,7.2,-1.7000000000000002,6.6000000000000005,10.2,22.8
1698419987.199,16,0.9,-1.2000000000000002,-4.1000000000000005,0.6000000000000001,8.200000000000001,-3.2,20.8,27.7,2.3000000000000003
1698419987.215,16,2.1,-0.2,-2.9000000000000004,1.8,9.200000000000001,-2.1,31.3,69.3,4.0
1698419987.232,16,1.9000000000000001,0.9,-3.6,1.6,10.3,-3.0,38.7,79.3,21.900000000000002
1698419987.249,16,0.8,1.0,-3.3000000000000003,0.5,10.4,-2.8000000000000003,36.5,66.2,31.5
1698419987.267,16,-2.4000000000000004,1.8,-1.8,-2.5,11.200000000000001,-1.5,43.7,38.900000000000006,29.1
1698419987.282,16,-3.3000000000000003,2.3000000000000003,-1.8,-3.5,11.8,-1.5,51.1,32.0,10.1
1698419987.299,16,-4.4,8.0,7.7,-4.7,17.5,7.800000000000001,24.1,77.5,-4.300000000000001
1698419987.316,16,-7.4,0.8,10.3,-7.7,10.4,10.5,39.50000000000001,-58.9,-7.400000000000001
1698419987.332,16,-0.30000000000000004,-3.7,2.3000000000000003,7.9,7.5,-1.3,72.8,-49.2,-1.3
1698419987.349,16,10.700000000000001,0.0,4.7,10.5,9.5,4.800000000000001,13.200000000000001,17.5,-8.4
1698419987.366,16,3.0,7.0,4.5,2.7,16.5,4.6000000000000005,-27.400000000000002,27.6,-36.6
1698419987.383,16,-3.1,10.5,3.8000000000000003,-5.7,22.0,2.3000000000000003,-21.5,36.3,2.7
1698419987.402,16,-3.0,9.0,1.2000000000000002,-3.3000000000000003,18.7,1.4000000000000001,-11.000000000000002,15.100000000000001,14.500000000000002
1698419987.416,16,0.5,3.4000000000000004,0.30000000000000004,0.30000000000000004,13.200000000000001,0.6000000000000001,-13.100000000000001,-0.30000000000000004,12.200000000000001
1698419987.432,16,0.8,3.3000000000000003,-0.7000000000000001,0.5,13.0,-0.4,-25.3,8.3,-0.7
1698419987.449,16,0.5,1.6,-0.2,0.2,11.3,0.2,-27.6,13.200000000000001,-10.600000000000001
1698419987.466,16,0.5,-1.2000000000000002,0.0,0.1,8.6,0.4,-28.3,17.400000000000002,-30.599999999999998
1698419987.482,16,1.1,-3.7,0.1,0.6000000000000001,6.0,0.6000000000000001,-29.800000000000004,27.3,-43.800000000000004
1698419987.499,16,0.9,-4.2,-0.2,0.30000000000000004,5.5,0.5,-29.400000000000002,29.1,-45.7
1698419987.516,16,-0.6000000000000001,-4.9,-0.6000000000000001,-1.4000000000000001,4.7,0.1,-21.700000000000003,24.200000000000003,-43.1
1698419987.532,16,-1.2000000000000002,-6.800000000000001,-1.1,-2.1,2.7,-0.4,-16.900000000000002,11.4,-4.0
1698419987.549,16,-1.3,-7.4,-1.1,-2.1,2.1,-0.30000000000000004,-16.8,4.300000000000001,10.3
1698419987.566,16,-2.0,-7.6000000000000005,-1.3,-2.8000000000000003,1.9000000000000001,-0.5,-16.5,1.4,4.0
1698419987.582,16,-2.4000000000000004,-6.300000000000001,-1.5,-3.2,3.1,-0.6000000000000001,-17.5,3.2,-9.5
1698419987.599,16,-2.1,-4.9,-1.9000000000000001,-3.0,4.5,-1.0,-16.1,1.0999999999999999,-12.4
1698419987.616,16,-0.9,-3.4000000000000004,-1.0,-1.8,5.9,-0.1,-8.799999999999999,-9.0,-0.7
1698419987.632,16,-0.7000000000000001,-2.4000000000000004,-0.9,-1.6,6.9,0.0,17.599999999999998,-37.300000000000004,5.9
1698419987.649,16,-1.0,-2.4000000000000004,-1.5,-1.8,6.9,-0.7000000000000001,32.800000000000004,-48.9,0.4
1698419987.676,16,0.1,1.2000000000000002,-1.8,-0.9,10.5,-1.2000000000000002,31.5,-54.3,-28.500000000000004
1698419987.682,16,0.4,3.4000000000000004,-0.6000000000000001,-0.6000000000000001,12.8,0.0,23.700000000000003,-26.3,-34.0
1698419987.699,16,1.2000000000000002,4.0,-1.8,0.2,13.4,-1.2000000000000002,19.1,0.9,-25.400000000000002
1698419987.715,16,2.4000000000000004,2.0,-4.800000000000001,1.5,11.4,-4.4,34.50000000000001,4.5,23.400000000000002
1698419987.732,16,2.3000000000000003,10.0,7.0,1.5,19.5,7.300000000000001,13.700000000000001,-101.2,12.8
1698419987.749,16,5.0,6.7,11.9,4.2,16.2,12.4,1.6,-35.9,2.7
1698419987.766,16,-1.6,-2.4000000000000004,-0.30000000000000004,-2.5,7.1000000000000005,0.0,65.60000000000001,-33.7,-11.9
1698419987.782,16,-6.6000000000000005,2.0,1.6,-7.6000000000000005,11.5,1.9000000000000001,8.200000000000001,-51.0,6.2
1698419987.799,16,-2.9000000000000004,9.200000000000001,4.2,-3.8000000000000003,18.7,4.5,-12.8,-63.50000000000001,13.0
1698419987.816,16,1.6,12.4,4.6000000000000005,0.6000000000000001,22.0,5.0,-12.000000000000002,-63.50000000000001,-2.7
1698419987.833,16,2.5,3.4000000000000004,2.5,1.7000000000000002,13.100000000000001,2.9000000000000004,12.700000000000001,-29.800000000000004,-7.2
1698419987.849,16,-0.4,2.0,1.7000000000000002,-1.3,11.700000000000001,2.1,8.0,-14.0,-8.5
1698419987.866,16,-2.0,3.3000000000000003,-0.1,-3.0,13.0,0.30000000000000004,-10.700000000000001,-4.5,2.9
1698419987.883,16,-1.1,0.30000000000000004,1.3,-2.0,10.0,1.8,-16.2,-13.6,13.100000000000001
1698419987.899,16,-1.0,-1.5,1.1,-1.9000000000000001,8.200000000000001,1.6,-13.8,-11.6,18.900000000000002
1698419987.916,16,-0.8,-3.9000000000000004,0.4,-1.6,5.800000000000001,1.0,-11.9,-8.5,30.000000000000004
1698419987.932,16,0.6000000000000001,-4.2,0.1,0.0,5.5,0.7000000000000001,-10.9,-4.1000000000000005,37.7
1698419987.949,16,1.6,-4.4,-0.5,1.0,5.2,0.2,-11.1,-3.7000000000000006,36.0
1698419987.966,16,2.4000000000000004,-5.2,-0.9,1.9000000000000001,4.4,-0.30000000000000004,-18.400000000000002,1.4,27.1
1698419987.983,16,2.4000000000000004,-5.300000000000001,-0.4,2.0,4.3,0.30000000000000004,-21.1,-0.8,20.1
1698419987.999,16,2.0,-5.4,-0.6000000000000001,1.7000000000000002,4.1000000000000005,0.2,-19.8,-1.6,16.1
1698419988.016,16,1.0,-5.4,-1.0,0.7000000000000001,4.0,-0.1,-12.700000000000001,2.0,18.900000000000002
1698419988.032,16,-0.30000000000000004,-4.2,-1.3,-0.5,5.300000000000001,-0.5,-3.6,13.0,33.2
1698419988.049,16,-0.4,-2.8000000000000003,-1.8,-0.5,6.6000000000000005,-1.0,10.1,23.400000000000002,28.900000000000002
1698419988.066,16,-0.2,-2.5,-2.0,-0.30000000000000004,6.9,-1.2000000000000002,16.900000000000002,33.2,26.9
1698419988.082,16,1.4000000000000001,-2.7,-2.6,1.4000000000000001,6.7,-2.0,32.1,60.00000000000001,24.9
1698419988.099,16,2.5,-3.1,-2.8000000000000003,3.3000000000000003,6.0,-2.0,35.8,94.3,23.6
1698419988.116,16,3.1,-3.2,-2.3000000000000003,3.3000000000000003,6.2,-1.9000000000000001,34.50000000000001,101.60000000000001,24.9
1698419988.133,16,0.4,-0.5,-2.0,0.7000000000000001,8.8,-1.7000000000000002,25.5,42.400000000000006,39.6
1698419988.149,16,-4.800000000000001,6.1000000000000005,-2.3000000000000003,-1.5,12.600000000000001,-1.4000000000000001,21.8,0.30000000000000004,40.7
1698419988.17,16,-5.5,7.4,3.2,-5.300000000000001,16.900000000000002,3.4000000000000004,30.200000000000003,-5.6,-30.599999999999998
1698419988.182,16,-6.300000000000001,8.1,10.0,-6.2,17.6,10.3,-8.200000000000001,19.3,-29.700000000000003
1698419988.199,16,0.4,-1.2000000000000002,5.2,0.5,8.3,5.4,46.7,-61.8,-3.9
1698419988.216,16,7.0,0.8,-2.9000000000000004,7.1000000000000005,10.3,-2.8000000000000003,34.6,14.4,16.700000000000003
1698419988.232,16,9.0,6.1000000000000005,4.0,9.200000000000001,15.600000000000001,4.2,-6.7,29.800000000000004,-2.9
1698419988.249,16,-1.2000000000000002,13.200000000000001,4.4,-1.0,22.8,4.7,-20.5,24.1,-15.9
1698419988.266,16,-4.7,10.600000000000001,2.6,-4.6000000000000005,20.200000000000003,2.8000000000000003,-6.7,21.5,-13.200000000000001
1698419988.282,16,-1.3,3.4000000000000004,1.2000000000000002,-1.2000000000000002,13.100000000000001,1.6,-13.3,35.199999999999996,8.0
1698419988.299,16,1.8,4.5,0.4,1.9000000000000001,14.200000000000001,0.8,-21.400000000000002,11.9,-2.6
1698419988.315,16,1.3,3.4000000000000004,0.1,1.4000000000000001,13.100000000000001,0.6000000000000001,-23.900000000000002,8.3,-12.4
1698419988.333,16,-0.2,0.6000000000000001,0.5,-0.2,10.3,1.0,-21.6,-6.4,-26.1
1698419988.349,16,-0.2,-2.1,0.30000000000000004,-0.30000000000000004,7.7,0.9,-21.200000000000003,-3.4,-39.1
1698419988.366,16,-0.2,-3.3000000000000003,0.1,-0.4,6.5,0.8,-19.9,-0.30000000000000004,-47.400000000000006
1698419988.382,16,-0.6000000000000001,-4.9,-0.30000000000000004,-1.0,4.800000000000001,0.30000000000000004,-14.700000000000001,-10.8,-58.9
1698419988.399,16,-0.9,-5.9,-0.6000000000000001,-1.4000000000000001,3.7,0.2,-13.700000000000001,-16.6,-46.4
1698419988.417,16,-1.1,-6.0,-0.4,-1.7000000000000002,3.6,0.4,-13.4,-15.8,-40.7
1698419988.433,16,-1.2000000000000002,-6.4,-0.5,-1.9000000000000001,3.2,0.30000000000000004,-9.4,-13.700000000000001,-27.900000000000002
1698419988.449,16,-1.2000000000000002,-6.5,-1.2000000000000002,-2.0,3.0,-0.4,-5.8,-12.200000000000001,-17.200000000000003
1698419988.466,16,-1.1,-6.2,-1.7000000000000002,-1.9000000000000001,3.3000000000000003,-0.9,-4.1000000000000005,-10.600000000000001,-8.3
1698419988.482,16,-0.7000000000000001,-5.1000000000000005,-1.8,-1.6,4.3,-1.0,-1.6,-11.9,-6.7
1698419988.499,16,0.1,-4.0,-1.8,-0.7000000000000001,5.4,-1.0,4.7,-20.3,0.7
1698419988.516,16,0.4,-3.4000000000000004,-1.5,-0.5,5.9,-0.8,10.700000000000001,-27.400000000000002,5.300000000000001
1698419988.533,16,-0.4,-1.9000000000000001,-1.5,-1.2000000000000002,7.5,-0.8,30.9,-44.6,5.500000000000001
1698419988.549,16,-1.1,-1.2000000000000002,-3.5,-1.9000000000000001,8.1,-3.0,45.800000000000004,-59.80000000000001,-14.900000000000002
1698419988.566,16,-0.8,0.30000000000000004,-2.2,-1.7000000000000002,9.700000000000001,-1.7000000000000002,37.1,-55.5,-27.3
1698419988.582,16,-0.4,3.1,0.30000000000000004,-1.4000000000000001,12.4,0.7000000000000001,16.3,0.5,-52.1
1698419988.599,16,3.1,1.2000000000000002,-3.5,2.0,10.600000000000001,-3.2,29.200000000000003,18.5,-4.5
1698419988.616,16,3.4000000000000004,2.0,-4.2,2.3000000000000003,11.4,-4.0,40.1,1.3,19.8
1698419988.633,16,4.9,10.4,8.1,4.0,19.900000000000002,8.3,-3.6,-51.7,0.9
1698419988.649,16,5.2,-1.8,7.5,4.3,7.6000000000000005,7.800000000000001,25.400000000000002,42.5,-17.0
1698419988.666,16,-1.5,-4.9,7.5,-2.5,4.6000000000000005,7.7,49.7,-14.500000000000002,-35.199999999999996
1698419988.682,16,-9.9,0.7000000000000001,-5.9,-11.100000000000001,10.100000000000001,-5.800000000000001,14.200000000000001,14.900000000000002,-3.3000000000000003
1698419988.699,16,-1.5,13.100000000000001,4.0,-2.6,22.6,4.1000000000000005,-34.0,-50.0,26.400000000000002
1698419988.716,16,1.5,11.700000000000001,6.2,0.5,21.3,6.4,-26.700000000000003,-50.0,15.2
1698419988.732,16,4.0,3.4000000000000004,2.1,3.0,13.0,2.4000000000000004,-4.5,-27.7,-6.3
1698419988.749,16,-0.6000000000000001,2.4000000000000004,2.3000000000000003,-1.6,12.0,2.6,-15.8,-11.3,-7.400000000000001
1698419988.766,16,-2.1,3.0,0.7000000000000001,-3.1,12.600000000000001,1.1,-18.3,-4.2,3.5
1698419988.782,16,-1.1,0.8,0.4,-2.2,10.5,0.9,-24.400000000000002,-2.0,18.400000000000002
1698419988.799,16,-0.2,-0.9,0.5,-1.1,8.700000000000001,1.0,-20.5,1.0,32.6
1698419988.816,16,0.0,-2.8000000000000003,-0.1,-1.0,7.7,0.8,-16.5,-0.9,33.6
1698419988.833,16,0.30000000000000004,-3.0,-1.0,-0.5,6.6000000000000005,-0.30000000000000004,-11.700000000000001,-5.300000000000001,44.5
1698419988.849,16,0.7000000000000001,-4.1000000000000005,-1.3,0.2,5.5,-0.6000000000000001,-15.6,-9.600000000000001,45.800000000000004
1698419988.866,16,1.8,-4.2,-0.9,0.8,5.300000000000001,-0.2,-19.1,-13.200000000000001,38.5
1698419988.882,16,2.2,-4.1000000000000005,-0.6000000000000001,1.8,5.4,0.2,-18.0,-12.4,31.7
1698419988.899,16,2.2,-4.4,0.30000000000000004,1.9000000000000001,5.2,1.1,-4.5,-10.5,10.3
1698419988.915,16,1.1,-4.4,-1.3,0.9,5.1000000000000005,-0.6000000000000001,17.200000000000003,13.3,12.6
1698419988.932,16,0.2,-4.1000000000000005,-2.0,0.0,5.4,-1.4000000000000001,22.900000000000002,22.4,19.400000000000002
1698419988.949,16,-0.4,-2.6,-2.6,-0.5,6.800000000000001,-2.1,28.1,35.4,23.8
1698419988.966,16,1.5,-2.1,-3.0,1.4000000000000001,7.300000000000001,-2.6,33.400000000000006,55.5,14.4
1698419988.982,16,2.3000000000000003,-2.3000000000000003,-2.9000000000000004,2.2,7.1000000000000005,-2.5,42.0,70.0,5.4
1698419988.999,16,2.7,-3.8000000000000003,-3.3000000000000003,2.7,5.6000000000000005,-3.2,65.8,106.2,-6.4
1698419989.016,16,1.4000000000000001,-3.5,-3.0,1.4000000000000001,5.9,-3.2,71.9,124.7,1.8
1698419989.032,16,-0.4,-2.0,-2.7,-0.5,7.4,-3.0,66.9,107.5,7.500000000000001
1698419989.049,16,-3.1,-0.4,-0.7000000000000001,-3.0,9.0,-1.2000000000000002,51.7,39.1,24.7
1698419989.065,16,-4.0,2.1,0.1,-4.0,11.5,-0.5,40.1,-2.8,5.0
1698419989.083,16,-6.0,8.8,4.6000000000000005,-6.0,18.2,4.0,-17.9,10.4,-11.6
1698419989.099,16,-11.700000000000001,0.0,8.6,-11.9,9.5,8.200000000000001,-14.600000000000001,-34.50000000000001,-17.1
1698419989.116,16,8.700000000000001,0.1,0.7000000000000001,8.6,9.5,0.30000000000000004,16.5,25.2,15.000000000000002
1698419989.134,16,12.700000000000001,2.5,1.3,12.700000000000001,11.9,1.0,-2.3000000000000003,25.700000000000003,9.0
1698419989.149,16,6.7,13.4,3.9000000000000004,6.7,23.0,3.7,-40.6,14.4,6.5
1698419989.166,16,-4.1000000000000005,7.800000000000001,3.0,-4.0,17.5,2.9000000000000004,-15.8,33.2,22.3
1698419989.182,16,-4.7,4.4,2.0,-4.5,14.0,1.9000000000000001,-14.200000000000001,38.6,25.1
1698419989.199,16,-1.4000000000000001,3.7,1.9000000000000001,-1.2000000000000002,13.4,2.0,-22.1,30.9,20.0
1698419989.216,16,-1.3,5.300000000000001,1.7000000000000002,-1.1,15.0,1.8,-22.000000000000004,16.700000000000003,-2.9
1698419989.232,16,-1.1,4.9,1.6,-0.9,14.700000000000001,1.7000000000000002,-20.2,1.9,-9.0
1698419989.249,16,-1.2000000000000002,2.1,1.3,-1.1,11.9,1.6,-17.8,-16.6,-21.8
1698419989.266,16,-0.9,0.0,1.5,-0.9,9.8,1.8,-23.8,-10.8,-37.1
1698419989.283,16,-1.0,-0.30000000000000004,1.2000000000000002,-1.5,9.600000000000001,1.3,-25.8,-5.300000000000001,-44.2
1698419989.299,16,-1.4000000000000001,-0.7000000000000001,0.6000000000000001,-1.7000000000000002,9.0,1.0,-22.5,-12.200000000000001,-48.7
1698419989.315,16,-0.9,-3.0,-0.2,-1.4000000000000001,6.800000000000001,0.30000000000000004,-16.6,-20.900000000000002,-38.400000000000006
1698419989.332,16,-0.5,-3.8000000000000003,-0.1,-0.7000000000000001,5.5,0.4,-15.7,-24.5,-29.600000000000005
1698419989.349,16,-0.1,-4.3,-0.30000000000000004,-0.6000000000000001,5.4,0.30000000000000004,-12.5,-29.600000000000005,-20.6
1698419989.366,16,0.0,-4.7,-0.6000000000000001,-0.6000000000000001,4.9,0.0,-7.400000000000001,-24.7,-13.4
1698419989.383,16,-0.4,-4.9,-0.9,-1.1,4.6000000000000005,-0.30000000000000004,-0.9,-17.599999999999998,-7.9
1698419989.4,16,-0.7000000000000001,-5.0,-1.1,-1.4000000000000001,4.5,-0.5,3.0000000000000004,-15.2,-5.6
1698419989.415,16,-0.7000000000000001,-5.0,-1.5,-1.4000000000000001,4.5,-0.9,10.8,-14.600000000000001,4.0
1698419989.432,16,-0.8,-5.0,-0.8,-1.4000000000000001,4.5,-0.30000000000000004,22.5,-29.1,11.700000000000001
1698419989.449,16,-0.8,-5.1000000000000005,-0.7000000000000001,-1.4000000000000001,4.4,-0.30000000000000004,30.100000000000005,-35.7,13.5
1698419989.467,16,-1.4000000000000001,-4.800000000000001,-0.6000000000000001,-2.0,4.7,-0.30000000000000004,39.6,-51.300000000000004,10.4
1698419989.482,16,-2.3000000000000003,-4.7,-1.3,-2.8000000000000003,4.7,-1.1,44.5,-63.300000000000004,3.4
1698419989.499,16,-2.1,-4.0,-0.4,-2.6,5.4,-0.30000000000000004,40.3,-63.6,-1.4
1698419989.516,16,-0.30000000000000004,-1.9000000000000001,2.3000000000000003,-0.9,7.5,2.3000000000000003,24.9,-21.3,-18.900000000000002
1698419989.532,16,3.5,-0.6000000000000001,-1.9000000000000001,2.9000000000000004,8.8,-1.9000000000000001,24.6,10.0,9.0
1698419989.549,16,5.800000000000001,1.9000000000000001,-2.8000000000000003,5.2,11.200000000000001,-2.8000000000000003,25.8,-5.6,31.0
1698419989.565,16,5.1000000000000005,5.2,-0.2,4.7,14.600000000000001,-0.30000000000000004,27.2,-37.2,31.8
1698419989.582,16,0.5,5.300000000000001,1.7000000000000002,0.1,14.8,1.5,32.0,-14.800000000000002,-3.7000000000000006
1698419989.599,16,-4.0,2.8000000000000003,2.3000000000000003,-4.4,12.3,2.0,42.800000000000004,-15.7,-20.6
1698419989.615,16,-4.7,4.7,1.4000000000000001,-5.2,14.200000000000001,1.0,27.7,-33.1,-24.3
1698419989.632,16,1.2000000000000002,7.2,2.3000000000000003,0.6000000000000001,16.8,1.9000000000000001,-16.400000000000002,-51.7,-27.2
1698419989.649,16,3.5,7.1000000000000005,5.0,2.9000000000000004,16.6,4.7,-4.800000000000001,-86.4,-13.200000000000001
1698419989.666,16,2.6,5.6000000000000005,1.2000000000000002,1.9000000000000001,15.200000000000001,1.0,7.2,-77.60000000000001,-27.5
1698419989.682,16,0.0,3.8000000000000003,3.8000000000000003,-0.8,13.4,3.6,-1.5000000000000002,-49.8,-28.1
1698419989.699,16,0.0,2.6,2.9000000000000004,-0.8,12.3,2.7,-2.0,-31.2,-13.4
1698419989.716,16,0.7000000000000001,1.4000000000000001,1.9000000000000001,-0.1,11.0,1.7000000000000002,-7.2,-17.8,17.7
1698419989.733,16,0.0,0.8,1.9000000000000001,-0.9,10.100000000000001,1.6,-12.4,-13.9,35.8
1698419989.75,16,0.0,0.0,1.2000000000000002,0.1,9.1,0.6000000000000001,-13.100000000000001,-16.1,41.6
1698419989.766,16,1.2000000000000002,-1.2000000000000002,0.5,0.8,8.5,0.5,-18.0,-21.5,45.7
1698419989.782,16,1.4000000000000001,-1.8,0.5,1.1,7.9,0.5,-19.1,-13.9,38.6
1698419989.799,16,1.4000000000000001,-2.5,0.30000000000000004,1.2000000000000002,7.2,0.4,-19.1,-8.5,33.2
1698419989.816,16,1.0,-3.1,0.4,0.9,6.5,0.5,-16.8,0.8,25.700000000000003
1698419989.832,16,0.9,-3.3000000000000003,-0.1,0.8,6.300000000000001,0.1,-15.6,9.600000000000001,18.0
1698419989.849,16,0.8,-3.5,-0.2,0.8,6.1000000000000005,0.1,-16.3,10.700000000000001,14.500000000000002
1698419989.865,16,0.8,-3.3000000000000003,-0.1,0.8,6.300000000000001,0.2,-15.7,15.7,9.700000000000001
1698419989.882,16,0.7000000000000001,-2.9000000000000004,-0.1,0.7000000000000001,6.6000000000000005,0.2,-12.5,15.6,3.7000000000000006
1698419989.899,16,0.6000000000000001,-2.8000000000000003,-0.1,0.7000000000000001,6.7,0.2,-9.4,15.399999999999999,0.6000000000000001
1698419989.915,16,0.6000000000000001,-2.7,-0.4,0.6000000000000001,6.800000000000001,-0.1,-0.5,16.1,-6.8
1698419989.932,16,0.4,-2.6,-0.9,0.4,6.9,-0.6000000000000001,10.5,22.900000000000002,-13.8
1698419989.949,16,0.4,-2.5,-1.3,0.4,7.2,-1.4000000000000001,15.5,29.600000000000005,-15.6
1698419989.965,16,0.6000000000000001,-1.8,-1.7000000000000002,0.5,7.7,-1.5,19.400000000000002,41.9,-15.100000000000001
1698419989.982,16,0.7000000000000001,-0.4,-1.4000000000000001,0.6000000000000001,9.0,-1.2000000000000002,20.4,36.7,-16.0
1698419989.999,16,0.4,0.2,-0.9,0.30000000000000004,9.700000000000001,-0.9,21.5,27.1,-15.7
1698419990.015,16,-0.6000000000000001,1.0,-1.1,-0.8,10.5,-1.1,21.0,8.0,-15.9
1698419990.032,16,-1.4000000000000001,2.4000000000000004,-0.7000000000000001,-1.7000000000000002,11.8,-0.8,9.9,4.0,-17.1
1698419990.049,16,-1.7000000000000002,3.1,-0.30000000000000004,-2.0,12.600000000000001,-0.30000000000000004,6.000000000000001,7.500000000000001,-18.900000000000002
1698419990.066,16,-1.3,2.1,0.5,-1.7000000000000002,11.600000000000001,0.4,15.100000000000001,14.4,-14.0
1698419990.082,16,1.7000000000000002,2.6,0.2,1.3,12.100000000000001,0.1,14.600000000000001,24.1,4.9
1698419990.099,16,0.7000000000000001,4.3,1.9000000000000001,0.4,13.8,1.8,7.400000000000001,33.300000000000004,11.5
1698419990.115,16,-0.8,4.7,1.9000000000000001,-1.1,14.3,1.7000000000000002,10.3,28.400000000000002,13.4
1698419990.132,16,0.0,0.2,2.0,-0.30000000000000004,9.700000000000001,1.8,26.1,17.400000000000002,9.0
1698419990.151,16,2.9000000000000004,-0.30000000000000004,-0.4,2.7,9.3,-0.8,14.900000000000002,49.2,2.4000000000000004
1698419990.165,16,2.4000000000000004,0.2,0.9,2.2,9.8,0.6000000000000001,1.4,57.3,-2.7
1698419990.182,16,-0.1,0.5,1.7000000000000002,-0.30000000000000004,10.0,1.4000000000000001,-3.0000000000000004,59.400000000000006,-5.4
1698419990.199,16,-1.2000000000000002,0.30000000000000004,1.2000000000000002,-2.3000000000000003,10.0,1.2000000000000002,-4.5,50.800000000000004,-3.7000000000000006
1698419990.216,16,-2.4000000000000004,0.7000000000000001,1.7000000000000002,-2.7,10.3,1.4000000000000001,-9.700000000000001,48.400000000000006,-0.7
1698419990.232,16,-1.9000000000000001,0.2,1.7000000000000002,-2.1,9.8,1.5,-5.300000000000001,35.5,-3.5
1698419990.249,16,-1.3,-0.1,1.6,-1.6,9.5,1.4000000000000001,-0.6000000000000001,18.3,-10.5
1698419990.266,16,-0.4,-0.1,0.9,-0.7000000000000001,9.5,0.7000000000000001,-1.0,14.0,-13.700000000000001
1698419990.282,16,-0.30000000000000004,0.2,1.0,-0.7000000000000001,9.8,0.8,-2.4000000000000004,10.0,-16.400000000000002
1698419990.299,16,-0.5,-0.1,0.7000000000000001,-0.9,9.5,0.6000000000000001,-1.3,9.9,-17.599999999999998
1698419990.315,16,-0.5,-0.5,0.5,-1.0,9.1,0.4,-1.7,11.8,-17.8
1698419990.332,16,-0.7000000000000001,-1.1,0.4,-1.2000000000000002,8.5,0.30000000000000004,-3.1,14.200000000000001,-17.400000000000002
1698419990.349,16,-0.9,-1.1,0.30000000000000004,-1.5,8.5,0.2,-6.9,13.5,-15.9
1698419990.365,16,-0.9,-0.9,0.2,-1.5,8.6,0.1,-8.600000000000001,11.9,-14.600000000000001
1698419990.382,16,-1.0,-0.6000000000000001,0.30000000000000004,-1.7000000000000002,9.0,0.2,-11.000000000000002,8.3,-12.4
1698419990.399,16,-1.0,-0.7000000000000001,0.4,-1.7000000000000002,8.8,0.4,-12.000000000000002,3.9,-10.700000000000001
1698419990.416,16,-1.0,-0.7000000000000001,0.5,-1.8,8.8,0.4,-12.3,2.7,-10.0
1698419990.432,16,-1.0,-0.9,0.30000000000000004,-1.7000000000000002,8.6,0.30000000000000004,-10.1,-0.8,-6.000000000000001
1698419990.449,16,-1.1,-1.1,0.2,-1.9000000000000001,8.4,0.2,-5.0,-5.500000000000001,-0.7
1698419990.465,16,-1.2000000000000002,-1.1,-0.2,-2.0,8.4,-0.1,-2.1999999999999997,-7.699999999999999,2.5
1698419990.482,16,-1.2000000000000002,-0.9,-0.4,-2.0,8.6,-0.4,0.2,-10.1,8.700000000000001
1698419990.499,16,-1.0,-0.8,-0.2,-1.8,8.700000000000001,-0.2,2.9,-10.2,13.100000000000001
1698419990.515,16,-0.9,-0.6000000000000001,-0.5,-1.6,8.9,-0.5,4.6000000000000005,-11.1,14.200000000000001
1698419990.532,16,-0.6000000000000001,0.1,0.0,-1.3,9.600000000000001,0.0,6.5,-14.4,13.5
1698419990.549,16,-0.8,-0.1,-0.4,-1.4000000000000001,9.4,-0.4,11.1,-13.6,14.0
1698419990.566,16,-0.7000000000000001,-0.30000000000000004,-0.6000000000000001,-1.4000000000000001,9.200000000000001,-0.6000000000000001,12.4,-14.3,16.6
1698419990.582,16,-0.6000000000000001,-0.6000000000000001,-1.1,-1.2000000000000002,8.9,-1.2000000000000002,12.6,-20.8,24.3
1698419990.599,16,-0.30000000000000004,0.0,-0.5,-0.8,9.5,-0.6000000000000001,11.5,-28.0,27.8
1698419990.616,16,-0.1,0.5,-0.6000000000000001,-0.6000000000000001,10.100000000000001,-0.7000000000000001,10.5,-28.700000000000003,26.700000000000003
1698419990.632,16,0.9,2.0,0.30000000000000004,0.5,11.5,0.1,3.7000000000000006,-30.299999999999997,19.500000000000004
1698419990.649,16,1.8,2.0,1.0,1.5,11.5,0.8,4.0,-31.2,10.5
1698419990.666,16,1.2000000000000002,1.2000000000000002,1.2000000000000002,0.9,10.8,1.0,4.2,-29.800000000000004,5.500000000000001
1698419990.682,16,-0.7000000000000001,0.1,1.0,-1.0,9.600000000000001,0.8,5.2,-27.2,2.6
1698419990.699,16,-1.2000000000000002,-0.30000000000000004,0.6000000000000001,-1.5,9.200000000000001,0.4,3.1,-27.7,3.5
1698419990.716,16,-0.9,-0.5,0.5,-1.2000000000000002,9.0,0.4,0.5,-29.400000000000002,4.800000000000001
1698419990.732,16,0.4,-1.1,0.8,0.2,8.5,0.6000000000000001,-5.0,-35.7,7.300000000000001
1698419990.749,16,1.4000000000000001,-0.4,0.8,1.2000000000000002,9.1,0.7000000000000001,-10.1,-37.0,8.600000000000001
1698419990.765,16,1.6,0.1,0.8,1.4000000000000001,9.600000000000001,0.7000000000000001,-11.4,-35.0,8.5
1698419990.782,16,1.5,0.9,0.5,1.3,10.5,0.5,-9.700000000000001,-26.700000000000003,6.7
1698419990.799,16,1.0,0.9,0.5,0.8,10.5,0.5,-7.400000000000001,-16.700000000000003,7.6
1698419990.815,16,0.9,0.9,0.4,0.8,10.5,0.5,-5.4,-12.6,9.9
1698419990.832,16,0.8,0.7000000000000001,0.4,0.7000000000000001,10.3,0.4,-1.4,-7.400000000000001,13.700000000000001
1698419990.849,16,0.6000000000000001,0.1,0.5,0.6000000000000001,9.700000000000001,0.5,1.6,-8.0,16.2
1698419990.866,16,0.6000000000000001,-0.2,0.4,0.7000000000000001,9.1,0.30000000000000004,1.9,-9.1,16.700000000000003
1698419990.882,16,0.8,-0.7000000000000001,0.4,0.9,8.8,0.4,-0.8,-10.4,15.5
1698419990.899,16,1.1,-1.0,0.6000000000000001,1.2000000000000002,8.6,0.6000000000000001,-2.3000000000000003,-8.3,12.4
1698419990.916,16,1.2000000000000002,-1.1,0.5,1.4000000000000001,8.5,0.6000000000000001,-0.7,-2.1999999999999997,7.2
1698419990.932,16,1.2000000000000002,-1.1,0.5,1.3,8.4,0.5,1.2000000000000002,1.5000000000000002,5.1
1698419990.949,16,1.2000000000000002,-1.0,0.0,1.4000000000000001,8.5,0.1,6.000000000000001,7.9,2.6
1698419990.965,16,1.3,-0.9,-0.2,1.5,8.9,-0.2,7.6,11.8,1.7
1698419990.982,16,1.2000000000000002,-0.5,-0.2,1.5,9.1,-0.2,10.8,15.8,-1.0999999999999999
1698419990.999,16,0.9,0.5,-0.5,1.2000000000000002,10.0,-0.5,9.8,19.3,-2.1999999999999997
1698419991.015,16,0.5,1.4000000000000001,0.2,0.7000000000000001,10.9,0.1,8.799999999999999,12.700000000000001,-1.3
1698419991.032,16,0.1,1.1,-0.2,0.4,10.600000000000001,-0.30000000000000004,10.8,7.699999999999999,-3.8
1698419991.049,16,-1.4000000000000001,0.4,0.30000000000000004,-1.2000000000000002,9.9,0.2,8.700000000000001,8.0,-8.9
1698419991.065,16,-0.30000000000000004,-0.2,-0.5,-0.1,9.4,-0.7000000000000001,11.6,14.600000000000001,-4.1000000000000005
1698419991.082,16,0.7000000000000001,0.0,-0.5,0.8,9.5,-0.7000000000000001,9.4,14.0,-0.9
1698419991.099,16,1.0,-0.4,0.0,1.1,9.200000000000001,-0.2,7.500000000000001,9.4,-0.9
1698419991.115,16,0.7000000000000001,-0.4,0.2,0.6000000000000001,9.200000000000001,0.0,5.1,10.5,-1.5000000000000002
1698419991.136,16,0.2,-0.4,0.2,0.30000000000000004,9.1,-0.1,3.5,8.4,-1.3
1698419991.149,16,-0.1,-0.30000000000000004,0.2,0.1,9.200000000000001,0.0,2.7,7.699999999999999,-1.5000000000000002
1698419991.165,16,-0.2,-0.1,0.2,-0.1,9.5,-0.1,2.3000000000000003,9.600000000000001,-1.0999999999999999
1698419991.182,16,-0.2,0.1,0.2,-0.1,9.700000000000001,-0.1,2.7,10.700000000000001,-1.7
1698419991.199,16,-0.4,0.30000000000000004,0.1,-0.30000000000000004,9.8,-0.2,3.3000000000000003,9.9,-3.8
1698419991.215,16,-0.5,0.30000000000000004,0.0,-0.4,9.9,-0.30000000000000004,3.1,7.699999999999999,-5.7
1698419991.233,16,-0.5,0.0,-0.2,-0.4,9.5,-0.4,2.7,5.0,-5.8
1698419991.249,16,-0.2,-0.1,-0.1,-0.1,9.4,-0.30000000000000004,0.1,-1.7,-3.3000000000000003
1698419991.266,16,0.0,-0.1,0.0,0.1,9.4,-0.30000000000000004,-1.0,-4.800000000000001,-0.7
1698419991.282,16,0.0,0.0,0.0,0.1,9.5,-0.30000000000000004,-1.0999999999999999,-4.6000000000000005,-0.30000000000000004
1698419991.299,16,-0.1,0.0,-0.1,0.0,9.5,-0.4,-0.5,-2.0,-0.4
1698419991.315,16,-0.30000000000000004,-0.1,-0.30000000000000004,-0.2,9.4,-0.5,-0.30000000000000004,-0.5,-0.4
1698419991.333,16,-0.30000000000000004,-0.2,-0.30000000000000004,-0.2,9.3,-0.6000000000000001,-0.5,-0.1,-0.1
1698419991.349,16,-0.2,-0.1,-0.4,-0.2,9.4,-0.7000000000000001,-0.4,-0.30000000000000004,1.0999999999999999
1698419991.365,16,-0.2,0.0,-0.4,-0.1,9.600000000000001,-0.7000000000000001,0.2,-0.1,1.2000000000000002
1698419991.382,16,-0.2,0.1,-0.5,-0.1,9.600000000000001,-0.8,0.4,0.0,0.7
1698419991.399,16,-0.2,0.1,-0.5,-0.2,9.600000000000001,-0.7000000000000001,0.2,-0.30000000000000004,0.1
1698419991.415,16,-0.2,0.1,-0.30000000000000004,-0.2,9.600000000000001,-0.6000000000000001,-0.4,-1.5000000000000002,-0.5
1698419991.432,16,-0.30000000000000004,0.1,-0.30000000000000004,-0.2,9.600000000000001,-0.6000000000000001,-0.8,-1.6,-0.6000000000000001
1698419991.449,16,-0.2,0.1,-0.30000000000000004,-0.2,9.600000000000001,-0.6000000000000001,-1.3,-2.5,0.5
1698419991.466,16,-0.2,0.0,-0.30000000000000004,-0.1,9.5,-0.6000000000000001,-1.4,-2.7,1.7
1698419991.482,16,-0.1,-0.1,-0.30000000000000004,0.0,9.4,-0.6000000000000001,-1.6,-2.5,2.1
1698419991.499,16,0.0,-0.1,-0.30000000000000004,0.0,9.4,-0.6000000000000001,-2.0,-2.1999999999999997,1.8
1698419991.515,16,-0.1,0.0,-0.30000000000000004,0.0,9.5,-0.7000000000000001,-2.3000000000000003,-1.4,1.3
1698419991.532,16,-0.1,0.0,-0.2,0.0,9.5,-0.6000000000000001,-2.3000000000000003,-1.0999999999999999,1.0
1698419991.549,16,-0.1,0.0,-0.2,0.0,9.5,-0.6000000000000001,-1.9,-0.9,0.8
1698419991.566,16,-0.1,0.0,-0.2,0.0,9.5,-0.6000000000000001,-1.5000000000000002,-0.6000000000000001,0.9
1698419991.582,16,0.0,0.0,-0.2,0.0,9.5,-0.6000000000000001,-1.3,0.4,0.4
1698419991.599,16,0.0,0.0,-0.2,0.0,9.5,-0.6000000000000001,-1.0999999999999999,0.5,0.30000000000000004
1698419991.616,16,0.0,0.0,-0.2,0.0,9.5,-0.6000000000000001,-1.6,0.4,0.1
1698419991.632,16,0.0,-0.1,-0.1,0.0,9.5,-0.5,-1.7,0.5,-0.1
1698419991.648,16,0.0,0.0,-0.2,0.0,9.5,-0.6000000000000001,-1.7,0.5,0.0
1698419991.666,16,0.0,-0.1,-0.2,0.1,9.4,-0.6000000000000001,-1.7,0.8,0.1
1698419991.682,16,0.1,-0.1,-0.2,0.1,9.4,-0.6000000000000001,-1.8,1.3,0.0
1698419991.701,16,0.1,0.0,-0.2,0.1,9.5,-0.6000000000000001,-1.9,1.7,-0.1
1698419991.715,16,0.0,0.0,-0.2,0.0,9.5,-0.6000000000000001,-1.7,2.1999999999999997,0.1
1698419991.733,16,0.0,0.0,-0.2,0.0,9.5,-0.6000000000000001,-2.0,2.1,0.30000000000000004
1698419991.749,16,0.0,0.0,-0.2,0.0,9.5,-0.6000000000000001,-2.0,2.4000000000000004,0.2
1698419991.765,16,0.0,-0.1,-0.2,0.0,9.4,-0.6000000000000001,-2.0,2.4000000000000004,0.1
1698419991.782,16,0.0,-0.1,-0.2,0.0,9.4,-0.6000000000000001,-2.0,2.1999999999999997,0.1
1698419991.799,16,0.0,-0.1,-0.1,0.0,9.5,-0.5,-2.3000000000000003,1.7,0.2
1698419991.816,16,0.0,0.0,-0.1,0.1,9.5,-0.6000000000000001,-2.3000000000000003,1.7,0.30000000000000004
1698419991.832,16,0.0,0.0,-0.2,0.1,9.5,-0.6000000000000001,-2.3000000000000003,1.3,0.2
1698419991.849,16,0.0,0.0,-0.2,0.1,9.5,-0.6000000000000001,-2.4000000000000004,1.0999999999999999,0.1
1698419991.865,16,0.0,0.0,-0.2,0.0,9.5,-0.6000000000000001,-2.6,0.9,0.1
1698419991.882,16,0.0,0.0,-0.1,0.1,9.5,-0.5,-2.7,0.8,0.30000000000000004
1698419991.899,16,0.0,0.0,-0.1,0.1,9.5,-0.5,-2.4000000000000004,0.6000000000000001,0.4
1698419991.915,16,0.0,0.0,-0.1,0.0,9.5,-0.5,-1.8,0.7,0.30000000000000004
1698419991.932,16,0.0,0.0,-0.1,0.1,9.5,-0.6000000000000001,-1.9,0.5,0.30000000000000004
1698419991.949,16,0.0,0.0,-0.2,0.1,9.5,-0.6000000000000001,-1.9,0.4,0.2
1698419991.965,16,0.0,0.0,-0.2,0.1,9.5,-0.6000000000000001,-1.7,0.2,0.1
1698419991.982,16,0.0,0.0,-0.2,0.1,9.5,-0.6000000000000001,-1.7,0.2,0.1
1698419991.999,16,0.0,0.0,-0.2,0.1,9.5,-0.6000000000000001,-1.7,0.30000000000000004,0.1
1698419992.015,16,0.0,0.0,-0.1,0.1,9.5,-0.6000000000000001,-1.9,0.6000000000000001,0.30000000000000004
1698419992.032,16,0.0,0.0,-0.1,0.1,9.5,-0.6000000000000001,-1.6,0.30000000000000004,0.30000000000000004
1698419992.049,16,0.0,0.0,-0.1,0.1,9.5,-0.5,-1.4,0.5,0.4
1698419992.065,16,0.1,0.0,-0.1,0.1,9.5,-0.6000000000000001,-1.4,0.5,0.2
1698419992.082,16,0.1,0.0,-0.2,0.2,9.5,-0.6000000000000001,-2.1999999999999997,0.7,0.1
1698419992.099,16,0.1,0.0,-0.1,0.2,9.5,-0.5,-1.9,0.4,0.1
1698419992.116,16,0.0,0.0,0.0,0.1,9.5,-0.4,-1.0999999999999999,0.30000000000000004,0.2
1698419992.132,16,0.0,0.0,-0.1,0.1,9.5,-0.5,-0.9,0.7,0.2
1698419992.149,16,0.0,0.0,-0.1,0.1,9.5,-0.5,-0.8,0.8,0.30000000000000004
1698419992.165,16,0.0,0.0,-0.1,0.1,9.5,-0.5,-0.6000000000000001,0.6000000000000001,0.4
1698419992.182,16,0.1,0.0,-0.1,0.2,9.5,-0.5,-0.5,0.6000000000000001,0.30000000000000004
1698419992.199,16,0.1,-0.1,-0.1,0.2,9.4,-0.5,-0.4,0.6000000000000001,0.30000000000000004
1698419992.216,16,0.0,-0.1,0.0,0.1,9.4,-0.4,0.0,0.9,0.1
1698419992.232,16,0.0,-0.1,0.0,0.1,9.4,-0.4,0.2,1.3,-0.1
1698419992.249,16,0.0,0.0,0.0,0.1,9.4,-0.4,0.30000000000000004,1.3,-0.1
1698419992.265,16,0.1,0.0,0.1,0.2,9.5,-0.30000000000000004,1.0,2.0,-0.2
1698419992.282,16,0.0,0.0,-0.1,0.2,9.5,-0.5,0.7,1.3,-0.2
1698419992.3,16,0.0,0.1,0.0,0.1,9.5,-0.5,0.5,1.6,-0.4
1698419992.315,16,0.0,0.0,0.0,0.1,9.5,-0.5,0.8,1.6,-0.5
1698419992.332,16,0.0,0.0,-0.1,0.1,9.5,-0.5,0.6000000000000001,1.6,-0.6000000000000001
1698419992.349,16,0.0,0.0,0.0,0.1,9.5,-0.5,0.5,1.7,-0.5
1698419992.366,16,0.0,-0.1,0.1,0.1,9.4,-0.4,0.4,1.7,-0.5
1698419992.382,16,0.0,0.0,0.0,0.1,9.5,-0.5,0.5,2.1,-0.6000000000000001
1698419992.399,16,0.0,0.0,0.0,0.1,9.5,-0.5,0.30000000000000004,2.1,-0.5
1698419992.416,16,0.0,0.1,-0.1,0.1,9.5,-0.5,0.30000000000000004,2.0,-0.4
1698419992.432,16,0.0,0.0,0.0,0.1,9.5,-0.5,0.0,1.6,-0.4
1698419992.449,16,0.0,0.0,0.0,0.1,9.5,-0.5,-0.2,1.6,-0.7
1698419992.465,16,0.0,0.0,0.0,0.1,9.5,-0.5,-0.2,1.6,-0.8
1698419992.482,16,0.0,0.0,0.0,0.1,9.5,-0.5,-0.1,1.8,-0.8
1698419992.499,16,0.0,0.0,0.1,0.0,9.5,-0.4,0.2,2.0,-0.8
1698419992.515,16,0.0,0.0,0.0,0.1,9.4,-0.4,0.30000000000000004,1.9,-0.7
1698419992.532,16,-0.1,0.0,0.0,0.0,9.5,-0.5,0.6000000000000001,1.7,-0.6000000000000001
1698419992.549,16,-0.1,0.0,0.0,0.0,9.5,-0.5,0.6000000000000001,1.0999999999999999,-0.4
1698419992.585,16,0.0,0.0,0.0,0.0,9.5,-0.5,1.0999999999999999,0.30000000000000004,-0.30000000000000004
1698419992.599,16,0.0,0.0,0.0,0.0,9.5,-0.4,1.2000000000000002,0.30000000000000004,-0.2
1698419992.615,16,0.0,0.0,0.0,0.0,9.5,-0.5,1.3,0.2,-0.1
1698419992.632,16,0.0,0.0,0.0,0.1,9.5,-0.5,1.0999999999999999,0.1,-0.1
1698419992.649,16,0.0,0.0,0.0,0.1,9.5,-0.5,0.9,-0.30000000000000004,0.1
1698419992.665,16,0.0,0.0,0.0,0.1,9.5,-0.5,0.8,-0.30000000000000004,0.2
1698419992.682,16,0.0,0.0,0.0,0.1,9.5,-0.5,0.5,-0.5,0.2
1698419992.699,16,0.0,0.0,0.0,0.1,9.5,-0.5,0.4,-0.6000000000000001,0.2
1698419992.716,16,0.0,0.0,0.0,0.1,9.5,-0.5,0.30000000000000004,-0.8,0.30000000000000004
1698419992.732,16,0.0,0.0,0.0,0.1,9.5,-0.5,0.5,-0.9,0.6000000000000001
1698419992.749,16,0.0,0.0,0.0,0.1,9.5,-0.5,0.5,-0.7,0.7
1698419992.766,16,0.0,0.0,0.0,0.1,9.5,-0.5,0.5,-0.9,0.7
1698419992.782,16,0.0,0.0,0.0,0.1,9.5,-0.5,0.2,-1.4,1.0
1698419992.799,16,0.0,0.0,0.0,0.1,9.5,-0.5,0.0,-1.3,1.0
1698419992.816,16,0.0,0.0,0.0,0.1,9.5,-0.5,0.0,-1.2000000000000002,1.0
1698419992.832,16,0.0,0.0,-0.1,0.1,9.5,-0.6000000000000001,-0.5,-1.0,1.0
1698419992.849,16,0.0,0.0,0.0,0.1,9.5,-0.5,-0.6000000000000001,-1.0999999999999999,1.4
1698419992.866,16,0.0,0.0,0.0,0.1,9.5,-0.5,-0.6000000000000001,-1.2000000000000002,1.0999999999999999
1698419992.883,16,0.0,0.0,0.0,0.1,9.5,-0.5,-0.4,-1.4,1.0999999999999999
1698419992.899,16,0.0,0.0,0.0,0.1,9.5,-0.5,-0.30000000000000004,-1.3,1.0
1698419992.915,16,0.0,0.0,0.0,0.1,9.5,-0.5,-0.4,-1.6,1.0
1698419992.933,16,0.0,0.0,0.0,0.1,9.5,-0.6000000000000001,-0.5,-1.7,0.9
1698419992.949,16,0.0,0.0,0.0,0.1,9.4,-0.5,-0.30000000000000004,-1.7,1.0
1698419992.965,16,0.1,0.0,0.0,0.2,9.5,-0.5,-0.30000000000000004,-1.6,1.0
1698419992.982,16,0.0,0.0,0.0,0.2,9.5,-0.6000000000000001,0.1,-1.5000000000000002,0.6000000000000001
1698419992.999,16,0.0,0.0,-0.1,0.2,9.5,-0.6000000000000001,0.30000000000000004,-1.4,0.5
1698419993.016,16,0.0,0.0,-0.1,0.1,9.5,-0.6000000000000001,0.30000000000000004,-1.4,0.6000000000000001
1698419993.032,16,0.0,0.0,0.0,0.1,9.5,-0.6000000000000001,0.6000000000000001,-1.0999999999999999,0.9
1698419993.049,16,0.0,-0.1,0.0,0.2,9.4,-0.5,0.6000000000000001,-0.9,0.6000000000000001
1698419993.066,16,0.1,-0.1,0.0,0.2,9.4,-0.5,0.6000000000000001,-0.8,0.6000000000000001
1698419993.082,16,0.0,0.0,0.0,0.1,9.5,-0.5,0.9,-0.30000000000000004,0.4
1698419993.099,16,0.0,0.0,0.0,0.1,9.5,-0.5,1.0999999999999999,-0.30000000000000004,0.6000000000000001
1698419993.119,16,0.0,0.0,0.0,0.1,9.5,-0.6000000000000001,1.0999999999999999,-0.1,0.8
1698419993.132,16,0.0,0.1,-0.1,0.2,9.5,-0.6000000000000001,1.2000000000000002,-0.2,0.9
1698419993.148,16,0.0,0.0,-0.1,0.1,9.5,-0.6000000000000001,1.2000000000000002,-0.1,0.4
1698419993.165,16,0.0,0.0,0.0,0.1,9.5,-0.6000000000000001,1.3,0.0,0.4
1698419993.182,16,0.0,0.0,0.0,0.2,9.5,-0.6000000000000001,1.0999999999999999,0.1,0.30000000000000004
1698419993.199,16,0.0,0.0,0.0,0.1,9.5,-0.5,1.0999999999999999,0.30000000000000004,0.30000000000000004
1698419993.216,16,0.0,0.0,0.0,0.1,9.5,-0.6000000000000001,1.2000000000000002,0.4,0.2
1698419993.232,16,0.0,0.0,0.0,0.1,9.5,-0.6000000000000001,1.2000000000000002,0.5,0.0
1698419993.249,16,0.0,0.0,0.0,0.1,9.5,-0.6000000000000001,1.0999999999999999,0.5,0.0
1698419993.265,16,0.0,0.0,0.0,0.1,9.5,-0.6000000000000001,1.0999999999999999,0.6000000000000001,0.0
1698419993.282,16,0.0,0.0,0.0,0.1,9.5,-0.6000000000000001,1.0999999999999999,0.5,-0.2
1698419993.299,16,-0.1,0.0,0.0,0.1,9.5,-0.6000000000000001,1.0999999999999999,0.7,-0.4
1698419993.315,16,0.0,0.0,0.0,0.1,9.5,-0.6000000000000001,1.0999999999999999,0.8,-0.4
1698419993.332,16,-0.1,0.0,0.0,0.1,9.5,-0.6000000000000001,1.0,0.8,-0.4
1698419993.349,16,0.0,0.0,0.0,0.1,9.5,-0.6000000000000001,1.0,0.7,-0.5
1698419993.365,16,0.0,0.0,0.0,0.1,9.5,-0.6000000000000001,0.8,0.6000000000000001,-0.5
1698419993.383,16,0.0,0.0,0.0,0.1,9.5,-0.6000000000000001,0.7,0.6000000000000001,-0.5
1698419993.399,16,-0.1,0.0,0.0,0.0,9.5,-0.6000000000000001,0.6000000000000001,0.5,-0.4
1698419993.415,16,0.0,0.0,0.0,0.1,9.5,-0.6000000000000001,0.5,0.30000000000000004,-0.2
1698419993.432,16,0.0,0.0,0.0,0.1,9.5,-0.6000000000000001,0.6000000000000001,0.4,-0.4
1698419993.449,16,0.0,0.0,-0.1,0.1,9.5,-0.7000000000000001,0.6000000000000001,0.4,-0.4
1698419993.465,16,0.0,0.0,0.0,0.1,9.5,-0.6000000000000001,0.2,0.30000000000000004,-0.30000000000000004
1698419993.482,16,0.0,0.0,0.0,0.1,9.5,-0.6000000000000001,0.2,0.2,-0.2
1698419993.499,16,0.0,0.0,-0.1,0.1,9.5,-0.7000000000000001,0.30000000000000004,0.4,-0.2
1698419993.515,16,0.0,0.1,-0.1,0.1,9.600000000000001,-0.7000000000000001,0.4,0.30000000000000004,-0.1
1698419993.532,16,0.0,0.0,-0.1,0.1,9.5,-0.7000000000000001,0.4,0.4,0.1
1698419993.549,16,0.0,-0.1,0.0,0.1,9.4,-0.6000000000000001,0.30000000000000004,0.30000000000000004,0.1
1698419993.567,16,0.0,0.0,0.0,0.1,9.4,-0.6000000000000001,0.30000000000000004,0.2,-0.1
1698419993.582,16,0.0,0.0,0.0,0.1,9.4,-0.6000000000000001,0.2,0.2,0.0
1698419993.599,16,0.0,0.0,0.0,0.1,9.4,-0.6000000000000001,0.5,0.0,-0.1
1698419993.615,16,0.0,0.0,0.0,0.1,9.5,-0.6000000000000001,0.6000000000000001,0.0,-0.1
1698419993.632,16,0.0,0.0,0.0,0.1,9.4,-0.6000000000000001,0.8,-0.1,-0.1
1698419993.649,16,0.0,0.0,0.0,0.1,9.5,-0.6000000000000001,0.8,-0.1,-0.2
1698419993.666,16,0.0,0.0,0.0,0.1,9.5,-0.6000000000000001,0.8,-0.30000000000000004,-0.30000000000000004
1698419993.682,16,0.0,0.0,0.0,0.1,9.5,-0.6000000000000001,0.6000000000000001,-0.4,-0.2
1698419993.699,16,0.0,0.0,0.0,0.1,9.4,-0.6000000000000001,0.4,-0.6000000000000001,0.1
1698419993.716,16,0.0,0.0,0.0,0.1,9.5,-0.6000000000000001,0.2,-0.5,0.1
1698419993.732,16,0.0,0.0,0.1,0.2,9.5,-0.6000000000000001,0.1,-0.5,0.2
1698419993.749,16,0.0,0.0,0.0,0.1,9.5,-0.6000000000000001,0.1,-0.4,0.2
1698419993.766,16,0.0,0.0,0.0,0.1,9.5,-0.6000000000000001,-0.1,-0.6000000000000001,0.4
1698419993.782,16,0.0,0.1,0.0,0.1,9.5,-0.6000000000000001,-0.30000000000000004,-0.8,0.5
1698419993.799,16,0.0,0.0,0.0,0.2,9.5,-0.6000000000000001,-0.5,-0.7,0.4
1698419993.816,16,0.0,0.0,0.0,0.1,9.5,-0.6000000000000001,-0.6000000000000001,-0.8,0.5
1698419993.833,16,0.0,0.0,0.0,0.2,9.4,-0.6000000000000001,-0.7,-0.7,0.4
1698419993.849,16,0.0,0.0,0.0,0.1,9.5,-0.6000000000000001,-0.8,-0.9,0.4
1698419993.866,16,0.0,0.0,0.0,0.1,9.5,-0.6000000000000001,-0.7,-0.8,0.4
1698419993.882,16,0.0,0.0,0.0,0.1,9.5,-0.6000000000000001,-0.7,-0.9,0.4
1698419993.9,16,0.0,0.0,0.0,0.2,9.5,-0.7000000000000001,-0.6000000000000001,-0.9,0.4
1698419993.915,16,0.0,0.0,0.0,0.2,9.5,-0.6000000000000001,-0.6000000000000001,-0.9,0.4
1698419993.932,16,0.0,0.0,0.0,0.2,9.5,-0.6000000000000001,-0.7,-0.9,0.30000000000000004
1698419993.949,16,0.0,0.0,0.0,0.2,9.5,-0.6000000000000001,-0.6000000000000001,-0.9,0.30000000000000004
1698419993.965,16,0.0,0.0,0.0,0.2,9.5,-0.6000000000000001,-0.5,-0.7,0.30000000000000004
1698419993.982,16,0.0,0.0,0.0,0.2,9.5,-0.6000000000000001,-0.5,-0.6000000000000001,0.2
1698419993.999,16,0.0,0.0,0.0,0.2,9.5,-0.6000000000000001,-0.5,-0.5,0.30000000000000004
1698419994.015,16,0.0,0.0,0.0,0.2,9.5,-0.6000000000000001,-0.5,-0.30000000000000004,0.30000000000000004
1698419994.032,16,0.0,0.0,0.0,0.1,9.5,-0.6000000000000001,-0.6000000000000001,-0.30000000000000004,0.4
1698419994.049,16,0.0,0.0,0.0,0.2,9.5,-0.6000000000000001,-0.6000000000000001,-0.2,0.30000000000000004
1698419994.066,16,0.0,0.0,0.0,0.2,9.5,-0.6000000000000001,-0.6000000000000001,-0.1,0.2
1698419994.083,16,0.0,0.0,0.0,0.1,9.5,-0.6000000000000001,-0.6000000000000001,-0.1,0.30000000000000004
1698419994.099,16,0.0,0.0,0.0,0.2,9.5,-0.6000000000000001,-0.6000000000000001,-0.1,0.4
1698419994.116,16,0.0,0.0,0.0,0.2,9.5,-0.6000000000000001,-0.5,0.2,0.1
1698419994.132,16,0.0,0.0,-0.1,0.2,9.5,-0.7000000000000001,-0.5,0.4,0.1
1698419994.149,16,0.0,0.0,0.0,0.2,9.5,-0.6000000000000001,-0.6000000000000001,0.30000000000000004,0.1
1698419994.165,16,0.0,0.0,0.0,0.2,9.5,-0.6000000000000001,-0.7,0.2,0.2
1698419994.182,16,0.0,0.0,0.0,0.2,9.5,-0.6000000000000001,-0.9,0.5,0.2
1698419994.199,16,0.0,0.0,0.0,0.2,9.5,-0.6000000000000001,-0.8,0.8,0.1
1698419994.216,16,0.0,0.0,-0.1,0.1,9.5,-0.7000000000000001,-0.9,1.0,0.2
1698419994.232,16,0.0,0.0,0.0,0.2,9.5,-0.6000000000000001,-1.0999999999999999,0.9,0.2
1698419994.25,16,0.0,0.0,0.0,0.1,9.4,-0.6000000000000001,-1.2000000000000002,1.0999999999999999,0.1
1698419994.266,16,0.0,0.0,0.0,0.2,9.4,-0.6000000000000001,-0.9,1.0999999999999999,0.0
1698419994.282,16,0.0,0.0,0.0,0.1,9.5,-0.6000000000000001,-0.7,1.0999999999999999,0.1
1698419994.299,16,0.0,0.0,0.0,0.1,9.4,-0.6000000000000001,-0.6000000000000001,1.0,0.1
1698419994.317,16,0.0,0.0,0.0,0.2,9.5,-0.6000000000000001,-0.6000000000000001,1.0999999999999999,-0.1
1698419994.332,16,0.0,0.0,0.0,0.1,9.5,-0.6000000000000001,-0.6000000000000001,1.0999999999999999,-0.2
1698419994.349,16,0.0,0.0,0.0,0.1,9.5,-0.6000000000000001,-0.30000000000000004,1.4,-0.30000000000000004
1698419994.365,16,0.0,0.0,0.0,0.2,9.5,-0.6000000000000001,-0.2,1.3,-0.2
1698419994.382,16,0.0,0.0,0.0,0.1,9.4,-0.6000000000000001,-0.30000000000000004,1.3,-0.2
1698419994.399,16,0.0,0.0,0.0,0.2,9.4,-0.6000000000000001,-0.2,1.4,-0.2
1698419994.415,16,0.0,0.0,0.0,0.2,9.5,-0.5,-0.1,1.6,-0.30000000000000004
1698419994.432,16,0.0,0.0,0.0,0.2,9.5,-0.6000000000000001,0.0,1.7,-0.2
1698419994.449,16,0.0,0.0,0.0,0.1,9.5,-0.6000000000000001,0.0,1.7,-0.2
1698419994.465,16,0.0,0.0,0.0,0.1,9.5,-0.6000000000000001,-0.1,1.6,0.1
1698419994.482,16,0.0,0.0,0.0,0.2,9.5,-0.6000000000000001,-0.1,1.7,0.0
1698419994.499,16,0.0,0.0,0.0,0.2,9.5,-0.6000000000000001,0.1,1.7,0.0
1698419994.516,16,0.0,0.0,0.0,0.2,9.5,-0.6000000000000001,0.0,2.0,-0.1
1698419994.532,16,0.0,0.0,0.0,0.1,9.4,-0.5,0.0,1.4,-0.2
1698419994.549,16,0.0,0.0,0.0,0.1,9.5,-0.5,0.0,1.4,-0.2
1698419994.565,16,0.0,0.0,0.0,0.1,9.5,-0.6000000000000001,0.2,1.2000000000000002,-0.1
1698419994.582,16,0.0,0.0,0.0,0.1,9.5,-0.6000000000000001,0.2,1.3,-0.2
1698419994.599,16,0.0,0.0,0.0,0.1,9.5,-0.6000000000000001,0.30000000000000004,1.3,0.1
1698419994.615,16,0.0,0.0,0.0,0.1,9.5,-0.6000000000000001,0.30000000000000004,1.2000000000000002,-0.1
1698419994.632,16,0.0,0.0,0.0,0.2,9.5,-0.5,0.30000000000000004,1.0,-0.1
1698419994.649,16,0.0,0.0,0.0,0.1,9.5,-0.5,0.4,0.9,-0.2
1698419994.665,16,0.0,0.0,0.0,0.1,9.5,-0.5,0.30000000000000004,0.8,-0.30000000000000004
1698419994.682,16,0.0,0.0,0.0,0.1,9.5,-0.6000000000000001,0.30000000000000004,0.7,-0.30000000000000004
1698419994.699,16,0.0,0.0,0.0,0.2,9.5,-0.6000000000000001,0.2,0.6000000000000001,-0.2
1698419994.716,16,0.0,0.0,0.0,0.2,9.5,-0.6000000000000001,0.2,0.7,-0.30000000000000004
1698419994.732,16,0.0,0.0,0.0,0.1,9.5,-0.6000000000000001,0.0,0.6000000000000001,-0.1
1698419994.749,16,0.0,0.0,0.0,0.1,9.5,-0.5,0.0,0.6000000000000001,-0.1
1698419994.765,16,0.0,0.0,0.0,0.1,9.5,-0.6000000000000001,-0.1,0.6000000000000001,0.0
1698419994.782,16,0.0,0.0,0.0,0.2,9.5,-0.5,0.1,0.4,-0.1
1698419994.799,16,0.0,0.0,0.0,0.1,9.5,-0.6000000000000001,0.1,0.2,-0.1
1698419994.816,16,0.0,0.0,0.0,0.1,9.5,-0.6000000000000001,0.1,0.1,0.0
1698419994.832,16,0.0,0.0,0.0,0.2,9.5,-0.5,-0.1,0.1,-0.1
1698419994.849,16,0.0,0.0,0.1,0.2,9.5,-0.5,-0.30000000000000004,0.0,-0.2
1698419994.865,16,0.0,0.0,0.0,0.2,9.5,-0.5,-0.30000000000000004,0.2,-0.2
1698419994.882,16,0.1,0.0,0.1,0.2,9.5,-0.5,-0.5,0.2,-0.2
1698419994.899,16,0.0,0.0,0.0,0.2,9.5,-0.5,-0.6000000000000001,0.30000000000000004,-0.2
1698419994.915,16,0.0,0.1,0.0,0.2,9.5,-0.6000000000000001,-0.7,0.5,-0.2
1698419994.932,16,0.0,0.0,0.0,0.1,9.5,-0.6000000000000001,-0.6000000000000001,0.7,-0.2
1698419994.949,16,0.0,0.0,0.0,0.2,9.5,-0.5,-0.9,0.4,-0.1
1698419994.965,16,0.0,0.0,0.0,0.2,9.4,-0.5,-0.8,0.5,-0.1
1698419994.982,16,0.0,-0.1,0.0,0.2,9.4,-0.5,-0.8,0.5,-0.5
1698419994.999,16,0.0,0.0,0.0,0.1,9.4,-0.5,-0.7,0.5,-0.4
1698419995.016,16,0.0,0.0,0.0,0.1,9.5,-0.5,-0.6000000000000001,0.4,-0.4
1698419995.032,16,0.0,0.0,0.0,0.2,9.5,-0.5,-0.6000000000000001,0.30000000000000004,-0.30000000000000004
1698419995.049,16,0.1,0.0,0.0,0.2,9.5,-0.6000000000000001,-0.30000000000000004,0.5,-0.5
1698419995.065,16,0.1,0.0,0.0,0.2,9.5,-0.5,-0.5,0.8,-0.7
1698419995.082,16,0.1,0.0,0.0,0.2,9.5,-0.5,-0.4,0.8,-0.8
1698419995.099,16,0.0,0.0,0.0,0.2,9.5,-0.5,-0.5,1.0999999999999999,-0.8
1698419995.115,16,0.0,0.0,0.0,0.2,9.4,-0.5,-0.5,1.0999999999999999,-0.9
1698419995.132,16,0.0,0.0,0.0,0.2,9.4,-0.5,-0.5,1.4,-0.8
1698419995.149,16,0.1,0.0,0.0,0.2,9.5,-0.5,-0.5,1.9,-1.0
1698419995.165,16,0.1,0.0,0.0,0.2,9.5,-0.5,-0.5,2.0,-1.0
1698419995.182,16,0.0,0.0,0.0,0.2,9.5,-0.5,-0.5,2.1,-0.9
1698419995.199,16,0.1,0.0,0.0,0.2,9.5,-0.5,-0.6000000000000001,2.3000000000000003,-1.0
1698419995.215,16,0.0,0.0,0.0,0.2,9.5,-0.5,-0.8,2.4000000000000004,-1.0
1698419995.232,16,0.0,0.0,0.0,0.2,9.5,-0.5,-1.0,2.5,-1.2000000000000002
1698419995.249,16,0.0,0.0,0.0,0.2,9.4,-0.5,-0.8,2.7,-1.2000000000000002
1698419995.265,16,0.0,0.0,0.0,0.2,9.5,-0.5,-0.8,2.8,-1.3
1698419995.282,16,0.0,0.0,0.0,0.2,9.5,-0.5,-0.8,3.0000000000000004,-1.3
1698419995.299,16,0.0,0.0,0.0,0.2,9.5,-0.5,-0.7,3.4,-1.6
1698419995.315,16,0.0,0.0,0.0,0.2,9.5,-0.5,-0.5,3.5,-1.8
1698419995.332,16,0.0,0.0,0.0,0.1,9.5,-0.5,-0.4,3.9,-2.1999999999999997
1698419995.349,16,0.0,0.0,0.0,0.1,9.5,-0.5,-0.2,4.300000000000001,-2.1999999999999997
1698419995.365,16,-0.1,0.0,0.0,0.0,9.5,-0.5,-0.1,4.5,-2.1999999999999997
1698419995.382,16,-0.1,0.0,0.0,0.0,9.5,-0.5,-0.1,4.6000000000000005,-2.1999999999999997
1698419995.399,16,-0.1,0.0,0.0,0.0,9.5,-0.4,0.0,4.7,-2.1999999999999997
1698419995.415,16,0.0,0.0,0.0,0.0,9.5,-0.5,0.1,4.6000000000000005,-2.1999999999999997
1698419995.432,16,0.0,0.0,0.0,0.0,9.5,-0.5,0.0,4.3999999999999995,-2.4000000000000004
1698419995.449,16,0.0,0.0,0.0,0.0,9.5,-0.5,0.1,4.5,-2.1999999999999997
1698419995.465,16,0.0,0.0,0.0,0.1,9.5,-0.5,0.1,4.1000000000000005,-2.1999999999999997
1698419995.482,16,0.0,0.0,0.0,0.0,9.5,-0.5,0.0,3.9,-2.1999999999999997
1698419995.499,16,-0.1,0.0,0.0,0.0,9.5,-0.5,-0.1,3.9,-2.1
1698419995.515,16,-0.1,0.0,0.0,-0.1,9.5,-0.5,-0.1,3.6,-1.8
1698419995.532,16,-0.1,0.0,0.0,-0.1,9.5,-0.5,-0.1,3.4,-1.6
1698419995.549,16,-0.1,0.0,0.0,0.0,9.5,-0.5,0.1,3.0000000000000004,-1.0999999999999999
1698419995.565,16,0.0,0.0,0.0,0.0,9.5,-0.5,0.2,2.8,-1.0
1698419995.582,16,-0.1,0.0,0.0,0.0,9.5,-0.5,0.1,2.6,-1.0
1698419995.598,16,0.0,0.0,0.0,0.0,9.5,-0.5,0.2,2.1,-1.0
1698419995.615,16,0.0,0.0,0.1,0.0,9.5,-0.4,0.1,1.9,-1.0
1698419995.632,16,0.0,0.0,0.0,0.0,9.5,-0.5,0.30000000000000004,1.8,-1.0999999999999999
1698419995.649,16,0.0,0.0,0.0,0.0,9.5,-0.5,0.30000000000000004,1.8,-1.0999999999999999
1698419995.665,16,0.0,0.0,0.0,0.0,9.5,-0.5,0.2,1.4,-1.0999999999999999
1698419995.682,16,0.0,0.1,0.0,0.0,9.5,-0.5,0.2,1.4,-1.0
1698419995.699,16,0.0,0.1,0.0,0.0,9.5,-0.5,-0.1,1.4,-1.0
1698419995.715,16,0.0,0.0,0.0,0.0,9.5,-0.5,-0.30000000000000004,0.9,-0.8
1698419995.732,16,0.0,0.0,0.0,0.0,9.5,-0.5,-0.4,0.6000000000000001,-0.8
1698419995.749,16,0.0,0.0,0.0,0.0,9.5,-0.5,-0.6000000000000001,0.2,-0.8
1698419995.766,16,0.0,0.0,0.0,0.0,9.5,-0.4,-0.8,0.0,-0.8
1698419995.782,16,0.0,0.0,0.0,0.0,9.5,-0.4,-1.0999999999999999,-0.30000000000000004,-0.7
1698419995.799,16,0.0,0.0,0.0,-0.1,9.5,-0.5,-1.4,-0.9,-0.30000000000000004
1698419995.816,16,0.0,0.0,0.0,0.0,9.5,-0.5,-2.0,-1.6,-0.1
1698419995.832,16,0.0,0.1,0.0,0.0,9.5,-0.5,-2.3000000000000003,-2.1,0.1
1698419995.849,16,0.1,0.1,0.0,0.1,9.600000000000001,-0.4,-3.2,-2.6,0.30000000000000004
1698419995.865,16,0.0,0.1,0.0,0.0,9.600000000000001,-0.4,-3.8,-3.1,0.6000000000000001
1698419995.882,16,0.0,0.0,0.0,0.0,9.600000000000001,-0.4,-4.0,-3.5,0.7
1698419995.899,16,0.0,0.0,0.0,0.0,9.5,-0.4,-4.300000000000001,-4.5,1.0999999999999999
1698419995.915,16,0.0,-0.1,0.0,0.0,9.4,-0.4,-4.9,-5.2,0.9
1698419995.932,16,0.0,0.0,0.1,0.0,9.5,-0.30000000000000004,-5.2,-5.8,0.8
1698419995.949,16,0.0,0.0,0.0,0.0,9.5,-0.30000000000000004,-4.9,-6.9,0.30000000000000004
1698419995.965,16,-0.1,0.1,0.0,-0.1,9.600000000000001,-0.30000000000000004,-4.5,-8.5,0.1
1698419995.982,16,-0.2,0.1,0.1,-0.2,9.600000000000001,-0.30000000000000004,-4.2,-9.700000000000001,0.0
1698419995.999,16,-0.4,0.1,0.0,-0.4,9.600000000000001,-0.30000000000000004,-3.9,-12.4,-0.4
1698419996.016,16,-0.5,0.1,0.0,-0.5,9.600000000000001,-0.30000000000000004,-4.5,-16.0,-1.5000000000000002
1698419996.032,16,-0.5,0.0,0.1,-0.5,9.5,-0.2,-4.9,-17.5,-2.1
1698419996.048,16,-0.5,0.1,0.1,-0.6000000000000001,9.600000000000001,-0.2,-5.6,-20.7,-2.9
1698419996.066,16,-0.5,0.1,0.2,-0.6000000000000001,9.600000000000001,-0.1,-6.3,-23.1,-3.7000000000000006
1698419996.082,16,-0.5,0.1,0.2,-0.6000000000000001,9.600000000000001,-0.1,-6.8,-24.400000000000002,-4.6000000000000005
1698419996.099,16,-0.6000000000000001,0.1,0.1,-0.7000000000000001,9.600000000000001,-0.2,-6.8,-24.9,-4.3999999999999995
1698419996.115,16,-0.8,0.0,0.1,-0.9,9.600000000000001,-0.1,-7.2,-26.400000000000002,-3.3000000000000003
1698419996.132,16,-0.9,0.0,0.0,-1.1,9.5,-0.2,-7.2,-28.500000000000004,-1.0
1698419996.149,16,-1.1,-0.2,0.0,-1.3,9.3,-0.2,-7.2,-30.7,0.2
1698419996.165,16,-1.2000000000000002,-0.2,-0.1,-1.4000000000000001,9.3,-0.2,-7.2,-34.7,2.3000000000000003
1698419996.182,16,-1.1,-0.2,-0.30000000000000004,-1.2000000000000002,9.4,-0.4,-6.7,-40.6,4.0
1698419996.199,16,-1.1,-0.1,-0.2,-1.2000000000000002,9.5,-0.4,-6.9,-43.300000000000004,4.0
1698419996.215,16,-1.0,0.1,-0.30000000000000004,-1.1,9.600000000000001,-0.4,-5.6,-50.1,4.5
1698419996.232,16,-1.0,0.2,-0.4,-1.2000000000000002,9.700000000000001,-0.5,-4.300000000000001,-56.900000000000006,4.1000000000000005
1698419996.249,16,-1.1,0.2,-0.4,-1.2000000000000002,9.8,-0.5,-3.8,-59.9,3.7000000000000006
1698419996.265,16,-1.1,0.30000000000000004,-0.4,-1.3,9.8,-0.5,-3.5,-65.5,2.6
1698419996.282,16,-1.1,0.30000000000000004,-0.30000000000000004,-1.3,9.8,-0.30000000000000004,-3.9,-69.4,1.2000000000000002
1698419996.299,16,-1.1,0.30000000000000004,-0.30000000000000004,-1.3,9.8,-0.30000000000000004,-3.6,-71.30000000000001,0.6000000000000001
1698419996.316,16,-1.2000000000000002,0.1,-0.30000000000000004,-1.4000000000000001,9.600000000000001,-0.30000000000000004,-3.4,-75.60000000000001,-0.7
1698419996.332,16,-1.2000000000000002,0.0,-0.30000000000000004,-1.4000000000000001,9.5,-0.30000000000000004,-3.4,-80.2,-1.5000000000000002
1698419996.349,16,-1.2000000000000002,-0.1,-0.30000000000000004,-1.4000000000000001,9.5,-0.30000000000000004,-3.7000000000000006,-82.60000000000001,-1.3
1698419996.365,16,-1.2000000000000002,-0.2,-0.1,-1.4000000000000001,9.4,-0.1,-4.2,-86.2,0.9
1698419996.382,16,-0.9,-0.30000000000000004,-0.1,-1.1,9.200000000000001,0.0,-5.1,-88.5,4.7
1698419996.4,16,-0.8,-0.4,0.0,-1.0,9.200000000000001,0.0,-6.1000000000000005,-88.7,7.0
1698419996.415,16,-0.6000000000000001,-0.2,0.1,-0.8,9.3,0.2,-9.9,-87.2,10.9
1698419996.432,16,-0.6000000000000001,-0.1,0.0,-0.7000000000000001,9.4,0.2,-12.200000000000001,-84.60000000000001,15.8
1698419996.452,16,-0.7000000000000001,0.0,0.1,-0.8,9.5,0.30000000000000004,-15.399999999999999,-83.30000000000001,20.2
1698419996.465,16,-0.7000000000000001,0.1,0.1,-0.7000000000000001,9.600000000000001,0.30000000000000004,-17.3,-83.50000000000001,21.900000000000002
1698419996.482,16,-0.4,0.4,0.1,-0.4,10.0,0.30000000000000004,-21.900000000000002,-84.60000000000001,22.5
1698419996.499,16,-0.2,0.6000000000000001,0.1,-0.1,10.100000000000001,0.5,-24.000000000000004,-85.9,22.000000000000004
1698419996.515,16,0.30000000000000004,0.7000000000000001,0.30000000000000004,0.5,10.200000000000001,0.7000000000000001,-28.400000000000002,-88.10000000000001,20.5
1698419996.532,16,0.9,0.4,0.5,1.2000000000000002,9.9,1.0,-31.3,-93.0,19.0
1698419996.549,16,1.0,0.2,0.4,1.3,9.700000000000001,1.0,-32.4,-94.3,17.0
1698419996.565,16,0.5,-0.1,0.4,0.9,9.4,1.0,-33.900000000000006,-95.2,12.700000000000001
1698419996.582,16,-0.30000000000000004,-0.4,0.0,0.2,9.1,0.7000000000000001,-31.8,-100.8,8.600000000000001
1698419996.599,16,-0.5,-0.5,-0.4,-0.1,9.0,0.4,-31.099999999999998,-103.5,6.5
1698419996.615,16,-0.7000000000000001,-0.4,-1.1,-0.2,9.1,-0.30000000000000004,-30.799999999999997,-106.4,2.9
1698419996.632,16,-0.30000000000000004,0.0,-1.4000000000000001,0.30000000000000004,9.4,-0.5,-31.8,-107.9,1.5000000000000002
1698419996.649,16,0.0,0.0,-1.5,0.5,9.5,-0.5,-31.900000000000002,-108.5,1.2000000000000002
1698419996.665,16,0.5,0.1,-1.5,1.1,9.600000000000001,-0.5,-31.099999999999998,-108.30000000000001,2.4000000000000004
1698419996.682,16,0.9,0.30000000000000004,-1.6,1.6,9.8,-0.5,-30.4,-107.30000000000001,5.8
1698419996.699,16,1.0,0.30000000000000004,-1.5,1.7000000000000002,9.700000000000001,-0.2,-30.299999999999997,-105.60000000000001,7.300000000000001
1698419996.715,16,0.9,0.2,-1.2000000000000002,1.7000000000000002,9.600000000000001,0.0,-29.200000000000003,-102.5,10.700000000000001
1698419996.732,16,0.8,0.1,-0.9,1.7000000000000002,9.5,0.30000000000000004,-28.6,-99.5,14.600000000000001
1698419996.749,16,0.8,0.1,-0.8,1.7000000000000002,9.5,0.5,-27.6,-96.80000000000001,17.8
1698419996.765,16,0.6000000000000001,-0.1,-0.8,1.7000000000000002,9.3,0.5,-26.500000000000004,-96.2,18.7
1698419996.782,16,0.30000000000000004,-0.30000000000000004,-0.9,1.5,9.0,0.4,-24.6,-94.0,19.700000000000003
1698419996.799,16,0.2,-0.4,-1.0,1.4000000000000001,9.0,0.4,-23.6,-93.5,19.400000000000002
1698419996.815,16,0.0,-0.4,-1.2000000000000002,1.3,8.9,0.2,-22.000000000000004,-94.0,17.5
1698419996.832,16,0.0,-0.6000000000000001,-1.3,1.4000000000000001,8.700000000000001,0.1,-20.5,-96.3,13.700000000000001
1698419996.849,16,0.1,-0.6000000000000001,-1.3,1.5,8.700000000000001,0.1,-20.2,-96.3,11.5
1698419996.865,16,0.30000000000000004,-0.5,-1.2000000000000002,1.8,8.700000000000001,0.2,-18.3,-95.60000000000001,6.000000000000001
1698419996.882,16,0.30000000000000004,-0.4,-1.1,1.9000000000000001,8.9,0.30000000000000004,-15.9,-93.80000000000001,1.2000000000000002
1698419996.898,16,0.4,-0.30000000000000004,-1.1,2.0,9.0,0.30000000000000004,-13.0,-91.2,-1.8
1698419996.915,16,0.4,-0.2,-1.0,2.0,9.1,0.30000000000000004,-11.700000000000001,-89.4,-3.2
1698419996.932,16,0.4,-0.1,-1.0,2.1,9.1,0.4,-8.799999999999999,-85.7,-6.000000000000001
1698419996.949,16,0.30000000000000004,-0.2,-0.9,1.9000000000000001,9.0,0.4,-7.1000000000000005,-81.9,-8.700000000000001
1698419996.965,16,0.30000000000000004,-0.2,-1.0,2.0,9.1,0.4,-6.7,-80.0,-9.9
1698419996.982,16,0.4,-0.1,-0.9,2.0,9.200000000000001,0.4,-5.9,-76.7,-11.6
1698419996.999,16,0.4,-0.1,-0.8,2.1,9.200000000000001,0.4,-5.500000000000001,-75.4,-12.100000000000001
