msFromStart,interval,accx,accy,accz,accGx,accGy,accGz,rotRate_alpha,rotRate_beta,rotRate_gamma
1698415574016.0,16,0.2,0.0,-0.5,-0.2,9.5,-0.2,4.5,-4.800000000000001,-0.30000000000000004
1698415574033.0,16,0.0,0.7000000000000001,-0.30000000000000004,-0.30000000000000004,10.200000000000001,-0.1,2.1,-7.699999999999999,-2.1999999999999997
1698415574049.0,16,0.1,0.8,-0.4,-0.2,10.3,-0.1,-2.5,-4.300000000000001,-1.9
1698415574066.0,16,0.1,0.30000000000000004,0.1,-0.2,9.8,0.30000000000000004,-7.699999999999999,4.6000000000000005,0.2
1698415574083.0,16,0.30000000000000004,-0.1,0.30000000000000004,-0.1,9.4,0.7000000000000001,-6.9,7.1000000000000005,0.7
1698415574100.0,16,0.1,-0.1,0.1,-0.30000000000000004,9.4,0.4,-3.8,7.300000000000001,-1.3
1698415574117.0,16,-0.1,0.0,0.0,-0.4,9.4,0.30000000000000004,-0.7,3.5,-2.4000000000000004
1698415574132.0,16,0.0,-0.2,0.1,-0.30000000000000004,9.3,0.5,0.2,3.0000000000000004,-2.0
1698415574149.0,16,-0.2,-0.2,-0.2,-0.5,9.3,0.2,-0.5,1.4,-1.0999999999999999
1698415574165.0,16,-0.2,-0.30000000000000004,-0.1,-0.5,9.200000000000001,0.2,-1.6,1.3,-0.5
1698415574183.0,16,-0.1,-0.2,0.2,-0.5,9.3,0.5,-0.1,-1.4,-0.4
1698415574202.0,16,-0.1,-0.2,0.1,-0.5,9.4,0.5,0.6000000000000001,-1.6,-0.2
1698415574216.0,16,-0.1,-0.1,0.2,-0.4,9.4,0.6000000000000001,1.0999999999999999,-2.7,-0.5
1698415574232.0,16,0.0,-0.1,0.1,-0.30000000000000004,9.4,0.5,3.4,-6.4,-0.7
1698415574249.0,16,0.1,0.0,0.0,-0.30000000000000004,9.5,0.30000000000000004,3.4,-6.9,-1.4
1698415574265.0,16,0.1,0.2,-0.1,-0.2,9.700000000000001,0.30000000000000004,3.3000000000000003,-5.6,-1.3
1698415574282.0,16,0.1,0.2,-0.1,-0.30000000000000004,9.700000000000001,0.2,2.9,-5.500000000000001,-1.0999999999999999
1698415574301.0,16,0.0,0.1,0.0,-0.4,9.600000000000001,0.2,2.6,-6.1000000000000005,-0.30000000000000004
1698415574318.0,16,-0.1,0.0,0.0,-0.4,9.5,0.30000000000000004,3.2,-5.500000000000001,0.30000000000000004
1698415574332.0,16,0.0,-0.1,0.0,-0.4,9.4,0.30000000000000004,3.6,-5.0,0.6000000000000001
1698415574349.0,16,0.0,-0.1,0.0,-0.4,9.4,0.30000000000000004,3.9,-4.3999999999999995,0.6000000000000001
1698415574366.0,16,0.0,0.0,0.0,-0.30000000000000004,9.5,0.30000000000000004,3.9,-3.9,0.4
1698415574382.0,16,0.0,0.0,0.0,-0.30000000000000004,9.5,0.30000000000000004,3.9,-3.3000000000000003,0.2
1698415574399.0,16,0.0,0.1,0.0,-0.30000000000000004,9.600000000000001,0.30000000000000004,3.4,-2.5,-0.30000000000000004
1698415574416.0,16,-0.1,0.1,-0.1,-0.4,9.600000000000001,0.1,2.6,-1.8,-0.2
1698415574432.0,16,0.0,0.1,-0.1,-0.4,9.700000000000001,0.1,1.4,-2.0,0.0
1698415574450.0,16,0.0,0.1,-0.1,-0.4,9.600000000000001,0.2,1.0999999999999999,-2.0,0.30000000000000004
1698415574465.0,16,0.0,0.0,-0.1,-0.4,9.600000000000001,0.1,0.8,-1.9,0.30000000000000004
1698415574484.0,16,0.0,0.0,-0.2,-0.4,9.5,0.0,0.2,-2.0,0.4
1698415574499.0,16,0.0,0.0,-0.1,-0.30000000000000004,9.5,0.1,-0.1,-1.7,0.4
1698415574517.0,16,0.0,0.0,-0.1,-0.30000000000000004,9.600000000000001,0.1,-0.2,-1.6,0.4
1698415574532.0,16,0.0,0.0,0.0,-0.30000000000000004,9.5,0.2,-0.5,-1.3,0.4
1698415574549.0,16,0.0,0.0,-0.1,-0.30000000000000004,9.5,0.1,-0.6000000000000001,-1.4,0.4
1698415574566.0,16,0.0,0.0,0.0,-0.30000000000000004,9.5,0.2,-0.7,-1.7,0.4
1698415574582.0,16,0.0,0.0,0.0,-0.30000000000000004,9.600000000000001,0.2,-1.0,-1.0999999999999999,0.30000000000000004
1698415574599.0,16,0.1,0.0,0.1,-0.30000000000000004,9.5,0.2,-0.9,-1.0,0.2
1698415574615.0,16,0.1,0.0,0.0,-0.30000000000000004,9.5,0.30000000000000004,-1.0,-0.4,0.0
1698415574632.0,16,0.0,-0.1,0.1,-0.30000000000000004,9.5,0.30000000000000004,-0.8,-0.1,0.0
1698415574649.0,16,0.0,-0.1,0.1,-0.30000000000000004,9.5,0.30000000000000004,-0.7,0.2,-0.2
1698415574665.0,16,0.0,0.0,0.1,-0.30000000000000004,9.5,0.30000000000000004,-0.5,0.6000000000000001,-0.7
1698415574682.0,16,0.0,0.0,0.0,-0.30000000000000004,9.5,0.2,-0.5,1.0999999999999999,-0.9
1698415574701.0,16,0.0,0.0,0.0,-0.30000000000000004,9.5,0.2,-0.4,1.0999999999999999,-0.9
1698415574716.0,16,0.0,0.0,0.0,-0.30000000000000004,9.5,0.30000000000000004,-0.5,1.0,-1.2000000000000002
1698415574732.0,16,0.0,0.0,0.0,-0.4,9.5,0.2,-0.5,1.0999999999999999,-1.2000000000000002
1698415574749.0,16,0.0,0.0,0.0,-0.4,9.600000000000001,0.2,-0.6000000000000001,1.3,-1.0
1698415574765.0,16,0.0,0.0,-0.1,-0.4,9.600000000000001,0.2,-1.0,1.4,-1.0
1698415574782.0,16,0.0,0.0,-0.1,-0.4,9.5,0.2,-1.4,1.0,-1.2000000000000002
1698415574799.0,16,0.0,0.0,-0.1,-0.4,9.600000000000001,0.2,-1.4,0.8,-1.0999999999999999
1698415574815.0,16,0.0,0.1,-0.1,-0.4,9.600000000000001,0.1,-1.9,0.6000000000000001,-1.0
1698415574832.0,16,0.0,0.0,0.0,-0.4,9.5,0.2,-2.1,0.4,-1.0
1698415574848.0,16,0.0,0.0,0.0,-0.4,9.5,0.2,-2.1999999999999997,0.2,-0.9
1698415574866.0,16,0.0,0.0,0.0,-0.4,9.5,0.2,-2.3000000000000003,0.0,-0.8
1698415574882.0,16,0.0,0.0,0.0,-0.4,9.5,0.2,-2.3000000000000003,0.2,-0.7
1698415574899.0,16,0.0,0.0,0.0,-0.4,9.5,0.30000000000000004,-2.1999999999999997,0.2,-0.5
1698415574915.0,16,0.0,0.0,0.0,-0.4,9.5,0.30000000000000004,-2.1999999999999997,0.0,-0.5
1698415574932.0,16,0.0,0.0,0.1,-0.4,9.5,0.30000000000000004,-2.1,0.2,-0.30000000000000004
1698415574949.0,16,0.0,0.0,0.1,-0.4,9.5,0.30000000000000004,-1.8,0.1,-0.4
1698415574965.0,16,0.0,0.0,0.1,-0.4,9.5,0.30000000000000004,-1.4,0.2,-0.4
1698415574982.0,16,0.0,-0.1,0.1,-0.4,9.5,0.30000000000000004,-1.3,0.30000000000000004,-0.2
1698415574999.0,16,0.0,0.0,0.1,-0.4,9.5,0.4,-1.0999999999999999,0.30000000000000004,-0.2
1698415575016.0,16,0.0,0.0,0.0,-0.4,9.5,0.30000000000000004,-0.7,0.2,-0.1
1698415575033.0,16,0.0,0.0,0.0,-0.4,9.5,0.30000000000000004,-0.7,0.30000000000000004,0.1
1698415575049.0,16,0.0,0.0,0.0,-0.4,9.5,0.30000000000000004,-0.6000000000000001,0.30000000000000004,0.1
1698415575066.0,16,0.0,0.0,0.0,-0.4,9.5,0.30000000000000004,-0.2,0.2,0.1
1698415575082.0,16,0.0,0.0,0.0,-0.4,9.5,0.30000000000000004,0.2,0.0,0.1
1698415575101.0,16,0.0,0.0,0.0,-0.4,9.5,0.30000000000000004,0.5,0.2,0.1
1698415575116.0,16,0.0,0.0,0.0,-0.4,9.5,0.30000000000000004,0.5,0.1,0.1
1698415575132.0,16,0.0,0.0,0.0,-0.4,9.5,0.30000000000000004,0.4,0.1,0.2
1698415575148.0,16,0.0,0.0,0.0,-0.4,9.5,0.30000000000000004,0.5,-0.1,0.2
1698415575166.0,16,0.0,0.0,0.0,-0.4,9.5,0.30000000000000004,0.5,-0.1,0.2
1698415575182.0,16,0.0,0.0,0.0,-0.4,9.5,0.30000000000000004,0.7,-0.30000000000000004,0.4
1698415575199.0,16,0.0,0.0,0.0,-0.4,9.5,0.30000000000000004,0.8,-0.30000000000000004,0.2
1698415575216.0,16,0.0,0.0,0.0,-0.4,9.5,0.30000000000000004,0.9,0.0,0.1
1698415575232.0,16,0.0,0.0,0.0,-0.4,9.5,0.30000000000000004,0.8,-0.30000000000000004,0.1
1698415575250.0,16,0.0,0.0,0.0,-0.4,9.5,0.30000000000000004,0.7,-0.30000000000000004,0.1
1698415575266.0,16,0.0,0.0,0.0,-0.30000000000000004,9.600000000000001,0.30000000000000004,0.6000000000000001,-0.30000000000000004,0.2
1698415575282.0,16,0.0,0.0,-0.1,-0.4,9.5,0.2,0.4,-0.2,0.1
1698415575298.0,16,0.0,0.0,0.0,-0.4,9.600000000000001,0.2,0.30000000000000004,-0.4,0.1
1698415575315.0,16,0.0,0.0,0.0,-0.4,9.5,0.30000000000000004,0.30000000000000004,-0.4,0.1
1698415575333.0,16,0.0,0.0,0.0,-0.4,9.5,0.2,0.4,-0.30000000000000004,0.2
1698415575349.0,16,0.0,0.0,0.0,-0.4,9.5,0.2,0.4,-0.5,0.2
1698415575366.0,16,0.0,0.0,0.0,-0.4,9.5,0.30000000000000004,0.5,-0.5,0.4
1698415575382.0,16,0.0,0.0,0.0,-0.30000000000000004,9.5,0.30000000000000004,0.30000000000000004,-0.30000000000000004,0.4
1698415575399.0,16,0.0,0.0,0.0,-0.4,9.5,0.30000000000000004,0.30000000000000004,-0.30000000000000004,0.4
1698415575418.0,16,0.0,0.0,0.0,-0.30000000000000004,9.5,0.30000000000000004,0.2,0.1,0.4
1698415575432.0,16,0.0,0.0,0.0,-0.4,9.600000000000001,0.30000000000000004,0.1,0.1,0.30000000000000004
1698415575449.0,16,0.0,0.0,0.0,-0.30000000000000004,9.5,0.30000000000000004,0.1,0.0,0.2
1698415575465.0,16,0.0,0.0,0.0,-0.4,9.5,0.30000000000000004,0.2,-0.1,0.2
1698415575483.0,16,0.0,0.0,0.0,-0.4,9.5,0.2,0.1,-0.1,0.4
1698415575499.0,16,0.0,0.0,0.0,-0.30000000000000004,9.5,0.30000000000000004,0.1,0.0,0.2
1698415575516.0,16,0.0,0.0,0.0,-0.4,9.5,0.30000000000000004,0.30000000000000004,0.2,0.2
1698415575532.0,16,0.0,0.0,0.0,-0.4,9.5,0.2,0.1,0.5,0.2
1698415575549.0,16,0.0,0.0,0.0,-0.4,9.5,0.2,0.1,0.30000000000000004,0.4
1698415575566.0,16,0.0,0.0,0.0,-0.4,9.5,0.30000000000000004,0.1,-0.1,0.4
1698415575583.0,16,0.0,0.0,0.0,-0.30000000000000004,9.5,0.2,0.0,0.1,0.2
1698415575599.0,16,0.0,0.0,0.0,-0.4,9.5,0.30000000000000004,-0.2,0.2,0.2
1698415575616.0,16,0.0,0.0,0.0,-0.4,9.5,0.30000000000000004,-0.30000000000000004,0.2,0.2
1698415575632.0,16,0.0,0.0,0.0,-0.4,9.5,0.30000000000000004,-0.30000000000000004,0.1,0.30000000000000004
1698415575649.0,16,0.0,0.0,0.0,-0.4,9.5,0.2,-0.30000000000000004,0.0,0.2
1698415575666.0,16,0.0,0.0,0.0,-0.30000000000000004,9.5,0.2,-0.2,-0.1,0.2
1698415575682.0,16,0.0,0.0,0.0,-0.30000000000000004,9.5,0.2,-0.30000000000000004,-0.2,0.2
1698415575699.0,16,0.0,0.0,0.0,-0.30000000000000004,9.5,0.30000000000000004,-0.4,-0.1,0.1
1698415575716.0,16,0.0,0.0,0.0,-0.4,9.5,0.30000000000000004,-0.4,0.0,0.0
1698415575733.0,16,0.0,0.0,0.0,-0.4,9.5,0.30000000000000004,-0.30000000000000004,0.0,-0.1
1698415575749.0,16,0.0,0.0,0.0,-0.4,9.5,0.30000000000000004,-0.30000000000000004,0.30000000000000004,-0.1
1698415575765.0,16,0.0,0.0,0.0,-0.4,9.5,0.30000000000000004,-0.2,0.2,-0.1
1698415575782.0,16,0.0,0.0,0.0,-0.30000000000000004,9.5,0.30000000000000004,-0.2,0.6000000000000001,-0.30000000000000004
1698415575799.0,16,0.0,0.0,0.0,-0.4,9.5,0.30000000000000004,-0.2,0.6000000000000001,-0.1
1698415575816.0,16,0.0,0.0,0.0,-0.4,9.5,0.30000000000000004,-0.2,0.5,-0.2
1698415575833.0,16,0.0,0.0,-0.1,-0.4,9.5,0.2,-0.4,0.30000000000000004,-0.1
1698415575849.0,16,0.0,0.0,0.0,-0.4,9.5,0.30000000000000004,-0.7,0.2,0.1
1698415575866.0,16,0.0,0.0,0.0,-0.4,9.5,0.30000000000000004,-0.5,0.2,0.1
1698415575882.0,16,0.0,0.0,0.0,-0.30000000000000004,9.5,0.30000000000000004,-0.30000000000000004,0.4,0.1
1698415575899.0,16,0.0,0.0,0.0,-0.4,9.5,0.30000000000000004,-0.6000000000000001,0.5,0.2
1698415575916.0,16,0.0,0.0,0.1,-0.4,9.5,0.30000000000000004,-0.5,0.5,0.2
1698415575932.0,16,0.0,0.0,0.0,-0.30000000000000004,9.5,0.30000000000000004,-0.1,0.30000000000000004,0.1
1698415575949.0,16,0.0,0.0,0.0,-0.30000000000000004,9.5,0.30000000000000004,0.0,1.0,-0.1
1698415575966.0,16,0.1,0.0,0.0,-0.30000000000000004,9.5,0.30000000000000004,-0.1,0.9,-0.1
1698415575982.0,16,0.0,0.0,0.0,-0.30000000000000004,9.5,0.30000000000000004,0.1,0.6000000000000001,-0.2
1698415575999.0,16,0.0,0.0,0.0,-0.30000000000000004,9.5,0.30000000000000004,0.30000000000000004,0.6000000000000001,-0.1
1698415576016.0,16,0.0,0.0,0.0,-0.30000000000000004,9.5,0.30000000000000004,0.2,0.5,-0.2
1698415576032.0,16,0.0,0.0,0.0,-0.4,9.5,0.30000000000000004,0.30000000000000004,0.2,-0.2
1698415576049.0,16,0.0,0.0,0.0,-0.4,9.5,0.30000000000000004,0.8,0.1,0.0
1698415576065.0,16,-0.1,-0.1,0.0,-0.4,9.4,0.30000000000000004,1.0999999999999999,-0.1,0.1
1698415576083.0,16,-0.1,-0.1,0.1,-0.4,9.4,0.30000000000000004,1.8,-0.5,0.2
1698415576099.0,16,0.0,0.0,0.1,-0.4,9.5,0.4,2.5,-0.8,0.2
1698415576116.0,16,0.0,0.0,0.1,-0.4,9.5,0.4,2.7,-1.0999999999999999,0.2
1698415576133.0,16,0.0,0.0,0.1,-0.30000000000000004,9.5,0.4,3.1,-0.6000000000000001,0.1
1698415576149.0,16,0.0,0.0,0.1,-0.30000000000000004,9.5,0.4,3.3000000000000003,-0.5,-0.1
1698415576165.0,16,0.0,0.0,0.1,-0.30000000000000004,9.5,0.4,3.2,-0.5,-0.1
1698415576183.0,16,0.0,0.0,0.0,-0.30000000000000004,9.5,0.30000000000000004,3.6,0.0,0.1
1698415576199.0,16,0.0,0.0,-0.1,-0.4,9.5,0.1,3.4,-0.30000000000000004,0.4
1698415576216.0,16,0.0,0.0,-0.1,-0.4,9.600000000000001,0.1,3.0000000000000004,-0.6000000000000001,0.5
1698415576233.0,16,0.0,0.1,-0.2,-0.4,9.600000000000001,0.0,2.4000000000000004,-0.6000000000000001,0.6000000000000001
1698415576249.0,16,0.0,0.1,-0.2,-0.30000000000000004,9.600000000000001,0.0,1.5000000000000002,-0.4,0.4
1698415576265.0,16,0.0,0.1,-0.30000000000000004,-0.30000000000000004,9.600000000000001,-0.1,1.0,-0.6000000000000001,0.5
1698415576283.0,16,0.0,0.2,-0.2,-0.4,9.700000000000001,0.0,0.2,-0.8,0.5
1698415576299.0,16,0.0,0.1,-0.2,-0.4,9.600000000000001,-0.1,-0.30000000000000004,-0.4,0.6000000000000001
1698415576316.0,16,0.0,0.1,-0.2,-0.4,9.600000000000001,0.0,-0.6000000000000001,-0.30000000000000004,0.7
1698415576332.0,16,0.0,0.0,-0.1,-0.4,9.600000000000001,0.1,-0.9,-0.30000000000000004,0.7
1698415576349.0,16,0.0,0.0,0.0,-0.4,9.5,0.2,-1.2000000000000002,-0.6000000000000001,0.8
1698415576366.0,16,0.0,0.0,0.1,-0.30000000000000004,9.5,0.30000000000000004,-1.2000000000000002,-0.7,0.7
1698415576382.0,16,0.0,0.0,0.1,-0.4,9.5,0.30000000000000004,-1.2000000000000002,-0.5,0.6000000000000001
1698415576399.0,16,0.0,0.0,0.1,-0.30000000000000004,9.5,0.30000000000000004,-1.3,-0.4,0.4
1698415576416.0,16,0.0,0.0,0.1,-0.30000000000000004,9.5,0.30000000000000004,-1.4,-0.2,0.2
1698415576433.0,16,0.0,0.0,0.1,-0.30000000000000004,9.5,0.30000000000000004,-1.4,-0.2,0.1
1698415576449.0,16,0.0,0.0,0.0,-0.30000000000000004,9.5,0.2,-1.6,0.2,0.1
1698415576465.0,16,0.0,0.0,0.0,-0.30000000000000004,9.5,0.2,-1.9,0.30000000000000004,0.1
1698415576482.0,16,0.0,0.0,0.0,-0.30000000000000004,9.5,0.2,-1.9,0.5,0.0
1698415576499.0,16,0.0,0.0,0.0,-0.30000000000000004,9.5,0.2,-1.4,0.5,-0.1
1698415576515.0,16,0.0,0.0,0.0,-0.30000000000000004,9.5,0.2,-1.0999999999999999,0.5,-0.1
1698415576533.0,16,0.0,0.0,0.0,-0.30000000000000004,9.5,0.2,-1.0,0.6000000000000001,-0.2
1698415576549.0,16,0.0,0.0,0.0,-0.30000000000000004,9.5,0.2,-1.0,0.8,-0.2
1698415576565.0,16,0.0,0.0,0.0,-0.4,9.5,0.30000000000000004,-1.0999999999999999,1.0,-0.2
1698415576583.0,16,0.0,0.0,0.0,-0.4,9.5,0.30000000000000004,-1.3,1.2000000000000002,-0.2
1698415576599.0,16,0.0,0.0,0.1,-0.30000000000000004,9.5,0.30000000000000004,-1.3,1.3,-0.1
1698415576617.0,16,0.0,0.0,0.0,-0.30000000000000004,9.5,0.30000000000000004,-1.0,1.0,-0.1
1698415576632.0,16,0.0,0.0,0.0,-0.4,9.5,0.30000000000000004,-1.0,1.0999999999999999,-0.1
1698415576649.0,16,0.0,0.0,0.0,-0.4,9.5,0.30000000000000004,-1.0,0.7,0.0
1698415576665.0,16,0.0,0.0,0.0,-0.4,9.5,0.30000000000000004,-1.2000000000000002,0.8,0.2
1698415576682.0,16,0.0,0.0,0.0,-0.30000000000000004,9.5,0.30000000000000004,-1.2000000000000002,0.9,0.30000000000000004
1698415576702.0,16,0.0,0.0,0.0,-0.4,9.5,0.2,-1.3,1.0999999999999999,0.1
1698415576716.0,16,0.0,0.0,0.0,-0.4,9.5,0.30000000000000004,-1.3,0.6000000000000001,0.30000000000000004
1698415576733.0,16,0.0,0.0,0.0,-0.4,9.5,0.30000000000000004,-1.0,0.30000000000000004,0.4
1698415576750.0,16,0.0,0.0,0.0,-0.30000000000000004,9.5,0.2,-0.7,-0.30000000000000004,0.4
1698415576765.0,16,0.0,0.0,0.0,-0.30000000000000004,9.5,0.30000000000000004,-0.8,-0.30000000000000004,0.2
1698415576782.0,16,0.0,0.0,0.0,-0.30000000000000004,9.5,0.30000000000000004,-0.8,-0.7,0.1
1698415576799.0,16,0.0,0.0,0.0,-0.30000000000000004,9.5,0.30000000000000004,-0.6000000000000001,-0.5,0.0
1698415576817.0,16,0.0,0.0,0.0,-0.30000000000000004,9.5,0.30000000000000004,-0.5,-0.6000000000000001,0.1
1698415576832.0,16,0.0,0.0,0.0,-0.30000000000000004,9.5,0.30000000000000004,-0.4,-0.7,0.0
1698415576849.0,16,0.0,0.0,0.0,-0.30000000000000004,9.5,0.30000000000000004,-0.2,-0.9,0.2
1698415576866.0,16,0.0,0.0,0.0,-0.30000000000000004,9.5,0.30000000000000004,0.1,-0.8,0.1
1698415576882.0,16,0.0,0.0,0.0,-0.30000000000000004,9.5,0.30000000000000004,0.30000000000000004,-0.6000000000000001,0.1
1698415576899.0,16,0.0,0.0,0.1,-0.30000000000000004,9.5,0.4,0.4,-0.6000000000000001,-0.1
1698415576916.0,16,0.0,0.0,0.0,-0.30000000000000004,9.5,0.30000000000000004,0.8,-0.5,-0.2
1698415576933.0,16,0.0,0.0,0.1,-0.30000000000000004,9.5,0.30000000000000004,0.8,-0.4,-0.2
1698415576949.0,16,0.0,0.0,0.0,-0.30000000000000004,9.5,0.30000000000000004,1.0,-0.30000000000000004,-0.30000000000000004
1698415576965.0,16,0.0,0.0,0.0,-0.30000000000000004,9.5,0.30000000000000004,1.0999999999999999,-0.30000000000000004,-0.4
1698415576983.0,16,0.0,0.0,0.0,-0.30000000000000004,9.5,0.30000000000000004,1.2000000000000002,0.0,-0.2
1698415576999.0,16,0.0,0.0,0.0,-0.30000000000000004,9.5,0.30000000000000004,1.2000000000000002,0.30000000000000004,-0.2
1698415577016.0,16,0.0,0.0,0.0,-0.4,9.600000000000001,0.2,1.0,0.30000000000000004,-0.2
1698415577032.0,16,0.0,0.1,0.0,-0.4,9.600000000000001,0.2,1.0,0.1,-0.30000000000000004
1698415577049.0,16,0.0,0.0,-0.1,-0.4,9.5,0.2,1.0,-0.1,-0.2
1698415577065.0,16,0.0,0.0,-0.1,-0.4,9.600000000000001,0.2,0.8,-0.2,-0.1
1698415577082.0,16,0.0,0.0,-0.1,-0.4,9.5,0.2,0.7,-0.30000000000000004,0.1
1698415577100.0,16,0.0,0.0,0.0,-0.30000000000000004,9.5,0.2,0.5,-0.30000000000000004,0.2
1698415577116.0,16,0.0,0.0,0.0,-0.4,9.5,0.2,0.30000000000000004,-0.1,0.30000000000000004
1698415577132.0,16,0.0,0.0,0.0,-0.30000000000000004,9.5,0.2,0.0,-0.1,0.4
1698415577149.0,16,0.0,0.0,0.0,-0.30000000000000004,9.5,0.2,0.0,-0.1,0.5
1698415577166.0,16,0.0,0.0,0.0,-0.30000000000000004,9.5,0.2,-0.1,-0.1,0.6000000000000001
1698415577182.0,16,0.0,0.0,0.0,-0.30000000000000004,9.5,0.30000000000000004,0.0,-0.30000000000000004,0.7
1698415577199.0,16,0.0,0.0,0.0,-0.30000000000000004,9.5,0.30000000000000004,0.0,-0.30000000000000004,0.7
1698415577216.0,16,0.0,0.0,0.0,-0.30000000000000004,9.5,0.30000000000000004,0.1,-0.4,0.6000000000000001
1698415577233.0,16,0.0,0.0,0.0,-0.30000000000000004,9.5,0.30000000000000004,0.0,-0.4,0.7
1698415577249.0,16,0.0,0.0,0.0,-0.30000000000000004,9.5,0.30000000000000004,0.0,-0.4,0.7
1698415577265.0,16,0.0,0.0,0.0,-0.30000000000000004,9.5,0.30000000000000004,0.0,-0.4,0.8
1698415577282.0,16,0.0,0.0,0.0,-0.30000000000000004,9.5,0.30000000000000004,0.0,-0.5,0.7
1698415577299.0,16,0.0,0.0,0.0,-0.30000000000000004,9.5,0.30000000000000004,0.0,-0.5,0.7
1698415577316.0,16,0.0,0.0,0.0,-0.30000000000000004,9.5,0.30000000000000004,0.1,-0.4,0.5
1698415577332.0,16,0.0,0.0,0.0,-0.30000000000000004,9.5,0.30000000000000004,0.2,-0.30000000000000004,0.5
1698415577348.0,16,0.0,0.0,0.0,-0.30000000000000004,9.5,0.30000000000000004,0.5,-0.7,0.4
1698415577365.0,16,0.0,0.0,0.0,-0.30000000000000004,9.5,0.30000000000000004,0.4,-0.6000000000000001,0.4
1698415577382.0,16,0.0,0.0,0.0,-0.30000000000000004,9.5,0.30000000000000004,0.5,-0.5,0.5
1698415577400.0,16,0.0,0.0,0.0,-0.30000000000000004,9.5,0.30000000000000004,0.4,-0.5,0.4
1698415577417.0,16,0.0,0.0,0.0,-0.30000000000000004,9.5,0.2,0.6000000000000001,-0.30000000000000004,0.4
1698415577432.0,16,0.0,0.0,0.0,-0.30000000000000004,9.5,0.30000000000000004,0.6000000000000001,-0.30000000000000004,0.4
1698415577448.0,16,0.0,0.0,0.0,-0.30000000000000004,9.5,0.30000000000000004,0.7,-0.1,0.4
1698415577467.0,16,0.0,0.0,0.0,-0.30000000000000004,9.5,0.30000000000000004,0.8,-0.1,0.4
1698415577483.0,16,0.0,-0.1,0.0,-0.30000000000000004,9.5,0.2,0.9,-0.1,0.30000000000000004
1698415577499.0,16,0.0,0.0,0.0,-0.30000000000000004,9.5,0.30000000000000004,1.0999999999999999,-0.4,0.4
1698415577518.0,16,0.0,0.0,0.0,-0.30000000000000004,9.5,0.2,1.4,-0.9,0.6000000000000001
1698415577533.0,16,0.0,0.0,0.0,-0.30000000000000004,9.5,0.2,1.5000000000000002,-0.9,0.4
1698415577548.0,16,0.0,0.0,0.0,-0.30000000000000004,9.5,0.2,1.7,-1.0999999999999999,0.4
1698415577565.0,16,0.0,0.0,0.0,-0.30000000000000004,9.5,0.30000000000000004,1.5000000000000002,-1.0999999999999999,0.4
1698415577582.0,16,0.0,0.0,0.0,-0.30000000000000004,9.5,0.2,1.8,-1.0,0.30000000000000004
1698415577599.0,16,0.0,0.0,0.0,-0.30000000000000004,9.5,0.2,1.8,-0.9,0.30000000000000004
1698415577616.0,16,0.0,0.0,0.0,-0.30000000000000004,9.5,0.2,1.8,-0.9,0.4
1698415577632.0,16,0.0,0.0,0.0,-0.30000000000000004,9.5,0.2,1.9,-0.7,0.4
1698415577649.0,16,0.0,0.0,0.0,-0.30000000000000004,9.5,0.2,2.1999999999999997,-0.4,0.30000000000000004
1698415577665.0,16,0.0,0.0,0.0,-0.2,9.5,0.2,2.3000000000000003,0.0,0.4
1698415577682.0,16,0.0,0.0,0.0,-0.2,9.5,0.2,2.5,0.30000000000000004,0.2
1698415577699.0,16,0.0,0.0,0.0,-0.2,9.5,0.2,2.6,0.8,0.2
1698415577716.0,16,0.0,0.0,0.0,-0.30000000000000004,9.5,0.2,2.7,0.8,0.4
1698415577733.0,16,0.0,0.0,0.0,-0.30000000000000004,9.5,0.2,2.6,0.6000000000000001,0.4
1698415577749.0,16,0.0,0.0,0.0,-0.30000000000000004,9.600000000000001,0.1,2.5,0.6000000000000001,0.5
1698415577766.0,16,0.0,0.0,0.0,-0.30000000000000004,9.5,0.1,2.3000000000000003,1.0,0.5
1698415577782.0,16,-0.1,0.0,-0.1,-0.30000000000000004,9.5,0.1,2.3000000000000003,0.6000000000000001,0.30000000000000004
1698415577800.0,16,0.0,0.0,-0.1,-0.30000000000000004,9.5,0.0,2.1,0.5,0.4
1698415577817.0,16,-0.1,0.1,0.0,-0.4,9.600000000000001,0.1,1.8,0.0,0.4
1698415577832.0,16,0.0,0.1,-0.1,-0.30000000000000004,9.600000000000001,0.1,1.5000000000000002,0.0,0.6000000000000001
1698415577848.0,16,0.0,0.0,-0.1,-0.30000000000000004,9.600000000000001,0.0,1.0,0.0,0.6000000000000001
1698415577865.0,16,0.0,0.0,-0.1,-0.30000000000000004,9.5,0.0,0.8,-0.1,0.6000000000000001
1698415577882.0,16,0.0,0.0,0.0,-0.30000000000000004,9.600000000000001,0.1,0.5,-0.1,0.5
1698415577898.0,16,0.0,0.0,0.0,-0.30000000000000004,9.5,0.1,0.30000000000000004,-0.30000000000000004,0.5
1698415577916.0,16,0.0,0.0,0.0,-0.2,9.600000000000001,0.1,0.2,-0.1,0.5
1698415577932.0,16,0.0,0.0,0.0,-0.2,9.5,0.1,0.30000000000000004,-0.30000000000000004,0.5
1698415577948.0,16,0.0,0.0,0.0,-0.2,9.5,0.1,0.0,-0.1,0.6000000000000001
1698415577965.0,16,0.0,0.0,0.0,-0.2,9.5,0.1,0.0,-0.1,0.4
1698415577982.0,16,0.0,0.0,0.0,-0.2,9.5,0.1,0.0,-0.1,0.4
1698415577998.0,16,0.0,0.0,0.0,-0.2,9.5,0.1,-0.2,0.0,0.2
1698415578016.0,16,0.0,0.0,0.0,-0.30000000000000004,9.5,0.1,-0.30000000000000004,0.1,0.30000000000000004
1698415578032.0,16,0.0,0.0,0.0,-0.30000000000000004,9.5,0.1,-0.4,0.0,0.2
1698415578049.0,16,0.0,0.0,0.0,-0.30000000000000004,9.5,0.1,-0.4,0.2,0.2
1698415578065.0,16,0.0,0.0,0.0,-0.2,9.600000000000001,0.1,-0.30000000000000004,0.1,0.2
1698415578082.0,16,0.0,0.0,0.0,-0.2,9.5,0.1,-0.4,0.0,0.1
1698415578099.0,16,0.0,0.0,-0.1,-0.2,9.5,0.0,-0.2,0.0,0.0
1698415578117.0,16,0.0,0.0,0.0,-0.30000000000000004,9.5,0.1,-0.4,0.0,-0.1
1698415578132.0,16,0.0,0.0,0.0,-0.30000000000000004,9.600000000000001,0.1,-0.7,0.2,-0.2
1698415578149.0,16,0.0,0.0,0.0,-0.30000000000000004,9.5,0.1,-0.9,0.2,-0.2
1698415578165.0,16,0.0,0.0,0.0,-0.30000000000000004,9.5,0.1,-1.0,0.30000000000000004,-0.2
1698415578182.0,16,0.0,0.0,0.0,-0.2,9.5,0.1,-1.0,0.2,-0.1
1698415578199.0,16,0.0,0.0,0.0,-0.30000000000000004,9.5,0.1,-1.0999999999999999,0.2,-0.30000000000000004
1698415578216.0,16,0.0,0.0,0.0,-0.30000000000000004,9.5,0.1,-1.0999999999999999,0.2,-0.2
1698415578232.0,16,0.0,0.0,0.0,-0.30000000000000004,9.5,0.1,-1.0999999999999999,0.2,-0.2
1698415578248.0,16,0.0,0.0,0.0,-0.2,9.5,0.1,-0.8,0.0,-0.1
1698415578265.0,16,0.0,0.0,0.0,-0.2,9.5,0.2,-0.9,0.30000000000000004,-0.1
1698415578282.0,16,0.0,0.0,0.0,-0.2,9.5,0.1,-0.9,0.5,-0.30000000000000004
1698415578298.0,16,0.0,0.0,0.0,-0.30000000000000004,9.5,0.1,-1.0999999999999999,0.1,-0.1
1698415578315.0,16,0.0,0.0,0.0,-0.30000000000000004,9.5,0.2,-1.0999999999999999,0.0,-0.2
1698415578333.0,16,0.0,0.0,0.0,-0.2,9.5,0.1,-1.0999999999999999,0.0,-0.1
1698415578349.0,16,0.0,0.0,0.0,-0.30000000000000004,9.5,0.1,-1.0999999999999999,-0.30000000000000004,-0.4
1698415578365.0,16,0.0,0.0,0.0,-0.30000000000000004,9.5,0.2,-1.0,-0.30000000000000004,-0.30000000000000004
1698415578383.0,16,0.0,0.0,0.0,-0.30000000000000004,9.5,0.1,-1.0,-0.5,-0.4
1698415578401.0,16,0.0,-0.1,0.0,-0.30000000000000004,9.5,0.2,-0.9,-0.30000000000000004,-0.2
1698415578418.0,16,0.0,0.0,0.0,-0.30000000000000004,9.5,0.1,-0.8,-0.5,-0.1
1698415578432.0,16,0.0,0.0,0.0,-0.30000000000000004,9.5,0.1,-0.8,-0.5,-0.1
1698415578448.0,16,0.0,0.0,0.0,-0.30000000000000004,9.5,0.2,-0.7,-0.30000000000000004,-0.2
1698415578465.0,16,0.0,0.0,0.0,-0.2,9.5,0.2,-0.6000000000000001,0.0,-0.4
1698415578483.0,16,0.0,0.0,0.0,-0.30000000000000004,9.5,0.2,-0.7,0.0,-0.4
1698415578498.0,16,0.0,0.0,0.0,-0.2,9.5,0.2,-0.7,0.0,-0.5
1698415578516.0,16,0.0,0.0,0.0,-0.30000000000000004,9.5,0.2,-0.7,0.1,-0.7
1698415578533.0,16,0.0,0.0,0.0,-0.30000000000000004,9.5,0.2,-0.5,0.1,-0.5
1698415578548.0,16,0.0,0.0,0.0,-0.30000000000000004,9.5,0.2,-0.7,0.30000000000000004,-0.4
1698415578565.0,16,0.0,0.0,0.0,-0.30000000000000004,9.5,0.2,-0.6000000000000001,0.4,-0.4
1698415578583.0,16,0.0,0.0,0.0,-0.30000000000000004,9.5,0.1,-0.5,0.7,-0.7
1698415578599.0,16,0.0,0.0,0.0,-0.30000000000000004,9.5,0.1,-0.8,0.30000000000000004,-0.7
1698415578615.0,16,0.0,0.0,0.0,-0.30000000000000004,9.5,0.2,-0.7,0.2,-0.7
1698415578632.0,16,0.0,0.0,0.0,-0.30000000000000004,9.5,0.2,-0.6000000000000001,0.2,-0.5
1698415578648.0,16,0.0,0.0,0.0,-0.30000000000000004,9.5,0.2,-0.7,0.0,-0.7
1698415578665.0,16,0.0,0.0,0.0,-0.30000000000000004,9.5,0.2,-0.8,0.30000000000000004,-0.6000000000000001
1698415578683.0,16,0.0,0.0,0.0,-0.30000000000000004,9.5,0.2,-0.8,0.30000000000000004,-0.6000000000000001
1698415578700.0,16,0.0,0.0,0.0,-0.30000000000000004,9.5,0.2,-0.8,0.4,-0.4
1698415578716.0,16,0.0,0.0,0.0,-0.30000000000000004,9.5,0.2,-0.8,0.30000000000000004,-0.4
1698415578732.0,16,0.0,0.0,0.0,-0.30000000000000004,9.5,0.2,-0.8,0.30000000000000004,-0.4
1698415578748.0,16,0.0,0.0,0.0,-0.30000000000000004,9.5,0.2,-0.7,0.5,-0.4
1698415578765.0,16,0.0,0.0,0.0,-0.30000000000000004,9.5,0.2,-0.5,-0.1,-0.30000000000000004
1698415578782.0,16,0.0,0.0,0.0,-0.30000000000000004,9.5,0.2,-0.7,-0.1,-0.30000000000000004
1698415578799.0,16,0.0,0.0,0.0,-0.30000000000000004,9.5,0.2,-0.30000000000000004,-0.1,-0.4
1698415578817.0,16,0.0,0.0,0.0,-0.30000000000000004,9.5,0.2,-0.5,-0.4,-0.2
1698415578832.0,16,0.0,0.0,0.1,-0.30000000000000004,9.5,0.30000000000000004,-0.30000000000000004,-0.1,-0.30000000000000004
1698415578849.0,16,0.0,0.0,0.0,-0.30000000000000004,9.5,0.2,-0.2,-0.1,-0.2
1698415578866.0,16,0.0,0.0,0.0,-0.30000000000000004,9.5,0.2,-0.1,-0.1,-0.2
1698415578882.0,16,0.0,0.0,0.0,-0.30000000000000004,9.5,0.2,-0.2,-0.1,-0.30000000000000004
1698415578899.0,16,0.0,0.0,0.0,-0.30000000000000004,9.5,0.2,-0.30000000000000004,0.1,-0.30000000000000004
1698415578915.0,16,0.0,0.0,0.0,-0.30000000000000004,9.5,0.2,-0.2,0.1,-0.2
1698415578932.0,16,0.0,0.0,0.0,-0.30000000000000004,9.5,0.2,-0.1,0.0,-0.2
1698415578949.0,16,0.0,0.0,0.0,-0.30000000000000004,9.5,0.2,0.1,0.0,-0.4
1698415578965.0,16,0.0,0.0,0.0,-0.30000000000000004,9.5,0.2,0.2,-0.1,-0.30000000000000004
1698415578982.0,16,0.0,0.0,0.0,-0.30000000000000004,9.5,0.2,0.4,0.0,-0.2
1698415578998.0,16,0.0,0.0,0.0,-0.30000000000000004,9.5,0.2,0.30000000000000004,0.0,-0.2
1698415579015.0,16,0.0,0.0,0.0,-0.30000000000000004,9.5,0.2,0.30000000000000004,-0.1,-0.1
1698415579032.0,16,0.0,0.0,0.1,-0.30000000000000004,9.5,0.4,0.5,-0.4,-0.2
1698415579049.0,16,-0.1,0.0,0.1,-0.4,9.5,0.30000000000000004,0.9,-0.1,-0.2
1698415579065.0,16,0.0,0.0,0.0,-0.30000000000000004,9.5,0.2,0.8,-0.5,0.0
1698415579083.0,16,0.0,0.0,0.0,-0.30000000000000004,9.5,0.2,0.5,-0.30000000000000004,-0.1
1698415579098.0,16,0.0,0.0,0.0,-0.30000000000000004,9.5,0.2,0.5,-0.30000000000000004,-0.1
1698415579115.0,16,0.0,0.0,0.0,-0.30000000000000004,9.5,0.2,0.8,-0.1,-0.2
1698415579132.0,16,0.0,0.0,0.0,-0.30000000000000004,9.5,0.2,1.0999999999999999,0.1,0.0
1698415579153.0,16,0.0,0.0,0.0,-0.30000000000000004,9.5,0.2,0.9,0.0,0.0
1698415579165.0,16,0.0,0.0,0.0,-0.30000000000000004,9.5,0.1,0.9,-0.30000000000000004,0.1
1698415579182.0,16,0.0,0.0,0.0,-0.30000000000000004,9.5,0.2,0.9,-0.5,0.1
1698415579198.0,16,0.0,0.0,0.0,-0.30000000000000004,9.5,0.2,0.9,-0.5,0.1
1698415579215.0,16,0.0,0.0,-0.1,-0.4,9.5,0.1,0.9,-0.6000000000000001,0.2
1698415579232.0,16,0.0,0.0,0.0,-0.30000000000000004,9.5,0.2,0.9,-0.9,0.2
1698415579249.0,16,0.0,0.0,0.0,-0.30000000000000004,9.5,0.2,0.9,-0.8,0.2
1698415579265.0,16,0.0,0.0,0.0,-0.30000000000000004,9.5,0.2,0.9,-0.4,0.2
1698415579282.0,16,0.0,0.0,0.0,-0.30000000000000004,9.5,0.2,1.0999999999999999,-0.1,0.0
1698415579298.0,16,0.0,0.0,0.0,-0.30000000000000004,9.5,0.2,1.0999999999999999,-0.1,0.0
1698415579315.0,16,0.0,0.0,0.0,-0.30000000000000004,9.5,0.2,1.3,-0.30000000000000004,0.2
1698415579332.0,16,0.0,0.0,0.0,-0.30000000000000004,9.5,0.1,1.4,-0.6000000000000001,0.4
1698415579349.0,16,0.0,0.0,0.0,-0.30000000000000004,9.5,0.2,1.4,-0.6000000000000001,0.30000000000000004
1698415579365.0,16,0.0,0.0,0.0,-0.30000000000000004,9.5,0.2,1.5000000000000002,-0.7,0.5
1698415579383.0,16,0.0,0.0,0.0,-0.30000000000000004,9.5,0.1,1.8,-0.2,0.4
1698415579399.0,16,0.0,0.0,0.0,-0.30000000000000004,9.5,0.1,1.8,-0.1,0.30000000000000004
1698415579415.0,16,0.0,0.0,0.0,-0.30000000000000004,9.5,0.1,1.8,-0.1,0.4
1698415579432.0,16,0.0,0.0,0.0,-0.30000000000000004,9.5,0.2,1.8,0.0,0.6000000000000001
1698415579449.0,16,0.0,0.0,0.0,-0.30000000000000004,9.5,0.1,1.8,-0.1,0.5
1698415579466.0,16,0.0,0.0,0.0,-0.30000000000000004,9.5,0.1,1.8,-0.1,0.6000000000000001
1698415579483.0,16,0.0,0.0,0.0,-0.30000000000000004,9.5,0.1,1.7,-0.1,0.5
1698415579500.0,16,0.0,0.0,0.0,-0.30000000000000004,9.5,0.1,1.4,-0.1,0.6000000000000001
1698415579516.0,16,0.0,0.1,0.0,-0.30000000000000004,9.600000000000001,0.1,1.4,-0.1,0.4
1698415579532.0,16,0.0,0.0,-0.1,-0.30000000000000004,9.5,0.0,0.9,0.30000000000000004,0.4
1698415579550.0,16,0.0,0.0,-0.1,-0.30000000000000004,9.600000000000001,0.0,0.0,0.2,0.2
1698415579566.0,16,0.0,0.1,-0.1,-0.30000000000000004,9.600000000000001,0.0,-0.30000000000000004,-0.30000000000000004,0.1
1698415579583.0,16,0.0,0.0,-0.1,-0.30000000000000004,9.600000000000001,0.0,-1.3,-0.30000000000000004,-0.4
1698415579599.0,16,0.0,0.1,0.0,-0.2,9.600000000000001,0.1,-1.9,-0.6000000000000001,-0.2
1698415579615.0,16,0.0,0.1,-0.1,-0.30000000000000004,9.600000000000001,0.0,-2.1999999999999997,-0.6000000000000001,-0.4
1698415579632.0,16,0.0,0.1,-0.1,-0.30000000000000004,9.600000000000001,0.0,-2.6,-0.5,-0.4
1698415579648.0,16,0.0,0.1,-0.1,-0.30000000000000004,9.600000000000001,0.0,-3.4,-0.4,-0.2
1698415579665.0,16,0.0,0.0,-0.1,-0.30000000000000004,9.600000000000001,0.0,-3.8,-0.30000000000000004,-0.2
1698415579682.0,16,0.0,0.1,-0.1,-0.30000000000000004,9.600000000000001,0.0,-4.800000000000001,-0.1,-0.4
1698415579699.0,16,0.0,0.1,-0.1,-0.30000000000000004,9.600000000000001,0.0,-5.2,0.2,-0.30000000000000004
1698415579716.0,16,0.0,0.1,-0.1,-0.30000000000000004,9.600000000000001,0.1,-6.000000000000001,0.6000000000000001,-0.2
1698415579732.0,16,0.0,0.1,0.0,-0.30000000000000004,9.600000000000001,0.1,-7.1000000000000005,0.6000000000000001,0.2
1698415579750.0,16,-0.1,0.1,-0.1,-0.4,9.600000000000001,0.1,-7.699999999999999,0.7,0.5
1698415579766.0,16,-0.1,0.0,-0.1,-0.4,9.600000000000001,0.1,-8.5,0.0,0.7
1698415579782.0,16,0.0,0.0,0.0,-0.30000000000000004,9.600000000000001,0.2,-8.799999999999999,-0.8,0.7
1698415579799.0,16,0.0,0.1,0.0,-0.30000000000000004,9.600000000000001,0.2,-8.9,-1.0,0.4
1698415579815.0,16,0.0,0.0,-0.1,-0.30000000000000004,9.600000000000001,0.2,-9.1,-0.8,0.2
1698415579832.0,16,0.0,0.0,-0.1,-0.30000000000000004,9.5,0.2,-9.8,0.0,0.2
1698415579849.0,16,-0.1,0.0,-0.1,-0.4,9.600000000000001,0.2,-10.3,-0.1,0.2
1698415579866.0,16,-0.1,0.0,-0.1,-0.4,9.600000000000001,0.30000000000000004,-11.6,-0.5,0.4
1698415579882.0,16,0.0,0.1,0.0,-0.30000000000000004,9.600000000000001,0.4,-13.700000000000001,-1.0999999999999999,0.1
1698415579899.0,16,0.0,0.1,0.0,-0.30000000000000004,9.600000000000001,0.4,-15.9,-1.9,-0.1
1698415579916.0,16,0.0,0.1,0.0,-0.30000000000000004,9.600000000000001,0.5,-17.400000000000002,-1.9,-0.1
1698415579932.0,16,0.0,0.2,-0.1,-0.30000000000000004,9.700000000000001,0.4,-21.200000000000003,-1.7,0.1
1698415579948.0,16,0.0,0.1,-0.2,-0.30000000000000004,9.700000000000001,0.4,-26.6,-0.5,0.5
1698415579965.0,16,0.0,0.1,-0.2,-0.30000000000000004,9.600000000000001,0.4,-28.6,0.1,1.0
1698415579982.0,16,0.0,0.2,-0.2,-0.30000000000000004,9.700000000000001,0.5,-32.9,1.5000000000000002,2.4000000000000004
1698415580000.0,16,0.0,0.2,-0.30000000000000004,-0.30000000000000004,9.8,0.5,-36.3,2.7,4.2
1698415580015.0,16,0.0,0.2,-0.4,-0.30000000000000004,9.700000000000001,0.5,-37.7,2.5,4.6000000000000005
1698415580032.0,16,0.0,0.2,-0.5,-0.30000000000000004,9.700000000000001,0.5,-38.900000000000006,4.300000000000001,4.3999999999999995
1698415580048.0,16,0.0,0.1,-0.5,-0.30000000000000004,9.700000000000001,0.6000000000000001,-29.200000000000003,-0.6000000000000001,4.300000000000001
1698415580065.0,16,0.0,0.2,-0.5,-0.30000000000000004,9.9,0.6000000000000001,-31.0,-0.8,3.1
1698415580081.0,16,0.0,0.30000000000000004,-0.5,-0.2,9.9,0.7000000000000001,-34.400000000000006,-0.8,3.2
1698415580098.0,16,-0.1,0.1,-0.5,-0.30000000000000004,9.700000000000001,0.8,-34.300000000000004,-0.8,3.5
1698415580115.0,16,-0.1,0.1,-0.5,-0.30000000000000004,9.600000000000001,0.9,-34.300000000000004,-0.5,3.4
1698415580133.0,16,0.0,0.1,-0.4,-0.2,9.600000000000001,1.1,-37.1,-0.4,3.6
1698415580148.0,16,0.0,0.0,-0.30000000000000004,-0.2,9.600000000000001,1.3,-37.1,-0.8,3.1
1698415580166.0,16,0.0,0.1,-0.2,-0.2,9.600000000000001,1.4000000000000001,-37.800000000000004,-0.6000000000000001,3.1
1698415580183.0,16,0.0,0.0,-0.2,-0.2,9.5,1.5,-39.699999999999996,0.0,3.4
1698415580199.0,16,0.0,0.0,-0.1,-0.2,9.5,1.8,-41.4,0.0,3.9
1698415580215.0,16,0.0,0.0,0.0,-0.2,9.4,1.9000000000000001,-42.6,-0.5,4.300000000000001
1698415580234.0,16,0.0,-0.1,0.0,-0.2,9.4,2.1,-43.400000000000006,-0.5,4.3999999999999995
1698415580249.0,16,0.0,-0.2,0.0,-0.1,9.200000000000001,2.2,-44.5,-0.8,4.800000000000001
1698415580265.0,16,0.0,-0.30000000000000004,0.0,-0.1,9.200000000000001,2.3000000000000003,-44.8,-0.8,4.9
1698415580282.0,16,0.0,-0.4,0.0,-0.1,9.0,2.4000000000000004,-46.300000000000004,-0.5,5.300000000000001
1698415580298.0,16,0.0,-0.2,0.0,-0.1,9.0,2.6,-48.2,0.0,5.7
1698415580315.0,16,-0.1,-0.30000000000000004,0.0,-0.1,8.9,2.7,-50.1,0.1,6.3
1698415580331.0,16,0.0,-0.2,0.0,-0.1,9.0,2.8000000000000003,-51.5,0.1,6.6000000000000005
1698415580348.0,16,0.0,-0.2,0.0,0.0,8.9,3.0,-53.400000000000006,-0.1,6.7
1698415580365.0,16,0.0,-0.1,-0.1,0.0,9.0,3.1,-56.6,-0.2,6.7
1698415580381.0,16,0.1,-0.1,-0.1,0.1,9.0,3.2,-57.1,0.30000000000000004,7.0
1698415580398.0,16,0.0,-0.2,0.0,0.0,8.8,3.4000000000000004,-60.00000000000001,0.5,7.300000000000001
1698415580415.0,16,0.0,0.0,-0.2,0.1,8.9,3.5,-63.10000000000001,2.5,7.6
1698415580431.0,16,-0.1,-0.2,-0.1,0.0,8.700000000000001,3.7,-65.2,3.1,7.699999999999999
1698415580448.0,16,0.0,-0.1,0.0,0.0,8.700000000000001,3.9000000000000004,-67.4,4.7,8.1
1698415580465.0,16,-0.1,0.1,-0.1,0.0,8.8,4.1000000000000005,-69.7,6.3,8.1
1698415580482.0,16,-0.1,0.1,0.0,0.0,8.700000000000001,4.2,-70.5,6.2,8.600000000000001
1698415580499.0,16,-0.1,0.0,0.0,0.0,8.5,4.5,-75.0,5.7,8.5
1698415580515.0,16,-0.1,-0.30000000000000004,-0.2,0.1,8.1,4.6000000000000005,-77.3,5.300000000000001,6.7
1698415580532.0,16,0.0,-0.1,-0.2,0.1,8.200000000000001,4.6000000000000005,-78.00000000000001,4.800000000000001,6.000000000000001
1698415580548.0,16,0.0,0.2,-0.30000000000000004,0.2,8.4,4.7,-77.7,4.9,4.9
1698415580565.0,16,0.0,0.6000000000000001,-0.30000000000000004,0.2,8.700000000000001,5.0,-80.30000000000001,4.800000000000001,5.0
1698415580582.0,16,0.0,0.0,-0.1,0.1,8.0,5.300000000000001,-79.10000000000001,4.800000000000001,4.3999999999999995
1698415580598.0,16,-0.1,0.30000000000000004,0.1,0.1,8.1,5.7,-80.9,3.5,4.0
1698415580616.0,16,0.0,0.7000000000000001,0.2,0.1,8.4,6.0,-79.10000000000001,3.1,3.5
1698415580633.0,16,0.0,0.2,0.2,0.1,7.9,6.2,-79.00000000000001,3.7000000000000006,3.1
1698415580649.0,16,0.1,0.1,0.4,0.30000000000000004,7.5,6.5,-79.8,4.7,2.9
1698415580665.0,16,0.1,0.30000000000000004,0.6000000000000001,0.2,7.6000000000000005,6.9,-76.80000000000001,5.500000000000001,4.0
1698415580682.0,16,0.1,0.6000000000000001,0.8,0.2,7.7,7.300000000000001,-76.2,5.2,4.0
1698415580699.0,16,0.0,0.8,0.9,0.2,7.1000000000000005,7.6000000000000005,-73.60000000000001,4.2,3.7000000000000006
1698415580715.0,16,0.30000000000000004,0.5,1.2000000000000002,0.4,7.4,8.0,-72.10000000000001,5.8,4.1000000000000005
1698415580732.0,16,0.30000000000000004,0.4,1.3,0.4,7.2,8.200000000000001,-69.9,6.000000000000001,2.9
1698415580749.0,16,0.2,0.1,1.3,0.30000000000000004,6.7,8.4,-66.3,7.400000000000001,0.5
1698415580765.0,16,0.1,-0.30000000000000004,1.5,0.2,6.2,8.700000000000001,-60.00000000000001,7.8,1.8
1698415580783.0,16,0.1,0.2,1.4000000000000001,0.2,6.6000000000000005,8.700000000000001,-58.1,6.9,1.0999999999999999
1698415580799.0,16,0.0,-0.2,1.7000000000000002,0.0,6.1000000000000005,9.1,-52.7,4.3999999999999995,-0.2
1698415580816.0,16,-0.1,-0.30000000000000004,1.7000000000000002,0.0,5.800000000000001,9.200000000000001,-48.50000000000001,4.2,-0.4
1698415580832.0,16,-0.1,-0.30000000000000004,1.6,0.0,5.7,9.200000000000001,-45.7,3.7000000000000006,-0.6000000000000001
1698415580849.0,16,0.1,-0.2,1.4000000000000001,0.2,5.7,9.1,-39.6,2.4000000000000004,-0.2
1698415580865.0,16,0.1,-0.9,1.3,0.2,4.9,9.1,-34.800000000000004,3.0000000000000004,-1.6
1698415580883.0,16,0.2,-1.0,1.1,0.2,4.800000000000001,9.0,-33.7,3.4,-0.1
1698415580898.0,16,-0.1,-0.6000000000000001,1.0,-0.1,5.1000000000000005,8.8,-29.300000000000004,2.5,-0.9
1698415580915.0,16,-0.1,-0.7000000000000001,1.1,0.0,4.9,9.0,-26.3,2.0,-0.5
1698415580932.0,16,-0.1,-0.7000000000000001,1.0,-0.1,4.9,8.9,-22.000000000000004,0.6000000000000001,-0.9
1698415580949.0,16,-0.30000000000000004,-0.7000000000000001,0.8,-0.30000000000000004,4.800000000000001,8.8,-19.9,0.7,-0.6000000000000001
1698415580965.0,16,-0.30000000000000004,-0.8,0.7000000000000001,-0.2,4.7,8.8,-16.2,0.0,0.0
1698415580982.0,16,-0.2,-0.8,0.7000000000000001,-0.2,4.6000000000000005,8.8,-14.500000000000002,-0.4,0.2
1698415581001.0,16,-0.1,-0.8,0.7000000000000001,-0.1,4.6000000000000005,8.8,-10.8,-0.1,0.4
1698415581015.0,16,-0.2,-0.8,0.5,-0.2,4.6000000000000005,8.700000000000001,-6.5,-1.5000000000000002,0.0
1698415581032.0,16,-0.30000000000000004,-0.8,0.4,-0.30000000000000004,4.6000000000000005,8.5,-2.7,-2.1999999999999997,-0.5
1698415581048.0,16,-0.2,-0.7000000000000001,0.4,-0.2,4.6000000000000005,8.6,-1.6,-2.3000000000000003,-0.8
1698415581065.0,16,0.0,-0.7000000000000001,0.6000000000000001,0.0,4.6000000000000005,8.700000000000001,1.3,-1.9,-1.7
1698415581082.0,16,0.1,-0.7000000000000001,0.5,0.1,4.7,8.6,3.4,-2.3000000000000003,-2.1
1698415581098.0,16,0.1,-0.7000000000000001,0.4,0.1,4.7,8.6,4.7,-2.3000000000000003,-2.3000000000000003
1698415581115.0,16,0.1,-0.7000000000000001,0.30000000000000004,0.1,4.7,8.4,6.3,-1.9,-3.0000000000000004
1698415581132.0,16,0.1,-0.8,0.4,0.2,4.6000000000000005,8.5,7.500000000000001,-1.0999999999999999,-2.7
1698415581149.0,16,0.2,-0.8,0.4,0.2,4.6000000000000005,8.5,8.200000000000001,-0.8,-2.3000000000000003
1698415581165.0,16,0.0,-0.7000000000000001,0.4,0.1,4.7,8.5,10.2,-0.6000000000000001,-1.3
1698415581183.0,16,0.0,-0.7000000000000001,0.30000000000000004,0.1,4.7,8.4,11.000000000000002,-0.6000000000000001,-0.6000000000000001
1698415581199.0,16,0.1,-0.7000000000000001,0.30000000000000004,0.2,4.7,8.4,11.5,-1.0999999999999999,-0.4
1698415581215.0,16,0.2,-0.7000000000000001,0.2,0.2,4.7,8.3,12.700000000000001,-0.6000000000000001,0.2
1698415581233.0,16,0.2,-0.5,0.30000000000000004,0.30000000000000004,4.9,8.4,13.3,-0.1,0.4
1698415581248.0,16,0.2,-0.5,0.30000000000000004,0.2,4.9,8.4,13.9,-0.2,0.8
1698415581265.0,16,0.1,-0.4,0.30000000000000004,0.2,5.0,8.4,14.600000000000001,0.1,0.9
1698415581282.0,16,0.1,-0.4,0.2,0.2,5.0,8.3,15.399999999999999,-0.30000000000000004,0.4
1698415581298.0,16,0.1,-0.4,0.2,0.2,5.1000000000000005,8.200000000000001,15.9,-0.5,0.7
1698415581317.0,16,0.2,-0.4,0.30000000000000004,0.30000000000000004,5.1000000000000005,8.3,17.0,-0.6000000000000001,1.2000000000000002
1698415581332.0,16,0.2,-0.30000000000000004,0.2,0.30000000000000004,5.2,8.200000000000001,19.0,0.30000000000000004,0.7
1698415581349.0,16,0.2,-0.2,0.1,0.30000000000000004,5.300000000000001,8.1,19.9,1.0999999999999999,0.4
1698415581365.0,16,0.2,-0.4,0.2,0.30000000000000004,5.2,8.1,21.8,1.7,0.4
1698415581383.0,16,0.2,-0.30000000000000004,0.1,0.30000000000000004,5.4,8.0,24.200000000000003,2.1999999999999997,0.30000000000000004
1698415581399.0,16,0.30000000000000004,-0.2,0.1,0.4,5.5,8.0,25.3,3.0000000000000004,0.30000000000000004
1698415581416.0,16,0.2,-0.2,0.1,0.30000000000000004,5.6000000000000005,7.9,27.6,3.8,-0.1
1698415581432.0,16,0.0,-0.30000000000000004,0.0,0.1,5.6000000000000005,7.800000000000001,29.900000000000006,4.300000000000001,-0.4
1698415581448.0,16,0.0,-0.30000000000000004,0.0,0.1,5.6000000000000005,7.7,30.9,4.0,-0.5
1698415581465.0,16,0.0,-0.30000000000000004,-0.2,0.0,5.7,7.5,33.5,4.0,-0.4
1698415581482.0,16,-0.1,-0.30000000000000004,-0.2,0.0,5.7,7.4,35.9,3.4,-0.2
1698415581500.0,16,-0.1,-0.4,-0.30000000000000004,-0.1,5.7,7.2,37.2,2.5,-0.2
1698415581515.0,16,-0.1,-0.5,-0.4,-0.1,5.7,7.1000000000000005,39.50000000000001,2.4000000000000004,-0.5
1698415581532.0,16,-0.1,-0.6000000000000001,-0.6000000000000001,-0.1,5.7,6.800000000000001,42.2,1.6,-1.3
1698415581548.0,16,-0.2,-0.7000000000000001,-0.6000000000000001,-0.1,5.7,6.7,44.3,0.0,-1.8
1698415581565.0,16,-0.2,-0.8,-0.7000000000000001,-0.2,5.7,6.5,45.1,-0.8,-1.8
1698415581582.0,16,-0.2,-0.8,-0.6000000000000001,-0.2,5.800000000000001,6.5,46.0,-2.8,-2.1
1698415581598.0,16,-0.2,-0.8,-0.7000000000000001,-0.1,5.9,6.4,46.4,-3.4,-2.6
1698415581615.0,16,-0.1,-0.7000000000000001,-0.6000000000000001,-0.1,6.0,6.4,47.0,-4.300000000000001,-3.3000000000000003
1698415581632.0,16,-0.1,-0.7000000000000001,-0.6000000000000001,-0.1,6.1000000000000005,6.2,47.1,-5.300000000000001,-3.2
1698415581649.0,16,-0.1,-0.7000000000000001,-0.4,-0.1,6.2,6.300000000000001,46.7,-5.8,-3.3000000000000003
1698415581665.0,16,-0.1,-0.7000000000000001,-0.4,-0.1,6.300000000000001,6.2,46.6,-5.1,-3.6
1698415581682.0,16,0.0,-0.6000000000000001,-0.30000000000000004,0.1,6.5,6.2,45.800000000000004,-4.7,-3.5
1698415581700.0,16,0.0,-0.5,-0.4,0.1,6.6000000000000005,6.1000000000000005,45.3,-4.300000000000001,-3.9
1698415581717.0,16,0.0,-0.4,-0.30000000000000004,0.1,6.800000000000001,6.0,44.00000000000001,-3.2,-4.5
1698415581732.0,16,0.0,-0.30000000000000004,-0.2,0.0,7.0,6.0,42.6,-3.9,-3.7000000000000006
1698415581748.0,16,-0.1,-0.30000000000000004,-0.1,-0.1,7.1000000000000005,6.0,42.1,-3.2,-3.4
1698415581765.0,16,-0.1,-0.30000000000000004,-0.2,-0.1,7.2,5.9,41.800000000000004,-2.7,-3.4
1698415581782.0,16,-0.1,-0.1,-0.2,-0.1,7.4,5.800000000000001,40.9,-2.0,-3.4
1698415581798.0,16,0.0,-0.1,-0.1,0.0,7.5,5.800000000000001,40.3,-1.2000000000000002,-3.5
1698415581816.0,16,0.0,-0.1,0.0,0.0,7.6000000000000005,5.800000000000001,40.5,-0.8,-3.5
1698415581832.0,16,0.0,-0.1,-0.1,0.0,7.6000000000000005,5.7,40.8,0.8,-3.2
1698415581849.0,16,-0.1,-0.1,-0.1,-0.1,7.7,5.5,41.1,1.4,-2.9
1698415581865.0,16,-0.1,-0.2,-0.2,-0.1,7.7,5.4,41.2,1.7,-2.3000000000000003
1698415581882.0,16,-0.1,-0.30000000000000004,-0.2,-0.1,7.7,5.2,41.800000000000004,1.9,-1.5000000000000002
1698415581899.0,16,-0.2,-0.30000000000000004,-0.2,-0.2,7.7,5.2,42.0,2.1999999999999997,-1.6
1698415581917.0,16,-0.30000000000000004,-0.4,-0.2,-0.30000000000000004,7.7,5.0,42.7,2.8,-1.2000000000000002
1698415581932.0,16,-0.1,-0.4,-0.30000000000000004,-0.2,7.7,4.800000000000001,43.800000000000004,3.1,-1.2000000000000002
1698415581949.0,16,-0.2,-0.30000000000000004,-0.2,-0.2,7.9,4.800000000000001,44.6,2.0,-0.7
1698415581966.0,16,-0.2,-0.30000000000000004,-0.2,-0.30000000000000004,8.0,4.7,45.1,2.4000000000000004,-0.6000000000000001
1698415581982.0,16,-0.2,-0.2,-0.30000000000000004,-0.30000000000000004,8.1,4.5,46.1,1.3,0.30000000000000004
1698415581999.0,16,-0.2,-0.7000000000000001,-0.2,-0.30000000000000004,7.7,4.4,46.300000000000004,0.0,-0.7
1698415582015.0,16,-0.30000000000000004,-0.30000000000000004,-0.30000000000000004,-0.30000000000000004,8.1,4.3,46.5,0.6000000000000001,-1.0
1698415582032.0,16,-0.2,-0.1,-0.5,-0.2,8.4,4.0,47.2,-1.0,-0.7
1698415582048.0,16,-0.1,-0.2,-0.4,-0.2,8.4,3.9000000000000004,47.6,-3.8,-0.5
1698415582066.0,16,-0.1,-0.30000000000000004,-0.30000000000000004,-0.2,8.3,3.9000000000000004,47.900000000000006,-5.500000000000001,-1.0
1698415582083.0,16,-0.2,-0.6000000000000001,-0.4,-0.2,8.1,3.6,47.7,-8.0,-2.8
1698415582099.0,16,0.1,0.1,-0.4,0.0,8.8,3.5,47.5,-11.6,-2.6
1698415582116.0,16,0.1,0.0,-0.4,0.1,8.700000000000001,3.3000000000000003,48.7,-12.100000000000001,-2.9
1698415582133.0,16,0.2,-0.30000000000000004,-0.4,0.2,8.6,3.3000000000000003,48.50000000000001,-11.8,-3.1
1698415582148.0,16,0.30000000000000004,-0.30000000000000004,-0.4,0.2,8.6,3.2,48.2,-9.4,-4.1000000000000005
1698415582166.0,16,0.30000000000000004,-0.2,-0.30000000000000004,0.2,8.700000000000001,3.1,48.2,-7.699999999999999,-4.300000000000001
1698415582182.0,16,0.30000000000000004,-0.1,-0.30000000000000004,0.30000000000000004,8.8,3.0,49.4,-4.1000000000000005,-4.3999999999999995
1698415582198.0,16,0.2,-0.30000000000000004,-0.4,0.30000000000000004,8.8,2.9000000000000004,50.300000000000004,-0.6000000000000001,-5.2
1698415582215.0,16,0.2,-0.2,-0.5,0.2,8.9,2.5,50.9,0.5,-5.2
1698415582233.0,16,0.2,-0.2,-0.5,0.1,8.9,2.4000000000000004,51.400000000000006,0.8,-4.9
1698415582248.0,16,0.0,-0.30000000000000004,-0.5,-0.1,8.9,2.2,50.4,-0.8,-5.4
1698415582265.0,16,-0.1,-0.2,-0.4,-0.2,9.0,2.1,49.9,-3.9,-4.7
1698415582282.0,16,0.0,-0.30000000000000004,-0.4,-0.1,8.9,2.1,49.1,-5.6,-4.300000000000001
1698415582299.0,16,0.1,-0.4,-0.2,0.0,8.9,2.1,48.1,-7.1000000000000005,-4.3999999999999995
1698415582315.0,16,0.2,-0.5,-0.30000000000000004,0.1,8.8,2.0,47.5,-8.200000000000001,-4.300000000000001
1698415582333.0,16,0.4,-0.30000000000000004,-0.2,0.2,9.0,1.9000000000000001,46.300000000000004,-9.0,-4.300000000000001
1698415582349.0,16,0.4,-0.2,-0.2,0.30000000000000004,9.1,1.7000000000000002,45.0,-10.1,-3.7000000000000006
1698415582365.0,16,0.5,-0.30000000000000004,-0.1,0.30000000000000004,9.1,1.8,43.800000000000004,-10.5,-4.0
1698415582383.0,16,0.5,-0.8,-0.1,0.30000000000000004,8.6,1.7000000000000002,41.800000000000004,-8.9,-4.6000000000000005
1698415582399.0,16,0.5,-0.8,0.0,0.5,9.3,1.5,36.800000000000004,-9.700000000000001,-5.4
1698415582415.0,16,0.6000000000000001,0.30000000000000004,0.0,0.5,9.700000000000001,1.5,36.9,-8.9,-5.6
1698415582432.0,16,0.5,0.2,-0.1,0.4,9.600000000000001,1.3,39.9,-7.1000000000000005,-5.2
1698415582448.0,16,0.5,-0.30000000000000004,-0.1,0.30000000000000004,9.200000000000001,1.2000000000000002,39.00000000000001,-6.6000000000000005,-6.000000000000001
1698415582465.0,16,0.5,-0.2,-0.2,0.30000000000000004,9.200000000000001,1.0,35.7,-4.1000000000000005,-5.6
1698415582482.0,16,0.4,-0.2,-0.1,0.30000000000000004,9.3,1.0,33.7,-1.8,-5.7
1698415582498.0,16,0.30000000000000004,-0.4,0.0,0.0,9.1,1.0,26.6,5.2,-6.7
1698415582522.0,16,0.30000000000000004,0.6000000000000001,-0.1,0.0,10.100000000000001,0.9,26.0,7.699999999999999,-6.000000000000001
1698415582532.0,16,0.2,0.30000000000000004,0.0,0.0,9.8,0.9,25.3,7.500000000000001,-5.8
1698415582548.0,16,0.0,-0.2,0.2,-0.2,9.200000000000001,1.0,21.400000000000002,12.4,-5.2
1698415582565.0,16,0.0,-0.2,0.2,-0.30000000000000004,9.3,1.0,18.400000000000002,16.900000000000002,-5.1
1698415582582.0,16,0.1,0.30000000000000004,0.30000000000000004,-0.2,9.8,1.0,15.299999999999999,18.8,-6.6000000000000005
1698415582598.0,16,0.0,0.2,0.2,-0.30000000000000004,9.700000000000001,0.9,14.0,17.8,-6.8
1698415582616.0,16,0.0,0.5,0.30000000000000004,-0.4,10.0,0.9,10.5,18.5,-7.400000000000001
1698415582632.0,16,0.0,0.6000000000000001,0.30000000000000004,-0.4,10.200000000000001,1.0,10.0,17.9,-7.400000000000001
1698415582649.0,16,-0.1,0.30000000000000004,0.2,-0.5,9.8,0.8,10.1,18.2,-7.400000000000001
1698415582665.0,16,-0.30000000000000004,0.1,-0.2,-0.7000000000000001,9.700000000000001,0.4,8.600000000000001,18.3,-6.7
1698415582682.0,16,-0.30000000000000004,0.1,-0.30000000000000004,-0.8,9.600000000000001,0.30000000000000004,7.500000000000001,18.5,-6.3
1698415582700.0,16,-0.4,-0.1,-0.6000000000000001,-0.9,9.5,-0.1,4.800000000000001,22.1,-5.2
1698415582715.0,16,-0.5,0.1,-0.8,-1.0,9.600000000000001,-0.30000000000000004,2.1,22.900000000000002,-4.300000000000001
1698415582732.0,16,-0.6000000000000001,0.1,-0.9,-1.1,9.700000000000001,-0.4,1.0999999999999999,24.000000000000004,-4.6000000000000005
1698415582749.0,16,-0.7000000000000001,0.4,-1.1,-1.2000000000000002,9.9,-0.6000000000000001,0.0,23.5,-4.0
1698415582765.0,16,-0.8,0.5,-1.1,-1.3,10.0,-0.6000000000000001,0.6000000000000001,19.0,-4.7
1698415582782.0,16,-0.8,0.4,-1.2000000000000002,-1.3,9.9,-0.7000000000000001,1.4,17.200000000000003,-5.6
1698415582799.0,16,-0.6000000000000001,0.4,-1.0,-1.2000000000000002,9.9,-0.6000000000000001,0.9,12.200000000000001,-7.6
1698415582815.0,16,-0.30000000000000004,0.5,-0.8,-0.9,10.0,-0.30000000000000004,1.0999999999999999,11.000000000000002,-9.3
1698415582832.0,16,-0.30000000000000004,0.30000000000000004,-0.9,-0.9,9.9,-0.4,1.0999999999999999,11.5,-9.700000000000001
1698415582849.0,16,-0.1,0.0,-0.8,-0.8,9.5,-0.4,-0.2,14.900000000000002,-9.600000000000001
1698415582866.0,16,-0.2,-0.2,-0.7000000000000001,-0.9,9.3,-0.30000000000000004,-1.3,17.9,-9.0
1698415582882.0,16,-0.30000000000000004,-0.6000000000000001,-0.8,-1.1,9.0,-0.30000000000000004,-3.5,22.000000000000004,-7.6
1698415582899.0,16,-0.4,-0.1,-0.9,-1.2000000000000002,9.5,-0.4,-5.500000000000001,21.700000000000003,-5.6
1698415582917.0,16,-0.7000000000000001,-0.2,-0.7000000000000001,-1.5,9.3,-0.30000000000000004,-4.7,16.6,-5.300000000000001
1698415582931.0,16,-0.8,-0.30000000000000004,-1.0,-1.6,9.3,-0.7000000000000001,-4.3999999999999995,15.2,-5.0
1698415582948.0,16,-0.9,-0.2,-1.1,-1.7000000000000002,9.3,-0.7000000000000001,-5.7,9.4,-3.4
1698415582965.0,16,-0.8,-0.2,-1.1,-1.7000000000000002,9.3,-0.7000000000000001,-7.400000000000001,5.300000000000001,-1.3
1698415582983.0,16,-0.5,-0.1,-1.0,-1.4000000000000001,9.4,-0.5,-8.700000000000001,3.1,0.2
1698415583000.0,16,-0.4,-0.1,-0.9,-1.2000000000000002,9.4,-0.5,-8.799999999999999,2.8,0.9
1698415583015.0,16,-0.30000000000000004,-0.2,-0.9,-1.1,9.3,-0.4,-8.5,2.0,2.1
1698415583032.0,16,-0.2,-0.2,-0.9,-1.1,9.3,-0.30000000000000004,-8.4,1.9,2.4000000000000004
1698415583049.0,16,-0.2,-0.2,-0.9,-1.0,9.3,-0.30000000000000004,-7.699999999999999,2.1999999999999997,2.7
1698415583065.0,16,-0.30000000000000004,-0.1,-1.0,-1.1,9.4,-0.4,-6.9,2.1,2.6
1698415583082.0,16,-0.30000000000000004,-0.1,-1.0,-1.1,9.4,-0.4,-6.1000000000000005,2.1,1.8
1698415583098.0,16,-0.5,-0.1,-1.1,-1.3,9.3,-0.5,-6.000000000000001,1.7,1.6
1698415583115.0,16,-0.8,-0.1,-1.2000000000000002,-1.7000000000000002,9.4,-0.6000000000000001,-5.4,0.8,1.0
1698415583131.0,16,-1.2000000000000002,-0.2,-1.3,-1.8,9.4,-0.7000000000000001,-5.0,-1.4,1.3
1698415583148.0,16,-1.2000000000000002,0.0,-1.3,-2.0,9.5,-0.8,-4.6000000000000005,-3.6,1.6
1698415583165.0,16,-1.0,0.0,-1.4000000000000001,-1.8,9.5,-0.9,-1.3,-12.700000000000001,1.5000000000000002
1698415583182.0,16,-0.6000000000000001,-0.4,-1.6,-1.4000000000000001,9.1,-1.0,1.2000000000000002,-19.6,3.8
1698415583198.0,16,-0.5,-0.4,-1.7000000000000002,-1.4000000000000001,9.1,-1.1,2.0,-22.000000000000004,4.300000000000001
1698415583215.0,16,-0.5,0.30000000000000004,-1.3,-1.3,9.8,-0.7000000000000001,-0.8,-24.400000000000002,5.300000000000001
1698415583232.0,16,-0.2,0.9,-0.4,-1.0,10.4,0.1,-2.9,-24.200000000000003,5.300000000000001
1698415583248.0,16,0.8,1.8,-0.2,0.1,11.3,0.4,-0.7,-11.5,7.1000000000000005
1698415583265.0,16,0.7000000000000001,0.7000000000000001,-1.0,0.0,10.200000000000001,-0.4,8.9,-2.7,6.5
1698415583282.0,16,0.4,0.4,-0.9,-0.30000000000000004,9.9,-0.4,6.5,-2.1,8.200000000000001
1698415583299.0,16,0.4,1.2000000000000002,-0.2,-0.2,10.700000000000001,0.30000000000000004,3.2,-3.7000000000000006,10.700000000000001
1698415583316.0,16,0.4,1.3,-0.7000000000000001,-0.2,10.8,-0.30000000000000004,7.0,-6.4,11.9
1698415583332.0,16,-0.5,0.6000000000000001,-0.9,-1.1,10.200000000000001,-0.5,10.0,-14.900000000000002,8.9
1698415583349.0,16,-0.9,0.5,-0.9,-1.5,10.100000000000001,-0.5,10.8,-19.3,7.0
1698415583366.0,16,-1.1,0.9,-0.8,-1.7000000000000002,10.4,-0.4,9.9,-24.200000000000003,6.7
1698415583382.0,16,-0.7000000000000001,1.0,-0.5,-1.3,10.600000000000001,-0.1,9.1,-25.8,7.300000000000001
1698415583400.0,16,-0.1,1.0,0.1,-0.6000000000000001,10.5,0.5,8.3,-29.900000000000006,5.9
1698415583415.0,16,0.1,0.8,0.30000000000000004,-0.4,10.3,0.7000000000000001,8.5,-40.1,6.2
1698415583432.0,16,0.1,0.0,0.9,-0.4,9.600000000000001,1.2000000000000002,6.6000000000000005,-46.1,4.300000000000001
1698415583449.0,16,0.0,-0.4,1.0,-0.5,9.200000000000001,1.4000000000000001,6.3,-45.800000000000004,3.2
1698415583465.0,16,-0.30000000000000004,-0.9,1.2000000000000002,-0.8,8.700000000000001,1.5,4.800000000000001,-42.5,-0.8
1698415583482.0,16,-0.6000000000000001,-1.2000000000000002,1.4000000000000001,-1.1,8.4,1.8,2.9,-38.2,-2.9
1698415583499.0,16,-0.5,-1.2000000000000002,1.4000000000000001,-0.9,8.4,1.7000000000000002,2.8,-35.1,-1.3
1698415583515.0,16,0.6000000000000001,-0.9,1.3,0.2,8.700000000000001,1.7000000000000002,2.0,-29.400000000000002,4.9
1698415583532.0,16,1.5,-0.6000000000000001,1.2000000000000002,1.0,9.0,1.5,3.0000000000000004,-24.000000000000004,10.9
1698415583549.0,16,1.5,-0.5,1.1,1.1,9.0,1.5,4.2,-22.2,13.3
1698415583565.0,16,1.2000000000000002,-0.5,0.8,0.8,9.1,1.1,6.5,-17.0,16.2
1698415583582.0,16,0.6000000000000001,-0.2,0.8,0.30000000000000004,9.4,1.1,7.2,-10.600000000000001,17.5
1698415583600.0,16,0.30000000000000004,0.0,0.6000000000000001,0.1,9.5,0.9,8.0,-8.600000000000001,17.3
1698415583615.0,16,0.0,-0.1,0.5,-0.1,9.4,0.8,7.2,-7.400000000000001,16.400000000000002
1698415583632.0,16,0.30000000000000004,-0.5,0.5,0.1,9.1,0.7000000000000001,6.9,-9.4,13.9
1698415583649.0,16,0.30000000000000004,-0.6000000000000001,0.30000000000000004,0.2,8.9,0.6000000000000001,6.5,-10.5,12.700000000000001
1698415583665.0,16,0.4,-0.9,0.30000000000000004,0.4,8.700000000000001,0.5,6.1000000000000005,-12.6,11.2
1698415583682.0,16,0.6000000000000001,-0.8,0.1,0.5,8.8,0.30000000000000004,5.500000000000001,-11.5,9.5
1698415583700.0,16,0.7000000000000001,-0.5,0.1,0.7000000000000001,9.0,0.30000000000000004,5.1,-8.5,8.1
1698415583715.0,16,0.7000000000000001,-0.30000000000000004,0.0,0.7000000000000001,9.200000000000001,0.2,5.2,-6.3,7.300000000000001
1698415583732.0,16,0.6000000000000001,-0.30000000000000004,0.0,0.7000000000000001,9.3,0.1,4.5,-2.1999999999999997,6.4
1698415583749.0,16,0.6000000000000001,-0.30000000000000004,0.0,0.6000000000000001,9.200000000000001,0.2,4.0,-0.9,6.000000000000001
1698415583765.0,16,0.30000000000000004,-0.4,-0.2,0.4,9.200000000000001,0.0,2.8,1.0999999999999999,4.800000000000001
1698415583782.0,16,0.30000000000000004,-0.4,-0.1,0.4,9.1,0.1,0.9,3.0000000000000004,4.2
1698415583799.0,16,0.30000000000000004,-0.5,-0.1,0.4,9.0,0.1,0.4,3.6,3.9
1698415583816.0,16,0.30000000000000004,-0.6000000000000001,-0.1,0.4,8.9,0.0,0.30000000000000004,3.5,3.1
1698415583832.0,16,0.4,-0.5,-0.2,0.6000000000000001,9.0,-0.1,0.2,1.9,1.5000000000000002
1698415583848.0,16,0.9,0.0,-0.5,1.0,9.5,-0.30000000000000004,0.5,1.8,0.1
1698415583865.0,16,0.9,-0.1,-0.4,1.1,9.4,-0.30000000000000004,3.1,4.7,-3.9
1698415583882.0,16,0.5,-0.4,-0.8,0.6000000000000001,9.1,-0.6000000000000001,3.8,10.9,-7.0
1698415583898.0,16,0.1,-0.5,-0.8,0.2,9.0,-0.7000000000000001,1.0999999999999999,15.000000000000002,-7.8
1698415583916.0,16,0.0,-0.5,-0.7000000000000001,0.1,9.0,-0.6000000000000001,0.5,16.0,-8.200000000000001
1698415583932.0,16,-0.1,-0.6000000000000001,-0.7000000000000001,0.0,8.9,-0.6000000000000001,0.9,17.200000000000003,-8.799999999999999
1698415583948.0,16,0.0,-0.6000000000000001,-0.7000000000000001,0.0,8.9,-0.6000000000000001,1.2000000000000002,15.2,-9.5
1698415583965.0,16,0.1,-0.4,-0.8,0.1,9.200000000000001,-0.7000000000000001,1.4,13.4,-9.600000000000001
1698415583983.0,16,0.30000000000000004,-0.1,-0.9,0.2,9.4,-0.8,1.0999999999999999,10.700000000000001,-10.700000000000001
1698415583999.0,16,0.5,0.2,-0.8,0.4,9.8,-0.7000000000000001,0.1,9.1,-11.700000000000001
1698415584015.0,16,0.6000000000000001,0.4,-0.7000000000000001,0.5,9.9,-0.6000000000000001,-0.8,8.5,-12.000000000000002
1698415584032.0,16,0.6000000000000001,0.5,-0.6000000000000001,0.5,10.0,-0.6000000000000001,-0.5,8.600000000000001,-12.8
1698415584049.0,16,0.6000000000000001,0.4,-0.6000000000000001,0.5,9.9,-0.6000000000000001,0.9,11.8,-12.100000000000001
1698415584066.0,16,0.6000000000000001,0.4,-0.9,0.5,9.9,-0.9,2.3000000000000003,14.3,-11.700000000000001
1698415584081.0,16,0.6000000000000001,0.5,-1.4000000000000001,0.4,10.0,-1.4000000000000001,4.0,24.000000000000004,-11.000000000000002
1698415584098.0,16,0.6000000000000001,0.5,-1.6,0.4,10.0,-1.6,4.6000000000000005,29.200000000000003,-10.700000000000001
1698415584115.0,16,0.7000000000000001,0.30000000000000004,-1.9000000000000001,0.5,9.8,-1.9000000000000001,6.2,37.800000000000004,-9.3
1698415584132.0,16,0.4,1.0,-1.9000000000000001,0.1,10.600000000000001,-2.0,0.1,43.7,-6.4
1698415584148.0,16,-1.1,2.8000000000000003,0.1,-1.4000000000000001,12.3,0.1,-13.200000000000001,38.7,-0.9
1698415584165.0,16,-2.0,2.7,0.4,-2.2,12.3,0.4,-7.699999999999999,22.1,-0.7
1698415584182.0,16,-1.3,0.9,0.2,-1.6,10.5,0.2,2.1,-6.000000000000001,0.30000000000000004
1698415584199.0,16,0.8,0.9,-0.5,0.5,10.5,-0.6000000000000001,-1.4,10.0,-1.0
1698415584215.0,16,1.3,0.7000000000000001,-0.7000000000000001,1.0,10.3,-0.7000000000000001,-3.3000000000000003,10.0,-4.1000000000000005
1698415584233.0,16,1.0,0.5,-0.1,0.6000000000000001,10.100000000000001,-0.1,-2.6,14.900000000000002,-8.4
1698415584249.0,16,0.6000000000000001,0.2,-0.4,-0.1,9.4,-0.7000000000000001,1.3,21.6,-6.000000000000001
1698415584265.0,16,0.1,-0.5,-0.8,-0.30000000000000004,9.1,-0.8,2.1,21.900000000000002,-3.5
1698415584283.0,16,0.1,-0.9,-0.6000000000000001,-0.2,8.700000000000001,-0.7000000000000001,2.1999999999999997,18.3,2.3000000000000003
1698415584299.0,16,0.1,-1.0,-0.4,-0.2,8.6,-0.5,2.1999999999999997,15.9,3.3000000000000003
1698415584315.0,16,0.0,-0.7000000000000001,0.1,-0.4,8.9,0.0,2.3000000000000003,12.5,2.1
1698415584332.0,16,-1.0,0.6000000000000001,1.1,-1.3,10.200000000000001,1.0,-1.8,16.6,2.1
1698415584348.0,16,-1.6,1.2000000000000002,1.5,-1.9000000000000001,10.8,1.4000000000000001,-3.0000000000000004,15.299999999999999,4.5
1698415584365.0,16,-1.3,0.9,1.6,-1.6,10.5,1.6,-0.5,10.700000000000001,4.2
1698415584382.0,16,1.0,-0.6000000000000001,1.2000000000000002,0.7000000000000001,9.0,1.2000000000000002,3.7000000000000006,12.9,2.3000000000000003
1698415584399.0,16,1.9000000000000001,-0.8,1.3,1.6,8.8,1.3,2.9,19.700000000000003,-1.4
1698415584415.0,16,0.9,-0.5,1.4000000000000001,0.6000000000000001,9.0,1.4000000000000001,1.7,25.0,-4.5
1698415584432.0,16,0.4,-0.6000000000000001,1.5,0.1,9.0,1.5,1.0999999999999999,28.500000000000004,-4.1000000000000005
1698415584448.0,16,-0.7000000000000001,-0.7000000000000001,1.5,-1.0,8.8,1.5,-1.2000000000000002,35.4,-3.2
1698415584465.0,16,-1.0,-0.7000000000000001,1.5,-1.3,8.9,1.5,-2.1,36.5,-2.9
1698415584482.0,16,-1.0,-0.6000000000000001,1.1,-1.4000000000000001,9.0,1.1,-1.4,33.400000000000006,-3.5
1698415584499.0,16,-0.8,-0.6000000000000001,0.9,-1.2000000000000002,8.9,1.0,0.8,28.700000000000003,-5.7
1698415584515.0,16,-0.4,-0.5,0.6000000000000001,-0.7000000000000001,9.0,0.6000000000000001,1.5000000000000002,27.6,-7.1000000000000005
1698415584532.0,16,-0.30000000000000004,0.1,0.6000000000000001,-0.7000000000000001,9.600000000000001,0.6000000000000001,3.1,22.7,-10.4
1698415584548.0,16,-0.4,0.30000000000000004,0.6000000000000001,-0.9,9.9,0.6000000000000001,5.500000000000001,16.3,-12.200000000000001
1698415584565.0,16,-0.5,0.2,0.5,-0.9,9.8,0.5,6.8,14.4,-12.5
1698415584583.0,16,-0.30000000000000004,-0.1,0.4,-0.8,9.4,0.4,8.0,13.5,-13.9
1698415584599.0,16,-0.2,-0.4,0.30000000000000004,-0.8,9.1,0.2,6.8,13.4,-15.299999999999999
1698415584615.0,16,-0.30000000000000004,-0.5,0.30000000000000004,-0.9,9.0,0.2,5.6,13.9,-16.0
1698415584632.0,16,-0.4,-0.5,0.2,-1.1,9.0,0.1,2.8,14.100000000000001,-15.7
1698415584648.0,16,-0.6000000000000001,-0.5,0.30000000000000004,-1.3,9.0,0.2,2.0,13.8,-14.900000000000002
1698415584665.0,16,-0.5,-0.5,0.2,-1.3,9.0,0.1,3.0000000000000004,13.0,-13.200000000000001
1698415584681.0,16,-0.5,-0.4,0.0,-1.3,9.1,-0.1,3.3000000000000003,11.8,-11.8
1698415584698.0,16,-0.8,-0.2,-0.1,-1.6,9.3,-0.30000000000000004,3.1,7.400000000000001,-10.5
1698415584715.0,16,-0.9,-0.2,-0.2,-1.8,9.3,-0.4,2.5,1.8,-7.6
1698415584732.0,16,-1.0,-0.2,-0.30000000000000004,-1.8,9.3,-0.4,2.1999999999999997,-1.2000000000000002,-6.000000000000001
1698415584748.0,16,-0.7000000000000001,-0.2,-0.30000000000000004,-1.6,9.3,-0.4,1.3,-5.9,-2.1
1698415584765.0,16,-0.6000000000000001,-0.30000000000000004,-0.2,-1.5,9.200000000000001,-0.4,1.6,-8.799999999999999,2.3000000000000003
1698415584782.0,16,-0.5,-0.30000000000000004,-0.2,-1.4000000000000001,9.1,-0.4,1.9,-10.600000000000001,4.7
1698415584799.0,16,-0.5,-0.4,-0.30000000000000004,-1.4000000000000001,9.1,-0.5,2.3000000000000003,-15.000000000000002,8.200000000000001
1698415584817.0,16,-0.6000000000000001,-0.2,-0.4,-1.4000000000000001,9.3,-0.6000000000000001,0.6000000000000001,-19.1,10.0
1698415584832.0,16,-0.6000000000000001,0.0,-0.5,-1.4000000000000001,9.5,-0.6000000000000001,-0.5,-20.5,10.9
1698415584848.0,16,-0.5,0.0,-0.4,-1.3,9.5,-0.6000000000000001,-2.7,-21.900000000000002,11.700000000000001
1698415584865.0,16,-0.4,0.0,-0.4,-1.1,9.5,-0.5,-3.3000000000000003,-21.6,12.000000000000002
1698415584882.0,16,-0.2,0.0,-0.4,-0.9,9.5,-0.6000000000000001,-3.8,-21.900000000000002,12.9
1698415584899.0,16,-0.1,0.1,-0.5,-0.8,9.600000000000001,-0.6000000000000001,-4.300000000000001,-21.8,13.200000000000001
1698415584915.0,16,-0.2,0.1,-0.5,-1.0,9.700000000000001,-0.6000000000000001,-4.0,-20.8,12.700000000000001
1698415584933.0,16,-0.6000000000000001,0.1,-0.5,-1.3,9.600000000000001,-0.6000000000000001,-3.1,-21.5,12.4
1698415584949.0,16,-0.7000000000000001,0.1,-0.7000000000000001,-1.3,9.600000000000001,-0.8,-1.7,-24.7,14.0
1698415584965.0,16,-0.7000000000000001,0.0,-0.7000000000000001,-1.2000000000000002,9.600000000000001,-0.8,-1.5000000000000002,-28.8,13.4
1698415584983.0,16,-0.30000000000000004,-0.2,-0.8,-0.9,9.3,-0.9,-1.0999999999999999,-30.7,12.9
1698415584999.0,16,-0.2,-0.2,-1.4000000000000001,-0.7000000000000001,9.3,-1.4000000000000001,-0.5,-34.6,11.6
1698415585015.0,16,-0.2,-0.2,-1.7000000000000002,-0.7000000000000001,9.3,-1.8,-0.2,-37.7,10.700000000000001
1698415585032.0,16,-0.5,0.0,-2.0,-0.9,9.5,-2.1,-1.4,-44.00000000000001,7.400000000000001
1698415585048.0,16,0.0,1.2000000000000002,-1.1,-0.5,10.700000000000001,-1.2000000000000002,-10.4,-50.4,2.1999999999999997
1698415585065.0,16,0.9,1.7000000000000002,0.5,0.5,11.3,0.5,-13.5,-42.0,-1.0
1698415585082.0,16,0.9,1.3,0.7000000000000001,0.5,10.9,0.7000000000000001,-9.600000000000001,-31.7,-1.0
1698415585098.0,16,0.2,0.7000000000000001,0.4,-0.2,10.3,0.5,-4.300000000000001,-28.200000000000003,-0.6000000000000001
1698415585115.0,16,-0.1,0.7000000000000001,-0.30000000000000004,-0.6000000000000001,10.3,-0.30000000000000004,-3.9,-29.400000000000002,0.30000000000000004
1698415585131.0,16,-0.2,0.7000000000000001,-0.5,-0.7000000000000001,10.200000000000001,-0.4,-3.5,-29.900000000000006,0.4
1698415585149.0,16,-0.4,0.2,-0.6000000000000001,-0.9,9.700000000000001,-0.5,-2.0,-36.4,-0.5
1698415585165.0,16,-0.30000000000000004,-0.30000000000000004,-0.4,-0.8,9.3,-0.30000000000000004,-1.2000000000000002,-40.9,-4.0
1698415585182.0,16,-0.1,-0.1,-0.4,-0.6000000000000001,9.4,-0.30000000000000004,-1.6,-41.300000000000004,-6.5
1698415585199.0,16,0.9,1.0,0.2,0.4,10.5,0.30000000000000004,-5.4,-41.2,-11.8
1698415585216.0,16,1.3,1.1,1.1,0.8,10.700000000000001,1.2000000000000002,-3.2,-33.0,-13.100000000000001
1698415585232.0,16,0.8,0.30000000000000004,0.9,0.30000000000000004,9.9,1.0,2.3000000000000003,-23.1,-11.700000000000001
1698415585248.0,16,0.4,0.0,0.8,-0.2,9.5,1.0,3.2,-17.1,-10.9
1698415585265.0,16,-0.2,-0.2,0.8,-0.8,9.3,0.9,4.800000000000001,-6.9,-7.0
1698415585283.0,16,-0.4,-0.4,0.6000000000000001,-1.0,9.1,0.7000000000000001,5.4,-3.4,-4.800000000000001
1698415585298.0,16,-0.4,-0.7000000000000001,0.9,-1.0,8.8,1.0,3.9,-3.4,-0.7
1698415585315.0,16,0.30000000000000004,-0.7000000000000001,1.2000000000000002,-0.30000000000000004,8.9,1.3,1.2000000000000002,-5.500000000000001,3.3000000000000003
1698415585332.0,16,0.9,-0.6000000000000001,1.3,0.30000000000000004,9.0,1.5,0.4,-6.4,5.300000000000001
1698415585349.0,16,1.0,-0.6000000000000001,1.4000000000000001,0.4,8.9,1.5,1.2000000000000002,-6.5,5.500000000000001
1698415585365.0,16,0.4,-0.7000000000000001,1.2000000000000002,-0.2,8.8,1.3,2.5,-6.000000000000001,4.2
1698415585381.0,16,0.1,-0.7000000000000001,1.1,-0.5,8.8,1.3,2.9,-10.3,3.1
1698415585398.0,16,-0.2,-0.4,1.0,-0.7000000000000001,9.1,1.1,2.3000000000000003,-12.8,3.3000000000000003
1698415585415.0,16,0.2,-0.1,1.1,-0.30000000000000004,9.5,1.3,0.8,-17.9,4.0
1698415585432.0,16,0.9,0.1,1.1,0.4,9.600000000000001,1.3,1.2000000000000002,-19.9,3.7000000000000006
1698415585448.0,16,1.1,-0.1,1.0,0.6000000000000001,9.5,1.2000000000000002,2.1999999999999997,-19.3,3.3000000000000003
1698415585465.0,16,0.9,0.0,0.9,0.5,9.600000000000001,1.0,3.1,-13.8,3.5
1698415585481.0,16,0.7000000000000001,0.2,0.8,0.30000000000000004,9.8,1.0,4.2,-7.1000000000000005,6.2
1698415585498.0,16,0.6000000000000001,0.30000000000000004,0.7000000000000001,0.0,9.700000000000001,0.8,5.0,-4.2,7.6
1698415585515.0,16,0.4,0.0,0.7000000000000001,0.0,9.600000000000001,0.8,5.0,0.0,11.4
1698415585531.0,16,0.30000000000000004,-0.1,0.6000000000000001,0.0,9.4,0.8,4.5,0.2,13.200000000000001
1698415585549.0,16,0.30000000000000004,-0.2,0.6000000000000001,0.0,9.4,0.7000000000000001,4.300000000000001,0.4,13.200000000000001
1698415585565.0,16,0.2,-0.4,0.4,-0.1,9.200000000000001,0.5,4.5,-0.5,12.700000000000001
1698415585582.0,16,0.2,-0.4,0.30000000000000004,-0.1,9.1,0.4,4.0,-1.9,11.5
1698415585599.0,16,0.1,-0.5,0.30000000000000004,-0.2,9.0,0.4,3.9,-2.3000000000000003,10.8
1698415585615.0,16,0.1,-0.5,0.1,-0.1,9.0,0.2,2.9,-2.7,9.600000000000001
1698415585632.0,16,0.1,-0.6000000000000001,0.2,-0.1,9.0,0.30000000000000004,2.1999999999999997,-2.5,8.600000000000001
1698415585649.0,16,0.0,-0.6000000000000001,0.1,-0.1,8.9,0.2,1.7,-2.5,8.1
1698415585665.0,16,0.0,-0.8,0.1,-0.2,8.700000000000001,0.1,-0.4,-2.7,7.400000000000001
1698415585682.0,16,0.0,-0.8,0.0,-0.2,8.700000000000001,0.0,-3.6,-3.6,8.1
1698415585698.0,16,0.1,-0.7000000000000001,0.0,0.0,8.9,0.1,-4.6000000000000005,-4.300000000000001,8.1
1698415585715.0,16,0.1,-0.5,-0.30000000000000004,0.1,9.0,-0.1,-5.2,-4.1000000000000005,8.0
1698415585732.0,16,0.1,-0.4,-0.4,0.1,9.1,-0.30000000000000004,-5.500000000000001,-3.1,7.8
1698415585749.0,16,0.2,-0.2,-0.5,0.2,9.3,-0.30000000000000004,-5.4,-3.4,7.2
1698415585765.0,16,0.5,0.2,-0.6000000000000001,0.5,9.700000000000001,-0.4,-5.2,-1.4,4.9
1698415585782.0,16,0.8,0.4,-0.5,0.8,9.9,-0.4,-3.8,1.4,1.5000000000000002
1698415585799.0,16,0.7000000000000001,0.4,-0.6000000000000001,0.7000000000000001,9.9,-0.4,-2.1,3.0000000000000004,-0.8
1698415585815.0,16,0.1,0.30000000000000004,-1.0,0.1,9.8,-0.8,1.0999999999999999,6.3,-4.1000000000000005
1698415585832.0,16,-0.30000000000000004,0.2,-1.1,-0.30000000000000004,9.700000000000001,-1.0,1.6,7.2,-5.4
1698415585849.0,16,-0.2,0.1,-1.1,-0.30000000000000004,9.600000000000001,-1.0,1.5000000000000002,7.0,-5.6
1698415585866.0,16,0.0,0.0,-0.9,0.0,9.5,-0.8,1.7,8.200000000000001,-5.4
1698415585882.0,16,0.30000000000000004,0.0,-0.8,0.2,9.5,-0.7000000000000001,2.5,10.5,-5.6
1698415585899.0,16,0.30000000000000004,-0.1,-0.8,0.30000000000000004,9.4,-0.7000000000000001,2.9,11.1,-5.7
1698415585915.0,16,0.5,-0.1,-0.9,0.4,9.5,-0.8,2.7,13.4,-5.6
1698415585932.0,16,0.6000000000000001,0.1,-0.9,0.5,9.600000000000001,-0.8,2.8,14.500000000000002,-6.000000000000001
1698415585948.0,16,0.6000000000000001,0.2,-0.8,0.4,9.700000000000001,-0.8,3.9,15.100000000000001,-6.6000000000000005
1698415585965.0,16,0.2,0.1,-1.1,0.1,9.600000000000001,-1.1,6.4,17.400000000000002,-8.700000000000001
1698415585982.0,16,0.0,0.0,-1.2000000000000002,-0.1,9.5,-1.3,6.5,20.0,-10.2
1698415585999.0,16,0.0,0.0,-1.3,-0.1,9.5,-1.3,6.4,20.7,-10.5
1698415586015.0,16,0.2,0.0,-1.4000000000000001,0.0,9.5,-1.4000000000000001,7.500000000000001,22.1,-10.2
1698415586032.0,16,0.30000000000000004,-0.1,-1.4000000000000001,0.0,9.5,-1.6,9.1,25.8,-9.700000000000001
1698415586048.0,16,0.30000000000000004,0.1,-1.5,0.0,9.600000000000001,-1.7000000000000002,6.6000000000000005,32.9,-7.6
1698415586065.0,16,-0.5,1.4000000000000001,-1.1,-0.7000000000000001,10.9,-1.2000000000000002,3.1,35.0,-5.4
1698415586082.0,16,-1.2000000000000002,1.5,-0.5,-1.5,11.0,-0.7000000000000001,4.0,24.6,-1.0
1698415586099.0,16,-0.7000000000000001,0.8,-0.30000000000000004,-1.0,10.4,-0.5,6.7,17.200000000000003,0.1
1698415586115.0,16,0.6000000000000001,0.4,-0.5,0.30000000000000004,10.0,-0.7000000000000001,6.8,20.6,-1.8
1698415586132.0,16,0.5,0.4,-1.0,0.2,9.9,-1.3,4.800000000000001,24.000000000000004,-8.200000000000001
1698415586148.0,16,0.1,0.1,-0.7000000000000001,-0.2,9.600000000000001,-1.0,4.800000000000001,23.2,-9.4
1698415586166.0,16,-0.1,0.1,-0.8,-0.4,9.600000000000001,-1.1,5.6,24.200000000000003,-8.200000000000001
1698415586182.0,16,-0.5,0.6000000000000001,-0.6000000000000001,-0.9,10.200000000000001,-0.9,4.2,21.900000000000002,-4.1000000000000005
1698415586199.0,16,-1.1,1.9000000000000001,0.1,-1.1,10.9,-0.6000000000000001,1.4,21.8,-0.5
1698415586215.0,16,-1.3,2.0,0.6000000000000001,-1.6,11.5,0.30000000000000004,-0.5,17.1,5.1
1698415586232.0,16,-0.2,0.30000000000000004,0.7000000000000001,-0.5,9.9,0.4,4.9,14.3,5.1
1698415586249.0,16,1.0,-0.6000000000000001,0.6000000000000001,0.6000000000000001,9.0,0.30000000000000004,5.1,14.4,3.2
1698415586265.0,16,1.7000000000000002,-0.5,0.8,1.3,9.1,0.5,3.1,17.0,-1.7
1698415586282.0,16,1.2000000000000002,-0.5,0.9,0.9,9.0,0.5,2.5,21.200000000000003,-2.7
1698415586299.0,16,0.4,-1.0,1.1,0.1,8.6,0.8,1.2000000000000002,28.400000000000002,-2.0
1698415586315.0,16,0.1,-1.1,1.3,-0.2,8.4,0.9,-0.5,32.4,-2.0
1698415586332.0,16,-0.5,-0.7000000000000001,1.4000000000000001,-0.8,8.9,1.1,-5.0,40.0,-3.4
1698415586348.0,16,-1.0,-0.2,1.5,-1.3,9.3,1.2000000000000002,-6.5,39.50000000000001,-5.7
1698415586365.0,16,-0.9,-0.2,1.4000000000000001,-1.3,9.3,1.2000000000000002,-6.1000000000000005,37.300000000000004,-6.4
1698415586382.0,16,-0.4,-0.4,1.4000000000000001,-0.8,9.1,1.2000000000000002,-6.1000000000000005,33.2,-7.1000000000000005
1698415586398.0,16,-0.2,-0.4,1.3,-0.6000000000000001,9.200000000000001,1.1,-6.3,31.8,-7.9
1698415586415.0,16,-0.30000000000000004,-0.2,1.2000000000000002,-0.7000000000000001,9.4,1.0,-5.4,28.500000000000004,-9.0
1698415586433.0,16,-0.6000000000000001,-0.1,0.9,-1.0,9.4,0.7000000000000001,-2.9,24.000000000000004,-9.600000000000001
1698415586449.0,16,-0.7000000000000001,0.0,0.8,-1.2000000000000002,9.5,0.6000000000000001,-1.4,19.200000000000003,-9.700000000000001
1698415586465.0,16,-0.5,0.2,0.5,-1.0,9.8,0.30000000000000004,-0.9,18.0,-10.3
1698415586482.0,16,-0.30000000000000004,0.2,0.5,-0.9,9.700000000000001,0.30000000000000004,-0.5,16.1,-11.4
1698415586498.0,16,-0.5,0.1,0.4,-1.1,9.600000000000001,0.2,-0.9,15.299999999999999,-11.9
1698415586515.0,16,-0.5,0.0,0.5,-1.1,9.5,0.30000000000000004,-1.5000000000000002,15.2,-11.8
1698415586532.0,16,-0.5,-0.2,0.5,-1.2000000000000002,9.3,0.30000000000000004,-1.8,15.399999999999999,-9.9
1698415586548.0,16,-0.4,-0.5,0.5,-1.1,9.1,0.30000000000000004,-1.6,13.700000000000001,-7.6
1698415586565.0,16,-0.30000000000000004,-0.5,0.4,-1.0,9.0,0.2,-1.4,12.9,-6.4
1698415586582.0,16,-0.4,-0.4,0.30000000000000004,-1.1,9.1,0.2,-1.2000000000000002,9.4,-4.800000000000001
1698415586598.0,16,-0.5,-0.30000000000000004,0.4,-1.3,9.200000000000001,0.2,-1.6,2.8,-4.9
1698415586615.0,16,-0.6000000000000001,-0.30000000000000004,0.4,-1.4000000000000001,9.200000000000001,0.2,-1.6,0.1,-5.1
1698415586632.0,16,-0.6000000000000001,-0.4,0.4,-1.4000000000000001,9.1,0.2,-1.0999999999999999,-5.1,-4.6000000000000005
1698415586648.0,16,-0.6000000000000001,-0.4,0.2,-1.4000000000000001,9.1,0.1,-0.30000000000000004,-10.3,-4.0
1698415586665.0,16,-0.6000000000000001,-0.2,0.2,-1.4000000000000001,9.200000000000001,0.1,-0.2,-11.9,-3.3000000000000003
1698415586682.0,16,-0.5,-0.2,0.2,-1.3,9.3,0.1,0.6000000000000001,-14.800000000000002,-1.2000000000000002
1698415586700.0,16,-0.2,-0.2,0.0,-1.1,9.3,-0.2,2.1,-16.3,0.9
1698415586715.0,16,-0.1,-0.2,-0.2,-1.0,9.200000000000001,-0.30000000000000004,2.7,-16.8,2.3000000000000003
1698415586732.0,16,-0.1,-0.2,-0.30000000000000004,-0.9,9.3,-0.4,3.1,-17.8,5.1
1698415586748.0,16,-0.30000000000000004,-0.1,-0.30000000000000004,-1.1,9.4,-0.4,2.8,-19.700000000000003,7.8
1698415586765.0,16,-0.30000000000000004,-0.1,-0.30000000000000004,-1.1,9.4,-0.5,2.5,-21.0,9.200000000000001
1698415586782.0,16,-0.30000000000000004,-0.1,-0.30000000000000004,-1.0,9.4,-0.5,1.8,-21.200000000000003,9.8
1698415586799.0,16,-0.30000000000000004,0.1,-0.30000000000000004,-1.0,9.600000000000001,-0.5,1.0999999999999999,-21.700000000000003,10.700000000000001
1698415586816.0,16,-0.2,0.1,-0.30000000000000004,-0.9,9.600000000000001,-0.5,1.0999999999999999,-22.1,11.2
1698415586832.0,16,-0.30000000000000004,0.1,-0.30000000000000004,-0.9,9.600000000000001,-0.5,0.9,-22.4,11.4
1698415586848.0,16,-0.30000000000000004,0.1,-0.4,-0.9,9.600000000000001,-0.5,1.0,-23.2,11.000000000000002
1698415586865.0,16,-0.30000000000000004,0.1,-0.30000000000000004,-0.9,9.600000000000001,-0.5,0.9,-23.3,10.8
1698415586882.0,16,-0.30000000000000004,0.1,-0.4,-0.9,9.600000000000001,-0.6000000000000001,0.9,-23.5,9.8
1698415586899.0,16,-0.2,0.0,-0.5,-0.8,9.5,-0.7000000000000001,0.9,-25.1,10.4
1698415586916.0,16,-0.1,-0.1,-0.5,-0.7000000000000001,9.4,-0.8,0.6000000000000001,-25.400000000000002,10.5
1698415586932.0,16,0.0,-0.2,-0.6000000000000001,-0.5,9.3,-0.8,0.8,-26.0,10.600000000000001
1698415586948.0,16,0.0,-0.2,-0.9,-0.5,9.3,-1.1,2.0,-28.6,10.9
1698415586965.0,16,0.0,-0.30000000000000004,-1.2000000000000002,-0.5,9.200000000000001,-1.4000000000000001,3.3000000000000003,-30.599999999999998,11.000000000000002
1698415586982.0,16,-0.1,-0.30000000000000004,-1.4000000000000001,-0.5,9.200000000000001,-1.6,3.9,-31.900000000000002,11.1
1698415586998.0,16,-0.2,-0.30000000000000004,-1.5,-0.6000000000000001,9.3,-1.8,4.0,-35.4,10.9
1698415587015.0,16,-0.1,0.2,-1.5,-0.5,9.8,-1.8,2.9,-38.800000000000004,9.700000000000001
1698415587032.0,16,0.1,0.7000000000000001,-1.1,-0.2,10.200000000000001,-1.4000000000000001,0.8,-39.9,9.0
1698415587049.0,16,0.8,0.9,-0.5,0.5,10.4,-0.8,0.6000000000000001,-34.0,7.9
1698415587065.0,16,0.6000000000000001,0.4,-0.30000000000000004,0.2,9.9,-0.6000000000000001,3.3000000000000003,-25.3,9.1
1698415587082.0,16,0.30000000000000004,0.4,-0.2,0.0,9.9,-0.5,2.6,-24.8,9.5
1698415587099.0,16,0.30000000000000004,0.6000000000000001,-0.2,0.0,10.100000000000001,-0.5,-1.0999999999999999,-24.400000000000002,11.3
1698415587115.0,16,0.4,0.5,-0.1,0.2,10.0,-0.4,-0.5,-21.8,12.000000000000002
1698415587132.0,16,0.4,0.2,-0.30000000000000004,0.1,9.700000000000001,-0.6000000000000001,0.8,-23.0,11.3
1698415587148.0,16,0.30000000000000004,0.1,-0.5,0.1,9.600000000000001,-0.8,-0.7,-24.7,7.500000000000001
1698415587165.0,16,0.30000000000000004,1.0,-0.2,0.1,10.600000000000001,-0.5,-5.500000000000001,-24.6,1.0
1698415587181.0,16,0.4,1.7000000000000002,0.0,0.2,11.3,-0.30000000000000004,-6.8,-24.6,-2.6
1698415587198.0,16,0.7000000000000001,1.4000000000000001,0.4,0.5,10.9,0.1,-1.8,-22.7,-5.7
1698415587215.0,16,0.2,0.2,0.4,0.0,9.8,0.1,1.3,-22.900000000000002,-7.9
1698415587231.0,16,0.0,0.1,0.5,-0.2,9.600000000000001,0.2,1.4,-21.3,-7.2
1698415587248.0,16,-0.4,-0.4,0.6000000000000001,-0.6000000000000001,9.1,0.30000000000000004,3.4,-17.8,-7.500000000000001
1698415587265.0,16,-0.9,-1.1,0.5,-1.2000000000000002,8.4,0.2,4.2,-15.7,-8.5
1698415587282.0,16,-1.0,-1.4000000000000001,0.6000000000000001,-1.3,8.1,0.30000000000000004,4.0,-13.8,-8.1
1698415587298.0,16,-0.30000000000000004,-1.2000000000000002,0.8,-0.7000000000000001,8.3,0.5,0.9,-10.1,-5.6
1698415587315.0,16,0.9,-0.4,1.0,0.5,9.1,0.7000000000000001,-1.5000000000000002,-6.6000000000000005,-1.9
1698415587332.0,16,1.2000000000000002,-0.1,1.2000000000000002,0.8,9.4,1.0,-1.3,-4.7,-0.2
1698415587348.0,16,1.0,-0.1,1.4000000000000001,0.7000000000000001,9.5,1.1,2.3000000000000003,0.30000000000000004,1.7
1698415587365.0,16,0.7000000000000001,-0.1,1.2000000000000002,0.4,9.5,1.0,3.9,5.1,2.6
1698415587382.0,16,0.2,0.0,1.2000000000000002,-0.1,9.5,0.9,3.5,6.3,3.4
1698415587399.0,16,0.30000000000000004,0.0,1.1,0.0,9.5,0.9,2.5,6.8,4.300000000000001
1698415587415.0,16,0.5,-0.2,1.1,0.2,9.4,0.8,1.5000000000000002,7.9,3.8
1698415587434.0,16,0.6000000000000001,-0.2,0.9,0.30000000000000004,9.3,0.6000000000000001,1.4,10.1,2.4000000000000004
1698415587448.0,16,0.5,-0.2,0.7000000000000001,0.30000000000000004,9.3,0.4,1.5000000000000002,11.4,1.7
1698415587465.0,16,0.4,-0.1,0.6000000000000001,0.2,9.4,0.4,1.4,15.399999999999999,1.5000000000000002
1698415587482.0,16,0.30000000000000004,0.0,0.7000000000000001,0.1,9.600000000000001,0.4,1.8,17.9,1.9
1698415587499.0,16,0.30000000000000004,0.0,0.6000000000000001,0.0,9.600000000000001,0.30000000000000004,3.2,22.6,2.8
1698415587516.0,16,0.30000000000000004,0.0,0.6000000000000001,0.1,9.5,0.30000000000000004,4.1000000000000005,27.2,3.5
1698415587532.0,16,0.30000000000000004,-0.1,0.6000000000000001,0.1,9.4,0.30000000000000004,4.3999999999999995,30.100000000000005,3.4
1698415587548.0,16,0.30000000000000004,-0.2,0.5,0.1,9.3,0.2,4.7,31.4,3.3000000000000003
1698415587565.0,16,0.2,-0.30000000000000004,0.5,0.1,9.3,0.2,5.0,32.5,3.1
1698415587581.0,16,0.2,-0.30000000000000004,0.4,0.0,9.200000000000001,0.1,6.5,34.900000000000006,2.7
1698415587598.0,16,0.2,-0.30000000000000004,0.30000000000000004,0.0,9.200000000000001,0.0,7.0,35.1,2.9
1698415587615.0,16,0.2,-0.1,0.30000000000000004,0.1,9.4,-0.1,8.1,34.900000000000006,3.5
1698415587632.0,16,0.30000000000000004,-0.1,0.2,0.2,9.4,-0.2,8.4,35.3,4.0
1698415587648.0,16,0.4,0.0,0.2,0.30000000000000004,9.5,-0.30000000000000004,8.5,36.2,4.1000000000000005
1698415587665.0,16,0.4,0.0,0.2,0.4,9.5,-0.2,8.700000000000001,37.6,3.6
1698415587682.0,16,0.4,0.0,0.2,0.4,9.5,-0.30000000000000004,8.600000000000001,38.900000000000006,3.3000000000000003
1698415587700.0,16,0.4,0.0,0.2,0.4,9.5,-0.30000000000000004,7.8,41.300000000000004,2.7
1698415587715.0,16,0.4,0.0,0.2,0.4,9.600000000000001,-0.30000000000000004,6.7,45.4,2.4000000000000004
1698415587732.0,16,0.5,0.1,0.1,0.5,9.600000000000001,-0.4,6.1000000000000005,49.1,2.6
1698415587748.0,16,0.5,0.1,0.0,0.5,9.600000000000001,-0.5,6.1000000000000005,50.9,2.3000000000000003
1698415587766.0,16,0.5,0.1,0.0,0.6000000000000001,9.700000000000001,-0.6000000000000001,6.3,54.0,2.9
1698415587782.0,16,0.6000000000000001,0.2,-0.1,0.6000000000000001,9.700000000000001,-0.7000000000000001,6.4,55.5,3.2
1698415587800.0,16,0.7000000000000001,0.1,-0.2,0.8,9.600000000000001,-0.7000000000000001,7.1000000000000005,60.20000000000001,2.9
1698415587816.0,16,0.5,0.0,-0.4,0.6000000000000001,9.5,-1.0,7.6,65.5,2.3000000000000003
1698415587832.0,16,0.30000000000000004,0.0,-0.5,0.4,9.600000000000001,-1.2000000000000002,7.0,69.9,2.3000000000000003
1698415587848.0,16,0.2,0.1,-0.5,0.4,9.600000000000001,-1.2000000000000002,6.4,71.6,2.3000000000000003
1698415587865.0,16,0.30000000000000004,0.1,-0.4,0.5,9.700000000000001,-1.1,5.300000000000001,73.50000000000001,2.1
1698415587882.0,16,0.4,0.1,-0.4,0.5,9.600000000000001,-1.1,4.800000000000001,74.8,1.5000000000000002
1698415587899.0,16,0.4,0.0,-0.4,0.6000000000000001,9.5,-1.1,4.0,76.9,-0.7
1698415587915.0,16,0.2,-0.1,-0.4,0.4,9.4,-1.1,4.3999999999999995,79.3,-2.7
1698415587932.0,16,0.2,-0.1,-0.6000000000000001,0.30000000000000004,9.4,-1.4000000000000001,4.3999999999999995,83.4,-3.9
1698415587948.0,16,0.0,-0.1,-0.6000000000000001,0.30000000000000004,9.4,-1.3,4.2,84.4,-4.300000000000001
1698415587965.0,16,-0.1,-0.2,-0.6000000000000001,0.1,9.3,-1.3,4.7,85.5,-5.2
1698415587982.0,16,-0.1,-0.30000000000000004,-0.6000000000000001,0.1,9.200000000000001,-1.3,4.5,86.1,-5.6
1698415587998.0,16,0.0,-0.30000000000000004,-0.6000000000000001,0.2,9.200000000000001,-1.4000000000000001,4.6000000000000005,86.3,-6.2
1698415588015.0,16,0.1,-0.2,-0.8,0.30000000000000004,9.3,-1.6,4.2,87.10000000000001,-8.1
1698415588032.0,16,0.4,-0.2,-0.8,0.6000000000000001,9.3,-1.6,2.9,90.2,-9.600000000000001
1698415588048.0,16,0.4,-0.2,-0.9,0.6000000000000001,9.3,-1.7000000000000002,3.2,91.7,-11.000000000000002
1698415588065.0,16,0.2,-0.30000000000000004,-1.1,0.4,9.200000000000001,-1.9000000000000001,3.9,97.10000000000001,-14.900000000000002
1698415588081.0,16,-0.1,-0.30000000000000004,-1.2000000000000002,0.0,9.200000000000001,-2.0,3.0000000000000004,101.7,-17.8
1698415588098.0,16,-0.6000000000000001,0.0,-0.8,-0.5,9.5,-1.6,-0.7,102.30000000000001,-19.1
1698415588115.0,16,-0.9,0.30000000000000004,-0.7000000000000001,-0.8,9.8,-1.5,-1.4,100.50000000000001,-19.9
1698415588131.0,16,-1.5,1.6,0.1,-1.4000000000000001,11.100000000000001,-0.6000000000000001,-7.8,94.5,-18.6
1698415588148.0,16,-1.5,1.4000000000000001,0.4,-1.5,10.9,-0.4,-3.4,80.10000000000001,-17.400000000000002
1698415588164.0,16,-1.0,0.7000000000000001,0.2,-1.0,10.3,-0.6000000000000001,-2.0,75.7,-16.700000000000003
1698415588181.0,16,0.9,0.1,-0.4,0.8,9.600000000000001,-1.1,-6.4,78.60000000000001,-17.5
1698415588198.0,16,0.8,0.1,-0.2,0.7000000000000001,9.600000000000001,-0.9,-10.2,86.1,-24.3
1698415588215.0,16,0.30000000000000004,0.1,-0.2,0.2,9.700000000000001,-0.9,-11.5,88.10000000000001,-25.0
1698415588231.0,16,-0.9,0.4,0.2,-1.1,10.0,-0.5,-13.200000000000001,90.9,-22.2
1698415588248.0,16,-1.5,0.2,0.4,-1.5,10.0,-0.30000000000000004,-12.8,91.8,-18.900000000000002
1698415588265.0,16,-1.5,-0.2,0.5,-1.8,9.4,-0.2,-12.100000000000001,91.30000000000001,-18.0
1698415588281.0,16,-0.7000000000000001,-0.4,0.30000000000000004,-1.0,9.1,-0.30000000000000004,-11.3,91.8,-16.5
1698415588298.0,16,-0.30000000000000004,-0.4,0.30000000000000004,-0.7000000000000001,9.200000000000001,-0.30000000000000004,-11.5,90.5,-15.6
1698415588315.0,16,-0.1,-0.1,0.5,-0.4,9.4,-0.1,-11.3,91.60000000000001,-13.9
1698415588331.0,16,-0.7000000000000001,-0.2,0.6000000000000001,-1.1,9.4,0.1,-10.8,87.3,-11.700000000000001
1698415588348.0,16,-1.0,-0.2,0.8,-1.4000000000000001,9.3,0.30000000000000004,-11.5,83.10000000000001,-9.5
1698415588365.0,16,-0.9,-0.2,0.8,-1.3,9.3,0.4,-12.000000000000002,82.10000000000001,-8.9
1698415588382.0,16,-0.5,-0.2,1.0,-1.0,9.4,0.6000000000000001,-12.9,81.5,-8.0
1698415588398.0,16,-0.6000000000000001,-0.1,0.9,-1.0,9.5,0.5,-13.700000000000001,80.9,-7.500000000000001
1698415588415.0,16,-0.6000000000000001,-0.1,0.9,-1.1,9.5,0.6000000000000001,-13.9,79.5,-7.6
1698415588432.0,16,-0.8,0.0,0.9,-1.3,9.5,0.6000000000000001,-14.500000000000002,79.10000000000001,-8.0
1698415588449.0,16,-0.8,0.0,1.0,-1.3,9.600000000000001,0.7000000000000001,-15.100000000000001,79.10000000000001,-8.200000000000001
1698415588465.0,16,-0.8,0.0,0.9,-1.3,9.5,0.7000000000000001,-15.399999999999999,79.00000000000001,-8.5
1698415588483.0,16,-0.7000000000000001,-0.1,1.0,-1.3,9.4,0.8,-16.3,79.39999999999999,-8.799999999999999
1698415588498.0,16,-0.8,-0.1,0.8,-1.4000000000000001,9.4,0.7000000000000001,-16.8,81.0,-8.799999999999999
1698415588515.0,16,-0.8,-0.1,0.9,-1.5,9.4,0.7000000000000001,-17.1,82.10000000000001,-8.5
1698415588532.0,16,-0.7000000000000001,-0.30000000000000004,0.9,-1.3,9.3,0.8,-17.400000000000002,83.50000000000001,-7.400000000000001
1698415588548.0,16,-0.5,-0.4,0.8,-1.1,9.1,0.8,-17.200000000000003,85.7,-6.3
1698415588565.0,16,-0.4,-0.4,0.8,-1.1,9.1,0.8,-16.8,86.9,-5.500000000000001
1698415588581.0,16,-0.30000000000000004,-0.30000000000000004,0.8,-1.0,9.200000000000001,0.8,-16.3,90.4,-4.0
1698415588598.0,16,-0.5,-0.30000000000000004,0.7000000000000001,-1.2000000000000002,9.3,0.8,-16.2,93.9,-2.3000000000000003
1698415588615.0,16,-0.5,-0.2,0.7000000000000001,-1.3,9.3,0.8,-16.2,94.4,-1.8
1698415588632.0,16,-0.7000000000000001,-0.1,0.8,-1.4000000000000001,9.4,0.9,-15.9,95.2,-0.7
1698415588648.0,16,-0.6000000000000001,-0.1,0.7000000000000001,-1.4000000000000001,9.4,0.8,-14.900000000000002,95.7,-0.8
1698415588665.0,16,-0.6000000000000001,-0.2,0.6000000000000001,-1.3,9.3,0.8,-14.500000000000002,96.10000000000001,-1.8
1698415588682.0,16,-0.4,-0.4,0.6000000000000001,-1.2000000000000002,9.1,0.8,-14.0,97.00000000000001,-3.4
1698415588698.0,16,-0.30000000000000004,-0.30000000000000004,0.5,-1.1,9.200000000000001,0.8,-13.8,99.5,-3.1
1698415588716.0,16,-0.30000000000000004,-0.2,0.4,-1.1,9.3,0.7000000000000001,-13.8,101.30000000000001,-2.6
1698415588732.0,16,-0.7000000000000001,-0.1,0.6000000000000001,-1.5,9.4,0.8,-13.100000000000001,104.5,-2.6
1698415588748.0,16,-0.7000000000000001,0.0,0.4,-1.6,9.5,0.7000000000000001,-11.5,107.9,-2.4000000000000004
1698415588765.0,16,-0.7000000000000001,0.1,0.4,-1.5,9.600000000000001,0.7000000000000001,-10.4,109.8,-0.9
1698415588782.0,16,-0.5,0.0,0.2,-1.4000000000000001,9.5,0.5,-6.8,110.9,1.7
1698415588799.0,16,-0.30000000000000004,-0.2,0.1,-1.2000000000000002,9.200000000000001,0.4,-5.4,112.0,4.800000000000001
1698415588815.0,16,-0.30000000000000004,-0.2,0.2,-1.1,9.200000000000001,0.4,-5.8,113.0,6.1000000000000005
1698415588832.0,16,-0.5,-0.2,0.5,-1.3,9.3,0.7000000000000001,-6.3,115.0,6.8
1698415588849.0,16,-0.6000000000000001,0.0,0.5,-1.5,9.5,0.7000000000000001,-5.0,117.30000000000001,7.400000000000001
1698415588865.0,16,-0.6000000000000001,-0.1,0.5,-1.4000000000000001,9.4,0.7000000000000001,-3.8,118.40000000000002,7.6
1698415588883.0,16,-0.5,-0.4,0.4,-1.3,9.1,0.6000000000000001,-2.1999999999999997,122.0,8.3
1698415588898.0,16,-0.6000000000000001,-0.30000000000000004,0.30000000000000004,-1.4000000000000001,9.200000000000001,0.5,-1.6,124.90000000000002,11.000000000000002
1698415588915.0,16,-0.7000000000000001,-0.1,0.4,-1.5,9.3,0.5,-1.4,124.0,12.100000000000001
1698415588932.0,16,-0.7000000000000001,-0.1,0.5,-1.5,9.4,0.6000000000000001,0.7,120.9,12.200000000000001
1698415588948.0,16,-0.8,-0.1,0.30000000000000004,-1.5,9.4,0.4,2.3000000000000003,117.8,10.4
1698415588965.0,16,-0.9,0.0,0.30000000000000004,-1.6,9.5,0.4,2.9,116.10000000000001,9.9
1698415588982.0,16,-1.2000000000000002,0.0,0.2,-1.9000000000000001,9.5,0.2,4.3999999999999995,110.8,9.4
1698415588998.0,16,-1.3,0.0,0.1,-1.9000000000000001,9.5,0.1,4.6000000000000005,105.10000000000001,9.0
1698415589015.0,16,-1.3,0.1,0.1,-1.9000000000000001,9.5,0.1,4.5,102.10000000000001,8.700000000000001
1698415589032.0,16,-1.3,0.2,0.2,-2.0,9.700000000000001,0.2,5.0,97.8,7.1000000000000005
1698415589049.0,16,-1.3,0.1,0.2,-2.0,9.600000000000001,0.1,4.5,93.60000000000001,6.6000000000000005
1698415589065.0,16,-1.5,0.2,0.30000000000000004,-2.2,9.700000000000001,0.1,4.1000000000000005,91.50000000000001,6.2
1698415589082.0,16,-1.7000000000000002,0.1,0.30000000000000004,-2.4000000000000004,9.600000000000001,0.1,4.5,85.4,6.000000000000001
1698415589099.0,16,-1.9000000000000001,0.0,0.30000000000000004,-2.5,9.5,0.2,4.5,79.3,6.2
1698415589116.0,16,-1.8,0.0,0.30000000000000004,-2.4000000000000004,9.5,0.1,5.0,72.10000000000001,6.5
1698415589132.0,16,-1.6,-0.1,0.30000000000000004,-2.2,9.5,0.1,5.500000000000001,68.0,6.7
1698415589148.0,16,-1.5,-0.1,0.2,-2.1,9.4,0.0,6.9,60.599999999999994,7.300000000000001
1698415589165.0,16,-1.5,-0.30000000000000004,0.30000000000000004,-2.1,9.200000000000001,0.0,7.400000000000001,53.400000000000006,7.9
1698415589182.0,16,-1.4000000000000001,-0.1,0.30000000000000004,-2.0,9.4,0.0,7.0,50.800000000000004,8.5
1698415589198.0,16,-1.4000000000000001,0.2,0.30000000000000004,-2.0,9.700000000000001,-0.1,6.1000000000000005,47.5,8.9
1698415589215.0,16,-1.7000000000000002,0.2,0.30000000000000004,-2.2,9.700000000000001,-0.1,5.8,44.3,9.4
1698415589232.0,16,-1.7000000000000002,0.1,0.30000000000000004,-2.2,9.600000000000001,-0.1,5.500000000000001,41.7,10.5
1698415589248.0,16,-1.4000000000000001,0.1,0.5,-1.9000000000000001,9.600000000000001,0.1,4.5,36.2,12.000000000000002
1698415589265.0,16,-1.2000000000000002,0.1,0.5,-1.7000000000000002,9.600000000000001,0.1,4.800000000000001,33.300000000000004,11.8
1698415589282.0,16,-1.2000000000000002,0.0,0.4,-1.6,9.5,0.0,5.7,27.0,9.8
1698415589301.0,16,-1.3,-0.1,0.30000000000000004,-1.7000000000000002,9.4,-0.1,6.5,21.3,8.5
1698415589315.0,16,-1.3,-0.2,0.2,-1.7000000000000002,9.3,-0.2,7.0,17.5,8.4
1698415589332.0,16,-1.3,-0.2,0.2,-1.7000000000000002,9.3,-0.2,6.7,16.6,9.0
1698415589348.0,16,-1.1,-0.30000000000000004,0.30000000000000004,-1.5,9.3,-0.2,6.9,15.399999999999999,10.0
1698415589365.0,16,-0.9,-0.1,0.30000000000000004,-1.2000000000000002,9.4,-0.2,6.9,15.8,9.9
1698415589382.0,16,-0.8,-0.1,0.30000000000000004,-1.1,9.4,-0.30000000000000004,7.0,15.7,9.4
1698415589398.0,16,-0.7000000000000001,0.1,0.2,-1.0,9.600000000000001,-0.30000000000000004,6.7,14.700000000000001,9.4
1698415589415.0,16,-0.5,0.1,0.2,-0.8,9.600000000000001,-0.30000000000000004,5.6,14.4,9.4
1698415589432.0,16,-0.4,0.1,0.2,-0.7000000000000001,9.600000000000001,-0.4,5.0,15.000000000000002,9.5
1698415589448.0,16,-0.30000000000000004,0.1,0.30000000000000004,-0.5,9.600000000000001,-0.30000000000000004,3.3000000000000003,15.8,8.700000000000001
1698415589465.0,16,-0.30000000000000004,0.0,0.4,-0.4,9.5,-0.2,2.1,16.8,7.1000000000000005
1698415589482.0,16,-0.2,0.0,0.4,-0.4,9.5,-0.2,1.8,17.599999999999998,6.4
1698415589499.0,16,-0.30000000000000004,0.1,0.4,-0.5,9.600000000000001,-0.2,2.0,19.9,6.000000000000001
1698415589515.0,16,-0.4,0.30000000000000004,0.30000000000000004,-0.6000000000000001,9.8,-0.30000000000000004,2.1,22.1,6.9
1698415589532.0,16,-0.30000000000000004,0.2,0.2,-0.30000000000000004,9.700000000000001,-0.5,2.1999999999999997,23.0,7.6
1698415589548.0,16,-0.1,0.2,0.1,-0.2,9.700000000000001,-0.5,1.8,23.2,8.1
1698415589564.0,16,0.0,0.0,0.2,0.0,9.5,-0.5,1.5000000000000002,22.900000000000002,7.8
1698415589582.0,16,0.1,-0.1,0.1,0.1,9.4,-0.6000000000000001,2.1,23.2,7.300000000000001
1698415589600.0,16,0.5,-0.30000000000000004,-0.1,0.5,9.200000000000001,-0.8,2.5,26.6,6.7
1698415589615.0,16,0.7000000000000001,-0.1,-0.30000000000000004,0.8,9.4,-0.9,2.9,32.4,6.3
1698415589632.0,16,0.8,0.1,-0.30000000000000004,0.8,9.600000000000001,-1.0,3.5,35.9,6.3
1698415589648.0,16,0.6000000000000001,0.30000000000000004,-0.4,0.6000000000000001,9.8,-1.0,4.6000000000000005,41.5,6.7
1698415589665.0,16,0.0,0.30000000000000004,-0.4,0.1,9.8,-1.0,5.0,43.400000000000006,7.9
1698415589682.0,16,-0.30000000000000004,0.4,-0.30000000000000004,-0.1,9.9,-1.0,4.6000000000000005,42.300000000000004,8.700000000000001
1698415589699.0,16,-0.4,0.30000000000000004,-0.30000000000000004,-0.2,9.9,-1.0,4.2,37.4,9.600000000000001
1698415589715.0,16,-0.1,0.0,-0.1,0.1,9.5,-0.9,2.8,33.300000000000004,9.4
1698415589732.0,16,0.0,-0.1,-0.1,0.2,9.4,-0.9,2.0,32.0,9.0
1698415589748.0,16,0.0,-0.2,0.0,0.30000000000000004,9.3,-0.7000000000000001,0.6000000000000001,31.5,8.200000000000001
1698415589765.0,16,0.2,-0.2,-0.2,0.5,9.3,-0.9,0.4,33.5,8.600000000000001
1698415589782.0,16,0.2,-0.2,-0.2,0.6000000000000001,9.3,-0.9,-0.30000000000000004,35.199999999999996,9.0
1698415589798.0,16,0.0,-0.30000000000000004,0.0,0.4,9.200000000000001,-0.7000000000000001,-1.6,37.900000000000006,9.5
1698415589815.0,16,-0.30000000000000004,-0.5,0.0,0.1,9.0,-0.7000000000000001,-1.4,38.5,10.5
1698415589832.0,16,-0.4,-0.4,-0.1,0.0,9.1,-0.7000000000000001,-1.5000000000000002,38.400000000000006,10.8
1698415589848.0,16,-0.1,0.0,-0.1,0.4,9.5,-0.8,-1.8,38.5,10.3
1698415589865.0,16,0.0,0.1,0.0,0.6000000000000001,9.600000000000001,-0.7000000000000001,1.2000000000000002,39.2,6.9
1698415589882.0,16,-0.4,0.1,-0.4,0.1,9.600000000000001,-1.0,4.0,40.3,3.6
1698415589899.0,16,-0.6000000000000001,0.0,-0.4,-0.1,9.5,-1.1,4.7,39.300000000000004,2.6
1698415589916.0,16,-0.8,0.0,-0.5,-0.30000000000000004,9.4,-1.2000000000000002,4.5,38.2,1.5000000000000002
1698415589932.0,16,-0.6000000000000001,0.0,-0.5,0.0,9.5,-1.2000000000000002,3.6,37.0,0.6000000000000001
1698415589949.0,16,-0.5,0.0,-0.4,0.1,9.5,-1.2000000000000002,3.4,36.2,0.5
1698415589965.0,16,-0.4,0.0,-0.4,0.2,9.5,-1.1,3.2,34.400000000000006,0.6000000000000001
1698415589982.0,16,-0.4,0.0,-0.4,0.2,9.5,-1.2000000000000002,2.9,34.50000000000001,0.30000000000000004
1698415590000.0,16,-0.30000000000000004,-0.1,-0.30000000000000004,0.30000000000000004,9.4,-1.1,3.1,34.0,-0.2
1698415590015.0,16,-0.2,-0.1,-0.4,0.4,9.4,-1.1,3.1,34.7,-1.0999999999999999
1698415590032.0,16,-0.2,-0.1,-0.4,0.4,9.4,-1.1,3.2,36.3,-1.5000000000000002
1698415590048.0,16,-0.2,-0.1,-0.4,0.4,9.4,-1.2000000000000002,2.9,37.1,-1.7
1698415590066.0,16,-0.2,-0.1,-0.4,0.4,9.4,-1.1,2.3000000000000003,37.1,-2.1
1698415590083.0,16,-0.4,-0.2,-0.4,0.2,9.3,-1.2000000000000002,2.1999999999999997,37.1,-2.7
1698415590098.0,16,-0.30000000000000004,-0.2,-0.4,0.2,9.3,-1.1,1.9,37.2,-2.8
1698415590115.0,16,-0.1,-0.1,-0.2,0.4,9.4,-1.0,1.0,37.4,-3.2
1698415590132.0,16,0.0,-0.1,-0.2,0.5,9.4,-1.0,1.7,38.300000000000004,-3.9
1698415590148.0,16,0.0,-0.1,-0.30000000000000004,0.5,9.4,-1.1,1.7,39.2,-4.2
1698415590166.0,16,-0.1,0.0,-0.30000000000000004,0.4,9.4,-1.1,2.0,39.2,-4.5
1698415590182.0,16,-0.1,0.1,-0.4,0.5,9.600000000000001,-1.2000000000000002,1.6,39.6,-4.6000000000000005
1698415590199.0,16,0.0,0.1,-0.30000000000000004,0.6000000000000001,9.600000000000001,-1.2000000000000002,1.2000000000000002,40.2,-4.9
1698415590215.0,16,0.2,0.1,-0.30000000000000004,0.7000000000000001,9.5,-1.2000000000000002,1.3,42.1,-6.2
1698415590231.0,16,0.30000000000000004,0.1,-0.30000000000000004,0.8,9.600000000000001,-1.2000000000000002,1.2000000000000002,44.9,-6.8
1698415590248.0,16,0.2,0.30000000000000004,-0.2,0.7000000000000001,9.8,-1.1,0.7,45.6,-6.4
1698415590265.0,16,-0.30000000000000004,0.8,-0.2,0.2,10.3,-1.1,0.1,44.6,-5.9
1698415590281.0,16,-0.8,1.2000000000000002,0.2,-0.30000000000000004,10.700000000000001,-0.6000000000000001,-2.7,42.0,-5.4
1698415590298.0,16,-0.7000000000000001,0.7000000000000001,0.1,-0.2,10.200000000000001,-0.7000000000000001,-1.9,34.300000000000004,-6.8
1698415590314.0,16,-0.4,0.5,0.2,0.1,10.0,-0.6000000000000001,-3.5,33.1,-7.6
1698415590331.0,16,-0.1,0.4,0.5,0.30000000000000004,9.9,-0.30000000000000004,-6.1000000000000005,34.900000000000006,-10.1
1698415590348.0,16,-0.1,0.2,0.30000000000000004,0.30000000000000004,9.700000000000001,-0.5,-5.300000000000001,35.7,-11.700000000000001
1698415590365.0,16,-0.2,-0.1,-0.1,0.2,9.4,-0.9,-4.7,39.300000000000004,-13.100000000000001
1698415590381.0,16,-0.30000000000000004,-0.2,-0.1,0.1,9.3,-0.9,-4.9,43.1,-11.5
1698415590398.0,16,-0.5,-0.2,-0.1,-0.1,9.4,-0.8,-4.7,44.2,-10.600000000000001
1698415590415.0,16,-1.0,0.4,0.2,-0.7000000000000001,9.9,-0.5,-6.8,44.5,-6.9
1698415590432.0,16,-1.4000000000000001,1.0,0.7000000000000001,-1.1,10.600000000000001,0.0,-8.0,40.1,-3.7000000000000006
1698415590448.0,16,-1.4000000000000001,0.9,0.7000000000000001,-1.1,10.5,0.0,-7.500000000000001,37.7,-3.7000000000000006
1698415590465.0,16,-1.0,0.4,0.6000000000000001,-0.7000000000000001,10.0,0.0,-6.9,35.7,-6.000000000000001
1698415590483.0,16,-0.5,0.1,0.6000000000000001,-0.2,9.600000000000001,0.0,-7.699999999999999,35.5,-8.799999999999999
1698415590499.0,16,-0.5,-0.2,0.6000000000000001,-0.30000000000000004,9.4,0.0,-7.400000000000001,36.1,-10.1
1698415590515.0,16,-0.6000000000000001,-0.30000000000000004,0.5,-0.4,9.3,0.0,-7.1000000000000005,36.7,-10.1
1698415590531.0,16,-0.8,-0.4,0.7000000000000001,-0.6000000000000001,9.1,0.2,-6.9,39.300000000000004,-10.1
1698415590548.0,16,-0.9,-0.5,0.9,-0.7000000000000001,9.0,0.4,-6.8,41.800000000000004,-11.2
1698415590564.0,16,-1.0,-0.5,0.9,-0.9,9.1,0.5,-6.5,43.400000000000006,-12.3
1698415590583.0,16,-1.2000000000000002,-0.4,1.0,-1.1,9.200000000000001,0.5,-5.8,44.3,-14.200000000000001
1698415590598.0,16,-1.2000000000000002,-0.4,0.9,-1.1,9.1,0.5,-5.0,44.2,-14.200000000000001
1698415590615.0,16,-1.0,-0.5,0.9,-1.0,9.0,0.5,-2.7,42.1,-12.5
1698415590632.0,16,-1.0,-0.7000000000000001,0.9,-1.0,8.8,0.5,-1.3,40.4,-10.1
1698415590648.0,16,-1.0,-0.8,0.8,-1.0,8.700000000000001,0.5,-0.5,39.1,-8.700000000000001
1698415590666.0,16,-1.1,-0.7000000000000001,0.7000000000000001,-1.2000000000000002,8.8,0.4,0.6000000000000001,34.50000000000001,-6.5
1698415590682.0,16,-1.1,-0.6000000000000001,0.8,-1.2000000000000002,8.9,0.4,1.0,32.6,-5.8
1698415590700.0,16,-1.1,-0.4,0.6000000000000001,-1.2000000000000002,9.1,0.30000000000000004,1.5000000000000002,31.7,-6.000000000000001
1698415590715.0,16,-1.2000000000000002,-0.30000000000000004,0.6000000000000001,-1.3,9.200000000000001,0.2,1.4,32.0,-5.9
1698415590732.0,16,-1.3,0.0,0.7000000000000001,-1.5,9.5,0.30000000000000004,1.8,31.4,-4.7
1698415590750.0,16,-1.3,0.1,0.5,-1.5,9.600000000000001,0.1,3.8,28.500000000000004,-3.2
1698415590765.0,16,-1.3,0.0,0.5,-1.5,9.5,0.1,5.0,26.500000000000004,-2.7
1698415590783.0,16,-1.0,0.0,0.30000000000000004,-1.2000000000000002,9.5,-0.1,7.0,22.4,-3.5
1698415590799.0,16,-0.7000000000000001,0.30000000000000004,0.5,-1.0,9.8,0.1,6.9,19.3,-5.6
1698415590815.0,16,-0.6000000000000001,0.4,0.4,-0.9,9.9,0.0,7.300000000000001,18.8,-7.0
1698415590832.0,16,-0.7000000000000001,0.1,0.4,-1.0,9.600000000000001,-0.1,6.7,19.1,-8.600000000000001
1698415590848.0,16,-1.1,-0.2,0.4,-1.4000000000000001,9.3,0.0,5.1,19.400000000000002,-8.1
1698415590865.0,16,-1.1,-0.30000000000000004,0.5,-1.4000000000000001,9.200000000000001,0.1,3.9,19.700000000000003,-7.300000000000001
1698415590882.0,16,-1.1,-0.30000000000000004,0.5,-1.4000000000000001,9.200000000000001,0.0,2.7,19.400000000000002,-6.000000000000001
1698415590899.0,16,-1.1,-0.30000000000000004,0.5,-1.4000000000000001,9.200000000000001,0.0,2.1999999999999997,15.7,-5.4
1698415590920.0,16,-1.1,-0.1,0.4,-1.5,9.3,0.0,2.5,13.6,-5.300000000000001
1698415590932.0,16,-1.1,-0.1,0.4,-1.5,9.4,-0.1,3.0000000000000004,10.2,-5.1
1698415590948.0,16,-1.2000000000000002,-0.1,0.2,-1.6,9.4,-0.30000000000000004,2.9,7.0,-4.1000000000000005
1698415590965.0,16,-1.2000000000000002,-0.1,0.2,-1.7000000000000002,9.4,-0.30000000000000004,2.3000000000000003,5.300000000000001,-3.5
1698415590982.0,16,-1.2000000000000002,-0.2,0.30000000000000004,-1.7000000000000002,9.3,-0.2,2.1999999999999997,2.6,-2.0
1698415590999.0,16,-1.1,-0.30000000000000004,0.2,-1.6,9.200000000000001,-0.4,2.5,-0.1,-0.5
1698415591015.0,16,-1.1,-0.30000000000000004,0.2,-1.6,9.1,-0.4,2.8,-1.9,0.4
1698415591032.0,16,-1.2000000000000002,-0.30000000000000004,0.1,-1.6,9.200000000000001,-0.5,3.8,-6.6000000000000005,1.6
1698415591049.0,16,-1.2000000000000002,-0.2,-0.30000000000000004,-1.7000000000000002,9.3,-0.8,5.1,-11.6,2.7
1698415591065.0,16,-1.2000000000000002,-0.1,-0.4,-1.7000000000000002,9.3,-1.0,5.300000000000001,-13.8,3.5
1698415591082.0,16,-1.1,-0.2,-0.5,-1.6,9.3,-1.0,4.800000000000001,-17.5,6.2
1698415591099.0,16,-0.9,-0.2,-0.4,-1.4000000000000001,9.200000000000001,-1.0,3.8,-19.700000000000003,9.0
1698415591115.0,16,-0.8,-0.1,-0.30000000000000004,-1.2000000000000002,9.3,-0.9,3.0000000000000004,-20.0,9.8
1698415591132.0,16,-0.7000000000000001,0.0,-0.1,-1.1,9.4,-0.7000000000000001,2.1999999999999997,-17.9,10.1
1698415591148.0,16,-0.8,-0.1,-0.1,-1.2000000000000002,9.4,-0.7000000000000001,3.0000000000000004,-16.1,10.700000000000001
1698415591164.0,16,-0.9,0.0,-0.2,-1.3,9.5,-0.9,3.3000000000000003,-15.2,11.1
1698415591182.0,16,-1.0,0.2,-0.30000000000000004,-1.3,9.700000000000001,-1.0,3.1,-14.700000000000001,11.5
1698415591198.0,16,-1.1,0.30000000000000004,-0.4,-1.4000000000000001,9.700000000000001,-1.0,3.3000000000000003,-15.7,12.100000000000001
1698415591215.0,16,-1.1,0.2,-0.5,-1.4000000000000001,9.700000000000001,-1.1,3.6,-16.900000000000002,12.3
1698415591232.0,16,-0.9,0.30000000000000004,-0.6000000000000001,-1.2000000000000002,9.8,-1.3,4.2,-21.5,12.100000000000001
1698415591248.0,16,-0.7000000000000001,0.4,-0.7000000000000001,-1.0,9.9,-1.4000000000000001,5.6,-26.500000000000004,10.2
1698415591264.0,16,-0.7000000000000001,0.6000000000000001,-1.0,-1.0,10.100000000000001,-1.7000000000000002,6.3,-28.500000000000004,8.9
1698415591282.0,16,-0.8,1.1,-0.5,-1.0,10.600000000000001,-1.2000000000000002,3.3000000000000003,-30.799999999999997,5.2
1698415591298.0,16,-0.5,1.2000000000000002,-0.4,-0.8,10.700000000000001,-1.1,3.3000000000000003,-25.700000000000003,4.300000000000001
1698415591315.0,16,-0.4,1.1,-0.4,-0.7000000000000001,10.600000000000001,-1.1,3.0000000000000004,-24.3,4.800000000000001
1698415591332.0,16,-0.5,0.8,-0.2,-0.7000000000000001,10.3,-0.9,1.4,-24.7,5.7
1698415591348.0,16,-0.30000000000000004,0.9,-0.1,-0.5,10.4,-0.8,-0.2,-21.200000000000003,7.400000000000001
1698415591364.0,16,-0.2,0.8,0.0,-0.4,10.3,-0.7000000000000001,0.1,-21.0,7.8
1698415591382.0,16,-0.2,0.4,-0.1,-0.4,9.9,-0.8,0.9,-18.5,6.9
1698415591398.0,16,-0.2,0.30000000000000004,0.1,-0.4,9.8,-0.6000000000000001,0.2,-16.400000000000002,4.9
1698415591416.0,16,-0.30000000000000004,0.6000000000000001,0.1,-0.5,10.100000000000001,-0.6000000000000001,-1.0999999999999999,-15.000000000000002,3.3000000000000003
1698415591432.0,16,-0.30000000000000004,0.7000000000000001,0.30000000000000004,-0.5,10.200000000000001,-0.4,-0.9,-15.5,3.0000000000000004
1698415591448.0,16,-0.6000000000000001,0.30000000000000004,0.5,-0.8,9.9,-0.2,0.8,-15.6,3.5
1698415591464.0,16,-0.6000000000000001,-0.1,0.7000000000000001,-0.8,9.4,0.0,2.1,-20.1,3.7000000000000006
1698415591481.0,16,-0.6000000000000001,-0.30000000000000004,0.9,-0.8,9.3,0.2,1.9,-21.8,3.0000000000000004
1698415591498.0,16,-0.6000000000000001,-0.6000000000000001,1.1,-0.7000000000000001,8.9,0.4,1.4,-26.0,1.2000000000000002
1698415591515.0,16,-0.30000000000000004,-0.9,1.4000000000000001,-0.5,8.6,0.7000000000000001,-0.4,-27.2,-0.6000000000000001
1698415591533.0,16,-0.1,-0.9,1.5,-0.30000000000000004,8.6,0.9,-1.0999999999999999,-26.8,-0.4
1698415591548.0,16,0.30000000000000004,-0.6000000000000001,1.6,0.1,8.9,0.9,-2.6,-25.400000000000002,1.6
1698415591564.0,16,0.7000000000000001,-0.2,1.7000000000000002,0.5,9.3,1.1,-3.4,-22.4,4.9
1698415591581.0,16,0.8,-0.1,1.7000000000000002,0.6000000000000001,9.4,1.1,-2.9,-21.1,6.8
1698415591598.0,16,0.9,-0.1,1.5,0.7000000000000001,9.5,0.9,-1.9,-17.400000000000002,11.1
1698415591615.0,16,0.9,0.0,1.2000000000000002,0.8,9.5,0.6000000000000001,-0.8,-14.100000000000001,13.100000000000001
1698415591631.0,16,0.7000000000000001,0.0,1.1,0.7000000000000001,9.5,0.5,-0.4,-12.5,13.0
1698415591648.0,16,0.4,-0.1,0.9,0.4,9.4,0.30000000000000004,0.8,-11.2,12.200000000000001
1698415591664.0,16,0.2,-0.2,0.6000000000000001,0.2,9.4,0.0,2.1999999999999997,-10.0,10.9
1698415591681.0,16,0.2,-0.1,0.5,0.2,9.4,0.0,2.0,-6.7,8.600000000000001
1698415591698.0,16,0.1,0.0,0.6000000000000001,0.2,9.5,0.0,2.0,-5.8,7.6
1698415591714.0,16,0.1,-0.2,0.5,0.1,9.3,-0.1,2.4000000000000004,-6.6000000000000005,6.000000000000001
1698415591731.0,16,0.1,-0.30000000000000004,0.5,0.2,9.200000000000001,-0.1,2.1,-6.9,5.8
1698415591748.0,16,0.0,-0.4,0.5,0.1,9.1,0.0,0.8,-8.799999999999999,6.000000000000001
1698415591764.0,16,0.1,-0.4,0.5,0.2,9.1,0.0,0.0,-10.8,6.7
1698415591781.0,16,0.2,-0.30000000000000004,0.4,0.2,9.200000000000001,-0.1,0.0,-11.3,6.7
1698415591798.0,16,0.2,-0.30000000000000004,0.4,0.30000000000000004,9.200000000000001,-0.2,0.6000000000000001,-11.1,6.1000000000000005
1698415591814.0,16,0.1,-0.30000000000000004,0.2,0.30000000000000004,9.200000000000001,-0.4,1.4,-10.8,5.9
1698415591831.0,16,0.1,-0.4,0.30000000000000004,0.30000000000000004,9.1,-0.30000000000000004,1.3,-11.000000000000002,5.300000000000001
1698415591848.0,16,0.1,-0.30000000000000004,0.2,0.30000000000000004,9.1,-0.4,1.4,-11.3,5.2
1698415591864.0,16,0.30000000000000004,-0.2,0.1,0.5,9.200000000000001,-0.4,-0.1,-10.600000000000001,4.9
1698415591881.0,16,0.4,-0.30000000000000004,0.30000000000000004,0.6000000000000001,9.1,-0.30000000000000004,-1.0,-10.2,4.2
1698415591898.0,16,0.30000000000000004,-0.4,0.2,0.5,9.1,-0.30000000000000004,-0.9,-9.700000000000001,4.2
1698415591914.0,16,0.0,-0.5,0.1,0.2,9.0,-0.5,-1.6,-8.200000000000001,4.300000000000001
1698415591932.0,16,-0.1,-0.5,0.0,0.2,8.9,-0.6000000000000001,-3.6,-6.4,4.6000000000000005
1698415591948.0,16,0.2,-0.4,-0.1,0.4,9.1,-0.7000000000000001,-4.6000000000000005,-5.2,3.8
1698415591964.0,16,0.5,0.0,-0.2,0.7000000000000001,9.4,-0.7000000000000001,-4.9,-4.2,1.6
1698415591981.0,16,0.5,0.2,-0.4,0.7000000000000001,9.600000000000001,-0.9,-3.1,-4.800000000000001,-1.0
1698415591998.0,16,0.30000000000000004,0.2,-0.4,0.6000000000000001,9.600000000000001,-1.0,-2.3000000000000003,-4.9,-2.6
1698415592014.0,16,0.0,0.0,-0.4,0.30000000000000004,9.4,-1.0,-1.0,-2.9,-5.500000000000001
1698415592031.0,16,-0.1,0.1,-0.6000000000000001,0.1,9.5,-1.1,-0.4,0.6000000000000001,-6.4
1698415592048.0,16,0.0,0.1,-0.6000000000000001,0.2,9.600000000000001,-1.1,-0.7,2.1,-6.1000000000000005
1698415592064.0,16,0.30000000000000004,0.2,-0.5,0.5,9.700000000000001,-1.1,-1.0,4.3999999999999995,-6.000000000000001
1698415592081.0,16,0.4,0.2,-0.5,0.6000000000000001,9.600000000000001,-1.0,-0.5,6.000000000000001,-6.000000000000001
1698415592098.0,16,0.4,0.1,-0.5,0.6000000000000001,9.600000000000001,-1.0,-0.1,6.7,-6.2
1698415592114.0,16,0.2,0.0,-0.5,0.4,9.5,-1.1,-0.30000000000000004,7.9,-6.3
1698415592131.0,16,0.30000000000000004,0.0,-0.4,0.5,9.5,-1.0,-1.0,9.200000000000001,-6.3
1698415592148.0,16,0.30000000000000004,0.0,-0.4,0.5,9.4,-0.9,-0.9,9.9,-6.1000000000000005
1698415592164.0,16,0.4,0.0,-0.5,0.5,9.4,-1.0,-0.5,11.9,-5.4
1698415592181.0,16,0.4,-0.1,-0.6000000000000001,0.6000000000000001,9.4,-1.1,0.6000000000000001,15.399999999999999,-5.6
1698415592198.0,16,0.4,-0.1,-0.6000000000000001,0.6000000000000001,9.4,-1.2000000000000002,1.4,17.5,-6.2
1698415592214.0,16,0.4,-0.1,-0.9,0.6000000000000001,9.4,-1.5,3.5,22.900000000000002,-8.1
1698415592231.0,16,0.4,0.2,-1.1,0.5,9.600000000000001,-1.7000000000000002,4.3999999999999995,29.1,-7.6
1698415592248.0,16,0.1,0.6000000000000001,-0.8,0.2,10.100000000000001,-1.4000000000000001,2.4000000000000004,32.300000000000004,-6.5
1698415592264.0,16,-0.7000000000000001,1.4000000000000001,0.0,-0.6000000000000001,10.9,-0.7000000000000001,1.7,28.400000000000002,-4.6000000000000005
1698415592281.0,16,-0.9,0.9,-0.1,-0.8,10.4,-0.7000000000000001,4.3999999999999995,17.1,-4.5
1698415592298.0,16,-0.6000000000000001,0.7000000000000001,0.0,-0.5,10.100000000000001,-0.7000000000000001,3.2,15.6,-6.000000000000001
1698415592314.0,16,-0.4,0.9,0.30000000000000004,-0.4,10.4,-0.30000000000000004,0.8,19.700000000000003,-10.5
1698415592331.0,16,-0.4,0.6000000000000001,-0.4,-0.30000000000000004,10.100000000000001,-1.1,3.1,18.1,-12.9
1698415592348.0,16,-0.2,0.5,-0.4,-0.2,10.0,-1.1,3.0000000000000004,19.400000000000002,-12.6
1698415592365.0,16,0.0,0.2,-0.30000000000000004,0.0,9.700000000000001,-1.0,3.7000000000000006,23.2,-11.3
1698415592381.0,16,0.1,0.2,-0.30000000000000004,0.1,9.700000000000001,-1.0,3.9,25.900000000000002,-9.600000000000001
1698415592398.0,16,0.1,0.2,0.0,0.0,9.700000000000001,-0.8,2.9,27.400000000000002,-8.9
1698415592414.0,16,-0.5,0.7000000000000001,0.8,-0.6000000000000001,10.200000000000001,0.0,0.30000000000000004,32.6,-7.6
1698415592431.0,16,-0.8,0.9,1.2000000000000002,-0.9,10.4,0.4,0.7,34.1,-7.2
1698415592448.0,16,-0.7000000000000001,0.6000000000000001,1.2000000000000002,-0.9,10.100000000000001,0.5,0.8,34.7,-7.9
1698415592465.0,16,-0.2,0.0,1.4000000000000001,-0.30000000000000004,9.5,0.7000000000000001,0.5,35.1,-8.3
1698415592481.0,16,0.1,-0.30000000000000004,1.3,-0.1,9.200000000000001,0.6000000000000001,-0.5,35.8,-8.1
1698415592498.0,16,0.30000000000000004,-0.5,1.4000000000000001,0.1,9.0,0.7000000000000001,-0.7,36.4,-7.8
1698415592515.0,16,0.30000000000000004,-0.8,1.4000000000000001,0.1,8.700000000000001,0.7000000000000001,-2.5,39.2,-7.1000000000000005
1698415592532.0,16,-0.30000000000000004,-0.9,1.3,-0.5,8.6,0.7000000000000001,-4.3999999999999995,41.800000000000004,-5.9
1698415592549.0,16,-0.7000000000000001,-0.8,1.3,-0.9,8.700000000000001,0.7000000000000001,-5.7,41.1,-4.9
1698415592564.0,16,-1.4000000000000001,-0.6000000000000001,1.4000000000000001,-1.7000000000000002,8.9,0.7000000000000001,-5.9,40.6,-5.1
1698415592581.0,16,-1.6,-0.2,1.1,-1.9000000000000001,9.3,0.5,-5.2,37.0,-5.6
1698415592600.0,16,-1.4000000000000001,-0.1,0.9,-1.7000000000000002,9.4,0.30000000000000004,-1.4,28.0,-7.300000000000001
1698415592615.0,16,-1.3,-0.1,0.7000000000000001,-1.6,9.4,0.1,0.9,23.2,-8.1
1698415592632.0,16,-1.0,-0.1,0.4,-1.4000000000000001,9.4,-0.2,4.0,15.6,-9.600000000000001
1698415592648.0,16,-1.0,0.0,0.30000000000000004,-1.3,9.5,-0.30000000000000004,4.5,12.100000000000001,-10.0
1698415592665.0,16,-0.8,0.30000000000000004,0.4,-1.2000000000000002,9.8,-0.2,3.9,8.200000000000001,-9.9
1698415592681.0,16,-0.7000000000000001,0.2,0.4,-1.1,9.700000000000001,-0.2,3.3000000000000003,8.3,-8.799999999999999
1698415592710.0,16,-0.7000000000000001,-0.30000000000000004,0.5,-1.2000000000000002,9.1,-0.1,1.5000000000000002,10.5,-8.600000000000001
1698415592715.0,16,-0.7000000000000001,-0.30000000000000004,0.5,-1.2000000000000002,9.1,-0.1,1.5000000000000002,10.5,-8.600000000000001
1698415592731.0,16,-0.8,-0.4,0.7000000000000001,-1.3,9.1,0.1,-0.5,11.8,-8.799999999999999
1698415592748.0,16,-0.9,-0.30000000000000004,0.5,-1.5,9.200000000000001,-0.1,-1.2000000000000002,11.1,-8.700000000000001
1698415592765.0,16,-0.9,-0.30000000000000004,0.5,-1.5,9.1,-0.1,-1.9,9.700000000000001,-8.4
1698415592781.0,16,-0.7000000000000001,-0.4,0.5,-1.3,9.1,-0.1,-2.7,6.1000000000000005,-8.1
1698415592798.0,16,-0.6000000000000001,-0.4,0.4,-1.2000000000000002,9.1,-0.2,-3.5,3.3000000000000003,-6.8
1698415592815.0,16,-0.6000000000000001,-0.30000000000000004,0.4,-1.2000000000000002,9.1,-0.2,-3.9,2.6,-6.1000000000000005
1698415592832.0,16,-0.6000000000000001,-0.2,0.4,-1.2000000000000002,9.200000000000001,-0.2,-4.9,2.8,-4.7
1698415592848.0,16,-0.8,0.1,0.30000000000000004,-1.5,9.5,-0.30000000000000004,-4.9,3.7000000000000006,-2.4000000000000004
1698415592865.0,16,-0.8,0.1,0.2,-1.5,9.5,-0.30000000000000004,-4.1000000000000005,3.3000000000000003,-1.3
1698415592881.0,16,-0.6000000000000001,0.0,0.0,-1.3,9.5,-0.5,-2.9,1.2000000000000002,1.0
1698415592898.0,16,-0.6000000000000001,0.0,-0.1,-1.3,9.5,-0.6000000000000001,-2.7,-1.6,2.4000000000000004
1698415592915.0,16,-0.7000000000000001,0.0,-0.1,-1.4000000000000001,9.5,-0.6000000000000001,-3.0000000000000004,-3.0000000000000004,2.7
1698415592932.0,16,-0.9,0.0,-0.1,-1.6,9.4,-0.6000000000000001,-3.0000000000000004,-6.1000000000000005,3.4
1698415592948.0,16,-1.0,-0.1,-0.1,-1.7000000000000002,9.4,-0.6000000000000001,-2.4000000000000004,-9.8,4.3999999999999995
1698415592965.0,16,-0.9,-0.1,-0.2,-1.6,9.3,-0.7000000000000001,-2.0,-11.6,4.9
1698415592982.0,16,-0.7000000000000001,-0.30000000000000004,-0.30000000000000004,-1.3,9.200000000000001,-0.8,-2.3000000000000003,-14.500000000000002,5.500000000000001
1698415592998.0,16,-0.5,-0.2,-0.30000000000000004,-1.2000000000000002,9.3,-0.8,-3.5,-15.2,6.000000000000001
1698415593015.0,16,-0.6000000000000001,-0.1,-0.30000000000000004,-1.2000000000000002,9.3,-0.7000000000000001,-3.9,-14.700000000000001,6.3
1698415593032.0,16,-0.6000000000000001,-0.2,-0.2,-1.2000000000000002,9.3,-0.6000000000000001,-4.3999999999999995,-13.9,7.8
1698415593048.0,16,-0.6000000000000001,-0.2,-0.1,-1.2000000000000002,9.3,-0.6000000000000001,-4.300000000000001,-13.4,8.600000000000001
1698415593064.0,16,-0.6000000000000001,-0.2,-0.2,-1.2000000000000002,9.3,-0.6000000000000001,-4.1000000000000005,-13.0,8.5
1698415593081.0,16,-0.8,0.0,-0.30000000000000004,-1.4000000000000001,9.4,-0.7000000000000001,-4.300000000000001,-12.5,8.0
1698415593098.0,16,-0.9,0.1,-0.4,-1.5,9.600000000000001,-0.8,-3.8,-14.100000000000001,7.9
1698415593114.0,16,-0.9,0.1,-0.5,-1.5,9.600000000000001,-0.9,-3.3000000000000003,-15.000000000000002,7.6
1698415593131.0,16,-0.9,0.0,-0.7000000000000001,-1.5,9.5,-1.1,-2.0,-18.2,7.2
1698415593148.0,16,-0.9,-0.1,-0.9,-1.4000000000000001,9.4,-1.3,-0.1,-23.8,8.3
1698415593165.0,16,-1.0,0.0,-1.1,-1.5,9.5,-1.5,1.0,-27.2,9.1
1698415593182.0,16,-0.9,0.30000000000000004,-1.0,-1.4000000000000001,9.8,-1.4000000000000001,1.4,-33.7,9.5
1698415593198.0,16,-0.5,0.8,-0.9,-1.0,10.3,-1.3,2.4000000000000004,-36.3,8.3
1698415593215.0,16,-0.2,1.0,-0.7000000000000001,-0.7000000000000001,10.5,-1.1,1.7,-35.9,7.2
1698415593232.0,16,0.1,0.9,-0.2,-0.4,10.4,-0.6000000000000001,1.3,-30.000000000000004,4.9
1698415593248.0,16,0.0,0.6000000000000001,-0.2,-0.5,10.100000000000001,-0.6000000000000001,2.1,-25.1,5.6
1698415593264.0,16,0.0,0.5,-0.1,-0.5,10.0,-0.5,1.8,-25.700000000000003,6.3
1698415593282.0,16,0.1,0.6000000000000001,-0.2,-0.30000000000000004,10.100000000000001,-0.6000000000000001,1.2000000000000002,-23.8,7.9
1698415593298.0,16,-0.1,0.4,-0.2,-0.5,9.9,-0.6000000000000001,1.7,-21.3,7.8
1698415593314.0,16,-0.4,0.2,-0.2,-0.8,9.700000000000001,-0.7000000000000001,2.9,-22.4,5.6
1698415593331.0,16,-0.4,0.30000000000000004,-0.2,-0.8,9.8,-0.7000000000000001,2.1999999999999997,-23.5,4.300000000000001
1698415593348.0,16,0.1,1.1,0.2,-0.30000000000000004,10.600000000000001,-0.2,-1.5000000000000002,-24.7,0.5
1698415593365.0,16,0.4,1.3,0.30000000000000004,0.0,10.8,-0.1,-1.4,-24.1,-0.5
1698415593381.0,16,0.4,0.7000000000000001,0.5,0.0,10.200000000000001,0.1,2.8,-22.8,-0.6000000000000001
1698415593398.0,16,-0.1,-0.1,0.4,-0.5,9.5,0.0,4.2,-19.200000000000003,-1.0999999999999999
1698415593414.0,16,-0.2,-0.5,0.7000000000000001,-0.6000000000000001,9.1,0.2,4.800000000000001,-17.400000000000002,-1.0
1698415593431.0,16,-0.30000000000000004,-0.7000000000000001,0.6000000000000001,-0.7000000000000001,8.8,0.2,5.500000000000001,-16.1,-1.2000000000000002
1698415593448.0,16,-0.4,-1.2000000000000002,0.7000000000000001,-0.8,8.3,0.2,6.5,-14.900000000000002,-2.0
1698415593464.0,16,-0.4,-1.3,0.8,-0.9,8.200000000000001,0.30000000000000004,5.500000000000001,-14.800000000000002,-1.8
1698415593481.0,16,-0.30000000000000004,-1.3,0.9,-0.7000000000000001,8.200000000000001,0.4,4.5,-15.6,-1.0999999999999999
1698415593498.0,16,0.30000000000000004,-0.6000000000000001,1.1,-0.2,8.9,0.7000000000000001,2.9,-16.400000000000002,1.4
1698415593514.0,16,0.8,-0.1,1.4000000000000001,0.4,9.4,0.9,3.8,-17.7,4.1000000000000005
1698415593531.0,16,0.9,0.0,1.4000000000000001,0.5,9.5,0.9,5.300000000000001,-16.400000000000002,4.5
1698415593548.0,16,0.6000000000000001,0.1,1.3,0.2,9.600000000000001,0.8,8.200000000000001,-13.200000000000001,4.1000000000000005
1698415593564.0,16,0.4,0.30000000000000004,1.0,0.0,9.8,0.5,8.3,-9.600000000000001,4.3999999999999995
1698415593581.0,16,0.4,0.4,1.0,0.0,9.9,0.5,8.0,-8.600000000000001,4.9
1698415593599.0,16,0.6000000000000001,0.30000000000000004,0.9,0.2,9.8,0.4,7.2,-5.9,5.9
1698415593614.0,16,0.8,0.1,0.8,0.5,9.600000000000001,0.30000000000000004,7.0,-3.2,7.6
1698415593631.0,16,1.0,0.1,0.7000000000000001,0.7000000000000001,9.600000000000001,0.2,6.9,-1.0999999999999999,9.0
1698415593648.0,16,0.8,0.2,0.8,0.6000000000000001,9.700000000000001,0.2,5.6,4.9,10.0
1698415593664.0,16,0.5,0.30000000000000004,0.7000000000000001,0.30000000000000004,9.8,0.1,6.7,8.5,12.100000000000001
1698415593681.0,16,0.4,0.2,0.6000000000000001,0.2,9.700000000000001,0.0,7.2,8.799999999999999,12.6
1698415593698.0,16,0.4,-0.2,0.5,0.30000000000000004,9.3,-0.1,5.6,9.700000000000001,12.3
1698415593714.0,16,0.5,-0.30000000000000004,0.6000000000000001,0.4,9.200000000000001,0.0,3.2,10.4,11.000000000000002
1698415593731.0,16,0.4,-0.4,0.6000000000000001,0.30000000000000004,9.1,0.0,2.3000000000000003,10.3,10.3
1698415593748.0,16,0.2,-0.4,0.5,0.2,9.1,-0.1,0.6000000000000001,9.600000000000001,9.3
1698415593764.0,16,0.1,-0.30000000000000004,0.5,0.1,9.200000000000001,-0.1,-0.6000000000000001,8.200000000000001,8.200000000000001
1698415593781.0,16,0.1,-0.30000000000000004,0.5,0.1,9.200000000000001,-0.1,-0.7,7.500000000000001,8.0
1698415593798.0,16,0.2,-0.30000000000000004,0.30000000000000004,0.30000000000000004,9.1,-0.30000000000000004,-0.4,6.8,6.8
1698415593814.0,16,0.30000000000000004,-0.30000000000000004,0.2,0.4,9.200000000000001,-0.4,-1.5000000000000002,7.400000000000001,5.6
1698415593832.0,16,0.4,-0.1,0.1,0.4,9.3,-0.5,-2.1,7.500000000000001,4.9
1698415593848.0,16,0.30000000000000004,-0.1,0.1,0.30000000000000004,9.4,-0.5,-3.2,7.9,3.6
1698415593865.0,16,0.2,-0.1,0.1,0.30000000000000004,9.4,-0.4,-3.9,7.500000000000001,2.3000000000000003
1698415593881.0,16,0.2,-0.1,0.1,0.30000000000000004,9.4,-0.4,-4.2,7.699999999999999,1.8
1698415593898.0,16,0.30000000000000004,0.0,0.0,0.4,9.5,-0.6000000000000001,-4.7,8.5,0.2
1698415593915.0,16,0.4,0.0,-0.1,0.5,9.5,-0.6000000000000001,-4.9,9.5,-0.9
1698415593931.0,16,0.30000000000000004,0.0,-0.2,0.4,9.5,-0.7000000000000001,-4.2,11.3,-2.7
1698415593948.0,16,0.30000000000000004,0.0,-0.4,0.4,9.5,-0.9,-3.8,12.3,-4.0
1698415593964.0,16,0.2,0.1,-0.5,0.30000000000000004,9.600000000000001,-1.0,-3.9,13.0,-5.4
1698415593982.0,16,0.2,0.1,-0.5,0.2,9.600000000000001,-1.0,-4.0,14.0,-7.0
1698415593998.0,16,0.2,0.1,-0.5,0.2,9.600000000000001,-1.0,-3.8,14.700000000000001,-7.8
1698415594014.0,16,0.1,0.0,-0.5,0.1,9.5,-1.0,-2.8,16.1,-9.1
1698415594031.0,16,0.1,0.0,-0.6000000000000001,0.1,9.4,-1.0,-1.4,17.1,-9.5
1698415594048.0,16,0.1,-0.1,-0.6000000000000001,0.1,9.4,-1.1,-0.7,17.599999999999998,-9.600000000000001
1698415594065.0,16,0.2,-0.2,-0.6000000000000001,0.1,9.3,-1.1,0.4,19.9,-11.000000000000002
1698415594081.0,16,0.2,-0.30000000000000004,-0.6000000000000001,0.1,9.200000000000001,-1.1,0.7,20.8,-12.000000000000002
1698415594098.0,16,0.1,-0.30000000000000004,-0.6000000000000001,0.1,9.200000000000001,-1.1,1.0999999999999999,22.1,-12.6
1698415594114.0,16,0.1,-0.30000000000000004,-0.6000000000000001,0.0,9.200000000000001,-1.2000000000000002,1.0999999999999999,23.5,-13.4
1698415594131.0,16,0.1,-0.4,-0.7000000000000001,0.0,9.1,-1.3,0.9,24.8,-13.8
1698415594148.0,16,0.0,-0.30000000000000004,-0.6000000000000001,-0.2,9.1,-1.2000000000000002,0.6000000000000001,26.0,-14.0
1698415594164.0,16,0.1,-0.2,-0.8,-0.1,9.200000000000001,-1.4000000000000001,1.4,28.1,-13.700000000000001
1698415594181.0,16,0.30000000000000004,-0.2,-1.0,0.0,9.200000000000001,-1.6,3.9,32.1,-13.8
1698415594198.0,16,0.30000000000000004,-0.2,-1.2000000000000002,0.1,9.200000000000001,-1.8,5.300000000000001,35.3,-14.200000000000001
1698415594215.0,16,0.30000000000000004,0.1,-1.4000000000000001,-0.1,9.5,-2.1,6.7,41.6,-14.3
1698415594232.0,16,-0.6000000000000001,1.8,-0.8,-0.9,11.200000000000001,-1.5,-1.5000000000000002,41.2,-10.1
1698415594249.0,16,-1.1,2.3000000000000003,-0.2,-1.5,11.700000000000001,-0.9,-1.4,32.300000000000004,-8.1
1698415594265.0,16,-1.5,1.1,-0.2,-1.9000000000000001,10.600000000000001,-0.9,5.6,12.200000000000001,-7.1000000000000005
1698415594281.0,16,-0.2,1.0,0.2,-0.6000000000000001,10.5,-0.5,-1.7,13.5,-10.700000000000001
1698415594299.0,16,0.0,1.0,0.30000000000000004,-0.4,10.4,-0.4,-2.0,17.9,-15.5
1698415594315.0,16,0.1,0.8,-0.30000000000000004,-0.4,10.200000000000001,-1.0,-1.5000000000000002,17.7,-17.400000000000002
1698415594331.0,16,0.30000000000000004,0.8,-0.2,-0.2,10.3,-0.9,-1.6,19.0,-14.3
1698415594348.0,16,0.2,0.5,-0.2,-0.30000000000000004,10.0,-0.9,-0.5,21.6,-9.8
1698415594364.0,16,-0.1,0.2,-0.30000000000000004,-0.6000000000000001,9.700000000000001,-1.0,-0.2,23.3,-6.3
1698415594382.0,16,-0.2,0.30000000000000004,0.4,-0.6000000000000001,9.600000000000001,-0.7000000000000001,-3.4,25.700000000000003,-2.9
1698415594398.0,16,-0.30000000000000004,0.6000000000000001,0.7000000000000001,-0.8,10.100000000000001,0.0,-4.1000000000000005,27.3,-2.0
1698415594415.0,16,-0.7000000000000001,0.7000000000000001,1.1,-1.3,10.200000000000001,0.4,-3.3000000000000003,27.400000000000002,-1.6
1698415594431.0,16,-0.5,0.30000000000000004,1.1,-1.0,9.8,0.4,-1.7,24.3,-1.0
1698415594448.0,16,-0.30000000000000004,0.1,1.1,-0.8,9.600000000000001,0.5,-1.2000000000000002,22.1,-0.9
1698415594464.0,16,0.0,0.1,1.1,-0.6000000000000001,9.5,0.4,-0.30000000000000004,18.0,-1.8
1698415594481.0,16,0.5,-0.6000000000000001,1.1,-0.1,8.8,0.4,0.1,15.9,-3.1
1698415594498.0,16,0.2,-0.5,1.2000000000000002,-0.4,9.0,0.6000000000000001,-0.8,14.700000000000001,-5.1
1698415594522.0,16,-0.4,-0.6000000000000001,1.4000000000000001,-1.0,8.9,0.8,-2.4000000000000004,13.4,-7.0
1698415594532.0,16,-0.4,-0.6000000000000001,1.4000000000000001,-1.0,8.9,0.8,-2.4000000000000004,13.4,-7.0
1698415594548.0,16,-0.8,-0.5,1.5,-1.5,9.0,0.8,-3.2,9.700000000000001,-7.9
1698415594565.0,16,-0.9,-0.5,1.5,-1.5,9.0,0.9,-4.3999999999999995,5.0,-8.600000000000001
1698415594581.0,16,-0.6000000000000001,-0.6000000000000001,1.4000000000000001,-1.3,8.8,0.9,-4.6000000000000005,0.8,-8.4
1698415594598.0,16,-0.4,-0.8,1.5,-1.1,8.700000000000001,0.9,-4.3999999999999995,-1.0999999999999999,-8.0
1698415594615.0,16,-0.2,-0.9,1.4000000000000001,-0.9,8.6,0.8,-2.9,-2.7,-6.8
1698415594631.0,16,-0.4,-0.5,1.1,-1.2000000000000002,8.9,0.6000000000000001,-1.8,-4.2,-4.1000000000000005
