msFromStart,interval,accx,accy,accz,accGx,accGy,accGz,rotRate_alpha,rotRate_beta,rotRate_gamma
24,0.01666666753590107,0.3394002240937203,-0.13079495612382888,-0.03415127592682838,0.9900021672789007,-4.6962250950917594,-8.68885768443644,-0.44101533622823275,-8.63580687993992,0.23562119588048855
184,0.01666666753590107,-0.372690718472749,0.13225450728237628,0.0988525884181261,0.29074586410522457,-5.391143003734946,-7.977180656433105,-11.214035098211422,2.682736515875044,11.273231493974277
202,0.01666666753590107,-0.5744629255522042,0.2415986790984869,0.3728372873365879,0.11552023010253906,-5.251082791137695,-7.721899488940834,-16.797940140939456,29.371538053820256,7.596428819408754
218,0.01666666753590107,-0.5442847179748118,0.02864507972598076,-0.7084171494245529,0.1562215852599591,-5.415384295544028,-8.835053623309731,-20.846232535593742,1.0790180238746876,9.930265185214383
235,0.01666666753590107,-0.15736607911996542,-0.7807610856235027,0.1462619898468256,0.526574654565379,-6.200533386993408,-7.997980283355712,-5.477494964327467,-3.832522449905351,9.704093716133166
251,0.01666666753590107,-0.4180114770591259,0.48498131900429725,0.12224690800905227,0.2367266891479492,-4.930858319091796,-8.027009978485108,-1.364151527852863,-2.4754906472102856,7.773282907587894
268,0.01666666753590107,-0.3832341781884432,0.2267582528412342,0.2179132676064968,0.2588730545043945,-5.180603479766845,-7.937975604248046,-8.357406661822909,-1.5014305394855973,6.45582351339659
285,0.01666666753590107,-0.3596505465704947,-0.08489011403918266,0.08824643872976302,0.2705447875976562,-5.469553692626953,-8.083572992706298,-13.093531549296035,-2.1027913433081964,2.576366137949027
302,0.01666666753590107,-0.4409357679855078,-0.03323533012568951,0.1602864235460758,0.19213468322753904,-5.374982727050781,-8.039429899597167,-15.576946496604005,2.7078775884362147,-3.727451515468929
319,0.01666666753590107,-0.6557794188883155,0.0239811795681715,-0.04569441420435905,-0.009576806640625,-5.288641829681396,-8.263287754821777,-9.842100249634212,1.8748583257513507,-6.832013257407968
335,0.01666666753590107,-0.5914790153481065,0.014509586867690086,-0.05343406854569912,0.06404496747441589,-5.284152701568603,-8.279298978424071,-2.5640931417841606,-2.8197381577944522,-7.3030909775769235
352,0.01666666753590107,-0.4166157849170267,0.04984919579625129,0.10827332771420478,0.23089082260131835,-5.243600910949707,-8.121580944061279,-1.8942675889384113,-11.040824915954484,-5.947955406150183
369,0.01666666753590107,0.036896081122942265,0.23520927032232283,-0.00530862780213356,0.3621230376312509,-5.299415737152099,-8.094346900177001,-5.820918583343,-12.234183614908064,-7.268192126012743
385,0.01666666753590107,0.08931397662973031,0.1640916610479355,-0.028116087415814398,0.35239655685424803,-5.3202153640747065,-8.153603391265868,-6.494064888785846,-9.0947110685738,-8.493720162183438
402,0.01666666753590107,0.18251597367394715,0.14905249734818934,-0.0002671265035867691,0.31049803693466815,-5.213224477386475,-8.2100167678833,-4.656006341622054,-6.007289686356907,-10.51870903409943
419,0.01666666753590107,0.20470625123735517,0.06216331844627857,-0.08183072646856307,0.3443161353843752,-5.243749964031577,-8.327931784167886,-5.722733760250421,-4.2845716899334745,-11.616379344102072
436,0.01666666753590107,0.20504985877694562,0.028936756148934362,-0.08109539793133735,0.36975451889038086,-5.266495464324951,-8.333467790985107,-5.753408566699771,-4.182550861848287,-11.585413827726173
452,0.01666666753590107,0.007556698989868164,0.0983253496736288,0.05928688622713089,0.21817164454804733,-5.198709629821777,-8.191012792205811,-4.582006364606843,-10.28771886655877,-7.576965341595156
469,0.01666666753590107,0.1573441960817203,0.2466875266700983,0.08204875313341617,0.3730465279067866,-5.052213831219077,-8.166921138000488,-1.705755008176294,-18.020246889142843,-2.193191885181077
486,0.01666666753590107,0.2669821632126346,0.08894143525660038,-0.007311199796199798,0.44651862788544966,-5.207388026317954,-8.258798626708984,3.568297435637054,-25.543843693884458,0.5400120980583976
505,0.01666666753590107,0.172652495579049,0.09139350458383559,-0.0784264709830284,0.29718029020004905,-5.214720853424072,-8.32463917236328,5.434105760738138,-17.56690845090888,-1.6510306787725058
519,0.01666666753590107,-0.0300927577836439,0.15679916595220564,-0.17644786927402017,0.07137714612656272,-5.155164502605795,-8.419210137939453,0.396831963065331,-5.41316866961111,-0.8274184542046006
536,0.01666666753590107,-0.17598310130648315,0.033414778345823286,-0.14898761541843414,-0.07347207257919944,-5.275622773632407,-8.393622107696533,-3.170027397586318,3.9137637081012446,-0.7662067791106223
552,0.01666666753590107,-0.07302050201995298,0.15871230609714984,-0.0028676643908023833,0.07122750852280296,-5.116558585357666,-8.268525070953368,-4.464152731138743,4.251991687592514,-0.4540589164696944
596,0.01666666753590107,-0.05461927800858393,0.1386667124122381,0.09723346278369425,0.10743978123320266,-5.114463074383139,-8.182183589062094,6.463319219123856,-7.820550377965321,-1.9531880023701147
601,0.01666666753590107,-0.05051883868612349,0.14348025017380714,0.0942559082776308,0.10743979949951171,-5.114463658905029,-8.182184173583984,6.970735253224572,-6.442712111511105,-2.6102007606631545
618,0.01666666753590107,-0.2058049331942573,0.1035667574584484,0.26373276949524876,-0.07601590270996093,-5.159953490447998,-8.009652016448975,4.6226882519639085,-4.249897807725082,-3.341556499533787
635,0.01666666753590107,-0.10243947046156972,0.0955763432264328,0.31570845592617985,0.020201076507568357,-5.1696799346923825,-7.9566803047180175,1.9005857273640847,-4.02232999184542,-3.5181228659941404
652,0.01666666753590107,0.03843821426471695,-0.024942718076705932,0.4685170909374952,0.15412672273940406,-5.294775802391767,-7.801057196807861,-1.510704335552888,-3.1286518191416732,-1.1138802698937849
669,0.01666666753590107,-0.011001889273989944,-0.020530162331461904,0.4227519495844841,0.10265139617919922,-5.286846178436279,-7.849090867614746,-2.370048748124568,-2.7971850865984815,-0.333820453083775
686,0.01666666753590107,0.00493645175518468,-0.07087211008071899,0.39718496212959287,0.11387421646118163,-5.331138909149169,-7.87856947555542,-1.988136586249189,-2.5698597424343554,-1.7666053769353491
705,0.01666666753590107,-0.06690880507347173,-0.05040507611334324,0.29331951398551465,0.036062653372948984,-5.30540124130249,-7.985859052929282,-1.7196130351154268,-1.904384166316258,-3.657189786363831
719,0.01666666753590107,0.032972459672112014,-0.06467734709382057,0.2718476868897676,0.1379658706665039,-5.318569350433349,-8.008006002807617,-2.9102257845792505,-0.4162708682061724,-3.615609729130909
737,0.01666666753590107,0.060088083074800666,-0.07771978401839733,0.33508886370062824,0.17492634966201148,-5.322758618816733,-7.950245303234458,-7.482138410253285,1.3363758165410657,-2.9010361919378216
752,0.01666666753590107,0.05183018614617176,-0.10045827004909515,0.3576923251748085,0.1731306984168943,-5.329942392840981,-7.937377053833007,-8.87869609078839,1.0890895646926946,-2.2842666947910852
769,0.01666666753590107,0.02900841487934813,-0.0710766927421093,0.47294601329565045,0.15203180541992187,-5.288342554473877,-7.829788201251626,-7.21283344278979,-1.6165531645027507,-1.224238411078031
786,0.01666666753590107,0.05111263072765432,-0.04611410092115402,0.5555763657093048,0.16355390090942382,-5.248538367351889,-7.756614828491211,-6.337127632226462,-5.107162961303022,0.6225818814087115
803,0.01666666753590107,0.11234466880634426,-0.06559680002629757,0.5297580338418484,0.21173720932006834,-5.2545244560241695,-7.791031477355957,-8.262729994642777,-5.0796637659309045,1.7595672938824742
820,0.01666666753590107,0.06582858122186735,-0.14249357722401618,0.41497547036409377,0.15263035583496093,-5.310488919830322,-7.9189716285705565,-9.30531568276291,-1.9310071764839098,1.9701879163274534
836,0.01666666753590107,-0.011971327961189672,-0.06602642361521721,0.30988661790490146,0.07257424695664084,-5.220107807159423,-8.032696207427978,-9.208553246564986,0.2653333458632638,1.138063515145567
853,0.01666666753590107,-0.05548887305050157,-0.05919219368100166,0.2832517089575529,0.031423887656396254,-5.1972126692622895,-8.069207198223472,-8.796062754662284,1.8060580436852238,0.649171380960748
870,0.01666666753590107,-0.025573992584412918,-0.08075812880098819,0.3118938660740852,0.06389525680541992,-5.206939698028564,-8.047809605407714,-8.810466769848194,-0.6376826826116692,0.36406092887102137
886,0.01666666753590107,0.03399706261265091,-0.14444178868234156,0.2603869661986828,0.11896189498901366,-5.250933153533936,-8.111405587005615,-9.330478953438883,-4.12927026368031,-1.0342565925924208
903,0.01666666753590107,0.01136239771603141,-0.1394254218250513,0.22082243305146693,0.08738836516228038,-5.229684613800049,-8.160935633850098,-8.97534582886501,-6.123502366876912,-1.4766699298055375
919,0.01666666753590107,0.09669254257371648,0.017162147203087806,0.10944237149357795,0.16280570375747047,-5.059247383117675,-8.28079476993978,-9.236929267471805,-4.125492315295647,-0.555302490371676
935,0.01666666753590107,0.06603604539351071,0.01736672986447811,0.10426584563851356,0.1249473991394043,-5.0376995681762695,-8.298901504516602,-9.441595885951235,-0.6237541126250149,0.5590157654026358
953,0.01666666753590107,-0.0037167646339628844,0.03531564353108406,0.14872458056807517,0.05401917495727539,-5.003282919311523,-8.264335218048096,-9.031907479155532,0.5950134236495418,1.4312666741847009
969,0.01666666753590107,-0.05671049640048295,0.017576573222875595,0.28822423667311664,0.0026934677345212548,-5.007172912487388,-8.133102455028892,-6.970803982003096,1.3129952252384658,1.9132482577550536
986,0.01666666753590107,-0.06323951914331409,-0.035085341906547544,0.5317226119130849,-0.0022445686229737474,-5.051466227722168,-7.894580699157714,-6.544396979666493,1.0504066816066215,1.8033389880653241
1003,0.01666666753590107,-0.090338853564905,-0.06780220111608505,0.7201946809798478,-0.027682956695556638,-5.06942274017334,-7.7148659370422354,-8.285668331196618,0.6504253076428271,0.8575042101988902
1020,0.01666666753590107,-0.1297785821555182,-0.12540274169147014,0.8953858281910418,-0.0704793250705814,-5.098751125988364,-7.556399130138755,-12.244599653392333,-3.4549850241933657,0.5161097443362321
1037,0.01666666753590107,-0.14111205973774194,-0.13456862944364548,1.0971861653864383,-0.09591770857658702,-5.080346285247803,-7.370849085998535,-13.604562887901803,-7.5408490088114215,2.1268643450379066
1053,0.01666666753590107,-0.13890013757562264,-0.19604805727899074,1.1700105785787105,-0.11791442719611804,-5.113266558074951,-7.314734984588623,-13.071900340194604,-10.263293256313158,3.521064756535712
1069,0.01666666753590107,-0.10880065779024735,-0.3014981442660093,1.2062491821736097,-0.12569558259162586,-5.182099563543498,-7.2996210020869965,-13.599628930000115,-11.044386005833,2.313460630851012
1086,0.01666666753590107,-0.11915753629212267,-0.3947887146428227,1.1982260347157716,-0.1619078872680664,-5.246593663024902,-7.324012516021728,-15.146412352461422,-9.57432353699751,1.8291771668086592
1102,0.01666666753590107,-0.05603897208077833,-0.44739919184595345,1.205049158734083,-0.11985972974472678,-5.2639516250610345,-7.337030987548828,-17.754270785126085,-6.604700719848535,2.8343016152088003
1119,0.01666666753590107,0.031249015146680173,-0.5016293792054057,1.2108031922161577,-0.054468087768554684,-5.262903869573772,-7.362019882854819,-21.308875399024554,-5.375615435780734,3.4862160641732487
1136,0.01666666753590107,0.13128898671846836,-0.5766983564540743,1.1424106239914893,0.027084406280517576,-5.288791467285156,-7.45733962097168,-23.735257412989274,-7.258424101725979,3.3333639010677683
1153,0.01666666753590107,0.14542677199854515,-0.6483183622926473,1.1263438708096742,0.01825579679184593,-5.304353778076171,-7.503577640533447,-25.804487127706732,-9.631242064672163,3.109792172739387
1169,0.01666666753590107,0.23936991539942098,-0.5974424537971615,0.8078034063279629,0.07302316890107467,-5.172223481695354,-7.864802231487631,-27.87690995586117,-12.559028265607518,2.8258091287495355
1186,0.01666666753590107,0.25792925258195026,-0.5210357982039451,0.42485213673412797,0.062249243164062495,-5.032312322179973,-8.28034644165039,-27.697924848660985,-9.577689966484678,3.4422795916766726
1203,0.01666666753590107,0.23514321934878823,-0.468178068241477,0.28287352329492566,0.01840542526245117,-4.918438690240681,-8.453177873992919,-25.580750621064624,-4.951388544449833,3.587440321446484
1219,0.01666666753590107,0.18785833934890106,-0.36961160328835246,0.11757891619801521,-0.04249706120146438,-4.74665413660258,-8.655038416942954,-22.10676785258169,-0.36305955910567406,5.191701066433916
1237,0.01666666753590107,0.1997088813414797,-0.3676499478265643,0.19669804562032223,-0.03770869441376999,-4.696375901739299,-8.59967308807373,-19.907259109635408,-0.7190040354477517,6.06646815287319
1255,0.01666666753590107,0.20520492147449404,-0.39639088914245363,0.31621991257965565,-0.043245285752881314,-4.680813883209228,-8.501510820007324,-18.350862195917312,-2.8876479539475386,6.442623745938717
1269,0.01666666753590107,0.19888384696049616,-0.37866292475014923,0.46484395538270473,-0.07122749938964844,-4.606742977087199,-8.379405950817466,-18.2169819504486,-5.039996161665586,5.637428112611547
1286,0.01666666753590107,0.17461391357881947,-0.32187720768898725,0.3695131113499403,-0.11267713389741256,-4.506635712432861,-8.494777127838134,-19.31422622740176,-4.834231590277074,3.967124560991969
1303,0.01666666753590107,0.15274042861331252,-0.31260230660438537,0.2644768658608198,-0.14679448928833008,-4.450521611022949,-8.621370540618896,-20.873985301738795,-2.5250133606742864,2.3013139931857904
1320,0.01666666753590107,0.13175998349739237,-0.22339140675663946,0.11261515631079673,-0.17328032688749953,-4.295646691131592,-8.80332986679077,-20.887524444221054,1.308122845761014,2.0614413780729395
1336,0.01666666753590107,0.05978058802820742,0.016290917326509953,0.1081593459457159,-0.241964005279541,-4.010287780761718,-8.828618621826172,-17.520855900430067,3.1353133880165514,2.978826070168743
1353,0.01666666753590107,0.03101157139530405,0.08072627235800027,0.13586042281985283,-0.2684498611450195,-3.910928411865234,-8.81664761352539,-11.926790097537994,1.960511672707661,4.537868828416575
1369,0.01666666753590107,0.006061711191758513,0.2017529909223318,0.29154958170354367,-0.2985270195007324,-3.7644331977844234,-8.672097688293457,-4.153139213508566,-0.5815959439118749,7.252156549388846
1385,0.01666666753590107,0.004423332867585122,0.318828341512382,0.5742682066977024,-0.3167828436920419,-3.6445734771728513,-8.390030805206298,2.205579500457953,-5.93329568575722,10.773472528819967
1403,0.01666666753590107,0.012408449869975446,0.3302206731423735,0.7549158657491206,-0.3437175758361816,-3.6439749267578123,-8.203283075714111,7.706270214093607,-12.658627791631936,14.566689801372833
1419,0.01666666753590107,0.04170578295961022,0.2906906267866492,1.165427342441678,-0.38801030654907226,-3.7120600364685057,-7.776815904998779,12.165026242014394,-19.94913670698405,17.911083390733115
1436,0.01666666753590107,-0.07717986845541745,0.2801309465885162,1.4355050970494747,-0.5759551003387198,-3.7526115348264573,-7.489661343383789,14.962318263762068,-23.23208932966548,15.73542737591581
1453,0.01666666753590107,-0.08768887791223824,0.32739217171818014,1.4144313293606041,-0.6587047317504883,-3.739892630767822,-7.490708806610107,15.839953175879101,-25.848856036555134,13.327617500078004
1469,0.01666666753590107,-0.2803982922878116,0.8338616844311356,1.026094859597087,-0.9560346504211426,-3.2728736694335936,-7.8535799957275385,10.754774885967057,-31.52872694466914,7.908647011653792
1486,0.01666666753590107,-0.23312340395897627,1.256948857319355,0.7168009468883275,-0.9897030382018536,-2.872443441772461,-8.14582223587036,10.997755450595676,-30.32557204689847,9.27380375125341
1503,0.01666666753590107,-0.21898506155647335,1.3168375088319182,0.8697931217730045,-1.0603321333069353,-2.841468457794189,-7.971644065093994,17.069189150995467,-30.928841675150675,18.42804845618033
1519,0.01666666753590107,-0.03233735837265849,1.3401158008277416,1.1354840395987034,-1.0004769456725566,-2.875735176794231,-7.665634580883383,24.150217018276933,-25.240542313600873,33.035763788802846
1536,0.01666666753590107,-0.26283063302375376,1.1004697171017528,0.8866244295865296,-1.315613739190623,-3.159747348730266,-7.883357294353842,21.976712513048184,-12.172114270825574,37.754546825973314
1553,0.01666666753590107,-0.3212337952189147,1.0142436782836914,0.7311497902363538,-1.4258967262268065,-3.2788588813230395,-8.016385708618163,15.525969379733615,3.550865512214712,39.51001472569331
1570,0.01666666753590107,-0.7236324734088033,1.0065759201347828,0.6002127952933312,-1.8704701200623064,-3.298311769811809,-8.136095791625976,2.0795998628682413,3.794868470784717,40.510931137234486
1586,0.01666666753590107,-0.3087902009703219,0.5425248686954379,0.35653088018000123,-1.5052046562194823,-3.742286832427978,-8.38299783782959,-7.304814746568706,-6.519477034479701,44.105492357777536
1603,0.01666666753590107,-0.19416896553412077,0.16552373967766762,0.25246201841831206,-1.470937644958496,-4.084807307434081,-8.492532563781738,-8.775785630563808,-18.796064171302497,47.55878477571721
1620,0.01666666753590107,-0.36103199099153277,0.04635580072253942,-0.15977029071748255,-1.7863735675536094,-4.161421468298137,-8.902389960479736,-4.625703353595646,-32.066078417241556,45.9868782099413
1637,0.01666666753590107,-0.3147311353266239,0.24710779790878296,-0.39858839918673034,-1.8676267863951623,-3.9350197738096115,-9.131783822521566,-2.6212910668845515,-35.53250870404975,43.658903853990836
1652,0.01666666753590107,-0.15066723906844853,0.08449322367608547,-0.44716918248236176,-1.8287210094176232,-4.075978396551311,-9.167547209820151,-0.7791872334631141,-32.96494838748816,41.81803468398358
1669,0.01666666753590107,0.1788221971899271,0.03677987086474895,-0.382751363107562,-1.6452653072081505,-4.091091794531047,-9.089287327575683,-6.490693763543621,-24.371942034208473,37.51271031803067
1686,0.01666666753590107,0.4019626979254186,0.016459844152629376,-0.6722516110658645,-1.506102481842041,-4.067748620605468,-9.381379930114745,-17.457032905278176,-15.94271166439465,33.236984576846005
1703,0.01666666753590107,0.5550222389578819,0.06201952606141567,-0.8222551255285739,-1.410633544512838,-3.95192911529541,-9.55121861038208,-30.376525258106764,-6.135917943240703,28.97918808223263
1719,0.01666666753590107,0.700505645647645,0.22003625110983846,-1.1358487812578677,-1.3120225097656248,-3.6637270904541013,-9.912892698669433,-38.96881785661818,0.23444616321940834,29.881664392361
1736,0.01666666753590107,0.6864297740221024,0.4690834926486015,-1.2916355552971361,-1.3587092960081995,-3.3150711814329026,-10.104578469085693,-31.876906082894294,-2.44306432412565,33.55888114714495
1754,0.01666666753590107,0.7638194493032991,0.6244441502302884,-1.3666215304374694,-1.3301286598205566,-3.080589348602295,-10.20169327392578,-20.759251784060922,-11.014736154645973,34.03020176591627
1769,0.01666666753590107,0.8382342004269361,0.759454678222537,-1.4377303718835115,-1.344344086047262,-2.8719942367002367,-10.281899029541014,-12.619588991657082,-16.861773381375105,34.0336578416363
1786,0.01666666753590107,0.6545823911234736,0.7780746230185032,-1.5714005911827087,-1.595735260363668,-2.805256157684326,-10.418218886566162,-12.717229960936999,-13.646442192797737,32.53892216819778
1802,0.01666666753590107,0.646918432366848,0.7572802567929029,-1.6699129878610373,-1.6578350120544432,-2.7760768249511716,-10.522815571594238,-13.975245791894858,-8.263501806018988,31.82186158837316
1819,0.01666666753590107,0.4072207645840943,0.9354930899128318,-1.8362351844400167,-1.9565116691589355,-2.5299226745054124,-10.70043540725708,-12.1163841960665,-5.6831079908937685,32.804961451464365
1836,0.01666666753590107,0.3158727065771818,1.0350038499787448,-1.72130707501173,-2.0949263065062462,-2.383876373235881,-10.59090068130493,-10.748274253424498,-9.44801114112917,33.71636481883794
1853,0.01666666753590107,0.3253273481428623,0.8862421522706746,-1.8018758187204598,-2.1435586738586423,-2.4863784240722655,-10.673201363372803,-10.45680617587796,-15.127050473711728,33.246956653034225
1869,0.01666666753590107,0.3407517117679119,0.5165989848002791,-2.1053987468123436,-2.2143372604370115,-2.8025623885557054,-10.972476570892333,-4.981356426320088,-14.976600189316564,27.736807408058574
1886,0.01666666753590107,-0.08331044363230466,0.47071372419893737,-2.3873545707404613,-2.6850971618652344,-2.8285996238708493,-11.248258674621582,1.3980686464455596,-6.929404071009533,19.870108003192417
1904,0.01666666753590107,-0.27566607613414523,0.6030003801852465,-2.39746504586637,-2.8980314720153806,-2.6898855651855467,-11.25469309158325,1.577502945305378,0.9506703383553913,13.018335435402426
1919,0.01666666753590107,-0.38281215338408947,0.588493131405115,-2.1758792272269725,-3.0056209091186523,-2.689586289978027,-11.03846675415039,-5.30092817098029,4.939802836070199,8.383471517469323
1936,0.01666666753590107,-0.13086071483641862,0.5047507260963321,-1.7165175026476382,-2.749890244293213,-2.7483935759946703,-10.589404305267333,-11.446886492300912,4.5375298802790125,9.156088856002826
1953,0.01666666753590107,-0.13958558082282543,0.49753714145570993,-1.5654203477293251,-2.758718570654094,-2.712031930541992,-10.454131911468505,-19.934991385212953,3.160751787250029,13.038365818917134
1969,0.01666666753590107,-0.23834523026049137,0.5059206466585398,-1.5283867943644522,-2.87289235458374,-2.6144682128906247,-10.44425582962036,-26.43941126766736,-2.6669357270038656,18.401209227836766
1986,0.01666666753590107,-0.37733635232150553,0.44377807873934505,-1.6616957791358231,-3.043628860473633,-2.6024969123288986,-10.593743795776367,-24.554936462451455,-11.821185981459488,20.03945400592642
2003,0.01666666753590107,-0.43667321517020463,0.2642293208405375,-1.8569670068234203,-3.175160314178467,-2.7011080932065843,-10.794407822418211,-15.924393097040676,-19.374244807185953,17.63928625799621
2019,0.01666666753590107,-0.4603633028373122,0.11819734035730362,-2.0369927345842123,-3.2493805656433103,-2.8006173919677733,-10.97412258453369,-15.403413587908783,-11.437872350143788,13.275214581218375
2037,0.01666666753590107,-0.7527154330953956,0.03479571131020784,-2.2367507522970436,-3.5550901901245116,-2.8312925162166356,-11.186757619476317,-23.863675214669268,7.386264752421108,8.466899716860091
2053,0.01666666753590107,-0.765478760817647,0.036814649917185305,-1.9081705398380755,-3.5116949927732346,-2.7238533012390134,-10.908581314086913,-39.71764906136711,29.957018454379167,1.5006196679650698
2069,0.01666666753590107,-0.7115943181559443,-0.07757336128503084,-1.5400801547676324,-3.376272961370647,-2.735225466863811,-10.595838137707114,-46.06959863097933,37.093213759586824,-1.009374853776299
2086,0.01666666753590107,-0.5598185333237051,-0.038762276853621006,-0.8677490487247705,-3.1380498961851,-2.583343591308594,-9.980828170776366,-47.84933760791496,32.35512860782191,-1.8273374980443986
2103,0.01666666753590107,-0.37737434624433513,-0.05989332768768072,-0.43673079057633873,-2.8803742347717285,-2.457348728942871,-9.610475101470946,-42.08954836386993,12.864931094191231,0.24466879529237537
2119,0.01666666753590107,-0.2985121141925454,-0.16646102052778006,-0.29358430240154265,-2.7899934143617746,-2.473509444018453,-9.49360813293457,-32.16734963206533,-2.2283679997368777,2.5702477825565766
2136,0.01666666753590107,-0.30536943274140355,-0.03006561404839158,-0.32328327509462834,-2.8158804275512694,-2.2661118713378903,-9.535656299591064,-25.159870949313852,-10.683835687473659,4.161181334369433
2153,0.01666666753590107,-0.4508025705486536,-0.09193842511549591,-0.7347147892415523,-2.9978397537231443,-2.2466588367186486,-9.956437241363524,-24.349868570358286,-8.169977733261296,1.5161596289873183
2169,0.01666666753590107,-0.5048445418596268,-0.208733351328969,-0.891299435660243,-3.0609868225097654,-2.3014263458251953,-10.124779545593261,-28.02340043808502,0.25790223344842217,-4.011426021722318
2186,0.01666666753590107,-0.5918962178468704,-0.25767566141337156,-1.0557716204583645,-3.13460852355957,-2.281075485583395,-10.308384885406493,-32.78389714806404,6.780393675868773,-10.103757112774584
2203,0.01666666753590107,-0.5618205207958817,-0.2528077631160617,-0.9788958860486745,-3.07430427698344,-2.1781246680662036,-10.260650489807128,-32.820988490351795,4.841684607322027,-13.45181680617187
2219,0.01666666753590107,-0.4763406241700053,-0.209538091840595,-0.9210819949835538,-2.9780875900268553,-2.0709842899046835,-10.218751960754394,-26.4429100320697,-1.7145894309808825,-12.614073613902296
2236,0.01666666753590107,-0.22948007902055978,-0.04923793203011155,-0.9067571170330047,-2.737769306127727,-1.8610427318297325,-10.212466596874593,-20.413814966787527,-7.552018929425331,-9.889518837947026
2253,0.01666666753590107,-0.07641863829195499,-0.08061462867707013,-0.8703700448781252,-2.605489956665039,-1.846677521868795,-10.179247633361816,-12.22306492071293,-6.901624410994621,-7.646718648493912
2269,0.01666666753590107,-0.07330839731693267,-0.023590134423971176,-0.7601420759648084,-2.6095301719665525,-1.7717090823851525,-10.070461095428467,-7.179351001704742,-2.102658794949616,-8.678467387722174
2286,0.01666666753590107,-0.10791472353488206,0.19027473457455635,-0.3711860129982233,-2.6412533439636228,-1.5497966621398924,-9.683797527313232,-4.938063699152785,0.15309372768651697,-10.62313921141434
2302,0.01666666753590107,-0.10654226613789797,0.21856968568861485,0.030662849289178847,-2.6382605918884274,-1.5122374774657188,-9.284115487670897,-7.12222543392087,-4.337228606452865,-10.598917653070183
2319,0.01666666753590107,-0.10607289506047964,0.2559638890594244,0.13162848433852195,-2.653373697607219,-1.461809604998678,-9.181313869366049,-9.058757806556498,-12.906111158470885,-9.508839952103658
2336,0.01666666753590107,-0.08777794443517922,0.23812924942225216,-0.013027823877334595,-2.690184840393066,-1.457470260620117,-9.31479119644165,-7.482546514056192,-23.122476746317822,-5.407800994697126
2353,0.01666666753590107,-0.06322422567605972,0.31383710909634827,-0.21608196052610873,-2.7259479354307055,-1.3733737811766564,-9.502287113952637,-1.0005140707103826,-27.689298319739258,-2.6909109716510797
2369,0.01666666753590107,-0.009714169284701347,0.33024083914756774,-0.3174322109788656,-2.7392656821653247,-1.3639464660093188,-9.58294119785726,5.01178022331744,-27.518138901780617,-1.4165338494232775
2386,0.01666666753590107,-0.03688186993449926,0.38167818091809746,-0.5005845463275909,-2.847453669683635,-1.330278151293844,-9.738564305767417,4.3552530487857055,-22.008751222897423,-0.07548028711567868
2403,0.01666666753590107,-0.13685235646665095,0.26768939816653725,-0.6972831764698029,-2.9908064940854904,-1.4495393214903771,-9.920973129272461,-0.047197687722059144,-13.35175282728389,-0.17409784004477558
2419,0.01666666753590107,-0.20155279217511415,0.22275559307113288,-0.738657973909378,-3.0752021026059984,-1.4893427779600024,-9.957184844860434,-4.894513132344314,-3.814357561807702,-2.7995032954914665
2435,0.01666666753590107,-0.2625394680574536,0.2085429433234036,-0.6454670645147562,-3.1338603355407715,-1.4890436488829553,-9.867402867126465,-9.453087679229782,3.2934117767348363,-5.75556477204338
2453,0.01666666753590107,-0.17564707428514956,0.1503692790351808,-0.4381681299030781,-3.0303111137390135,-1.518671894427389,-9.670479780578614,-11.349197711696805,2.690275550614857,-6.506320382590964
2469,0.01666666753590107,-0.10906360130906105,0.09988616924956441,-0.32421500298678874,-2.961776798956096,-1.5487490527831016,-9.560795417022705,-8.418538562441816,-3.297719278223587,-3.964374556077393
2486,0.01666666753590107,-0.022706629587709904,0.10991218096241355,-0.32109131800830365,-2.8956372703552242,-1.5263035583496092,-9.553612812042235,0.23149730908653468,-9.051787598508499,-0.02489745358729808
2503,0.01666666753590107,-0.03343231400251388,0.19350567931979892,-0.3490858248710632,-2.929754644012451,-1.4487911334715782,-9.573215338134766,4.800528448704469,-9.549392492753316,2.2921952637570002
2519,0.01666666753590107,-0.07350158180147409,0.19900939130261538,-0.43136663319468493,-2.9926024375915525,-1.4523824359618127,-9.64668740158081,4.454131989852688,-7.772104699956067,4.37962700572572
2536,0.01666666753590107,-0.2233396765694022,0.06905863091796637,-0.5559755941599607,-3.160495536749065,-1.5876549758911132,-9.764601833343505,3.0426093648460837,-1.884294445533135,3.7973508176611936
2553,0.01666666753590107,-0.2805719683542848,0.06382350674346089,-0.43352877966463566,-3.2194530448913574,-1.5987280124388634,-9.64055225982666,4.338760703261063,0.4351553540854792,1.2878270453640266
2569,0.01666666753590107,-0.26094518460333344,0.08013239811807871,-0.28914135151803494,-3.1992516761228442,-1.594238738195598,-9.494206683349608,6.00841410624902,-0.5236224188147173,-0.657147494446589
2586,0.01666666753590107,-0.17521715843528507,0.09951119845733046,-0.03323416108191013,-3.117400199127197,-1.5957354064941405,-9.233238702392578,7.792944460887422,-2.9129809121357044,-1.9276095842586516
2603,0.01666666753590107,-0.04053454722315073,0.009020634062588214,0.06460077472627163,-2.987963379614055,-1.705569261523336,-9.130138393402099,9.351553502122957,-2.2871720865092793,-2.1573000948663066
2619,0.01666666753590107,-0.06288549524098634,0.05554214674085378,0.09122691584527493,-3.0108579329892993,-1.682076157733053,-9.099013771820069,10.318332628192413,1.5508563496407484,-1.3444140954205246
2636,0.01666666753590107,-0.05945902792364358,0.1475454537861049,0.16398352449834347,-2.9970912734434005,-1.6283561118528247,-9.022249681091308,15.877486772915613,4.123647310446097,-0.7699426257823548
2653,0.01666666753590107,-0.01476911458671093,0.18411372772678733,0.39284313353300093,-2.94980608291626,-1.6301519092284142,-8.786720092773438,19.748108871784943,0.16048185793435515,-0.1083063096688922
2670,0.01666666753590107,0.021006839932501315,0.21858356808349488,0.5144575888574123,-2.921075662994385,-1.6436194396972654,-8.653243350219727,21.883852676187278,-4.868314234235438,0.4005678097370635
2686,0.01666666753590107,0.10917729081660509,0.16021861900687218,0.7456155379623174,-2.855684030151367,-1.771409807177633,-8.400355799865721,22.85094428341126,-8.312092625548106,-0.8172294127885282
2703,0.01666666753590107,0.12367986342161894,0.24426760604679584,0.912030673521757,-2.8618191719055175,-1.7383398967467247,-8.21630154724121,21.094550893058724,-8.700429007224704,-2.4533226279287748
2719,0.01666666753590107,0.17582593798339366,0.32274829143509265,0.9496417345136403,-2.826953610229492,-1.7093102016173303,-8.162132734680176,20.354218151184583,-7.0653359345501885,-3.636720136308126
2736,0.01666666753590107,0.2633680278360844,0.36811610403358935,1.021172600764036,-2.7563246612548826,-1.7360953326903283,-8.068609232330322,21.996721552221736,-5.827367562579962,-5.302301892777109
2753,0.01666666753590107,0.2836304791420698,0.52127384474352,1.1279624119222162,-2.7476453879758713,-1.6374841518126426,-7.945157624706625,20.093340783383237,-6.571332684432084,-5.121694615649047
2769,0.01666666753590107,0.30272505571246144,0.5103134747900069,1.1112918476283549,-2.742707639312744,-1.697339193316549,-7.945307846832275,18.764124499196225,-7.596898394914192,-3.6816136890621505
2786,0.01666666753590107,0.37577304852753873,0.43838191878423094,1.0009323612898589,-2.692878317260742,-1.834556583703309,-8.03164815967977,20.5206220499336,-8.586796857550494,-3.5442803560811735
2803,0.01666666753590107,0.2642708218947053,0.5098160466618835,0.8716226752877235,-2.8224641898557543,-1.813607319176942,-8.141931073650717,19.72472230406682,-8.59468572604186,-3.8472893188909185
2819,0.01666666753590107,0.2579068398207426,0.49925753550752994,0.7702911295354365,-2.846106931249797,-1.8715173640929161,-8.224979943737388,18.239724772837448,-8.259404546290627,-4.087619770121572
2836,0.01666666753590107,0.29010376680940386,0.37193347036466,0.592197246620059,-2.8371289672851563,-2.0617069046020506,-8.378209434509277,19.369955448387184,-9.233418550238417,-5.052229884242725
2853,0.01666666753590107,0.21692308752536774,0.44008068552613255,0.4385334560841322,-2.9296050064086914,-2.043600754547119,-8.511386901855468,19.605779682312924,-9.74378394540011,-5.360886559722425
2869,0.01666666753590107,0.17711773135960102,0.46388826209306716,0.3427256421893835,-2.9876643966674803,-2.0684405967712403,-8.58710352935791,18.23068672501823,-8.855890089149717,-5.246308428848168
2886,0.01666666753590107,0.16629150917977092,0.4589788627415895,0.2110556567966938,-3.020883944702148,-2.130989115142822,-8.694244053649902,15.56231110875996,-8.822823435830394,-5.693151357181449
2902,0.01666666753590107,0.2039604378387332,0.39111353326141834,0.14897709402441978,-3.0005329383298753,-2.2382789847776294,-8.738536784362793,14.537652959663816,-9.714730028218169,-6.246679279029392
2919,0.01666666753590107,0.20051731164753436,0.4292094551607966,0.11593816325366496,-3.0238764045163986,-2.2381290549129247,-8.75305163192749,14.130066543585183,-11.191462176778177,-5.921080746200299
2936,0.01666666753590107,0.21242314575761556,0.5255395393639802,0.0371785147935152,-3.0443767562314865,-2.1920409652158614,-8.804676020702718,15.326391252185843,-13.08122184086438,-4.503229950927678
2953,0.01666666753590107,0.257766262306273,0.4419003021687269,-0.10258359163999557,-3.0268694488525387,-2.315791263525188,-8.921693211364746,16.927636895541536,-13.398610486311117,-4.02426506981465
2969,0.01666666753590107,0.24740561181157825,0.43335809927284713,-0.14651216521561145,-3.062333853204548,-2.3683143547058103,-8.942343200683593,18.44733178775457,-11.000227125301574,-4.905678357203169
2986,0.01666666753590107,0.2680366041690111,0.36940643610507246,-0.21466449494361875,-3.0602386344909664,-2.4965537811279295,-8.98274535369873,18.911286047506028,-4.281061399586911,-6.657210360413947
3003,0.01666666753590107,0.2507774263322353,0.3140630268067121,-0.18227438347041605,-3.0755016700744626,-2.599803727722168,-8.935310233306884,17.99588018927882,1.0010276155586029,-7.813704820869676
3019,0.01666666753590107,0.26369360652863977,0.35506402249783275,-0.06547755756080151,-3.051559361211955,-2.6057889396116134,-8.806920584759116,17.3126444137714,2.2870922586733546,-8.20560912261396
3036,0.01666666753590107,0.2742839741259813,0.40299657101780173,0.17758125721812248,-3.031358284704387,-2.620752992248535,-8.545953188323974,19.19067664305269,-2.4479839813187634,-8.117866804988683
3053,0.01666666753590107,0.3720046359047293,0.46984044849574563,0.42102702548801896,-2.938732607977092,-2.606985748180747,-8.281991870769858,22.054995018672994,-7.500819831406916,-7.645420058777963
3069,0.01666666753590107,0.40787148357778785,0.5259533808618784,0.4617816452026367,-2.918232256262004,-2.6075848831176756,-8.215104446411132,22.015036704481126,-11.017014876507819,-7.535504385785886
3086,0.01666666753590107,0.4310866472095251,0.4718231467455625,0.39719548352360723,-2.9198785621643064,-2.7286414122983813,-8.245630517578125,17.505233550250956,-10.575325325903313,-8.328885499396227
3103,0.01666666753590107,0.3841822726935148,0.38074908337444063,0.30288755279779433,-2.9792843985959885,-2.8621178625911474,-8.31925163410604,14.75000012586493,-7.306160293835198,-11.030392655770935
3119,0.01666666753590107,0.35717765365093945,0.3595870528802275,0.18574001375436783,-3.0053213416501876,-2.9245170356199144,-8.42115484226644,13.399667458085176,-1.2021358122021641,-13.927904043210207
3136,0.01666666753590107,0.25122137070745226,0.3482017355129123,0.07550386153459548,-3.0871734031677245,-2.9912556991577146,-8.519467332458495,13.124178608101882,4.351322274918363,-16.257221385106227
3153,0.01666666753590107,0.20021394478678703,0.3597100947380066,0.11485036801695823,-3.1133596915647384,-3.0219311156675217,-8.473229312896729,13.565598366234173,4.041810972018766,-16.159623104508622
3170,0.01666666753590107,0.18106529994159937,0.3685734924122691,0.12685703215301036,-3.113808604376018,-3.059040949138999,-8.450185121917723,16.293810708489985,-0.1699046241627034,-14.981435963248932
3186,0.01666666753590107,0.16986410696953533,0.3452762034550309,0.17059622063636778,-3.1202433135986327,-3.1522654685422777,-8.380005085754394,20.67526436293186,-7.505620600619788,-12.715875875934044
3203,0.01666666753590107,0.11470832919776439,0.29611323635727166,0.17411153528094292,-3.1841385704040523,-3.258658097076416,-8.349479014587402,21.366791988091677,-10.27498397885128,-12.104547478234869
3220,0.01666666753590107,0.033416531911492346,0.3011766572266817,0.057712184256315226,-3.2754172164365647,-3.309385244750976,-8.438513388824463,19.42732049967883,-8.142815778479447,-12.83208727579358
3236,0.01666666753590107,-0.13219430152773856,0.30355040062069893,-0.05015665431022644,-3.433435110528767,-3.3768718040466306,-8.519317694854736,16.600503277696482,1.005396482028178,-17.6043720385064
3253,0.01666666753590107,-0.22657091357558964,0.31577509142160415,-0.042514030602574346,-3.497778987884521,-3.4151787383481857,-8.501211544799805,14.444490886932135,8.67048716545066,-21.694309804077545
3269,0.01666666753590107,-0.26665508668273685,0.3528270572260022,0.0425596233099699,-3.4893989898130298,-3.4275983671993013,-8.412775136455894,13.142661099995937,14.38506482605844,-24.11819367635333
3286,0.01666666753590107,-0.22072452563494444,0.4430941881284117,0.3464981464654207,-3.3643022453308102,-3.403357659912109,-8.108861747741699,14.374575363040593,16.283449311519075,-23.442098863623155
3303,0.01666666753590107,-0.07656564554721117,0.5260290764465928,0.6623720220863819,-3.165283940069377,-3.3717838332578536,-7.789684738922118,16.404208763592194,12.766237422005487,-20.528218927837948
3320,0.01666666753590107,-0.002189034476876259,0.5314379497528076,0.8042980285555124,-3.049764002227783,-3.4199674339294432,-7.637802571105957,18.707577363057688,7.363916373456826,-16.58235717261905
3336,0.01666666753590107,0.07936579765975475,0.42691754483133554,0.9797054488658904,-2.935590510559082,-3.5969881346553563,-7.439831436809897,20.68085145767293,2.2863368824398336,-11.576508968595768
3353,0.01666666753590107,-0.001866378393769264,0.38854426729530095,0.9385644601821899,-3.0029274322509765,-3.6897640335083004,-7.4597338226318355,21.61904624206588,0.5159668973330437,-9.567789607282746
3370,0.01666666753590107,-0.038190029923617835,0.35612346842288967,0.8411497956126928,-3.028665100097656,-3.7784991325378416,-7.5333555236816405,23.79930751193107,0.4154339832698607,-8.645962517462083
3386,0.01666666753590107,-0.16479951705634593,0.24747984609156845,0.7316904729843139,-3.1419407661437986,-3.9692867850705977,-7.606528311920165,26.416965558507407,-0.036652742757418935,-8.557625119605369
3403,0.01666666753590107,-0.2636176186829805,0.1960384126678109,0.6931669733226299,-3.231872966003418,-4.085405857849121,-7.615207292938232,26.68581034197557,-0.8596965942007585,-9.334343132961818
3419,0.01666666753590107,-0.2736851314499974,0.15813246038258075,0.6896914061665534,-3.2282816635131835,-4.209305501501262,-7.578696302142739,25.63634323826665,0.07426272585484457,-11.508099501416213
3436,0.01666666753590107,-0.3016457360431552,0.2110530264481902,0.7378478265702724,-3.240252671813965,-4.219929771368205,-7.502381124225258,24.6171304574863,1.9486713263380322,-13.00618538264262
3453,0.01666666753590107,-0.29254122308939695,0.29965251639932394,0.8180722868859768,-3.210025875854492,-4.19179790186137,-7.396886029052734,22.282518865209873,3.5309392890848463,-13.119959258742107
3470,0.01666666753590107,-0.324057766598463,0.2502183311447501,0.7994032422512769,-3.2103251510620114,-4.313752841186523,-7.38656103439331,20.341232254025094,3.177205499517178,-13.363433304538258
3486,0.01666666753590107,-0.31340953133404253,0.2573126733198762,0.795445444536209,-3.17935016708374,-4.361337599182129,-7.3669585083007805,21.84143378634691,0.7076709907065551,-13.227775502338051
3503,0.01666666753590107,-0.36361879261434077,0.2745058001831174,0.7380693603664636,-3.2158617424011227,-4.402787215423584,-7.395688928222656,23.734745148801522,-3.031586933629564,-13.262825471837617
3520,0.01666666753590107,-0.35560587428957224,0.25031769986599683,0.5751619406670332,-3.1995512435913085,-4.506785350036621,-7.515099736022949,23.388147199369225,-5.094201396692453,-12.413991759903235
3536,0.01666666753590107,-0.3571902208715677,0.26022476137429473,0.4852823477774858,-3.1938650146484373,-4.553622212274372,-7.573907314300537,21.605071675024035,-2.2060676455401973,-12.434799931209678
3553,0.01666666753590107,-0.43926644653379915,0.3044347822397947,0.3466296638906002,-3.259855197906494,-4.561253437805176,-7.68703334274292,18.98491036411689,2.4110969043758748,-13.110758140156454
3570,0.01666666753590107,-0.46325376358181236,0.3410065633118152,0.3137058839321136,-3.2481834648132324,-4.5877387091487645,-7.6939166725158685,17.937823581333713,6.6402424629683425,-12.8066636041555
3586,0.01666666753590107,-0.4214645401224494,0.34146249038577076,0.3438789038777351,-3.1760581398010252,-4.63502477645874,-7.644686485400795,19.683729216215696,6.920088119868459,-11.79687819197706
3603,0.01666666753590107,-0.2496606972619891,0.3338496772944927,0.551062687677145,-2.976591213989258,-4.694879817962646,-7.4142445756107564,22.574690452240922,5.2063428575803075,-10.866305898697842
3619,0.01666666753590107,0.0008396656945347785,0.33236090004146096,0.8028127584338187,-2.6988638214111327,-4.769548982238769,-7.125144140624999,22.348643634112058,1.6858546116992272,-9.444088051224645
3636,0.01666666753590107,0.13422785318195818,0.28516251101493834,0.8603075005471705,-2.552368607330322,-4.86516682651937,-7.040748532104492,17.794618420100644,-0.27199320719084935,-8.387141036600912
3653,0.01666666753590107,0.2990577653765678,0.16581541610062123,0.7918728467464446,-2.376394785308838,-5.030068050384521,-7.083095973968505,10.75929305610302,-0.9870248739864305,-6.896956403583741
3669,0.01666666753590107,0.44808717411011456,0.17499124072492123,0.6198281808674335,-2.2189760261535643,-5.045031810760498,-7.242011693683266,8.639238196224206,0.4809211967017083,-6.402063948213066
3687,0.01666666753590107,0.5192199809536338,0.23197978688180446,0.5606003313511609,-2.1363760688781737,-5.0095671141475435,-7.29079296798706,8.375421285758817,2.7484045158764854,-5.412450645974612
3702,0.01666666753590107,0.6457198702320456,0.2993500263214111,0.5289823732942343,-1.9922747641965746,-4.96721967228353,-7.311592010387778,6.360373754179777,3.5397015680163264,-3.603970233011561
3719,0.01666666753590107,0.7828001902356744,0.2731950098454952,0.5264227519392967,-1.84503165435791,-5.004480604663491,-7.3100962188720695,2.583945513493626,2.7143995653199307,-1.5387699030175876
3736,0.01666666753590107,0.803674051438272,0.24747020148038862,0.523604187387228,-1.8185455062314866,-5.030516963195801,-7.314584762462973,-2.7739374705412856,2.2529895510343043,0.2691723390636341
3753,0.01666666753590107,0.7829130029603838,0.1937877111315727,0.4333633599698543,-1.8302175315856932,-5.069572377777099,-7.417685655975341,-6.8332576324973795,5.318720386881351,0.026012535330155555
3769,0.01666666753590107,0.8086924641221761,0.18224340381026266,0.3240302940696478,-1.7881690726682542,-5.068075417217612,-7.541136094555259,-6.122191824329916,9.879869488197091,-0.013719128639058189
3786,0.01666666753590107,0.7864969989269971,0.21912673504948615,0.35404257049560545,-1.7854758880615234,-5.0197430557250975,-7.526920522198081,-5.486666200835502,13.807138614721566,0.7202554008088922
3802,0.01666666753590107,0.9086413233444094,0.1900812578290701,0.596083732664585,-1.6340423407956957,-5.035005506786704,-7.30351157978475,-7.873643999704769,15.472297753235654,2.7835334594383303
3819,0.01666666753590107,0.9799594236269593,-0.021178981629014014,0.7609557304352521,-1.52585464553833,-5.212775564575195,-7.172429623413086,-14.213097738230443,15.533615776509444,5.082615688312819
3836,0.01666666753590107,0.980295523713529,-0.14180676400363446,0.7904273241132498,-1.5016130614683032,-5.296422400555015,-7.174523965343832,-17.88070441685219,14.31545409935861,6.451741621593861
3853,0.01666666753590107,0.9314151729494333,-0.27816812208294867,0.7227730070352554,-1.5270517463684081,-5.372737578472495,-7.287949853515625,-20.526361116383704,11.228217986022955,8.412032807257377
3869,0.01666666753590107,0.8912384992532432,-0.4684165531724691,0.4835632688999176,-1.5550339782714844,-5.514294751629233,-7.561637030792236,-20.97607955435756,10.232599239956766,9.36141544151081
3886,0.01666666753590107,0.8157889982543886,-0.5781102690786123,0.301605111771822,-1.6217722034178674,-5.572952692303061,-7.7780124213069675,-21.637749007560668,10.31649957617391,10.061455189923757
3903,0.01666666753590107,0.7071377771385013,-0.7394938402116298,0.04689969834089279,-1.719036645861715,-5.663184751892089,-8.079681830486654,-22.745351266390156,9.928748029444995,10.780267713270485
3919,0.01666666753590107,0.5336940581165254,-0.9501470536872744,-0.2097264540195465,-1.8876783714294432,-5.8174611213684075,-8.371625379943847,-23.40341779480608,8.369055549452366,11.964654958749252
3936,0.01666666753590107,0.4118805730886757,-0.9828560218513012,-0.32069325860142706,-2.008435917663574,-5.7929202620908615,-8.51677385559082,-22.293862101873973,7.59379663525736,12.908558927514688
3953,0.01666666753590107,0.19573358450233935,-1.0339002726510167,-0.41169980969429015,-2.2219686320982874,-5.776609763281047,-8.647706174358724,-16.431488539137224,10.054685618682628,11.933972041450263
3969,0.01666666753590107,0.12091843588426708,-0.9834919816672801,-0.21667641928791997,-2.282721791485697,-5.6907177787229415,-8.477119890594482,-10.064552680712358,15.91861817209743,9.820816526406807
3986,0.01666666753590107,0.11459610099494456,-0.9466443062633275,0.009582067337632179,-2.259228541564941,-5.632658388464153,-8.271517823028564,-5.132903382963861,21.300021766312927,8.243316889474308
4003,0.01666666753590107,0.2459422612607479,-0.8153186042636632,0.5675199014812707,-2.0784663162231443,-5.479279844610392,-7.740005054473876,-6.174150780893496,21.602102250282375,10.5344893324031
4019,0.01666666753590107,0.384567034227401,-0.9101514356464147,0.9938327584177256,-1.913116617938131,-5.5502080687925215,-7.334487148284912,-9.069032972389136,15.968205345471723,13.367329927459751
4036,0.01666666753590107,0.3737964877575636,-0.9739157595485448,1.055149104645848,-1.9138649520874023,-5.584475664575398,-7.292289344024658,-9.667181666311125,9.660483812056281,15.230524424542836
4053,0.01666666753590107,0.27458587968200443,-0.9341896060988306,0.8715940337151289,-2.017264390154928,-5.507711281585693,-7.495048297119141,-7.16961883591112,5.090048214790262,15.153645522792464
4069,0.01666666753590107,0.0969198667898774,-0.9027890901848673,0.5485013127565384,-2.20236625213623,-5.453392539159953,-7.828590515899657,-5.760833836101222,4.508747890003402,14.723116501291758
4086,0.01666666753590107,0.05879252683892846,-0.9075374537557362,0.43665714081823825,-2.248304996490478,-5.438279433441162,-7.949048786926269,-4.439693823720927,3.8431873634075027,13.569513772175883
4103,0.01666666753590107,0.02191635599285364,-0.910092983457446,0.35213936722278594,-2.2942437408447263,-5.422268209838867,-8.041075913238524,-1.6735290017334103,2.343451564609715,9.922845892228457
4119,0.01666666753590107,-0.00489405565187335,-0.7766916442275047,0.4735895718961954,-2.3279122016906735,-5.282656033270061,-7.9210665550231925,0.6021057213289537,0.6791600202027765,7.210901353028323
4136,0.01666666753590107,0.02728285146206617,-0.6601920476987958,0.5820610525310039,-2.3027732303895054,-5.165340444183349,-7.811082916259765,2.071835858772641,-0.1630186995818463,5.555150373209104
4153,0.01666666753590107,0.09789689512848854,-0.44619215414375063,0.7967810770541429,-2.2436662307739255,-4.9537528724670405,-7.591863826751709,2.6206761364158386,-2.274556513668854,5.391811521850126
4169,0.01666666753590107,0.24336992655470965,-0.28388182355463504,0.9687117611646652,-2.112284268542379,-4.808005554144084,-7.407061386108398,2.7534701683631075,-5.662068873816014,7.0906225755180445
4186,0.01666666753590107,0.2500719084113836,-0.2161918506413698,1.0258949531108141,-2.1339818672180173,-4.745606965637207,-7.3389762763977044,1.7938723458756864,-12.447068658506314,9.671791190227237
4203,0.01666666753590107,0.271936534217,-0.13520984995663166,1.0030933387160301,-2.1815669174745675,-4.66435345453471,-7.34181939086914,-1.010838755414503,-22.19706978359843,13.195191231128858
4219,0.01666666753590107,0.29526772544384,-0.2793552860409021,0.8062690363675356,-2.2246619628354907,-4.798279402160644,-7.524377267456054,-5.547231195753297,-23.672914861339983,14.019440530919425
4236,0.01666666753590107,0.3059799658551812,-0.29488135647475716,0.6421598396629095,-2.277334691619873,-4.789450491277873,-7.682244939422607,-9.848349018951128,-19.40758637561937,13.722299127493544
4253,0.01666666753590107,0.26918051350712774,-0.4348571056589484,0.3482587263971567,-2.3772926109313963,-4.888360947363078,-7.978377172741293,-11.776592530142121,-11.315442916818602,10.915475576759118
4269,0.01666666753590107,0.17435908030122518,-0.5776338837385178,0.11672259162962435,-2.5046339194700122,-4.996249659673869,-8.218096613964438,-13.237151644521186,-7.932795145464372,10.910660293394258
4286,0.01666666753590107,0.2151616308107972,-0.7138514494329691,0.022291326785087585,-2.495506317901611,-5.096357216589152,-8.321347729602456,-12.27800781617016,-10.161350975403424,11.245514586322365
4303,0.01666666753590107,0.32512451904714107,-1.0650015133574604,0.05626841518878936,-2.445227790777385,-5.402815321350097,-8.291120349121094,-11.3690488027458,-20.10050565182258,12.032196138130569
4319,0.01666666753590107,0.18949732046127318,-1.2474053684264421,-0.10362053347229958,-2.6517279762268067,-5.549160897827148,-8.445845631408691,-13.38433795226673,-31.98461475101081,13.786377400965666
4336,0.01666666753590107,0.09496376428604125,-1.41368401812464,-0.36575054394602774,-2.846256861114502,-5.672013370513915,-8.69559079208374,-16.223843958179668,-44.7307961762922,15.355825952414012
4353,0.01666666753590107,-0.3328179961591959,-1.6119772239819168,-1.4081518106997013,-3.435978657531738,-5.805789388275146,-9.711928812298178,-16.614761297588885,-48.386395382353065,12.80645613715946
4369,0.01666666753590107,-0.8836424911662936,-1.5071844318598508,-2.0923843669384716,-4.0915409996032714,-5.661239755304157,-10.376320357513427,-12.588649942264215,-37.581664492796534,5.868583485352758
4386,0.01666666753590107,-0.957055810162425,-1.3958625302299856,-2.189007588869333,-4.2317514343261715,-5.524769968414306,-10.459369227600098,-9.755984370805045,-22.321911981247922,-1.5827604834189952
4403,0.01666666753590107,-0.7121817626550794,-1.3357567288354038,-1.7703285878121853,-4.030189582061768,-5.441721098327636,-10.034847345733642,-8.563231851140303,-13.65453852828514,-2.9262558116744475
4419,0.01666666753590107,-0.3072428253978491,-1.3056518056899309,-0.9830284558087586,-3.6584897743225095,-5.397428075353801,-9.241169495391846,-4.534300908348889,-19.40792617753058,2.013502628166147
4436,0.01666666753590107,-0.1638420702010393,-1.104519869275391,-0.6512661061823368,-3.5775358306884764,-5.19047956161499,-8.88667801208496,4.5511876972981,-33.75198767045414,9.803615548755776
4453,0.01666666753590107,-0.09933540349900721,-0.7919219465851783,-0.3042418900161981,-3.6616321640014644,-4.895693189947306,-8.467543083953856,20.48718144375722,-55.09631516636565,19.365246032954463
4469,0.01666666753590107,-0.04252893591076135,-0.6953504548415541,-0.3173801885306835,-3.756801679992676,-4.8317982254028315,-8.39601689387858,29.235139176095103,-63.87635258968779,24.453383502324414
4485,0.01666666753590107,-0.04034925378412008,-0.6547188769847154,-0.4920931968361139,-3.9158664527893063,-4.830301849365234,-8.474276776123046,31.13818355811698,-62.42981414612747,25.77780670126137
4503,0.01666666753590107,-0.2997486702501774,-0.476458697591722,-0.9253606952160597,-4.370764475958049,-4.69891944874227,-8.7846251663208,28.088763640894747,-51.11269612541492,23.993097054157253
4519,0.01666666753590107,-0.7290297293424606,-0.0706231037557125,-1.1423995180755853,-4.9169420219421385,-4.326172762298584,-8.921992486572265,26.008731982004914,-41.2438001898931,16.424263906542645
4536,0.01666666753590107,-0.82218790551126,0.21101883191764353,-1.2405004113435745,-5.096956059265136,-4.083161293792724,-8.951321456909179,24.60186498469132,-32.62526600459049,6.005851077762974
4553,0.01666666753590107,-0.7722235589027404,0.7088637241482735,-1.0426631325602531,-5.125087636511028,-3.6535517333984373,-8.671050809589028,27.648913118724266,-27.35910477714604,-5.342874923994278
4569,0.01666666753590107,-0.37276159175187346,1.2278510653898118,-0.3229091810852289,-4.770596445465087,-3.2050878349304197,-7.88455497970581,34.28763159573405,-27.481296861397567,-10.193277840905003
4586,0.01666666753590107,-0.1261146893531084,1.5549816635623572,0.09967968689203262,-4.567538217163086,-2.964171292877197,-7.385064658355712,39.30893054143355,-30.693070375191006,-12.598197692950247
4603,0.01666666753590107,0.27722061209976673,1.9623110030874609,0.9006348347604274,-4.229506870269775,-2.6780639022275805,-6.470030711364745,37.01539741437287,-35.39539948665091,-12.986618598217825
4619,0.01666666753590107,0.49150166068375106,2.09332924657315,1.3357985221505164,-4.068197533416748,-2.625541103307903,-5.951985327148437,28.308518147250737,-36.19889611042204,-13.129532622637527
4636,0.01666666753590107,0.5399930121302604,2.1261834684267638,1.335752929443121,-4.070741372680664,-2.651578046362102,-5.881206740570068,16.20943396657823,-35.464910321834125,-14.841078990899756
4652,0.01666666753590107,0.4323085902199149,1.9787755234152078,1.1019786603599786,-4.234743894140422,-2.8471546867370603,-6.04640607059896,-0.2540649744757708,-31.982476901800595,-20.408391796586535
4669,0.01666666753590107,0.23196546609550714,1.730891480436921,0.5994459025740623,-4.461295226232707,-3.1108155600398777,-6.521056549724936,-11.942446598662956,-26.11341316877182,-24.292672566248598
4686,0.01666666753590107,0.1995306386977434,1.609378731921315,0.33240240109562874,-4.502296221923828,-3.2342668754026294,-6.781127289581298,-18.380745981083408,-17.49590180429743,-26.414931869682036
4703,0.01666666753590107,0.1065554178804159,1.4278861464783548,0.004340659552812576,-4.579359587860107,-3.4127848289489746,-7.121702475738525,-17.949209506680127,-6.726800169659445,-26.417059473608493
4719,0.01666666753590107,0.09899258141070603,1.2486983308464288,-0.25455811391472816,-4.562899451446533,-3.5920509705141184,-7.396287478637695,-15.550908107940623,-2.8080073078949552,-24.75154687280486
4736,0.01666666753590107,0.14709288771301507,1.0903463824942707,-0.29995909813046456,-4.487631444494426,-3.7542575484678147,-7.45674048603475,-10.89416709409597,-0.5842375729342302,-23.105524216797853
4753,0.01666666753590107,0.3077972444102168,0.8839423508957028,-0.23984394438564777,-4.285770317022502,-3.9788635917112227,-7.410801741680502,-3.816182929863388,3.6632485910444554,-22.01523136487247
4770,0.01666666753590107,0.47026861077994103,0.8587202313557266,0.027640286597609517,-4.084657669830322,-4.02525124887675,-7.153575285339355,-1.8521906354433708,7.7616357275057295,-21.616326119228926
4786,0.01666666753590107,0.5379340337738394,0.692280838137865,0.24752631558179855,-3.9565678810119627,-4.217535277447104,-6.954108359527588,-4.454303171468761,11.790011290540258,-19.695859632181637
4803,0.01666666753590107,0.49465398723483084,0.6217313841402531,0.33091537740826604,-3.9522283905029294,-4.2977416175842285,-6.893654767608642,-9.181219683280242,12.540533820882414,-18.69293856011906
4819,0.01666666753590107,0.35386779845058913,0.4698147295325994,0.2969856352776289,-4.046051168060303,-4.44977342300415,-6.956203285980224,-11.66824950820644,12.988578008735972,-17.09349608670425
4836,0.01666666753590107,0.1500701499581337,0.4016337582319975,0.3058691989570856,-4.1897035599306225,-4.517110344696045,-6.98403588027954,-7.338998135817327,12.76788349759546,-14.932977478634985
4853,0.01666666753590107,0.06348930635303258,0.36663784817457196,0.3146037095546722,-4.233247810363769,-4.55870901401937,-6.996305579265952,-3.4523671407505465,12.850034451611434,-14.632338164580412
4869,0.01666666753590107,0.06729395933300256,0.10759060614705085,0.3382400212079286,-4.182520662689209,-4.829103579491377,-6.992415586090088,-2.472129980695228,16.821413793569498,-14.841604915465847
4886,0.01666666753590107,0.17205021883696317,-0.024146599262952803,0.4438549433678388,-3.99981285623759,-4.976348150634766,-6.92103786457479,-2.8542611355108702,23.454371006014377,-15.802590333571839
4903,0.01666666753590107,0.2150347895607352,-0.07561375164985656,0.5943003563791514,-3.88818349609375,-5.039794494628906,-6.8010290908813475,-2.5590507546293986,25.8422580738169,-15.918609634360967
4919,0.01666666753590107,0.36488983546346426,-0.1361532682865858,0.8013152133524417,-3.6700118698120114,-5.111770182037353,-6.623858168029785,-2.4964898503700783,23.19580565724708,-14.409605695746295
4936,0.01666666753590107,0.35480537156164643,-0.2222393141120672,0.7804758389413357,-3.6080619018554687,-5.206341147613525,-6.6777277053833,-3.754213904184332,16.00426191410022,-9.338389166271405
4953,0.01666666753590107,0.20128625019341706,-0.25604396855831146,0.6887573401868343,-3.726425538690388,-5.24105707168579,-6.787412068939209,-2.5137943480757174,10.990873181233242,-4.7260315754271405
4970,0.01666666753590107,-0.1348112060278654,-0.2580009478449821,0.25051614504754544,-4.038718925476074,-5.244347929924726,-7.237222121319174,0.8879123191054927,9.910139179051294,-2.220192263300372
4986,0.01666666753590107,-0.47193216007798905,-0.33458325226604935,-0.09674538700580597,-4.33829311594218,-5.333233251079917,-7.595753819927573,6.142966271577333,17.10334521948741,-3.5552186905935375
5003,0.01666666753590107,-0.5599167330011725,-0.3250046920597553,-0.11355682107508182,-4.376750272369384,-5.343558245739341,-7.624634461975098,8.011609552070794,25.968956375373345,-8.169301544533464
5019,0.01666666753590107,-0.5529048084124922,-0.39527825172543524,0.12006897944808005,-4.2688615600585935,-5.447407327270508,-7.41903239440918,6.456438230421892,35.72385645364765,-12.898599657931163
5036,0.01666666753590107,-0.31593057424426074,-0.46402270212769503,0.6420470269381999,-3.9408559326171875,-5.540332279205322,-6.9250786643981925,5.836061539619742,38.40638251431889,-12.602701348934225
5053,0.01666666753590107,-0.20873715072125196,-0.4338666333168745,0.9053905048549175,-3.7442321212768555,-5.533448949432373,-6.688351975250244,6.982349136134533,35.72917034082192,-9.910576311158175
5069,0.01666666753590107,-0.009458440957963466,-0.41616438788771626,1.2033119596779345,-3.4482489410400388,-5.545419957733154,-6.414814435577393,7.937632626944033,26.149930775169295,-5.871138402989166
5086,0.01666666753590107,0.07207973230481148,-0.4527724093168974,1.2249176422864199,-3.3180642257690427,-5.6018333343505855,-6.401646326446532,8.233361888759013,17.218435614549414,-2.3544522245982553
5103,0.01666666753590107,0.050579848158359524,-0.44331835227310656,1.1462766517698764,-3.312078721618652,-5.6091655769348145,-6.481103894042969,8.074927966997752,10.21406722919123,1.4760361095949015
5120,0.01666666753590107,-0.07348696875423193,-0.4671422954529524,0.6803519154131412,-3.420116779272258,-5.649267870220542,-6.943034592327475,7.208766065139048,8.06266521611664,4.818192598558592
5137,0.01666666753590107,-0.324540873940289,-0.6009118834733963,0.10831073711514472,-3.6586391196653243,-5.792172366333007,-7.51435213252604,6.209558908437665,11.837415364701085,4.858780997701393
5153,0.01666666753590107,-0.4540931365266442,-0.6285007321447134,-0.10085165328085421,-3.7642838524416087,-5.826439377593994,-7.729380784606933,3.7118654506697832,17.728478283272825,3.0346445105002027
5169,0.01666666753590107,-0.6254042274340987,-0.68550155326128,-0.3136240508675575,-3.88144980392456,-5.883750579833984,-7.965209648132324,-1.7250302289008932,25.32299294216668,0.9397743723602227
5185,0.01666666753590107,-0.722115419909358,-0.8067448371857404,-0.21954875985383987,-3.9231989876344797,-5.998372984313964,-7.898771136584878,-3.7529413545645935,30.25897428739626,0.17748433321263252
5203,0.01666666753590107,-0.715750268791616,-0.8393991525530815,-0.05933773963153362,-3.851222715704143,-6.025007893261313,-7.76963330001831,-2.039300252661285,34.80456421778271,-0.9596508631751945
5219,0.01666666753590107,-0.4610860641539097,-0.9121434862464666,0.42457390431463715,-3.4946363059446215,-6.095488373675942,-7.327903093719482,-1.9306187094748655,37.74642573105017,-0.996692259704643
5236,0.01666666753590107,-0.20719050580114126,-1.1697732626914978,0.7363233934819697,-3.171120098876953,-6.342838748168945,-7.049876425933838,-7.770171756420953,31.571774211913144,3.6870082578459913
5253,0.01666666753590107,-0.17653057912141085,-1.2821435043305158,0.6281430047482252,-3.0955525244563815,-6.4273834097713225,-7.193378303417563,-13.949892983469418,20.791078758045888,8.938892255491005
5269,0.01666666753590107,-0.3178802470073104,-1.3708821104913949,0.028721652093529698,-3.2110730468198656,-6.470030126842856,-7.832481093597412,-9.791903481876496,13.500658635152986,10.929584186263424
5286,0.01666666753590107,-0.6161129597365855,-1.096543191307783,-0.6960802304208278,-3.4961329742431637,-6.1750949943542475,-8.575431796264647,-3.61891212559461,12.187934696490615,8.448153408909343
5302,0.01666666753590107,-0.7273451372563838,-0.958747416511178,-0.9346353040397166,-3.595043430328369,-6.02665449142456,-8.825327179065345,-1.2687924820859648,10.158503640293176,8.681031269981867
5319,0.01666666753590107,-0.7937117526113987,-0.8721995983928441,-1.3844564623355864,-3.656245210266113,-5.928342585754394,-9.284564400482177,-0.5348260634876538,5.985620911215042,9.102108163444923
5336,0.01666666753590107,-0.9286255422309041,-0.7174842529773712,-1.6168068360954522,-3.788524851989746,-5.7689779532283545,-9.520842176818848,1.79323777861311,7.388239530864888,5.534038685371417
5353,0.01666666753590107,-0.9884808759957552,-0.4986158766031265,-1.6194284167706965,-3.8302734511777756,-5.555295455059409,-9.526677458843588,5.132643835775401,14.344855502414575,-0.35801423710400315
5369,0.01666666753590107,-0.8735483826532959,-0.1404103412091732,-1.248520636191964,-3.6504090514585372,-5.22309997471273,-9.1621602560848,11.358679721812075,27.08106655905504,-6.986584280306764
5386,0.01666666753590107,-0.43807489866167304,0.23501111740171907,-0.4001327060192823,-3.1429879371091722,-4.881327687725425,-8.317007654571533,15.736817319411909,31.69000820154065,-7.924007253323504
5403,0.01666666753590107,-0.26632278598845005,0.41835225332081316,0.08089782953262328,-2.8954879250124095,-4.739471823883056,-7.834576020050048,19.05530400125033,30.80285200572062,-6.326445643251385
5419,0.01666666753590107,0.153053549683094,0.5479577073991299,0.7864905691862106,-2.4015339027404785,-4.665550847625732,-7.116913487896323,16.86151212663935,16.09442894888085,-1.0381748800201867
5436,0.01666666753590107,0.336323958453536,0.402511125588417,0.7886983083635568,-2.206555812780559,-4.837334232220053,-7.101051901897788,9.430709418187883,-2.5754933678391465,4.805651517468802
5453,0.01666666753590107,0.39633565182387825,0.3472130167365074,0.4687164129018783,-2.178873148345947,-4.899883335113525,-7.4057152321964494,2.5666109202669567,-17.987554188680576,8.88258417597342
5469,0.01666666753590107,-0.039078503195941444,0.39754795022308825,-0.4664911380678415,-2.690783390808105,-4.845265609741211,-8.31835439300537,1.552550983606852,-23.20161644068347,7.132320880400973
5486,0.01666666753590107,-0.3152969525158405,0.6822644710361957,-1.200976210206747,-3.010708879907429,-4.564544880566,-9.035268737140298,5.342624341429103,-12.215086405988709,0.9175355965877785
5503,0.01666666753590107,-0.37522505925595756,0.8198445572555064,-1.3307073364913462,-3.075352032470703,-4.44303973083496,-9.152584033966065,8.665030698077466,4.566171851676638,-5.4225302976422585
5519,0.01666666753590107,-0.0032797523230314253,1.0053256278127432,-0.905434343996644,-2.653224352264404,-4.292504301452636,-8.72087954711914,10.819152833989012,19.144315026513937,-9.31065689069386
5536,0.01666666753590107,0.46540100474357604,1.2151947051733731,-0.081319854336977,-2.1314380279541014,-4.1100960624694824,-7.895927437591553,10.536254936303548,20.70034652511144,-6.088412696902795
5553,0.01666666753590107,0.6509273757472634,1.2850064925462006,0.21737492294609545,-1.9047367659971117,-4.0638580429077145,-7.594706356701255,10.463046407458412,13.975343122090532,-1.2989560915646219
5569,0.01666666753590107,1.0379346427336336,1.1688093860954045,0.5775041198790073,-1.4999673400878906,-4.20751014251709,-7.221510172924399,11.152999674014541,2.0179426780134784,5.8829157835523835
5586,0.01666666753590107,1.0802049277082084,1.2491788078397512,0.5843517938166857,-1.4739301047727464,-4.14376393879354,-7.1978680160522455,10.720349878776547,-5.712701493020142,11.131443596993982
5603,0.01666666753590107,1.0803574879214166,1.2358832729369402,0.4788870937824249,-1.509244871520996,-4.1692023314327,-7.283161450195312,9.823581899247015,-10.708009434493627,14.871604813847835
5619,0.01666666753590107,0.9205015647470951,1.116674125188589,0.1390682789504528,-1.73340170969218,-4.296245241546631,-7.595754404449463,6.551022690048228,-13.285043223434023,17.96819060238359
5636,0.01666666753590107,0.6908414529845118,1.0199556261897087,-0.32691490959525105,-2.018012724304199,-4.387973677173257,-8.046163591766357,1.2721227329148748,-14.8102970358578,19.847616190255565
5653,0.01666666753590107,0.5510647335037588,0.8975999971091747,-0.6680296094566583,-2.2176292877197263,-4.492719415283203,-8.378359072113037,-3.4303553620462996,-15.076199715340982,21.48893113837714
5669,0.01666666753590107,0.2959744124084711,0.7405664378792047,-1.275128657132387,-2.546233173315227,-4.620210653686523,-8.979303104290366,-2.614614983857687,-10.217202286020266,18.522165047848524
5686,0.01666666753590107,0.17301117282360792,0.6603858167052269,-1.5656377898722886,-2.704849617822468,-4.687248300170898,-9.265710062408447,2.2203572550575106,-2.2039737656727656,14.072706614935417
5703,0.01666666753590107,0.2173860288619995,0.6649357350945473,-1.5132055918455123,-2.673126153564453,-4.684405185699463,-9.207351396942139,8.599292688637032,6.428923667124141,10.65448721838376
5719,0.01666666753590107,0.2840980966538191,0.8463134619861841,-1.1110481020003558,-2.5975591636657716,-4.525490050506591,-8.792855234527588,15.250431010878838,13.462431773915716,10.306495056587135
5736,0.01666666753590107,0.47681350237876174,1.0398884071499108,-0.3981009079307318,-2.3919568038389087,-4.356398973736167,-8.067561184582114,17.17294655467713,14.525664270123153,12.0252763027277
5753,0.01666666753590107,0.5363882656365633,1.087971762317419,0.002779401585459709,-2.323273143713176,-4.332008044323325,-7.653364297375083,15.394064766482328,11.980372077803098,12.812576840429438
5769,0.01666666753590107,0.6443479973569513,1.0738660800755024,0.5877531266927719,-2.2140376929685472,-4.36717288120687,-7.053916056713462,9.562426201236994,6.805450651725788,12.283627354309786
5786,0.01666666753590107,0.6369537954524159,1.0639309615164994,0.823086900177598,-2.228702762658894,-4.381538675689697,-6.812700823974609,4.1527580035755145,3.6044257212518365,12.437139271000408
5803,0.01666666753590107,0.6065633333638311,1.090254320296645,0.8136024479955435,-2.2725462882995604,-4.349665866088867,-6.8210805297851556,0.20764119254339908,1.1700423541178608,13.22593305880944
5819,0.01666666753590107,0.5293365935593843,1.0202332740873097,0.6859317613720893,-2.37489840927124,-4.404881557354331,-6.949768869018555,-0.30080553311132835,-0.6620173659639552,13.699086729599257
5836,0.01666666753590107,0.42783845906853674,0.9171475781440734,0.4842763856053352,-2.4965537811279295,-4.498105784496665,-7.1507321708679195,0.5784974392670691,0.1598973164713637,13.63930293756778
5854,0.01666666753590107,0.38377339963167906,0.8733113590270281,0.429490317928791,-2.558204181616008,-4.532223158153891,-7.2056485869258635,-0.6350091437992852,1.0315421260058695,12.519514767485347
5869,0.01666666753590107,0.3331301308482885,0.6003951661229133,0.33042320997714997,-2.6228479187011717,-4.786906944274902,-7.312191145324706,-4.344063491377932,4.43379040584392,10.39607554887279
5886,0.01666666753590107,0.21621289342939853,0.4643395129919052,0.32275428278446194,-2.7439047401428223,-4.905419926452637,-7.330596570587158,-6.214232892264069,3.2263845690885624,7.152756379510827
5903,0.01666666753590107,0.19027415005266665,0.34702363164424893,0.3943196358263492,-2.775927479608357,-5.00477929534912,-7.269246322089433,-7.037084564595723,-1.1605556482475363,5.119444068317528
5919,0.01666666753590107,0.15912527081221342,0.22356325619220732,0.4608960945397615,-2.8271026633113623,-5.1039890266418455,-7.211783728680015,-7.332617031585243,-7.349114499751762,3.791177607311971
5936,0.01666666753590107,0.061899114552140234,0.11225216821730136,0.37567221850156785,-2.945017679595947,-5.19706361618042,-7.301567459979653,-8.359243982709641,-8.5779807908793,2.5685671291339305
5953,0.01666666753590107,-0.010934650990366935,0.06796586724519729,0.299551686373353,-3.035099517059326,-5.220406497845054,-7.385363933563232,-11.388458492819684,-6.533922030800632,0.19469870443773896
5969,0.01666666753590107,-0.12374796022176741,-0.13067980531156062,0.2093903539329767,-3.15720350946635,-5.3845589491695165,-7.49549662540853,-15.811141730412695,-3.3689703175412795,-4.245973010273263
5985,0.01666666753590107,-0.1443982418015599,-0.311398191511631,0.1451250947713852,-3.173813575744629,-5.5355438758850095,-7.581538832092285,-18.782815311859963,-1.4309743634325656,-7.844328827787074
6003,0.01666666753590107,-0.10521686275303363,-0.39630291859805583,0.14463760351538657,-3.125779612676799,-5.588066674804687,-7.607276499938965,-20.68173767471774,-2.7765587690786893,-10.354284182662422
6019,0.01666666753590107,-0.04285159199386835,-0.5444423927545547,0.08966448883414269,-3.054851680755615,-5.6947582862854,-7.69316906901896,-19.861285106332055,-5.382379030606339,-11.932673451734313
6036,0.01666666753590107,-0.017990122459828853,-0.5551800598680973,-0.021747136905789374,-3.027018794195354,-5.677848652538657,-7.823951750183105,-18.021334596768167,-5.973504582514262,-11.648341214323146
6053,0.01666666753590107,0.054066228969395155,-0.6016875440210103,0.0590466477304697,-2.9511528213500973,-5.6929620505183935,-7.765144171905517,-13.712298023001354,-6.326943820173973,-10.813593913778268
6069,0.01666666753590107,0.09818944833427667,-0.637265053358674,0.08486264151036739,-2.906560815429687,-5.710021321868896,-7.751527149963379,-12.933028933989906,-7.092988809178631,-10.095461848027604
6086,0.01666666753590107,0.04151800530254841,-0.7391665079534053,0.16082944438159466,-2.9665654945373534,-5.792172366333007,-7.68703334274292,-13.652102712072384,-8.907254819255506,-9.199016594936356
6103,0.01666666753590107,-0.037870296449959276,-0.857621037942171,0.18973814347982407,-3.059340808868408,-5.8834513046264645,-7.670423568725585,-12.791766107802056,-12.235281567817143,-9.232735531321417
6119,0.01666666753590107,-0.09359832115173339,-0.8975123188257217,0.15560615677535533,-3.127725193786621,-5.906346442523598,-7.710526446533203,-11.273994767614026,-12.162717638074929,-10.480827097415247
6136,0.01666666753590107,-0.10383651431053877,-1.0113140545725823,0.06693886228501797,-3.148525112970173,-6.005854864501953,-7.804199586486816,-11.583549186082758,-12.386335470180207,-11.479773853154523
6153,0.01666666753590107,-0.15901187356561422,-1.0948223588645458,0.013301380121707916,-3.215712104797363,-6.0712470818668605,-7.864653178405761,-15.19094177075532,-13.894849342721932,-11.267951757745857
6169,0.01666666753590107,-0.29021687179505823,-1.0760662204682827,-0.2291232284069061,-3.3654993461608886,-6.0160302215576165,-8.122778044891357,-20.122229068477804,-13.622271860872354,-13.633638149424902
6186,0.01666666753590107,-0.3696525198206305,-0.9861170694738626,-0.49633507218956946,-3.4485482162475583,-5.895422312927246,-8.40768862697184,-21.86405025023612,-8.65009051304171,-17.72418550937947
6203,0.01666666753590107,-0.29563246710300445,-0.6976330128207803,-0.5227601377785206,-3.3553239891052242,-5.565022483825683,-8.467393446350098,-22.652783420116265,-1.4179799285366161,-19.243899184612722
6219,0.01666666753590107,-0.18351707700788975,-0.5657280496284365,-0.46923897547125815,-3.2213983337402343,-5.403712854711711,-8.44015940246582,-18.92445977486769,-0.4459314982854817,-16.617086977001275
6236,0.01666666753590107,0.07565642174780368,-0.3217793002724647,-0.2670142753839493,-2.9495062231868503,-5.138704950714111,-8.255506014904379,-11.69408299119472,-5.036446597731294,-11.181723180795384
6253,0.01666666753590107,0.10097411061674356,-0.0905678674146533,-0.14861761306226254,-2.9376854370117185,-4.898685942022502,-8.137292892456054,-0.5471279812347872,-13.52635636813151,-3.8085318373325046
6269,0.01666666753590107,0.08026216197758912,0.002836392469704151,-0.13887538672685623,-2.9893104103088377,-4.811447219030558,-8.112003552898765,3.826987008469879,-18.624044149508432,-1.561797245474051
6286,0.01666666753590107,0.020038579422235487,0.07001578551232815,-0.1873135466814041,-3.088819416809082,-4.752639640752971,-8.14013600692749,2.3315098326195938,-20.5802530164824,-1.6056418305819495
6303,0.01666666753590107,-0.27467852640151974,0.09444149397760629,-0.6034872869193554,-3.4365772079467773,-4.727051902770996,-8.53607710647583,-6.362129966570117,-20.915118408467904,-4.024472109923866
6319,0.01666666753590107,-0.5069876913681626,0.15810001941770313,-0.9951648838043212,-3.704877431488037,-4.646396942083538,-8.923638500213622,-14.364441069859586,-20.733170706715228,-8.285983373672085
6336,0.01666666753590107,-0.758872786681354,0.22746552432775496,-1.6237608930170535,-3.9782653335571285,-4.553172714941203,-9.55795230255127,-16.742188721839227,-12.715349097594306,-14.867771370176166
6352,0.01666666753590107,-0.676517744077742,0.48801031143665313,-1.6653192303299902,-3.8697777785703535,-4.278737641906738,-9.618406478992103,-8.21227794856483,7.807758287423534,-25.524447664188916
6370,0.01666666753590107,-0.4980886378586292,0.7161053658396005,-1.3212702305823563,-3.627065585272014,-4.062959925024211,-9.292494608959554,-1.6257989994831266,20.705836289656837,-27.065311020187114
6386,0.01666666753590107,0.09347118764072657,0.9734975341364741,-0.2219213342040777,-2.95594122467041,-3.825784323064983,-8.211812419128417,1.7123322669036047,24.149262499340427,-21.867822222205255
6403,0.01666666753590107,0.5114800343513488,1.0926625504821539,0.7229857730031013,-2.456151335851848,-3.7349542975828047,-7.280617026409506,5.517486148804715,11.20170404543861,-13.881320445523428
6419,0.01666666753590107,0.6002934593141078,1.0998048234522342,1.0118518147110938,-2.3439234252929686,-3.7506662459775804,-6.986579135021567,7.676309589299345,-2.20790347232305,-8.937669651629573
6436,0.01666666753590107,0.5759948843598366,1.2357789357796312,0.987996307349205,-2.3816321014404296,-3.6427778259277344,-6.988375955310463,6.949116850727836,-13.936044774927216,-5.09643657609834
6453,0.01666666753590107,0.3992597225770354,1.2688111445486545,0.44673312915265556,-2.583343591308594,-3.626317981775105,-7.510161695098876,5.646031589644824,-15.189416931023114,-5.141450084049663
6469,0.01666666753590107,0.34375936915129424,1.2453940286040306,0.16674655947089195,-2.65905992655009,-3.665073828887939,-7.773074964904785,4.005673721780698,-12.206337787435569,-8.8658245992975
6486,0.01666666753590107,0.19263561848700045,1.3346844234287738,-0.32354046472609044,-2.8157307899475095,-3.5951936524540185,-8.249221820068358,1.5874198463717075,-5.857701713344458,-12.557902138168112
6503,0.01666666753590107,0.06801438256204127,1.4387375030994414,-0.6476356407254934,-2.9352909430906173,-3.502117893871665,-8.56839824436605,-0.2561733951756156,-5.6853841514346755,-12.030929138039532
6519,0.01666666753590107,0.05108458281010389,1.4395838907957077,-0.7233195350021123,-2.954594486236572,-3.5084032577514646,-8.63872850265503,-0.506631149315547,-10.336659733282849,-8.507521413175095
6536,0.01666666753590107,-0.19892215141057967,1.4031214153170586,-1.0733762507319449,-3.234267167663574,-3.5519478004455562,-8.973018909454344,1.1491430424746796,-18.888350272273126,-4.906042491663296
6553,0.01666666753590107,-0.5266197358161211,1.3282564362078904,-1.4287643906176088,-3.5980361824035643,-3.6336499320983884,-9.310152430725097,1.5499608478075362,-21.15435602943136,-4.8556271578521395
6569,0.01666666753590107,-0.6765799956589936,1.2666162648528814,-1.5372984150946138,-3.780145146179199,-3.702183954620361,-9.401730644226074,0.7595916341777591,-16.239403129108958,-6.763692582687622
6586,0.01666666753590107,-0.8696829393967985,1.212059914278984,-1.5604086570471525,-3.9809585181638596,-3.7695208763122556,-9.413701068004965,0.3079146127789745,-0.8570841535649344,-14.474524936259975
6603,0.01666666753590107,-0.9050470982447266,1.1726456032574175,-1.2213538123250007,-3.979762001855671,-3.821744400024414,-9.080907621765137,-1.4598992540722175,14.355257880520504,-19.237946674751058
6619,0.01666666753590107,-0.8012327957659959,1.2504361144244671,-0.8071446501582861,-3.811419113104045,-3.7547061690181494,-8.684816300091146,-3.6093199786789736,21.193045635984895,-20.705663827380295
6636,0.01666666753590107,-0.258325649754703,1.1127005453824996,0.12126608027815818,-3.179948717498779,-3.9032963095515965,-7.78280140914917,-1.3859535984052496,17.82221579944208,-15.718164072788603
6652,0.01666666753590107,0.18279197760373353,1.0613684175521134,0.7569751363664865,-2.694224763433635,-3.9656951903194186,-7.156417815288901,2.352266564063851,8.288492614418418,-10.576685387321792
6669,0.01666666753590107,0.314818521349132,0.997282022088766,0.9707447282969951,-2.5445871596738696,-4.043207469066977,-6.94049075306356,4.851733523138408,-0.10209769439377704,-4.215309302881314
6686,0.01666666753590107,0.40666240004897114,0.8472147947400808,1.0773603519320487,-2.4588451049804685,-4.2075095579952,-6.8225769058227534,3.986296901992195,-4.55442990271974,1.107769385020739
6703,0.01666666753590107,0.27669834179133174,0.7016846262991427,0.8933657205402851,-2.5992048850461837,-4.358494484710693,-6.9992989158630365,2.614816047551379,-3.0336695009961834,1.4326114743992528
6719,0.01666666753590107,0.17377894232571123,0.6173755270183086,0.7857815441340208,-2.7060461341306565,-4.4466304488033055,-7.102997190746665,1.6778960539339873,0.09773915324923621,-0.03941912945383277
6736,0.01666666753590107,0.043588966357707974,0.5302829344987869,0.5908709664523601,-2.8309938255310056,-4.537759749493002,-7.29722796947062,0.9742804880471271,2.227338989049733,-1.5391054360605645
6753,0.01666666753590107,-0.027471067510545254,0.41398996645808217,0.5372779079526663,-2.8942905319213867,-4.657320779418945,-7.351545835113525,1.190726408080481,2.1019574198992204,-3.160382316704614
6769,0.01666666753590107,-0.023929741641879082,0.368262234506011,0.5328513236820698,-2.881122422790527,-4.709543718609214,-7.3552861906856295,2.2855012514835646,1.7851383481962384,-5.262742717764865
6786,0.01666666753590107,-0.04830635026842355,0.34893268013596535,0.5568249044656753,-2.888903578186035,-4.742763266643881,-7.3283520065307615,3.007367509719522,1.7817902748424628,-7.616877552010126
6803,0.01666666753590107,0.02486819153577089,0.3052197951376438,0.6693652419745921,-2.8015155098512765,-4.797829904827475,-7.2135793799251315,2.4616763761705234,2.1023507961067307,-8.081572887286528
6819,0.01666666753590107,0.01635024629831314,0.257868845897913,0.7435188579440116,-2.7940333374023436,-4.856188570293784,-7.13801297454834,2.389935697666706,2.698159509907756,-8.851952485093205
6836,0.01666666753590107,0.04838876785486936,0.210445415943861,0.9129074563562869,-2.7358243095397947,-4.918139122772216,-6.968473569488525,0.7596351766337179,3.5089247356162487,-11.071270484179816
6853,0.01666666753590107,0.12488485529720783,-0.01035538979768753,1.01847970841825,-2.6382605918884274,-5.144689870342612,-6.866570361328125,-3.7583854422199168,1.9311962873465547,-11.954312344798561
6870,0.01666666753590107,0.12140431970506906,-0.15425474216639995,0.9341922364473343,-2.6240450195312497,-5.2825066879272455,-6.960991689300537,-10.919917761040564,-0.6191112381758459,-12.90573891316112
6886,0.01666666753590107,0.019837503892183302,-0.39438860940933224,0.5065121828109026,-2.706944544275105,-5.494243897247314,-7.4134958030700675,-18.239470348290865,-2.756647486987633,-14.715393264887766
6903,0.01666666753590107,-0.10769465104341507,-0.43203415719270705,-0.11022212369441986,-2.820668538610637,-5.503221568951011,-8.053345612224936,-19.944521206652414,-2.0089353660455243,-15.307488703657832
6919,0.01666666753590107,-0.14541501762866973,-0.4659913718521595,-0.41478024005293845,-2.8398224441528317,-5.5078609191894525,-8.38284820022583,-18.844085523809564,1.7495903084957896,-14.797685091555373
6936,0.01666666753590107,-0.13568506625294685,-0.5535036510884761,-0.7820750908315182,-2.7881971785947677,-5.565021899303794,-8.783277843365072,-12.404432056386156,12.20121258423712,-12.203837084425698
6953,0.01666666753590107,-0.04043810111135244,-0.5577268217414617,-0.6630284401684999,-2.6440964584350586,-5.557390381512046,-8.687659999084472,-6.418241251262241,19.82491605654903,-10.561655556053179
6969,0.01666666753590107,0.03452712350189686,-0.6290706409871578,-0.40238954503536223,-2.5112182662963867,-5.625177385058999,-8.447790920257567,-3.345083011579629,23.168725664735273,-7.35258850471836
6986,0.01666666753590107,0.15203618933409452,-0.7172106967329979,0.16915478965640068,-2.3225252479553222,-5.711068200573325,-7.8998180152893065,-1.0724205947449843,20.678349900889412,-1.6627604614549447
7003,0.01666666753590107,0.2720765272095799,-0.7576794852435589,0.6289893924444914,-2.1643581546507775,-5.7511716629028315,-7.451803029632568,0.9185735718982089,15.742380508490884,2.3428155032432576
7019,0.01666666753590107,0.26640783392339945,-0.7941367000252008,0.7212678631693125,-2.146850555010885,-5.7890293921321625,-7.365611185345053,2.928015439159372,12.136179791828491,6.620850275254207
7036,0.01666666753590107,0.1787904868774116,-0.7973474787652493,0.741093676623702,-2.2198739979065953,-5.793818379974365,-7.349151633453369,3.1432468661809327,9.709237702351832,10.182855826005209
7053,0.01666666753590107,0.06236190975829958,-0.8937830691695213,0.5811819316089153,-2.3286602435790003,-5.888987311443686,-7.512106983947754,1.7897464847301756,10.834009349207436,10.71105399131616
7069,0.01666666753590107,-0.025003508353233336,-0.9036188190072775,0.484925789424777,-2.4052748428344723,-5.894074989971518,-7.614459104919433,0.22644006093424268,12.56034649211733,10.94416493259411
7086,0.01666666753590107,-0.130608201380074,-0.9204244078576564,0.32714930287301536,-2.4916157402038572,-5.903353105926513,-7.78250213394165,1.3635961480959764,14.548273903823187,10.94897082444886
7104,0.01666666753590107,-0.1456451731227338,-0.9204559720396995,0.29475042357146736,-2.487725016375631,-5.902454695782065,-7.82095841358602,4.134649891425341,16.82793662422686,11.14817841423416
7119,0.01666666753590107,-0.1699779426075518,-0.8798843076765537,0.39600539695620535,-2.4890719009399414,-5.865644429779052,-7.723993830871581,5.478965162546312,18.40565226589186,11.217974409815227
7136,0.01666666753590107,-0.03141206022128463,-0.8671879077106713,0.6717261258870363,-2.3181856113158164,-5.856515951427817,-7.455244694519043,2.7633611360549324,17.939691638071714,12.424709180484632
7153,0.01666666753590107,0.05214680521413684,-0.9781962133467197,0.7773504003971815,-2.2192753013610838,-5.960664308166503,-7.358129889678954,-1.7769525799193897,12.154611911077415,14.070354468539994
7170,0.01666666753590107,0.04698270044922828,-0.9553729716420173,0.6682108112424612,-2.225859502056986,-5.921608309063315,-7.476792509460449,-4.6790432890320375,5.145293346118264,15.511223001315557
7186,0.01666666753590107,-0.042479543811082834,-0.8700807065427303,0.1390332076370716,-2.3315035041809082,-5.812223805236816,-8.016086433410644,-3.1269303980274183,3.991350388204358,14.515938080745054
7202,0.01666666753590107,-0.08210106784254312,-0.7757166617155075,-0.4568237305343151,-2.375646597290039,-5.703886180114746,-8.619125976562499,-2.5283112748263448,8.565222851283362,12.921792419031588
7219,0.01666666753590107,-0.10776099427789448,-0.8009317669928073,-0.656084904640913,-2.3943512977600094,-5.715109000396728,-8.828768259429932,-3.610019219295254,12.59225713591963,12.355533024570743
7236,0.01666666753590107,-0.1559044090695679,-0.7563780472561716,-0.8775497272491455,-2.4250270065307618,-5.651213743591308,-9.066692049407958,-2.5869727813998225,13.349130888416251,11.275441913944421
7252,0.01666666753590107,-0.17814152144938705,-0.6261033156141639,-0.9236959768742322,-2.4314614234924314,-5.512798960113525,-9.122057962799072,1.0309012621626519,13.864069095227268,9.681264662606045
7270,0.01666666753590107,-0.1493034033693373,-0.5390583616286516,-0.8484884679377078,-2.3835773902893065,-5.425559652599692,-9.05217720184326,3.300701509569944,14.613314380194634,9.099994219896804
7286,0.01666666753590107,-0.09529314237087964,-0.4312447603806853,-0.6887117474794388,-2.3132477165222167,-5.313930584716797,-8.899097933197021,-0.9785577872931418,8.025254562485188,12.6155190526854
7303,0.01666666753590107,-0.14730419237613676,-0.48463557430654763,-0.8738871130883693,-2.37489840927124,-5.354482083074748,-9.089287327575683,-2.919423914957142,-0.32910668874154064,15.159649259072905
7320,0.01666666753590107,-0.3146652304835617,-0.4599056221976876,-1.1629308494508266,-2.5679309181213377,-5.317072974395751,-9.378836090850829,0.18024943924857698,-4.381353762925263,14.837839773685877
7336,0.01666666753590107,-0.6585375584900379,-0.20640198577195404,-1.7921400221258401,-2.9390320293150842,-5.063736218969524,-10.000430696868897,6.698113802032214,2.1265478084585587,9.28229709148632
7352,0.01666666753590107,-0.6945870692536235,0.14341887537539005,-1.7494775229632853,-2.966116581726074,-4.7301942924499505,-9.950601374816895,12.699502204946231,14.776740316465528,5.191354861220361
7370,0.01666666753590107,-0.596801817806065,0.41001229499876496,-1.389531865903735,-2.832041288757324,-4.4945150665283204,-9.582193594360351,17.47169390633161,22.18827079240016,2.1484938465920442
7386,0.01666666753590107,-0.1566265858642757,0.7777303396254778,-0.2650742472320795,-2.329109302520752,-4.176834433746338,-8.444498892974853,18.283250153323355,23.322176109723365,3.720289635237348
7403,0.01666666753590107,0.1545806131199002,1.0123708701491356,0.7098796231925487,-1.9807529609680175,-3.9773669234126805,-7.4579381713867186,17.207165802418892,16.405492839156157,5.669621782377579
7419,0.01666666753590107,0.3778887255072593,1.1701274829566477,1.246780514526367,-1.7402854778565466,-3.859303438568115,-6.901136647796631,14.3976238363948,4.7704073144647134,9.602319628631745
7436,0.01666666753590107,0.43629152237623925,1.2681418669849633,1.2705559423893689,-1.694795354052633,-3.781491884613037,-6.861482682800292,10.415230814400092,-2.4696130559860783,12.800958688651246
7452,0.01666666753590107,0.509939234650135,1.3904261843949555,1.0441641847729681,-1.648856609698385,-3.6695623724788424,-7.07411713322103,7.1497131033487635,-5.414788278218049,15.409280720405825
7470,0.01666666753590107,0.5687967895492911,1.438400818490982,0.5665203690499067,-1.632396619415283,-3.6258687767028808,-7.537695014190674,4.904192364171869,-3.3363089932605132,16.93077707501245
7486,0.01666666753590107,0.5640034177929163,1.4701608153671026,0.37705169016122814,-1.6660650802612305,-3.5932477790832515,-7.719803977966309,3.961510999267865,-2.5445338278787712,18.76970817884271
7503,0.01666666753590107,0.5318044449776411,1.4617308406740426,0.0011579378634691238,-1.732953235272318,-3.5972879943847653,-8.08881030883789,3.3713318554468112,-5.557641257822043,21.619654128902013
7519,0.01666666753590107,0.5419257337585092,1.4027473213076591,-0.1748345888584852,-1.7702127063475548,-3.650409343719482,-8.25505768661499,4.385937673631988,-10.650412156770201,24.40753927261529
7536,0.01666666753590107,0.4948087394051254,1.3213590779095887,-0.5076829801559448,-1.9029414070129393,-3.7256770584106444,-8.566753399768471,5.548618151041633,-18.050977617766023,25.8692714719843
7553,0.01666666753590107,0.3022796500325203,1.1531833624184131,-0.978853800472617,-2.1703435126706956,-3.8877334142386912,-9.019107291412354,3.8149449580763233,-20.55605877889492,24.5815981058766
7571,0.01666666753590107,0.0923453984811902,0.952790553933382,-1.5362264019489287,-2.4724621269226073,-4.074183037567138,-9.556306288909912,0.6630117988184268,-16.345279598980618,19.26129738397604
7586,0.01666666753590107,0.0063487845048308365,0.9200701875925064,-1.765285917469859,-2.6045915465205907,-4.096927368816733,-9.776721894726156,1.0482726743778157,-6.2232295320614455,13.975152730567418
7603,0.01666666753590107,-0.14483108026087282,1.016416930669546,-1.7992472237825392,-2.771587696838379,-3.9975685844421385,-9.807398188018798,3.3626797133156976,4.162405645778158,7.546136429002657
7619,0.01666666753590107,0.10139204376786946,1.0304963094264268,-1.235638942787051,-2.5095719603940845,-3.9923306837886567,-9.243413474926353,5.718515691551115,11.568674741617762,2.7642174710221226
7636,0.01666666753590107,0.23290391598939894,1.0495400325924158,-0.7989917388409375,-2.3567922592163084,-3.98380192489624,-8.807070806884765,5.741867681436566,11.171361783824475,2.396637393902958
7653,0.01666666753590107,0.4898278822526335,1.169373449718952,-0.013008534654974936,-2.0834043571472165,-3.8732191511958836,-8.020574977001548,5.134735581208717,7.453603587448264,3.380081754660421
7669,0.01666666753590107,0.6793278330624103,1.111989182242751,0.4555997416973114,-1.8908207611083983,-3.9389100592464206,-7.547720733642578,3.4261840374541257,0.13288925438925234,5.145298895646965
7686,0.01666666753590107,0.6857897225528955,1.0730191078573466,0.5552677381515503,-1.8957588020324705,-3.9791625746577974,-7.44357296142578,1.2939702669139241,-3.744923993139468,6.233364252129275
7703,0.01666666753590107,0.5998676351174712,1.0772317571163177,0.48503684858381746,-2.009184105682373,-3.9682396141052245,-7.509114231872558,-1.3895471316823225,-6.771474302586382,7.1960414227153136
7719,0.01666666753590107,0.40642274607419965,0.9660054248154163,0.19855273357629774,-2.226158338873088,-4.070441512951255,-7.793574732097983,-1.09311158561848,-6.875894234617538,6.371114226649623
7736,0.01666666753590107,0.29716420671492816,0.9318383667975664,0.01976151604652405,-2.355146245574951,-4.09872360458374,-7.969549138641357,-0.45760463842257726,-5.2664848076563855,4.596298962331918
7753,0.01666666753590107,0.07533639601320027,0.8988198942929506,-0.21966858684122562,-2.593967861175537,-4.123713084411621,-8.208370754241942,-2.2237055418546974,-3.339261982859486,2.8283173022788115
7769,0.01666666753590107,-0.03167728702872991,0.7570739205658436,-0.2803711850851774,-2.7090391784667966,-4.255843088531494,-8.272415648651123,-3.897396440415778,-3.501508644281496,1.5942782100720465
7786,0.01666666753590107,-0.10715864447057247,0.7180038929373026,-0.26145897934436796,-2.7932854416444894,-4.284872783660888,-8.256853337860107,-4.174578323539589,-4.692468452732521,-0.11826581937625505
7803,0.01666666753590107,-0.16000117686390875,0.6563853488922119,-0.24823592515587806,-2.854636566925049,-4.337994132995605,-8.246079430389404,-2.917562901851725,-4.842293774818628,-1.2585353522216038
7820,0.01666666753590107,-0.1436541454359889,0.5602507872611284,-0.1048649805754423,-2.846256861114502,-4.425232855987549,-8.105569720458984,-3.582784266866651,-3.805089421990818,-2.781131580728013
7835,0.01666666753590107,-0.1394423729598522,0.4930991590082645,-0.007712181812524795,-2.8444612098693844,-4.484040434265136,-8.012794406127929,-5.332430710979682,-2.891455144079586,-4.0926288601041305
7853,0.01666666753590107,-0.08623977508246898,0.33939795907139775,0.2061673002332449,-2.788646383666992,-4.620509928894043,-7.810484365844726,-7.320489176940239,-2.0212147655127377,-6.363662063378316
7869,0.01666666753590107,-0.022408523423969744,0.23102175550460813,0.4702741637378931,-2.7219080123901365,-4.712537055206298,-7.557447177886963,-8.212593844813945,-3.2042897608972174,-7.823424180058604
7886,0.01666666753590107,0.04056581914424896,0.19238193598687647,0.6000023674130439,-2.6580130478456616,-4.735132333374023,-7.43788673248291,-10.215014917938568,-5.25855751935094,-8.366893794580056
7903,0.01666666753590107,0.18394465477019548,0.01630231550335884,0.7123755316615105,-2.522291448974609,-4.881028997039794,-7.341369893535971,-14.110756745027912,-8.48521913798771,-7.93699571180393
7919,0.01666666753590107,0.22630437159389255,-0.12989070076048373,0.5924836623460054,-2.4896701590940356,-4.999392049352824,-7.474846636089683,-15.659615691223253,-8.909894687369716,-8.177604493243262
7935,0.01666666753590107,0.20947627865076063,-0.20981705491244793,0.49711833152174945,-2.5145102935791015,-5.051017314910888,-7.58453158416748,-16.384496837647536,-8.13817124984384,-8.135422952476555
7952,0.01666666753590107,0.2679571091920137,-0.352801338262856,0.31531682626008983,-2.4658783646181224,-5.155015157262981,-7.786243074035644,-16.566801416784347,-7.487569264417091,-6.650583796258565
7969,0.01666666753590107,0.22608985206037757,-0.5421472675547003,0.18910043009817598,-2.5176523909971116,-5.316773699188232,-7.925405461010336,-14.924009440254759,-8.922749957161326,-5.258188689135759
7986,0.01666666753590107,0.19760580811500547,-0.5908005315646528,0.12801730810403822,-2.561945121710002,-5.342062161962688,-7.9948373091548675,-11.823046354234672,-12.122872022004367,-4.605066790792099
8003,0.01666666753590107,0.11127572440057992,-0.7353481187090277,0.0361328051328659,-2.680308466283977,-5.464016809026897,-8.08895994644165,-7.330532116341097,-14.899504429060045,-4.3563595394312475
8019,0.01666666753590107,0.0612818594366312,-0.8171279917731881,-0.012148702955245972,-2.7549779228210447,-5.535693221227825,-8.134599415588378,-5.810772337330946,-13.644574989833385,-5.16704408353017
8036,0.01666666753590107,0.01344458798468113,-0.8382201719015836,-0.030648820763826367,-2.822464482116699,-5.548263072204589,-8.151209189605712,-6.3593073908956095,-11.33149898401001,-6.281109835748603
8053,0.01666666753590107,-0.06048574062287807,-0.9243807442680001,0.038302550387382506,-2.9129949401304125,-5.622632961273193,-8.083273717498779,-7.02530504959839,-9.762474758063851,-8.887442148020591
8069,0.01666666753590107,-0.13091770572066305,-0.9277019976451992,0.1177402442395687,-2.992452799987793,-5.620238759613037,-8.003965202984213,-5.087988485868681,-10.452873694463324,-10.813070550533116
8086,0.01666666753590107,-0.13152414718121289,-0.9014397214025258,0.17983809623420238,-3.003825257873535,-5.594650729370117,-7.937676329040527,-2.222200979246591,-12.398644324838216,-11.261912162972273
8103,0.01666666753590107,-0.10673661966621875,-0.8555588447153568,0.3184785051614046,-3.0002339553833006,-5.556044227600097,-7.7872905372619625,-0.7803676288899098,-14.764227409906065,-9.433614809906077
8119,0.01666666753590107,-0.14398790743499992,-0.9250856776669621,0.3532026125401258,-3.060836600384116,-5.628917448370158,-7.742249034008383,-2.2228816502860647,-17.23024159652978,-7.521903771601099
8136,0.01666666753590107,-0.21967238623350857,-1.0093260956257581,0.29021570275127884,-3.1669302459716797,-5.7127142142146825,-7.794473142242431,-3.3435451517993187,-19.97537829377524,-7.3304433238818865
8153,0.01666666753590107,-0.4590814463332295,-1.0719254674017429,0.019327800804376603,-3.4504932128354904,-5.773467373602092,-8.05020380706787,-3.9502390527032283,-20.481618254678242,-10.189341090622136
8169,0.01666666753590107,-0.5255760719820857,-1.0709750348091125,-0.17013444834351538,-3.5423709938049313,-5.773018753051757,-8.229918569183349,-4.561490610774241,-17.400974127665297,-13.4124399118331
8186,0.01666666753590107,-0.447802804210782,-1.024986898355186,-0.15084581050574777,-3.480271095983684,-5.727229646301269,-8.204629814147948,-5.423653436873903,-13.398271538173555,-13.28648097825431
8203,0.01666666753590107,-0.2727960736557841,-0.7934194916665553,-0.03372749755680561,-3.3194109642028806,-5.494542587932944,-8.0828248046875,-4.364104547063219,-11.912836874837305,-11.263290153637323
8219,0.01666666753590107,0.03763064247518778,-0.699166505998373,0.16913550043404102,-3.0228292335510254,-5.401617928259074,-7.8739307098388664,-1.918991593073388,-13.317598466339241,-9.162082346999512
8236,0.01666666753590107,0.16378712514340876,-0.6408820748120546,0.27242344095110893,-2.91748436050415,-5.348347233581543,-7.759757218170166,0.1639454041737863,-16.19728989023395,-6.906113979713436
8253,0.01666666753590107,0.46086511487960813,-0.5270332850530743,0.3792196818500757,-2.666093186187744,-5.23836330255717,-7.633013583263755,-2.3509820616130654,-22.623852446339384,-2.1159225954309577
8269,0.01666666753590107,0.4997425425454974,-0.6180415897116065,-0.04427285696864128,-2.680757671356201,-5.318718695776164,-8.041674463653564,-7.898711647732362,-28.524181370293892,1.7379440889089774
8286,0.01666666753590107,0.41945115447342396,-0.6523968637779355,-0.49120706165134903,-2.827551868383586,-5.330390428869426,-8.475174601745605,-11.399666833247675,-31.247131905567855,2.6507138142816737
8303,0.01666666753590107,-0.021004209583997725,-0.5061071091413497,-1.7495833214253187,-3.3502360183164477,-5.149777841131389,-9.719709967693685,-10.964962004843153,-23.945249871474022,-0.31271954413837266
8319,0.01666666753590107,-0.26651041751503945,-0.23075521352291106,-2.5569717172116038,-3.627963703155517,-4.8600797325134275,-10.52191774597168,-3.127544901609308,-8.138627164970938,-3.1691516392686756
8336,0.01666666753590107,-0.2739250776857137,0.005438976183533668,-2.59580852060616,-3.6288612365171313,-4.635174121801555,-10.556932360729574,10.149283738687306,8.328836834298391,-6.421614937825405
8353,0.01666666753590107,0.07417407423555851,0.5404088994547724,-1.6901882986485957,-3.229927677154541,-4.157081977789104,-9.639205521392821,24.987241333136364,19.11104346751951,-4.238367594632455
8369,0.01666666753590107,0.47224634059369563,0.946997649745643,-0.1313479138314724,-2.7898434844970703,-3.8124668685913083,-8.060828076934815,32.31797579383162,17.2053882456874,-0.5506846421625128
8386,0.01666666753590107,0.6513236815884709,1.140574056214094,0.5457599050939083,-2.5848396750852465,-3.6893148284360766,-7.351695472717284,36.50249118883993,9.125910518928771,3.499410282102421
8402,0.01666666753590107,0.8425701838046312,1.3067320021420716,1.60604987975955,-2.396146949005127,-3.616889935955405,-6.232256558990478,35.37094057923309,-3.620766948841092,7.417500915042869
8419,0.01666666753590107,0.8764540409669279,1.421239255809784,1.9451123232662677,-2.3876173133298755,-3.5610756942749022,-5.8454433532714845,27.79214730826131,-10.75472878219016,8.256082513033062
8436,0.01666666753590107,0.8464660221993923,1.4020996710538862,1.8132307409495114,-2.4543559768676757,-3.6177883460998532,-5.9376201171875,15.266821757339576,-15.145659324105427,6.886372598577983
8453,0.01666666753590107,0.6777905404925346,1.1818997538149356,1.1017518658667802,-2.671629777526855,-3.8483793089717624,-6.621463966369628,-3.090539363573002,-14.326644510540028,0.5114795164091982
8469,0.01666666753590107,0.4561015537396073,1.050554178071022,0.08858078525066375,-2.915539071655273,-3.9668928756713866,-7.633313442993163,-11.07231977199106,-11.099349391857738,-5.4609172414381995
8486,0.01666666753590107,0.37238662095963954,1.048455744487047,-0.4661696510285139,-3.006518734741211,-3.949384691509604,-8.19759684677124,-14.005373756323785,-5.417855886929031,-9.516825297017048
8503,0.01666666753590107,0.31909196088463065,1.0632377185553312,-1.3846189594209193,-3.0425813972473144,-3.9139211639404294,-9.136872085571289,-8.588699919007988,4.935645385299777,-10.18566644884867
8519,0.01666666753590107,0.41207682631313797,1.0752893908768892,-1.8148995509445667,-2.9213749382019043,-3.9009026924133297,-9.579949030303954,1.0327702793960023,11.822763755157762,-6.239368415296539
8536,0.01666666753590107,0.46902562498152256,1.1136954016387461,-1.8138573484152554,-2.8309941177919504,-3.878457051849365,-9.58294178237915,11.346282928468503,16.201924173585805,-0.6560357744374637
8553,0.01666666753590107,0.5060536253884435,1.1268956594735384,-1.449176479527354,-2.7513866203308104,-3.903296894073486,-9.211690887451171,17.063028320364115,17.753229181277657,4.860820662942287
8569,0.01666666753590107,0.47790568152964114,1.0343559074640274,-0.9825257669836283,-2.750488502447307,-4.024053855785727,-8.738836059570312,15.754297481045263,19.03316735815032,7.301571260486596
8586,0.01666666753590107,0.4537655120074749,1.028888289707899,-0.7625327704936266,-2.745550461523235,-4.0520366722106935,-8.516174720653892,13.358575332491087,20.714872629928763,9.234174993688997
8603,0.01666666753590107,0.4509007702261209,1.07355336086452,-0.4020645508646965,-2.7084406280517577,-4.02824429321289,-8.158391210064291,11.640082661842953,23.34124087524416,13.279404048500531
8619,0.01666666753590107,0.5371168721720576,1.0312918437182903,-0.11397884587943553,-2.5944164817258715,-4.0812160049438475,-7.874529260253905,11.657409144219985,23.92239093586928,17.192684093831172
8637,0.01666666753590107,0.5908075458273291,0.9847358442485332,0.028506548038125037,-2.5182509414121506,-4.135983367919922,-7.735665563964844,11.933639923501872,22.98111232106607,21.078885854197303
8652,0.01666666753590107,0.7032187039986252,0.8486930505990982,0.20486556998491287,-2.3886650688171387,-4.2788872795104975,-7.561637030792236,12.422612312409438,20.98161883777444,26.334837656379882
8669,0.01666666753590107,0.8178867011860013,0.6656301470994949,0.2955652470856905,-2.2704513618469235,-4.464736598858237,-7.470507145580649,12.792699282397408,19.71834461492932,30.049926102564264
8686,0.01666666753590107,0.8520549282476305,0.5802934583365917,0.30139760650098324,-2.239626015472412,-4.550329892730713,-7.46317548751831,12.661932749416575,18.802228417028434,33.181735176649774
8702,0.01666666753590107,0.7887202279344201,0.42389410535693167,0.18761749806404113,-2.3166890891477463,-4.701463288006186,-7.574954193004966,11.227560580315341,17.409283052790617,36.46926914871699
8719,0.01666666753590107,0.6685080406233668,0.2686667187660932,-0.054932782670855516,-2.452261050415039,-4.849605100250244,-7.8160203726619475,11.9365145793688,16.637203591654256,37.40733415951571
8736,0.01666666753590107,0.5913181256979704,0.20480828683972357,-0.19830840342640876,-2.545186294610798,-4.9084126785278315,-7.9563810295104975,12.954510732703241,17.096760917127515,37.22490322187926
8752,0.01666666753590107,0.4286535748437047,0.21010230159461496,-0.49996495312452316,-2.7246014892578123,-4.897788993182778,-8.25475841140747,13.698070738960217,19.94097292337859,37.433070312308324
8769,0.01666666753590107,0.3345741921767592,0.08714403044581413,-0.7144979306429624,-2.8247090461730955,-5.0189942831844085,-8.467991996765136,14.514216873074211,22.871118954672184,36.4746206019317
8786,0.01666666753590107,0.1389899530172348,0.09815642284750938,-0.792618112155795,-3.014898440551758,-5.007921685028076,-8.54834797450602,14.231588767860961,27.567285527953445,33.80053665507459
8803,0.01666666753590107,0.13380699742138386,0.07483458397090434,-0.718739805996418,-3.003825257873535,-5.032910580334067,-8.479963005065917,13.939053473256607,31.437110202237175,31.87117896927524
8819,0.01666666753590107,0.20489187346994875,0.0866787510216236,-0.4458452404022217,-2.90805748372823,-5.022585585674643,-8.216002272033691,12.94453011877856,34.012842840140685,31.58484719398455
8836,0.01666666753590107,0.3229688023179769,0.14808511362075805,-0.1127910973995924,-2.7563246612548826,-4.957942725372314,-7.898471276855468,10.694711056179612,32.932074687012886,34.197934136458855
8853,0.01666666753590107,0.37694764526486396,0.1470721371859312,0.003480243331193924,-2.685845349884033,-4.951059395599365,-7.793874007305503,9.731204444496239,29.971983398850664,37.46930446585524
8869,0.01666666753590107,0.4123348927274346,0.14137363328337668,0.07800912235379219,-2.6445453712463376,-4.9444747565120455,-7.729680059814453,9.161212351653981,27.071120096076207,40.801320044892165
8886,0.01666666753590107,0.3656193187817931,0.08434124798476696,-0.06545768381655216,-2.696170344543457,-4.9809863318294285,-7.88455497970581,9.331209783680075,25.574980818763255,44.59284684562545
8903,0.01666666753590107,0.31097265957593917,0.023223054677248,-0.17012684955894947,-2.7564745911195874,-5.025130009460449,-7.997980283355712,9.98641104773918,28.562602891922506,46.54866126917485
8919,0.01666666753590107,0.20515666188597678,-0.05449205316603183,-0.3027040129244327,-2.8612206214904785,-5.085583601379394,-8.142081295776366,10.66338866241958,33.34088541450024,48.66582183639287
8936,0.01666666753590107,0.18866671485602854,-0.14385785131454468,-0.16195932519435882,-2.8681039512634277,-5.153069576153158,-8.019079770007728,12.555168354952814,36.89564370765504,51.60480442492517
8953,0.01666666753590107,0.2377972409889102,-0.2355500465840101,-0.01568506038784981,-2.812887675476074,-5.229534976196288,-7.884854254913329,13.639200484730232,36.21821188539484,54.81187193838046
8969,0.01666666753590107,0.3269473505601287,-0.3834200561493635,0.23203590098321436,-2.726696415710449,-5.361067014423012,-7.646331914520263,14.620233361823857,32.71365206754505,58.858970757477294
8986,0.01666666753590107,0.4105918484523892,-0.513216064363718,0.3342962520182133,-2.666242823791504,-5.467907678985595,-7.549516384887695,16.34496199518421,27.971070943758967,63.55348954762128
9003,0.01666666753590107,0.4232490854516625,-0.5584580586254596,0.29059505745768544,-2.680608033752441,-5.496039548492432,-7.593359618267416,17.90580706959928,27.40085260090045,65.90786941490302
9019,0.01666666753590107,0.4140042872443795,-0.5903291146606207,0.13418050690889358,-2.7268460533142087,-5.508609107208252,-7.747187659454346,21.38636560270564,29.796761725883155,68.23292044988872
9036,0.01666666753590107,0.4717442362904548,-0.5741612391918898,0.09678571901619434,-2.6927286796569825,-5.483020492443442,-7.781005757904052,24.38972101661802,32.757874127326296,69.2335431632956
9053,0.01666666753590107,0.5005336929231882,-0.5624284235611557,0.08649287306070327,-2.682852890069783,-5.4647649970456955,-7.787739450073242,25.076942207506143,35.36323271075473,70.01052499270872
9070,0.01666666753590107,0.6195177997440099,-0.5153004694223403,0.10395078833997248,-2.5846903297424313,-5.408950463104247,-7.767239098358154,26.227560997728368,36.98506112917426,71.22879851420723
9086,0.01666666753590107,0.7327186469882726,-0.46432402316182847,0.1261450844913721,-2.486677699279785,-5.354183100128173,-7.741202155303955,28.90491660519791,37.715027351435616,72.59513004634408
9103,0.01666666753590107,0.7819593554973602,-0.36121611538678405,0.16098668076992034,-2.4527099632263183,-5.251382066345214,-7.699902176666259,31.146468577580205,38.382261701264994,73.81374507730108
9119,0.01666666753590107,0.8533701024994254,-0.326247385597229,0.2604202839463949,-2.4019828155517575,-5.217713605499267,-7.5911156387329095,31.38115046236726,39.72053481629144,75.9122728884633
9136,0.01666666753590107,0.840373550543189,-0.3055810296654701,0.2778589100033045,-2.4295158423826098,-5.195866515350342,-7.568370722961426,30.705156394927343,41.14633339043702,76.01068908421402
9153,0.01666666753590107,0.7920324212223291,-0.30829964097440243,0.2637140647947788,-2.4875752326413987,-5.196764048711955,-7.579593543243408,30.818264327582753,43.912232155212024,75.20186491289029
9169,0.01666666753590107,0.7163759994745255,-0.2542149995654821,0.20870529427826404,-2.5634414977476,-5.142445598547161,-7.634660181427002,31.125226689261467,48.75813525812018,72.97868614937532
9186,0.01666666753590107,0.7190782441705464,-0.18721417796015738,0.30765140619874,-2.5397990486145017,-5.078101721191406,-7.542783277240395,30.520153891068375,55.99167100428428,71.97009943539622
9202,0.01666666753590107,0.7741022122561931,-0.1257899874433875,0.43218964001536364,-2.460490826360881,-5.016151460973918,-7.428609201049804,28.82542344854272,57.23824541460872,73.4694898827541
9219,0.01666666753590107,0.9686202834889293,-0.2227975325167179,0.6640414166033267,-2.2468086204528808,-5.100397431890666,-7.212533085742592,23.39745503966066,48.86897898306573,78.55683334263304
9236,0.01666666753590107,0.8993997400075197,-0.3156143479019403,0.3577168750941753,-2.3306056785583493,-5.167585008239746,-7.528716173443198,17.6229125870084,36.21051426220023,82.51987302361451
9253,0.01666666753590107,0.7231295653879642,-0.37960897342860694,-0.09523147531151771,-2.547579911749065,-5.191975353130698,-7.989151080211997,13.12872068389994,27.50188475910328,83.6670169550965
9269,0.01666666753590107,0.06993950540572405,-0.2713230784937739,-1.4416928457736968,-3.259256647491455,-5.027823486328125,-9.345017992401122,16.067704126205882,31.543732870275658,77.07537214184644
9286,0.01666666753590107,-0.30650749686062334,-0.004548749345541,-2.142133024969697,-3.643526013946533,-4.738573998260498,-10.05564697265625,23.638046745627065,49.30467333512626,68.04421598349961
9303,0.01666666753590107,-0.3017760844245553,0.1755272472977638,-2.061331641548872,-3.5960906012937426,-4.558110755865275,-9.992948816680908,28.58457731802973,67.32419793176437,60.276665312172646
9319,0.01666666753590107,0.10635141974091529,0.35022359672933817,-1.1156377678781748,-3.0801404357910154,-4.394407217352092,-9.08464856185913,25.987273235180027,77.84249800828725,59.068937602752655
9335,0.01666666753590107,0.43649522825479503,0.4864455463379621,0.004289221626520156,-2.6695348510742187,-4.25808765258789,-7.996483907318114,21.32057039043091,68.45904069255117,61.19462224605485
9353,0.01666666753590107,0.5926125494226813,0.4575725030750036,0.3422632853746414,-2.465578797149658,-4.277689886419475,-7.682394577026367,18.324658175166558,51.49985173813875,64.35087998227442
9369,0.01666666753590107,0.5807666288062929,0.49944472864270206,0.4624158514529466,-2.463034665624797,-4.219181583349407,-7.577498616790771,20.423939014684777,38.49018893543495,65.25941125510201
9386,0.01666666753590107,0.5824596964597701,0.7707026329457759,0.18878595732152462,-2.4579469870969652,-3.944147667638957,-7.854627458953857,23.593768336785168,40.767957985891236,61.96568913164676
9402,0.01666666753590107,0.6228069044172764,0.767759565231204,0.11229776092469691,-2.398241583196819,-3.948337520544231,-7.937675744518637,22.29483711137799,48.626401399598144,59.352800264658384
9419,0.01666666753590107,0.8287558857247233,0.7570008553296327,0.19270400754809378,-2.143110053308308,-3.9516298400878904,-7.879916213989257,16.09926472281322,52.88021247883082,58.838562152237294
9436,0.01666666753590107,0.9936512643709778,0.7365119017913937,0.32619594767093657,-1.9455878318235278,-3.957615344238281,-7.766790185546874,13.90352539051514,45.728133568708294,59.49130967083707
9453,0.01666666753590107,1.0286892600044608,0.6463985001459718,0.2759539531648159,-1.8983026412963866,-4.031536320495605,-7.830835079956055,14.547975083047,35.26828966619697,60.51184238567453
9469,0.01666666753590107,0.9973670700237154,0.627923224517703,-0.0716039314866066,-1.9436428352355957,-4.031237045288086,-8.18412946243286,15.660223578059385,26.06876592971474,60.64973707482791
9485,0.01666666753590107,0.8708990371882915,0.6811904120638966,-0.5512614251196384,-2.0884920356750487,-3.963301280920207,-8.665513049206137,14.060782812191867,25.820048006183313,59.328826300671636
9503,0.01666666753590107,0.8156444752171635,0.6684682931348681,-0.7953489984244108,-2.157325333404541,-3.95821389465332,-8.914809881591797,11.661786441704315,28.03336056144219,56.313724668934135
9519,0.01666666753590107,0.7136331305071711,0.6479430992394686,-1.1808856083363295,-2.2577321655273437,-3.953275853729248,-9.315389746856688,9.921637802519012,34.58619623982823,50.7932754986901
9536,0.01666666753590107,0.7171352934092283,0.7325359838977455,-1.3730255522608756,-2.2328920310422777,-3.851671628515422,-9.52488180759847,9.66715776064903,40.61170033315427,47.139667292772295
9553,0.01666666753590107,0.7207350714668631,0.7879360918194055,-1.3586042281985282,-2.191891035351157,-3.780893041937053,-9.53251332539022,9.400732571694343,45.79021998826371,45.51768861019103
9568,0.01666666753590107,0.908306392301619,0.8861176491081714,-1.081059790971875,-1.940200878088176,-3.665223174230754,-9.287257292827963,10.462335214011084,48.6829656112096,45.72483800243376
9586,0.01666666753590107,1.0910682670280336,0.9892916078567504,-0.6632698477089405,-1.708412522125244,-3.550302079065144,-8.89281315383911,10.126962680479703,47.95669452128922,47.02589341667281
9603,0.01666666753590107,1.124814761546254,1.0349597185760735,-0.45250294472575187,-1.6307503135129808,-3.4905960906431077,-8.704568463787435,9.609002968734602,45.97320075612835,49.779064123929494
9619,0.01666666753590107,1.2314257090061902,1.0358248109728097,-0.15617665013968943,-1.4770722021907567,-3.469647118377685,-8.434772448730468,10.828460674280448,43.406115137714075,53.492583334152066
9636,0.01666666753590107,1.277997198306024,1.0390279909282922,0.03688157767355442,-1.4009069541379808,-3.452139226476848,-8.259097901916503,11.058041261531148,43.2581049383999,55.42184539730304
9653,0.01666666753590107,1.2736281894415615,1.024328434446454,0.11784662722349167,-1.377713125555217,-3.450493505096435,-8.195801195526123,9.485732568367858,42.54180592466774,56.56650997011631
9669,0.01666666753590107,1.3015499233290553,0.8850275157839059,0.13039572767317295,-1.3156135199949144,-3.5597289558410643,-8.21016640548706,6.069363726194452,42.18367861591646,57.703528146153744
9686,0.01666666753590107,1.3326257373332977,0.7899503542512655,0.11177929000854492,-1.2605468818113208,-3.6258687767028808,-8.251616021728514,3.9538091072050294,41.72735026237332,59.43698917636796
9703,0.01666666753590107,1.3608338869467378,0.7491010419905185,0.06774842510223389,-1.2114657477781177,-3.632602176611125,-8.320000406646727,2.367600125307118,40.642139071190435,61.68107514893233
9719,0.01666666753590107,1.4024354788795113,0.579149548998475,-0.08741232599318027,-1.1514610686704516,-3.752162622015178,-8.506897189220785,2.20080327723741,37.24057509092985,65.30636880564585
9736,0.01666666753590107,1.4108368119999766,0.5306304327622056,-0.3038572746127844,-1.1388915099546313,-3.761739720916748,-8.744522288513183,2.898055668138757,34.86995644889641,68.48268680745775
9753,0.01666666753590107,1.36379507483989,0.48564241326153273,-0.4773059620708227,-1.1888707618713379,-3.7677252250671383,-8.936806609344481,4.290686416787929,33.57018852531591,71.23964485460921
9769,0.01666666753590107,1.3062363275796174,0.364265566085279,-0.8059124780148267,-1.2511200050354003,-3.8449382286071776,-9.286060776519776,9.520166113294831,36.154154956263866,72.36594987893348
9786,0.01666666753590107,1.2035720719188452,0.35008126564919945,-1.0492682299137115,-1.3467384338378905,-3.8353614219665526,-9.543287817382812,11.992029503169018,41.91983865356262,72.21232526412155
9803,0.01666666753590107,1.1407838995724915,0.3412529392883181,-1.0483633900284766,-1.3890858757019042,-3.8230911384582518,-9.558850128173827,11.753213646386815,47.213296732025036,72.68218763750507
9819,0.01666666753590107,1.1636728999897836,0.2976230563983321,-0.8756178824037313,-1.3271353232234715,-3.835810042516887,-9.412654189300536,10.926990421926114,49.68400838125043,74.57841890582986
9836,0.01666666753590107,1.2542048193082214,0.26268881340026856,-0.6227215642213821,-1.2075754623413084,-3.84658453450948,-9.179817493328452,11.177390279540658,48.25584314655744,75.99741119646751
9853,0.01666666753590107,1.2714672120153903,0.26534254277944563,-0.5202642293095588,-1.1677718597412108,-3.819649473571777,-9.095422469329833,11.370453260393884,45.492526193288704,78.62481421544217
9869,0.01666666753590107,1.2630344608433544,0.2820513932570815,-0.5511468588292598,-1.1583442523129284,-3.769520584051311,-9.147196495708823,12.396497084117893,43.50862603187221,82.89011025776422
9886,0.01666666753590107,1.247963002309203,0.27923662809729577,-0.7209884617060422,-1.1638811359129846,-3.7509661057069894,-9.329754956817627,16.288297038282494,44.391042076408255,85.43120017619742
9903,0.01666666753590107,1.2293255218565464,0.262667478351295,-0.7792641250640153,-1.1695673648558556,-3.7562031295776364,-9.39694224090576,21.48601977024342,47.73439918456199,86.90056511196393
9919,0.01666666753590107,1.2199968447580933,0.3037327714502811,-0.6730792940616608,-1.155202154894918,-3.7107132980346678,-9.299378523254394,23.16457632481449,49.66733930458101,89.16693799179005
9936,0.01666666753590107,1.1964306757315992,0.21874913390874862,-0.5098293445348739,-1.1617862094603477,-3.7909187613889572,-9.14300722732544,21.712356871412013,48.55557916809428,90.47809525581155
9953,0.01666666753590107,1.1870508529677986,0.18702333156317472,-0.5013385795652866,-1.1575963565550744,-3.814561795043945,-9.14195976409912,20.668280494505524,47.45524593808898,90.4635947642036
9969,0.01666666753590107,1.1283484886303543,0.17037468684017656,-0.5915905128985643,-1.199644377081096,-3.8218937453672286,-9.241019857788086,22.513918844100736,47.35771425183579,90.2175371993539
9986,0.01666666753590107,1.1410926732607185,0.26450229256302116,-0.6595809300631285,-1.1743559143066407,-3.726425246429443,-9.312994960674644,24.98805583319489,47.16203616230409,91.02916857842652
10004,0.01666666753590107,1.174701951265335,0.3206874133825302,-0.693453973570466,-1.1312601382933556,-3.6739024475097652,-9.347711469268798,27.325805897394936,46.17857771428147,93.16057692025319
10019,0.01666666753590107,1.173406796888262,0.38833442393690343,-0.7054407639622687,-1.1281176024839281,-3.616291970062256,-9.356240228161216,29.14850505666266,43.925031929716624,95.09112988915729
10036,0.01666666753590107,1.1344874297767877,0.3777110308527946,-0.7912713737219571,-1.1694177272520958,-3.6357448585510252,-9.437344393920897,29.36995003483823,42.47534818404352,95.39824251499775
10053,0.01666666753590107,1.0813204877346754,0.38986002606898545,-0.8888304151982068,-1.2276267551146447,-3.632602176611125,-9.529370935711263,29.597221164375817,41.62234293407355,94.86968149588714
10069,0.01666666753590107,1.0186877982109785,0.4726227726906538,-1.133479714038968,-1.2969089656554162,-3.565564822387695,-9.764901108551024,31.608322554161884,41.82462923162723,93.88291723630623
10086,0.01666666753590107,0.918766265387088,0.6009659517481922,-1.366793964394927,-1.4015056506834924,-3.4543840827941894,-9.988908601379395,34.00727623596712,41.82740570352484,93.46803105555215
10104,0.01666666753590107,0.875518659812957,0.6688339115768671,-1.4511141695916652,-1.451484610339254,-3.4189202629640696,-10.05609588546753,37.75162008991396,41.74579177313236,93.09377083998129
10119,0.01666666753590107,0.8012893482588231,0.7300029582887888,-1.4927876577168702,-1.531391090746969,-3.3885432448789476,-10.081533693584799,39.63842569718413,41.743278263517794,92.18212500089219
10136,0.01666666753590107,0.6729973148666322,0.8166635891318321,-1.432688286063075,-1.6662147178649902,-3.3358711006164548,-10.003273226818441,40.146765941256916,40.517238816932995,90.85540173575222
10153,0.01666666753590107,0.49084392742738125,0.8586737618654966,-1.362204298517108,-1.8602946899414061,-3.3405098663330075,-9.906757556915283,40.48874668281029,39.02805950238429,87.7804232506558
10169,0.01666666753590107,0.419630018171668,0.9015861441358923,-1.3378987093001604,-1.939452543938905,-3.3363197211667894,-9.861118087768554,41.47202413081991,39.044233390338874,84.10406709970727
10186,0.01666666753590107,0.3444140336677432,0.9777093066126108,-1.140149108800292,-2.018461490985006,-3.301903656823933,-9.641450085449218,41.45753046940114,39.91715205683401,80.67664402324903
10203,0.01666666753590107,0.3403222343094647,1.0007722022920846,-0.807769504058361,-2.0205565635681153,-3.3361706680849195,-9.280523600658773,40.651923317176475,40.44878324597654,76.16463471791694
10219,0.01666666753590107,0.31439781171903014,1.0364128399938344,-0.672860682874918,-2.0446479255124927,-3.342904067993164,-9.124302526855468,39.088530582200995,37.54884543383462,72.9918547540951
