ts,interval,accx,accy,accz,accGx,accGy,accGz,alpha,beta,gamma
1698920729001.0,16,0.0,0.1,-0.1,-0.4,9.5,1.0,0.9,-0.7,0.4
1698920729018.0,16,0.0,0.1,-0.1,-0.4,9.600000000000001,1.0,0.6000000000000001,-0.5,0.4
1698920729035.0,16,0.0,0.1,-0.1,-0.4,9.600000000000001,1.0,0.6000000000000001,-0.2,0.6000000000000001
1698920729053.0,16,0.0,0.0,-0.1,-0.4,9.5,1.0,0.2,0.0,0.4
1698920729068.0,16,0.0,0.0,-0.1,-0.4,9.5,1.0,0.1,0.0,0.30000000000000004
1698920729085.0,16,0.0,0.1,0.0,-0.4,9.5,1.0,0.0,-0.30000000000000004,0.0
1698920729101.0,16,0.0,0.0,0.0,-0.4,9.5,1.1,-0.2,0.0,-0.1
1698920729118.0,16,0.1,0.0,0.0,-0.30000000000000004,9.5,1.1,-0.2,0.30000000000000004,-0.2
1698920729135.0,16,0.1,0.0,0.0,-0.30000000000000004,9.5,1.1,-0.4,-0.30000000000000004,-0.2
1698920729153.0,16,0.0,0.0,0.0,-0.4,9.5,1.1,-0.2,0.30000000000000004,-0.1
1698920729168.0,16,0.0,0.0,0.0,-0.4,9.5,1.1,0.0,0.4,-0.2
1698920729185.0,16,0.0,0.0,0.1,-0.4,9.5,1.1,-0.1,0.30000000000000004,-0.2
1698920729201.0,16,0.0,0.0,0.1,-0.4,9.5,1.2000000000000002,-0.30000000000000004,0.5,-0.2
1698920729218.0,16,0.0,0.0,0.1,-0.4,9.4,1.2000000000000002,-0.2,0.5,-0.4
1698920729234.0,16,0.0,-0.1,0.1,-0.4,9.4,1.1,-0.2,0.6000000000000001,-0.4
1698920729251.0,16,0.0,0.0,0.1,-0.4,9.5,1.2000000000000002,-0.1,0.6000000000000001,-0.30000000000000004
1698920729268.0,16,0.0,0.0,0.0,-0.4,9.5,1.2000000000000002,0.1,0.6000000000000001,-0.2
1698920729285.0,16,0.0,0.0,0.1,-0.4,9.5,1.2000000000000002,0.1,0.30000000000000004,-0.30000000000000004
1698920729301.0,16,0.0,0.0,0.0,-0.4,9.5,1.2000000000000002,0.2,0.30000000000000004,-0.4
1698920729318.0,16,0.0,-0.1,0.0,-0.4,9.4,1.1,0.1,0.5,-0.6000000000000001
1698920729334.0,16,0.0,0.0,0.0,-0.4,9.4,1.1,0.2,0.4,-0.6000000000000001
1698920729351.0,16,0.0,0.0,0.0,-0.4,9.5,1.1,0.4,0.30000000000000004,-0.4
1698920729368.0,16,-0.1,0.0,0.0,-0.5,9.5,1.1,0.6000000000000001,0.2,-0.2
1698920729385.0,16,0.0,0.0,0.0,-0.4,9.5,1.1,0.6000000000000001,0.2,-0.2
1698920729401.0,16,0.0,0.0,0.0,-0.4,9.5,1.1,0.6000000000000001,-0.1,-0.2
1698920729419.0,16,0.0,0.0,0.0,-0.4,9.5,1.1,0.5,-0.4,-0.2
1698920729435.0,16,0.0,0.0,0.0,-0.4,9.5,1.1,0.6000000000000001,-0.5,-0.2
1698920729452.0,16,0.0,0.0,0.0,-0.4,9.5,1.1,0.7,-0.6000000000000001,-0.1
1698920729469.0,16,0.0,0.0,0.0,-0.5,9.5,1.1,0.7,-0.8,0.0
1698920729485.0,16,0.0,0.0,0.0,-0.4,9.5,1.1,0.9,-0.8,-0.1
1698920729501.0,16,0.0,0.0,0.0,-0.4,9.5,1.1,0.6000000000000001,-0.6000000000000001,-0.1
1698920729518.0,16,0.0,0.0,0.0,-0.4,9.5,1.1,0.8,-0.5,-0.1
1698920729534.0,16,0.0,0.0,0.0,-0.4,9.5,1.1,0.8,-0.6000000000000001,-0.1
1698920729551.0,16,0.0,0.0,0.0,-0.4,9.5,1.1,0.8,-0.30000000000000004,0.1
1698920729568.0,16,0.0,0.0,0.0,-0.4,9.5,1.1,0.7,-0.2,0.0
1698920729584.0,16,0.0,0.0,0.0,-0.4,9.5,1.1,0.6000000000000001,-0.2,-0.1
1698920729604.0,16,0.0,0.0,0.0,-0.4,9.5,1.1,0.4,0.2,-0.1
1698920729618.0,16,0.0,0.0,0.0,-0.4,9.5,1.1,0.4,0.2,-0.2
1698920729636.0,16,0.0,0.0,0.0,-0.4,9.5,1.1,0.30000000000000004,0.2,-0.2
1698920729652.0,16,0.0,0.0,0.0,-0.4,9.5,1.1,0.2,0.1,-0.2
1698920729668.0,16,0.0,0.0,0.0,-0.4,9.5,1.0,0.2,0.30000000000000004,-0.2
1698920729686.0,16,0.0,0.0,0.0,-0.4,9.5,1.0,0.2,0.2,-0.2
1698920729701.0,16,0.0,0.0,0.0,-0.4,9.5,1.1,0.30000000000000004,0.2,-0.30000000000000004
1698920729719.0,16,0.0,0.0,0.0,-0.4,9.5,1.1,0.1,0.30000000000000004,-0.2
1698920729735.0,16,0.0,0.0,0.0,-0.4,9.5,1.1,0.1,0.2,-0.30000000000000004
1698920729751.0,16,0.0,0.0,0.0,-0.4,9.5,1.1,-0.2,0.2,-0.1
1698920729768.0,16,-0.1,0.0,0.0,-0.5,9.5,1.0,-0.4,0.1,-0.1
1698920729786.0,16,0.0,0.1,-0.1,-0.5,9.5,1.0,-0.5,0.1,-0.1
1698920729801.0,16,0.0,0.0,0.0,-0.5,9.5,1.0,-0.9,0.0,-0.2
1698920729818.0,16,0.0,0.0,0.0,-0.4,9.5,1.1,-1.0999999999999999,-0.2,-0.4
1698920729836.0,16,0.0,0.0,0.0,-0.4,9.5,1.1,-1.0,-0.30000000000000004,-0.4
1698920729851.0,16,0.0,-0.1,0.0,-0.4,9.4,1.1,-0.9,-0.5,-0.5
1698920729868.0,16,0.0,0.0,0.0,-0.4,9.5,1.1,-0.9,-0.5,-0.30000000000000004
1698920729884.0,16,0.0,0.0,0.0,-0.5,9.5,1.1,-0.9,-0.4,-0.2
1698920729901.0,16,0.0,0.0,0.0,-0.5,9.5,1.1,-0.7,-0.6000000000000001,-0.1
1698920729918.0,16,0.0,0.0,0.1,-0.4,9.4,1.1,-0.30000000000000004,-0.6000000000000001,-0.1
1698920729934.0,16,0.0,0.0,0.0,-0.4,9.5,1.1,-0.2,-0.30000000000000004,-0.1
1698920729951.0,16,0.0,0.0,0.1,-0.4,9.5,1.1,-0.2,-0.2,-0.1
1698920729968.0,16,0.1,0.0,0.1,-0.4,9.4,1.2000000000000002,0.0,-0.1,-0.1
1698920729985.0,16,0.0,0.0,0.0,-0.4,9.4,1.1,-0.4,0.0,-0.2
1698920730001.0,16,0.0,0.0,0.1,-0.4,9.4,1.2000000000000002,-0.5,0.2,-0.2
1698920730018.0,16,0.0,0.0,0.0,-0.4,9.5,1.1,-0.5,0.0,-0.1
1698920730034.0,16,0.0,0.0,0.1,-0.5,9.5,1.2000000000000002,-0.4,-0.30000000000000004,-0.1
1698920730051.0,16,0.0,0.0,0.0,-0.5,9.5,1.1,-0.4,-0.5,-0.1
1698920730068.0,16,0.0,0.0,0.0,-0.5,9.5,1.2000000000000002,-0.1,-0.5,0.0
1698920730085.0,16,0.0,0.0,0.0,-0.4,9.5,1.1,-0.1,-0.1,-0.2
1698920730101.0,16,0.0,0.0,0.0,-0.4,9.5,1.1,-0.1,-0.4,-0.30000000000000004
1698920730119.0,16,0.0,0.0,0.0,-0.4,9.5,1.1,0.0,-0.5,-0.2
1698920730134.0,16,0.0,0.0,0.0,-0.5,9.5,1.1,0.2,-0.5,-0.1
1698920730151.0,16,0.0,0.0,0.0,-0.5,9.5,1.1,0.1,-0.5,-0.1
1698920730168.0,16,0.0,0.0,0.0,-0.4,9.5,1.1,0.2,-0.6000000000000001,-0.2
1698920730184.0,16,0.0,0.0,0.0,-0.5,9.5,1.1,0.4,-0.30000000000000004,0.0
1698920730201.0,16,0.0,0.0,0.0,-0.5,9.5,1.1,0.4,-0.6000000000000001,0.1
1698920730218.0,16,0.0,0.0,0.0,-0.5,9.5,1.1,0.5,-0.8,0.2
1698920730234.0,16,0.0,0.0,0.0,-0.4,9.5,1.1,0.6000000000000001,-0.5,0.2
1698920730251.0,16,0.0,0.0,0.0,-0.4,9.5,1.1,0.6000000000000001,-0.5,0.1
1698920730268.0,16,0.1,0.0,0.0,-0.4,9.5,1.1,0.6000000000000001,-0.2,-0.30000000000000004
1698920730284.0,16,0.0,0.0,0.0,-0.4,9.5,1.1,0.2,0.0,-0.2
1698920730301.0,16,0.0,0.0,0.0,-0.4,9.5,1.1,0.1,-0.2,-0.1
1698920730318.0,16,0.0,0.0,0.0,-0.5,9.5,1.1,-0.2,-0.30000000000000004,0.1
1698920730334.0,16,0.0,0.0,0.0,-0.5,9.5,1.1,0.1,-0.6000000000000001,0.1
1698920730351.0,16,0.0,0.0,0.0,-0.5,9.5,1.1,-0.4,-0.1,-0.1
1698920730368.0,16,0.0,0.0,0.0,-0.4,9.5,1.1,-0.4,0.0,-0.1
1698920730386.0,16,0.0,0.0,0.0,-0.4,9.5,1.1,-0.30000000000000004,-0.2,-0.1
1698920730401.0,16,0.0,0.0,0.0,-0.4,9.5,1.1,0.1,-0.2,-0.1
1698920730418.0,16,0.0,0.0,0.0,-0.4,9.5,1.1,0.2,-0.2,-0.1
1698920730436.0,16,0.0,0.0,0.0,-0.4,9.5,1.1,0.30000000000000004,-0.5,-0.2
1698920730451.0,16,0.0,0.0,0.0,-0.4,9.5,1.1,0.2,-0.5,-0.1
1698920730468.0,16,0.0,0.0,0.0,-0.4,9.5,1.1,-0.4,-0.30000000000000004,0.0
1698920730484.0,16,0.0,0.0,0.0,-0.4,9.5,1.1,-0.2,-0.1,-0.1
1698920730501.0,16,0.0,0.0,0.0,-0.4,9.5,1.1,-0.1,0.2,-0.1
1698920730518.0,16,0.0,0.0,0.0,-0.4,9.5,1.1,-0.1,0.4,-0.1
1698920730534.0,16,0.0,0.0,0.0,-0.4,9.5,1.1,0.0,0.2,0.1
1698920730552.0,16,0.0,0.0,0.0,-0.4,9.5,1.1,-0.2,0.0,0.0
1698920730570.0,16,0.0,0.0,0.0,-0.5,9.5,1.1,-0.2,-0.1,0.0
1698920730584.0,16,0.0,0.0,0.0,-0.4,9.5,1.1,-0.1,0.4,-0.1
1698920730601.0,16,0.0,0.0,0.0,-0.4,9.5,1.1,-0.2,0.0,-0.2
1698920730619.0,16,0.0,0.0,0.0,-0.5,9.5,1.1,-0.2,-0.2,-0.2
1698920730635.0,16,0.0,0.0,0.0,-0.5,9.4,1.1,0.0,-0.30000000000000004,-0.1
1698920730651.0,16,0.0,0.0,0.0,-0.4,9.5,1.1,0.1,-0.2,-0.1
1698920730668.0,16,0.0,-0.1,0.0,-0.4,9.4,1.1,0.2,0.1,-0.1
1698920730685.0,16,0.0,0.0,0.0,-0.4,9.5,1.1,0.1,-0.2,-0.2
1698920730702.0,16,0.0,0.0,0.0,-0.4,9.4,1.1,0.0,0.0,-0.2
1698920730719.0,16,0.0,0.0,0.0,-0.4,9.5,1.1,0.0,-0.2,-0.1
1698920730737.0,16,0.0,0.0,0.0,-0.5,9.5,1.1,-0.2,0.0,-0.2
1698920730752.0,16,0.0,0.0,0.0,-0.5,9.5,1.1,-0.2,0.1,0.1
1698920730767.0,16,0.0,0.0,0.0,-0.5,9.5,1.1,-0.2,-0.2,0.0
1698920730785.0,16,0.0,0.0,0.0,-0.5,9.5,1.1,-0.30000000000000004,-0.1,0.1
1698920730801.0,16,0.0,0.0,0.0,-0.5,9.5,1.1,-0.2,-0.30000000000000004,0.0
1698920730817.0,16,0.0,0.0,0.0,-0.5,9.5,1.1,-0.30000000000000004,-0.30000000000000004,-0.1
1698920730835.0,16,0.0,0.0,0.0,-0.4,9.5,1.1,-0.30000000000000004,0.0,-0.1
1698920730851.0,16,0.0,0.0,0.0,-0.4,9.5,1.1,-0.1,0.0,-0.2
1698920730868.0,16,0.0,0.0,0.0,-0.5,9.5,1.1,-0.30000000000000004,0.0,-0.2
1698920730885.0,16,0.0,0.0,0.0,-0.4,9.5,1.1,-0.30000000000000004,0.0,-0.1
1698920730902.0,16,0.0,0.0,0.0,-0.5,9.5,1.1,-0.30000000000000004,0.4,-0.1
1698920730919.0,16,0.0,0.0,0.0,-0.5,9.5,1.1,-0.4,0.5,-0.1
1698920730935.0,16,0.0,0.0,0.0,-0.5,9.5,1.1,-0.5,0.4,0.0
1698920730951.0,16,0.0,0.0,0.0,-0.5,9.5,1.1,-0.6000000000000001,0.5,0.0
1698920730970.0,16,0.0,0.0,0.0,-0.5,9.5,1.1,-0.7,0.30000000000000004,0.0
1698920730985.0,16,0.0,0.0,0.0,-0.5,9.5,1.1,-0.7,0.4,0.1
1698920731001.0,16,0.0,0.0,0.0,-0.4,9.5,1.1,-0.4,0.5,0.0
1698920731018.0,16,0.0,0.0,0.0,-0.4,9.5,1.1,-0.1,0.5,-0.1
1698920731034.0,16,0.0,0.0,0.0,-0.4,9.5,1.2000000000000002,-0.1,0.4,-0.1
1698920731051.0,16,0.0,0.0,0.0,-0.5,9.5,1.2000000000000002,-0.2,0.30000000000000004,0.0
1698920731067.0,16,0.0,0.0,0.0,-0.4,9.5,1.2000000000000002,-0.30000000000000004,0.0,0.0
1698920731085.0,16,0.0,0.0,0.0,-0.5,9.5,1.1,-0.2,-0.1,0.0
1698920731101.0,16,0.0,0.0,0.0,-0.5,9.5,1.2000000000000002,0.1,0.30000000000000004,-0.1
1698920731117.0,16,0.0,0.0,0.0,-0.5,9.4,1.1,0.1,0.1,0.0
1698920731134.0,16,0.0,0.0,0.0,-0.5,9.5,1.1,0.1,-0.1,0.0
1698920731151.0,16,0.0,0.0,0.0,-0.5,9.5,1.2000000000000002,0.1,-0.1,0.1
1698920731168.0,16,0.0,0.0,0.0,-0.5,9.5,1.1,0.0,0.0,0.1
1698920731185.0,16,0.1,0.0,0.0,-0.4,9.5,1.1,0.0,0.2,-0.4
1698920731201.0,16,0.1,0.0,0.0,-0.4,9.5,1.1,0.2,0.2,-0.30000000000000004
1698920731218.0,16,0.0,0.0,0.0,-0.4,9.5,1.1,0.4,0.1,-0.2
1698920731235.0,16,0.0,0.0,0.0,-0.5,9.5,1.1,0.4,0.1,-0.2
1698920731251.0,16,0.0,0.0,0.0,-0.5,9.4,1.1,0.4,0.0,-0.2
1698920731268.0,16,0.0,0.0,0.0,-0.5,9.4,1.1,0.2,0.0,-0.2
1698920731285.0,16,0.0,0.0,0.0,-0.5,9.5,1.1,0.2,-0.30000000000000004,-0.2
1698920731301.0,16,0.0,0.0,0.0,-0.5,9.5,1.1,0.30000000000000004,-0.2,0.0
1698920731318.0,16,0.0,0.0,0.0,-0.5,9.5,1.1,0.6000000000000001,0.0,-0.1
1698920731335.0,16,0.0,0.0,0.0,-0.5,9.5,1.1,0.5,0.0,0.1
1698920731355.0,16,0.0,0.0,0.0,-0.5,9.5,1.1,0.6000000000000001,-0.2,0.0
1698920731367.0,16,0.0,0.0,0.0,-0.5,9.5,1.1,0.4,0.0,0.1
1698920731385.0,16,0.0,0.0,0.0,-0.5,9.5,1.1,0.4,-0.2,0.1
1698920731401.0,16,0.0,0.0,0.0,-0.4,9.5,1.1,0.1,-0.1,0.1
1698920731418.0,16,0.0,0.0,0.0,-0.5,9.4,1.1,0.1,-0.2,0.1
1698920731435.0,16,0.0,0.0,0.0,-0.5,9.5,1.1,0.2,-0.1,0.0
1698920731451.0,16,0.0,0.0,0.0,-0.5,9.5,1.1,0.4,-0.1,0.0
1698920731467.0,16,0.0,0.0,0.0,-0.5,9.4,1.1,0.4,0.30000000000000004,0.2
1698920731485.0,16,0.0,0.0,0.0,-0.5,9.5,1.1,0.4,0.30000000000000004,0.1
1698920731501.0,16,0.0,0.0,0.0,-0.5,9.5,1.1,0.6000000000000001,0.30000000000000004,0.1
1698920731518.0,16,0.0,0.0,0.0,-0.4,9.5,1.1,0.5,0.5,0.0
1698920731535.0,16,0.0,0.0,0.0,-0.4,9.5,1.1,0.6000000000000001,0.4,-0.1
1698920731552.0,16,0.0,0.0,0.0,-0.5,9.5,1.1,0.4,0.1,0.1
1698920731568.0,16,0.0,0.0,0.0,-0.5,9.5,1.1,0.4,0.2,0.30000000000000004
1698920731585.0,16,0.0,0.0,0.0,-0.5,9.5,1.1,0.5,0.0,0.1
1698920731601.0,16,0.0,0.0,0.0,-0.5,9.5,1.1,0.5,0.30000000000000004,0.2
1698920731619.0,16,0.0,0.0,0.0,-0.5,9.5,1.1,0.6000000000000001,0.2,0.1
1698920731635.0,16,0.0,0.0,0.0,-0.5,9.5,1.1,0.5,0.2,0.2
1698920731651.0,16,0.0,0.0,0.0,-0.5,9.5,1.1,0.4,0.2,0.1
1698920731669.0,16,0.0,0.0,0.0,-0.5,9.5,1.1,0.30000000000000004,0.2,0.1
1698920731684.0,16,0.0,0.0,0.0,-0.5,9.5,1.1,0.30000000000000004,0.1,0.1
1698920731701.0,16,0.0,0.0,0.0,-0.5,9.5,1.1,0.30000000000000004,-0.1,0.2
1698920731719.0,16,0.0,0.0,0.0,-0.5,9.5,1.1,0.1,-0.2,0.4
1698920731734.0,16,0.0,0.0,0.0,-0.5,9.5,1.1,-0.1,-0.30000000000000004,0.4
1698920731755.0,16,0.0,0.0,0.0,-0.4,9.5,1.1,0.1,-0.1,0.2
1698920731767.0,16,0.0,0.0,0.0,-0.4,9.5,1.1,0.1,0.1,0.2
1698920731785.0,16,0.0,0.0,0.0,-0.5,9.5,1.1,0.1,0.0,0.2
1698920731801.0,16,0.0,0.0,0.0,-0.5,9.5,1.1,0.1,0.2,0.1
1698920731817.0,16,0.0,0.0,0.0,-0.5,9.5,1.1,0.1,0.0,0.30000000000000004
1698920731835.0,16,0.0,0.0,0.0,-0.5,9.5,1.1,0.1,0.1,0.30000000000000004
1698920731851.0,16,0.0,0.0,0.0,-0.4,9.5,1.1,0.1,0.4,0.30000000000000004
1698920731868.0,16,0.0,0.0,0.0,-0.5,9.5,1.1,0.2,0.5,0.1
1698920731884.0,16,0.0,0.0,0.0,-0.4,9.5,1.1,0.1,0.4,0.2
1698920731901.0,16,0.0,0.0,0.0,-0.5,9.5,1.1,0.0,0.0,0.2
1698920731919.0,16,0.0,0.0,0.0,-0.5,9.5,1.1,-0.1,0.2,0.30000000000000004
1698920731934.0,16,0.0,0.0,0.0,-0.5,9.5,1.1,0.0,0.2,0.1
1698920731951.0,16,0.0,0.0,0.0,-0.4,9.5,1.1,0.1,0.2,0.1
1698920731968.0,16,0.0,0.0,0.0,-0.5,9.5,1.1,0.0,0.30000000000000004,0.1
1698920731984.0,16,0.0,0.0,0.0,-0.5,9.5,1.1,0.1,0.2,0.1
1698920732001.0,16,0.0,0.0,0.0,-0.5,9.5,1.1,0.1,0.30000000000000004,0.1
1698920732019.0,16,0.0,0.0,0.0,-0.5,9.5,1.1,-0.1,0.2,0.1
1698920732040.0,16,0.0,0.0,0.0,-0.5,9.5,1.1,-0.1,-0.1,0.1
1698920732052.0,16,0.0,0.0,0.0,-0.5,9.5,1.1,0.1,0.0,0.0
1698920732069.0,16,0.0,0.0,0.0,-0.4,9.5,1.1,-0.1,0.1,0.1
1698920732084.0,16,0.0,0.0,0.0,-0.5,9.5,1.1,-0.1,0.2,0.1
1698920732101.0,16,0.0,0.0,0.0,-0.5,9.5,1.1,-0.1,0.0,0.30000000000000004
1698920732118.0,16,0.0,0.0,0.0,-0.4,9.5,1.1,0.1,-0.1,-0.1
1698920732134.0,16,0.0,0.0,0.0,-0.4,9.5,1.1,0.1,0.1,-0.1
1698920732152.0,16,0.0,0.0,0.0,-0.4,9.5,1.1,0.1,0.2,-0.1
1698920732168.0,16,0.0,0.0,0.0,-0.5,9.5,1.1,0.1,0.1,0.0
1698920732184.0,16,0.0,0.0,0.0,-0.5,9.5,1.1,0.1,-0.2,0.0
1698920732201.0,16,0.0,0.0,0.0,-0.5,9.5,1.1,0.1,0.0,-0.1
1698920732217.0,16,0.0,0.0,0.0,-0.5,9.5,1.1,0.1,-0.1,-0.1
1698920732234.0,16,0.0,0.0,0.0,-0.5,9.5,1.1,0.0,-0.2,-0.1
1698920732251.0,16,0.0,0.0,0.0,-0.5,9.5,1.1,0.2,-0.2,0.1
1698920732268.0,16,0.0,0.0,0.0,-0.5,9.5,1.1,0.2,-0.2,0.0
1698920732284.0,16,0.0,0.0,0.0,-0.5,9.5,1.1,0.1,-0.4,-0.1
1698920732301.0,16,0.0,0.0,0.0,-0.5,9.5,1.1,0.2,-0.2,-0.1
1698920732318.0,16,0.0,0.0,0.0,-0.4,9.5,1.1,0.2,-0.30000000000000004,-0.1
1698920732334.0,16,0.0,0.0,0.0,-0.5,9.5,1.1,0.2,-0.1,-0.1
1698920732351.0,16,0.0,0.0,0.0,-0.5,9.5,1.1,0.30000000000000004,0.0,-0.1
1698920732367.0,16,0.0,0.0,0.0,-0.4,9.5,1.1,0.2,-0.2,-0.2
1698920732384.0,16,0.0,0.0,0.0,-0.4,9.5,1.1,0.1,-0.2,-0.1
1698920732401.0,16,0.0,0.0,0.0,-0.4,9.5,1.1,0.1,-0.2,-0.1
1698920732418.0,16,0.0,0.0,0.0,-0.5,9.5,1.1,0.1,0.2,-0.1
1698920732434.0,16,0.0,0.0,0.0,-0.5,9.5,1.1,0.1,0.0,-0.1
1698920732451.0,16,0.0,0.0,0.0,-0.5,9.5,1.1,0.1,0.0,-0.1
1698920732468.0,16,0.0,0.0,0.0,-0.4,9.5,1.1,0.2,0.0,0.0
1698920732484.0,16,0.0,0.0,0.0,-0.4,9.5,1.1,0.2,0.0,-0.1
1698920732501.0,16,0.0,0.0,0.0,-0.4,9.5,1.1,0.2,0.0,0.0
1698920732518.0,16,0.0,0.0,0.0,-0.5,9.5,1.1,0.2,0.1,0.1
1698920732535.0,16,0.0,0.0,0.0,-0.5,9.5,1.1,0.1,0.0,0.1
1698920732551.0,16,0.0,0.0,0.0,-0.5,9.5,1.1,0.1,0.0,0.0
1698920732567.0,16,0.0,0.0,0.0,-0.5,9.5,1.1,0.0,-0.1,-0.1
1698920732584.0,16,0.0,0.0,0.0,-0.5,9.5,1.1,0.1,-0.1,-0.1
1698920732601.0,16,0.0,0.0,0.0,-0.5,9.5,1.1,0.30000000000000004,-0.2,0.1
1698920732618.0,16,0.0,0.0,0.0,-0.5,9.5,1.1,0.2,-0.1,0.1
1698920732635.0,16,0.0,0.0,0.0,-0.5,9.5,1.1,0.1,-0.2,0.2
1698920732652.0,16,0.0,0.0,0.0,-0.5,9.5,1.1,-0.2,-0.4,0.1
1698920732668.0,16,0.0,0.0,0.0,-0.5,9.5,1.1,-0.1,-0.5,0.2
1698920732685.0,16,0.0,0.0,0.0,-0.5,9.5,1.1,-0.1,-0.30000000000000004,0.30000000000000004
1698920732701.0,16,0.0,0.0,0.0,-0.5,9.5,1.1,-0.1,-0.5,0.30000000000000004
1698920732718.0,16,0.0,0.0,0.0,-0.5,9.5,1.1,0.0,-0.5,0.2
1698920732734.0,16,0.0,0.0,0.0,-0.5,9.5,1.1,-0.1,-0.5,0.30000000000000004
1698920732751.0,16,0.0,0.0,0.0,-0.5,9.5,1.1,0.0,-0.4,0.2
1698920732768.0,16,0.0,0.0,0.0,-0.5,9.5,1.1,-0.1,-0.30000000000000004,0.30000000000000004
1698920732785.0,16,0.0,0.0,0.0,-0.4,9.5,1.1,-0.2,-0.4,0.30000000000000004
1698920732801.0,16,0.0,0.0,0.0,-0.4,9.5,1.1,-0.30000000000000004,-0.4,0.4
1698920732818.0,16,0.0,0.0,0.0,-0.4,9.5,1.1,-0.30000000000000004,-0.8,0.30000000000000004
1698920732837.0,16,0.0,0.0,0.0,-0.5,9.5,1.1,-0.30000000000000004,-0.6000000000000001,0.4
1698920732854.0,16,0.0,0.0,0.0,-0.5,9.5,1.1,-0.1,-0.6000000000000001,0.30000000000000004
1698920732868.0,16,0.0,0.0,0.0,-0.4,9.5,1.1,-0.1,-0.6000000000000001,0.2
1698920732885.0,16,0.0,0.0,0.0,-0.4,9.5,1.1,-0.2,-0.2,0.2
1698920732902.0,16,0.0,0.0,0.0,-0.4,9.5,1.1,-0.2,0.0,0.30000000000000004
1698920732919.0,16,0.0,0.0,0.0,-0.5,9.5,1.1,-0.1,-0.1,0.2
1698920732935.0,16,0.0,0.0,0.0,-0.4,9.5,1.1,-0.2,0.0,0.30000000000000004
1698920732951.0,16,0.0,0.0,0.0,-0.5,9.5,1.1,-0.2,0.30000000000000004,0.30000000000000004
1698920732968.0,16,0.0,0.0,0.0,-0.4,9.5,1.1,-0.30000000000000004,0.30000000000000004,0.30000000000000004
1698920732984.0,16,0.0,0.0,0.0,-0.5,9.5,1.1,-0.2,0.0,0.30000000000000004
1698920733001.0,16,0.0,0.0,0.0,-0.5,9.5,1.1,-0.2,0.1,0.30000000000000004
1698920733018.0,16,0.0,0.0,0.0,-0.5,9.5,1.1,-0.2,0.0,0.30000000000000004
1698920733035.0,16,0.0,0.0,0.0,-0.5,9.5,1.1,-0.2,0.0,0.30000000000000004
1698920733052.0,16,0.0,0.0,0.0,-0.5,9.5,1.1,-0.5,-0.5,0.4
1698920733068.0,16,0.0,0.0,0.0,-0.5,9.5,1.1,-0.4,-0.5,0.4
1698920733084.0,16,0.0,0.0,0.0,-0.5,9.5,1.1,-0.2,-0.4,0.4
1698920733101.0,16,0.1,0.0,0.0,-0.4,9.4,1.1,-0.1,0.0,-0.1
1698920733117.0,16,0.0,0.0,0.0,-0.4,9.5,1.1,-0.2,0.0,0.0
1698920733135.0,16,0.0,0.0,0.0,-0.4,9.5,1.1,-0.30000000000000004,0.0,0.30000000000000004
1698920733151.0,16,0.0,0.0,0.0,-0.5,9.5,1.1,-0.7,-0.2,0.5
1698920733168.0,16,0.0,0.0,0.0,-0.5,9.5,1.1,-0.8,-0.4,0.30000000000000004
1698920733184.0,16,0.0,0.0,0.0,-0.5,9.5,1.1,-0.8,-0.2,0.2
1698920733201.0,16,0.0,0.0,0.0,-0.4,9.5,1.1,-0.7,-0.2,0.1
1698920733218.0,16,0.0,0.0,0.0,-0.4,9.4,1.1,-0.30000000000000004,-0.1,0.2
1698920733234.0,16,0.0,0.0,0.0,-0.4,9.4,1.1,-0.1,-0.2,0.30000000000000004
1698920733251.0,16,0.0,0.0,0.0,-0.5,9.5,1.1,0.1,-0.30000000000000004,0.4
1698920733268.0,16,0.0,0.0,0.0,-0.4,9.5,1.1,0.2,0.0,0.2
1698920733284.0,16,0.0,0.0,0.0,-0.5,9.5,1.1,-0.1,-0.1,0.1
1698920733301.0,16,0.0,0.0,0.0,-0.4,9.5,1.1,-0.1,-0.2,0.1
1698920733319.0,16,0.0,0.0,0.0,-0.4,9.5,1.1,-0.2,-0.2,0.1
1698920733335.0,16,0.0,0.0,0.0,-0.4,9.5,1.2000000000000002,-0.4,-0.30000000000000004,0.1
1698920733351.0,16,0.0,0.0,0.0,-0.4,9.5,1.2000000000000002,-0.4,-0.2,0.0
1698920733368.0,16,0.0,0.0,0.0,-0.4,9.5,1.1,-0.4,-0.30000000000000004,0.0
1698920733384.0,16,0.0,0.0,0.0,-0.4,9.5,1.1,-0.4,0.0,0.0
1698920733401.0,16,0.0,0.0,0.0,-0.4,9.5,1.1,-0.30000000000000004,-0.1,0.0
1698920733418.0,16,0.0,0.0,0.0,-0.4,9.5,1.1,-0.2,0.1,0.1
1698920733434.0,16,0.0,0.0,0.0,-0.4,9.4,1.1,0.2,0.4,-0.1
1698920733451.0,16,0.0,0.0,0.0,-0.4,9.4,1.1,0.1,0.4,-0.1
1698920733468.0,16,0.0,0.0,0.0,-0.5,9.5,1.1,0.1,0.2,0.0
1698920733484.0,16,0.0,0.0,0.0,-0.4,9.5,1.1,-0.1,0.1,-0.1
1698920733501.0,16,0.0,0.0,0.0,-0.4,9.5,1.1,-0.1,-0.2,0.1
1698920733518.0,16,0.0,0.0,0.0,-0.4,9.5,1.1,0.0,-0.1,-0.2
1698920733536.0,16,0.0,0.0,0.1,-0.4,9.5,1.2000000000000002,0.1,-0.2,-0.1
1698920733552.0,16,0.0,0.0,0.0,-0.5,9.5,1.1,0.1,-0.2,-0.2
1698920733568.0,16,0.0,0.0,0.0,-0.4,9.5,1.1,0.1,0.1,0.0
1698920733584.0,16,0.0,0.0,0.0,-0.4,9.5,1.1,0.2,0.2,0.0
1698920733601.0,16,0.0,0.0,0.0,-0.5,9.5,1.1,0.1,0.2,-0.1
1698920733618.0,16,0.0,0.0,0.0,-0.5,9.5,1.1,0.0,0.0,-0.1
1698920733635.0,16,0.0,0.0,0.0,-0.4,9.5,1.1,0.0,-0.1,0.0
1698920733653.0,16,0.0,0.0,0.0,-0.4,9.4,1.1,-0.1,-0.1,0.0
1698920733667.0,16,0.0,0.0,0.0,-0.5,9.5,1.1,0.2,-0.2,0.1
1698920733684.0,16,0.0,0.0,0.0,-0.5,9.5,1.1,0.1,-0.30000000000000004,0.1
1698920733701.0,16,0.0,0.0,0.0,-0.5,9.5,1.1,0.4,-0.1,0.1
1698920733717.0,16,0.0,0.0,0.0,-0.4,9.5,1.1,0.30000000000000004,-0.2,0.0
1698920733734.0,16,0.0,0.0,0.0,-0.4,9.5,1.1,0.2,-0.2,0.0
1698920733752.0,16,0.0,0.0,0.0,-0.5,9.5,1.1,0.2,-0.1,-0.1
1698920733769.0,16,0.0,0.0,0.0,-0.4,9.5,1.1,0.2,0.0,-0.1
1698920733785.0,16,0.0,0.0,0.0,-0.4,9.5,1.1,0.30000000000000004,-0.2,-0.1
1698920733801.0,16,0.0,0.0,0.0,-0.5,9.5,1.1,0.4,0.0,0.0
1698920733818.0,16,0.0,0.0,0.0,-0.4,9.5,1.1,0.4,0.0,0.0
1698920733834.0,16,0.0,0.0,0.0,-0.4,9.5,1.1,0.6000000000000001,0.0,0.0
1698920733852.0,16,0.0,0.0,0.0,-0.4,9.5,1.1,0.6000000000000001,0.0,0.1
1698920733868.0,16,0.0,0.0,0.0,-0.5,9.4,1.1,0.6000000000000001,0.2,0.1
1698920733885.0,16,0.0,0.0,0.0,-0.5,9.5,1.1,0.8,0.6000000000000001,0.1
1698920733901.0,16,0.0,0.0,0.0,-0.4,9.5,1.1,0.9,0.5,0.1
1698920733919.0,16,0.0,-0.1,0.0,-0.5,9.4,1.1,0.9,0.30000000000000004,0.2
1698920733936.0,16,0.0,0.0,0.0,-0.5,9.4,1.1,1.0,0.30000000000000004,0.30000000000000004
1698920733951.0,16,0.0,0.0,0.0,-0.4,9.4,1.1,1.0,0.5,0.4
1698920733968.0,16,0.0,0.0,0.0,-0.5,9.5,1.1,1.0999999999999999,0.30000000000000004,0.5
1698920733985.0,16,0.0,0.0,0.0,-0.4,9.5,1.1,1.0,0.30000000000000004,0.5
1698920734001.0,16,0.0,0.0,0.0,-0.4,9.5,1.1,1.0,0.0,0.5
1698920734017.0,16,0.0,0.0,0.0,-0.5,9.5,1.1,0.9,0.0,0.4
1698920734034.0,16,0.0,0.0,0.0,-0.4,9.5,1.1,0.6000000000000001,-0.30000000000000004,0.1
1698920734051.0,16,0.0,0.0,0.0,-0.4,9.5,1.1,0.7,0.0,0.0
1698920734067.0,16,0.0,0.0,0.0,-0.4,9.5,1.1,0.9,0.2,0.1
1698920734085.0,16,0.0,0.0,0.0,-0.4,9.5,1.1,0.8,-0.2,0.30000000000000004
1698920734107.0,16,0.0,0.0,0.0,-0.5,9.5,1.1,0.9,-0.5,0.7
1698920734119.0,16,0.0,0.0,0.0,-0.5,9.4,1.1,0.9,-0.5,0.9
1698920734134.0,16,0.0,0.0,0.0,-0.5,9.5,1.0,0.8,-0.2,0.6000000000000001
1698920734151.0,16,0.0,0.0,0.0,-0.5,9.5,1.1,0.7,-0.2,0.5
1698920734168.0,16,0.0,0.0,-0.1,-0.5,9.5,1.0,0.8,-0.2,0.5
1698920734184.0,16,0.0,0.0,0.0,-0.4,9.5,1.0,0.8,-0.2,0.4
1698920734201.0,16,0.0,0.0,0.0,-0.4,9.5,1.0,0.8,-0.30000000000000004,0.5
1698920734218.0,16,0.0,0.1,0.0,-0.4,9.5,1.1,0.6000000000000001,-0.5,0.6000000000000001
1698920734234.0,16,0.0,0.0,0.0,-0.4,9.5,1.1,0.2,-0.2,0.6000000000000001
1698920734250.0,16,0.0,0.0,0.0,-0.4,9.5,1.1,0.2,-0.30000000000000004,0.5
1698920734268.0,16,0.0,0.0,0.0,-0.4,9.5,1.0,0.2,-0.30000000000000004,0.4
1698920734284.0,16,0.0,0.0,0.0,-0.4,9.5,1.1,0.4,-0.4,0.4
1698920734301.0,16,0.0,0.0,0.0,-0.4,9.5,1.1,0.4,-0.2,0.4
1698920734318.0,16,0.1,0.0,0.0,-0.4,9.5,1.1,0.4,0.1,0.4
1698920734334.0,16,0.0,0.0,0.0,-0.4,9.5,1.1,0.30000000000000004,0.2,0.4
1698920734351.0,16,0.0,0.0,0.0,-0.4,9.5,1.1,0.2,0.30000000000000004,0.4
1698920734368.0,16,0.0,0.0,0.0,-0.4,9.5,1.1,0.6000000000000001,0.4,0.30000000000000004
1698920734384.0,16,0.0,0.0,0.0,-0.4,9.5,1.0,0.4,0.7,0.1
1698920734401.0,16,0.0,0.0,0.0,-0.4,9.5,1.0,0.4,0.8,-0.1
1698920734418.0,16,0.0,0.0,0.0,-0.4,9.5,1.1,0.2,0.6000000000000001,0.0
1698920734434.0,16,0.0,0.0,0.0,-0.4,9.5,1.1,0.1,0.5,0.1
1698920734452.0,16,0.0,0.0,0.0,-0.4,9.5,1.1,0.1,0.30000000000000004,0.1
1698920734468.0,16,0.0,0.0,0.0,-0.4,9.5,1.0,0.5,0.5,0.1
1698920734484.0,16,0.0,0.0,0.0,-0.4,9.5,1.0,0.4,0.6000000000000001,0.0
1698920734501.0,16,0.0,0.0,0.0,-0.4,9.5,1.1,0.5,0.4,-0.1
1698920734518.0,16,0.0,0.0,0.0,-0.4,9.5,1.0,0.4,0.30000000000000004,-0.1
1698920734534.0,16,0.0,0.0,0.0,-0.4,9.5,1.0,0.4,0.30000000000000004,0.0
1698920734551.0,16,0.0,0.0,0.0,-0.4,9.5,1.0,0.5,0.30000000000000004,-0.1
1698920734568.0,16,0.0,0.0,0.0,-0.4,9.5,1.0,0.30000000000000004,0.30000000000000004,0.1
1698920734584.0,16,0.0,0.0,0.0,-0.4,9.5,1.0,0.2,0.2,0.0
1698920734601.0,16,0.0,0.0,0.0,-0.4,9.5,1.1,0.1,0.0,0.1
1698920734619.0,16,0.0,0.0,0.0,-0.4,9.5,1.0,0.2,-0.2,0.1
1698920734639.0,16,0.0,0.0,0.0,-0.4,9.5,1.0,0.2,0.1,0.0
1698920734651.0,16,0.0,0.0,0.0,-0.4,9.5,1.0,0.2,0.0,0.0
1698920734669.0,16,0.0,0.0,0.0,-0.4,9.5,1.0,0.1,-0.1,0.1
1698920734684.0,16,0.0,0.0,0.0,-0.4,9.5,1.1,-0.1,-0.2,0.1
1698920734701.0,16,0.0,0.0,0.0,-0.4,9.4,1.0,-0.1,-0.2,0.1
1698920734719.0,16,0.0,0.0,0.0,-0.4,9.5,1.0,-0.1,-0.2,0.0
1698920734734.0,16,0.0,0.0,0.0,-0.4,9.5,1.1,0.1,-0.2,0.1
1698920734751.0,16,0.0,0.0,0.0,-0.4,9.5,1.0,0.1,-0.1,0.0
1698920734769.0,16,0.0,0.0,0.0,-0.4,9.5,1.1,0.1,0.0,0.0
1698920734784.0,16,0.0,0.0,0.0,-0.4,9.5,1.1,0.0,0.2,0.0
1698920734801.0,16,0.0,0.0,0.0,-0.4,9.5,1.1,0.0,0.2,0.0
1698920734819.0,16,0.0,0.0,0.0,-0.4,9.5,1.0,0.2,0.30000000000000004,0.0
1698920734834.0,16,0.0,0.0,0.0,-0.4,9.5,1.0,0.1,0.4,0.0
1698920734851.0,16,0.0,0.0,0.0,-0.4,9.5,1.0,0.1,0.4,-0.1
1698920734867.0,16,0.0,0.0,0.0,-0.4,9.5,1.0,0.1,0.4,-0.1
1698920734884.0,16,0.0,0.0,0.0,-0.5,9.5,1.0,0.1,0.30000000000000004,-0.1
1698920734901.0,16,0.0,0.0,0.0,-0.4,9.5,1.1,-0.1,0.2,-0.1
1698920734919.0,16,0.0,0.0,0.0,-0.4,9.5,1.0,0.0,0.2,-0.1
1698920734939.0,16,0.0,0.0,0.0,-0.4,9.5,1.0,0.1,0.2,-0.1
1698920734951.0,16,0.0,0.0,0.0,-0.4,9.5,1.0,0.0,0.2,0.0
1698920734969.0,16,0.0,0.0,0.0,-0.4,9.5,1.0,0.1,0.2,0.1
1698920734985.0,16,0.0,0.0,0.0,-0.4,9.5,1.0,0.1,0.2,0.1
1698920735001.0,16,0.0,0.0,0.0,-0.4,9.5,1.0,0.2,0.2,0.1
1698920735017.0,16,0.0,0.0,0.0,-0.4,9.5,1.0,0.1,0.2,0.1
1698920735038.0,16,0.0,0.0,0.0,-0.4,9.5,1.0,0.1,0.1,-0.1
1698920735052.0,16,0.0,0.0,0.0,-0.4,9.5,1.0,0.1,0.1,-0.1
1698920735068.0,16,0.0,0.0,0.0,-0.4,9.5,1.1,0.2,0.2,0.1
1698920735084.0,16,-0.1,0.0,0.0,-0.5,9.5,1.0,-0.1,0.0,0.30000000000000004
1698920735101.0,16,0.0,0.0,0.0,-0.4,9.5,1.0,-0.2,-0.2,0.1
1698920735119.0,16,0.0,0.0,0.0,-0.4,9.5,1.0,-0.30000000000000004,-0.30000000000000004,0.1
1698920735134.0,16,0.0,0.0,0.0,-0.4,9.4,1.1,-0.2,0.0,0.30000000000000004
1698920735151.0,16,0.0,0.0,0.0,-0.5,9.5,1.0,0.4,0.4,0.4
1698920735167.0,16,0.0,0.0,0.0,-0.4,9.5,1.0,0.0,0.0,0.30000000000000004
1698920735184.0,16,0.0,0.0,0.0,-0.4,9.5,1.1,-0.1,-0.5,0.30000000000000004
1698920735201.0,16,0.0,0.0,0.0,-0.4,9.5,1.0,-0.2,-0.5,0.30000000000000004
1698920735218.0,16,0.0,0.0,0.0,-0.4,9.4,1.1,-0.2,-0.6000000000000001,0.30000000000000004
1698920735235.0,16,0.0,0.0,0.0,-0.4,9.5,1.0,-0.1,-0.5,0.2
1698920735251.0,16,0.0,0.0,0.0,-0.4,9.5,1.0,-0.2,-0.6000000000000001,0.1
1698920735268.0,16,0.0,0.0,0.0,-0.4,9.5,1.0,-0.1,-0.8,0.1
1698920735284.0,16,0.0,0.0,0.0,-0.4,9.5,1.1,0.0,-0.9,0.1
1698920735300.0,16,0.0,0.0,0.0,-0.5,9.5,1.0,0.1,-1.0999999999999999,0.30000000000000004
1698920735317.0,16,0.0,0.0,0.0,-0.4,9.5,1.1,0.1,-1.0,0.4
1698920735334.0,16,0.0,0.0,0.1,-0.4,9.5,1.1,0.1,-1.0,0.4
1698920735351.0,16,0.0,0.0,0.0,-0.4,9.5,1.1,0.1,-0.30000000000000004,0.1
1698920735369.0,16,0.0,0.0,0.0,-0.4,9.5,1.1,0.0,-0.2,0.1
1698920735385.0,16,0.0,0.0,0.0,-0.4,9.5,1.0,-0.2,-0.5,0.1
1698920735401.0,16,0.0,0.0,0.0,-0.4,9.5,1.1,-0.2,-0.30000000000000004,0.2
1698920735417.0,16,0.0,0.0,0.0,-0.4,9.5,1.0,-0.2,-0.30000000000000004,0.30000000000000004
1698920735435.0,16,0.0,0.0,0.0,-0.4,9.5,1.0,-0.2,-0.4,0.1
1698920735451.0,16,0.0,0.0,0.0,-0.5,9.5,1.0,-0.2,-0.30000000000000004,0.1
1698920735468.0,16,0.0,0.0,0.0,-0.5,9.5,1.0,-0.2,-0.30000000000000004,0.0
1698920735484.0,16,0.0,0.0,0.0,-0.4,9.5,1.0,-0.1,-0.4,-0.1
1698920735501.0,16,0.0,0.0,0.0,-0.4,9.5,1.0,0.1,-0.2,0.0
1698920735519.0,16,0.0,0.0,-0.1,-0.4,9.5,1.0,0.1,-0.30000000000000004,-0.1
1698920735535.0,16,0.0,0.0,0.0,-0.4,9.5,1.0,-0.2,0.0,0.0
1698920735551.0,16,0.0,0.0,0.0,-0.4,9.5,1.0,-0.2,0.2,-0.1
1698920735567.0,16,0.0,0.0,0.0,-0.4,9.5,1.0,-0.2,0.0,0.0
1698920735584.0,16,0.0,0.0,0.0,-0.4,9.5,1.0,-0.2,-0.2,0.0
1698920735601.0,16,0.0,0.0,0.0,-0.4,9.5,1.1,-0.30000000000000004,-0.5,0.0
1698920735617.0,16,0.0,0.0,0.0,-0.4,9.5,1.1,-0.4,-0.6000000000000001,0.2
1698920735634.0,16,0.0,0.0,0.0,-0.4,9.5,1.1,-0.5,-0.6000000000000001,0.1
1698920735651.0,16,0.0,0.0,0.0,-0.4,9.5,1.1,-0.5,-0.30000000000000004,0.1
1698920735668.0,16,0.0,0.0,0.0,-0.4,9.5,1.0,-0.6000000000000001,-0.6000000000000001,0.1
1698920735684.0,16,0.0,0.0,0.0,-0.4,9.5,1.1,-0.7,-0.5,0.1
1698920735701.0,16,0.0,0.0,0.0,-0.4,9.4,1.0,-0.6000000000000001,-0.6000000000000001,0.1
1698920735719.0,16,0.0,0.0,0.0,-0.4,9.5,1.1,-0.5,-0.6000000000000001,0.2
1698920735734.0,16,0.0,0.0,0.0,-0.4,9.5,1.1,-0.4,-1.0999999999999999,0.30000000000000004
1698920735751.0,16,-0.1,0.1,0.0,-0.5,9.600000000000001,1.1,0.2,-1.6,0.4
1698920735767.0,16,-0.1,0.0,-0.1,-0.5,9.5,1.0,0.2,-1.4,0.30000000000000004
1698920735785.0,16,0.0,0.0,-0.1,-0.4,9.4,1.0,-0.5,-1.6,0.2
1698920735801.0,16,0.0,0.0,-0.1,-0.4,9.5,0.9,-0.7,-2.1999999999999997,0.1
1698920735817.0,16,0.0,0.0,-0.1,-0.4,9.5,0.9,-1.2000000000000002,-3.1,0.5
1698920735834.0,16,0.0,0.0,-0.1,-0.4,9.5,1.0,-1.3,-3.0000000000000004,0.4
1698920735851.0,16,0.1,0.0,-0.1,-0.30000000000000004,9.5,0.9,-0.9,-2.3000000000000003,-0.5
1698920735868.0,16,0.1,0.0,-0.1,-0.30000000000000004,9.5,0.9,-1.0,-1.8,-1.0
1698920735885.0,16,0.2,0.1,-0.2,-0.2,9.600000000000001,0.9,-1.6,-0.8,-1.6
1698920735901.0,16,0.1,0.0,-0.1,-0.30000000000000004,9.5,1.0,-1.7,-1.4,-1.0
1698920735919.0,16,0.1,0.0,0.0,-0.30000000000000004,9.5,1.1,-0.8,-1.3,-0.8
1698920735935.0,16,0.0,0.0,0.0,-0.4,9.4,1.1,-1.5000000000000002,-1.3,-0.8
1698920735951.0,16,-0.1,-0.1,0.0,-0.5,9.4,1.1,-2.4000000000000004,-2.0,-0.5
1698920735968.0,16,-0.1,0.0,0.1,-0.5,9.4,1.1,-3.1,-2.3000000000000003,-0.4
1698920735984.0,16,-0.1,0.0,0.0,-0.5,9.4,1.1,-3.0000000000000004,-2.4000000000000004,-0.6000000000000001
1698920736001.0,16,-0.1,-0.1,0.1,-0.5,9.4,1.2000000000000002,-2.6,-2.1999999999999997,-1.0
1698920736017.0,16,0.0,0.0,0.1,-0.4,9.5,1.2000000000000002,-0.9,-1.0999999999999999,-0.9
1698920736034.0,16,0.1,0.0,0.2,-0.4,9.5,1.3,-0.7,-0.30000000000000004,-0.9
1698920736052.0,16,0.2,-0.1,0.2,-0.2,9.3,1.3,-0.2,0.9,-1.4
1698920736068.0,16,0.2,-0.2,0.2,-0.2,9.200000000000001,1.3,-0.1,2.3000000000000003,-1.3
1698920736085.0,16,0.1,-0.2,0.1,-0.30000000000000004,9.200000000000001,1.3,0.1,2.8,-0.7
1698920736101.0,16,-0.1,-0.2,0.1,-0.5,9.3,1.3,0.8,3.1,1.4
1698920736119.0,16,-0.2,-0.1,0.2,-0.6000000000000001,9.3,1.3,1.6,2.4000000000000004,2.3000000000000003
1698920736135.0,16,-0.30000000000000004,-0.2,0.2,-0.7000000000000001,9.3,1.3,2.0,1.9,2.1999999999999997
1698920736151.0,16,-0.30000000000000004,0.0,0.2,-0.7000000000000001,9.4,1.3,2.9,1.6,1.5000000000000002
1698920736167.0,16,-0.30000000000000004,0.0,0.1,-0.7000000000000001,9.4,1.3,3.2,1.3,0.6000000000000001
1698920736184.0,16,-0.2,0.0,0.1,-0.6000000000000001,9.4,1.2000000000000002,3.2,0.4,0.6000000000000001
1698920736201.0,16,-0.1,-0.1,0.1,-0.5,9.4,1.2000000000000002,2.5,-0.6000000000000001,0.4
1698920736218.0,16,-0.1,0.0,0.1,-0.5,9.4,1.2000000000000002,2.5,-0.7,0.4
1698920736234.0,16,-0.1,0.2,-0.1,-0.5,9.600000000000001,1.0,1.6,-0.6000000000000001,1.0
1698920736250.0,16,-0.1,0.2,-0.1,-0.6000000000000001,9.600000000000001,1.0,1.3,-1.6,1.4
1698920736267.0,16,-0.1,0.1,-0.1,-0.5,9.600000000000001,1.0,1.6,-2.1999999999999997,1.4
1698920736284.0,16,-0.1,0.1,-0.1,-0.5,9.600000000000001,1.0,1.4,-1.5000000000000002,0.7
1698920736302.0,16,0.0,0.1,-0.1,-0.4,9.600000000000001,1.0,1.2000000000000002,-2.0,0.1
1698920736319.0,16,0.1,0.1,-0.1,-0.30000000000000004,9.600000000000001,1.0,0.9,-1.0999999999999999,-0.7
1698920736334.0,16,0.2,0.0,-0.1,-0.30000000000000004,9.5,0.9,0.0,-0.8,-1.0
1698920736351.0,16,0.2,0.1,-0.1,-0.2,9.600000000000001,1.0,-0.4,-1.4,-1.0999999999999999
1698920736367.0,16,0.1,0.1,0.0,-0.30000000000000004,9.600000000000001,1.0,-0.4,-1.2000000000000002,-1.0999999999999999
1698920736384.0,16,0.1,0.0,-0.1,-0.30000000000000004,9.5,1.0,-1.2000000000000002,0.6000000000000001,-1.0
1698920736401.0,16,0.1,-0.1,0.0,-0.30000000000000004,9.4,1.1,-1.5000000000000002,1.0,-1.0
1698920736419.0,16,0.1,-0.1,0.0,-0.30000000000000004,9.4,1.1,-0.4,0.5,-0.7
1698920736434.0,16,0.1,-0.1,0.1,-0.30000000000000004,9.4,1.1,0.0,0.8,-0.6000000000000001
1698920736451.0,16,0.1,-0.1,0.1,-0.2,9.3,1.2000000000000002,1.0,1.3,-0.5
1698920736468.0,16,0.2,-0.2,0.2,-0.2,9.3,1.3,1.3,2.5,-0.8
1698920736484.0,16,0.2,-0.2,0.2,-0.2,9.3,1.3,1.6,3.0000000000000004,-0.9
1698920736501.0,16,0.1,-0.1,0.2,-0.2,9.4,1.2000000000000002,1.9,4.9,-0.8
1698920736518.0,16,0.1,0.0,0.1,-0.30000000000000004,9.5,1.2000000000000002,1.8,6.9,-0.4
1698920736534.0,16,0.1,0.0,0.1,-0.30000000000000004,9.5,1.1,1.7,8.1,0.30000000000000004
1698920736551.0,16,0.0,0.0,0.1,-0.4,9.4,1.1,1.3,8.600000000000001,0.8
1698920736567.0,16,-0.2,0.1,0.0,-0.5,9.600000000000001,1.0,1.4,7.400000000000001,1.2000000000000002
1698920736584.0,16,-0.30000000000000004,0.1,-0.1,-0.7000000000000001,9.600000000000001,1.0,0.9,6.8,1.5000000000000002
1698920736601.0,16,-0.4,0.1,-0.1,-0.7000000000000001,9.600000000000001,1.0,1.0,5.8,1.4
1698920736617.0,16,-0.4,0.1,0.0,-0.7000000000000001,9.5,1.1,1.8,5.2,0.2
1698920736635.0,16,-0.30000000000000004,-0.1,0.0,-0.6000000000000001,9.3,1.1,2.4000000000000004,3.9,-0.4
1698920736651.0,16,-0.2,-0.2,0.1,-0.6000000000000001,9.3,1.1,2.7,3.4,0.1
1698920736667.0,16,-0.1,-0.2,0.1,-0.5,9.3,1.1,3.1,3.0000000000000004,0.8
1698920736684.0,16,-0.1,0.0,0.0,-0.5,9.4,1.0,2.9,3.1,1.0999999999999999
1698920736701.0,16,-0.1,0.0,0.0,-0.5,9.5,1.0,2.8,3.5,1.0
1698920736719.0,16,-0.1,0.1,-0.1,-0.5,9.600000000000001,0.9,2.8,4.5,0.5
1698920736735.0,16,-0.1,0.2,-0.2,-0.5,9.700000000000001,0.8,2.6,3.5,0.30000000000000004
1698920736751.0,16,0.0,0.2,-0.2,-0.4,9.700000000000001,0.7000000000000001,2.3000000000000003,2.5,0.1
1698920736768.0,16,0.0,0.2,-0.2,-0.4,9.700000000000001,0.8,1.9,2.5,0.0
1698920736785.0,16,0.0,0.2,-0.2,-0.4,9.700000000000001,0.8,2.1,2.5,0.30000000000000004
1698920736801.0,16,-0.1,0.1,-0.2,-0.5,9.600000000000001,0.8,2.1,1.9,0.9
1698920736819.0,16,-0.1,0.0,-0.2,-0.5,9.5,0.8,2.0,1.4,1.0
1698920736836.0,16,-0.1,0.0,-0.1,-0.5,9.5,0.8,1.7,1.0999999999999999,1.2000000000000002
1698920736851.0,16,-0.1,0.0,-0.1,-0.5,9.5,0.8,1.8,0.9,1.0999999999999999
1698920736869.0,16,-0.2,0.0,-0.1,-0.6000000000000001,9.5,0.8,1.6,-0.2,1.6
1698920736885.0,16,-0.1,0.0,-0.1,-0.5,9.5,0.8,1.5000000000000002,-1.0999999999999999,1.4
1698920736901.0,16,0.0,0.0,0.0,-0.4,9.5,0.9,1.6,-1.0999999999999999,0.9
1698920736918.0,16,0.0,0.0,0.0,-0.4,9.5,0.9,1.6,-1.0999999999999999,0.6000000000000001
1698920736934.0,16,0.0,0.1,0.0,-0.4,9.600000000000001,0.9,1.2000000000000002,-1.3,0.4
1698920736950.0,16,-0.1,0.0,0.0,-0.5,9.5,0.8,-0.1,-1.5000000000000002,0.6000000000000001
1698920736969.0,16,0.1,0.0,-0.1,-0.30000000000000004,9.5,0.8,-1.0,-0.6000000000000001,0.6000000000000001
1698920736984.0,16,0.1,0.1,0.0,-0.30000000000000004,9.600000000000001,0.9,-0.9,-2.5,-0.6000000000000001
1698920737000.0,16,0.1,0.0,0.0,-0.30000000000000004,9.600000000000001,0.8,-0.9,-1.4,-0.5
1698920737018.0,16,0.1,0.0,0.0,-0.30000000000000004,9.5,0.9,-1.0,-0.2,0.1
1698920737034.0,16,0.0,0.0,0.0,-0.30000000000000004,9.5,0.9,-0.2,0.4,0.4
1698920737051.0,16,0.0,0.0,0.0,-0.4,9.5,0.9,0.2,0.4,0.5
1698920737068.0,16,0.0,0.0,0.0,-0.4,9.5,0.9,0.4,0.5,0.4
1698920737084.0,16,0.0,0.0,0.0,-0.4,9.5,0.9,0.6000000000000001,0.8,-0.1
1698920737101.0,16,0.0,0.0,0.0,-0.4,9.5,0.9,0.1,0.6000000000000001,-0.2
1698920737118.0,16,0.0,-0.1,0.0,-0.4,9.4,0.9,-0.9,0.0,-0.4
1698920737137.0,16,0.0,-0.1,0.0,-0.4,9.4,0.9,-0.9,-0.1,-0.5
1698920737151.0,16,0.0,0.0,0.0,-0.4,9.5,0.9,-0.9,-0.1,-0.5
1698920737168.0,16,0.0,0.0,0.0,-0.4,9.5,0.9,-0.4,-0.30000000000000004,-0.5
1698920737185.0,16,0.0,0.0,0.0,-0.4,9.5,0.9,-0.1,-0.30000000000000004,-0.6000000000000001
1698920737201.0,16,0.0,0.0,0.0,-0.4,9.5,0.9,0.4,0.2,-0.5
1698920737217.0,16,0.0,0.0,0.0,-0.4,9.5,0.9,0.4,0.30000000000000004,-0.5
1698920737234.0,16,0.0,0.0,0.0,-0.4,9.5,0.9,0.1,0.6000000000000001,-0.6000000000000001
1698920737251.0,16,0.0,0.0,0.0,-0.4,9.5,0.9,-0.1,0.8,-0.6000000000000001
1698920737267.0,16,0.0,0.0,0.0,-0.4,9.5,0.9,-0.2,0.6000000000000001,-0.5
1698920737285.0,16,0.0,0.0,0.0,-0.4,9.5,0.9,-0.4,0.2,-0.6000000000000001
1698920737301.0,16,0.0,0.0,0.1,-0.4,9.5,1.0,-0.2,0.2,-0.5
1698920737318.0,16,0.0,0.0,0.0,-0.4,9.5,0.9,0.1,0.6000000000000001,-0.6000000000000001
1698920737335.0,16,0.0,0.0,0.0,-0.5,9.5,0.9,-0.1,0.7,-0.7
1698920737351.0,16,-0.1,0.0,0.0,-0.5,9.5,1.0,0.0,0.5,-0.5
1698920737367.0,16,-0.1,0.0,0.1,-0.5,9.5,1.0,-0.1,0.2,-0.4
1698920737384.0,16,-0.1,0.0,0.0,-0.5,9.5,0.9,0.1,0.0,-0.4
1698920737401.0,16,0.0,0.0,0.0,-0.5,9.5,0.9,-0.1,-0.2,-0.4
1698920737418.0,16,0.0,0.0,0.0,-0.5,9.4,0.9,-0.2,-0.30000000000000004,-0.2
1698920737435.0,16,0.0,0.0,0.0,-0.5,9.5,0.9,0.1,-0.4,-0.2
1698920737451.0,16,0.0,0.0,0.0,-0.4,9.5,0.9,0.2,-0.2,-0.2
1698920737468.0,16,0.0,0.0,0.0,-0.5,9.5,0.9,0.4,-0.1,-0.2
1698920737484.0,16,0.0,0.0,0.0,-0.5,9.5,0.9,0.2,0.0,-0.1
1698920737501.0,16,0.0,0.0,-0.1,-0.5,9.5,0.8,0.0,-0.30000000000000004,-0.1
1698920737518.0,16,0.0,0.0,0.0,-0.5,9.5,0.9,-0.2,-0.2,-0.1
1698920737534.0,16,0.0,0.0,0.0,-0.5,9.5,0.9,-0.30000000000000004,-0.4,-0.2
1698920737552.0,16,0.0,0.0,0.0,-0.4,9.5,0.9,0.0,-0.7,-0.1
1698920737567.0,16,0.0,0.0,0.0,-0.4,9.5,0.9,0.2,-0.6000000000000001,-0.1
1698920737585.0,16,0.0,0.0,0.0,-0.4,9.5,0.9,0.1,-0.6000000000000001,0.0
1698920737601.0,16,0.0,0.0,0.0,-0.4,9.5,0.9,-0.1,-0.6000000000000001,-0.1
1698920737619.0,16,0.0,0.0,0.0,-0.4,9.5,0.9,-0.1,-0.5,-0.1
1698920737635.0,16,0.0,0.0,0.0,-0.5,9.5,0.9,-0.1,-0.30000000000000004,-0.1
1698920737651.0,16,0.0,0.0,0.0,-0.4,9.5,0.9,-0.4,0.2,-0.1
1698920737668.0,16,0.0,0.0,0.0,-0.5,9.5,0.9,-0.4,-0.30000000000000004,0.1
1698920737684.0,16,0.0,0.0,0.0,-0.5,9.5,1.0,-0.2,-0.8,0.0
1698920737702.0,16,0.0,0.0,0.0,-0.5,9.5,0.9,0.1,-0.8,-0.2
1698920737719.0,16,0.0,0.0,0.0,-0.5,9.5,0.9,0.0,-0.8,-0.1
1698920737735.0,16,0.0,0.0,0.0,-0.5,9.5,0.9,-0.4,-0.5,-0.2
1698920737751.0,16,0.0,0.0,0.0,-0.5,9.5,0.9,-0.6000000000000001,-0.9,0.1
1698920737768.0,16,0.0,0.0,0.0,-0.5,9.5,0.9,-0.8,-1.0999999999999999,0.2
1698920737784.0,16,0.0,0.0,0.0,-0.5,9.5,0.9,-0.6000000000000001,-1.0999999999999999,-0.1
1698920737802.0,16,0.1,0.0,-0.1,-0.4,9.5,0.9,-0.7,-1.0999999999999999,-0.5
1698920737818.0,16,0.0,0.0,0.0,-0.4,9.5,0.9,-0.8,-1.0999999999999999,-0.7
1698920737836.0,16,0.0,0.0,0.0,-0.4,9.5,0.9,-0.1,-0.7,-0.5
1698920737851.0,16,0.0,0.0,0.0,-0.5,9.5,0.9,0.0,-0.2,0.1
1698920737867.0,16,0.0,0.0,0.0,-0.4,9.5,1.0,-0.1,0.0,-0.1
1698920737884.0,16,0.0,0.0,0.0,-0.5,9.5,1.0,-0.2,-0.30000000000000004,-0.1
1698920737901.0,16,0.0,0.0,0.0,-0.5,9.5,1.0,-0.2,-0.4,-0.1
1698920737917.0,16,0.0,0.0,0.0,-0.5,9.5,1.0,-0.1,-0.6000000000000001,0.1
1698920737934.0,16,0.0,0.0,0.0,-0.5,9.5,0.9,-0.1,-0.6000000000000001,0.1
1698920737953.0,16,0.0,0.0,0.0,-0.5,9.5,1.0,0.1,-0.8,-0.30000000000000004
1698920737970.0,16,0.0,0.0,0.0,-0.5,9.5,1.0,0.1,-0.8,-0.2
1698920737984.0,16,0.0,0.0,0.0,-0.4,9.5,1.0,-0.1,-0.5,-0.1
1698920738000.0,16,0.0,0.0,0.0,-0.4,9.5,0.9,-0.2,-0.5,0.0
1698920738019.0,16,0.0,0.0,0.0,-0.4,9.5,0.9,-0.4,-0.30000000000000004,0.0
1698920738035.0,16,0.0,0.0,0.0,-0.5,9.5,0.9,-0.30000000000000004,-0.30000000000000004,0.1
1698920738051.0,16,0.0,0.0,0.0,-0.5,9.5,0.9,-0.2,-0.2,0.2
1698920738067.0,16,0.0,0.0,0.0,-0.5,9.5,1.0,-0.1,-0.1,0.30000000000000004
1698920738085.0,16,0.0,0.0,0.0,-0.5,9.5,1.0,0.1,0.0,0.4
1698920738101.0,16,0.0,0.0,0.0,-0.5,9.5,0.9,0.1,0.0,0.6000000000000001
1698920738117.0,16,0.0,0.0,0.0,-0.5,9.5,0.9,-0.30000000000000004,0.2,0.30000000000000004
1698920738135.0,16,0.0,0.0,0.0,-0.5,9.5,0.9,-0.2,0.1,0.30000000000000004
1698920738151.0,16,0.0,0.0,0.0,-0.5,9.4,0.9,-0.30000000000000004,0.0,0.30000000000000004
1698920738167.0,16,0.0,0.0,0.0,-0.5,9.5,0.9,-0.4,-0.2,0.2
1698920738184.0,16,0.0,0.0,-0.1,-0.5,9.5,0.9,-0.4,-0.30000000000000004,0.4
1698920738200.0,16,0.0,0.0,0.0,-0.5,9.5,0.9,-0.7,-0.30000000000000004,0.7
1698920738217.0,16,0.0,0.0,0.0,-0.5,9.5,0.9,-0.4,-0.8,0.5
1698920738234.0,16,0.0,0.0,0.0,-0.5,9.5,0.9,-0.4,-0.6000000000000001,0.4
1698920738250.0,16,0.0,0.0,0.0,-0.4,9.5,0.9,-0.4,-0.6000000000000001,0.4
1698920738267.0,16,0.0,0.0,0.0,-0.4,9.5,0.9,-0.8,-0.8,0.4
1698920738284.0,16,0.0,0.0,0.0,-0.4,9.5,0.9,-0.9,-0.5,0.6000000000000001
1698920738300.0,16,0.0,0.0,0.0,-0.5,9.5,0.9,-0.9,-0.30000000000000004,0.6000000000000001
1698920738319.0,16,0.0,0.0,0.0,-0.5,9.5,0.9,-0.7,-0.2,0.7
1698920738334.0,16,0.0,0.0,0.0,-0.5,9.5,0.9,-0.9,-0.30000000000000004,0.7
1698920738351.0,16,0.0,0.0,-0.1,-0.5,9.5,0.9,-1.3,-0.6000000000000001,0.6000000000000001
1698920738368.0,16,0.0,0.0,0.0,-0.4,9.5,1.0,-1.4,-0.8,0.4
1698920738384.0,16,0.0,0.0,0.0,-0.4,9.5,1.0,-1.6,-0.8,0.30000000000000004
1698920738401.0,16,0.1,0.0,0.0,-0.4,9.5,1.0,-1.5000000000000002,-0.8,0.2
1698920738419.0,16,0.0,0.0,0.0,-0.4,9.5,1.0,-1.4,-0.6000000000000001,0.1
1698920738434.0,16,0.0,0.0,0.0,-0.4,9.5,1.0,-1.5000000000000002,-0.4,0.30000000000000004
1698920738451.0,16,0.0,0.0,0.0,-0.4,9.5,1.0,-1.5000000000000002,-0.5,0.2
1698920738467.0,16,0.0,0.0,0.0,-0.4,9.5,1.0,-1.5000000000000002,-0.30000000000000004,0.30000000000000004
1698920738484.0,16,0.0,0.0,0.0,-0.4,9.5,1.0,-1.6,-0.2,0.30000000000000004
1698920738502.0,16,0.0,0.0,0.0,-0.4,9.5,1.0,-1.5000000000000002,-0.6000000000000001,0.30000000000000004
1698920738517.0,16,0.0,0.0,0.0,-0.4,9.5,1.0,-1.6,-0.6000000000000001,0.30000000000000004
1698920738534.0,16,0.0,0.0,0.0,-0.4,9.5,1.0,-1.8,-0.5,0.30000000000000004
1698920738551.0,16,0.0,0.0,0.0,-0.5,9.5,1.0,-1.9,-0.4,0.4
1698920738567.0,16,0.0,0.0,0.0,-0.4,9.5,1.1,-1.6,-0.6000000000000001,0.4
1698920738584.0,16,0.0,0.0,0.0,-0.4,9.5,1.0,-1.8,-0.5,0.4
1698920738603.0,16,0.0,0.0,0.0,-0.4,9.5,1.0,-1.9,-0.4,0.30000000000000004
1698920738617.0,16,0.0,0.0,0.0,-0.4,9.5,1.0,-1.6,-0.9,0.4
1698920738636.0,16,0.0,0.0,0.0,-0.4,9.5,1.0,-1.3,-0.9,0.6000000000000001
1698920738651.0,16,0.0,0.0,0.0,-0.5,9.5,1.1,-1.0999999999999999,-0.8,0.6000000000000001
1698920738668.0,16,0.0,0.0,0.1,-0.4,9.5,1.1,-1.0999999999999999,-0.30000000000000004,0.30000000000000004
1698920738684.0,16,0.0,-0.1,0.1,-0.4,9.4,1.1,-0.9,0.0,0.1
1698920738701.0,16,0.0,0.0,0.0,-0.4,9.5,1.0,-1.2000000000000002,-0.30000000000000004,0.30000000000000004
1698920738718.0,16,0.0,0.0,0.1,-0.4,9.5,1.1,-1.3,-0.30000000000000004,0.5
1698920738736.0,16,0.0,0.0,0.0,-0.4,9.5,1.1,-1.4,-0.1,0.5
1698920738750.0,16,0.0,0.0,0.0,-0.4,9.4,1.1,-1.5000000000000002,-0.30000000000000004,0.4
1698920738769.0,16,0.0,0.0,0.0,-0.5,9.4,1.1,-1.3,-0.6000000000000001,0.1
1698920738784.0,16,0.0,0.0,0.0,-0.5,9.4,1.1,-1.0,-0.5,0.0
1698920738801.0,16,0.0,-0.1,0.0,-0.4,9.4,1.1,-0.7,-0.5,0.0
1698920738817.0,16,0.0,0.0,0.0,-0.4,9.4,1.1,0.0,-0.5,-0.1
1698920738834.0,16,0.0,0.0,0.0,-0.4,9.5,1.1,0.5,-0.1,0.1
1698920738851.0,16,0.0,0.0,0.1,-0.4,9.5,1.1,0.8,0.0,0.1
1698920738868.0,16,0.0,0.0,0.0,-0.4,9.5,1.1,0.6000000000000001,0.2,0.1
1698920738885.0,16,0.0,0.0,0.0,-0.4,9.4,1.1,0.4,0.30000000000000004,-0.1
1698920738901.0,16,0.0,0.0,0.0,-0.4,9.5,1.1,0.1,0.2,-0.2
1698920738919.0,16,0.0,0.0,0.0,-0.4,9.5,1.1,0.1,0.1,-0.2
1698920738935.0,16,0.0,0.0,0.0,-0.4,9.4,1.1,0.30000000000000004,0.2,-0.2
1698920738951.0,16,0.0,0.0,0.0,-0.4,9.4,1.1,0.5,0.0,-0.2
1698920738967.0,16,0.0,0.0,0.0,-0.4,9.5,1.1,0.7,-0.2,-0.2
1698920738984.0,16,0.0,0.0,0.0,-0.4,9.5,1.1,0.9,0.0,-0.1
1698920739001.0,16,0.0,0.0,0.0,-0.4,9.5,1.1,1.0999999999999999,0.30000000000000004,-0.30000000000000004
1698920739018.0,16,0.0,0.0,0.0,-0.4,9.4,1.1,1.0,0.30000000000000004,-0.2
1698920739036.0,16,0.0,0.0,0.0,-0.4,9.5,1.0,0.7,0.0,-0.2
1698920739051.0,16,0.0,0.0,0.0,-0.4,9.5,1.1,0.7,-0.1,-0.1
1698920739068.0,16,0.0,0.0,0.0,-0.4,9.5,1.0,0.6000000000000001,-0.2,-0.4
1698920739084.0,16,0.0,0.0,0.0,-0.4,9.5,1.1,0.7,0.2,-0.30000000000000004
1698920739101.0,16,0.0,0.0,0.0,-0.5,9.5,1.0,0.9,0.30000000000000004,-0.2
1698920739119.0,16,0.0,0.0,0.0,-0.4,9.5,1.0,0.9,0.2,-0.5
1698920739134.0,16,0.0,0.0,-0.1,-0.4,9.5,1.0,0.2,0.0,-0.5
1698920739150.0,16,0.0,0.0,0.0,-0.4,9.5,1.0,0.1,0.1,-0.5
1698920739167.0,16,0.0,0.0,0.0,-0.4,9.5,1.0,0.30000000000000004,0.30000000000000004,-0.4
1698920739184.0,16,0.0,0.0,-0.1,-0.4,9.5,0.9,0.0,-0.2,-0.4
1698920739202.0,16,0.0,0.0,0.0,-0.5,9.5,1.0,-0.30000000000000004,-0.4,-0.4
1698920739219.0,16,0.0,0.0,0.0,-0.5,9.5,1.0,0.30000000000000004,-0.5,-0.4
1698920739234.0,16,0.0,0.0,0.0,-0.5,9.5,1.0,0.30000000000000004,-0.2,-0.5
1698920739253.0,16,0.0,0.1,0.0,-0.4,9.5,1.0,0.0,-0.2,-0.4
1698920739267.0,16,0.0,0.0,0.0,-0.4,9.5,1.0,-0.4,-0.5,-0.4
1698920739284.0,16,0.0,0.0,0.0,-0.5,9.5,1.0,-0.2,0.2,-0.1
1698920739301.0,16,0.0,0.0,0.0,-0.5,9.5,1.1,-0.5,0.0,0.0
1698920739318.0,16,0.0,0.0,0.0,-0.5,9.5,1.1,-0.4,-0.30000000000000004,-0.1
1698920739335.0,16,0.0,0.0,0.0,-0.4,9.5,1.0,-0.6000000000000001,-0.1,0.1
1698920739352.0,16,0.0,0.0,0.0,-0.4,9.5,1.1,-1.3,-0.1,-0.1
1698920739367.0,16,0.0,0.0,0.0,-0.5,9.5,1.0,-1.0999999999999999,-0.2,-0.1
1698920739385.0,16,0.0,0.0,0.0,-0.5,9.5,1.0,-1.2000000000000002,-0.1,-0.1
1698920739401.0,16,0.0,0.0,0.0,-0.5,9.5,1.0,-1.5000000000000002,0.2,0.2
1698920739418.0,16,0.0,0.0,0.0,-0.5,9.5,1.0,-1.5000000000000002,-0.1,0.30000000000000004
1698920739434.0,16,0.0,0.0,0.0,-0.4,9.5,1.1,-1.3,-0.30000000000000004,0.1
1698920739451.0,16,0.0,0.0,0.0,-0.4,9.5,1.1,-1.6,0.0,0.1
1698920739469.0,16,0.0,0.0,0.0,-0.4,9.5,1.1,-1.7,0.2,0.1
1698920739484.0,16,0.0,0.1,-0.1,-0.5,9.600000000000001,1.0,-2.1,0.5,0.30000000000000004
1698920739501.0,16,0.0,0.0,0.0,-0.5,9.5,1.0,-2.5,0.0,0.30000000000000004
1698920739517.0,16,0.0,0.0,0.0,-0.5,9.5,1.1,-2.3000000000000003,-0.2,0.1
1698920739534.0,16,0.0,0.0,0.0,-0.4,9.5,1.1,-2.3000000000000003,0.2,-0.30000000000000004
1698920739551.0,16,0.1,0.0,0.0,-0.4,9.5,1.1,-2.4000000000000004,0.6000000000000001,-0.2
1698920739568.0,16,0.1,0.0,-0.1,-0.4,9.5,1.0,-2.6,0.8,-0.1
1698920739584.0,16,0.0,0.0,0.0,-0.4,9.5,1.1,-3.5,0.8,0.30000000000000004
1698920739601.0,16,0.0,0.1,0.0,-0.4,9.600000000000001,1.1,-2.3000000000000003,0.6000000000000001,0.4
1698920739617.0,16,0.0,0.0,0.0,-0.4,9.5,1.1,-2.0,0.6000000000000001,0.6000000000000001
1698920739634.0,16,0.0,-0.1,0.0,-0.5,9.4,1.2000000000000002,-1.7,0.8,0.4
1698920739650.0,16,0.0,-0.1,0.0,-0.5,9.4,1.2000000000000002,-2.5,0.30000000000000004,0.4
1698920739668.0,16,0.0,0.0,0.0,-0.4,9.4,1.2000000000000002,-3.8,-0.6000000000000001,0.30000000000000004
1698920739684.0,16,0.0,0.1,0.1,-0.4,9.600000000000001,1.2000000000000002,-4.1000000000000005,-0.6000000000000001,0.30000000000000004
1698920739700.0,16,0.0,0.1,0.1,-0.4,9.600000000000001,1.3,-4.5,0.6000000000000001,1.2000000000000002
1698920739717.0,16,0.0,0.0,0.1,-0.5,9.5,1.3,-4.9,1.3,1.0999999999999999
1698920739734.0,16,0.0,-0.1,0.0,-0.5,9.4,1.2000000000000002,-5.2,1.0,0.8
1698920739750.0,16,-0.1,0.0,0.0,-0.5,9.5,1.2000000000000002,-6.3,0.1,0.8
1698920739767.0,16,-0.1,0.2,0.0,-0.5,9.700000000000001,1.3,-7.400000000000001,0.1,0.7
1698920739784.0,16,0.0,0.2,0.0,-0.5,9.700000000000001,1.3,-7.8,-0.7,0.8
1698920739800.0,16,-0.1,0.2,0.0,-0.5,9.700000000000001,1.3,-9.1,-1.2000000000000002,1.8
1698920739817.0,16,-0.1,0.1,0.0,-0.5,9.600000000000001,1.4000000000000001,-10.5,-0.6000000000000001,0.7
1698920739833.0,16,0.0,0.1,0.0,-0.5,9.600000000000001,1.4000000000000001,-11.4,-0.5,-0.1
1698920739850.0,16,0.1,0.2,-0.1,-0.4,9.700000000000001,1.3,-14.3,-0.7,-0.1
1698920739867.0,16,0.1,0.30000000000000004,0.0,-0.30000000000000004,9.8,1.4000000000000001,-17.3,-0.5,0.1
1698920739884.0,16,0.0,0.30000000000000004,-0.1,-0.4,9.8,1.4000000000000001,-18.7,-0.1,0.1
1698920739900.0,16,0.0,0.30000000000000004,0.0,-0.4,9.8,1.5,-21.6,0.9,-0.5
1698920739917.0,16,0.0,0.4,0.0,-0.4,9.9,1.6,-22.5,1.0999999999999999,-1.9
1698920739934.0,16,0.0,0.30000000000000004,-0.1,-0.4,9.9,1.6,-22.6,1.0999999999999999,-1.5000000000000002
1698920739952.0,16,0.0,0.2,-0.2,-0.4,9.8,1.5,-22.3,1.0999999999999999,-0.1
1698920739967.0,16,0.0,0.2,-0.30000000000000004,-0.5,9.700000000000001,1.4000000000000001,-23.8,1.4,-0.1
1698920739984.0,16,-0.1,0.0,-0.4,-0.5,9.5,1.4000000000000001,-25.400000000000002,0.6000000000000001,-0.2
1698920740001.0,16,0.0,0.1,-0.4,-0.4,9.600000000000001,1.5,-27.3,-0.7,-1.0
1698920740017.0,16,0.0,0.1,-0.30000000000000004,-0.4,9.600000000000001,1.6,-27.3,-1.4,-1.6
1698920740035.0,16,0.0,0.1,-0.5,-0.4,9.600000000000001,1.5,-27.7,-1.0,-1.5000000000000002
1698920740051.0,16,0.1,0.1,-0.30000000000000004,-0.4,9.5,1.7000000000000002,-29.1,-1.0,-0.7
1698920740068.0,16,0.1,0.2,-0.1,-0.4,9.600000000000001,1.9000000000000001,-28.1,-2.1,-0.4
1698920740086.0,16,0.1,1.0,-0.8,-0.30000000000000004,10.4,1.4000000000000001,-26.9,2.1999999999999997,-1.2000000000000002
1698920740101.0,16,0.0,0.8,-0.4,-0.4,10.200000000000001,1.8,-36.2,5.2,0.30000000000000004
1698920740117.0,16,0.0,0.7000000000000001,-0.7000000000000001,-0.5,10.100000000000001,1.7000000000000002,-38.5,1.9,1.7
1698920740134.0,16,-0.1,0.4,-0.5,-0.6000000000000001,9.8,1.9000000000000001,-41.0,0.8,2.3000000000000003
1698920740151.0,16,-0.1,0.30000000000000004,-0.30000000000000004,-0.5,9.600000000000001,2.3000000000000003,-42.400000000000006,-2.1999999999999997,3.6
1698920740167.0,16,-0.1,0.7000000000000001,-1.2000000000000002,-0.5,9.8,2.0,-43.900000000000006,0.4,2.9
1698920740184.0,16,-0.1,0.30000000000000004,-1.1,-0.5,9.600000000000001,1.7000000000000002,-57.1,7.9,1.0
1698920740201.0,16,-0.1,0.6000000000000001,-0.8,-0.5,9.8,2.1,-64.10000000000001,6.1000000000000005,2.0
1698920740217.0,16,0.0,-0.1,-0.8,-0.4,9.1,2.4000000000000004,-63.800000000000004,5.8,3.4
1698920740237.0,16,0.1,0.30000000000000004,-1.1,-0.30000000000000004,9.4,2.2,-63.2,5.2,3.5
1698920740253.0,16,-0.1,0.5,-2.2,-0.5,9.5,1.3,-71.30000000000001,11.8,1.9
1698920740267.0,16,-0.2,1.6,-2.8000000000000003,-0.6000000000000001,10.600000000000001,0.9,-88.3,6.3,2.1999999999999997
1698920740284.0,16,-0.2,2.1,-3.2,-0.6000000000000001,11.0,0.7000000000000001,-97.4,-3.5,-0.8
1698920740300.0,16,0.1,2.7,-1.9000000000000001,-0.30000000000000004,11.5,2.3000000000000003,-101.60000000000001,-17.8,-4.300000000000001
1698920740317.0,16,0.5,2.6,-1.8,0.1,11.3,2.6,-88.00000000000001,-26.200000000000003,-5.300000000000001
1698920740334.0,16,0.4,2.3000000000000003,-1.3,0.0,10.9,3.3000000000000003,-80.30000000000001,-27.7,-5.8
1698920740352.0,16,0.30000000000000004,2.3000000000000003,0.7000000000000001,0.0,10.8,5.5,-66.1,-28.500000000000004,-4.9
1698920740369.0,16,0.1,2.7,2.5,-0.1,11.100000000000001,6.7,-61.8,-12.200000000000001,-2.5
1698920740385.0,16,-0.1,2.6,2.9000000000000004,-0.4,10.9,8.0,-69.80000000000001,-9.1,-2.3000000000000003
1698920740401.0,16,-0.6000000000000001,2.0,2.0,-0.9,10.3,7.4,-93.7,-3.0000000000000004,-2.1
1698920740417.0,16,-0.4,1.4000000000000001,1.8,-0.8,9.4,7.4,-89.8,-5.9,-3.5
1698920740434.0,16,-0.1,1.1,2.3000000000000003,-0.4,9.1,8.1,-54.1,-4.1000000000000005,-5.2
1698920740450.0,16,0.0,0.30000000000000004,3.1,-0.30000000000000004,8.200000000000001,9.0,-37.800000000000004,-4.1000000000000005,-5.0
1698920740468.0,16,0.4,-0.1,3.3000000000000003,0.1,7.800000000000001,9.3,-27.3,-2.3000000000000003,-4.1000000000000005
1698920740484.0,16,0.4,-0.4,3.6,0.0,7.5,9.700000000000001,-26.6,-1.8,-4.9
1698920740501.0,16,0.6000000000000001,0.7000000000000001,3.7,0.2,8.4,9.9,-20.8,1.7,-1.8
1698920740518.0,16,0.5,1.5,3.6,0.1,9.3,9.8,-7.1000000000000005,4.1000000000000005,-1.2000000000000002
1698920740535.0,16,0.30000000000000004,1.5,3.6,-0.1,9.3,9.8,-1.0999999999999999,4.0,-1.3
1698920740551.0,16,0.0,0.5,3.1,-0.4,8.3,9.3,2.6,3.8,-0.2
1698920740569.0,16,-0.1,0.2,2.9000000000000004,-0.5,8.0,9.1,3.3000000000000003,2.3000000000000003,-0.1
1698920740585.0,16,-0.1,0.0,2.2,-0.5,7.800000000000001,8.5,12.6,1.0999999999999999,-0.1
1698920740601.0,16,0.0,0.0,2.0,-0.4,7.9,8.200000000000001,28.200000000000003,-1.6,-0.2
1698920740618.0,16,0.0,-0.5,1.3,-0.4,7.5,7.4,40.7,-1.9,0.1
1698920740634.0,16,0.0,-0.6000000000000001,0.8,-0.4,7.6000000000000005,7.0,45.800000000000004,-3.5,-0.2
1698920740651.0,16,-0.1,-0.8,0.30000000000000004,-0.5,7.300000000000001,6.300000000000001,56.5,-3.8,-1.0999999999999999
1698920740667.0,16,-0.2,-0.8,-0.30000000000000004,-0.5,7.4,5.4,64.30000000000001,-1.7,-2.4000000000000004
1698920740684.0,16,-0.1,-1.0,-0.7000000000000001,-0.4,7.300000000000001,5.0,66.2,-1.7,-4.0
1698920740701.0,16,0.0,-1.4000000000000001,-1.2000000000000002,-0.4,7.0,4.2,67.80000000000001,-1.3,-6.2
1698920740717.0,16,-0.1,-2.0,-1.6,-0.5,6.5,3.6,67.60000000000001,-3.1,-4.9
1698920740734.0,16,-0.1,-2.4000000000000004,-1.7000000000000002,-0.5,6.2,3.4000000000000004,68.0,-2.7,-2.9
1698920740751.0,16,-0.2,-3.1,-2.2,-0.6000000000000001,5.5,2.7,68.4,-4.1000000000000005,-2.6
1698920740768.0,16,-0.30000000000000004,-3.9000000000000004,-2.8000000000000003,-0.7000000000000001,4.800000000000001,1.8,67.80000000000001,-3.9,-3.3000000000000003
1698920740784.0,16,-0.2,-4.5,-3.1,-0.6000000000000001,4.3,1.3,67.80000000000001,-5.6,-3.3000000000000003
1698920740801.0,16,-0.2,-4.800000000000001,-3.1,-0.6000000000000001,4.0,1.2000000000000002,68.9,-7.1000000000000005,-3.3000000000000003
1698920740817.0,16,0.0,-5.4,-2.8000000000000003,-0.4,3.4000000000000004,1.2000000000000002,74.2,-9.4,-4.2
1698920740834.0,16,0.1,-6.0,-2.7,-0.30000000000000004,3.3000000000000003,1.0,80.2,-15.399999999999999,-5.9
1698920740851.0,16,0.1,-6.7,-2.5,-0.30000000000000004,2.3000000000000003,1.2000000000000002,81.8,-15.8,-6.2
1698920740869.0,16,-0.1,-6.800000000000001,-1.6,-0.5,2.2,1.8,82.8,-11.8,-8.0
1698920740884.0,16,-0.30000000000000004,-6.800000000000001,-0.6000000000000001,-0.8,2.3000000000000003,2.5,75.2,1.6,-8.799999999999999
1698920740901.0,16,-0.2,-6.7,0.1,-0.7000000000000001,2.4000000000000004,3.1,68.4,5.2,-8.1
1698920740918.0,16,0.30000000000000004,-6.300000000000001,0.9,-0.2,2.8000000000000003,3.7,50.0,6.4,-7.300000000000001
1698920740934.0,16,0.9,-5.4,2.0,0.4,3.6,4.7,27.0,3.0000000000000004,-6.6000000000000005
1698920740951.0,16,1.0,-4.7,2.2,0.5,4.4,4.9,21.200000000000003,2.1999999999999997,-7.400000000000001
1698920740967.0,16,0.9,-1.5,2.3000000000000003,0.4,7.5,5.0,30.5,2.7,-8.9
1698920740984.0,16,0.5,3.6,3.2,0.0,12.700000000000001,5.800000000000001,51.1,6.4,-9.600000000000001
1698920741001.0,16,0.1,5.7,3.7,-0.5,14.8,6.2,54.800000000000004,10.9,-9.3
1698920741018.0,16,-0.9,4.7,3.5,-1.5,13.9,5.9,42.0,12.700000000000001,-11.5
1698920741034.0,16,-0.6000000000000001,1.1,2.7,-1.2000000000000002,10.3,4.9,22.900000000000002,2.5,-3.5
1698920741051.0,16,0.2,-0.2,2.3000000000000003,-0.9,9.3,4.7,16.6,1.6,-1.0
1698920741067.0,16,0.6000000000000001,-0.1,2.3000000000000003,-0.1,9.200000000000001,4.5,9.600000000000001,-1.0999999999999999,3.4
1698920741084.0,16,0.5,0.4,1.6,-0.1,9.600000000000001,3.9000000000000004,-7.400000000000001,-1.4,7.699999999999999
1698920741101.0,16,0.30000000000000004,0.4,1.4000000000000001,-0.30000000000000004,9.600000000000001,3.7,-19.8,-3.3000000000000003,8.9
1698920741120.0,16,0.2,0.0,1.6,-0.4,9.200000000000001,4.0,-39.1,-7.699999999999999,8.700000000000001
1698920741134.0,16,0.2,-0.4,1.4000000000000001,-0.5,8.3,3.8000000000000003,-46.0,-6.7,7.2
1698920741151.0,16,0.0,-1.3,1.1,-0.5,7.800000000000001,3.8000000000000003,-46.900000000000006,-6.7,7.1000000000000005
1698920741170.0,16,-0.4,-1.1,1.3,-0.9,8.0,4.1000000000000005,-47.6,-5.8,7.9
1698920741185.0,16,-0.7000000000000001,0.4,1.5,-1.2000000000000002,9.5,4.5,-58.00000000000001,-8.799999999999999,6.1000000000000005
1698920741200.0,16,-0.5,0.7000000000000001,1.4000000000000001,-1.0,9.700000000000001,4.6000000000000005,-68.5,-10.3,4.2
1698920741219.0,16,0.30000000000000004,-1.3,0.8,-0.1,7.7,4.2,-91.2,-7.8,-0.5
1698920741234.0,16,0.8,-3.5,0.0,0.4,5.300000000000001,3.7,-95.80000000000001,1.9,-0.7
1698920741251.0,16,0.8,-4.4,-0.8,0.30000000000000004,4.4,3.1,-90.5,4.3999999999999995,0.7
1698920741267.0,16,0.4,-5.2,-2.4000000000000004,-0.1,3.3000000000000003,1.7000000000000002,-76.0,-5.6,5.7
1698920741284.0,16,-0.1,-5.4,-3.8000000000000003,-0.4,3.0,0.5,-77.5,-5.7,14.700000000000001
1698920741301.0,16,-0.4,-5.800000000000001,-3.1,-0.8,2.6,1.2000000000000002,-80.10000000000001,1.7,18.7
1698920741318.0,16,-0.8,-6.1000000000000005,-3.2,-1.1,2.1,1.3,-65.89999999999999,8.4,22.1
1698920741335.0,16,-0.5,-5.7,-3.1,-0.8,2.3000000000000003,1.6,-54.4,-13.4,13.3
1698920741350.0,16,-0.8,-4.800000000000001,-2.4000000000000004,-1.0,3.1,2.4000000000000004,-50.7,-15.6,5.7
1698920741368.0,16,-0.8,-3.8000000000000003,-2.5,-1.0,4.0,2.3000000000000003,-54.4,-4.3999999999999995,5.0
1698920741384.0,16,-0.6000000000000001,-2.0,-2.7,-0.8,5.7,2.3000000000000003,-57.6,8.0,-2.7
1698920741400.0,16,-1.0,-0.9,-2.2,-1.2000000000000002,6.7,2.9000000000000004,-37.2,5.300000000000001,-8.600000000000001
1698920741418.0,16,-1.3,-0.5,-2.2,-1.6,7.1000000000000005,2.9000000000000004,-23.1,-1.4,-7.1000000000000005
1698920741434.0,16,-1.5,-0.2,-0.6000000000000001,-1.7000000000000002,7.4,4.5,4.300000000000001,-7.500000000000001,2.8
1698920741451.0,16,-1.4000000000000001,0.1,0.1,-1.3,8.200000000000001,5.5,24.200000000000003,-3.8,9.0
1698920741468.0,16,-0.7000000000000001,0.9,1.3,-0.9,8.5,6.300000000000001,23.3,0.8,5.7
1698920741485.0,16,0.30000000000000004,1.2000000000000002,1.4000000000000001,0.0,8.9,6.5,3.7000000000000006,0.2,-6.1000000000000005
1698920741501.0,16,0.7000000000000001,1.2000000000000002,0.9,0.4,8.9,5.9,-5.8,-3.2,-9.8
1698920741518.0,16,-0.1,1.4000000000000001,1.7000000000000002,-0.30000000000000004,9.1,6.7,-1.8,-10.8,-9.3
1698920741535.0,16,-0.7000000000000001,2.4000000000000004,2.7,-0.9,10.200000000000001,7.800000000000001,12.9,-7.8,-1.6
1698920741552.0,16,-0.2,2.7,2.6,-0.5,10.5,7.7,19.3,-6.1000000000000005,0.8
1698920741567.0,16,0.0,2.5,2.8000000000000003,-0.30000000000000004,10.3,7.800000000000001,21.700000000000003,-6.9,-0.1
1698920741584.0,16,0.30000000000000004,2.0,2.9000000000000004,0.1,9.9,7.9,34.900000000000006,-4.1000000000000005,-1.2000000000000002
1698920741600.0,16,0.4,1.9000000000000001,2.3000000000000003,-0.1,9.700000000000001,6.800000000000001,39.2,3.3000000000000003,0.1
1698920741618.0,16,0.1,1.5,2.2,-0.2,9.5,7.1000000000000005,37.0,4.3999999999999995,2.0
1698920741634.0,16,0.1,1.6,1.2000000000000002,-0.1,9.700000000000001,6.0,34.6,7.0,2.5
1698920741651.0,16,0.2,1.5,2.4000000000000004,-0.1,9.600000000000001,7.1000000000000005,31.6,10.2,1.0999999999999999
1698920741667.0,16,0.8,3.6,4.0,0.5,11.8,8.6,46.6,8.600000000000001,0.5
1698920741684.0,16,1.9000000000000001,8.8,4.6000000000000005,1.6,17.2,9.1,65.3,11.4,2.8
1698920741700.0,16,2.3000000000000003,11.8,2.9000000000000004,2.1,20.400000000000002,7.300000000000001,61.300000000000004,5.0,-1.7
1698920741717.0,16,2.1,9.200000000000001,1.8,1.8,17.900000000000002,6.1000000000000005,43.300000000000004,6.8,0.6000000000000001
1698920741734.0,16,0.6000000000000001,3.3000000000000003,0.4,0.4,12.0,4.6000000000000005,10.3,9.4,13.0
1698920741751.0,16,-0.5,0.7000000000000001,-1.0,-0.7000000000000001,9.4,3.2,4.800000000000001,8.799999999999999,14.900000000000002
1698920741767.0,16,-0.5,-0.1,-1.5,-0.7000000000000001,8.700000000000001,2.7,7.6,8.3,10.8
1698920741784.0,16,0.0,-3.1,-2.3000000000000003,-0.2,5.6000000000000005,1.8,22.2,10.3,1.2000000000000002
1698920741800.0,16,0.30000000000000004,-3.8000000000000003,-3.1,0.1,4.9,0.8,32.6,7.9,-0.1
1698920741817.0,16,0.30000000000000004,-3.1,-3.6,0.0,5.7,0.30000000000000004,35.3,7.2,4.0
1698920741836.0,16,-0.30000000000000004,-0.4,-2.8000000000000003,-0.5,8.4,0.9,46.300000000000004,5.6,7.6
1698920741851.0,16,-0.30000000000000004,1.1,-2.5,-0.5,9.9,1.1,64.60000000000001,5.300000000000001,5.0
1698920741867.0,16,0.0,1.9000000000000001,-1.5,-0.2,10.8,1.9000000000000001,69.60000000000001,3.7000000000000006,2.1
1698920741884.0,16,-0.30000000000000004,1.2000000000000002,-0.5,-0.5,10.200000000000001,2.8000000000000003,56.800000000000004,0.8,-0.6000000000000001
1698920741901.0,16,-0.30000000000000004,2.5,-0.4,-0.5,11.600000000000001,2.7,20.3,1.6,-0.2
1698920741918.0,16,-0.2,3.2,-0.6000000000000001,-0.4,12.3,2.5,0.1,2.1999999999999997,0.4
1698920741936.0,16,0.2,3.4000000000000004,-0.9,0.0,12.4,2.3000000000000003,-23.0,3.5,1.7
1698920741951.0,16,0.2,2.8000000000000003,-1.1,0.0,11.8,2.2,-26.700000000000003,2.1,0.4
1698920741967.0,16,0.0,1.8,-1.3,-0.2,10.8,2.1,-26.700000000000003,1.3,-0.2
1698920741984.0,16,0.1,1.5,-1.6,-0.1,10.600000000000001,1.8,-28.700000000000003,1.3,-2.1
1698920742001.0,16,0.1,1.4000000000000001,-1.8,-0.1,10.4,1.6,-36.3,4.300000000000001,-2.1999999999999997
1698920742017.0,16,0.4,1.0,-2.1,0.1,10.0,1.4000000000000001,-40.9,7.2,-1.6
1698920742034.0,16,0.4,0.7000000000000001,-2.5,0.1,9.700000000000001,1.2000000000000002,-47.6,12.200000000000001,-2.0
1698920742052.0,16,0.1,0.8,-3.0,-0.2,9.700000000000001,0.8,-53.8,15.9,-1.3
1698920742067.0,16,0.0,1.0,-3.6,-0.30000000000000004,9.8,0.30000000000000004,-58.3,14.700000000000001,-1.5000000000000002
1698920742085.0,16,0.1,1.7000000000000002,-3.8000000000000003,-0.2,10.4,0.30000000000000004,-73.9,10.2,-4.9
1698920742100.0,16,0.2,2.4000000000000004,-3.4000000000000004,-0.1,11.100000000000001,0.9,-71.2,-15.8,-9.0
1698920742117.0,16,0.30000000000000004,2.9000000000000004,-2.7,0.0,11.600000000000001,1.6,-60.7,-29.000000000000004,-9.3
1698920742135.0,16,0.4,4.800000000000001,-1.2000000000000002,0.1,13.5,3.2,-21.5,-24.000000000000004,-10.1
1698920742151.0,16,0.0,4.2,1.4000000000000001,-0.30000000000000004,12.9,5.800000000000001,7.699999999999999,-13.5,-2.8
1698920742168.0,16,-0.4,3.7,2.7,-0.6000000000000001,12.4,7.2,3.8,-9.4,1.3
1698920742184.0,16,-0.9,4.0,2.7,-1.1,12.600000000000001,7.300000000000001,-46.4,-4.300000000000001,3.3000000000000003
1698920742200.0,16,-0.7000000000000001,2.6,1.5,-1.0,11.200000000000001,6.300000000000001,-78.4,-2.1,1.0
1698920742219.0,16,-0.7000000000000001,2.2,0.9,-0.9,10.700000000000001,5.9,-50.7,-6.5,-1.6
1698920742234.0,16,-0.5,2.0,1.3,-0.7000000000000001,10.5,6.300000000000001,-30.299999999999997,-9.700000000000001,-3.2
1698920742251.0,16,0.0,1.7000000000000002,2.2,-0.2,10.200000000000001,7.300000000000001,5.2,-10.700000000000001,-6.2
1698920742267.0,16,0.30000000000000004,1.4000000000000001,2.6,0.1,9.9,7.6000000000000005,12.3,-9.600000000000001,-6.5
1698920742285.0,16,0.4,0.4,2.9000000000000004,0.2,8.9,7.9,5.7,-7.2,-5.500000000000001
1698920742301.0,16,0.5,1.5,3.0,0.2,10.100000000000001,8.0,5.9,-1.3,-6.000000000000001
1698920742317.0,16,0.5,2.9000000000000004,2.8000000000000003,0.30000000000000004,11.4,7.9,12.6,2.1999999999999997,-7.2
1698920742336.0,16,0.6000000000000001,3.7,2.8000000000000003,0.30000000000000004,12.3,7.800000000000001,14.700000000000001,2.5,-6.3
1698920742350.0,16,0.30000000000000004,1.3,3.1,0.1,10.0,8.1,15.000000000000002,2.1999999999999997,-2.6
1698920742368.0,16,0.2,0.6000000000000001,2.7,-0.1,9.200000000000001,7.7,17.5,1.0999999999999999,-1.8
1698920742383.0,16,0.0,0.5,2.6,-0.5,9.200000000000001,7.2,18.400000000000002,1.3,-2.7
1698920742400.0,16,-0.4,0.9,1.7000000000000002,-0.7000000000000001,9.600000000000001,6.6000000000000005,26.700000000000003,2.1,-2.4000000000000004
1698920742417.0,16,-0.6000000000000001,0.6000000000000001,0.6000000000000001,-0.9,9.4,5.4,34.900000000000006,4.7,-2.3000000000000003
1698920742434.0,16,-0.4,0.1,0.1,-0.7000000000000001,9.0,4.7,37.2,5.8,-3.3000000000000003
1698920742450.0,16,-0.2,-0.4,0.0,-0.6000000000000001,8.5,4.6000000000000005,35.8,3.9,-4.2
1698920742468.0,16,0.0,-1.5,-0.30000000000000004,-0.4,7.4,4.3,33.900000000000006,1.8,-4.9
1698920742483.0,16,0.2,-2.3000000000000003,-0.7000000000000001,-0.2,6.7,3.7,33.2,-0.30000000000000004,-4.9
1698920742500.0,16,0.1,-2.7,-1.1,-0.30000000000000004,6.300000000000001,3.3000000000000003,34.2,-0.2,-4.9
1698920742517.0,16,0.0,-3.4000000000000004,-1.6,-0.5,5.6000000000000005,2.7,38.6,-0.4,-4.800000000000001
1698920742534.0,16,-0.1,-3.8000000000000003,-1.8,-0.5,5.2,2.4000000000000004,40.9,-0.1,-3.7000000000000006
1698920742550.0,16,0.0,-4.6000000000000005,-2.6,-0.4,4.5,1.4000000000000001,42.800000000000004,-4.800000000000001,-1.6
1698920742567.0,16,0.1,-5.300000000000001,-2.4000000000000004,-0.30000000000000004,3.8000000000000003,1.4000000000000001,46.900000000000006,-6.2,0.1
1698920742584.0,16,0.1,-5.7,-2.5,-0.30000000000000004,3.4000000000000004,1.2000000000000002,50.800000000000004,-5.6,1.5000000000000002
1698920742601.0,16,0.1,-6.5,-1.8,-0.30000000000000004,2.6,1.8,63.70000000000001,-8.600000000000001,3.7000000000000006
1698920742617.0,16,0.30000000000000004,-7.5,-1.8,-0.1,1.6,1.5,80.0,-9.600000000000001,5.0
1698920742634.0,16,0.4,-7.800000000000001,-1.5,0.0,1.3,1.7000000000000002,85.9,-11.1,4.6000000000000005
1698920742651.0,16,0.1,-8.8,-1.3,-0.2,0.4,1.5,94.4,-9.9,4.2
1698920742667.0,16,-0.30000000000000004,-8.6,-1.1,-0.6000000000000001,0.6000000000000001,1.5,83.10000000000001,-14.4,2.4000000000000004
1698920742683.0,16,-0.7000000000000001,-8.0,-0.2,-1.0,1.2000000000000002,2.2,56.6,-15.000000000000002,-0.5
1698920742700.0,16,-0.8,-7.6000000000000005,0.30000000000000004,-1.1,1.6,2.6,38.0,-12.5,-1.7
1698920742717.0,16,-0.30000000000000004,-6.4,1.3,-0.6000000000000001,2.7,3.5,1.2000000000000002,-10.2,-6.2
1698920742734.0,16,0.0,-5.6000000000000005,1.6,-0.1,4.7,4.6000000000000005,-10.600000000000001,-13.6,-9.9
1698920742751.0,16,0.4,-2.6,3.4000000000000004,0.1,6.4,5.800000000000001,-20.7,-2.9,-14.0
1698920742767.0,16,0.6000000000000001,4.7,6.800000000000001,0.2,13.700000000000001,9.200000000000001,-8.700000000000001,13.0,-8.5
1698920742784.0,16,0.4,12.5,6.800000000000001,0.0,21.6,9.3,6.3,13.3,-2.6
1698920742801.0,16,-0.1,16.1,5.1000000000000005,-0.5,25.3,7.6000000000000005,-1.6,0.6000000000000001,2.7
1698920742817.0,16,1.8,0.30000000000000004,1.0,1.5,9.600000000000001,3.5,3.8,-4.800000000000001,4.6000000000000005
1698920742835.0,16,1.4000000000000001,-2.8000000000000003,1.6,1.5,6.7,4.1000000000000005,-7.8,-1.9,2.4000000000000004
1698920742851.0,16,1.0,-1.8,1.4000000000000001,0.6000000000000001,7.4,4.0,-17.1,2.3000000000000003,-2.1
1698920742867.0,16,0.4,-0.8,1.3,0.0,8.4,3.9000000000000004,-25.700000000000003,8.700000000000001,-2.1999999999999997
1698920742884.0,16,0.1,-0.7000000000000001,1.5,-0.30000000000000004,8.5,4.2,-31.4,14.600000000000001,-0.7
1698920742901.0,16,-0.4,-0.2,1.9000000000000001,-0.8,9.0,4.800000000000001,-41.4,20.0,4.3999999999999995
1698920742917.0,16,-0.6000000000000001,0.4,1.9000000000000001,-1.0,9.5,4.9,-51.0,13.3,10.9
1698920742934.0,16,-0.6000000000000001,0.30000000000000004,2.0,-0.9,9.3,5.1000000000000005,-56.900000000000006,11.2,12.000000000000002
1698920742951.0,16,-0.4,-0.4,1.9000000000000001,-0.8,8.6,5.2,-71.2,9.600000000000001,8.3
1698920742967.0,16,-0.5,-0.9,1.2000000000000002,-0.9,8.0,4.800000000000001,-93.3,7.500000000000001,2.0
1698920742984.0,16,-0.6000000000000001,-1.4000000000000001,0.1,-1.0,7.300000000000001,4.1000000000000005,-108.5,-2.1999999999999997,-0.2
1698920743001.0,16,-0.6000000000000001,-2.0,-0.30000000000000004,-1.0,6.6000000000000005,3.9000000000000004,-110.50000000000001,-10.2,0.1
1698920743017.0,16,-0.5,-3.5,-1.7000000000000002,-0.9,5.0,2.8000000000000003,-101.10000000000001,-14.900000000000002,1.5000000000000002
1698920743034.0,16,-0.5,-4.7,-2.9000000000000004,-0.8,3.6,1.8,-98.30000000000001,-5.500000000000001,2.5
1698920743051.0,16,-0.4,-5.2,-3.0,-0.7000000000000001,3.0,1.8,-95.3,-0.30000000000000004,1.7
1698920743067.0,16,-0.2,-5.9,-4.4,-0.5,2.1,0.6000000000000001,-89.0,4.2,-2.1999999999999997
1698920743084.0,16,-0.5,-6.7,-4.3,-0.9,1.0,0.9,-85.9,15.7,-1.8
1698920743101.0,16,-0.5,-7.2,-4.1000000000000005,-0.9,0.5,1.2000000000000002,-78.7,22.7,0.6000000000000001
1698920743117.0,16,0.0,-8.1,-4.4,-0.4,-0.6000000000000001,1.1,-55.5,28.6,2.3000000000000003
1698920743134.0,16,0.30000000000000004,-8.0,-4.7,-0.2,-0.6000000000000001,0.8,-48.00000000000001,22.4,1.6
1698920743151.0,16,0.7000000000000001,-6.6000000000000005,-3.8000000000000003,0.5,1.6,2.1,-42.5,12.4,1.4
1698920743168.0,16,0.9,-5.6000000000000005,-3.5,0.5,1.6,2.1,-39.50000000000001,10.5,1.9
1698920743184.0,16,0.5,-2.9000000000000004,-2.1,0.0,4.2,3.6,-24.8,8.5,0.4
1698920743200.0,16,-0.7000000000000001,0.8,-1.6,-1.2000000000000002,7.9,4.1000000000000005,-3.1,8.799999999999999,-1.8
1698920743218.0,16,-1.5,2.3000000000000003,-1.3,-2.0,9.5,4.3,13.4,4.3999999999999995,-3.0000000000000004
1698920743234.0,16,-1.4000000000000001,0.9,-0.2,-1.9000000000000001,8.1,5.300000000000001,31.5,0.9,6.7
1698920743251.0,16,-0.9,0.1,0.5,-1.4000000000000001,7.300000000000001,6.0,42.800000000000004,0.8,9.700000000000001
1698920743267.0,16,0.0,-0.1,2.3000000000000003,-0.5,7.2,7.7,63.10000000000001,0.30000000000000004,3.0000000000000004
1698920743284.0,16,0.30000000000000004,1.8,3.1,-0.2,9.3,8.3,62.199999999999996,2.6,1.5000000000000002
1698920743301.0,16,0.0,3.1,2.8000000000000003,-0.5,10.600000000000001,8.0,55.900000000000006,0.8,3.0000000000000004
1698920743317.0,16,-0.5,4.4,1.5,-1.0,12.100000000000001,6.6000000000000005,51.2,-3.0000000000000004,4.6000000000000005
1698920743334.0,16,-0.5,2.9000000000000004,2.2,-1.0,10.600000000000001,7.2,49.3,-6.3,5.4
1698920743351.0,16,-0.1,2.1,2.0,-0.6000000000000001,10.0,6.800000000000001,54.0,-5.6,2.1
1698920743367.0,16,0.6000000000000001,1.6,2.4000000000000004,0.1,9.600000000000001,7.2,57.3,-3.1,-2.7
1698920743383.0,16,0.7000000000000001,1.8,2.3000000000000003,0.2,9.9,6.9,60.1,-2.7,-0.1
1698920743400.0,16,0.5,2.1,2.3000000000000003,0.0,10.200000000000001,6.800000000000001,62.7,-3.4,0.30000000000000004
1698920743417.0,16,0.30000000000000004,2.6,3.8000000000000003,-0.1,10.8,8.1,76.2,-3.0000000000000004,-0.30000000000000004
1698920743434.0,16,0.7000000000000001,5.9,5.2,0.0,12.100000000000001,8.700000000000001,86.5,1.0,1.8
1698920743451.0,16,1.3,9.5,5.4,0.9,18.0,9.4,98.6,7.0,2.9
1698920743469.0,16,1.6,15.700000000000001,3.6,1.1,24.400000000000002,7.300000000000001,82.8,7.400000000000001,-5.4
1698920743484.0,16,0.4,6.800000000000001,1.3,-0.1,15.700000000000001,4.9,35.199999999999996,2.8,8.0
1698920743500.0,16,-0.30000000000000004,2.8000000000000003,0.7000000000000001,-0.7000000000000001,11.8,4.3,18.900000000000002,4.7,18.900000000000002
1698920743517.0,16,-1.1,-0.2,-0.6000000000000001,-1.5,8.8,2.9000000000000004,13.100000000000001,1.2000000000000002,20.3
1698920743534.0,16,-0.9,-0.1,-1.7000000000000002,-1.3,8.9,1.9000000000000001,15.100000000000001,0.0,13.200000000000001
1698920743552.0,16,-0.30000000000000004,-4.0,-2.1,-0.7000000000000001,5.0,1.3,22.5,0.4,1.8
1698920743568.0,16,0.30000000000000004,-3.8000000000000003,-2.4000000000000004,0.0,5.2,1.0,32.1,-0.8,-1.7
1698920743584.0,16,0.8,-2.9000000000000004,-2.4000000000000004,0.5,6.1000000000000005,0.8,46.800000000000004,-1.6,-2.0
1698920743600.0,16,0.7000000000000001,0.2,-2.4000000000000004,0.30000000000000004,9.3,0.6000000000000001,58.00000000000001,1.9,-4.800000000000001
1698920743617.0,16,0.30000000000000004,1.0,-2.1,-0.1,10.100000000000001,0.8,61.50000000000001,2.7,-5.1
1698920743633.0,16,-0.2,1.6,-1.5,-0.6000000000000001,10.8,1.2000000000000002,58.9,3.0000000000000004,-1.7
1698920743651.0,16,-0.30000000000000004,1.6,-1.1,-0.7000000000000001,10.8,1.5,44.7,0.6000000000000001,-0.2
1698920743669.0,16,-0.4,1.8,-1.1,-0.7000000000000001,11.0,1.3,34.1,-1.0999999999999999,0.9
1698920743686.0,16,-0.4,2.4000000000000004,-1.4000000000000001,-0.8,11.700000000000001,0.9,13.700000000000001,-3.1,3.7000000000000006
1698920743701.0,16,-0.30000000000000004,2.6,-1.6,-0.7000000000000001,11.9,0.8,7.2,-2.5,3.1
1698920743717.0,16,-0.1,2.3000000000000003,-1.8,-0.4,11.600000000000001,0.5,4.5,-3.3000000000000003,0.30000000000000004
1698920743734.0,16,0.2,2.0,-2.3000000000000003,-0.2,11.3,0.0,6.7,-3.2,-0.2
1698920743751.0,16,0.2,1.5,-2.2,-0.2,10.9,0.1,6.000000000000001,-6.9,1.6
1698920743767.0,16,0.1,1.4000000000000001,-2.0,-0.2,10.8,0.30000000000000004,5.9,-8.9,3.1
1698920743784.0,16,-0.2,1.4000000000000001,-1.9000000000000001,-0.5,10.8,0.4,4.6000000000000005,-7.500000000000001,2.6
1698920743801.0,16,-0.30000000000000004,1.2000000000000002,-1.8,-0.6000000000000001,10.5,0.4,1.8,-7.1000000000000005,1.5000000000000002
1698920743818.0,16,-0.30000000000000004,0.7000000000000001,-1.7000000000000002,-0.6000000000000001,10.100000000000001,0.5,-7.2,-5.500000000000001,-1.3
1698920743835.0,16,0.1,0.4,-1.6,-0.2,9.8,0.6000000000000001,-16.2,-3.0000000000000004,-3.7000000000000006
1698920743851.0,16,0.2,0.6000000000000001,-1.6,-0.2,10.0,0.7000000000000001,-19.6,0.0,-2.8
1698920743868.0,16,0.1,0.9,-1.5,-0.30000000000000004,10.3,0.9,-18.6,-0.6000000000000001,-1.5000000000000002
1698920743885.0,16,-0.1,1.1,-1.4000000000000001,-0.4,10.5,1.0,-18.7,0.6000000000000001,-0.30000000000000004
1698920743901.0,16,-0.30000000000000004,1.2000000000000002,-1.3,-0.6000000000000001,10.600000000000001,1.1,-26.3,0.9,-1.0999999999999999
1698920743917.0,16,-0.30000000000000004,1.6,-1.0,-0.6000000000000001,10.9,1.5,-31.900000000000002,0.5,-2.1
1698920743934.0,16,0.0,1.8,-1.8,-0.30000000000000004,11.200000000000001,0.8,-48.7,5.500000000000001,-4.2
1698920743951.0,16,0.2,2.0,-2.6,-0.1,11.3,0.1,-64.30000000000001,10.9,-5.300000000000001
1698920743967.0,16,0.4,1.9000000000000001,-3.7,0.0,11.100000000000001,-0.7000000000000001,-105.5,18.400000000000002,-6.000000000000001
1698920743984.0,16,0.1,1.9000000000000001,-2.8000000000000003,-0.30000000000000004,10.9,0.5,-132.9,-7.8,-4.0
1698920744000.0,16,0.1,3.2,-2.7,-0.30000000000000004,12.200000000000001,1.0,-112.4,-29.1,-5.2
1698920744018.0,16,0.4,3.7,-2.2,0.1,12.700000000000001,1.6,-92.8,-19.0,-4.3999999999999995
1698920744034.0,16,0.5,4.1000000000000005,-1.3,0.4,13.100000000000001,2.0,-40.6,0.9,-3.0000000000000004
1698920744052.0,16,-0.2,3.3000000000000003,2.6,-0.6000000000000001,12.200000000000001,6.6000000000000005,8.200000000000001,12.100000000000001,2.0
1698920744067.0,16,-0.4,3.6,3.4000000000000004,-0.8,12.5,7.4,7.1000000000000005,17.5,0.5
1698920744084.0,16,-0.8,2.7,2.2,-1.2000000000000002,11.600000000000001,6.2,-35.0,12.700000000000001,-2.1999999999999997
1698920744101.0,16,-1.1,1.2000000000000002,0.6000000000000001,-1.6,10.0,4.9,-95.4,-2.4000000000000004,-0.4
1698920744117.0,16,-1.1,1.6,0.7000000000000001,-1.5,10.3,5.2,-87.80000000000001,-6.000000000000001,1.0
1698920744135.0,16,-0.8,2.3000000000000003,1.1,-1.3,11.0,5.7,-36.3,-9.8,-3.9
1698920744151.0,16,-0.7000000000000001,1.7000000000000002,1.8,-1.2000000000000002,10.4,6.5,-7.8,-10.1,-7.400000000000001
1698920744167.0,16,-0.1,0.2,2.2,-0.6000000000000001,8.9,6.800000000000001,26.8,-4.9,-8.5
1698920744185.0,16,0.30000000000000004,0.5,2.7,-0.2,9.3,7.300000000000001,23.0,-2.7,-10.9
1698920744201.0,16,0.9,2.4000000000000004,2.5,0.4,11.200000000000001,7.0,13.8,1.0999999999999999,-14.800000000000002
1698920744217.0,16,1.2000000000000002,2.9000000000000004,2.1,0.6000000000000001,11.700000000000001,6.6000000000000005,14.500000000000002,0.6000000000000001,-15.2
1698920744234.0,16,1.1,2.2,2.3000000000000003,0.5,11.0,6.7,16.8,0.7,-10.5
1698920744251.0,16,0.9,1.4000000000000001,2.5,0.30000000000000004,10.3,6.9,22.2,-0.2,-3.7000000000000006
1698920744267.0,16,0.1,0.30000000000000004,2.4000000000000004,-0.5,9.3,6.800000000000001,32.5,2.7,6.3
1698920744284.0,16,-0.2,0.6000000000000001,2.1,-0.8,9.600000000000001,6.4,39.00000000000001,5.2,7.0
1698920744301.0,16,0.0,0.6000000000000001,0.9,-0.6000000000000001,9.600000000000001,5.0,41.0,6.9,4.6000000000000005
1698920744317.0,16,0.1,0.5,0.5,-0.5,9.600000000000001,4.6000000000000005,43.0,5.8,3.4
1698920744334.0,16,0.1,-0.2,-0.30000000000000004,-0.5,9.0,3.7,49.4,3.2,1.4
1698920744351.0,16,0.0,-0.8,-0.1,-0.6000000000000001,8.5,3.6,52.6,2.1,0.1
1698920744367.0,16,0.0,-1.3,-0.1,-0.5,8.1,3.5,54.2,0.9,-1.0
1698920744384.0,16,0.1,-1.7000000000000002,0.0,-0.5,7.7,3.5,54.0,0.6000000000000001,-1.5000000000000002
1698920744401.0,16,-0.1,-2.5,-0.6000000000000001,-0.6000000000000001,6.9,2.7,52.2,-0.7,-0.8
1698920744417.0,16,-0.2,-3.2,-1.2000000000000002,-0.8,6.2,2.0,48.50000000000001,0.8,1.8
1698920744434.0,16,-0.2,-3.4000000000000004,-1.5,-0.7000000000000001,6.0,1.6,47.300000000000004,-0.2,3.6
1698920744451.0,16,0.1,-3.8000000000000003,-1.6,-0.4,5.6000000000000005,1.3,46.800000000000004,-6.4,5.4
1698920744468.0,16,0.30000000000000004,-4.9,-1.5,-0.2,4.6000000000000005,1.3,52.2,-11.6,5.6
1698920744484.0,16,0.30000000000000004,-5.5,-1.1,-0.2,4.0,1.6,56.300000000000004,-12.9,5.9
1698920744500.0,16,0.2,-6.9,-0.30000000000000004,-0.2,2.6,2.1,70.39999999999999,-10.3,4.7
1698920744517.0,16,0.1,-8.0,-0.1,-0.4,1.4000000000000001,2.0,87.60000000000001,-8.1,2.8
1698920744535.0,16,0.0,-8.9,-0.30000000000000004,-0.5,0.5,1.7000000000000002,90.6,-8.0,3.6
1698920744551.0,16,-0.4,-9.700000000000001,-0.2,-0.8,-0.2,1.5,80.5,-9.200000000000001,4.1000000000000005
1698920744568.0,16,-0.9,-9.5,-0.6000000000000001,-1.3,-0.1,1.0,54.800000000000004,-5.7,2.3000000000000003
1698920744584.0,16,-1.1,-10.0,-0.6000000000000001,-1.5,-0.6000000000000001,0.9,35.6,-4.0,4.1000000000000005
1698920744600.0,16,-0.6000000000000001,-9.0,1.0,-1.0,0.30000000000000004,2.4000000000000004,-12.000000000000002,-3.3000000000000003,6.1000000000000005
1698920744619.0,16,0.0,-7.1000000000000005,3.0,-0.4,2.1,4.6000000000000005,-32.2,-7.2,2.6
1698920744635.0,16,0.30000000000000004,-5.800000000000001,3.7,-0.1,3.3000000000000003,5.4,-56.2,-0.5,-4.800000000000001
1698920744651.0,16,0.8,0.4,5.6000000000000005,0.4,9.5,7.6000000000000005,-65.8,10.3,-11.3
1698920744668.0,16,1.0,23.6,3.7,0.5,32.9,5.800000000000001,-7.300000000000001,24.8,-16.1
1698920744684.0,16,-0.5,25.1,5.0,-1.0,34.4,7.1000000000000005,-8.3,-9.1,-24.7
1698920744701.0,16,-0.30000000000000004,3.8000000000000003,-0.4,-0.8,13.200000000000001,1.7000000000000002,-9.5,-6.1000000000000005,3.1
1698920744718.0,16,0.2,-4.3,1.6,-0.2,5.1000000000000005,3.9000000000000004,-37.0,-20.900000000000002,7.300000000000001
1698920744733.0,16,0.4,-4.4,0.9,-0.1,4.9,3.3000000000000003,-33.800000000000004,-17.9,-2.0
1698920744756.0,16,0.4,-2.1,0.7000000000000001,-0.1,7.2,3.2,-18.7,0.8,-5.7
1698920744767.0,16,0.5,-2.0,1.4000000000000001,0.0,7.2,3.9000000000000004,-13.700000000000001,4.800000000000001,-1.0999999999999999
1698920744784.0,16,0.5,-1.6,2.1,0.0,7.6000000000000005,4.6000000000000005,-11.4,8.0,2.5
1698920744801.0,16,0.4,-0.30000000000000004,2.5,-0.1,8.9,5.1000000000000005,-17.400000000000002,7.8,4.0
1698920744817.0,16,0.0,-0.1,1.6,-0.5,9.0,4.3,-40.8,6.5,2.0
1698920744834.0,16,0.0,0.0,1.5,-0.5,9.200000000000001,4.3,-55.2,6.4,2.1
1698920744851.0,16,-0.2,0.30000000000000004,1.8,-0.7000000000000001,9.4,4.9,-73.10000000000001,5.6,1.4
1698920744867.0,16,-0.5,-0.4,1.5,-1.0,8.6,4.800000000000001,-85.0,-1.2000000000000002,-1.3
1698920744884.0,16,-0.4,-1.0,1.1,-0.9,7.9,4.6000000000000005,-92.2,-4.3999999999999995,-1.8
1698920744900.0,16,-0.30000000000000004,-2.7,0.1,-0.8,6.1000000000000005,3.8000000000000003,-98.4,-2.8,-1.8
1698920744917.0,16,-0.5,-4.0,-1.9000000000000001,-1.0,4.6000000000000005,2.2,-96.60000000000001,-1.7,1.2000000000000002
1698920744935.0,16,-0.6000000000000001,-4.4,-2.5,-1.1,4.1000000000000005,1.6,-96.7,-5.300000000000001,4.5
1698920744952.0,16,-0.7000000000000001,-4.800000000000001,-3.3000000000000003,-1.1,3.6,1.2000000000000002,-96.2,-21.200000000000003,10.9
1698920744968.0,16,-0.8,-6.0,-3.5,-1.2000000000000002,2.2,1.2000000000000002,-85.80000000000001,-34.6,5.8
1698920744984.0,16,-1.0,-6.800000000000001,-3.8000000000000003,-1.3,1.3,1.0,-79.6,-27.6,3.4
1698920745001.0,16,-1.3,-8.0,-3.6,-1.7000000000000002,-0.1,1.3,-67.9,3.4,2.1999999999999997
1698920745017.0,16,-0.9,-7.4,-3.7,-1.3,0.4,1.4000000000000001,-48.00000000000001,19.6,-4.6000000000000005
1698920745035.0,16,0.1,-7.4,-3.7,-0.30000000000000004,0.30000000000000004,1.4000000000000001,-35.5,15.000000000000002,-11.2
1698920745052.0,16,1.7000000000000002,-6.7,-3.5,1.2000000000000002,0.9,1.6,-33.800000000000004,7.1000000000000005,-16.1
1698920745068.0,16,1.5,-4.7,-2.3000000000000003,1.0,2.7,2.9000000000000004,-33.800000000000004,5.300000000000001,-15.9
1698920745084.0,16,0.9,-3.4000000000000004,-1.2000000000000002,0.4,4.0,4.0,-18.6,10.8,-7.400000000000001
1698920745101.0,16,-0.4,0.8,-0.1,-1.0,8.200000000000001,5.2,-5.9,10.1,-3.3000000000000003
1698920745117.0,16,-1.5,4.4,0.0,-2.0,11.8,5.2,11.1,4.2,4.800000000000001
1698920745134.0,16,-1.4000000000000001,2.5,1.0,-1.9000000000000001,10.0,6.2,14.3,0.5,15.2
1698920745150.0,16,-0.8,1.2000000000000002,1.4000000000000001,-1.4000000000000001,8.700000000000001,6.6000000000000005,19.8,0.8,16.900000000000002
1698920745168.0,16,0.4,0.6000000000000001,2.6,-0.1,8.1,7.800000000000001,33.900000000000006,5.0,5.9
1698920745185.0,16,0.9,1.9000000000000001,3.0,0.2,8.700000000000001,8.1,39.400000000000006,7.2,-0.2
1698920745200.0,16,0.7000000000000001,2.6,2.4000000000000004,0.2,10.3,7.4,45.2,7.8,-3.5
1698920745218.0,16,-0.2,2.8000000000000003,2.8000000000000003,-0.7000000000000001,10.600000000000001,7.7,44.3,-0.30000000000000004,2.0
1698920745234.0,16,-0.8,2.6,2.6,-1.3,10.5,7.5,40.7,3.8,11.9
1698920745251.0,16,-0.6000000000000001,2.2,2.2,-1.1,10.200000000000001,7.0,41.4,5.2,12.100000000000001
1698920745267.0,16,0.1,1.5,2.1,-0.4,9.600000000000001,6.800000000000001,40.8,6.8,3.6
1698920745284.0,16,0.9,1.1,2.1,0.4,9.200000000000001,6.7,43.800000000000004,9.700000000000001,1.9
1698920745301.0,16,0.9,1.0,1.4000000000000001,0.4,9.1,5.9,52.800000000000004,5.500000000000001,2.3000000000000003
1698920745318.0,16,1.2000000000000002,0.5,1.7000000000000002,0.7000000000000001,8.700000000000001,6.0,59.60000000000001,9.9,6.5
1698920745334.0,16,1.0,2.0,2.9000000000000004,0.6000000000000001,10.4,7.1000000000000005,70.39999999999999,10.5,6.4
1698920745351.0,16,0.7000000000000001,2.9000000000000004,3.1,0.30000000000000004,11.3,7.2,81.7,9.9,4.800000000000001
1698920745368.0,16,0.7000000000000001,9.0,3.0,0.2,17.6,6.9,93.7,15.2,5.6
1698920745385.0,16,0.4,12.5,2.5,-0.1,21.200000000000003,6.2,90.5,11.6,3.9
1698920745401.0,16,-0.2,11.600000000000001,1.1,-0.6000000000000001,20.5,4.6000000000000005,59.60000000000001,4.0,8.700000000000001
1698920745418.0,16,-0.8,3.0,0.30000000000000004,-1.2000000000000002,12.0,3.7,24.400000000000002,0.5,17.9
1698920745434.0,16,-0.8,1.7000000000000002,-1.7000000000000002,-1.2000000000000002,10.8,1.7000000000000002,4.5,-4.9,12.3
1698920745450.0,16,-0.7000000000000001,-2.9000000000000004,-2.6,-1.4000000000000001,8.0,1.5,0.1,-3.8,3.6
1698920745467.0,16,-0.4,-2.7,-2.8000000000000003,-0.7000000000000001,6.300000000000001,0.5,1.4,-1.8,2.1999999999999997
1698920745485.0,16,0.30000000000000004,-2.4000000000000004,-3.1,0.0,6.6000000000000005,0.2,7.400000000000001,0.30000000000000004,0.6000000000000001
1698920745501.0,16,0.6000000000000001,-1.4000000000000001,-3.2,0.2,7.6000000000000005,0.0,28.400000000000002,1.8,-0.5
1698920745518.0,16,0.6000000000000001,0.1,-3.1,0.30000000000000004,9.1,-0.1,51.800000000000004,3.7000000000000006,6.6000000000000005
1698920745534.0,16,-0.1,-0.1,-2.7,-0.4,9.1,0.1,68.1,3.9,13.3
1698920745551.0,16,-0.4,-0.1,-2.5,-0.7000000000000001,9.1,0.1,71.0,4.3999999999999995,12.200000000000001
1698920745567.0,16,-0.6000000000000001,0.9,-2.1,-0.8,10.100000000000001,0.4,64.9,3.5,6.1000000000000005
1698920745585.0,16,-0.6000000000000001,1.4000000000000001,-1.9000000000000001,-0.9,10.700000000000001,0.5,58.400000000000006,3.3000000000000003,5.500000000000001
1698920745601.0,16,-0.4,2.1,-1.5,-0.6000000000000001,11.4,0.7000000000000001,43.800000000000004,2.1,8.1
1698920745618.0,16,-0.2,2.1,-1.3,-0.5,11.5,0.8,31.900000000000002,1.0999999999999999,6.5
1698920745634.0,16,-0.1,2.6,-1.3,-0.30000000000000004,12.0,0.7000000000000001,25.1,0.9,4.6000000000000005
1698920745651.0,16,-0.1,2.6,-1.4000000000000001,-0.30000000000000004,12.0,0.6000000000000001,22.000000000000004,1.7,4.0
1698920745667.0,16,0.1,2.0,-1.3,-0.1,11.5,0.5,13.200000000000001,5.1,3.6
1698920745684.0,16,0.4,1.5,-1.3,0.2,11.0,0.5,3.4,7.500000000000001,2.1999999999999997
1698920745701.0,16,0.30000000000000004,1.3,-1.3,0.1,10.8,0.5,-2.0,7.2,2.1999999999999997
1698920745717.0,16,0.2,1.1,-1.3,0.0,10.600000000000001,0.5,-11.2,5.9,2.1
1698920745735.0,16,0.0,0.9,-1.4000000000000001,-0.1,10.4,0.5,-17.8,6.000000000000001,0.6000000000000001
1698920745752.0,16,0.1,0.7000000000000001,-1.5,0.0,10.100000000000001,0.4,-21.900000000000002,7.0,-2.4000000000000004
1698920745767.0,16,0.2,0.6000000000000001,-1.5,0.0,10.0,0.4,-24.200000000000003,7.8,-3.5
1698920745784.0,16,0.30000000000000004,0.6000000000000001,-1.3,0.1,10.100000000000001,0.7000000000000001,-27.7,7.8,-3.9
1698920745800.0,16,0.30000000000000004,0.8,-1.4000000000000001,0.0,10.200000000000001,0.7000000000000001,-29.700000000000003,8.700000000000001,-3.4
1698920745817.0,16,0.2,1.1,-1.5,0.0,10.5,0.7000000000000001,-37.4,12.200000000000001,-4.0
1698920745834.0,16,0.2,1.4000000000000001,-1.7000000000000002,-0.1,10.8,0.6000000000000001,-47.400000000000006,15.2,-5.0
1698920745851.0,16,0.2,1.4000000000000001,-1.7000000000000002,-0.1,10.8,0.7000000000000001,-54.3,17.400000000000002,-5.9
1698920745868.0,16,0.2,2.3000000000000003,-2.8000000000000003,-0.1,11.600000000000001,-0.2,-69.5,18.3,-7.500000000000001
1698920745884.0,16,0.0,2.9000000000000004,-2.3000000000000003,-0.30000000000000004,12.200000000000001,0.6000000000000001,-98.2,17.3,-7.400000000000001
1698920745900.0,16,-0.1,2.5,-4.800000000000001,-0.5,11.700000000000001,-1.6,-118.50000000000001,8.1,-7.6
1698920745917.0,16,-0.2,1.9000000000000001,-4.2,-0.6000000000000001,11.0,-0.8,-134.9,-8.1,-9.3
1698920745934.0,16,0.30000000000000004,2.0,-3.4000000000000004,-0.1,11.0,0.4,-138.6,-42.300000000000004,-14.900000000000002
1698920745950.0,16,0.7000000000000001,2.5,-1.4000000000000001,0.2,11.0,1.8,-126.5,-49.0,-16.2
1698920745968.0,16,1.0,2.7,-0.6000000000000001,0.6000000000000001,11.4,3.6,-71.7,-22.900000000000002,-11.2
1698920745984.0,16,0.8,2.1,1.9000000000000001,0.4,10.9,6.2,2.0,8.0,-4.300000000000001
1698920746001.0,16,-0.2,1.9000000000000001,3.5,-0.1,10.600000000000001,7.7,31.0,19.1,-4.6000000000000005
1698920746018.0,16,-0.5,2.3000000000000003,2.6,-1.0,11.200000000000001,6.800000000000001,16.2,7.0,-10.0
1698920746034.0,16,-1.1,2.0,1.5,-1.6,10.8,5.9,-67.60000000000001,-5.0,-5.2
1698920746050.0,16,-1.2000000000000002,2.0,1.5,-1.6,10.700000000000001,6.0,-78.3,-10.0,1.5000000000000002
1698920746067.0,16,-1.2000000000000002,2.1,1.7000000000000002,-1.6,10.700000000000001,6.4,-46.800000000000004,-12.100000000000001,5.6
1698920746084.0,16,-0.4,0.7000000000000001,1.9000000000000001,-0.9,9.3,6.7,-4.1000000000000005,-12.4,-6.9
1698920746100.0,16,0.2,-0.4,2.5,-0.30000000000000004,8.200000000000001,7.2,17.8,-9.600000000000001,-11.8
1698920746117.0,16,0.4,-0.2,2.6,-0.1,8.5,7.300000000000001,21.900000000000002,-7.6,-12.4
1698920746134.0,16,0.9,1.9000000000000001,2.7,0.4,10.600000000000001,7.300000000000001,25.5,-5.4,-16.3
1698920746151.0,16,0.9,2.9000000000000004,2.5,0.4,11.600000000000001,7.1000000000000005,25.700000000000003,-5.9,-17.0
1698920746167.0,16,0.5,2.7,2.5,0.0,11.5,7.1000000000000005,22.6,-6.6000000000000005,-8.3
1698920746184.0,16,0.0,0.9,2.4000000000000004,-0.5,9.8,6.9,27.2,-3.8,0.9
1698920746200.0,16,0.1,0.30000000000000004,2.4000000000000004,-0.4,9.200000000000001,6.9,34.1,-4.2,0.7
1698920746218.0,16,0.2,0.6000000000000001,1.9000000000000001,-0.30000000000000004,9.5,6.300000000000001,36.9,-3.6,-0.2
1698920746236.0,16,0.30000000000000004,0.9,1.5,-0.2,9.9,5.800000000000001,42.5,-0.30000000000000004,-2.1999999999999997
1698920746251.0,16,0.1,0.9,0.7000000000000001,-0.5,10.0,4.800000000000001,48.00000000000001,0.4,-2.1999999999999997
1698920746267.0,16,0.0,0.6000000000000001,0.0,-0.6000000000000001,9.700000000000001,4.1000000000000005,48.300000000000004,0.0,-1.3
1698920746284.0,16,-0.1,-0.4,0.0,-0.6000000000000001,8.8,3.9000000000000004,45.3,0.0,-1.6
1698920746300.0,16,0.0,-1.4000000000000001,-0.1,-0.6000000000000001,7.9,3.7,45.800000000000004,-0.2,-1.9
1698920746317.0,16,0.0,-1.9000000000000001,0.0,-0.5,7.4,3.7,45.3,0.2,-1.2000000000000002
1698920746334.0,16,0.1,-2.7,-0.4,-0.5,6.6000000000000005,3.1,45.0,1.0999999999999999,-1.3
1698920746350.0,16,0.0,-3.4000000000000004,-1.1,-0.6000000000000001,5.9,2.3000000000000003,42.7,1.5000000000000002,-0.4
1698920746367.0,16,-0.1,-3.7,-1.3,-0.6000000000000001,5.6000000000000005,2.0,41.7,-0.2,0.9
1698920746384.0,16,-0.1,-4.3,-1.3,-0.7000000000000001,5.0,1.9000000000000001,42.300000000000004,-5.8,4.2
1698920746400.0,16,-0.2,-5.0,-1.2000000000000002,-0.7000000000000001,4.4,1.8,48.800000000000004,-12.4,5.8
1698920746417.0,16,-0.2,-5.4,-1.0,-0.7000000000000001,3.9000000000000004,1.9000000000000001,52.900000000000006,-14.3,6.1000000000000005
1698920746434.0,16,-0.1,-6.5,-0.6000000000000001,-0.6000000000000001,2.8000000000000003,2.1,62.0,-13.0,5.4
1698920746451.0,16,0.0,-7.7,0.0,-0.4,1.7000000000000002,2.5,71.9,-14.600000000000001,4.1000000000000005
1698920746467.0,16,-0.4,-8.1,-0.30000000000000004,-0.8,1.3,1.9000000000000001,74.7,-6.4,4.300000000000001
1698920746484.0,16,-0.6000000000000001,-8.8,-0.7000000000000001,-1.0,0.5,1.4000000000000001,71.5,-9.200000000000001,4.7
1698920746500.0,16,-0.9,-9.0,-0.7000000000000001,-1.3,0.30000000000000004,1.2000000000000002,51.6,-12.200000000000001,3.7000000000000006
1698920746517.0,16,-0.8,-8.200000000000001,-0.4,-1.2000000000000002,1.1,1.4000000000000001,21.700000000000003,-9.700000000000001,0.1
1698920746534.0,16,-0.5,-7.6000000000000005,0.2,-0.9,1.7000000000000002,2.1,4.2,-10.8,-1.9
1698920746550.0,16,0.1,-6.1000000000000005,1.9000000000000001,-0.30000000000000004,3.1,3.9000000000000004,-26.3,-12.5,-5.1
1698920746567.0,16,0.2,-5.1000000000000005,3.4000000000000004,-0.2,4.1000000000000005,5.4,-33.900000000000006,-11.8,-6.5
1698920746584.0,16,0.5,-0.5,5.0,0.1,8.6,7.1000000000000005,-28.400000000000002,12.100000000000001,-8.700000000000001
1698920746600.0,16,2.1,16.900000000000002,6.5,1.6,26.1,8.700000000000001,1.0,10.1,-19.3
1698920746617.0,16,-1.8,13.8,4.2,-2.4000000000000004,23.200000000000003,6.4,6.7,-10.4,-25.8
1698920746634.0,16,-1.2000000000000002,3.7,2.0,-1.7000000000000002,13.0,4.3,1.5000000000000002,-16.6,3.5
1698920746651.0,16,-0.4,-3.0,1.7000000000000002,-1.0,6.300000000000001,4.0,-30.299999999999997,-19.1,2.5
1698920746667.0,16,0.30000000000000004,-1.5,1.4000000000000001,-0.2,7.7,3.8000000000000003,-38.900000000000006,-18.5,-3.8
1698920746685.0,16,0.6000000000000001,-1.2000000000000002,1.1,0.0,8.1,3.6,-36.800000000000004,-7.500000000000001,-1.9
1698920746700.0,16,0.9,-1.4000000000000001,1.1,0.4,7.9,3.7,-31.7,2.9,0.5
1698920746718.0,16,0.9,-1.3,1.7000000000000002,0.4,7.9,4.3,-32.5,3.0000000000000004,1.0999999999999999
1698920746735.0,16,0.8,-0.8,2.3000000000000003,0.30000000000000004,8.4,5.2,-43.300000000000004,3.1,3.2
1698920746751.0,16,0.5,-0.8,2.1,0.0,8.200000000000001,5.1000000000000005,-65.7,2.9,6.4
1698920746767.0,16,0.2,-1.1,1.7000000000000002,-0.2,8.0,4.800000000000001,-75.80000000000001,2.1999999999999997,7.400000000000001
1698920746785.0,16,0.0,-1.6,0.6000000000000001,-0.5,7.300000000000001,4.1000000000000005,-92.2,-0.5,7.699999999999999
1698920746801.0,16,-0.1,-2.1,0.1,-0.6000000000000001,6.800000000000001,3.7,-97.2,-1.0,7.300000000000001
1698920746817.0,16,-0.30000000000000004,-3.8000000000000003,-1.1,-0.7000000000000001,4.800000000000001,3.0,-93.7,-1.9,7.9
1698920746834.0,16,-0.2,-4.4,-1.8,-0.6000000000000001,4.2,2.3000000000000003,-87.5,-1.4,8.200000000000001
1698920746851.0,16,-0.2,-5.7,-3.4000000000000004,-0.6000000000000001,2.7,1.0,-81.4,5.6,7.9
1698920746869.0,16,-0.2,-6.0,-3.5,-0.6000000000000001,2.3000000000000003,0.9,-78.9,7.9,7.0
1698920746884.0,16,-0.2,-7.2,-4.6000000000000005,-0.6000000000000001,0.9,0.0,-67.0,7.699999999999999,9.700000000000001
1698920746901.0,16,-0.5,-7.9,-3.8000000000000003,-0.9,0.1,1.0,-58.7,4.9,10.3
1698920746917.0,16,-0.7000000000000001,-7.800000000000001,-2.5,-1.1,0.0,2.4000000000000004,-44.1,13.6,7.6
1698920746934.0,16,-0.8,-7.2,-2.2,-1.1,0.5,2.7,-38.800000000000004,16.3,5.9
1698920746950.0,16,-0.2,-5.2,-2.0,-0.6000000000000001,2.5,3.0,-42.1,11.6,3.0000000000000004
1698920746967.0,16,0.1,-1.0,0.6000000000000001,-0.30000000000000004,6.5,5.800000000000001,-50.4,3.5,-4.300000000000001
1698920746985.0,16,-0.1,2.1,0.4,-0.5,9.600000000000001,5.6000000000000005,-45.5,4.800000000000001,-3.7000000000000006
1698920747000.0,16,-0.5,4.0,-1.1,-0.9,11.5,4.2,-36.7,1.2000000000000002,-3.2
1698920747017.0,16,-0.30000000000000004,0.30000000000000004,-0.8,-0.8,7.7,4.6000000000000005,-29.600000000000005,3.8,-2.9
1698920747034.0,16,-0.2,-0.6000000000000001,-0.1,-0.6000000000000001,6.800000000000001,5.300000000000001,-19.0,2.1,-1.7
1698920747051.0,16,-0.1,-1.3,1.1,-0.5,6.0,6.5,7.2,1.9,2.7
1698920747067.0,16,0.1,-1.2000000000000002,1.7000000000000002,-0.4,6.2,7.1000000000000005,20.7,4.9,5.4
1698920747084.0,16,0.5,0.2,2.1,0.1,7.7,7.4,35.6,12.6,8.700000000000001
1698920747101.0,16,1.0,2.3000000000000003,3.1,0.6000000000000001,9.8,8.4,27.5,6.8,5.1
1698920747117.0,16,-0.1,4.4,2.7,-0.5,12.0,7.9,16.8,1.8,-0.2
1698920747134.0,16,-0.6000000000000001,4.5,2.2,-1.0,12.200000000000001,7.5,18.400000000000002,1.8,-1.3
1698920747150.0,16,-0.8,2.6,1.2000000000000002,-1.2000000000000002,10.3,6.300000000000001,29.900000000000006,4.7,-1.5000000000000002
1698920747167.0,16,-0.6000000000000001,-0.4,0.7000000000000001,-1.1,7.300000000000001,5.7,42.5,6.000000000000001,-1.0999999999999999
1698920747185.0,16,-0.4,-2.1,-0.2,-0.9,5.7,4.7,46.6,7.500000000000001,-0.2
1698920747201.0,16,-0.2,-3.4000000000000004,0.0,-0.7000000000000001,4.5,4.800000000000001,46.900000000000006,5.1,-0.1
1698920747217.0,16,-0.30000000000000004,-1.7000000000000002,0.30000000000000004,-0.8,6.300000000000001,5.0,47.7,2.0,-6.1000000000000005
1698920747236.0,16,0.0,-0.1,3.0,-0.5,7.9,7.6000000000000005,55.2,1.7,-8.200000000000001
1698920747251.0,16,1.0,7.1000000000000005,6.300000000000001,0.5,15.3,10.700000000000001,108.7,12.700000000000001,-8.700000000000001
1698920747267.0,16,2.4000000000000004,23.700000000000003,5.800000000000001,1.8,32.2,9.9,128.8,14.3,-15.8
1698920747285.0,16,0.7000000000000001,25.1,4.3,0.1,33.7,8.3,97.7,-1.9,-11.000000000000002
1698920747302.0,16,0.0,4.9,1.7000000000000002,-0.6000000000000001,13.700000000000001,5.6000000000000005,-2.1,1.0,28.3
1698920747317.0,16,-1.1,2.0,-0.2,-1.6,10.8,3.9000000000000004,-33.300000000000004,-14.3,19.1
1698920747334.0,16,-1.3,0.7000000000000001,-1.0,-1.7000000000000002,9.4,3.1,-31.2,-15.2,9.5
1698920747354.0,16,-0.9,-0.4,-2.6,-1.3,8.3,1.6,-18.2,-11.9,-2.6
1698920747367.0,16,0.2,-6.2,-4.2,-0.30000000000000004,2.5,-0.1,1.7,-5.6,-4.1000000000000005
1698920747383.0,16,0.7000000000000001,-3.9000000000000004,-3.9000000000000004,0.30000000000000004,4.800000000000001,0.2,19.0,-3.6,3.4
1698920747401.0,16,0.8,-2.5,-4.2,0.4,6.1000000000000005,-0.2,34.7,-3.3000000000000003,7.6
1698920747418.0,16,0.0,0.0,-3.6,-0.30000000000000004,8.8,0.2,66.7,-0.6000000000000001,9.0
1698920747434.0,16,-0.4,0.2,-2.6,-0.6000000000000001,9.0,0.4,84.1,0.30000000000000004,6.8
1698920747450.0,16,-0.5,0.8,-1.8,-0.8,9.700000000000001,1.4000000000000001,106.7,2.1999999999999997,-0.7
1698920747467.0,16,-0.6000000000000001,3.0,-0.9,-1.0,12.0,2.1,103.60000000000001,1.8,-4.0
1698920747483.0,16,-0.30000000000000004,3.7,-0.5,-0.7000000000000001,12.8,2.2,62.0,1.4,-2.1
1698920747501.0,16,-0.4,3.6,-0.6000000000000001,-0.8,12.8,2.1,33.300000000000004,0.8,-2.1999999999999997
1698920747518.0,16,-0.1,3.2,-1.0,-0.5,12.4,1.6,-8.1,0.0,-1.0
1698920747534.0,16,0.0,2.8000000000000003,-1.4000000000000001,-0.4,12.0,1.3,-15.9,0.6000000000000001,0.1
1698920747551.0,16,0.0,2.5,-1.9000000000000001,-0.4,11.700000000000001,0.8,-14.200000000000001,0.9,-0.2
1698920747567.0,16,0.30000000000000004,1.7000000000000002,-1.8,-0.1,10.9,0.9,-2.0,2.6,-1.8
1698920747584.0,16,0.6000000000000001,1.1,-1.7000000000000002,0.2,10.3,1.0,4.0,3.4,-2.1
1698920747600.0,16,0.5,0.30000000000000004,-1.4000000000000001,0.1,9.600000000000001,1.2000000000000002,4.3999999999999995,3.4,-0.8
1698920747617.0,16,0.0,0.7000000000000001,-1.4000000000000001,-0.5,9.9,1.3,-10.600000000000001,3.8,0.5
1698920747633.0,16,-0.2,0.8,-1.5,-0.6000000000000001,10.0,1.2000000000000002,-21.0,4.0,-1.0999999999999999
1698920747650.0,16,0.0,0.6000000000000001,-1.7000000000000002,-0.4,9.8,1.1,-39.6,5.300000000000001,-4.2
1698920747667.0,16,0.0,1.0,-2.2,-0.5,10.100000000000001,0.7000000000000001,-49.3,8.700000000000001,-5.4
1698920747684.0,16,-0.1,1.4000000000000001,-2.5,-0.5,10.600000000000001,0.5,-52.900000000000006,11.3,-5.300000000000001
1698920747700.0,16,0.0,2.4000000000000004,-3.1,-0.5,11.600000000000001,0.0,-65.89999999999999,17.599999999999998,-6.2
1698920747717.0,16,0.0,2.8000000000000003,-3.9000000000000004,-0.5,11.8,-0.5,-95.3,8.200000000000001,-5.300000000000001
1698920747736.0,16,-0.6000000000000001,2.9000000000000004,-3.2,-1.1,11.8,0.5,-116.6,-13.3,-1.9
1698920747752.0,16,-0.6000000000000001,2.9000000000000004,-3.1,-1.1,11.8,0.8,-113.5,-26.500000000000004,-1.8
1698920747767.0,16,-0.5,3.4000000000000004,-2.7,-1.0,12.100000000000001,1.4000000000000001,-83.8,-24.400000000000002,-1.9
1698920747784.0,16,-0.4,3.6,-2.7,-0.9,12.3,1.6,-66.80000000000001,-17.400000000000002,-2.1999999999999997
1698920747800.0,16,0.1,2.4000000000000004,0.9,-0.4,11.0,5.300000000000001,-19.0,-1.2000000000000002,3.1
1698920747817.0,16,0.4,2.2,3.1,-0.1,10.9,7.5,-10.3,4.9,5.7
1698920747834.0,16,0.30000000000000004,2.3000000000000003,4.2,-0.2,11.0,8.6,-11.4,7.9,5.6
1698920747851.0,16,-0.2,2.4000000000000004,2.1,-0.7000000000000001,11.100000000000001,6.7,-57.6,6.3,1.5000000000000002
1698920747868.0,16,-0.4,1.9000000000000001,0.6000000000000001,-0.9,10.4,5.5,-79.2,-2.5,-3.0000000000000004
1698920747884.0,16,-0.30000000000000004,1.9000000000000001,1.5,-0.8,10.3,6.5,-40.5,-4.300000000000001,-6.5
1698920747900.0,16,0.0,2.0,1.6,-0.5,10.5,6.6000000000000005,-16.5,-6.2,-7.1000000000000005
1698920747917.0,16,0.30000000000000004,1.1,2.8000000000000003,-0.2,9.600000000000001,7.9,10.9,-4.6000000000000005,-7.400000000000001
1698920747934.0,16,0.1,-0.5,2.6,-0.4,8.0,7.6000000000000005,9.0,-2.1999999999999997,-6.4
1698920747950.0,16,0.4,0.2,2.7,-0.2,8.6,7.800000000000001,6.7,1.7,-7.6
1698920747967.0,16,0.6000000000000001,1.5,2.4000000000000004,0.1,10.0,7.4,11.2,0.8,-10.1
1698920747984.0,16,0.8,3.3000000000000003,2.1,0.2,11.8,7.1000000000000005,17.599999999999998,1.7,-12.100000000000001
1698920748000.0,16,0.6000000000000001,3.0,2.0,0.0,11.600000000000001,6.9,20.0,0.7,-10.2
1698920748017.0,16,0.2,0.4,2.2,-0.5,9.0,7.2,27.2,2.1,-2.9
1698920748034.0,16,0.1,-0.4,2.4000000000000004,-0.5,8.3,7.300000000000001,32.800000000000004,3.2,-1.2000000000000002
1698920748052.0,16,0.2,-0.6000000000000001,1.3,-0.4,8.1,6.0,44.8,2.4000000000000004,-0.7
1698920748068.0,16,0.2,-0.1,0.8,-0.5,8.6,5.5,49.3,2.3000000000000003,-1.0
1698920748084.0,16,0.2,0.30000000000000004,0.2,-0.5,8.8,5.1000000000000005,58.3,3.1,-0.7
1698920748101.0,16,-0.1,0.2,0.1,-0.8,9.1,4.4,61.599999999999994,5.500000000000001,-1.0
1698920748117.0,16,-0.30000000000000004,-0.2,0.2,-1.0,8.8,4.4,60.7,5.500000000000001,-1.0
1698920748138.0,16,-0.4,-0.8,0.4,-1.0,8.3,4.4,58.9,4.300000000000001,-1.0
1698920748151.0,16,-0.30000000000000004,-1.1,0.2,-1.0,8.1,4.1000000000000005,59.400000000000006,4.1000000000000005,-1.0999999999999999
1698920748167.0,16,-0.2,-1.6,-0.2,-0.9,7.6000000000000005,3.5,59.60000000000001,3.6,-0.8
1698920748184.0,16,-0.1,-2.2,-1.0,-0.8,7.1000000000000005,2.5,58.00000000000001,0.6000000000000001,1.0
1698920748200.0,16,-0.1,-2.9000000000000004,-1.3,-0.8,6.4,2.0,53.8,-0.1,4.2
1698920748217.0,16,-0.1,-3.2,-1.4000000000000001,-0.8,6.1000000000000005,1.9000000000000001,52.400000000000006,-1.6,5.1
1698920748233.0,16,0.0,-3.9000000000000004,-1.4000000000000001,-0.6000000000000001,5.4,1.6,52.300000000000004,-3.6,5.9
1698920748250.0,16,0.0,-4.3,-1.2000000000000002,-0.6000000000000001,5.1000000000000005,1.8,52.900000000000006,-6.000000000000001,4.6000000000000005
1698920748267.0,16,0.0,-5.1000000000000005,-0.9,-0.6000000000000001,4.2,1.9000000000000001,58.7,-5.300000000000001,3.4
1698920748283.0,16,0.0,-5.800000000000001,-0.5,-0.6000000000000001,3.6,2.1,64.8,-10.2,3.4
1698920748300.0,16,0.0,-6.7,0.0,-0.5,2.7,2.4000000000000004,71.9,-14.900000000000002,2.4000000000000004
1698920748316.0,16,-0.2,-7.6000000000000005,0.30000000000000004,-0.8,1.8,2.4000000000000004,74.8,-18.6,1.7
1698920748333.0,16,-0.4,-7.9,0.4,-0.9,1.5,2.4000000000000004,73.7,-18.5,1.4
1698920748350.0,16,-0.7000000000000001,-8.3,0.0,-1.2000000000000002,1.1,1.8,60.20000000000001,-15.8,1.0999999999999999
1698920748367.0,16,-0.7000000000000001,-8.4,0.1,-1.3,1.0,1.8,46.300000000000004,-16.0,1.4
1698920748384.0,16,-0.6000000000000001,-7.6000000000000005,0.30000000000000004,-1.2000000000000002,1.7000000000000002,2.0,12.5,-15.399999999999999,-0.5
1698920748400.0,16,-0.5,-6.9,0.7000000000000001,-1.0,2.3000000000000003,2.4000000000000004,-15.6,-13.8,-3.0000000000000004
1698920748418.0,16,0.0,-5.2,2.2,-0.6000000000000001,4.0,4.0,-19.0,-11.000000000000002,-3.8
1698920748434.0,16,0.7000000000000001,-1.3,3.3000000000000003,0.1,7.9,5.2,-14.500000000000002,1.2000000000000002,-4.1000000000000005
1698920748450.0,16,2.1,8.700000000000001,7.0,1.5,17.900000000000002,8.9,-1.6,18.400000000000002,-6.6000000000000005
1698920748467.0,16,0.4,16.2,6.2,-0.2,25.5,8.200000000000001,5.6,7.1000000000000005,-27.7
1698920748484.0,16,-1.0,11.5,5.800000000000001,-1.7000000000000002,20.900000000000002,7.7,1.3,-4.5,-13.200000000000001
1698920748500.0,16,-0.9,0.30000000000000004,2.9000000000000004,-1.5,9.700000000000001,4.9,-30.5,-0.1,8.3
1698920748517.0,16,-0.30000000000000004,-1.2000000000000002,3.1,-0.9,8.200000000000001,5.2,-40.6,-3.9,3.1
1698920748534.0,16,0.6000000000000001,-0.9,1.7000000000000002,-0.1,8.4,3.9000000000000004,-46.800000000000004,-5.9,-3.5
1698920748550.0,16,0.7000000000000001,-0.7000000000000001,0.9,0.0,8.6,3.3000000000000003,-51.5,-2.0,-4.3999999999999995
1698920748567.0,16,0.6000000000000001,-1.4000000000000001,1.0,-0.1,7.800000000000001,3.6,-63.0,9.5,-5.4
1698920748583.0,16,0.30000000000000004,-2.8000000000000003,0.6000000000000001,-0.4,6.4,3.3000000000000003,-67.4,9.200000000000001,-1.0999999999999999
1698920748600.0,16,0.2,-4.0,-0.6000000000000001,-0.4,5.1000000000000005,2.4000000000000004,-77.3,-2.8,4.800000000000001
1698920748618.0,16,0.1,-4.3,-0.9,-0.5,4.6000000000000005,2.3000000000000003,-84.4,-9.200000000000001,6.000000000000001
1698920748635.0,16,-0.2,-4.800000000000001,-1.1,-0.9,4.1000000000000005,2.4000000000000004,-93.3,-20.7,5.300000000000001
1698920748651.0,16,-0.4,-5.0,-0.5,-1.0,3.7,3.0,-93.4,-22.900000000000002,3.4
1698920748668.0,16,-0.5,-5.7,-1.2000000000000002,-1.1,2.9000000000000004,2.7,-73.2,18.2,-3.4
1698920748684.0,16,-0.2,-5.800000000000001,-1.9000000000000001,-0.8,2.6,2.1,-71.0,25.3,-1.2000000000000002
1698920748701.0,16,0.6000000000000001,-5.6000000000000005,-2.6,-0.1,2.7,1.6,-76.0,28.0,7.300000000000001
1698920748717.0,16,1.1,-5.300000000000001,-3.2,0.4,2.9000000000000004,1.1,-77.80000000000001,24.7,7.2
1698920748734.0,16,1.5,-4.7,-2.8000000000000003,0.9,3.3000000000000003,1.7000000000000002,-77.1,12.5,4.1000000000000005
1698920748750.0,16,1.0,-4.2,-1.9000000000000001,0.4,3.8000000000000003,2.8000000000000003,-64.0,12.700000000000001,6.5
1698920748767.0,16,0.7000000000000001,-3.6,-2.5,0.1,4.3,2.2,-57.400000000000006,17.7,9.8
1698920748785.0,16,0.4,-2.4000000000000004,-2.1,-0.2,5.4,2.8000000000000003,-53.1,14.100000000000001,14.500000000000002
1698920748801.0,16,-0.5,-1.3,-0.8,-1.1,6.4,4.1000000000000005,-43.1,3.0000000000000004,12.000000000000002
1698920748817.0,16,-1.2000000000000002,-0.6000000000000001,-1.0,-1.8,7.0,4.0,-37.2,2.1,11.1
1698920748834.0,16,-1.8,0.2,-0.9,-2.4000000000000004,7.800000000000001,4.2,-32.4,2.3000000000000003,12.100000000000001
1698920748850.0,16,-1.2000000000000002,0.30000000000000004,0.1,-1.8,7.800000000000001,5.2,-20.4,1.3,8.9
1698920748867.0,16,-0.30000000000000004,0.4,1.0,-0.9,7.9,6.2,0.4,0.2,4.800000000000001
1698920748887.0,16,0.1,1.4000000000000001,2.2,-0.4,9.0,7.300000000000001,8.9,-5.300000000000001,1.8
1698920748901.0,16,-0.1,2.0,2.2,-0.7000000000000001,9.600000000000001,7.4,8.0,-2.0,1.3
1698920748917.0,16,-0.2,2.5,1.7000000000000002,-0.6000000000000001,10.200000000000001,7.1000000000000005,5.0,2.1,0.2
1698920748934.0,16,0.30000000000000004,2.4000000000000004,2.0,-0.2,10.0,7.2,10.5,1.3,-1.9
1698920748950.0,16,0.30000000000000004,1.8,2.5,-0.30000000000000004,9.4,7.6000000000000005,26.500000000000004,-3.1,-2.1
1698920748967.0,16,-0.1,1.3,2.7,-0.6000000000000001,9.1,7.800000000000001,41.1,-1.9,6.5
1698920748984.0,16,-0.30000000000000004,1.3,2.3000000000000003,-0.9,9.1,7.300000000000001,47.5,-1.4,10.1
1698920749000.0,16,-0.7000000000000001,0.9,0.9,-1.2000000000000002,8.9,5.800000000000001,49.1,0.30000000000000004,12.8
1698920749017.0,16,-0.9,0.4,1.3,-1.4000000000000001,8.3,6.1000000000000005,47.900000000000006,-1.2000000000000002,11.6
1698920749035.0,16,-0.6000000000000001,0.6000000000000001,0.2,-1.1,8.6,4.800000000000001,49.0,1.6,5.4
1698920749051.0,16,-0.30000000000000004,1.3,1.6,-0.7000000000000001,9.5,6.1000000000000005,53.6,-5.7,-3.5
1698920749067.0,16,0.8,4.1000000000000005,3.8000000000000003,0.30000000000000004,12.4,8.1,74.60000000000001,-1.6,-10.1
1698920749084.0,16,1.2000000000000002,6.4,4.0,0.7000000000000001,14.8,8.200000000000001,87.2,2.5,-11.8
1698920749101.0,16,1.4000000000000001,11.200000000000001,4.0,0.9,19.8,8.0,89.9,-1.3,-11.6
1698920749117.0,16,0.30000000000000004,10.0,1.7000000000000002,-0.30000000000000004,18.7,5.5,50.9,-2.7,0.8
1698920749134.0,16,-0.30000000000000004,7.1000000000000005,0.8,-0.8,15.9,4.6000000000000005,26.6,-1.9,7.300000000000001
1698920749150.0,16,-0.8,2.5,-0.5,-1.3,11.4,3.3000000000000003,1.6,-5.500000000000001,9.4
1698920749167.0,16,-0.6000000000000001,2.4000000000000004,-1.2000000000000002,-1.1,11.3,2.6,-0.5,-5.6,7.300000000000001
1698920749184.0,16,-0.2,-2.1,-2.4000000000000004,-0.7000000000000001,6.7,1.4000000000000001,4.2,-5.2,2.1999999999999997
1698920749201.0,16,0.4,-2.2,-2.8000000000000003,-0.1,6.6000000000000005,1.0,11.4,-0.30000000000000004,-3.1
1698920749217.0,16,0.8,-2.2,-3.4000000000000004,0.30000000000000004,6.7,0.30000000000000004,24.8,2.0,-3.2
1698920749234.0,16,0.7000000000000001,-1.0,-3.5,0.2,7.800000000000001,0.1,32.7,1.7,-1.7
1698920749250.0,16,0.2,0.4,-3.4000000000000004,-0.2,9.4,0.0,51.0,3.0000000000000004,3.1
1698920749267.0,16,-0.30000000000000004,0.4,-2.8000000000000003,-0.7000000000000001,9.4,0.4,67.60000000000001,3.8,3.1
1698920749284.0,16,-0.4,0.6000000000000001,-2.3000000000000003,-0.9,9.700000000000001,0.7000000000000001,74.60000000000001,2.7,0.1
1698920749301.0,16,-0.30000000000000004,2.2,-1.8,-0.8,11.3,1.0,81.2,-0.9,-4.800000000000001
1698920749317.0,16,-0.1,2.7,-1.2000000000000002,-0.5,11.9,1.3,67.80000000000001,-2.7,-3.8
1698920749335.0,16,0.1,2.9000000000000004,-1.0,-0.4,12.200000000000001,1.5,54.5,-2.5,-2.9
1698920749350.0,16,0.4,2.9000000000000004,-1.2000000000000002,-0.1,12.200000000000001,1.1,19.400000000000002,-0.9,-3.9
1698920749367.0,16,0.6000000000000001,2.4000000000000004,-1.5,0.1,11.700000000000001,0.9,-11.700000000000001,-1.5000000000000002,-1.9
1698920749384.0,16,0.2,1.9000000000000001,-1.7000000000000002,-0.30000000000000004,11.3,0.7000000000000001,-24.7,-1.8,1.5000000000000002
1698920749400.0,16,0.1,1.7000000000000002,-1.8,-0.4,11.0,0.7000000000000001,-25.6,-0.6000000000000001,2.3000000000000003
1698920749417.0,16,0.0,1.4000000000000001,-1.7000000000000002,-0.5,10.700000000000001,0.8,-20.4,-1.6,0.9
1698920749434.0,16,0.0,1.2000000000000002,-1.7000000000000002,-0.5,10.5,0.8,-16.8,-0.6000000000000001,0.1
1698920749451.0,16,-0.1,1.0,-1.7000000000000002,-0.6000000000000001,10.3,0.9,-14.3,1.3,-1.2000000000000002
1698920749468.0,16,-0.30000000000000004,0.9,-1.6,-0.8,10.100000000000001,0.9,-23.2,2.3000000000000003,-1.0999999999999999
1698920749483.0,16,-0.30000000000000004,1.1,-1.8,-0.8,10.4,0.9,-40.0,3.9,-2.5
1698920749500.0,16,-0.1,1.3,-1.9000000000000001,-0.7000000000000001,10.600000000000001,0.9,-49.5,5.2,-3.2
1698920749517.0,16,-0.1,1.4000000000000001,-2.2,-0.7000000000000001,10.600000000000001,0.7000000000000001,-66.9,7.500000000000001,-2.9
1698920749534.0,16,-0.1,2.3000000000000003,-3.4000000000000004,-0.6000000000000001,11.4,-0.2,-86.5,6.1000000000000005,-1.5000000000000002
1698920749550.0,16,-0.1,2.8000000000000003,-3.8000000000000003,-0.7000000000000001,11.8,-0.5,-101.4,5.6,-2.3000000000000003
1698920749567.0,16,0.0,3.2,-3.9000000000000004,-0.6000000000000001,12.200000000000001,-0.2,-128.5,-14.3,-4.800000000000001
1698920749583.0,16,-0.4,3.3000000000000003,-2.9000000000000004,-0.9,12.100000000000001,1.2000000000000002,-123.19999999999999,-32.1,-8.4
1698920749600.0,16,-0.5,2.8000000000000003,-2.7,-1.1,11.600000000000001,1.5,-108.7,-27.6,-5.500000000000001
1698920749616.0,16,-0.30000000000000004,3.0,-1.2000000000000002,-0.8,11.600000000000001,3.3000000000000003,-67.4,-12.9,-0.30000000000000004
1698920749633.0,16,-0.2,3.0,0.0,-0.7000000000000001,11.600000000000001,4.5,-39.699999999999996,-6.000000000000001,0.6000000000000001
1698920749650.0,16,-0.4,2.4000000000000004,3.9000000000000004,-0.9,11.100000000000001,8.4,15.5,-8.0,7.500000000000001
1698920749667.0,16,-1.0,2.4000000000000004,3.0,-1.5,11.100000000000001,7.5,2.4000000000000004,1.7,6.6000000000000005
1698920749683.0,16,-0.6000000000000001,1.4000000000000001,1.1,-1.0,10.0,5.800000000000001,-75.9,-4.5,-2.4000000000000004
1698920749700.0,16,-0.1,1.5,1.5,-0.6000000000000001,10.100000000000001,6.300000000000001,-85.80000000000001,-10.1,-5.4
1698920749717.0,16,0.4,2.5,1.3,-0.1,11.0,6.300000000000001,-48.800000000000004,-4.3999999999999995,-7.9
1698920749733.0,16,0.2,1.2000000000000002,2.3000000000000003,-0.30000000000000004,9.600000000000001,7.4,0.2,-1.3,-6.3
1698920749750.0,16,0.4,-0.1,2.6,-0.2,8.9,7.5,18.3,0.30000000000000004,-5.2
1698920749767.0,16,0.5,-0.30000000000000004,2.5,-0.1,8.200000000000001,7.5,27.2,5.8,-8.700000000000001
1698920749783.0,16,0.7000000000000001,1.3,2.8000000000000003,0.1,9.9,7.800000000000001,21.5,7.500000000000001,-13.6
1698920749800.0,16,0.7000000000000001,2.4000000000000004,2.5,0.1,11.0,7.5,23.3,6.8,-14.0
1698920749817.0,16,0.2,2.3000000000000003,2.6,-0.4,10.9,7.4,27.0,6.7,-7.500000000000001
1698920749833.0,16,0.0,0.2,2.8000000000000003,-0.7000000000000001,8.9,7.5,35.199999999999996,5.300000000000001,0.30000000000000004
1698920749850.0,16,-0.2,0.0,2.8000000000000003,-0.8,8.700000000000001,7.5,40.0,5.2,1.0999999999999999
1698920749867.0,16,-0.30000000000000004,0.2,2.3000000000000003,-1.0,9.0,6.9,46.2,8.799999999999999,-0.5
1698920749883.0,16,-0.30000000000000004,0.9,1.2000000000000002,-1.0,9.8,5.6000000000000005,51.1,11.3,-2.1
1698920749900.0,16,-0.30000000000000004,1.1,0.7000000000000001,-1.0,10.0,5.1000000000000005,53.50000000000001,10.3,-1.4
1698920749917.0,16,-0.30000000000000004,0.6000000000000001,0.30000000000000004,-1.0,9.600000000000001,4.5,57.699999999999996,9.1,1.5000000000000002
1698920749933.0,16,-0.5,-0.30000000000000004,0.2,-1.2000000000000002,8.9,4.2,58.400000000000006,6.9,4.300000000000001
1698920749950.0,16,-0.1,-1.1,0.1,-0.8,8.1,3.9000000000000004,56.6,2.7,6.4
1698920749967.0,16,0.1,-1.5,-0.1,-0.6000000000000001,7.800000000000001,3.6,53.400000000000006,0.9,5.8
1698920749983.0,16,0.1,-2.3000000000000003,-0.9,-0.6000000000000001,6.9,2.7,47.400000000000006,-0.7,4.6000000000000005
1698920750000.0,16,0.0,-3.3000000000000003,-1.7000000000000002,-0.6000000000000001,6.0,1.7000000000000002,41.7,-4.5,6.5
1698920750016.0,16,0.2,-3.5,-2.2,-0.5,5.800000000000001,1.2000000000000002,38.0,-7.0,7.6
1698920750033.0,16,0.4,-3.7,-2.2,-0.2,5.6000000000000005,1.0,31.7,-10.5,7.0
1698920750050.0,16,0.5,-3.8000000000000003,-2.3000000000000003,-0.1,5.6000000000000005,0.9,25.400000000000002,-18.400000000000002,4.9
1698920750067.0,16,0.1,-4.6000000000000005,-1.7000000000000002,-0.5,4.7,1.5,24.000000000000004,-18.7,4.0
1698920750084.0,16,-0.5,-6.0,-1.5,-1.0,3.3000000000000003,1.5,21.1,-16.900000000000002,3.4
1698920750100.0,16,-0.6000000000000001,-6.6000000000000005,-1.2000000000000002,-1.1,2.6,1.8,21.1,-18.900000000000002,3.2
1698920750117.0,16,-0.9,-8.200000000000001,-1.2000000000000002,-1.4000000000000001,1.0,1.7000000000000002,27.8,-22.000000000000004,3.8
1698920750134.0,16,-1.1,-9.1,-0.4,-1.5,0.1,2.4000000000000004,41.9,-16.700000000000003,5.9
1698920750150.0,16,-0.7000000000000001,-9.5,-0.5,-1.4000000000000001,-0.30000000000000004,2.2,55.300000000000004,-10.8,9.200000000000001
1698920750169.0,16,-0.30000000000000004,-9.4,-0.4,-0.7000000000000001,-0.30000000000000004,2.1,57.400000000000006,-14.3,9.700000000000001
1698920750184.0,16,0.4,-8.0,0.5,0.0,1.1,2.8000000000000003,48.50000000000001,-23.3,6.6000000000000005
1698920750200.0,16,0.5,-7.1000000000000005,1.7000000000000002,0.1,2.0,4.0,36.1,-22.6,5.0
1698920750218.0,16,0.5,-4.6000000000000005,3.2,0.2,4.4,5.5,4.1000000000000005,-17.200000000000003,3.7000000000000006
1698920750235.0,16,0.30000000000000004,-0.1,5.4,0.0,9.0,7.7,-18.6,-1.8,0.7
1698920750251.0,16,0.7000000000000001,12.0,5.4,0.4,21.200000000000003,7.800000000000001,5.8,27.6,-15.7
1698920750268.0,16,1.1,15.100000000000001,2.2,0.7000000000000001,24.3,4.6000000000000005,14.600000000000001,21.700000000000003,-31.4
1698920750284.0,16,0.7000000000000001,6.7,2.8000000000000003,0.2,16.0,5.2,24.6,3.3000000000000003,-27.0
1698920750300.0,16,1.0,1.0,2.0,0.6000000000000001,10.3,4.4,18.8,-4.9,3.7000000000000006
1698920750319.0,16,-0.30000000000000004,-1.4000000000000001,3.2,-0.8,7.9,5.6000000000000005,-6.8,-7.8,7.2
1698920750336.0,16,0.0,-0.8,2.1,-0.5,8.5,4.6000000000000005,-20.2,-14.0,-1.8
1698920750351.0,16,0.0,-1.1,2.0,-0.4,8.5,4.4,-29.200000000000003,0.5,5.6
1698920750367.0,16,0.1,-1.6,2.1,-0.30000000000000004,7.6000000000000005,4.800000000000001,-29.800000000000004,8.0,9.0
1698920750384.0,16,0.5,-2.2,2.0,0.1,6.9,4.7,-33.6,18.0,10.4
1698920750400.0,16,1.1,-2.7,1.2000000000000002,0.7000000000000001,6.4,4.1000000000000005,-49.1,22.7,7.6
1698920750417.0,16,1.3,-3.0,0.7000000000000001,0.9,6.0,3.7,-59.1,22.3,6.2
1698920750433.0,16,1.0,-3.9000000000000004,-0.6000000000000001,0.6000000000000001,5.1000000000000005,2.6,-74.5,16.0,6.1000000000000005
1698920750451.0,16,0.7000000000000001,-4.3,-1.1,0.30000000000000004,4.6000000000000005,2.2,-77.3,-0.9,10.4
1698920750469.0,16,0.1,-5.1000000000000005,-1.7000000000000002,-0.2,3.6,1.8,-74.30000000000001,-7.8,13.8
1698920750484.0,16,-0.5,-6.0,-2.4000000000000004,-0.7000000000000001,2.7,1.3,-67.2,6.1000000000000005,20.3
1698920750500.0,16,-0.8,-6.2,-2.8000000000000003,-1.0,2.3000000000000003,1.1,-65.60000000000001,29.500000000000004,21.5
1698920750517.0,16,-0.9,-6.5,-3.4000000000000004,-1.2000000000000002,1.5,-0.1,-55.7,16.8,18.1
1698920750533.0,16,-0.8,-7.300000000000001,-4.1000000000000005,-1.0,1.0,0.1,-55.0,7.699999999999999,14.0
1698920750550.0,16,-0.1,-7.4,-3.7,-0.4,0.8,0.5,-53.50000000000001,9.1,2.7
1698920750567.0,16,0.30000000000000004,-7.1000000000000005,-3.6,0.1,1.0,0.7000000000000001,-51.800000000000004,4.6000000000000005,-1.0
1698920750584.0,16,0.6000000000000001,-5.800000000000001,-2.6,0.4,2.1,1.8,-52.50000000000001,2.3000000000000003,-3.0000000000000004
1698920750601.0,16,0.7000000000000001,-4.9,-1.8,0.5,3.0,2.7,-51.400000000000006,3.1,-1.7
1698920750618.0,16,0.4,-1.9000000000000001,0.2,0.2,5.9,4.800000000000001,-35.9,7.2,2.0
1698920750636.0,16,-0.7000000000000001,2.1,0.6000000000000001,-1.0,9.9,5.2,-15.7,14.800000000000002,2.5
1698920750650.0,16,-1.0,3.7,0.30000000000000004,-1.3,11.5,5.0,-8.5,20.6,5.2
1698920750667.0,16,0.2,4.6000000000000005,0.30000000000000004,-0.1,12.5,5.0,2.3000000000000003,12.8,0.1
1698920750684.0,16,0.4,3.2,1.3,0.1,11.0,6.0,6.000000000000001,2.1999999999999997,-5.1
1698920750701.0,16,-0.6000000000000001,1.7000000000000002,2.9000000000000004,-0.9,9.600000000000001,7.6000000000000005,19.500000000000004,1.9,-0.7
1698920750717.0,16,-1.0,1.9000000000000001,3.5,-1.3,9.8,8.1,27.6,7.500000000000001,3.0000000000000004
1698920750734.0,16,-0.6000000000000001,2.9000000000000004,4.0,-1.0,10.9,8.5,31.6,14.3,-0.1
1698920750750.0,16,-0.5,3.5,2.9000000000000004,-0.9,11.600000000000001,7.4,22.6,8.0,-10.0
1698920750767.0,16,-0.7000000000000001,3.4000000000000004,2.5,-1.1,11.5,7.0,18.400000000000002,1.4,-5.8
1698920750784.0,16,-1.2000000000000002,2.3000000000000003,2.5,-1.6,10.4,6.9,22.5,-4.0,-1.8
1698920750801.0,16,-1.0,1.3,1.4000000000000001,-1.4000000000000001,9.5,5.800000000000001,32.4,-10.0,6.5
1698920750818.0,16,-1.8,0.2,2.2,-2.2,8.4,6.5,36.0,-16.2,5.7
1698920750834.0,16,-0.1,1.0,1.6,-0.5,9.4,5.800000000000001,49.7,-17.200000000000003,4.9
1698920750850.0,16,0.6000000000000001,2.8000000000000003,2.4000000000000004,0.2,11.200000000000001,6.4,73.4,-14.600000000000001,-3.0000000000000004
1698920750867.0,16,1.3,5.6000000000000005,2.1,0.9,14.100000000000001,6.1000000000000005,85.60000000000001,-16.8,-7.699999999999999
1698920750884.0,16,1.7000000000000002,10.700000000000001,2.0,1.4000000000000001,19.5,5.7,98.8,-9.4,-16.2
1698920750901.0,16,1.3,9.600000000000001,0.5,0.9,18.6,4.0,77.0,-10.3,-2.9
1698920750918.0,16,1.0,5.9,0.2,0.7000000000000001,14.9,3.5,56.2,-8.9,6.2
1698920750934.0,16,0.2,2.5,-0.8,-0.1,11.600000000000001,2.4000000000000004,23.3,-12.200000000000001,14.200000000000001
1698920750953.0,16,0.2,-0.30000000000000004,-1.6,0.0,8.700000000000001,1.6,16.6,-7.699999999999999,12.8
1698920750967.0,16,-0.1,-1.0,-2.2,-0.30000000000000004,8.1,0.9,20.900000000000002,-8.9,9.1
1698920750984.0,16,-0.4,-1.8,-2.3000000000000003,-0.6000000000000001,7.300000000000001,0.7000000000000001,26.0,-7.699999999999999,9.5
1698920751000.0,16,-1.1,-1.1,-2.4000000000000004,-1.2000000000000002,8.0,0.5,39.2,-8.5,0.4
1698920751017.0,16,-0.1,-0.30000000000000004,-2.3000000000000003,-0.2,8.8,0.4,51.800000000000004,-3.9,-2.9
1698920751033.0,16,0.30000000000000004,0.1,-2.0,0.2,9.3,0.6000000000000001,55.1,-2.5,-2.7
1698920751051.0,16,0.7000000000000001,0.4,-1.8,0.6000000000000001,9.600000000000001,0.6000000000000001,49.7,2.1999999999999997,-1.3
1698920751067.0,16,0.30000000000000004,0.8,-1.7000000000000002,0.2,10.0,0.6000000000000001,28.900000000000002,3.7000000000000006,-1.3
1698920751083.0,16,0.1,1.2000000000000002,-1.7000000000000002,0.0,10.5,0.6000000000000001,18.400000000000002,5.2,-1.2000000000000002
1698920751100.0,16,-0.1,2.2,-1.9000000000000001,-0.2,11.5,0.4,6.7,7.0,-2.4000000000000004
1698920751117.0,16,0.0,2.8000000000000003,-2.0,-0.2,12.100000000000001,0.2,6.9,7.1000000000000005,-3.7000000000000006
1698920751133.0,16,0.0,2.6,-2.0,-0.2,12.0,0.2,8.9,7.1000000000000005,-3.9
1698920751150.0,16,0.0,2.3000000000000003,-2.0,-0.2,11.600000000000001,0.1,10.2,7.500000000000001,-3.7000000000000006
1698920751167.0,16,0.1,1.9000000000000001,-1.9000000000000001,-0.1,11.200000000000001,0.2,3.6,7.500000000000001,-4.2
1698920751184.0,16,0.2,1.7000000000000002,-1.8,0.0,11.0,0.30000000000000004,-1.6,7.500000000000001,-3.8
1698920751200.0,16,0.30000000000000004,1.3,-1.7000000000000002,0.0,10.700000000000001,0.4,-11.4,7.0,-5.500000000000001
1698920751217.0,16,0.30000000000000004,0.9,-1.8,0.0,10.3,0.4,-21.3,7.699999999999999,-6.9
1698920751235.0,16,0.30000000000000004,0.9,-1.8,0.0,10.3,0.4,-25.5,7.8,-7.0
1698920751250.0,16,0.1,1.0,-1.8,-0.2,10.3,0.5,-30.599999999999998,7.2,-6.6000000000000005
1698920751267.0,16,0.1,0.9,-1.9000000000000001,-0.30000000000000004,10.200000000000001,0.5,-34.2,7.300000000000001,-6.5
1698920751284.0,16,0.1,0.9,-1.9000000000000001,-0.30000000000000004,10.200000000000001,0.6000000000000001,-38.5,6.4,-6.000000000000001
1698920751300.0,16,0.0,1.1,-2.0,-0.4,10.4,0.6000000000000001,-41.6,6.1000000000000005,-5.6
1698920751317.0,16,-0.1,1.5,-2.1,-0.5,10.8,0.6000000000000001,-52.6,10.3,-5.8
1698920751334.0,16,-0.1,1.7000000000000002,-2.4000000000000004,-0.6000000000000001,10.9,0.4,-59.00000000000001,10.1,-6.5
1698920751350.0,16,0.0,1.9000000000000001,-3.3000000000000003,-0.5,11.100000000000001,-0.30000000000000004,-85.1,5.1,-8.5
1698920751367.0,16,0.1,2.2,-3.9000000000000004,-0.4,11.200000000000001,-0.6000000000000001,-103.60000000000001,-10.0,-9.5
1698920751384.0,16,0.30000000000000004,2.3000000000000003,-3.4000000000000004,-0.2,11.3,0.0,-110.7,-19.200000000000003,-9.700000000000001
1698920751400.0,16,-0.30000000000000004,2.7,-1.8,-0.8,11.700000000000001,2.0,-88.7,-26.0,-8.799999999999999
1698920751417.0,16,-0.30000000000000004,3.7,-0.2,-0.7000000000000001,12.600000000000001,3.7,-46.1,-20.1,-2.8
1698920751434.0,16,-0.4,4.3,0.8,-0.9,13.200000000000001,4.800000000000001,-21.1,-18.2,0.7
1698920751450.0,16,-0.8,4.6000000000000005,3.4000000000000004,-1.3,13.5,7.4,0.9,-7.1000000000000005,9.600000000000001
1698920751467.0,16,-0.8,2.4000000000000004,2.0,-1.4000000000000001,12.600000000000001,6.9,-46.800000000000004,1.2000000000000002,2.7
1698920751484.0,16,-0.5,1.0,1.3,-0.9,9.9,5.5,-77.2,4.0,-3.1
1698920751501.0,16,0.30000000000000004,0.6000000000000001,1.0,-0.2,9.4,5.5,-80.30000000000001,-2.5,-13.100000000000001
1698920751524.0,16,0.5,1.5,1.1,0.0,10.200000000000001,5.7,-41.7,-9.9,-14.0
1698920751533.0,16,0.2,1.5,1.6,-0.30000000000000004,10.200000000000001,6.300000000000001,-18.5,-7.500000000000001,-9.3
1698920751550.0,16,-0.2,1.2000000000000002,2.3000000000000003,-0.7000000000000001,9.9,6.9,16.2,-7.500000000000001,-1.5000000000000002
1698920751566.0,16,-0.30000000000000004,1.0,2.7,-0.8,9.700000000000001,7.4,19.200000000000003,-1.9,-4.1000000000000005
1698920751583.0,16,0.30000000000000004,1.2000000000000002,2.7,-0.2,10.0,7.4,6.000000000000001,-3.1,-10.600000000000001
1698920751601.0,16,0.6000000000000001,1.5,2.5,0.0,10.3,7.1000000000000005,5.1,-2.8,-12.9
1698920751617.0,16,0.6000000000000001,1.4000000000000001,2.1,0.0,10.200000000000001,6.800000000000001,12.3,-3.9,-14.0
1698920751633.0,16,0.5,0.9,2.2,-0.1,9.700000000000001,6.800000000000001,26.8,-3.0000000000000004,-7.9
1698920751650.0,16,0.1,-0.1,2.2,-0.5,8.700000000000001,6.7,33.300000000000004,-2.5,-5.0
1698920751667.0,16,-0.1,0.4,2.0,-0.7000000000000001,9.3,6.4,42.2,0.2,-3.6
1698920751684.0,16,-0.2,0.9,1.7000000000000002,-0.8,9.9,6.1000000000000005,45.5,0.0,-3.2
1698920751701.0,16,-0.30000000000000004,0.8,1.2000000000000002,-0.9,9.8,5.4,49.4,2.7,-2.1
1698920751717.0,16,-0.4,-0.30000000000000004,0.2,-1.0,8.8,4.3,51.6,4.2,0.30000000000000004
1698920751733.0,16,0.0,-0.5,0.2,-0.6000000000000001,8.700000000000001,4.1000000000000005,53.6,3.2,2.7
1698920751750.0,16,0.1,-0.7000000000000001,0.0,-0.5,8.5,3.8000000000000003,55.5,3.5,2.9
1698920751769.0,16,0.30000000000000004,-1.1,0.0,-0.30000000000000004,8.1,3.6,53.2,5.1,4.800000000000001
