ts,interval,accx,accy,accz,accGx,accGy,accGz,alpha,beta,gamma
1698920734001.0,0.01666666753590107,0.021203677678853273,0.1314174719363451,-0.11359949117302894,0.6464342290464788,-2.6056395942687987,-9.509768409618735,4.630686830368817,-13.993358599800086,-9.336065194406308
1698920734188.0,0.01666666753590107,-0.9437817564390599,-0.1742284396588802,0.27456571367681026,-0.9011176818073494,-3.3236002325862644,-9.012523236846924,-30.32460557513091,2.701725295541326,8.069205122246927
1698920734202.0,0.01666666753590107,-0.8161621424157172,-0.22666326803416012,0.716324561548233,-0.7502829498180421,-3.299957198931277,-8.596081785583495,-32.65169200648928,21.189743239521192,12.05710498425996
1698920734221.0,0.01666666753590107,-0.6977903222743421,-0.426017673382163,0.7287111649125814,-0.5656301787445321,-3.380013609203696,-8.621520178222656,-42.38435298882602,29.29477697283307,21.159227661856868
1698920734237.0,0.01666666753590107,-0.5982327273920178,-0.3656637424454093,0.7936872026920319,-0.3802291694198735,-3.1651340102046728,-8.602366564941406,-50.50707008189906,33.36941852975797,21.473363429711387
1698920734253.0,0.01666666753590107,0.041944066961202765,-0.5747209189012646,0.48970191778540606,0.30630817489624024,-3.2573104818597436,-8.939200811004637,-43.52071546670314,9.959283243903183,7.508632714043764
1698920734270.0,0.01666666753590107,0.25405208235504106,-0.7358019999563693,-0.06399345648288726,0.5104138664245605,-3.3298850119441745,-9.517849424743652,-27.78759669472679,-13.490833408031921,-8.246351201013086
1698920734286.0,0.01666666753590107,0.07666143407188356,-0.7655214309155941,-0.011430325552821159,0.3173813575744629,-3.30414705183655,-9.48073929901123,-5.167718991597532,4.5271829974600895,-20.74681571712962
1698920734303.0,0.01666666753590107,0.8070511266559361,0.10698767181783914,1.047993387672305,1.1029787407806142,-2.436997430309653,-8.418312896838783,10.023061842825468,26.370216328733253,-20.09575354770754
1698920734320.0,0.01666666753590107,0.6957426690295339,0.6569190173774957,0.7144581831544637,1.0758943345000966,-1.9250871878474949,-8.738536784362793,21.56546170047984,31.13949836953221,-9.603346718328186
1698920734336.0,0.01666666753590107,0.2874933285826817,0.5346420064911246,0.142165660443902,0.7486369316101074,-2.1124334677547214,-9.28920316619873,31.02268164415748,34.029003067716936,2.479640627461303
1698920734353.0,0.01666666753590107,-0.19811032357104122,0.5503028092205524,0.8270598954617977,0.36750995483398435,-2.219424062182009,-8.563311150360107,42.09514570389476,37.17205463317629,25.218118802555722
1698920734370.0,0.01666666753590107,-0.68209547114484,0.4511252266317606,0.7324503514409065,-0.030974983978271482,-2.431310909105837,-8.6183777885437,45.069761389327006,53.39262351564893,30.607269538837304
1698920734387.0,0.01666666753590107,-0.3788496794939041,-0.14834376455694437,0.455520246720314,0.4655225852966308,-3.1715681349053977,-8.835202676391601,35.24853675911729,75.00654199319543,10.259735581529227
1698920734403.0,0.01666666753590107,0.5382294365238398,-0.07320435242056846,0.3408329603105783,1.553238327026367,-3.1613930701106785,-8.911368216705322,17.286057902427125,62.27511719161585,-5.363417571696737
1698920734420.0,0.01666666753590107,0.6674913378614932,-0.09145721746981143,0.13714169480204583,1.7968484190125018,-3.1991014539971947,-9.095273416247963,2.328940187387788,26.87983381818083,-9.7578165690499
1698920734437.0,0.01666666753590107,0.5912393613733351,-0.2488485040962696,0.2515098322600126,1.7591395236693321,-3.352779565319419,-8.977358399963379,1.1700556943310836,-7.087532341805437,-11.491602033249693
1698920734454.0,0.01666666753590107,0.5465969404399394,-0.5309364299714565,0.3025958763748407,1.690755357946828,-3.643076516613364,-8.926481614685057,10.369763952642609,-23.36791276395306,-22.8470852265302
1698920734471.0,0.01666666753590107,0.5031351075932383,-0.495410943081975,0.6504740790218114,1.5997756217956542,-3.6339486227840183,-8.575432380786538,18.311060976076355,-38.71056498900541,-42.56659951135489
1698920734487.0,0.01666666753590107,0.7257037267249077,0.1302969434738159,1.2278384981691837,1.7233762825012207,-3.0400369734615085,-7.998429196166992,9.620276195959708,-62.209827413339696,-69.53780077006297
1698920734504.0,0.01666666753590107,0.0912639599200338,-0.6854387171581388,0.95650577506423,0.9698012369018048,-3.8313206221431493,-8.290222523498535,-16.935600896113773,-88.63838380286862,-72.247254851537
1698920734521.0,0.01666666753590107,-0.15903087052702902,-0.868164059266448,0.4589344390779733,0.5693710823059082,-3.9000042822688816,-8.838794563403725,-66.7160242276881,-76.46659738112321,-66.09709297566906
1698920734536.0,0.01666666753590107,-0.2937520967165008,-0.053469432120025154,-0.26032851400971413,0.2720411271026358,-2.8077994124263523,-9.655216744995117,-95.36043058775256,-52.687768483871125,-30.89557182370354
1698920734553.0,0.01666666753590107,-2.1910805957511066,0.3065691639199853,-0.6531389143168926,-1.7283144330231472,-2.204161318859458,-10.121637155914305,-97.72246709709387,-24.455009087346877,11.621029849153203
1698920734570.0,0.01666666753590107,0.3546579989802092,-0.6231579098120331,-1.17476741771698,0.7842506447723135,-2.9312502893976866,-10.696245554351806,-62.40229531396149,-0.15546595110284026,17.25777238152681
1698920734587.0,0.01666666753590107,0.3577813916977495,-0.176132081323117,-0.3987713545382023,0.79921440514829,-2.3750473162226378,-9.945513696289062,-5.606524067938178,17.88592951156725,15.07309539436321
1698920734604.0,0.01666666753590107,0.6298128376565874,0.13092018993869423,0.8301186985105276,1.119588441732712,-2.1083931063227355,-8.704868323516845,35.91616384482395,23.94177672028107,14.339591134111787
1698920734620.0,0.01666666753590107,0.17713840882144868,-0.1472806653700769,1.3160223930567503,0.6881833031585439,-2.5267799925655123,-8.183830187225341,74.76369461725562,-0.48007147848027637,37.548268282849754
1698920734637.0,0.01666666753590107,-1.943740742652118,-0.19829612846672534,2.5331618025571108,-1.5849616086212917,-2.9278087706416844,-6.8791399200439445,132.10234722775812,-56.82877898896104,93.56310728879872
1698920734654.0,0.01666666753590107,-0.9220093389615416,0.4125082034677267,3.385744846332073,-0.879719522736012,-2.6683371657222508,-5.92430295497477,124.0692524618794,-185.1873151175276,63.73036412636794
1698920734670.0,0.01666666753590107,5.06140251532495,1.9605133060157298,-3.4526439611285924,4.424035974353179,-1.2427397147029637,-12.69944415588379,2.402282758695385,-292.1794280882176,-16.025152047676706
1698920734687.0,0.01666666753590107,-0.1372670747473836,-2.5835221627458926,4.106634523838758,-1.315015188775584,-5.751470061327517,-5.099200623321533,-40.096225956493406,-68.1306588576353,-2.7153952788348716
1698920734703.0,0.01666666753590107,1.2636920479692517,-0.3014624884307384,-1.6854472416013477,0.012868833923339843,-3.331381095720827,-10.928034202575683,-61.106007371763106,4.159286810648401,-5.387605832868691
1698920734720.0,0.01666666753590107,-0.35520291951186955,-0.8863111258536577,-1.3149416120827198,-1.4763245256286113,-3.806629833000898,-10.609306106567383,-28.790900257382887,45.425617660179256,-9.13830816604599
1698920734737.0,0.01666666753590107,0.3787772718448192,-0.5875412375077604,-3.2258360239267345,-0.6911760917663574,-3.516632741436362,-12.523470333862305,28.149371324494854,-18.51066642438081,-18.2376398575933
1698920734753.0,0.01666666753590107,0.9688711164448409,-1.1476871030896902,-0.7894692927360534,-0.20769706708379088,-4.172793633922934,-10.043376689147948,44.61037994122488,-75.54868825856519,-13.722206066166104
1698920734770.0,0.01666666753590107,0.48518385583907364,-0.9673445644646882,0.3063128510713577,-0.8720881008423864,-4.096179180797934,-8.888174388122557,33.5678901666602,-73.93244693488673,-5.339840612455499
1698920734786.0,0.01666666753590107,0.08048837194889784,-0.42993689265251156,0.6594570114225149,-1.4814122772216796,-3.6050685652583834,-8.486547059631347,-2.527792607336247,-54.507791916531495,3.9598666312251845
1698920734804.0,0.01666666753590107,1.9670869853176176,-1.5729901984617114,0.8897574669152498,0.26216508178710934,-4.720916176494955,-8.240093926239012,-18.465078326765557,-72.5393000800684,-9.124941485840274
1698920734821.0,0.01666666753590107,2.615515968377888,-1.4256930203482507,0.52992286901474,0.6970119583129882,-4.54269749815613,-8.568099553680419,-7.963969836383603,-117.05195708974333,-8.572140125365292
1698920734837.0,0.01666666753590107,2.3914856791958212,-1.4591028302580118,-1.6079045677155255,0.0026933307372033594,-4.61003471210897,-10.582072062683105,29.51833247946217,-177.44608799526185,-4.0224473857217795
1698920734854.0,0.01666666753590107,1.6590838430717587,-1.744125640541315,-4.769275425994396,-1.080233861541748,-4.938040047289431,-13.627346936798094,-1.3896532130578694,-105.45860572842794,3.7995744711228556
1698920734872.0,0.01666666753590107,1.1507064509108662,-2.501009883753955,-6.172996560770273,-1.7126023750305175,-5.6625853246942155,-15.00341492549479,-28.25918710597032,-2.9114069804188394,2.43186153322636
1698920734887.0,0.01666666753590107,1.8726944450482725,-1.7891215510874985,-7.078409277456998,-0.9494505958557128,-4.8112972891658545,-15.970671811676024,-43.175807989090416,10.58465280298861,33.313441714415134
1698920734903.0,0.01666666753590107,1.7229273696899412,-2.844902523896098,-8.19768920122981,-1.1671733093261718,-5.747579483629763,-17.107917600250243,-19.703628972362527,-25.848939706372466,77.68278086473568
1698920734920.0,0.01666666753590107,2.1927836002767083,-2.2973232944205404,-7.548115285918116,-0.8264484855651855,-5.134813496233523,-16.436493672180173,21.569991823446852,-26.667681312371066,83.74663647025133
1698920734937.0,0.01666666753590107,4.121771594955026,0.48564387456625696,-5.907901855272054,0.9906009368896483,-2.4563003889337183,-14.723292746734618,98.97545847014354,1.6182278415098732,61.06868721813816
1698920734954.0,0.01666666753590107,3.321441300986707,1.075726028728485,-6.212644096025824,0.15936434026509522,-2.108392960192263,-14.9323370637089,145.19338831932802,3.576677437418425,40.94371924380317
1698920734971.0,0.01666666753590107,2.5822449824169276,0.6069052786692977,-6.915669031018019,-0.6022913551330566,-2.903717116436362,-15.500810320392251,164.7360211952169,5.654381495905165,27.732743445502418
1698920734987.0,0.01666666753590107,1.1878881805747747,0.38502778360694645,-6.416686659190058,-1.9877859283447263,-3.5892066869989034,-14.800655972400307,165.38200682653837,18.593347571831103,25.054050828502845
1698920735004.0,0.01666666753590107,0.8604585994556546,1.0705869122743605,-5.815066919708252,-2.3039701850891112,-3.232470931896567,-14.03944948207438,164.28028365303697,33.4902445761755,38.61072469881275
1698920735021.0,0.01666666753590107,1.095911323145032,0.9370838662356138,-5.523389912232756,-2.007837367248535,-3.6824312064021822,-13.597868328857421,159.45164043816143,60.121073602879754,31.066288986913428
1698920735037.0,0.01666666753590107,0.5934484157249331,1.6196446898698806,-5.804119993758201,-2.374299858856201,-3.4060505522578954,-13.684807776641845,160.07505912446518,69.5337163169393,36.206843035521345
1698920735054.0,0.01666666753590107,-0.12466069115251302,2.7678075937777757,-5.575912711152434,-3.017292349950969,-2.5644880841910838,-13.281085521697998,175.8796524110111,62.00302294565005,52.864806987157856
1698920735070.0,0.01666666753590107,-0.24345249027162788,3.448366429939866,-5.733620224121212,-3.11545491027832,-2.211343339318037,-13.20955933162272,196.77057828943884,37.005602923103076,54.29750063727056
1698920735089.0,0.01666666753590107,-0.6883242094665766,3.811142926511168,-5.6895455200731755,-3.6017771224975585,-2.33703951099813,-12.752266814532875,224.00815692577743,10.06319688816211,40.82452902769187
1698920735104.0,0.01666666753590107,-2.093864376363158,4.458367648348212,-4.805344518241286,-5.052064193615317,-2.0730781934440135,-11.495609633636475,231.37306794553214,8.999232707939836,30.771231644958046
1698920735121.0,0.01666666753590107,-2.334450371287763,4.915127081474662,-4.163777968296408,-5.316474423980712,-1.9837457130432128,-10.463260389819741,224.65248965131974,19.51070686416093,23.921120520683658
1698920735137.0,0.01666666753590107,-1.8507675676614046,5.655010797786712,-2.491992756822705,-4.826710254614055,-1.670403986248374,-8.29306622249186,204.43482917975854,43.00010137269184,26.68375616258269
1698920735154.0,0.01666666753590107,-1.4049094677776097,5.7600347683161495,-1.116144548356533,-4.377348530523479,-1.8373989675223825,-6.558017622375488,199.28371907378835,36.29719960805145,31.899353499601542
1698920735170.0,0.01666666753590107,-1.6183035043939946,5.821752096560597,-1.2298609439074992,-4.618115434972942,-2.025344382366538,-6.288969795337319,202.70102664008581,18.469454770476244,32.590561813417665
1698920735187.0,0.01666666753590107,-1.5496452709704636,6.273212838757038,-1.3627531645715236,-4.573972634124756,-1.8689730864375829,-5.915623973956704,214.97659778626956,-7.716968851654785,39.47742447806859
1698920735206.0,0.01666666753590107,-1.8621017393633723,6.779979873111843,-0.8549255152478814,-4.9426791052669286,-1.5667051268428562,-4.979640470178425,232.83371755991772,-23.897877386938106,44.07645380852122
1698920735221.0,0.01666666753590107,-1.531563378573954,7.056366956996917,-0.6072118604004383,-4.717325458526611,-1.4956272650569677,-4.196736527307332,255.9010149154783,-43.4213703652253,41.41870084396962
1698920735237.0,0.01666666753590107,-1.6305343326747417,7.025624028208852,-0.0208332369312644,-4.940285195867717,-1.7669202406734228,-2.832789476776123,264.3967866957337,-35.7775997971319,32.85642692686041
1698920735254.0,0.01666666753590107,-2.2320105720326304,7.07275636626184,1.3587657023705542,-5.588664640697837,-1.8595453328788278,-0.9033625061586499,248.94178981166567,-5.689159965385223,22.245328485179154
1698920735271.0,0.01666666753590107,-2.1177266057267783,6.808906107866764,2.6616777078330514,-5.496039256231486,-2.2535417281001804,1.0401302530817687,211.2816430302111,43.853072471715954,15.672343748741573
1698920735287.0,0.01666666753590107,-2.07700150436759,6.8844678370684385,3.1900422414898872,-5.469852675573527,-2.2315444158256055,1.9421458746761082,175.9782393614911,80.48591099067642,23.47498963957135
1698920735304.0,0.01666666753590107,-0.9462924240857362,6.960208429968357,3.9927831037312744,-4.373906865637004,-2.1737848852962256,2.9967914867792276,150.03462640303306,91.01141008658449,37.0177128485015
1698920735321.0,0.01666666753590107,-0.6516334781900048,6.029465457192063,3.4339573808372017,-4.199728694860637,-3.086274993023276,2.7377685754753647,135.7921110400474,57.482639828395534,48.32353715142144
1698920735337.0,0.01666666753590107,-0.5697849238038063,5.738816623720527,3.0724060421466826,-4.227860856628418,-3.350236895099282,2.6505300351465118,148.16218468358744,15.24078678377078,41.72446109235441
1698920735354.0,0.01666666753590107,-0.7866893066287041,4.967597857946157,3.0131939747214314,-4.5591579268306495,-4.084058534893393,2.9333453619807957,161.7231701108109,-36.98704529912815,26.206985052853703
1698920735370.0,0.01666666753590107,-0.9796323836296796,3.5562446208566425,3.379785061144829,-4.806658231188357,-5.4598260793387885,3.8642398720569906,147.37749157060136,-43.82367533752822,6.9185795018355325
1698920735387.0,0.01666666753590107,-0.8377671674370765,3.079849928411841,3.7987890563726423,-4.668244032232463,-5.910685348510742,4.616170365319773,108.65496350526466,-5.367939156927285,-2.9685131248522585
1698920735404.0,0.01666666753590107,-0.7373185419991612,2.3013474353700873,4.515119463139772,-4.554219593645632,-6.675631609886884,5.522823218260705,59.739621198112886,32.96772144429118,-18.687995210707264
1698920735421.0,0.01666666753590107,-0.08550970724225043,1.4810025273770093,4.218603198939562,-3.838353881780803,-7.518391763305663,5.26619582379125,1.0984675211448278,51.35915667142566,-32.73242484247883
1698920735437.0,0.01666666753590107,0.3313862097904086,1.6403297505021095,4.040959982401132,-3.3496380524232983,-7.396138425555825,5.0221363806024195,-14.841780792836975,43.07505245354898,-42.3252513619379
1698920735454.0,0.01666666753590107,-0.18529577711820602,3.2687463603705167,3.603894260782003,-3.783138190515339,-5.801002153998613,4.586540658470615,40.35099542762947,8.933612519262585,-33.886457019738764
1698920735470.0,0.01666666753590107,-1.0423606424823402,2.8485382500499483,5.805686512422561,-4.571577847942709,-6.209062145885825,7.099853778154403,118.73148694627112,-34.38838030108632,-13.784311268741737
1698920735487.0,0.01666666753590107,-1.3071490585103631,1.4587205529421567,6.511610091465712,-4.780771802520752,-7.573907314300537,8.097787834411115,81.76073847850262,-46.57894632795469,-22.95243406428848
1698920735504.0,0.01666666753590107,-0.9928189052000641,1.343947341814637,6.07503303014636,-4.366275055584311,-7.6942147786796085,7.836221595299989,-8.020262547975555,-36.44184935429398,-23.515403868890317
1698920735520.0,0.01666666753590107,-0.3481394839316606,2.1533909165650607,6.212524269038439,-3.670460782623291,-6.9074225961983196,7.954435448400676,-36.63003131121158,-16.837830153239622,-13.68830100712616
1698920735537.0,0.01666666753590107,-0.022283435739576814,1.542113706421852,5.8706865155994885,-3.314173355810344,-7.545475585064292,7.528865518786013,-50.90961411082293,-12.547054090218838,-9.863989298376811
1698920735554.0,0.01666666753590107,0.44340836864411826,0.20003917274177074,3.574423836147785,-2.8217157095760106,-8.923937190899252,5.078549757219851,-66.49922036305355,-10.282483526559954,-3.640293605904512
1698920735570.0,0.01666666753590107,0.5821510689020156,-0.4696370348781347,1.8440178011402486,-2.679709331347048,-9.618255087822675,3.1980536985099315,-80.07064231932881,-1.6530210385853297,-1.771951067177942
1698920735587.0,0.01666666753590107,0.7308198276296257,-0.2652735691964626,1.4471218850851058,-2.526630354961753,-9.441832937511801,2.6090806015681474,-86.00429402869652,3.6331018435953117,-3.656007736750596
1698920735604.0,0.01666666753590107,0.6006953181132674,-0.4641577266842127,0.23274843316674232,-2.64289935760498,-9.673622170257568,1.1466727384153752,-78.34792517667903,-7.988640479665689,-8.049725422734051
1698920735621.0,0.01666666753590107,0.023457155694067477,-0.5104425079971552,-1.1075474734682589,-3.1916198660701514,-9.74200597065389,-0.3253125889651477,-55.98983026830296,-22.590538198662646,-15.099026207547166
1698920735636.0,0.01666666753590107,-0.2868102782219648,-0.4335860628098249,-1.4182207847714423,-3.4555808913633226,-9.686939916992188,-0.7077858657836914,-30.01571368501167,-28.527753559229808,-19.040926453047454
1698920735654.0,0.01666666753590107,-0.6579129968509078,-0.3268032659143209,-1.3156056289494036,-3.7609909483760595,-9.603590602654219,-0.6209964939944446,-10.24366585395948,-18.92025750098084,-18.56163841860932
1698920735670.0,0.01666666753590107,-0.5668327959999442,-0.3763865042507648,-1.056155139883235,-3.625868484441936,-9.667486443981527,-0.3574859158825129,-7.40760397093552,0.03408773991981469,-18.08275165778492
1698920735687.0,0.01666666753590107,-0.6975380280137061,-0.36830315103828903,-0.7884710024137049,-3.713406482641399,-9.675117377251386,-0.11163023692667484,-10.474168516748131,23.417125984470296,-19.580516520120337
1698920735704.0,0.01666666753590107,-0.5438023412853479,-1.0813280865192412,-0.39670338915772735,-3.517381221716106,-10.40639634682536,0.21263379283361136,-13.520467891293315,45.87720927753299,-13.104955040682881
1698920735721.0,0.01666666753590107,0.1767828003168106,-0.3642775487840175,0.07976615862157195,-2.7756276198789473,-9.699209615978598,0.6389515451408923,-9.66187119423144,45.590710162607635,-12.724049904823257
1698920735737.0,0.01666666753590107,0.32010259923189877,0.1985240920037031,0.19582535443902013,-2.608632054083049,-9.146149617004394,0.7154165067926049,-1.8181329643641602,36.1726886745767,-12.549514665867335
1698920735754.0,0.01666666753590107,0.7352110483258962,0.6300035379230976,0.3882779810419306,-2.172139163915813,-8.72162715061605,0.9027628962976858,9.753460615906725,39.394212283410326,0.5173931795699599
1698920735771.0,0.01666666753590107,0.9197478237703443,1.3539134400337933,0.14549213798549027,-2.0108298270627856,-7.988851805004477,0.6884818477137014,29.451813267135417,34.49259874253696,10.161857263175651
1698920735787.0,0.01666666753590107,1.4885218169659375,1.140412143650651,0.32120398460254074,-1.4781196654170752,-8.18517458757162,0.9558842090997844,56.0155356852443,10.689988834142195,16.119309620479914
1698920735804.0,0.01666666753590107,0.8690861425474286,0.7607306895077228,0.22015688181482254,-2.164807505853474,-8.526801913130283,1.0613799618594348,59.341940263878065,-6.8555530774955935,23.866183601641954
1698920735821.0,0.01666666753590107,0.5655041777446865,0.5355529838562011,0.3736719115298241,-2.532765496715903,-8.716389834484458,1.3599060315120965,51.25737660750872,2.3400189676649603,29.51099002610441
1698920735837.0,0.01666666753590107,0.28662147765159607,0.39504736557900905,0.3973122417710721,-2.898031179754436,-8.815748618859052,1.4879953819390386,39.54994059648662,21.753208232837856,39.062360712396085
1698920735854.0,0.01666666753590107,-0.28535248062908647,-0.5291349335074425,0.15824293501973152,-3.6131492881223557,-9.682600426483154,1.3028939583491532,17.035243110820502,51.500364002326506,37.08495606088028
1698920735871.0,0.01666666753590107,-0.34359891789257524,-0.44338791037797926,0.19077727726921437,-3.7651810935422776,-9.561841711205243,1.3383582165706902,18.954300871351474,45.342518163642296,28.193671931451558
1698920735887.0,0.01666666753590107,-0.11461772830486297,-0.36019466338455675,0.4529401670992374,-3.610156828308105,-9.447519750976562,1.624316334942728,25.17870519595016,26.785891396336474,24.601634465806832
1698920735904.0,0.01666666753590107,-0.45565293318927286,-0.48632513482868667,0.6166344993926585,-4.031386682891846,-9.532814354163408,1.8598453387387095,27.243881193395218,6.780138824435367,21.97246413538444
1698920735920.0,0.01666666753590107,-0.8289853105664253,-0.29319501082301136,0.9536544772863388,-4.455010446874797,-9.309702933391929,2.267009989221394,29.475401325434056,2.526675231076715,17.664540882452336
1698920735937.0,0.01666666753590107,-0.7373024676471949,-0.18726386232078074,0.9334978244423866,-4.396203160858154,-9.178770614624023,2.3247689352288843,33.099564585839936,-4.287282421260324,9.360373837662383
1698920735954.0,0.01666666753590107,-0.5764040496826172,-0.18861352336406706,0.7798822569623589,-4.24222694337219,-9.156626002833246,2.298733453479409,33.29240814686608,-17.22974811536225,0.13946479222905733
1698920735970.0,0.01666666753590107,-0.3369514427021146,-0.034139000967144964,0.5727474268712103,-3.9975688767030833,-8.986337825232743,2.1939865463256836,32.83996275586609,-17.68868560116833,0.9118340961781104
1698920735987.0,0.01666666753590107,-0.11049071150273083,-0.0107096100628376,0.5730991629183292,-3.7677252250671383,-8.946084140777588,2.2918489546626803,33.04177435527246,-17.04229528113854,0.9679828401889639
1698920736004.0,0.01666666753590107,0.06658522654175758,-0.28789398180544373,0.3382847371324897,-3.5760391623899337,-9.204207838219403,2.18246255114004,24.560168387355684,-22.921010071464544,-2.719030006690376
1698920736020.0,0.01666666753590107,0.1713522997006774,-0.12364508436918258,0.8224664301916956,-3.454533428137004,-9.031526628002524,2.738964945653081,13.564333927464075,-17.704746791001615,-3.2273459182142417
1698920736037.0,0.01666666753590107,0.27718700209110975,-0.10673661966621875,0.9844327696487307,-3.3424548629209396,-9.010876054161786,2.9299031125724313,-1.9114314274358302,-4.831139222130351,3.689562748595576
1698920736054.0,0.01666666753590107,0.25831980453580616,-0.12115151398777961,1.2091907885834574,-3.3910867918819187,-9.019854310387373,3.123684832354635,-21.110933101783,2.840355937577782,12.333069386164217
1698920736071.0,0.01666666753590107,0.2786667192548513,0.24523966594934463,0.804915137540549,-3.3996175966009496,-8.652198225080966,2.6693853596009314,-28.05256534584097,-5.295210875758166,11.673362758573841
1698920736087.0,0.01666666753590107,0.02505553080141544,0.39685353821814057,0.6070259824395179,-3.6767452697202563,-8.501361182403564,2.4205375861570237,-22.044532876411825,-5.192599236309772,11.453098549351038
1698920736104.0,0.01666666753590107,-0.20907792698293923,0.4290548491209745,0.26349764556512234,-3.948187590679526,-8.45946206882894,2.047790022930503,-6.128153298814868,-4.6876915891817434,12.646300153953709
1698920736120.0,0.01666666753590107,-0.2151110696673393,0.37100422669053074,-0.13101707444190977,-3.9791631591796874,-8.505700672912598,1.6596292019948362,1.6770989495135056,-2.845635033475967,9.953367446308306
1698920736137.0,0.01666666753590107,-0.22155250089168546,0.24330314492881297,-0.19938640792146323,-4.006845531353354,-8.621818868908285,1.6038146680533885,5.775092282880446,2.7076184681345774,7.97445929940145
1698920736154.0,0.01666666753590107,-0.18333587522208689,-0.023237083202600477,-0.20995573273077606,-3.9945752478450536,-8.873508733910322,1.6114464781060813,6.595512834754398,9.323793905788733,6.384923588490919
1698920736170.0,0.01666666753590107,-0.061978025007247924,-0.08148059785664082,0.06859729701653122,-3.8944688599735495,-8.920796554785966,1.8986008935905991,4.478417581220314,10.080862318676703,6.8963843752407525
1698920736187.0,0.01666666753590107,0.0491451391801238,0.008192074283957481,0.20414324705973266,-3.803488904626667,-8.821736461097002,2.037166191454977,2.5086988135114763,4.206711802263561,6.881126159521767
1698920736204.0,0.01666666753590107,-0.015263912366330623,-0.055691492083668706,0.24353388494476674,-3.888033566229045,-8.873658956035971,2.091634133093059,-1.0474954201946094,-14.357761144851313,6.840805418417067
1698920736220.0,0.01666666753590107,-0.058471478191018104,-0.02940612722635269,0.5292421932742,-3.9396582472652195,-8.841037373894453,2.389861585125327,-2.3175303563792817,-8.278294288213942,6.046524427383576
1698920736237.0,0.01666666753590107,-0.3025613895833492,-0.15427286234498022,0.537577621551603,-4.22022875431478,-8.962094779857992,2.3388350161127747,0.2793790696024397,-4.067930469178541,7.139268463447345
1698920736254.0,0.01666666753590107,-0.16113251898139713,0.054467503246664994,0.23437355015054342,-4.080767384393513,-8.750508961707354,2.0452470604494213,4.077398818915471,-6.4040664743003495,5.512422417308796
1698920736270.0,0.01666666753590107,-0.4509302885815501,-0.03987842140197754,0.2207574049912393,-4.341884126171469,-8.839391944774984,2.117970351354778,7.822104246001499,-5.21289855852305,4.377978368814808
1698920736287.0,0.01666666753590107,-0.3882841550543904,-0.03712356973588466,0.11596680482625961,-4.279186262457072,-8.825925144958495,2.062303847581893,11.749332391390954,-4.304306240879757,3.3149068089396896
1698920736304.0,0.01666666753590107,-0.4278782065570354,-0.10851356621086597,-0.13402312439009548,-4.333504128099977,-8.866326128929853,1.919549719725549,15.290534466590568,-0.43990841869586755,0.6935631282541881
1698920736320.0,0.01666666753590107,-0.3736258073657751,0.08391454700529574,-0.18481778434291482,-4.3118072600767015,-8.647257261547447,1.9193997898608446,15.892571245697587,2.231783521208707,-2.6965736253598434
1698920736337.0,0.01666666753590107,-0.3445753617092967,0.05287000492215156,-0.10086641245856881,-4.284273940984905,-8.670900002941488,2.031030319048464,17.030880327488156,3.090783115949007,-6.937148224867858
1698920736354.0,0.01666666753590107,-0.1792448065161705,-0.05915478428006172,0.019997516759485006,-4.123712792150676,-8.771008144378662,2.191441830278933,15.66320154053751,-6.524148456985166,-12.140679178944236
1698920736370.0,0.01666666753590107,0.11949848608374596,-0.13406827870607374,0.39063042591959235,-3.82069722905904,-8.843882826453447,2.5779570759646595,9.83934682962505,-11.867317932887401,-12.231488251506848
1698920736387.0,0.01666666753590107,0.09098609282672404,-0.09560556932091713,0.6564648438692092,-3.8329672203063962,-8.810811746978759,2.8514938849851488,1.0570257752425987,-11.162979434165576,-9.702167602787222
1698920736404.0,0.01666666753590107,0.18731676155179738,-0.007102525481581688,0.8267164888516068,-3.715651631219685,-8.734647375708818,3.01011032949239,-8.890898223740619,-7.8188009957641516,-7.497062373589762
1698920736420.0,0.01666666753590107,-0.0009592004209756851,0.11559621794819831,0.7817743543192743,-3.8841426962703465,-8.62525994927287,2.9471114370048044,-11.99153004558596,-2.3445426873296245,-6.908928017651481
1698920736438.0,0.01666666753590107,-0.024519816489517687,0.1988771432250738,0.7193390870638191,-3.89162428419739,-8.55582810112834,2.8573287286184725,-12.11757094143479,1.2047358731201174,-6.8094932699407895
1698920736454.0,0.01666666753590107,0.07932575791031121,0.12902268575429915,0.2924943152077496,-3.769819274736941,-8.640822260063887,2.4006346158131957,-6.910557444655352,-1.4468865697645796,-4.194463992421259
1698920736470.0,0.01666666753590107,0.09482494033724069,0.060409168255329125,0.026130758817493913,-3.745429514367878,-8.71444629920125,2.1296414999261497,-0.2627084721487162,-3.7558078995818835,-2.4713201763917585
1698920736487.0,0.01666666753590107,0.07727525512129067,0.1383931561678648,-0.018584288960695267,-3.7502176254272457,-8.634089736938476,2.1178212982729074,4.146907092777752,-5.324587519378391,-2.3190210451656372
1698920736504.0,0.01666666753590107,0.003183598472177982,0.04234510377645492,-0.06799655464440583,-3.8102217200130224,-8.72087837807536,2.130689255413413,5.764433772680642,-1.8993099760931733,-2.596143591021034
1698920736520.0,0.01666666753590107,0.01931084966957569,-0.07768120557367801,0.12621230450868606,-3.7876267341062424,-8.833557247272132,2.3650211583793164,4.21980185980789,0.9448977612896727,-3.271344929630406
1698920736537.0,0.01666666753590107,0.08259294301271439,-0.0037701661884784695,0.16340616300180552,-3.713406190380454,-8.761728859379888,2.412605916374922,2.7062056861934423,2.517815621949562,-3.625090885472533
1698920736554.0,0.01666666753590107,0.1439092892408371,-0.04352583799362182,0.1957243782825768,-3.646368251635134,-8.80407688576579,2.4444779953233895,1.7873229415135847,2.9580089342390132,-2.767650921740523
1698920736571.0,0.01666666753590107,0.18877748175412415,-0.06719488287270069,0.1630757620036602,-3.6017771224975585,-8.830264635467529,2.401532733696699,0.28523003376105477,3.2375988859320772,-1.439316479008384
1698920736587.0,0.01666666753590107,0.16510083809047937,-0.004483867415785789,0.2468598144970834,-3.6300580450862645,-8.769062271007895,2.471563278386742,-2.3360963046472576,8.330603291972485,0.23001771935758067
1698920736604.0,0.01666666753590107,0.12769523654282092,-0.009269932648539543,0.22911343766525386,-3.67135802372396,-8.774299002617598,2.4453769899897275,-3.4169957254731664,10.152572474772667,0.9553029141599525
1698920736620.0,0.01666666753590107,-0.007491232538223266,0.029655718073248863,0.024034663321077822,-3.805583831079304,-8.735545201331377,2.2412711523309348,-3.3363683305289276,11.524612337508366,-0.2551005218673947
1698920736637.0,0.01666666753590107,-0.08799860144853591,0.006779284876585006,-0.04708557630181312,-3.878606689453125,-8.762180110278726,2.1680983640924096,0.5593781923154696,6.859399327771957,-2.5138240167099246
1698920736654.0,0.01666666753590107,-0.08578121766000986,-0.2778665087878704,-0.1383588155068457,-3.8501752524778246,-9.049931468743086,2.1089913644768297,9.454995863329154,-2.6231017073448393,-1.5061426229609656
1698920736671.0,0.01666666753590107,-0.046992929582297796,-0.07199497663080692,0.047779696045815945,-3.791816294750571,-8.840738098686932,2.3403312460198995,12.613026033638345,-4.6519931785978486,-0.9027443950532928
1698920736687.0,0.01666666753590107,-0.011005670399963856,-0.05931552779972553,0.1973473033092916,-3.7463264632076023,-8.819640365600586,2.5371046949639915,10.711756647027025,-2.760213486064614,-0.9193949021459029
1698920736704.0,0.01666666753590107,0.002471066288650036,-0.05956979482173919,0.24657734429389236,-3.7304657539919015,-8.815452266260982,2.6066869113646445,7.893299576588773,-2.6656245441266346,-3.0031466662558657
1698920736721.0,0.01666666753590107,0.10702537347972392,-0.08563947110176086,0.3030103023946285,-3.625718846838176,-8.841487455749512,2.663548324010521,3.2211654507890266,-4.925466269002342,-4.485950426101192
1698920736737.0,0.01666666753590107,0.062462885914742944,-0.19167407997846603,0.28559929499700665,-3.6566935385555026,-8.955659193852544,2.6373608665697277,-2.2203303611876533,-2.3565294558795853,-3.9244661876438314
1698920736754.0,0.01666666753590107,0.053040393052995204,-0.1615671110063791,0.21394889402016995,-3.657890931646526,-8.930970158275962,2.5585031645625826,-3.5946124469618206,0.6815766798693446,-4.114254092790037
1698920736770.0,0.01666666753590107,0.0041226328879594805,-0.07556991250813007,0.05624240396469831,-3.698591775347292,-8.84956671730876,2.3965942543812093,-3.4263833936005255,2.5125450637878397,-4.575067746183756
1698920736787.0,0.01666666753590107,0.011646306391060351,0.027257424759864805,-0.04276128336191177,-3.6783912833616137,-8.751854531097411,2.2984322785757483,-0.992312080734255,4.008015196005543,-3.960693937888402
1698920736804.0,0.01666666753590107,0.036328327704966065,-0.004219078999757766,-0.07920403122678399,-3.646368836157024,-8.78507349461019,2.2670080895252522,2.343259252095897,2.86117969025327,-1.9945990124210788
1698920736821.0,0.01666666753590107,0.10705576861798763,0.023061142113804816,-0.06347790817618369,-3.5646669967651365,-8.756044968524575,2.30636394835785,5.461289913634789,0.13763492852151538,-1.6707688582567848
1698920736837.0,0.01666666753590107,0.0848681944683194,0.09557108252942562,0.0704522772334516,-3.580378360638022,-8.681374635204673,2.458246116174012,5.934525973581469,-0.14825372490655636,-0.9306412355011521
1698920736854.0,0.01666666753590107,0.09882190101891755,0.04941021985709667,0.08334609946757554,-3.5658643898561593,-8.724472018653154,2.483236180523783,4.529010499949892,-0.27401774462994993,0.44425570070044845
1698920736871.0,0.01666666753590107,0.015284370632469653,-0.012626257339119911,0.16528905413895845,-3.6531031128481026,-8.783429234534502,2.5707741787232457,1.4197576987115237,-0.48536722296456347,1.0111655372776058
1698920736887.0,0.01666666753590107,-0.05004851776063442,0.016133973199129105,0.18826164118647573,-3.718194885961711,-8.755446418109536,2.591272923003137,1.0637396377533095,-0.7377323607910738,0.43781648649956606
1698920736904.0,0.01666666753590107,-0.08907295268177985,-0.020657003581523895,0.13188976562321186,-3.7553058884769674,-8.792558297407627,2.536657097326964,1.3414305834136984,-0.5003802455645159,-0.06629587047698006
1698920736921.0,0.01666666753590107,-0.09718085581362247,-0.061171384799480436,0.06773351979404688,-3.76039298248291,-8.832660006171464,2.4785975609377027,1.6662957246806611,1.661338288003701,-0.3578959360931444
1698920736937.0,0.01666666753590107,-0.024693711751699446,-0.03295008344352245,0.012873510098457336,-3.6843767875120044,-8.804526967620848,2.4287670698419213,1.2903191039157293,1.4641182832668755,-0.3474894492015424
1698920736954.0,0.01666666753590107,0.03086041768789291,-0.028531682479381558,-0.025714433101564644,-3.628412031444907,-8.798840154156089,2.3953971535511314,2.176615229508868,0.632791840279117,-0.07729290192752371
1698920736970.0,0.01666666753590107,0.09169833274930715,0.0883954918116331,0.011762772377580404,-3.5694548155635593,-8.67658623188436,2.449267713817954,4.206680212638649,-1.2743060455717519,0.7191808199533787
1698920736987.0,0.01666666753590107,0.13399082955569028,0.011525602620840071,-0.021554244682192802,-3.5305484540641308,-8.747962199833989,2.4305621365651486,5.13881533857733,-3.546682234791491,1.2926029484194523
1698920737004.0,0.01666666753590107,0.10126578703969716,-0.008783025914430618,0.007071253560483455,-3.565115325054526,-8.763226988983154,2.47440595446676,5.738415447697947,-1.6150185063736135,0.9505286119301135
1698920737020.0,0.01666666753590107,0.05626110866516828,-0.031394086173176766,0.08208703931719064,-3.6131498726442453,-8.780437066981197,2.5640397559016943,4.093758829524944,1.2394320601650186,0.4258947915097055
1698920737037.0,0.01666666753590107,0.07161006896644831,0.035087679994106294,0.21773995686620473,-3.598783785900473,-8.712799116516113,2.7023046095147727,2.4025205346558662,3.1724154024748836,0.6334143479889401
1698920737056.0,0.01666666753590107,0.09210866711586713,0.09132686908841132,0.2688987739562988,-3.5805285827636717,-8.655188639068603,2.7549770460382104,1.418880553011706,1.5002292799653214,0.9490163653591904
1698920737070.0,0.01666666753590107,0.06008242051899433,0.1127080952912569,0.20406009882092474,-3.614047113744914,-8.632444307819009,2.692727218352258,1.304476485239579,-0.055732876203849556,2.45165307356353
1698920737087.0,0.01666666753590107,0.021531448328495024,-0.00720832394361496,0.16238602617383002,-3.655945642797649,-8.749610551562904,2.655767022484541,1.8416631794982656,-0.6320499643413772,3.1851921250910387
1698920737104.0,0.01666666753590107,0.009136077135801314,-0.0951537339001894,0.12732874131798744,-3.6739021552488205,-8.833407609668374,2.627037771606445,1.673667846672632,-2.267016411711983,3.310795035059342
1698920737120.0,0.01666666753590107,-0.1293786595851183,-0.21854338220357894,0.16001842025965451,-3.814411280657351,-8.952367751091717,2.6722265743762255,1.110051735420581,-3.589836864071512,1.9269551667587999
1698920737137.0,0.01666666753590107,-0.14763298593908547,-0.08924187950789927,0.14539572840631007,-3.831619605089724,-8.819938471764326,2.6699820103198286,1.1508384234927238,-2.180412814687395,1.0965413010771785
1698920737154.0,0.01666666753590107,-0.17490239339768884,-0.04621697677373886,0.08391513152718544,-3.8590041633605954,-8.774749084472656,2.6158140745416283,1.3954628225554941,-1.7409475578747848,0.48528035149605736
1698920737171.0,0.01666666753590107,-0.15713935769200324,0.03117196785509586,0.028323592686653135,-3.8386534492492674,-8.69499282619059,2.572119309721887,2.7043455268616716,-1.8922716795968866,-0.5716517220888652
1698920737186.0,0.01666666753590107,-0.13003069375306367,0.037626258561015126,0.08478811496943235,-3.807677880749106,-8.687210501751304,2.6387086279168726,3.4396862542261832,-2.302440334068608,-0.9370447512914506
1698920737204.0,0.01666666753590107,-0.08760872534811497,0.025395138019323346,0.10610942767858504,-3.7618890662595628,-8.697984993743896,2.6698329572379587,2.5398811883935233,-1.7620750405249268,-0.906943787454087
1698920737220.0,0.01666666753590107,-0.03679711426049471,-0.021660627666115758,0.13077654368430375,-3.711162210845947,-8.743326356726884,2.7002090985402463,-0.03771681152491287,0.4927474558061738,-0.48537202544132363
1698920737237.0,0.01666666753590107,0.04520721520930528,-0.013322422909736632,0.07306991238594054,-3.633200727026164,-8.734047656249999,2.6399057287469505,-1.0423402281968366,1.888239946995875,-0.5324759981654934
1698920737254.0,0.01666666753590107,0.05362462268173694,0.01269990709722042,0.03242401374280453,-3.627214638353884,-8.708158012712001,2.5953137228265404,-0.9014713118250259,1.068717778441191,-0.16173493084278803
1698920737271.0,0.01666666753590107,0.06208440799117088,0.05713000045418739,0.012065993107855319,-3.6231755920961497,-8.661773862677812,2.5752631607055663,0.7008704168098968,-0.37059061639798,0.3857229805454226
1698920737287.0,0.01666666753590107,0.05473433748930692,0.0405728334069252,0.0329173502177,-3.6324537080511448,-8.67599060407877,2.601300688281655,1.0291670344437034,-0.2331724129804803,0.6533090882156005
1698920737304.0,0.01666666753590107,0.011937398292124271,0.0332616336107254,0.08257277700752019,-3.6773435278743505,-8.681523688286543,2.6539716635003683,0.7285902593087176,1.2280970410722651,0.8379523668129056
1698920737320.0,0.01666666753590107,-0.0006236848562955855,-0.002087327668070793,0.15930734938085078,-3.6926062711969014,-8.715939168107509,2.72998639716655,-0.9088502640061669,1.7368531796324795,0.9007482722683565
1698920737337.0,0.01666666753590107,0.0005713701471686363,-0.02027647983133793,0.11337854189872741,-3.692906130926311,-8.734646791186929,2.680158828680217,-1.5799470858111846,1.7446504809002836,0.758429541523505
1698920737354.0,0.01666666753590107,0.02438596097677946,-0.020479308927059174,0.0612663696065545,-3.6718081055790184,-8.735096288520097,2.623296539251506,-1.1711603707076272,1.7807201762985922,1.039931626019055
1698920737371.0,0.01666666753590107,-0.015373510220646857,-0.05197860904037952,-0.014213234269618987,-3.7140053253173826,-8.76607010345459,2.5460829511895775,0.4404044878647662,0.5091470068076389,0.5368183976520349
1698920737387.0,0.01666666753590107,-0.05364946486204862,-0.0645972675949335,-0.05454495239704847,-3.7526124116092916,-8.777294092780352,2.5100211654663083,0.9485069826574956,-0.49608677798007533,0.12658585689919005
1698920737404.0,0.01666666753590107,-0.06993862862288952,-0.0614864420980215,-0.05227116224616766,-3.7684739976078268,-8.773403515082597,2.515556880022585,0.48751120867285985,0.3335900942818458,-0.3645576116897282
1698920737420.0,0.01666666753590107,-0.061141866444051264,-0.03537292667627334,-0.004057458697259426,-3.7568022645145653,-8.748564257380366,2.563591719873249,-0.8966324429631892,2.2342722713875305,-1.5584131001837211
1698920737437.0,0.01666666753590107,0.040158699648082254,-0.0630722499847412,0.06595832681506872,-3.653102528326213,-8.77863907764852,2.6289824759334324,-1.6584275602002179,2.117878163967697,-0.9760461986692812
1698920737454.0,0.01666666753590107,0.04287117347717285,-0.03532148874998092,0.07997223912030459,-3.649811377826333,-8.753052800971268,2.636463771599531,-2.23260335735252,1.3254911630467099,-0.7002649312121457
1698920737471.0,0.01666666753590107,0.04039104709923267,-0.04019289417862892,0.034817923142015934,-3.6534023880556226,-8.759786493140458,2.583343591308594,-1.4602912428975527,0.2756264676228995,0.3322743223712663
1698920737487.0,0.01666666753590107,-0.04197656272500753,-0.028143559944629668,-0.0468707645073533,-3.7373482069820163,-8.747813146752119,2.4990973281309006,-0.30539563367698846,-0.30597812074714364,-0.34085936322986987
1698920737504.0,0.01666666753590107,-0.05970540390014648,-0.020688567763566968,-0.056311669808626175,-3.7536589980527757,-8.740781348419189,2.49026783272624,0.46135846770173394,-0.15458042774911868,-1.2403954370031078
1698920737520.0,0.01666666753590107,-0.04910772977918386,-0.0003109656453132629,-0.07089607547819614,-3.7385453078120943,-8.722075478905438,2.4765000041365623,0.02004553799692961,1.3026402315699035,-1.1955165051227754
1698920737537.0,0.01666666753590107,-0.004659516243636608,0.009808861830830573,-0.04177198006361723,-3.692009182086587,-8.712650647956133,2.5062799331113697,0.5569717779326566,0.7814458382834198,-0.7444361914614414
1698920737554.0,0.01666666753590107,0.0076233344852924345,0.012667173871397971,-0.039862347050011154,-3.6773432356134057,-8.709954833000898,2.5110674596488476,1.6328195801762533,-0.8365058608127438,-0.8625010271852834
1698920737571.0,0.01666666753590107,0.04191518792659044,-0.005225041171908378,0.013359832310676573,-3.640383624267578,-8.72716432647705,2.5704735883414744,1.5349006008527755,-1.3583377562087129,-0.5251199377902426
1698920737587.0,0.01666666753590107,0.15076368518024683,0.08516425480544566,0.06822744079083204,-3.531296934343874,-8.636333716472983,2.62718653242737,0.1532972993402951,-0.6161680136129521,-0.15996911349892817
1698920737604.0,0.01666666753590107,0.1929775637924671,0.09181319130063056,0.08904606467485428,-3.490147470092773,-8.629899884033202,2.645741595293581,-1.6772621270016455,-0.0636319366181164,0.8477803686983193
1698920737621.0,0.01666666753590107,0.1579775620818138,0.03536591241359711,0.07254793433845043,-3.5303991087213156,-8.686610782292485,2.620751530943811,-2.5846979015193847,0.7187038806502414,1.904338702869595
1698920737637.0,0.01666666753590107,0.08939005580693483,-0.0733896458595991,0.006812310363352298,-3.604321546283364,-8.794801692420243,2.549225633129477,-1.7215843984646217,0.11082416819296748,2.535609972284738
1698920737654.0,0.01666666753590107,0.037571021242439745,-0.12492635635137557,-0.04049947590976953,-3.661033029064536,-8.844778898510336,2.500144791357219,-0.7501651727103482,-1.4220353533563113,2.4893881611805577
1698920737671.0,0.01666666753590107,-0.15415157405287028,-0.11587211228013038,-0.11095160701274871,-3.854814310455322,-8.833855937957763,2.433107437133789,0.2416471836365852,-1.6107266929756126,1.092017261247397
1698920737687.0,0.01666666753590107,-0.22581483451128004,-0.20762451330423354,-0.09476298101693391,-3.9242452818170186,-8.92573284214437,2.45210965924561,-0.35420934148863,0.3670526317687663,0.0038048155740937825
1698920737704.0,0.01666666753590107,-0.25839520785957576,-0.25083763208687304,-0.09479571424275636,-3.954023164965212,-8.97047448566854,2.4509134351983666,-0.5233191690877393,0.7980199326346905,-1.8319286658271166
1698920737720.0,0.01666666753590107,-0.21190467484146355,-0.25968203279972074,-0.05535305390954017,-3.897760302734375,-8.984092092132569,2.4881726140126585,-0.7150590142326876,0.6476374698835512,-3.160063859134562
1698920737737.0,0.01666666753590107,-0.10687047517895698,-0.16278642366826535,-0.04482961406856775,-3.7855315153926608,-8.891465830883384,2.4944576856315135,-1.492204448020791,0.11402232423054662,-2.9727164659561667
1698920737754.0,0.01666666753590107,-0.067492696775496,-0.12522972321212292,-0.039784897899627684,-3.740491181182861,-8.857498679351806,2.4953558035150167,-1.1016350213724213,0.30886801113757306,-2.7867470634428213
1698920737770.0,0.01666666753590107,-0.04178834667652845,-0.06554536210000515,-0.04368132081627846,-3.7069720656797287,-8.801833490753173,2.4889205097705123,0.6427306192951318,-0.23330565503014844,-3.6428186414633013
1698920737787.0,0.01666666753590107,0.04627338313609362,0.011571195328235626,-0.06581628799587488,-3.6125507377073167,-8.72686446674764,2.468570380181074,2.0202986663903095,0.039493727926174005,-3.374239595042533
1698920737804.0,0.01666666753590107,0.1132569613456726,0.05486906978487968,-0.039110359638929365,-3.53997649988383,-8.684667247009276,2.4995456564202905,1.9140913592307272,-0.1520962799438571,-2.086060368049427
1698920737820.0,0.01666666753590107,0.17001403683423996,0.10137012419700622,-0.00339022696018219,-3.4804210258483885,-8.638280174365638,2.5389006384700537,1.124768658647843,-0.382777728270119,-0.5300451978729094
1698920737837.0,0.01666666753590107,0.09010989451408385,0.0946393546372652,-0.006162029761075973,-3.559878593444824,-8.64456378467977,2.5383017957940694,1.203519245674209,-1.0423388408146614,-0.19149841396604417
1698920737854.0,0.01666666753590107,0.00428600675612688,0.05051613527238369,-0.031037235559523105,-3.6436750670284033,-8.688257380455731,2.5178011518180368,1.4764647039653198,-1.0277646045080293,-0.771431873825682
1698920737870.0,0.01666666753590107,-0.03923047888725996,0.03984861078560352,0.0189160051330924,-3.6848257003232834,-8.699031872448325,2.5707734480708835,1.2143814876103507,-0.2529016812023266,-0.7863368406985308
1698920737887.0,0.01666666753590107,-0.03803776197135448,0.04736380872130394,0.07451806536763907,-3.6800370047420263,-8.692298180279135,2.628832838329673,1.0296369301142592,0.23437898190561893,-1.0616784147278466
1698920737904.0,0.01666666753590107,-0.07149082650095225,0.02049216840863228,0.11414777270555496,-3.708169166509807,-8.7210291847229,2.669683611895144,-0.22636423516228496,0.48306395511038824,-1.5172387988761802
1698920737920.0,0.01666666753590107,-0.08168985669314861,0.00644493835568428,0.11920680966079235,-3.715201549364626,-8.737038654759525,2.6725261418446897,-0.9437812388037872,1.56993797719106,-1.6250926085125592
1698920737937.0,0.01666666753590107,-0.038919220981001854,0.029586744490265843,0.1962584851592779,-3.6701606306329366,-8.716538303044437,2.743753641234338,-2.2569984451902787,2.0844490837355387,-1.7281962350246056
1698920737954.0,0.01666666753590107,0.041558921834826464,0.03582593114078045,0.18830811067670583,-3.587261982671916,-8.713995048302412,2.726545316801965,-2.706050085946413,0.9339085205236511,-1.1716648442108561
1698920737970.0,0.01666666753590107,0.07695113773345946,0.03626256899237632,0.20144553240835666,-3.5506004774898288,-8.7159397526294,2.733278424449265,-3.062320437017094,0.3742071215222224,-0.5602915700344001
1698920737987.0,0.01666666753590107,0.05200023635029793,0.016065584138035775,0.13607231200486422,-3.5754409042358395,-8.737789765387774,2.6623522460937497,-3.2086489156915667,-0.7819812077204725,-0.5107843845785908
1698920738004.0,0.01666666753590107,-0.05842004026472568,-0.04825988077819347,0.01960369513630867,-3.6831799789428707,-8.804676605224609,2.5408456350579858,-2.690294120191663,-2.2478908148188896,-0.8607490303023223
1698920738020.0,0.01666666753590107,-0.1251525663226843,-0.08548807993233204,-0.03106646165400743,-3.746625738415122,-8.843581797680258,2.489070731896162,-1.1541657928355777,-1.4108517723640617,-1.0740288908511106
1698920738037.0,0.01666666753590107,-0.17475100222826004,0.010318564918637274,-0.010683306577801704,-3.7922652075618504,-8.748860609978436,2.5113664425954223,-0.2977357366053779,-0.3075955682395408,-1.829003423871647
1698920738054.0,0.01666666753590107,-0.07030541610866785,-0.022310031485557553,0.011997604046761989,-3.680785192760825,-8.783726171654463,2.536355630162358,0.10041437292848625,0.43814142741324413,-2.074802722193365
1698920738071.0,0.01666666753590107,0.016408990748226642,-0.05958557691276073,0.04840864159911871,-3.5904040800899266,-8.822482311028242,2.5728680822625756,-0.43112009966817677,0.7072966109626738,-1.1069574462831537
1698920738087.0,0.01666666753590107,0.10576339071989059,-0.023481997874379157,0.10649316629916429,-3.500622102355957,-8.787470034357906,2.6277853751033544,-1.2170786652805652,0.1713739552676892,0.057546264748061494
1698920738104.0,0.01666666753590107,0.07329670687913895,-0.0011789806514978407,0.11701923648864031,-3.534889405877888,-8.765472722083329,2.6346698739200827,-1.5592597234756855,-0.6052023583439082,-0.025437465418552213
1698920738121.0,0.01666666753590107,-0.0017398294046521185,0.023808161088824272,0.10672931314259766,-3.609708207757771,-8.741530705481766,2.6210508061513305,-1.7209290204694179,-0.20782932957047856,-0.9717459542565234
1698920738137.0,0.01666666753590107,-0.08467413320094347,0.03429273022413253,0.1431587631344795,-3.6897637412473556,-8.734047656249999,2.651128256767988,-1.9983231730660285,1.98713020056367,-2.089034275102733
1698920738154.0,0.01666666753590107,-0.03069499799311161,0.017444471275806426,0.13757482552230357,-3.631854865375161,-8.754550346052646,2.638410814014077,-3.100084126051272,2.4265681366196,-1.8840325504671471
1698920738171.0,0.01666666753590107,0.013571136973798274,0.004631166931986809,0.12639613664299248,-3.5839702476501465,-8.771158951026202,2.619106101824343,-3.01022423633988,0.8396426251890722,-1.7205331896626745
1698920738187.0,0.01666666753590107,0.07096563358306884,0.03242226017713547,0.1088087497651577,-3.520224628448486,-8.747515040588379,2.5960627876281737,-2.384009014457839,-1.6071330529768337,-1.1927588162453828
1698920738204.0,0.01666666753590107,0.08218406995087861,0.03922492592930794,0.10823182666003703,-3.506906297191977,-8.742126333287358,2.593516902537644,-2.034759670967108,-1.1303087958383695,-0.40560558117805035
1698920738220.0,0.01666666753590107,0.07462561739534139,0.06469955892562866,0.1035518521502614,-3.5136405738830563,-8.718038186213374,2.585138658031821,-2.5601305648484955,-0.1776083171543241,-0.7587763337064417
1698920738237.0,0.01666666753590107,0.04833177697062492,0.03126256874799728,0.11282529193013906,-3.537881281170249,-8.754547423443197,2.5864842274218796,-3.6385937425748254,0.6662504824237765,-1.0777369365184872
1698920738254.0,0.01666666753590107,0.05862053127288818,0.042183775734901424,0.10367781661748886,-3.5256115821838376,-8.74661721496582,2.569575178197026,-3.8344707613660973,1.083685177511922,-0.8602075777280401
1698920738270.0,0.01666666753590107,0.0783893538430333,0.06512801347076892,0.09405512500852346,-3.504512095531821,-8.726714244621991,2.55102040759176,-3.782761533594046,1.1262332006162816,-0.5686015090159255
1698920738288.0,0.01666666753590107,0.09964227749109268,0.07617664622962475,0.066299103076756,-3.4831145027160644,-8.719085064917802,2.5112176817744967,-4.016578545677446,1.884396471483862,0.3189432605348559
1698920738304.0,0.01666666753590107,0.07348667649328708,0.05348024577498436,0.035812487137317654,-3.5109470970153804,-8.743474825286865,2.4721631439760325,-3.248066577721945,1.3312657678248383,0.6520481712617927
1698920738320.0,0.01666666753590107,0.016419804403185842,0.007284311789274215,0.06032295127660036,-3.569156417138874,-8.79106075232625,2.4899695804320277,-2.446767353872855,1.2164404694799922,-0.10143231123865616
1698920738337.0,0.01666666753590107,-0.08507774556577205,-0.050072483158111566,0.10333294870257377,-3.669562664739787,-8.851064262390135,2.524983902928978,-2.9899588516290407,1.3669929932692941,-0.771586193412242
1698920738354.0,0.01666666753590107,-0.07333060914874076,-0.053989364340901375,0.1485506853058934,-3.6557962974548337,-8.857948761206865,2.562394180651754,-3.715834644351207,1.9694406509435716,-1.3176066701452822
1698920738370.0,0.01666666753590107,-0.029433307494223116,-0.027024785047769544,0.16618424941301344,-3.609558277893066,-8.834753179058431,2.569725546453148,-4.3282144642957405,1.566915725205035,-1.2521732444531486
1698920738386.0,0.01666666753590107,0.013288228379189967,-0.04236731560826301,0.15443974334448576,-3.563170036205649,-8.855552221459149,2.5433897665828464,-4.791746106092303,1.0424559145259036,-1.4146051747563952
1698920738404.0,0.01666666753590107,0.05515577777177095,-0.04884148005843162,0.14679098215699196,-3.519775423376262,-8.865877800640463,2.5237873866207896,-5.564890649852365,1.5356363402924327,-0.7166758480752765
1698920738420.0,0.01666666753590107,0.05348667551577091,-0.013356325179338454,0.13259279932603238,-3.5218703498288986,-8.834004991039633,2.4955057333797215,-5.4994561569431735,2.0920660253205723,-0.39405010172157884
1698920738437.0,0.01666666753590107,0.017265023055672644,0.018490180936455724,0.04442117939814925,-3.558980183300376,-8.806023343658447,2.391507160375267,-4.262589579863435,1.1934786541508786,-0.45443521720427976
1698920738454.0,0.01666666753590107,-0.048635728353261944,-0.010741758766770363,-0.0419723249413073,-3.623773557989299,-8.837596293529868,2.2979839502863584,-3.022522845714134,0.6729861161624668,-0.8951547742249393
1698920738470.0,0.01666666753590107,-0.034305589705705644,-0.0255541279733181,-0.01439458218589425,-3.607762334387004,-8.854804617962241,2.3190828524164853,-2.7533525610433363,1.7121925681907368,-0.7904840995460508
1698920738487.0,0.01666666753590107,0.004605155707895756,-0.09923486573398113,0.05165639134868979,-3.5679587317869066,-8.93201820602417,2.373102027373761,-4.21657331476459,4.06922350936579,-0.8176493093399253
1698920738504.0,0.01666666753590107,0.025562311279773712,-0.059711833640933035,0.08594459152817725,-3.5474583800718187,-8.895805905914306,2.3940514380306004,-5.145793230588144,4.139087806838557,-0.43159735913643144
1698920738520.0,0.01666666753590107,0.03210544931292534,-0.05106149419546127,0.0732721569597721,-3.542669976751506,-8.890120261493324,2.367265430174768,-4.59809786340457,2.910892581796973,0.10880021772324874
1698920738537.0,0.01666666753590107,-0.005604103617370128,-0.03090191874206066,0.016484686332941055,-3.582773146820068,-8.872612077331542,2.296487720379233,-2.5046260997754444,1.7355367673916653,0.1327032517962885
1698920738554.0,0.01666666753590107,-0.007002864499390125,0.01210778642296791,-6.225158125162124e-05,-3.585166763958335,-8.830562741631269,2.274639753447473,-1.2243221876170696,1.286623224522812,0.02168030108608985
1698920738570.0,0.01666666753590107,0.010777122341096401,0.04364040428400039,0.027248364670574662,-3.5679590240478514,-8.799590095740557,2.298882068169862,-0.8052512353358828,1.0647468772124749,0.23119096443008902
1698920738587.0,0.01666666753590107,0.022781448389589787,0.10711714341640471,0.07096241871267557,-3.556586566162109,-8.736593249079585,2.3397329878658053,-0.8084861303206772,1.4560738145284815,-0.12787883038537198
1698920738604.0,0.01666666753590107,0.08329787641167641,0.14321020106077192,0.13527443962544203,-3.4965813025325536,-8.701126214379071,2.4007849840693174,-1.2782852710935189,2.144916748457662,0.1058629695758788
1698920738622.0,0.01666666753590107,0.07611293334364891,0.17437807726263999,0.1877943159356713,-3.505410505676269,-8.670901756507158,2.4470235881529745,-2.326442045698856,2.359852129467385,0.023465515099975486
1698920738638.0,0.01666666753590107,0.02222702937722206,0.27696342246830463,0.24348931515067815,-3.560626196941733,-8.570642808422447,2.4914644951649008,-2.796213492189047,2.9016792969368606,-0.28775128069928857
1698920738653.0,0.01666666753590107,-0.0027732641056179997,0.36102293090224263,0.38205724336355923,-3.5868127775996923,-8.488342126354574,2.621200297624618,-2.7710670835425875,3.460807120130567,-0.32122907939013584
1698920738670.0,0.01666666753590107,0.018176877203583717,0.40794893272817134,0.4969388833016157,-3.5670600293815133,-8.443300038579105,2.7266945160143075,-3.478480661494798,2.897647991222672,-0.3305078913775982
1698920738687.0,0.01666666753590107,0.1435191208794713,0.42485272125601764,0.7343079620063304,-3.4434602454587817,-8.429984045410155,2.946961799401045,-7.60942410807835,0.9553991771385674,0.7292897133684091
1698920738704.0,0.01666666753590107,0.1672483715131879,0.4326952514499426,0.8487057639501988,-3.4225109809324143,-8.426093467712402,3.0409339223012326,-10.933807804491432,1.0718243405747834,1.2040135806153887
1698920738720.0,0.01666666753590107,0.13051380109488964,0.4635585917472839,0.8566352417752147,-3.462913133947551,-8.400804128155112,3.020134295378625,-12.979164300512403,2.706386472763036,0.751985684928421
1698920738737.0,0.01666666753590107,-0.027786417070031166,0.5695733268797397,0.7557362422212958,-3.6257185545772312,-8.303539101189374,2.875434732542932,-12.93122405650173,5.048923645797616,-0.10501349147828491
1698920738753.0,0.01666666753590107,-0.01807692396044731,0.7870897041231394,0.7743520953640342,-3.618685587200522,-8.092401026806234,2.862565898619592,-11.806162980380046,6.730914931747554,-0.5253015781334827
1698920738770.0,0.01666666753590107,0.046854982416331764,0.8573878137081861,0.8594481072388589,-3.5565859816402194,-8.028655992126465,2.914640076988935,-12.500653200092357,7.0951766041471505,-0.029609083495416837
1698920738787.0,0.01666666753590107,0.19401275205910204,0.8106663945436478,1.074268669527024,-3.4142817895084616,-8.084473156416415,3.081038992065936,-15.39933938006887,5.583050842194959,0.17909445692797046
1698920738804.0,0.01666666753590107,0.2421753099426627,0.8184417047202587,1.2750992849074303,-3.3684918059751388,-8.085218421825767,3.239353531017154,-18.601750412057513,5.15293931600727,-0.7735484320555926
1698920738821.0,0.01666666753590107,0.2047322989940643,0.8485767307430505,1.3373625565968452,-3.4045541762202975,-8.066813581085205,3.2502766377001997,-22.328154774149315,4.935855840503578,-2.9474436988100616
1698920738837.0,0.01666666753590107,0.18111235395371914,0.8721084129780531,1.2620305444978177,-3.4190693160459396,-8.064418794903158,3.0916610699757934,-27.850289293571045,7.485531306723488,-5.809245790051449
1698920738854.0,0.01666666753590107,0.2130114670395851,1.0065613070875405,1.1820036525808275,-3.375674118694663,-7.950543993920087,2.931848985943198,-32.68059736705677,12.055324866207526,-7.9021412564693545
1698920738871.0,0.01666666753590107,0.1882788845822215,1.1166998441517353,1.164926553312689,-3.385550785064697,-7.864206019160151,2.8206681002192195,-35.94377488454372,15.989426743222952,-10.11684119390339
1698920738887.0,0.01666666753590107,0.2355202359676361,1.3316770583063364,1.1635538036547601,-3.31357451313436,-7.6832912336051455,2.681655058587342,-37.7526582786678,18.53511167142028,-11.766910736993628
1698920738904.0,0.01666666753590107,0.3964744757726788,1.564641180050373,1.2464600504003465,-3.1320640997737645,-7.475744461712241,2.657563112121075,-38.880469359704065,17.615805775177,-11.06842912548509
1698920738920.0,0.01666666753590107,0.42486733430325985,1.6960615745961665,1.3813574734069407,-3.084779201507568,-7.368007140570879,2.683449833049625,-40.40032646890989,15.431282467269728,-9.946231606172935
1698920738937.0,0.01666666753590107,0.45790509603023527,1.8170821556806562,1.5180489402234554,-3.028963790783286,-7.275828623089194,2.671778684478253,-42.59220930564785,14.587422840598407,-8.27675749565069
1698920738954.0,0.01666666753590107,0.48382893409878014,1.6750100187391042,1.6307237177670002,-2.9888614974975583,-7.437587457275391,2.6657931803278623,-46.10320999188496,16.280645518864787,-7.474953905020077
1698920738971.0,0.01666666753590107,0.4683315052375197,1.5686632751733063,1.7474959937572478,-2.99125540689677,-7.562983769226074,2.650081304998323,-51.8064418545077,19.264843959702567,-7.259290681976925
1698920738987.0,0.01666666753590107,0.36597529261261225,1.2676941232174634,1.7610136469781397,-3.0759499983638525,-7.888444972881675,2.4600407445058226,-60.01471389712432,21.119113960861384,-7.427309066691007
1698920739004.0,0.01666666753590107,0.2235287694007158,1.0841051500171421,1.627361547857523,-3.2041897170469165,-8.08866067123413,2.1579233358303083,-64.99748033062119,21.384606828994364,-7.189687639239909
1698920739020.0,0.01666666753590107,0.11109686070233583,1.124699610733986,1.6262380967855452,-3.3023516928523775,-8.062025177764893,1.9767125995360313,-68.99918571249411,22.326283302316728,-7.076666791496416
1698920739037.0,0.01666666753590107,-0.13720394638329744,1.1129431219667196,1.484934606128931,-3.525461652319133,-8.08925922164917,1.5827161129831335,-71.98369834203372,22.62392416332567,-10.214194441464521
1698920739054.0,0.01666666753590107,-0.2133624724343419,0.983829835319519,1.2223334710121154,-3.574242926622927,-8.228420439580082,1.1260222559061832,-72.38793625787174,23.33795896934797,-12.42084414718805
1698920739071.0,0.01666666753590107,-0.14239742337316275,0.9800596691310405,1.2104735218703746,-3.4711432021543382,-8.239794066509605,0.9204203162044287,-71.63649250576529,23.642628095012853,-12.872095962630576
1698920739087.0,0.01666666753590107,0.10690496197044849,1.0673737954467535,1.0817191316634416,-3.180995596203208,-8.155697148674726,0.538545224474743,-69.89276570122854,20.92601597528866,-9.95717698431788
1698920739104.0,0.01666666753590107,0.33463352114856243,1.0142179593205451,1.0821318771827966,-2.931101090185344,-8.20403067921102,0.35464068251922726,-69.48636944561278,18.006523331552994,-5.540249888647898
1698920739121.0,0.01666666753590107,0.3149482852086425,0.7202613164752721,1.2080395727217197,-2.9376851447507737,-8.480262280273436,0.23792320545613765,-71.36212380680587,13.90843373520744,-0.11650328372484796
1698920739137.0,0.01666666753590107,0.2628513104856014,0.48077919113934037,1.2674702513337135,-2.988711567632854,-8.698433906555175,0.10998290811106562,-76.953705982161,10.154858880597327,1.7148075701474996
1698920739154.0,0.01666666753590107,0.06279109495580196,-0.2953308538079262,1.0445752497918903,-3.1935651549190283,-9.445424240002035,-0.31274273798838254,-84.65907461128417,5.215894023360924,4.752450747136749
1698920739171.0,0.01666666753590107,-0.3823927589282393,-1.215289982241392,0.5678824511833489,-3.660883683721721,-10.31122741535604,-1.070957206891477,-88.16459407071234,-0.1318437018377115,9.630623078778632
1698920739187.0,0.01666666753590107,-0.48974575692713257,-1.938221979230642,0.6145628076851367,-3.7958570945739742,-10.986093592834472,-1.2228390824466944,-78.46657239275132,-2.0539603999410714,13.566306998360563
1698920739204.0,0.01666666753590107,-0.8247212233811616,-3.9044635997653003,0.10887246265113353,-4.1762352988094085,-12.901006008148192,-1.8911209130987523,-64.43556749779341,-9.017587133786954,23.057379920885726
1698920739221.0,0.01666666753590107,-1.6791735681593418,-5.318775102138519,-0.05178074838072061,-5.125386911718547,-14.239812479943037,-2.221819579016417,-56.780684211920395,-20.061440384864692,29.03002176513045
1698920739237.0,0.01666666753590107,-2.540184248539805,-6.0049856804519886,-0.5063993700861931,-6.066308456420898,-14.86978796081543,-2.776227339337766,-50.34646842884997,-37.17245078414815,24.08143359824032
1698920739254.0,0.01666666753590107,-4.224635172580182,-6.9617825474172825,-2.0281002569459377,-7.818863779394328,-15.783175309643148,-4.359392748724669,-40.12152156208455,-54.17078696778849,9.571561579251885
1698920739272.0,0.01666666753590107,-5.190755455946922,-7.1296385294348,-3.3409558565348383,-8.822034567260742,-15.927127268981932,-5.704934227862954,-30.54157677940012,-59.5871030739465,-16.111682006724305
1698920739287.0,0.01666666753590107,-5.210228218179941,-7.10002080528438,-3.93813702904731,-8.823380428911745,-15.901537485173344,-6.314856808526813,-28.483526376806683,-54.98370925261423,-30.32630287713966
1698920739304.0,0.01666666753590107,-4.451378812374174,-6.444095475119352,-5.002647544017433,-8.013542301885783,-15.261838482666015,-7.396138279425353,-25.609324717457373,-40.56818519795212,-39.589098070998304
1698920739321.0,0.01666666753590107,-3.2125244146719574,-5.649954098919034,-5.405213030141591,-6.669946257726847,-14.49898480965495,-7.83652218568176,-19.974481831446674,-14.258917208503828,-42.09700010025441
1698920739337.0,0.01666666753590107,-2.5829335492029784,-5.2814370128691195,-5.425221798947454,-5.951236846868693,-14.156764194378257,-7.885603027454018,-10.230253923750514,-3.0009114868499793,-38.57882430029421
1698920739353.0,0.01666666753590107,-1.6250383656069636,-4.622769690519571,-4.811486966519057,-4.91275187677592,-13.526340969738364,-7.278822544208168,2.6854713663073992,-2.7878836496093937,-31.568874796610473
1698920739371.0,0.01666666753590107,-0.8362982639282941,-4.244800300991535,-3.8161329898834224,-4.0538323234558105,-13.185616145977377,-6.2409361245304344,17.391913881731277,-18.079088968842502,-18.435221862356137
1698920739387.0,0.01666666753590107,-0.5310732080936431,-4.4385710609883064,-3.3368232867747545,-3.7325603881835936,-13.403787772259115,-5.691765972601622,23.619757206577063,-31.012931549117287,-8.838958050197256
1698920739403.0,0.01666666753590107,-0.2345657117217779,-4.920653735941648,-2.515974520912766,-3.45408480758667,-13.907019618225096,-4.763264787402749,16.76640515754151,-40.067163501575,0.9264918955803693
1698920739420.0,0.01666666753590107,-0.6810276227176189,-5.395999211594462,-2.744163975600898,-3.930231662750244,-14.387356910815834,-4.927866589929908,8.697126610761002,-41.11635569016983,3.7041020869044177
1698920739437.0,0.01666666753590107,-1.156165593099594,-5.5688247987180945,-3.2350980655297636,-4.437802414703369,-14.560787478095293,-5.367202740699052,7.627400312200177,-36.38090016123537,4.7902810305153345
1698920739454.0,0.01666666753590107,-2.035152075153589,-5.589983322080969,-4.108619560176134,-5.350142592565715,-14.585925426483154,-6.171205293439328,16.55992000119556,-25.535982146149774,1.1019460084230683
1698920739470.0,0.01666666753590107,-2.586274676324427,-5.219271940857172,-4.761258708277344,-5.90859012979716,-14.22978734501302,-6.747010938837379,32.17181316068793,-22.461352000701023,-5.510801101154565
1698920739487.0,0.01666666753590107,-2.568827574700117,-4.792721183511614,-4.837661272217333,-5.882852169689536,-13.831601096886395,-6.704812550055236,53.19781286014183,-19.435156434204128,-9.905806277796568
1698920739505.0,0.01666666753590107,-2.1009896981984375,-3.828734112781286,-4.30518024315238,-5.392340981347859,-12.919562824580073,-5.946599104065448,75.45733447841627,-15.863293639820327,-10.349365592686366
1698920739520.0,0.01666666753590107,-1.4396326983734964,-2.8593630109250543,-3.2877830692738295,-4.7135842261716725,-11.991059155163168,-4.724358864294738,84.17236216121823,-18.251945688809894,-10.072135044464718
1698920739538.0,0.01666666753590107,-1.093372744578123,-2.1386229710221287,-2.7934949927419424,-4.35071303705424,-11.309160594829915,-4.002357426153869,91.50878446194481,-22.666838241880857,-9.790302656289775
1698920739554.0,0.01666666753590107,-0.6453729564905166,-0.5792202761471271,-1.8324093425415455,-3.878156899859011,-9.796772164586185,-2.7020064302857962,100.20869010592436,-33.985327423069286,-11.890525208139811
1698920739570.0,0.01666666753590107,-0.28842180507183074,0.7283224578559399,-1.346448510980606,-3.4985268836423753,-8.519168057250976,-1.937658025204949,104.45402150530246,-38.2996710538212,-12.614906043207391
1698920739587.0,0.01666666753590107,-0.1004579777881503,1.318775491157174,-1.3587082730948925,-3.2830490264892576,-7.952041539001464,-1.6644198886037804,106.05833731869008,-34.14342581178757,-13.806649402422265
1698920739604.0,0.01666666753590107,0.36817017230838534,2.3901906709492207,-1.3697148202776908,-2.766799293518066,-6.90158497608602,-1.2972093825072515,107.65901947143925,-27.794783761280936,-16.829135322426197
1698920739620.0,0.01666666753590107,0.8523582951083779,3.3578175594866275,-1.553131944042444,-2.2367826087400315,-5.942707211193442,-1.195605403888598,108.19439018915236,-28.736176781752746,-19.57716118969057
1698920739637.0,0.01666666753590107,1.0870251291170716,3.91224124802947,-1.8207143747031687,-1.9476827582761644,-5.390843728527426,-1.177649549024552,106.75543325557075,-32.54888058400766,-21.61939287416626
1698920739654.0,0.01666666753590107,1.6519871628090739,4.9920624371171,-2.3404129329539836,-1.303193306621909,-4.302977764672041,-1.3208524435617028,101.80556784330584,-39.78615585874234,-20.351875396299267
1698920739670.0,0.01666666753590107,2.1401535415902733,6.0428293811559675,-2.775063263994455,-0.7552212784364819,-3.2368121759712696,-1.4806649659857154,98.82246906292443,-43.27521456227078,-18.583962891911504
1698920739687.0,0.01666666753590107,2.2968434019491073,6.501892999571561,-3.1347219208061694,-0.5397425445005297,-2.7542285657584666,-1.569999199952185,97.64825709176168,-43.12424347595141,-16.837898455131324
1698920739704.0,0.01666666753590107,2.257503909729421,6.969853041148185,-3.7204616618499156,-0.4945525726869702,-2.2453134134590624,-1.8028344346195457,95.78927084498098,-43.387280891077765,-19.92097754458338
1698920739721.0,0.01666666753590107,2.390618833233416,7.176613046577573,-4.078223252868652,-0.28879999073445795,-2.0025988820731637,-1.9026422779358922,93.99495965945111,-40.14728162053925,-21.54874993512811
1698920739737.0,0.01666666753590107,2.3889757422015068,7.282472298887372,-4.237039019340276,-0.21727350839823484,-1.8555057020992038,-1.813159575409442,92.28500814036008,-33.53670693800451,-20.550888325693222
1698920739754.0,0.01666666753590107,2.324125376628339,7.547429057219624,-4.212952041310071,-0.1949777976989746,-1.5260048676639795,-1.47482822265625,89.09767987360613,-26.33655032631426,-17.59533569823447
1698920739770.0,0.01666666753590107,2.2905212131902575,7.443101836782693,-3.6886338604345914,-0.16923983759135006,-1.5759820737540722,-0.7261921678289771,86.93701100137511,-27.487155456158145,-16.555830425430013
1698920739787.0,0.01666666753590107,2.28867485467121,7.297036830812692,-3.50466348670125,-0.11028291397094726,-1.6624743622928857,-0.31992578136026856,86.02073429402874,-31.922374652199068,-13.432291856655743
1698920739804.0,0.01666666753590107,2.464901920801401,7.1639885428041215,-2.5794772712692615,0.1300349315367639,-1.7073668124645947,0.8872016449525952,78.68650448402573,-24.61698702351373,-7.508549044226431
1698920739821.0,0.01666666753590107,2.4043337625920773,6.556842733377218,-1.6116493072018026,0.10639219014272093,-2.249952179175615,2.0394106093809006,69.47848057712142,-17.35052464290829,-7.302318312427066
1698920739837.0,0.01666666753590107,2.3096169588044284,6.130725106751918,-1.1233066950708628,0.03651172144785523,-2.616711607903242,2.6827023756831885,59.607395565970606,-6.898479535768654,-3.684740635041547
1698920739854.0,0.01666666753590107,2.236186250282079,5.693244959113001,-0.0353334714487195,-0.036511283056437964,-2.9794337439388037,3.938311216570437,52.34117053443883,7.400446786458993,4.46692877614953
1698920739871.0,0.01666666753590107,2.211999172878265,5.472331925168633,1.2184265267014502,-0.09457096557617187,-3.141641490936279,5.298816602215171,49.27559038964034,17.579004715928974,13.564386861430142
1698920739887.0,0.01666666753590107,2.198826679833233,5.203824196356535,1.7270996869385242,-0.17088614349365233,-3.348440659332275,5.900059909600019,42.8974777804124,21.232244091631596,24.171453783953798
1698920739904.0,0.01666666753590107,2.234221233819425,3.696373222514987,2.6489970899581907,-0.25827450408935543,-4.782417816162109,6.899639687237143,17.783854041968702,15.509474472888034,39.36762235697147
1698920739920.0,0.01666666753590107,1.65553754876703,1.8577502661556005,2.6998025635659695,-0.9479542198181152,-6.5859998542785645,6.953658569933474,-6.877742227674849,12.845967073960692,46.4892249630174
1698920739937.0,0.01666666753590107,1.0267053927108645,1.2851309957087038,2.315268993216753,-1.6970400642395018,-7.147141452899575,6.516268146404624,-30.691741903397435,19.475278672936074,45.16365258475259
1698920739954.0,0.01666666753590107,-0.4640323467388749,0.7461924610674381,1.141797460529208,-3.3358713928773995,-7.709480152350664,5.194520361438394,-50.25352321462443,30.393546089518434,29.58942450343825
1698920739970.0,0.01666666753590107,-1.432748199556768,0.818264010065794,0.1927466776460409,-4.386775115038454,-7.673714426964521,4.10814989683777,-48.95351964951757,35.38109365543431,13.047888810167425
1698920739987.0,0.01666666753590107,-1.4454115740358828,1.154802488052845,-0.021266367651522157,-4.444535814611614,-7.377282918438315,3.7707168080985545,-37.81614488700307,29.55836080309303,-2.078794327433003
1698920740004.0,0.01666666753590107,-0.6672472269073129,2.238075863420963,-0.16465660145431757,-3.66791665109843,-6.342389250835776,3.5152854184806346,-23.520545293788043,14.85640252030268,-14.715036387503634
1698920740020.0,0.01666666753590107,0.5129775794327259,3.180497583553195,0.36675855194479223,-2.46108996129781,-5.435587125617265,3.984549820654094,-25.947719609696485,10.20655060600963,-18.62207705502747
1698920740037.0,0.01666666753590107,0.9999766680002212,3.5271541354507208,0.6261582606717944,-1.9416972541257738,-5.134065600475669,4.1617201589837665,-40.33796684178767,14.227688729844884,-18.904218509262357
1698920740053.0,0.01666666753590107,1.6419775177091358,4.400809193348884,1.1796417457550763,-1.2777549139827489,-4.340685856297612,4.5310254728019235,-66.73722513487182,28.862968998410278,-12.087728137403712
1698920740071.0,0.01666666753590107,1.556118266376853,5.552172939124703,1.2592284926891326,-1.3673884231567381,-3.2612019363403317,4.413260678642988,-84.18067450143813,33.28578969356033,-8.63422142227883
1698920740087.0,0.01666666753590107,1.446838099707663,6.060695292714238,1.3175132161363958,-1.4821601729795335,-2.833237220543623,4.231152007128298,-103.16407880884303,28.892004132572,-9.494629743535446
1698920740103.0,0.01666666753590107,0.9861796133160591,6.680458007130026,0.5368611438453197,-1.9207482818603514,-2.335842994689941,3.0719100753232835,-121.10932168316268,19.10564591052791,-20.644484115437198
1698920740121.0,0.01666666753590107,1.3569912400439381,6.856442350545525,-0.5374880435720086,-1.5002663230344653,-2.2557862921565768,1.6926998430781066,-124.75795409627013,15.651448492523212,-29.027747312136835
1698920740137.0,0.01666666753590107,1.746236641345918,6.854059839323162,-0.9906384924210607,-1.0453680076047778,-2.3482623312801123,0.9314932066217064,-124.19906703724466,10.750621277178043,-31.85958472315914
1698920740154.0,0.01666666753590107,2.8166511196628212,6.505045326122641,-2.144931277386099,0.11941139232218265,-2.7988205716788768,-0.6174048992432654,-115.40148285794476,1.4479942343488852,-27.02300824356264
1698920740171.0,0.01666666753590107,3.5319141894593833,5.738004722815751,-3.0669770028352734,0.8882488159179687,-3.6213796485900875,-1.808670739557594,-105.48701931537519,0.5986442028019324,-16.272840320190753
1698920740187.0,0.01666666753590107,3.4409815803855657,5.187770887178182,-3.1771395052969456,0.8207622566223144,-4.208856880950927,-2.1730384508430958,-101.65809722893609,4.893073669976734,-4.1054606511204685
1698920740204.0,0.01666666753590107,2.7553677989214655,3.853182325339317,-3.516502393054962,0.13183043665140867,-5.572654586139321,-2.852393025781959,-102.98163762592282,5.426932354562332,3.9372702310166665
1698920740221.0,0.01666666753590107,1.8530130085006356,2.370172549793124,-3.6053088037550447,-0.7861953856319188,-7.0658876495361325,-3.198205783799104,-100.68086791343651,10.762629603512572,8.134309631641843
1698920740237.0,0.01666666753590107,1.3538050112232565,1.7188970912605523,-3.635700434887409,-1.312621060180664,-7.716960863494872,-3.477129546554945,-91.06616771316048,18.958330682961783,13.179562904534222
1698920740254.0,0.01666666753590107,0.15231412949264048,0.08318506368696689,-3.498496196243167,-2.569725984844565,-9.337236252483725,-3.6270667725821024,-68.4679609196072,30.781883324968682,20.10491795402641
1698920740270.0,0.01666666753590107,-0.7789516981139779,-1.5187369224876164,-3.065694561809301,-3.5520971457883714,-10.920402100262045,-3.363554915828537,-51.31623234758671,31.147834615414208,22.606963096069233
1698920740287.0,0.01666666753590107,-1.0043950689643621,-2.492605920284986,-2.692180982646346,-3.832219324548542,-11.872996839362383,-3.118897013556212,-37.466944635497,25.05739079100698,24.384991110617783
1698920740304.0,0.01666666753590107,-1.3360448981270194,-3.9094817201882597,-2.136573637276888,-4.242075844463706,-13.26013508812785,-2.6756709061438215,-20.576839629444684,9.682170516444717,24.452859285305614
1698920740320.0,0.01666666753590107,-1.6993024562135337,-4.44003879545331,-1.6646552134633064,-4.658666933330894,-13.77159641777873,-2.2430683014133943,-8.335190617773796,3.419278075873008,19.54930255561338
1698920740337.0,0.01666666753590107,-1.8054519236415623,-4.500396525782347,-1.4411708677262067,-4.804713234600425,-13.818433572277426,-2.0319298617040737,-2.455523229501988,-0.7017342756573447,13.575421885807945
1698920740354.0,0.01666666753590107,-1.9670295560419557,-4.54181048618853,-1.2197522223472594,-4.996399297277629,-13.849857469066977,-1.8143567858373746,-0.5243970583161319,-0.2839600988231084,4.903143930134272
1698920740371.0,0.01666666753590107,-1.508038418340683,-4.84776619438529,-1.2914771498650313,-4.5431472877502435,-14.15407130203247,-1.8840879822546615,2.7154710512459763,1.0605680821008965,0.570212259721285
1698920740387.0,0.01666666753590107,-1.3787921529635787,-4.9918613615870475,-1.5046996293067931,-4.414159088787436,-14.298770280346274,-2.086397766809538,7.319016417400455,-0.3028982924008497,-0.08187361098307508
1698920740404.0,0.01666666753590107,-1.4291989826425908,-4.965836693492531,-2.0118764135062692,-4.462343273980915,-14.276325808826089,-2.545934847955778,20.013010928554717,-9.615357605983654,-2.6536029843005893
1698920740420.0,0.01666666753590107,-1.5566311843350529,-4.736283256974816,-2.30074537782371,-4.582202702331543,-14.053065919494628,-2.763208977408521,29.396116489548547,-17.415051147544695,-4.812638374102902
1698920740436.0,0.01666666753590107,-1.6286115479186176,-4.434660025024414,-2.2997511060893534,-4.642356726782023,-13.759477525439857,-2.66788982381355,33.73132634821485,-24.222359183837902,-6.819794475869638
1698920740454.0,0.01666666753590107,-1.6149194149136543,-3.6299306193143126,-2.1517624385803935,-4.605247185571492,-12.966698085242509,-2.38223101718165,32.683076725725485,-28.63421913291738,-9.436063432723525
1698920740471.0,0.01666666753590107,-1.5724524383231997,-2.613893627873063,-1.7550228821307419,-4.535815045166015,-11.961132218933106,-1.8891755511846393,29.90210031835768,-20.62759647271434,-13.499753635087957
1698920740488.0,0.01666666753590107,-1.1141960446372627,-1.8056793026566504,-1.1726543710857629,-4.029890599115193,-11.168801691547035,-1.2051819548008962,25.478265340115875,-2.832230787229817,-15.604335555175757
1698920740504.0,0.01666666753590107,-0.6471265221595763,-1.6950772397339342,-0.9154992264151572,-3.524564118957519,-11.0700402885437,-0.8872025285852956,24.819568726749015,1.6869045398407052,-15.234195651221718
1698920740521.0,0.01666666753590107,0.2577335290804505,-1.7287153054416178,-0.3661106094300747,-2.586935186059773,-11.113286140552162,-0.2762319389891345,26.150212520472557,0.04518823806411346,-10.884782414176373
1698920740537.0,0.01666666753590107,0.7340642163783312,-1.9815245298624038,0.5210591790795326,-2.088491743414104,-11.371560060119629,0.6965612554034217,25.437200535278464,1.0000399061715954,-2.6202844677556207
1698920740553.0,0.01666666753590107,0.9168968182533979,-2.0904472613960503,1.0700853924930096,-1.9078794479370116,-11.478700584411621,1.2975068036844022,17.468205387213025,5.5970757818819346,4.533046714862546
1698920740571.0,0.01666666753590107,1.0404729290395975,-2.6174989588886497,2.586490657162666,-1.8079215286254882,-11.998242344665528,2.8287485856211743,-1.0842400236602798,14.537354138887629,14.499279249359393
1698920740589.0,0.01666666753590107,0.5399988573491573,-2.9823803187847138,3.7217385499179363,-2.375048046875,-12.344503175243734,3.8751648419035596,-46.148067259259015,19.473166436935248,24.628477109244983
1698920740604.0,0.01666666753590107,-0.10501111104786395,-2.819215709453821,3.942762058499455,-3.083132895605266,-12.16269290215373,3.9185596944782533,-82.82479998892056,30.07154023619277,24.924728026757823
1698920740621.0,0.01666666753590107,-1.7994012453004717,-2.4733307264506816,3.094080698338151,-4.825363808441161,-11.796979767608642,2.8051052962378598,-109.21518245117828,40.493111173689925,14.586907161316072
1698920740637.0,0.01666666753590107,-2.603018305854499,-1.676974012288451,1.4472995797395705,-5.639541425976157,-10.97472055042684,0.7389101220395415,-112.79631893490766,51.64235338988731,-2.6003900476940776
1698920740654.0,0.01666666753590107,-2.4903914591059086,-1.1292466065138578,0.7569255981363355,-5.497385994665325,-10.409838011711836,-0.24256328634694216,-92.54581208362785,46.133201352530484,-11.99685759313857
1698920740671.0,0.01666666753590107,-1.5551608195215463,-0.22209552172720431,-0.5271060580283403,-4.514117300359905,-9.491962119293213,-1.745523013183847,-61.54616525244624,33.63995890768759,-17.389711145723947
1698920740687.0,0.01666666753590107,-0.4122995291531086,0.05130640886723995,-0.967953051751852,-3.301903364562988,-9.21872385482788,-2.341679153497517,-19.683993886046032,15.955391910588778,-17.93316880741435
1698920740704.0,0.01666666753590107,-0.03891834419816732,0.09087328010201454,-0.9569042728625238,-2.8818700262874364,-9.190292125591634,-2.352602844702452,6.846201267861376,6.710428633105748,-17.081381038663938
1698920740720.0,0.01666666753590107,0.5050684137433767,0.26180910795629025,-0.20559446878135204,-2.2905028007507324,-9.040804159435629,-1.553388695282489,23.38767250122191,8.449072923126357,-9.99070467540618
1698920740737.0,0.01666666753590107,0.39707887140661474,0.5871925702005625,0.8328167054228485,-2.374749063928425,-8.730008025470376,-0.4622314347967505,27.593752510987244,19.276878753020128,-5.54926232325773
1698920740754.0,0.01666666753590107,0.2864469978675246,0.582187893781066,1.3581459630370138,-2.471414663696289,-8.74646757736206,0.11686623788401483,30.92773518450513,27.628974088989708,0.8451925807765307
1698920740770.0,0.01666666753590107,0.03633651101142168,0.35717093164920805,2.1379338197141884,-2.7244515593931076,-8.981847528076171,0.9841655700799077,39.51018548042256,23.04279234436587,7.306036496656492
1698920740787.0,0.01666666753590107,-0.1285273034527898,-0.2106669497400522,2.972454552575946,-2.907458933313191,-9.554811081916093,1.907130675396323,41.82319147680694,10.865637393932827,11.686819938786059
1698920740804.0,0.01666666753590107,-0.27739947579801083,-0.49193829853534693,3.4184482615381477,-3.087472678375244,-9.836877965003252,2.445825829735771,34.871418109378794,-3.578563423402995,14.210782304101809
1698920740820.0,0.01666666753590107,-0.739154232993722,-0.8487760527074336,4.263474021801352,-3.5989340080261227,-10.187926029857993,3.3846525941159573,12.859133971133184,-21.575903352173498,12.387888484442739
1698920740837.0,0.01666666753590107,-1.4248770277902483,-1.0281728349149226,4.223948067098855,-4.313153998510539,-10.360457017949223,3.365648106981814,-11.16941091104279,-21.20192317435862,6.664140867987394
1698920740854.0,0.01666666753590107,-1.6964646024391055,-1.0077712673991919,3.843381646814942,-4.599111751556396,-10.331129801177978,2.937834636224061,-34.829002634633014,-3.4077634441494244,3.0280343814875113
1698920740870.0,0.01666666753590107,-2.082057326452434,-0.9132043934762477,2.6123019747674463,-4.987570386394858,-10.219649201855063,1.5547342646725475,-47.45377744741743,24.90316170445351,1.5284541829367528
1698920740887.0,0.01666666753590107,-2.0260121986255046,-0.8839519955068826,1.5286657574363052,-4.925171505627036,-10.177002484783529,0.34356735371053215,-37.344066117233886,28.884989528294398,0.030926082705612812
1698920740904.0,0.01666666753590107,-1.7672750454604624,-0.8542670513391494,1.2713107062794267,-4.657769399969279,-10.139293224114178,0.004937456402182579,-13.250618216243511,17.692317554259485,-0.6154306733477082
1698920740921.0,0.01666666753590107,-1.0522630278155207,-0.9888608152240514,1.2676106827177107,-3.9371147002622484,-10.276511491283774,0.007630494878441095,17.313197659094172,-9.055204400640799,-1.250246597498676
1698920740937.0,0.01666666753590107,-0.37083003916740415,-1.6804104164779186,1.89441732429564,-3.2603041107177733,-10.97517004776001,0.6991063002437353,24.55188849053434,-16.960099077119313,1.8228357630511254
1698920740954.0,0.01666666753590107,-0.21627309918403625,-2.1783353882074357,2.30367383249104,-3.1221886024475096,-11.475856885418295,1.1713626507747918,17.287314657234408,-8.579761762705381,8.57162615363025
1698920740971.0,0.01666666753590107,-0.16077771419435738,-3.418828200766444,2.5834245475903153,-3.1078228079646824,-12.707073920109867,1.4817111140377819,0.5875405030064602,1.9727974754772213,15.633474849722322
1698920740987.0,0.01666666753590107,-0.8184078024506568,-4.557334218534827,1.9615771358549594,-3.8090252037048336,-13.830853493389487,0.8532329590510577,-2.3298178666961347,3.1769905620017345,21.16753146434031
1698920741004.0,0.01666666753590107,-1.3471005451485514,-4.715553188157081,1.5460288340389727,-4.393360046386719,-13.971213565716146,0.439933897466585,4.708012255736177,-5.770580089160006,23.822658221156047
1698920741020.0,0.01666666753590107,-2.3582208307147026,-4.9393338864922525,0.6595063304569572,-5.481524116405844,-14.175617363408207,-0.39235038157999513,18.590495967852622,-26.316969881511127,18.942561483715515
1698920741037.0,0.01666666753590107,-3.037981209975481,-5.271013234010338,-0.1885099168591201,-6.204423087908327,-14.501677702000736,-1.1574476687993853,26.043106616550297,-39.8765670727858,8.585622065013252
1698920741054.0,0.01666666753590107,-3.050670887939632,-5.472268212282657,-0.7968347800027579,-6.233902280370891,-14.706831441277265,-1.6687594339117406,23.70374121261154,-43.59052341511525,-2.4352900747462947
1698920741071.0,0.01666666753590107,-2.4285224474310874,-5.542105134096741,-2.0513474231511353,-5.602730575451255,-14.788534157451986,-2.824859925885871,12.871463316358703,-20.68262389176255,-7.33984934814264
1698920741087.0,0.01666666753590107,-1.849521074731648,-4.908875619864464,-2.7961533982962368,-5.013158708898723,-14.161252737969159,-3.5413244073614476,5.215549098807839,1.3758331790459948,-2.071584208990408
1698920741103.0,0.01666666753590107,-1.6019646562725305,-4.5404029574781655,-3.054087126123905,-4.770147532653809,-13.791798663330077,-3.7921171773932874,5.907225707468928,5.328381689462334,6.774263581088687
1698920741120.0,0.01666666753590107,-1.5375342696771024,-3.908935192221403,-3.250515707153082,-4.742015663146972,-13.15135030376017,-3.942951589722186,23.094517366950377,-8.489525572259403,14.179594806577885
1698920741137.0,0.01666666753590107,-1.8965119584873318,-3.687861414757371,-2.4922283191442487,-5.137507849884033,-12.923601286315916,-3.098397246363014,37.40806840485149,-21.939522133017466,13.145988255895379
1698920741154.0,0.01666666753590107,-2.0117001801565286,-3.697827512976527,-1.8748463623851537,-5.283553566631674,-12.930034534233808,-2.3561944029210133,45.39108763883026,-32.18355767096577,9.105588144827044
1698920741170.0,0.01666666753590107,-1.8139120012119412,-3.9073856246918437,-0.4599567313304171,-5.113715178625285,-13.137283199962972,-0.76105758337453,38.62413236015349,-35.384607787762285,6.592877662395243
1698920741188.0,0.01666666753590107,-1.1115168885558844,-4.578949838015437,0.4837696051269769,-4.430020967046916,-13.804966772460936,0.287452886974439,23.181755958124363,-31.152284483658473,7.379323572677082
1698920741204.0,0.01666666753590107,-0.8097057328179478,-5.0132180378705264,0.5186158775806426,-4.149001839447021,-14.232780681610107,0.38022863969691095,4.208161936801719,-26.885110139314666,8.793509117686344
1698920741220.0,0.01666666753590107,-0.5196718163743614,-5.2319771086513995,-0.4215419892728329,-3.8940193626403805,-14.438981299591063,-0.5449813584694638,-10.335301379411662,-25.830388912586713,12.188606616350215
1698920741237.0,0.01666666753590107,-0.6055567866697907,-4.768628944784402,-2.081264422509074,-4.009838867950439,-13.964630680194496,-2.2029655149373224,-9.52575150048861,-36.568825986059096,11.612592857980946
1698920741254.0,0.01666666753590107,-0.8773921985998749,-4.51965535300374,-3.077729867517948,-4.309113783209026,-13.705756456646322,-3.173665015853103,1.8563000614461913,-45.05135061441924,9.70810132962867
1698920741270.0,0.01666666753590107,-1.3528624696761369,-3.645276657006144,-4.330831401759386,-4.8021693953365086,-12.82528879612386,-4.324377991832056,29.603921579951603,-43.25014435292225,-0.11342713727740347
1698920741287.0,0.01666666753590107,-1.7247373417213558,-2.514227384984493,-4.45605937140584,-5.160551456341147,-11.698218364605307,-4.315100611666822,53.2814109604882,-34.99713798633663,-11.332878682222352
1698920741304.0,0.01666666753590107,-1.9415873640105128,-1.8081424778997897,-4.166382013314962,-5.3327846305295825,-11.004050105285645,-3.8416470415746793,77.48762186958089,-22.911036287729033,-24.07140517299145
1698920741320.0,0.01666666753590107,-1.5264330299481748,-0.18705109635293482,-2.746607569360733,-4.821024025671184,-9.402627885326742,-2.1227593391969797,93.70329009132406,-10.496656914590398,-32.73343912557058
1698920741337.0,0.01666666753590107,-0.3377157050728798,1.2145061383873224,-1.0947241591870784,-3.551648232977092,-8.010848532757162,-0.23807488888651132,92.3482352015069,-7.923576951405793,-32.716377313023884
1698920741354.0,0.01666666753590107,0.2934878562897444,1.868489686834812,-0.617854981098324,-2.840719977514446,-7.360822197502851,0.46237880737818776,85.69015313820012,-12.342903151021742,-30.972770036797613
1698920741371.0,0.01666666753590107,1.338015029156208,3.0824633257806298,0.2951075664460659,-1.6964412215635178,-6.145017835998535,1.6427200066395102,67.46821930060327,-25.20929761324265,-26.276618831441983
1698920741388.0,0.01666666753590107,2.1169506529182196,4.042539360547066,0.21452757069095968,-0.8459010817930102,-5.182248324364424,1.7295105474725365,50.39509596064587,-38.71141876265166,-23.212181035782187
1698920741403.0,0.01666666753590107,2.273119996534288,4.4493975754290815,-0.26154198145270346,-0.6208461257383227,-4.774038110351563,1.3887863082334397,36.5034098492833,-41.653099275906115,-19.55801275435244
1698920741420.0,0.01666666753590107,2.0622312207370994,5.232102196335792,-1.3721477465130387,-0.7534250426694751,-3.9909839453548193,0.41030572498738765,23.04315263684459,-33.46909831050514,-15.928689286028614
1698920741438.0,0.01666666753590107,1.7082085239857434,5.85587765352428,-2.5869243724048134,-1.0550944518491625,-3.369689199066162,-0.7366668000921607,16.815913783740346,-21.263333405186202,-17.015123081072936
1698920741456.0,0.01666666753590107,1.6524118179619312,6.246476223000884,-3.0138325648859143,-1.058685462078452,-2.9848201131522654,-1.1155492128118871,13.967058956400951,-12.959964638755498,-19.545812328947505
1698920741471.0,0.01666666753590107,1.8358514458194375,6.825692407494783,-3.6892204281508922,-0.7990648040771484,-2.415300562286377,-1.7317561344422399,17.98209857508103,-8.164106331896024,-23.83853328833445
1698920741487.0,0.01666666753590107,2.016542067229748,7.305203186133504,-3.935613940310478,-0.5520131202697753,-1.9422960968017577,-1.9214982234448192,24.090557023424164,-8.577207271955796,-27.149477733781886
1698920741504.0,0.01666666753590107,2.0848685844808816,7.41317431603074,-3.8498224935173986,-0.4132990615844726,-1.837998686981201,-1.7652756883367895,29.67605179268152,-7.756475519587785,-26.804983482613952
1698920741520.0,0.01666666753590107,2.475433836209774,7.599428709048032,-3.371313585397601,0.05925692948028445,-1.6467600758105516,-1.17121440141052,35.33951829395645,-15.846482836725633,-17.688741950228984
1698920741536.0,0.01666666753590107,2.7428075925558804,7.341161219221353,-2.687000365138054,0.3697548111513257,-1.8920172774165869,-0.38756285504251714,36.105524009373376,-25.352113453693033,-8.813298737032811
1698920741553.0,0.01666666753590107,2.717606515803933,7.029208316436409,-2.3375661652207373,0.37753567428588863,-2.1862053909301755,0.0646424219109118,34.37519120579903,-27.807482790495282,-5.150449285167977
1698920741570.0,0.01666666753590107,2.2490651672080157,6.068773385229706,-1.689607868412137,-0.0615006167538464,-3.12248612408936,0.8307870992913842,28.96797291161547,-8.319303597764346,-1.339733388126656
1698920741587.0,0.01666666753590107,1.7116402520000933,5.584514535281062,-0.8226128529250621,-0.6075286712646484,-3.586813362121582,1.7616823400199413,27.09135453149237,14.622666616715673,6.589450614979189
1698920741604.0,0.01666666753590107,1.6617336269281804,5.246718166187406,-0.3694932376056909,-0.6974604327328503,-3.897908771294355,2.272545703777671,31.40538738863705,16.9871158903813,17.140289712708007
1698920741620.0,0.01666666753590107,1.5139531953424215,4.059881540492177,0.612699059639871,-0.9307456031247973,-5.027223766869306,3.372831296484172,47.83121370095233,-8.526647650398424,32.71535961483755
1698920741637.0,0.01666666753590107,0.9313219417080283,2.240638407385349,1.2640928838551044,-1.5860089622497557,-6.782174752807617,4.1662095793575045,60.42311139816689,-28.665135984195445,40.52187651537943
1698920741653.0,0.01666666753590107,0.528926843714714,1.2081447866618633,1.5146113669902086,-2.0629031286492943,-7.73835728726685,4.582650446099042,61.711401188847184,-30.330438556682104,42.58721643736457
1698920741670.0,0.01666666753590107,-0.09902852950692176,-0.39284488709867,2.495282738278806,-2.7947812331601978,-9.247752380913495,5.734710357445478,26.771882678348778,-15.382120473171268,40.878210899473586
1698920741687.0,0.01666666753590107,-1.027265949203074,-0.6679711572676896,2.773489438806474,-3.804535783331096,-9.493757770538329,6.023510932701826,-21.194409966271603,8.206441551919056,31.40288412430624
1698920741704.0,0.01666666753590107,-1.157461770389974,-0.10074176316559313,1.6480734964966772,-4.02824429321289,-8.958504646411537,4.725255082482099,-67.32098774285447,40.89203520235369,11.177809482400967
1698920741720.0,0.01666666753590107,-0.8046902427434921,0.4695727374702692,0.9027063803374766,-3.722235101263225,-8.437914838409423,3.7862788266286254,-67.17941158173845,44.69133475836245,0.40669910513634
1698920741737.0,0.01666666753590107,0.27505115910619493,1.741229334577918,-0.40968087108731266,-2.6657939109802244,-7.211185762786865,2.3062147491455076,-49.35236854610046,31.679417993232544,-4.382890982375339
1698920741754.0,0.01666666753590107,1.555814022733271,2.688583250415325,-0.5707046689972282,-1.387140879113972,-6.301689576178789,2.014719527977705,-23.740666922811922,5.10427293751046,-3.2874675911662212
1698920741770.0,0.01666666753590107,1.869215078499913,2.9962188745230436,-0.445096760122478,-1.0717048103883862,-6.007651684790849,2.094925868114829,-17.54510136443632,-6.27828256431904,2.341530360462237
1698920741787.0,0.01666666753590107,1.985313985273242,3.65349094312191,0.12237988673895597,-0.9602242110654711,-5.359270194134115,2.625240366795659,-21.66058062240873,-10.316811203554792,6.239479832757375
1698920741804.0,0.01666666753590107,1.2585855186104773,4.190498217439651,0.5958225975103676,-1.702127450506389,-4.843468204930424,3.0024779349178075,-44.26078353874694,8.751103034450674,4.179868305051764
1698920741820.0,0.01666666753590107,0.8497031044244766,4.512106837320328,0.8550536716721951,-2.127546865734458,-4.554519161114096,3.113957365196943,-67.89714152010173,29.86089378709499,-0.9675821001837545
1698920741838.0,0.01666666753590107,0.4447410785526037,5.116885333094,0.7440133634626865,-2.542043612670898,-3.9975685844421385,2.7875987743102013,-87.45891941623414,43.90648455102546,-8.782873659374989
1698920741854.0,0.01666666753590107,0.897271203546226,5.694731398278474,0.24343583139777183,-2.0753239265441894,-3.4949358734130858,1.9416971079953014,-98.81911544004195,40.31058461340509,-17.419601761079214
1698920741870.0,0.01666666753590107,1.199935761243105,5.906924534672498,-0.01519537717476487,-1.739087938635051,-3.33916254337728,1.413924256621301,-102.17458930378328,28.300677090083564,-22.02748301669618
1698920741887.0,0.01666666753590107,1.7351856704995035,6.105310094988345,-0.8766261826634406,-1.1538555625915528,-3.1940146522521973,0.2837128236632794,-105.88891447632793,16.979402899261064,-25.17178621432094
1698920741904.0,0.01666666753590107,2.169537456984818,5.997595570200681,-1.698214953237772,-0.6419447356075048,-3.3637036949157713,-0.9032133069463074,-111.32297882904422,7.597955366688252,-24.187275917166133
1698920741920.0,0.01666666753590107,2.2703224747702477,5.915932016992569,-2.1942811453580857,-0.4902124976560473,-3.47997094399333,-1.677736813354492,-111.50873948390105,6.575438481896908,-17.62980083278636
1698920741937.0,0.01666666753590107,2.0100538742542264,5.476956662359833,-3.2398376612722872,-0.7179609305784106,-3.9395086096614595,-2.9979904690391384,-106.2330330670915,11.120651044331716,-9.925297076366846
1698920741954.0,0.01666666753590107,1.2757114254564046,5.061021991574764,-3.6664199827998876,-1.4299369415283203,-4.3644805733829735,-3.7653319184561256,-90.18557191403825,22.321988820876083,-5.1875722170806435
1698920741969.0,0.01666666753590107,0.9664838559821247,4.644484094199538,-3.5722862395972013,-1.7241244705200194,-4.780472527313232,-3.890428936932981,-74.18790967022355,25.800469268927472,-5.988667602471691
1698920741987.0,0.01666666753590107,1.071861754515767,3.2484523448824882,-3.2238650161147118,-1.599925259399414,-6.170605866241455,-3.78358765131589,-59.35328520808945,25.88710338835991,-1.4245766106143791
1698920742004.0,0.01666666753590107,1.3423948516756294,1.436549053144455,-2.8341590115636586,-1.3314751059934495,-7.971793702697753,-3.5440172266419974,-48.23048265416919,22.044450914141787,6.691481688348132
1698920742020.0,0.01666666753590107,1.3036758294418453,0.5816513026863336,-2.610181913873553,-1.3940236243650317,-8.81066152485311,-3.433136346777901,-33.51406144581133,12.575173979031781,15.31193515680751
1698920742037.0,0.01666666753590107,0.3905252119794488,-0.9491080660283565,-2.2413971167981623,-2.364124501800537,-10.317063281902671,-3.148974244977161,-17.14216801472976,-2.1294888452264837,18.693269824293804
1698920742054.0,0.01666666753590107,-0.7119540913790464,-1.7173177131146191,-1.690786264541745,-3.5097497039243577,-11.069292100524901,-2.630630170075223,-12.199941315277853,-3.6385049501156153,14.988715237356875
1698920742070.0,0.01666666753590107,-1.1466194738581776,-2.1062842974752187,-1.5048744013518094,-3.9728777952998873,-11.44712646549642,-2.4699191644415257,-9.68874115842627,-1.0454110385589919,7.6774058346611325
1698920742087.0,0.01666666753590107,-1.6482076442703604,-2.6654554728060957,-1.5262451061606406,-4.483441591589153,-12.001084874615072,-2.5151097938422113,-3.807248188655365,2.455561862759481,-1.2539115275969168
1698920742104.0,0.01666666753590107,-1.3922630444332957,-3.229459475120902,-1.944357267115265,-4.2217257148742675,-12.566716185870765,-2.934394213446602,4.228121883990612,-0.25523837963083784,-2.147771340643904
1698920742120.0,0.01666666753590107,-1.0566668157324195,-3.435141037663817,-2.198098073297739,-3.886836465398967,-12.774561648449302,-3.165434308325499,13.226765488114536,-3.823705529460511,2.883632869932629
1698920742137.0,0.01666666753590107,-0.7286126729741692,-4.0116169835388655,-2.5436755977869034,-3.5850177108764645,-13.3499182349056,-3.442264094476774,26.092089318183042,-7.188134624977378,11.723013964971603
1698920742154.0,0.01666666753590107,-1.165902850998938,-4.695889871788024,-2.563430099570751,-4.056525800323486,-14.031218829345702,-3.379715576105192,35.28004442175856,-12.598214768423173,13.841315173781018
1698920742171.0,0.01666666753590107,-1.338819039015472,-5.1157478534966705,-2.4191928935497997,-4.264821052496135,-14.448558106231689,-3.1316167213324455,39.622122035635314,-17.07146360398908,12.054502682186186
1698920742187.0,0.01666666753590107,-1.7452675040528176,-5.621580237349868,-1.9067162493765353,-4.704157349395752,-14.953883709606528,-2.4754556096501648,36.20144718607704,-18.436213947333083,6.111531606582819
1698920742204.0,0.01666666753590107,-1.9731895399764179,-5.756068202772736,-1.5785276665836572,-4.947617438451945,-15.088707190594077,-2.052879089697823,28.342667385553508,-21.24965936646784,4.705938012662609
1698920742220.0,0.01666666753590107,-2.2393580121859906,-5.623890267857909,-1.7726970705091951,-5.225344538769126,-14.956426964348553,-2.17019456918668,21.769201120779442,-21.812977510717346,2.3602756011959256
1698920742237.0,0.01666666753590107,-2.8035356175020336,-4.949381817775964,-2.273861462551355,-5.78783258356303,-14.285901446422933,-2.5800526234718038,23.02090329562327,-19.43591629274929,-6.462232365272178
1698920742254.0,0.01666666753590107,-2.773802450278401,-3.9186470234185453,-2.724799642178416,-5.732766237640381,-13.265523795428871,-2.950255781178828,33.193254290685005,-15.640571416269966,-15.096411952642343
1698920742270.0,0.01666666753590107,-2.4862758404806256,-3.396347488889098,-2.8193150781750678,-5.401767565862834,-12.758849115532636,-2.93693829930569,46.29646677935588,-11.827403161151492,-20.006564937525518
1698920742287.0,0.01666666753590107,-1.1695207492351531,-2.7933827645391225,-2.310475913721323,-4.02180987625122,-12.175862180328368,-2.247857088326197,55.62391654389787,-10.576967986398701,-18.453612146696397
1698920742304.0,0.01666666753590107,0.018888824865221976,-2.598311443337798,-0.7847603843927383,-2.7916391357421872,-11.991358430370688,-0.5798454040418378,53.62647894754641,-7.868884211626916,-14.926008978134279
1698920742320.0,0.01666666753590107,0.38761546201258895,-2.5687089167565107,0.15881693551540374,-2.391657820892334,-11.967416413769126,0.49095933396797625,45.722928964560744,-3.490277892295291,-9.820162535793777
1698920742337.0,0.01666666753590107,0.9865855637684464,-3.0379940694570537,2.12491359462142,-1.7826327735900878,-12.435034510040282,2.5692769259028134,18.65166884960655,2.794629528631839,5.37354460780175
1698920742354.0,0.01666666753590107,0.5485308311119675,-2.677553322356939,3.482072884708643,-2.249053476770222,-12.06602934821248,3.9297827134063463,-12.326519234750174,8.37583280465631,16.17583626605094
1698920742370.0,0.01666666753590107,0.15832535260617733,-2.474745269423723,3.8780186604321,-2.6849475242614744,-11.852794593811035,4.250006345202029,-42.68826908613491,14.865339822831642,18.730427760925966
1698920742387.0,0.01666666753590107,-1.125206391212344,-2.090153246885538,3.332722865718603,-4.020912050628662,-11.458349285778402,3.4816169485015327,-77.07530383995474,32.33047845510733,10.272307398470282
1698920742404.0,0.01666666753590107,-1.9276976626068352,-1.1634195097506046,1.9492472311139106,-4.8370352492734785,-10.5282019408077,1.8656804563666693,-83.43719474990391,50.55813940632324,0.7518913429405102
1698920742420.0,0.01666666753590107,-1.6672154193401336,-0.5833826565235852,1.4406167409747839,-4.567388579559326,-9.946111662182211,1.1264708947228268,-69.61946934196882,54.83961616678906,-4.930637149090866
1698920742437.0,0.01666666753590107,-0.6211763806059957,0.14961071575284005,0.3595043430328369,-3.49553413156718,-9.210942699432373,-0.177620602847822,-34.68273754865178,42.851964814878016,-5.40245893299253
1698920742454.0,0.01666666753590107,0.40331396640390155,0.48186172567903995,-0.05123575478382408,-2.4557030075624584,-8.878748388129472,-0.6639429611975327,-6.125994105263498,26.47690217602156,-2.7858738664461176
1698920742470.0,0.01666666753590107,0.782241387309134,0.40370647285282607,-0.11534962277598679,-2.070984436035156,-8.958655453059077,-0.728286802020669,16.24164343115672,11.786490328023117,0.37060441017845225
1698920742487.0,0.01666666753590107,0.9749451025962829,0.24295593892633913,0.03619118425659835,-1.8797475784301756,-9.123705145484209,-0.4993414874639362,34.636398130227825,7.900932312986263,0.8598715110765344
1698920742503.0,0.01666666753590107,0.5687520736247301,-0.03726970020830631,0.38441085728500035,-2.284965917150676,-9.408762442559004,-0.06479410534128546,41.84933744094975,13.34810636004075,-0.719046884212623
1698920742520.0,0.01666666753590107,0.3067664400577545,-0.1910825438261032,0.5053846766183152,-2.5414444777339695,-9.568425765770673,0.15397643668167293,48.352599606339844,20.93619978734115,-2.0957163345451213
1698920742537.0,0.01666666753590107,0.017493863375484944,-0.2623731715798378,1.031117071673274,-2.8230627402707933,-9.646386957329511,0.8264474991844967,55.56593506803363,24.804267395460894,-0.959601771190535
1698920742554.0,0.01666666753590107,-0.34543051723390816,-0.17173136214613913,1.7065099033743143,-3.183389797863364,-9.558400046318768,1.6240158450256565,57.30524615527196,19.65100407235487,-0.6792151419638127
1698920742571.0,0.01666666753590107,-0.5854962876766919,-0.041049218747019764,2.1246178265452382,-3.4222119979858396,-9.428366137695312,2.1660036979346766,53.13490340279142,14.772010410465295,-0.5302957270772313
1698920742587.0,0.01666666753590107,-0.878425341039896,0.14953998860418796,3.145819653403759,-3.711910106603801,-9.237128695568442,3.3252461183634585,36.99092143148213,9.787755849503005,-1.9987880528164124
1698920742604.0,0.01666666753590107,-0.7639908603474498,0.25762217766046525,4.129709109956026,-3.5926492286682126,-9.12909209921956,4.371961211461946,19.038057773596048,8.368246172035718,-1.919564475190023
1698920742621.0,0.01666666753590107,-0.6931999988093972,0.31084698736965655,4.411336432582139,-3.520224336187541,-9.075968996319174,4.668243411177955,-1.1148771573474894,12.152673844900425,0.24610943159871915
1698920742637.0,0.01666666753590107,-0.6258712604239582,0.48334933388829227,4.695970535808802,-3.462763788604736,-8.901940463146566,4.892848796834238,-23.005878586996538,20.936310777915164,4.90557462370515
1698920742654.0,0.01666666753590107,-0.5769754198297858,0.657513476139307,4.396728061515093,-3.429095035497844,-8.724470849609375,4.515762318487418,-26.84931311787463,17.624796011672032,6.477584922979074
1698920742671.0,0.01666666753590107,-0.5081380304470658,0.6547977874398231,4.1349838354885575,-3.3771704947322605,-8.722674613842367,4.180125794308772,-24.471005390383045,10.51094908542865,6.939173375956767
1698920742687.0,0.01666666753590107,-0.5041562673345208,0.6029729076564312,3.445006013596058,-3.3910867918819187,-8.769061686486005,3.4139809570980955,-19.310872604519282,-2.300309315047564,3.0450340820014383
1698920742704.0,0.01666666753590107,-0.4475783478051424,0.41085809817314145,2.8775486559569834,-3.3357214630126952,-8.960598988342285,2.8082483435039407,-16.027715076162753,-9.328888373135918,-2.1892647398517315
1698920742721.0,0.01666666753590107,-0.39661797589659686,0.4181728051006794,2.718175255602598,-3.27227482675761,-8.956858048248291,2.6192561504200564,-15.185899383600557,-10.669063695846214,-8.321823083794435
1698920742737.0,0.01666666753590107,-0.07697948704510926,0.48844870285391806,2.4945167223423717,-2.9167361724853516,-8.896853369140624,2.3452693326097447,-21.19571111730849,-4.682568093530588,-12.892456756546384
1698920742754.0,0.01666666753590107,0.2287619938790798,0.7367062553197145,2.228874319833517,-2.577657070104778,-8.657582256206869,2.024596139548812,-24.380590761245003,0.14967236320129593,-14.447718151314966
1698920742770.0,0.01666666753590107,0.3017763766855001,0.9169827429711818,2.1573124739229677,-2.4672248107910155,-8.486846334838866,1.8908197747277096,-24.31139923740548,7.323602035654472,-15.988455148813518
1698920742786.0,0.01666666753590107,0.2370163197442889,1.0045365232616663,2.1781705530345437,-2.4774001678466795,-8.412177170562744,1.820639994292706,-24.30019772716666,13.216927454388777,-15.707143562562788
1698920742804.0,0.01666666753590107,0.5047641700997948,0.641177842888236,2.2474147696524858,-2.173187211664021,-8.783279596930742,1.8248297741327433,-21.00434629223766,13.691354101685157,-12.168096412046314
1698920742820.0,0.01666666753590107,0.6612269437044859,0.28133973785638805,2.459748775821924,-1.9939210700988768,-9.146748167419434,1.9783580651881172,-18.82193351278392,15.423933183722795,-4.195471018437012
1698920742837.0,0.01666666753590107,0.7146151272818446,-0.6951876654952764,2.6541414671093224,-1.9484312385559082,-10.117148612323403,2.1016589026968924,-14.470069945373833,15.92485242726236,11.514822115106798
1698920742854.0,0.01666666753590107,0.3969096523195505,-2.327854334023595,2.929762242797017,-2.309207208959758,-11.735178852733968,2.3385355582421643,-9.800229482474743,9.651738608597725,24.738043588815742
1698920742871.0,0.01666666753590107,-0.03984335008859634,-3.204809017989039,2.941192568349838,-2.8209675215572116,-12.588562106975912,2.3240208202753214,-10.24167058494819,-2.4647792030444133,37.080137362420835
1698920742887.0,0.01666666753590107,-1.5197507757052777,-5.121628728228807,2.2120020954877138,-4.445433640234172,-14.459182376098632,1.5632629504997282,-16.384431950850423,-21.12379093289555,47.583431513337196
1698920742904.0,0.01666666753590107,-3.5832927867799995,-6.431856755793095,0.4645733217477798,-6.62370823816508,-15.73140069874227,-0.20231084400080143,-15.78848428538847,-32.10305364631342,40.32143778399624
1698920742921.0,0.01666666753590107,-4.48367072416991,-6.809474847665428,-0.6070972941100597,-7.604283747863769,-16.08200218887329,-1.2797011526796966,-8.302055662562772,-25.481219396931905,19.811571574458114
1698920742936.0,0.01666666753590107,-5.028434896224737,-6.942947498565911,-2.4703373898535967,-8.158989468218385,-16.212335957226156,-3.139995988751575,0.2500681932334027,-0.42836382485338576,-13.744413572478754
1698920742954.0,0.01666666753590107,-3.077820468410849,-6.830501269081235,-4.3187925889194005,-6.161028767339885,-16.115819702801108,-4.987421771704406,4.882873209338143,7.750154179510939,-22.112636692626022
1698920742970.0,0.01666666753590107,-1.8814391847789287,-6.353530822575092,-4.995747263109684,-4.915445938165486,-15.656733288031816,-5.640440639838204,21.071447778191157,1.3624840012000279,-15.69202835392955
1698920742987.0,0.01666666753590107,-0.21081220342963933,-5.576296742033958,-5.964572421520948,-3.2269346328184008,-14.89432677426636,-6.4622502866216,63.175916690302984,-28.70081689241959,2.7744742807213663
1698920743004.0,0.01666666753590107,-0.7601067123904823,-4.248760436794162,-5.175079747909307,-3.79555752710551,-13.569586821746825,-5.455488251063879,88.70623490208352,-44.677653889454916,8.401717514063366
1698920743021.0,0.01666666753590107,-1.4869380549058318,-3.8393922849178312,-3.003713029670715,-4.557063292638957,-13.152845510753988,-2.9381354503681183,91.93675728514864,-33.1117120772788,12.849507673271697
1698920743037.0,0.01666666753590107,-1.6634443763688205,-3.5478193223387002,-1.859106941461563,-4.771194995880126,-12.844442993927002,-1.5674545935032889,78.83215143788708,-8.449095975014806,19.040783019074883
1698920743054.0,0.01666666753590107,-2.215772553937137,-3.597086918854713,0.556338545720838,-5.372737578472495,-12.87032971485555,1.0155892111411318,59.11051296423052,3.7887460599674467,20.278148626850857
1698920743070.0,0.01666666753590107,-2.549470255540311,-4.42912752533853,1.7446072865784168,-5.7574567345216865,-13.675531414252518,2.3636744930107145,38.20238525437812,-18.770348509077397,11.204810073963674
1698920743087.0,0.01666666753590107,-2.4419050760954617,-4.777252980744838,1.8183026373863218,-5.664082869775593,-14.011018921881913,2.543240202044323,27.791167176115415,-43.61075102034224,5.656633750783977
1698920743104.0,0.01666666753590107,-1.6673890223413705,-5.322072974640131,0.6713291624587029,-4.891054131969809,-14.547019064983724,1.4951781330499798,19.34200972939808,-55.29634408639864,4.818361645740549
1698920743121.0,0.01666666753590107,-1.0115072390571236,-4.971228323403,-1.6349825442552566,-4.24252504953593,-14.182801137432454,-0.6980608097787946,15.10376294373657,-51.68965586498424,10.93548205461173
1698920743137.0,0.01666666753590107,-0.8104898689329624,-4.647700718158483,-2.6563281634986398,-4.058321159307658,-13.844320877727865,-1.6344927879769353,22.10967409807353,-47.27533192516167,12.614568802617121
1698920743154.0,0.01666666753590107,-0.9074059363305568,-3.607894728595018,-3.9848014573276043,-4.164115237426757,-12.788926858410239,-2.856583390143886,36.04998432613742,-41.05849032752148,3.711267382230584
1698920743170.0,0.01666666753590107,-1.6049863421812653,-2.5366648422420024,-4.108139083182811,-4.8277583023622626,-11.703756709510087,-2.7858042921088635,62.84121693040485,-22.756523748325,-16.77384152600036
1698920743187.0,0.01666666753590107,-1.5460700428321956,-2.0307675764590503,-3.9595594640433784,-4.708196980175376,-11.190797250255942,-2.454506637384742,76.72859660749572,-11.821137316361652,-27.671213686364357
1698920743204.0,0.01666666753590107,-0.5689341521933674,-0.8416974926233292,-3.088049016958475,-3.655796005193889,-9.992648956951498,-1.3845976243719458,83.13170087889675,-4.358262174001919,-31.78794286895488
1698920743221.0,0.01666666753590107,0.1272460314705968,0.9204548029959201,-2.03465610833019,-2.8547862045288084,-8.209569024115801,-0.05461830989420414,88.30035091065551,-3.8399007617562573,-32.675594253489734
1698920743237.0,0.01666666753590107,0.4871268066003918,1.7024954070359468,-1.7105083253607154,-2.4117095520570873,-7.404668938013911,0.48647199595347046,88.62142444315947,-10.175290537725775,-34.10917924328913
1698920743255.0,0.01666666753590107,1.2509373419448733,3.148139036262035,-0.8959379091158509,-1.560271294403076,-5.932980182427167,1.512535875890404,80.83862195941587,-14.348289380019798,-32.79912505481859
1698920743270.0,0.01666666753590107,1.7201105587035417,4.242037850540876,-0.654409957166016,-0.9805749251767992,-4.804114684185385,1.9996061299979686,65.28093318117672,-11.983939997870783,-29.056860993474015
1698920743287.0,0.01666666753590107,1.877413874785602,4.725268526485562,-0.6428656498447061,-0.7523775794431566,-4.298789080810547,2.1537325696095824,49.85612914833475,-5.92154519906386,-25.745334274399834
1698920743304.0,0.01666666753590107,2.121504078438878,5.539222272136807,-0.6876248290255665,-0.4318538321897387,-3.4679999356925486,2.2313947782218455,27.724154482621127,2.9314209287908577,-22.783345901195645
1698920743321.0,0.01666666753590107,2.2176085371926426,6.448653576815128,-1.0782257365897296,-0.2856578933164477,-2.5579046141475437,1.8858815511405467,13.44987873999488,4.1425571160501,-22.369359597864708
1698920743337.0,0.01666666753590107,2.2667218199297783,7.017671023377776,-1.3250965108722448,-0.18659750736653805,-1.996313518193364,1.6581334104791283,4.784941530131677,-1.2523917037848833,-21.160551011008558
1698920743354.0,0.01666666753590107,2.10592715460062,8.02191411665082,-2.1381445398554204,-0.2762313088014722,-1.0052665911018848,0.8628092542350292,4.692630669725308,-13.997793953892364,-19.76106744818775
1698920743370.0,0.01666666753590107,1.8572753421202302,8.65584681071639,-2.764647376181185,-0.466420264788717,-0.3776847273677587,0.2629126852840185,9.707471244677738,-16.335399730346193,-19.64738748718935
1698920743387.0,0.01666666753590107,1.7650521087139843,8.663058057269453,-3.0816125541701913,-0.49799365305155513,-0.37334465233683584,-0.016909341485798358,13.65857004744274,-12.790400923741698,-21.789025744845404
1698920743404.0,0.01666666753590107,2.052632786786556,8.242377653262018,-3.2703169706881043,-0.13512261006459592,-0.7969698776245117,-0.1599637674629688,10.004686926410843,-1.9531021981186665,-20.125510974373995
1698920743421.0,0.01666666753590107,2.247390511994064,7.800221915027499,-3.1669077418789264,0.10354907567128538,-1.2430407434761523,-0.037410569983720776,6.589098860236933,-1.9586107456842818,-16.636802318040516
1698920743437.0,0.01666666753590107,2.2546632794760164,7.5171666054248805,-2.921977872531116,0.15053513712137936,-1.5283996538460254,0.22774784840047357,8.95322455369063,-8.361905195165008,-12.98699340484853
1698920743454.0,0.01666666753590107,2.1209657337784766,6.823532599112391,-2.184399510551989,0.056263300622254604,-2.2146388737320897,1.0122983894348143,15.26544035157994,-12.699114591710833,-3.223508632561164
1698920743471.0,0.01666666753590107,2.2325401488646865,6.021136020264029,-1.4057608239099382,0.16729454874247313,-3.0002357089489697,1.837698534990847,20.65896753157221,-2.612908930669065,10.361853739810087
1698920743487.0,0.01666666753590107,2.4654238988488912,5.388137976700067,-0.8838649017453193,0.35449177556782957,-3.603722995868325,2.411707798491418,23.72861334647414,3.3399755241843407,28.13365164412007
1698920743504.0,0.01666666753590107,2.781505279740691,3.5814836915314197,0.051233343631029125,0.5348049419678748,-5.347000495147705,3.4283462629571555,32.18565453904097,4.017646616508907,57.04477689127352
1698920743520.0,0.01666666753590107,2.047802297890186,1.3932050014585255,1.3068252333834767,-0.3583823532655835,-7.461381589838862,4.767603401128947,40.615112012644694,3.748832568892008,75.5239493133914
1698920743537.0,0.01666666753590107,1.1860247247904538,-0.0657867696404457,2.183897698509693,-1.4047978240966796,-8.834304850769042,5.729473041313886,30.38487174927252,-0.16294527504826867,81.5617409170343
1698920743554.0,0.01666666753590107,-1.5527885374322532,-2.519922966277599,3.3406089427933097,-4.3715123717159035,-11.205909479191899,6.915351343370974,-18.041135315172035,-4.363381827671667,66.71795034103404
1698920743570.0,0.01666666753590107,-3.885193374367058,-3.1714784107953307,2.5910519737288356,-6.8254197280332445,-11.853242922100424,6.077081779369712,-57.5595409282607,8.139439103708522,38.569050299591915
1698920743587.0,0.01666666753590107,-4.244563277365267,-3.1317431972563265,1.840671413321793,-7.253982409723102,-11.85533960211873,5.15920413338542,-73.26502816994976,26.84038435308213,9.222374134350506
1698920743604.0,0.01666666753590107,-3.159323862621188,-2.116405293995142,0.3418240171745419,-6.186916657312214,-10.92219950507283,3.4178722152158616,-60.78063082008204,27.65410577004077,-16.407517990245065
1698920743620.0,0.01666666753590107,-1.0453761909112333,-0.4638987834870815,-0.8713347982570528,-4.039766096441448,-9.326013432201743,2.072626065762341,-40.104473409916196,9.518805198102706,-23.88305758398647
1698920743637.0,0.01666666753590107,-0.1309448859885335,0.32328093700706956,-1.0083402994588018,-3.069665511266887,-8.580667943352461,1.8646321346238255,-22.39346845808756,-8.63991353117839,-23.255667142680366
1698920743654.0,0.01666666753590107,1.124391567698121,1.8410884696900844,-1.2235983763813971,-1.7377414924621581,-7.101501399230957,1.6063587995782493,-17.14271272231607,-15.931861908898085,-16.175940426435783
1698920743670.0,0.01666666753590107,1.7561089238017797,3.548403259706497,-1.0809808805167673,-1.064222637939453,-5.418078356933593,1.7151462142944336,-21.28238963297054,-11.359492514323307,-11.247683171383844
1698920743687.0,0.01666666753590107,1.8661884241551159,4.208340163600445,-0.905182415062189,-0.9268553176879882,-4.782866728973389,1.8384470152705907,-27.71640734055504,0.21032332245309845,-8.765287629809498
