timestamp,interval,accx,accy,accz,accGx,accGy,accGz,alpha,beta,gamma
1698924288.006,16,0.0,0.0,0.0,-0.1,9.1,-2.7,-0.7,-1.3,0.0
1698924288.023,16,0.0,0.0,0.0,-0.1,9.1,-2.7,-0.7,-1.4,-0.2
1698924288.04,16,0.0,0.0,0.0,-0.2,9.1,-2.7,-0.8,-1.3,-0.2
1698924288.057,16,0.0,0.0,0.0,-0.1,9.1,-2.7,-0.6000000000000001,-1.4,-0.2
1698924288.074,16,0.0,0.0,0.0,-0.1,9.1,-2.7,-0.30000000000000004,-0.9,-0.30000000000000004
1698924288.09,16,0.0,0.0,0.0,-0.2,9.1,-2.8000000000000003,-0.30000000000000004,-1.0,-0.1
1698924288.107,16,0.0,0.0,0.0,-0.2,9.1,-2.7,-0.4,-1.2000000000000002,0.0
1698924288.124,16,0.0,0.0,0.0,-0.2,9.1,-2.7,-0.4,-1.0999999999999999,0.0
1698924288.14,16,0.0,0.0,0.0,-0.2,9.1,-2.7,-0.7,-1.0,-0.1
1698924288.156,16,0.0,0.0,0.0,-0.2,9.1,-2.7,-0.9,-1.0,-0.2
1698924288.173,16,0.0,0.0,0.0,-0.2,9.1,-2.7,-1.0999999999999999,-0.8,-0.2
1698924288.19,16,0.0,0.0,0.0,-0.2,9.1,-2.7,-1.2000000000000002,-0.9,-0.2
1698924288.208,16,0.0,0.0,0.0,-0.2,9.1,-2.6,-1.5000000000000002,-0.9,-0.30000000000000004
1698924288.223,16,0.0,0.0,0.0,-0.2,9.1,-2.6,-1.6,-0.8,-0.4
1698924288.239,16,0.0,0.0,0.0,-0.2,9.1,-2.7,-1.7,-0.7,-0.30000000000000004
1698924288.256,16,0.0,0.0,0.0,-0.2,9.200000000000001,-2.7,-1.5000000000000002,-0.8,-0.4
1698924288.273,16,0.0,0.0,0.0,-0.1,9.1,-2.6,-1.0999999999999999,-0.4,-0.4
1698924288.289,16,0.0,0.0,0.0,-0.2,9.200000000000001,-2.6,-1.0,-0.30000000000000004,-0.5
1698924288.306,16,0.0,0.0,0.0,-0.2,9.1,-2.6,-0.8,0.0,-0.4
1698924288.323,16,0.0,0.0,0.0,-0.2,9.200000000000001,-2.6,-0.7,0.0,-0.30000000000000004
1698924288.34,16,0.0,0.0,0.0,-0.2,9.1,-2.6,-0.1,0.2,-0.2
1698924288.356,16,0.0,0.0,0.0,-0.2,9.200000000000001,-2.6,0.0,0.0,-0.1
1698924288.373,16,0.0,0.0,0.0,-0.2,9.200000000000001,-2.6,0.0,-0.9,-0.1
1698924288.389,16,0.0,0.0,0.1,-0.2,9.1,-2.6,0.30000000000000004,-0.5,-0.1
1698924288.407,16,0.0,0.0,0.0,-0.2,9.200000000000001,-2.7,0.2,-0.4,-0.1
1698924288.423,16,0.0,0.0,-0.1,-0.2,9.1,-2.7,-0.1,-0.6000000000000001,-0.1
1698924288.44,16,0.0,0.0,-0.2,-0.2,9.1,-2.8000000000000003,-0.9,-1.3,-0.2
1698924288.456,16,0.0,0.0,-0.1,-0.2,9.1,-2.8000000000000003,-1.7,-1.5000000000000002,0.0
1698924288.473,16,0.0,0.0,-0.1,-0.2,9.1,-2.8000000000000003,-2.0,-1.6,0.0
1698924288.491,16,0.0,0.0,-0.1,-0.2,9.1,-2.7,-2.1999999999999997,-1.5000000000000002,0.0
1698924288.507,16,0.0,0.0,0.0,-0.2,9.1,-2.7,-2.3000000000000003,-1.2000000000000002,0.0
1698924288.524,16,0.0,0.0,0.0,-0.2,9.200000000000001,-2.6,-2.1999999999999997,-1.0,-0.2
1698924288.54,16,0.0,0.0,0.1,-0.2,9.200000000000001,-2.6,-1.5000000000000002,-0.6000000000000001,-0.1
1698924288.556,16,0.0,0.0,0.1,-0.2,9.1,-2.5,-0.9,-0.2,-0.30000000000000004
1698924288.573,16,0.0,0.0,0.1,-0.2,9.200000000000001,-2.5,-0.6000000000000001,0.0,-0.2
1698924288.59,16,0.0,0.0,0.1,-0.2,9.200000000000001,-2.5,0.0,0.1,-0.2
1698924288.606,16,0.0,0.0,0.1,-0.2,9.200000000000001,-2.6,0.2,0.0,-0.2
1698924288.622,16,0.0,0.0,0.0,-0.2,9.200000000000001,-2.5,0.4,-0.1,-0.1
1698924288.64,16,0.0,0.0,0.0,-0.2,9.200000000000001,-2.6,0.30000000000000004,0.0,-0.1
1698924288.656,16,0.0,0.0,0.0,-0.2,9.200000000000001,-2.6,0.5,0.2,-0.1
1698924288.673,16,0.0,0.0,0.0,-0.2,9.1,-2.6,0.5,0.1,-0.2
1698924288.69,16,0.0,0.0,0.0,-0.2,9.200000000000001,-2.6,0.4,0.2,-0.1
1698924288.706,16,0.0,0.0,0.0,-0.2,9.1,-2.6,0.5,0.1,-0.1
1698924288.723,16,0.0,0.0,0.0,-0.2,9.1,-2.6,0.4,0.0,0.0
1698924288.739,16,0.0,0.0,0.0,-0.2,9.1,-2.6,0.30000000000000004,0.1,-0.1
1698924288.756,16,0.0,0.0,0.0,-0.2,9.1,-2.6,0.1,0.1,-0.1
1698924288.774,16,0.0,0.0,0.0,-0.2,9.1,-2.7,0.0,0.2,0.0
1698924288.79,16,0.0,0.0,0.0,-0.2,9.1,-2.7,0.2,0.4,0.0
1698924288.806,16,0.0,0.0,0.0,-0.2,9.200000000000001,-2.7,0.6000000000000001,0.9,0.30000000000000004
1698924288.823,16,0.0,0.0,0.0,-0.2,9.1,-2.7,0.5,0.6000000000000001,0.2
1698924288.84,16,0.0,0.0,0.0,-0.2,9.200000000000001,-2.7,0.5,0.5,0.2
1698924288.856,16,0.0,0.0,-0.1,-0.2,9.200000000000001,-2.7,0.1,-0.2,0.30000000000000004
1698924288.873,16,0.0,0.0,0.0,-0.2,9.1,-2.7,-0.6000000000000001,-0.5,0.1
1698924288.89,16,0.0,0.0,0.0,-0.2,9.1,-2.7,-0.7,-0.4,0.1
1698924288.906,16,0.0,0.0,0.0,-0.2,9.1,-2.7,-0.8,-0.2,0.30000000000000004
1698924288.923,16,0.0,0.0,0.1,-0.2,9.1,-2.6,-0.6000000000000001,-0.1,0.2
1698924288.939,16,0.0,0.0,0.0,-0.2,9.1,-2.6,-0.4,-0.2,0.30000000000000004
1698924288.956,16,0.0,0.0,0.0,-0.2,9.200000000000001,-2.6,-0.1,-0.1,0.1
1698924288.973,16,0.0,0.0,0.1,-0.2,9.200000000000001,-2.6,0.1,0.0,0.0
1698924288.989,16,0.0,0.0,0.1,-0.2,9.200000000000001,-2.6,0.30000000000000004,0.1,0.1
1698924289.006,16,0.0,0.0,0.0,-0.2,9.200000000000001,-2.7,0.2,0.4,0.1
1698924289.023,16,0.0,0.0,0.0,-0.2,9.1,-2.6,0.0,0.1,0.0
1698924289.04,16,0.0,0.0,0.0,-0.2,9.1,-2.7,-0.30000000000000004,0.30000000000000004,0.0
1698924289.056,16,0.0,0.0,0.0,-0.2,9.1,-2.6,-0.4,0.30000000000000004,0.0
1698924289.073,16,0.0,0.0,0.0,-0.2,9.200000000000001,-2.6,-0.8,0.1,0.0
1698924289.09,16,0.0,0.0,0.0,-0.2,9.200000000000001,-2.6,-0.7,-0.1,0.1
1698924289.107,16,0.0,0.0,0.0,-0.2,9.200000000000001,-2.7,-0.9,-0.2,-0.1
1698924289.124,16,0.0,0.0,0.0,-0.2,9.1,-2.6,-0.9,-0.30000000000000004,-0.1
1698924289.139,16,0.0,0.0,0.0,-0.2,9.1,-2.6,-0.6000000000000001,-0.7,0.0
1698924289.156,16,0.0,0.0,0.0,-0.2,9.200000000000001,-2.6,-0.5,-0.5,0.0
1698924289.173,16,0.1,0.0,0.0,-0.1,9.200000000000001,-2.6,-0.30000000000000004,-0.5,-0.2
1698924289.19,16,0.0,0.0,0.0,-0.2,9.200000000000001,-2.6,-0.1,-0.5,-0.1
1698924289.208,16,0.0,0.0,0.0,-0.2,9.200000000000001,-2.6,0.30000000000000004,-0.6000000000000001,-0.2
1698924289.223,16,0.0,0.0,0.0,-0.2,9.200000000000001,-2.6,0.4,-0.7,-0.2
1698924289.239,16,0.0,0.0,0.0,-0.2,9.200000000000001,-2.6,0.2,-0.6000000000000001,-0.2
1698924289.257,16,0.0,0.0,0.0,-0.2,9.200000000000001,-2.6,0.1,-0.5,-0.1
1698924289.273,16,0.0,0.0,0.0,-0.2,9.200000000000001,-2.6,0.0,-0.5,-0.1
1698924289.29,16,0.0,0.0,0.0,-0.2,9.1,-2.6,-0.2,-0.5,-0.1
1698924289.306,16,0.0,0.0,0.0,-0.2,9.1,-2.6,-0.2,-0.2,0.0
1698924289.323,16,0.0,0.0,0.0,-0.2,9.200000000000001,-2.6,0.0,-0.1,0.0
1698924289.339,16,0.0,0.0,0.0,-0.2,9.200000000000001,-2.6,0.0,-0.2,0.0
1698924289.357,16,0.0,0.0,0.0,-0.2,9.200000000000001,-2.6,0.30000000000000004,-1.0,-0.2
1698924289.373,16,0.0,0.0,0.0,-0.2,9.1,-2.6,0.1,-1.5000000000000002,-0.30000000000000004
1698924289.391,16,0.0,0.0,0.0,-0.2,9.1,-2.6,0.1,-1.6,-0.30000000000000004
1698924289.406,16,0.0,0.0,0.0,-0.2,9.200000000000001,-2.6,0.30000000000000004,-1.9,-0.5
1698924289.423,16,0.0,0.0,0.0,-0.2,9.1,-2.6,0.2,-1.3,-0.5
1698924289.44,16,0.0,0.0,0.0,-0.2,9.1,-2.6,0.0,-1.0999999999999999,-0.6000000000000001
1698924289.457,16,0.0,0.0,0.0,-0.2,9.1,-2.6,-0.4,-0.4,-0.5
1698924289.473,16,0.0,0.0,0.0,-0.2,9.1,-2.6,-0.4,0.2,-0.5
1698924289.489,16,0.0,0.0,0.0,-0.2,9.200000000000001,-2.6,0.0,0.7,-0.30000000000000004
1698924289.507,16,0.0,0.0,0.0,-0.30000000000000004,9.200000000000001,-2.6,0.2,0.8,-0.2
1698924289.523,16,0.0,0.0,0.0,-0.30000000000000004,9.200000000000001,-2.6,0.7,1.0,0.0
1698924289.539,16,0.0,0.0,0.0,-0.30000000000000004,9.1,-2.6,0.7,1.0,0.0
1698924289.556,16,0.0,0.0,0.0,-0.30000000000000004,9.1,-2.6,0.7,1.0999999999999999,0.0
1698924289.573,16,0.0,0.0,0.0,-0.30000000000000004,9.200000000000001,-2.6,0.7,0.7,0.1
1698924289.59,16,0.0,0.0,0.0,-0.2,9.200000000000001,-2.6,0.7,0.6000000000000001,0.2
1698924289.606,16,0.0,0.0,0.0,-0.2,9.200000000000001,-2.6,0.7,0.30000000000000004,0.1
1698924289.623,16,0.0,0.0,0.0,-0.2,9.200000000000001,-2.6,0.5,0.1,0.2
1698924289.639,16,0.0,0.0,0.0,-0.2,9.200000000000001,-2.6,0.30000000000000004,-0.2,0.2
1698924289.659,16,0.0,0.0,0.0,-0.2,9.200000000000001,-2.6,0.30000000000000004,-0.2,0.30000000000000004
1698924289.673,16,0.0,0.0,0.0,-0.2,9.200000000000001,-2.7,0.0,-0.4,0.30000000000000004
1698924289.691,16,0.0,0.0,0.0,-0.2,9.1,-2.7,-0.30000000000000004,-0.6000000000000001,0.1
1698924289.706,16,0.0,0.0,-0.1,-0.2,9.1,-2.7,-0.4,-0.4,0.2
1698924289.723,16,0.0,0.0,0.0,-0.2,9.1,-2.6,-0.6000000000000001,0.1,0.30000000000000004
1698924289.74,16,0.0,0.0,0.0,-0.2,9.1,-2.6,-0.6000000000000001,0.2,0.30000000000000004
1698924289.757,16,0.0,0.0,0.0,-0.2,9.1,-2.6,-0.8,0.1,0.1
1698924289.773,16,0.0,0.0,0.0,-0.2,9.200000000000001,-2.6,-0.7,0.0,0.1
1698924289.79,16,0.0,0.0,0.0,-0.2,9.200000000000001,-2.6,-0.1,-0.2,0.0
1698924289.807,16,0.0,0.0,0.0,-0.2,9.1,-2.6,0.30000000000000004,-0.4,-0.1
1698924289.823,16,0.0,0.0,0.0,-0.2,9.200000000000001,-2.6,0.5,-0.4,-0.2
1698924289.841,16,0.0,0.0,0.0,-0.2,9.1,-2.6,0.7,-0.4,-0.2
1698924289.856,16,0.0,0.0,0.0,-0.2,9.1,-2.6,0.8,-0.2,-0.1
1698924289.874,16,0.0,0.0,0.0,-0.2,9.200000000000001,-2.6,1.0,-0.4,-0.2
1698924289.889,16,0.0,0.0,0.0,-0.2,9.200000000000001,-2.6,0.7,-0.1,-0.1
1698924289.907,16,0.0,0.0,0.0,-0.2,9.1,-2.6,0.8,-0.1,-0.2
1698924289.924,16,0.0,0.0,0.0,-0.2,9.200000000000001,-2.6,0.7,0.0,-0.2
1698924289.939,16,0.0,0.0,0.0,-0.2,9.200000000000001,-2.7,0.6000000000000001,0.2,-0.1
1698924289.956,16,0.0,0.0,0.0,-0.2,9.1,-2.6,0.7,0.0,-0.1
1698924289.973,16,0.0,0.0,0.0,-0.2,9.200000000000001,-2.6,0.8,0.2,-0.1
1698924289.99,16,0.0,0.0,0.0,-0.2,9.1,-2.7,0.5,-0.1,0.1
1698924290.006,16,0.0,0.0,0.0,-0.2,9.1,-2.7,0.30000000000000004,-0.1,0.0
1698924290.023,16,0.0,0.0,0.0,-0.2,9.1,-2.7,-0.1,0.1,-0.1
1698924290.04,16,0.0,0.0,0.0,-0.2,9.200000000000001,-2.6,-0.30000000000000004,0.2,0.0
1698924290.056,16,0.0,0.0,0.0,-0.2,9.200000000000001,-2.7,-0.4,0.0,0.0
1698924290.072,16,0.0,0.0,0.0,-0.2,9.200000000000001,-2.7,-0.6000000000000001,0.1,0.0
1698924290.089,16,0.0,0.0,0.0,-0.30000000000000004,9.1,-2.7,-0.8,0.9,0.30000000000000004
1698924290.106,16,0.0,0.0,-0.1,-0.30000000000000004,9.200000000000001,-2.7,-0.9,1.2000000000000002,0.30000000000000004
1698924290.123,16,0.0,0.0,0.0,-0.2,9.200000000000001,-2.7,-0.8,1.0999999999999999,0.30000000000000004
1698924290.139,16,0.0,0.0,0.0,-0.2,9.200000000000001,-2.6,-0.9,0.5,0.2
1698924290.156,16,0.0,0.0,0.0,-0.2,9.200000000000001,-2.6,-0.9,0.5,0.1
1698924290.173,16,0.0,0.0,0.0,-0.2,9.200000000000001,-2.6,-0.8,0.6000000000000001,0.1
1698924290.189,16,0.0,0.0,0.1,-0.2,9.200000000000001,-2.5,-0.2,1.0,0.1
1698924290.206,16,0.0,0.0,0.1,-0.2,9.200000000000001,-2.5,0.30000000000000004,1.2000000000000002,0.1
1698924290.223,16,0.0,0.0,0.1,-0.2,9.200000000000001,-2.6,0.8,0.8,0.0
1698924290.24,16,0.0,0.0,0.0,-0.2,9.200000000000001,-2.6,1.3,-0.1,0.0
1698924290.256,16,0.0,0.0,0.0,-0.2,9.200000000000001,-2.6,1.3,-0.9,-0.1
1698924290.273,16,0.0,0.0,-0.1,-0.2,9.200000000000001,-2.7,0.9,-1.4,-0.1
1698924290.289,16,0.0,0.0,0.0,-0.2,9.1,-2.7,-0.1,-1.5000000000000002,-0.2
1698924290.308,16,0.0,0.0,0.0,-0.2,9.1,-2.7,-0.1,-1.5000000000000002,0.0
1698924290.323,16,0.0,-0.1,0.0,-0.30000000000000004,9.1,-2.7,-0.9,-1.0,0.0
1698924290.339,16,0.0,-0.1,0.0,-0.2,9.1,-2.7,-2.3000000000000003,-0.7,0.1
1698924290.356,16,0.1,0.0,-0.1,-0.2,9.1,-2.7,-2.5,-0.7,0.2
1698924290.373,16,0.0,0.0,0.0,-0.2,9.1,-2.6,-2.8,-0.2,0.1
1698924290.39,16,0.0,0.0,0.0,-0.2,9.1,-2.7,-2.8,0.1,0.0
1698924290.406,16,0.0,0.0,0.0,-0.2,9.200000000000001,-2.7,-2.7,0.1,0.0
1698924290.424,16,0.0,0.0,0.0,-0.2,9.200000000000001,-2.6,-2.1999999999999997,-0.2,0.0
1698924290.439,16,0.0,0.0,0.1,-0.2,9.200000000000001,-2.5,-1.8,-0.2,0.1
1698924290.456,16,0.0,0.0,0.1,-0.2,9.200000000000001,-2.5,-1.0999999999999999,-0.4,0.0
1698924290.473,16,0.0,0.0,0.1,-0.2,9.200000000000001,-2.5,-0.8,-0.4,0.0
1698924290.49,16,0.0,0.0,0.1,-0.2,9.200000000000001,-2.5,0.2,0.0,0.0
1698924290.506,16,0.0,0.0,0.1,-0.2,9.200000000000001,-2.5,0.8,0.4,0.1
1698924290.523,16,0.0,0.0,0.1,-0.30000000000000004,9.200000000000001,-2.5,1.0,0.4,0.0
1698924290.539,16,0.0,0.0,0.0,-0.2,9.200000000000001,-2.6,1.0,0.30000000000000004,0.0
1698924290.556,16,0.0,0.0,-0.1,-0.2,9.1,-2.6,0.8,0.1,0.0
1698924290.574,16,0.0,0.0,-0.1,-0.2,9.1,-2.7,0.5,0.0,0.0
1698924290.59,16,0.0,0.0,-0.1,-0.2,9.200000000000001,-2.6,0.5,-0.30000000000000004,-0.1
1698924290.606,16,0.0,0.0,0.0,-0.2,9.1,-2.6,0.4,-0.4,-0.1
1698924290.623,16,0.0,0.0,0.0,-0.2,9.1,-2.6,0.5,-0.30000000000000004,-0.1
1698924290.64,16,0.0,0.0,0.0,-0.2,9.1,-2.6,0.30000000000000004,-0.1,0.0
1698924290.656,16,0.0,0.0,0.0,-0.2,9.200000000000001,-2.6,0.4,0.0,-0.2
1698924290.674,16,0.0,0.0,0.0,-0.2,9.200000000000001,-2.6,0.30000000000000004,-0.2,-0.30000000000000004
1698924290.691,16,0.0,0.0,0.0,-0.2,9.1,-2.6,0.0,-0.6000000000000001,-0.2
1698924290.706,16,0.0,0.0,0.0,-0.30000000000000004,9.200000000000001,-2.6,-0.5,-0.9,0.0
1698924290.724,16,0.0,0.0,0.0,-0.30000000000000004,9.200000000000001,-2.6,-0.5,-1.2000000000000002,-0.1
1698924290.74,16,0.0,0.0,0.0,-0.2,9.200000000000001,-2.6,-0.4,-1.0999999999999999,-0.2
1698924290.756,16,0.0,0.0,0.0,-0.2,9.200000000000001,-2.6,-0.6000000000000001,-1.3,-0.2
1698924290.775,16,0.0,0.0,0.1,-0.2,9.200000000000001,-2.6,-0.7,-1.5000000000000002,-0.30000000000000004
1698924290.79,16,0.0,0.0,0.1,-0.2,9.200000000000001,-2.5,-0.7,-1.6,-0.30000000000000004
1698924290.806,16,0.0,0.0,0.0,-0.2,9.200000000000001,-2.5,-0.6000000000000001,-1.3,-0.30000000000000004
1698924290.822,16,0.0,0.0,0.0,-0.2,9.200000000000001,-2.6,-0.6000000000000001,-1.0,-0.2
1698924290.84,16,0.0,0.0,0.0,-0.2,9.200000000000001,-2.6,-0.4,-1.0,-0.2
1698924290.856,16,0.0,0.0,0.0,-0.2,9.200000000000001,-2.6,-0.1,-0.7,-0.2
1698924290.873,16,0.0,0.0,0.0,-0.2,9.1,-2.6,-0.1,-0.2,-0.2
1698924290.889,16,0.0,0.0,0.0,-0.2,9.200000000000001,-2.6,0.1,-0.2,-0.1
1698924290.906,16,0.0,0.0,0.0,-0.2,9.200000000000001,-2.6,0.5,0.2,-0.2
1698924290.923,16,0.0,0.0,0.0,-0.30000000000000004,9.1,-2.6,0.5,0.5,-0.2
1698924290.939,16,0.0,0.0,0.0,-0.30000000000000004,9.200000000000001,-2.6,0.6000000000000001,0.9,-0.1
1698924290.956,16,0.0,0.0,0.0,-0.30000000000000004,9.200000000000001,-2.6,0.8,1.0,0.0
1698924290.973,16,0.0,0.0,0.0,-0.30000000000000004,9.200000000000001,-2.6,1.0,1.0999999999999999,0.1
1698924290.991,16,0.0,0.0,0.0,-0.30000000000000004,9.200000000000001,-2.6,0.7,0.8,0.1
1698924291.008,16,0.0,0.0,0.0,-0.2,9.200000000000001,-2.6,0.7,0.7,0.2
1698924291.023,16,0.0,0.0,0.0,-0.30000000000000004,9.200000000000001,-2.6,0.5,0.7,0.30000000000000004
1698924291.04,16,0.0,0.0,0.0,-0.30000000000000004,9.200000000000001,-2.6,0.30000000000000004,0.5,0.30000000000000004
1698924291.056,16,0.0,0.0,0.0,-0.30000000000000004,9.200000000000001,-2.6,-0.30000000000000004,0.2,0.4
1698924291.073,16,0.0,0.0,0.0,-0.2,9.200000000000001,-2.6,-0.6000000000000001,0.2,0.30000000000000004
1698924291.09,16,0.0,0.0,0.0,-0.2,9.200000000000001,-2.6,-0.8,-0.1,0.30000000000000004
1698924291.107,16,0.0,0.0,0.0,-0.2,9.200000000000001,-2.6,-0.6000000000000001,-0.5,0.2
1698924291.123,16,0.0,0.0,0.0,-0.2,9.200000000000001,-2.6,-0.30000000000000004,-0.7,0.2
1698924291.14,16,0.0,0.0,0.1,-0.2,9.1,-2.5,0.30000000000000004,-0.30000000000000004,0.1
1698924291.156,16,0.0,0.0,0.0,-0.2,9.200000000000001,-2.5,0.5,-0.2,0.0
1698924291.173,16,0.0,0.0,0.0,-0.2,9.200000000000001,-2.6,1.4,0.0,0.0
1698924291.189,16,0.0,0.0,0.0,-0.2,9.200000000000001,-2.6,1.6,0.1,0.0
1698924291.207,16,0.0,0.0,0.0,-0.2,9.200000000000001,-2.6,1.8,-0.2,0.0
1698924291.223,16,0.0,0.0,0.0,-0.2,9.200000000000001,-2.7,1.8,-0.30000000000000004,0.0
1698924291.241,16,0.0,0.0,0.0,-0.2,9.1,-2.6,1.8,-0.7,0.0
1698924291.257,16,0.0,0.0,0.0,-0.2,9.1,-2.7,1.4,-0.9,-0.2
1698924291.273,16,0.0,0.0,0.0,-0.30000000000000004,9.200000000000001,-2.6,1.2000000000000002,-1.3,-0.30000000000000004
1698924291.292,16,0.0,0.0,0.0,-0.30000000000000004,9.1,-2.6,1.0,-1.2000000000000002,-0.2
1698924291.306,16,0.0,0.0,0.0,-0.2,9.1,-2.7,0.5,-1.0,0.0
1698924291.323,16,0.0,0.0,-0.1,-0.30000000000000004,9.1,-2.7,0.0,-1.3,-0.1
1698924291.339,16,0.0,0.0,-0.1,-0.30000000000000004,9.1,-2.7,-0.4,-1.6,-0.2
1698924291.358,16,0.0,0.0,0.0,-0.30000000000000004,9.1,-2.7,-1.0999999999999999,-1.7,0.0
1698924291.373,16,0.0,0.0,0.0,-0.2,9.200000000000001,-2.7,-1.2000000000000002,-1.2000000000000002,0.0
1698924291.389,16,0.0,0.0,0.0,-0.2,9.200000000000001,-2.6,-1.5000000000000002,-0.9,0.0
1698924291.406,16,0.0,0.0,0.0,-0.2,9.200000000000001,-2.7,-1.5000000000000002,-1.0,0.0
1698924291.423,16,0.0,0.0,0.0,-0.2,9.1,-2.6,-1.7,-1.0999999999999999,0.0
1698924291.44,16,0.0,0.0,0.0,-0.2,9.200000000000001,-2.6,-1.8,-1.0,0.0
1698924291.457,16,0.0,0.0,0.1,-0.30000000000000004,9.200000000000001,-2.6,-1.8,-0.7,0.0
1698924291.473,16,0.0,0.0,0.0,-0.30000000000000004,9.200000000000001,-2.6,-1.3,-0.4,0.1
1698924291.489,16,0.0,0.0,0.0,-0.2,9.200000000000001,-2.6,-1.0,-0.1,0.0
1698924291.507,16,0.0,0.0,0.0,-0.2,9.200000000000001,-2.6,-0.8,-0.1,0.0
1698924291.523,16,0.0,0.0,0.0,-0.30000000000000004,9.200000000000001,-2.6,-0.8,-0.2,0.0
1698924291.539,16,0.0,0.0,0.0,-0.30000000000000004,9.200000000000001,-2.6,-0.6000000000000001,-0.2,0.0
1698924291.556,16,0.0,0.0,0.0,-0.2,9.200000000000001,-2.6,-0.4,-0.1,0.0
1698924291.573,16,0.0,0.0,0.0,-0.2,9.200000000000001,-2.6,-0.2,-0.1,0.1
1698924291.591,16,0.0,0.0,0.0,-0.2,9.200000000000001,-2.6,0.1,-0.1,0.0
1698924291.607,16,0.0,0.0,0.0,-0.2,9.200000000000001,-2.6,0.0,0.0,0.0
1698924291.623,16,0.0,0.0,0.0,-0.2,9.200000000000001,-2.6,0.0,0.0,-0.1
1698924291.64,16,0.0,0.0,0.0,-0.2,9.200000000000001,-2.6,0.2,-0.1,-0.1
1698924291.656,16,0.0,0.0,0.0,-0.2,9.200000000000001,-2.6,0.4,0.2,0.0
1698924291.673,16,0.0,0.0,0.0,-0.2,9.1,-2.6,0.7,0.5,0.0
1698924291.689,16,0.0,0.0,0.0,-0.2,9.200000000000001,-2.6,0.8,0.5,0.1
1698924291.706,16,0.0,0.0,-0.1,-0.30000000000000004,9.200000000000001,-2.7,0.8,0.5,0.1
1698924291.724,16,0.0,0.0,0.0,-0.2,9.200000000000001,-2.6,0.6000000000000001,0.4,0.2
1698924291.739,16,0.0,0.0,0.0,-0.2,9.200000000000001,-2.6,0.1,0.5,0.0
1698924291.756,16,0.0,0.0,0.0,-0.2,9.200000000000001,-2.6,-0.2,0.4,0.0
1698924291.773,16,0.0,0.0,0.0,-0.30000000000000004,9.200000000000001,-2.6,-0.6000000000000001,0.4,0.0
1698924291.789,16,0.0,0.0,0.0,-0.2,9.200000000000001,-2.6,-1.0,0.30000000000000004,0.0
1698924291.806,16,0.0,0.0,0.0,-0.2,9.200000000000001,-2.6,-1.0999999999999999,0.30000000000000004,0.0
1698924291.823,16,0.0,0.0,0.0,-0.2,9.1,-2.6,-1.2000000000000002,0.1,0.0
1698924291.839,16,0.0,0.0,0.0,-0.2,9.200000000000001,-2.5,-0.6000000000000001,0.2,0.0
1698924291.855,16,0.0,0.0,0.0,-0.2,9.200000000000001,-2.5,0.0,0.5,0.0
1698924291.872,16,0.0,0.0,0.1,-0.2,9.200000000000001,-2.5,0.30000000000000004,0.5,-0.1
1698924291.889,16,0.0,0.0,0.0,-0.2,9.200000000000001,-2.6,0.5,0.8,-0.2
1698924291.905,16,0.0,0.0,0.0,-0.2,9.200000000000001,-2.6,0.5,0.2,-0.2
1698924291.922,16,0.0,0.0,0.0,-0.2,9.200000000000001,-2.6,0.5,0.2,-0.1
1698924291.939,16,0.0,0.0,0.0,-0.2,9.200000000000001,-2.6,0.30000000000000004,0.1,-0.2
1698924291.956,16,0.0,0.0,0.0,-0.30000000000000004,9.200000000000001,-2.6,0.30000000000000004,0.4,-0.1
1698924291.973,16,0.0,0.0,0.1,-0.30000000000000004,9.200000000000001,-2.5,0.7,1.0999999999999999,0.0
1698924291.99,16,0.0,0.0,0.0,-0.2,9.200000000000001,-2.6,1.6,2.6,0.0
1698924292.006,16,0.0,0.0,0.0,-0.2,9.200000000000001,-2.6,1.9,2.9,0.1
1698924292.023,16,0.0,0.0,0.0,-0.30000000000000004,9.200000000000001,-2.6,2.1999999999999997,2.3000000000000003,0.1
1698924292.039,16,0.0,0.0,-0.1,-0.2,9.1,-2.7,1.8,1.3,0.1
1698924292.056,16,0.0,0.0,0.0,-0.2,9.1,-2.7,1.3,0.9,0.0
1698924292.073,16,0.0,-0.1,0.0,-0.2,9.1,-2.7,0.6000000000000001,1.0999999999999999,0.0
1698924292.089,16,0.0,0.0,-0.1,-0.2,9.1,-2.7,-0.1,1.5000000000000002,0.0
1698924292.106,16,0.0,0.0,-0.1,-0.30000000000000004,9.200000000000001,-2.7,0.2,2.4000000000000004,0.30000000000000004
1698924292.123,16,0.0,0.0,-0.1,-0.30000000000000004,9.200000000000001,-2.7,0.4,2.6,0.30000000000000004
1698924292.139,16,0.0,0.0,-0.1,-0.2,9.200000000000001,-2.7,0.5,2.7,0.6000000000000001
1698924292.157,16,0.0,0.0,0.0,-0.2,9.1,-2.7,0.2,2.6,0.6000000000000001
1698924292.173,16,0.0,0.0,0.0,-0.2,9.200000000000001,-2.7,-0.2,2.1999999999999997,0.6000000000000001
1698924292.189,16,0.0,0.1,0.1,-0.2,9.200000000000001,-2.5,0.5,1.5000000000000002,0.5
1698924292.206,16,0.0,0.1,0.1,-0.2,9.200000000000001,-2.5,0.5,1.0,0.30000000000000004
1698924292.223,16,0.0,0.0,0.2,-0.2,9.200000000000001,-2.5,0.5,0.6000000000000001,0.1
1698924292.239,16,0.0,0.0,0.1,-0.2,9.200000000000001,-2.5,0.8,0.5,0.1
1698924292.256,16,0.0,0.0,0.1,-0.2,9.200000000000001,-2.5,1.3,0.5,0.1
1698924292.273,16,0.0,0.0,0.0,-0.2,9.200000000000001,-2.6,1.4,0.5,0.1
1698924292.289,16,0.1,0.0,-0.1,-0.1,9.1,-2.7,1.4,0.7,0.0
1698924292.306,16,0.1,-0.1,-0.1,-0.1,9.1,-2.7,1.4,1.0,-0.1
1698924292.323,16,0.0,0.0,-0.1,-0.2,9.1,-2.8000000000000003,1.4,1.9,0.1
1698924292.339,16,0.0,0.0,-0.1,-0.2,9.1,-2.7,1.4,1.6,0.1
1698924292.363,16,0.0,0.0,0.0,-0.2,9.1,-2.7,1.5000000000000002,1.5000000000000002,0.2
1698924292.372,16,0.0,0.0,0.1,-0.2,9.1,-2.6,1.7,1.7,0.0
1698924292.389,16,0.0,0.0,0.1,-0.2,9.200000000000001,-2.6,1.9,1.8,0.0
1698924292.406,16,0.0,0.0,0.1,-0.2,9.200000000000001,-2.6,2.1999999999999997,1.8,0.1
1698924292.423,16,0.0,0.0,0.1,-0.2,9.200000000000001,-2.6,2.4000000000000004,1.3,0.2
1698924292.439,16,-0.1,0.0,0.0,-0.2,9.1,-2.7,1.7,0.4,0.0
1698924292.456,16,0.0,0.0,0.0,-0.2,9.1,-2.7,1.0999999999999999,0.1,0.1
1698924292.472,16,0.0,0.0,-0.1,-0.2,9.1,-2.8000000000000003,0.8,-0.1,0.2
1698924292.489,16,0.0,0.0,-0.1,-0.2,9.1,-2.8000000000000003,0.2,-0.2,0.2
1698924292.505,16,0.0,0.0,-0.1,-0.2,9.1,-2.8000000000000003,-0.6000000000000001,-0.1,0.2
1698924292.522,16,0.0,0.0,-0.1,-0.2,9.1,-2.8000000000000003,-0.9,0.0,0.2
1698924292.539,16,0.0,0.0,-0.1,-0.2,9.1,-2.8000000000000003,-1.5000000000000002,-0.1,0.1
1698924292.556,16,0.0,0.0,0.0,-0.2,9.1,-2.7,-1.7,-0.30000000000000004,0.30000000000000004
1698924292.573,16,0.0,0.0,0.0,-0.2,9.1,-2.6,-1.5000000000000002,-0.1,0.30000000000000004
1698924292.589,16,0.0,0.0,0.0,-0.2,9.200000000000001,-2.6,-1.5000000000000002,0.4,0.4
1698924292.606,16,0.0,0.0,0.1,-0.2,9.200000000000001,-2.6,-0.9,0.30000000000000004,0.2
1698924292.623,16,0.0,0.0,0.1,-0.2,9.200000000000001,-2.6,-0.6000000000000001,0.5,0.1
1698924292.639,16,0.0,0.0,0.1,-0.2,9.200000000000001,-2.6,-0.1,0.4,-0.2
1698924292.655,16,0.0,0.0,0.1,-0.2,9.200000000000001,-2.6,0.30000000000000004,0.30000000000000004,-0.1
1698924292.672,16,0.0,0.0,0.0,-0.2,9.1,-2.6,0.7,0.30000000000000004,-0.1
1698924292.689,16,0.0,0.0,0.0,-0.2,9.200000000000001,-2.6,0.8,0.4,0.0
1698924292.706,16,0.0,0.0,0.0,-0.2,9.1,-2.6,0.8,0.2,0.0
1698924292.723,16,0.0,0.0,0.0,-0.2,9.1,-2.7,0.8,0.2,-0.1
1698924292.739,16,0.0,0.0,0.0,-0.2,9.1,-2.6,0.9,-0.1,-0.2
1698924292.756,16,0.0,0.0,0.0,-0.2,9.1,-2.7,1.0,0.2,-0.1
1698924292.773,16,0.0,0.0,0.0,-0.2,9.1,-2.7,1.0,0.2,-0.1
1698924292.789,16,0.0,0.0,0.0,-0.2,9.1,-2.7,1.2000000000000002,0.2,-0.1
1698924292.806,16,0.0,0.0,0.0,-0.2,9.1,-2.7,1.4,0.4,0.0
1698924292.822,16,0.0,0.0,0.0,-0.2,9.200000000000001,-2.7,1.4,0.5,0.0
1698924292.84,16,0.0,0.0,0.0,-0.2,9.1,-2.7,1.4,0.4,0.2
1698924292.856,16,0.0,0.0,0.0,-0.2,9.1,-2.7,1.3,0.30000000000000004,0.1
1698924292.873,16,0.0,0.0,0.0,-0.2,9.1,-2.7,1.2000000000000002,0.2,0.1
1698924292.889,16,0.0,0.0,0.0,-0.2,9.1,-2.7,1.0,0.1,0.30000000000000004
1698924292.906,16,0.0,0.0,0.0,-0.2,9.1,-2.7,0.6000000000000001,0.2,0.30000000000000004
1698924292.923,16,0.0,0.0,0.0,-0.2,9.1,-2.7,0.0,0.30000000000000004,0.30000000000000004
1698924292.939,16,0.0,0.0,0.0,-0.2,9.1,-2.7,0.0,0.4,0.30000000000000004
1698924292.956,16,0.1,0.0,0.0,-0.1,9.1,-2.7,-0.30000000000000004,0.8,0.30000000000000004
1698924292.973,16,0.1,0.0,0.0,-0.1,9.1,-2.7,-0.2,0.9,0.2
1698924292.99,16,0.0,0.0,0.0,-0.1,9.200000000000001,-2.7,0.0,0.30000000000000004,0.0
1698924293.006,16,0.0,0.0,0.0,-0.2,9.200000000000001,-2.7,0.0,0.1,0.1
1698924293.022,16,0.0,0.0,0.0,-0.2,9.1,-2.7,0.0,-0.1,0.1
1698924293.04,16,0.0,0.0,0.0,-0.2,9.1,-2.8000000000000003,0.0,-0.2,0.1
1698924293.056,16,0.0,0.0,0.0,-0.2,9.1,-2.7,-0.4,-0.30000000000000004,0.2
1698924293.072,16,0.0,0.0,-0.1,-0.1,9.1,-2.8000000000000003,-0.8,-0.30000000000000004,0.1
1698924293.089,16,0.0,0.0,0.0,-0.1,9.1,-2.7,-0.9,-0.1,0.1
1698924293.106,16,0.0,0.0,0.0,-0.1,9.1,-2.7,-1.0999999999999999,-0.30000000000000004,-0.1
1698924293.122,16,0.0,0.0,0.0,-0.2,9.1,-2.7,-1.0,-0.2,-0.1
1698924293.139,16,0.0,0.0,0.0,-0.2,9.1,-2.7,-0.8,-0.1,-0.1
1698924293.156,16,0.0,0.0,0.0,-0.2,9.200000000000001,-2.7,-0.6000000000000001,0.1,0.0
1698924293.173,16,0.0,0.0,0.1,-0.2,9.200000000000001,-2.6,-0.1,-0.30000000000000004,0.0
1698924293.189,16,0.0,0.0,0.0,-0.2,9.200000000000001,-2.6,-0.2,-0.2,0.1
1698924293.206,16,0.0,0.0,0.0,-0.2,9.1,-2.7,-0.4,-0.1,0.1
1698924293.222,16,0.0,0.0,0.0,-0.2,9.200000000000001,-2.7,0.0,-0.1,0.1
1698924293.239,16,0.0,0.0,0.1,-0.2,9.1,-2.6,0.1,-0.2,0.1
1698924293.256,16,0.0,0.0,0.0,-0.2,9.200000000000001,-2.6,-0.1,-0.2,0.1
1698924293.273,16,0.0,0.0,0.0,-0.1,9.1,-2.7,0.0,0.0,0.1
1698924293.289,16,0.0,0.0,0.0,-0.2,9.1,-2.7,0.0,-0.1,0.2
1698924293.307,16,0.0,0.0,0.0,-0.2,9.1,-2.7,0.2,0.2,0.0
1698924293.323,16,0.0,0.0,0.0,-0.2,9.200000000000001,-2.7,0.8,0.5,0.2
1698924293.34,16,0.0,0.0,0.0,-0.2,9.1,-2.7,0.8,0.4,0.2
1698924293.356,16,0.0,0.0,0.0,-0.2,9.1,-2.7,0.6000000000000001,0.5,0.2
1698924293.373,16,0.0,0.0,0.0,-0.2,9.200000000000001,-2.7,0.5,0.5,0.2
1698924293.389,16,0.0,0.0,0.0,-0.2,9.1,-2.7,0.30000000000000004,0.5,0.1
1698924293.407,16,0.0,0.0,0.0,-0.2,9.200000000000001,-2.7,0.5,0.2,0.30000000000000004
1698924293.424,16,0.0,0.0,0.0,-0.2,9.1,-2.7,0.5,0.0,0.30000000000000004
1698924293.439,16,0.0,0.0,0.0,-0.2,9.1,-2.7,-0.4,0.0,0.1
1698924293.456,16,0.0,0.0,0.0,-0.2,9.200000000000001,-2.7,-0.4,0.1,0.30000000000000004
1698924293.473,16,0.0,0.0,0.0,-0.2,9.1,-2.7,0.1,-0.1,0.5
1698924293.489,16,0.0,0.0,0.0,-0.1,9.200000000000001,-2.7,-0.8,-0.1,0.0
1698924293.505,16,0.0,0.1,0.0,-0.1,9.200000000000001,-2.7,-1.0999999999999999,-0.2,0.30000000000000004
1698924293.522,16,0.0,0.0,0.0,-0.1,9.1,-2.7,-0.6000000000000001,-0.1,0.2
1698924293.539,16,0.0,0.0,0.0,-0.2,9.1,-2.7,-0.9,-0.2,0.0
1698924293.556,16,0.0,0.0,0.0,-0.1,9.200000000000001,-2.7,-0.9,-0.4,0.0
1698924293.573,16,0.0,0.0,-0.1,-0.1,9.1,-2.8000000000000003,-1.5000000000000002,-0.5,0.0
1698924293.589,16,0.0,0.0,-0.1,-0.1,9.1,-2.8000000000000003,-2.0,-0.7,-0.1
1698924293.606,16,0.0,0.0,-0.1,-0.1,9.1,-2.8000000000000003,-3.4,-1.6,-0.2
1698924293.623,16,0.0,0.0,-0.1,-0.2,9.1,-2.7,-5.1,-1.7,-0.4
1698924293.639,16,0.0,0.0,0.0,-0.2,9.1,-2.6,-6.2,-1.6,-0.30000000000000004
1698924293.656,16,0.0,0.0,0.0,-0.2,9.200000000000001,-2.6,-6.4,-1.5000000000000002,-0.30000000000000004
1698924293.673,16,0.0,0.0,0.1,-0.2,9.200000000000001,-2.6,-6.1000000000000005,-1.4,-0.2
1698924293.689,16,0.0,0.0,0.1,-0.2,9.200000000000001,-2.5,-5.500000000000001,-0.8,-0.2
1698924293.706,16,0.0,0.0,0.1,-0.2,9.200000000000001,-2.5,-4.9,-0.7,-0.2
1698924293.723,16,0.0,0.0,0.1,-0.2,9.200000000000001,-2.4000000000000004,-3.5,-0.6000000000000001,-0.1
1698924293.739,16,0.0,0.0,0.1,-0.2,9.200000000000001,-2.4000000000000004,-2.0,-0.4,0.0
1698924293.757,16,0.0,0.0,0.1,-0.2,9.200000000000001,-2.4000000000000004,-1.0999999999999999,-0.30000000000000004,0.1
1698924293.773,16,0.0,0.0,0.1,-0.2,9.200000000000001,-2.4000000000000004,0.7,0.4,0.2
1698924293.789,16,0.0,0.0,0.0,-0.2,9.200000000000001,-2.5,1.3,0.7,0.2
1698924293.806,16,0.0,0.0,0.0,-0.2,9.200000000000001,-2.5,2.5,1.3,0.4
1698924293.822,16,0.0,0.0,0.0,-0.2,9.1,-2.6,3.2,1.8,0.30000000000000004
1698924293.839,16,0.0,0.0,0.0,-0.2,9.200000000000001,-2.5,3.9,2.1999999999999997,0.30000000000000004
1698924293.856,16,0.0,0.0,0.1,-0.2,9.200000000000001,-2.5,4.2,2.1999999999999997,0.30000000000000004
1698924293.873,16,0.0,0.0,0.0,-0.1,9.1,-2.6,3.9,2.1,0.30000000000000004
1698924293.889,16,0.0,0.0,0.0,-0.1,9.200000000000001,-2.6,3.3000000000000003,1.3,0.1
1698924293.906,16,0.0,0.0,-0.1,-0.2,9.200000000000001,-2.7,2.8,1.0,0.1
1698924293.923,16,0.0,0.0,-0.1,-0.1,9.1,-2.7,2.0,1.0999999999999999,0.2
1698924293.939,16,0.0,0.0,-0.1,-0.1,9.200000000000001,-2.8000000000000003,1.3,0.9,0.1
1698924293.955,16,0.0,0.0,-0.1,-0.1,9.1,-2.8000000000000003,0.9,0.4,0.1
1698924293.973,16,0.0,0.0,-0.1,-0.1,9.1,-2.7,0.2,-0.1,0.30000000000000004
1698924293.989,16,0.0,0.0,-0.1,-0.2,9.1,-2.7,0.0,0.0,0.0
1698924294.006,16,0.0,0.0,-0.1,-0.2,9.1,-2.7,-0.1,-0.1,0.2
1698924294.023,16,0.0,0.0,0.0,-0.2,9.200000000000001,-2.7,-0.30000000000000004,-0.4,0.2
1698924294.039,16,0.0,0.0,0.1,-0.1,9.200000000000001,-2.6,-0.30000000000000004,-0.4,0.0
1698924294.056,16,0.0,0.0,0.1,-0.2,9.200000000000001,-2.6,-0.30000000000000004,-0.30000000000000004,0.0
1698924294.073,16,0.0,0.0,0.0,-0.2,9.200000000000001,-2.6,-0.2,-0.1,0.0
1698924294.089,16,0.0,0.0,0.0,-0.2,9.1,-2.7,-0.2,0.30000000000000004,0.2
1698924294.106,16,0.0,0.0,0.0,-0.1,9.1,-2.7,-0.30000000000000004,0.5,0.2
1698924294.122,16,0.0,0.0,0.0,-0.1,9.200000000000001,-2.7,-0.30000000000000004,0.4,0.1
1698924294.139,16,0.0,0.0,0.0,-0.1,9.1,-2.6,-0.4,0.6000000000000001,0.0
1698924294.156,16,0.0,0.0,0.1,-0.1,9.1,-2.6,-0.4,0.5,0.0
1698924294.173,16,0.0,0.0,0.1,-0.2,9.200000000000001,-2.6,-0.8,0.5,0.1
1698924294.189,16,0.0,0.0,0.1,-0.2,9.1,-2.6,-0.8,0.5,0.0
1698924294.207,16,0.0,0.0,0.0,-0.1,9.200000000000001,-2.6,-0.8,0.4,0.0
1698924294.222,16,0.0,0.0,0.0,-0.1,9.200000000000001,-2.6,-0.7,0.1,0.0
1698924294.239,16,0.0,0.0,0.0,-0.1,9.200000000000001,-2.6,-0.7,-0.2,0.0
1698924294.256,16,0.0,0.0,0.0,-0.2,9.200000000000001,-2.6,-0.4,0.0,0.0
1698924294.273,16,0.0,0.0,0.0,-0.1,9.200000000000001,-2.6,-0.30000000000000004,0.30000000000000004,0.1
1698924294.289,16,0.0,0.0,0.0,-0.1,9.200000000000001,-2.6,-0.1,0.0,0.0
1698924294.306,16,0.0,0.0,0.0,-0.1,9.200000000000001,-2.6,-0.1,0.0,0.0
1698924294.324,16,0.0,0.0,0.0,-0.2,9.200000000000001,-2.6,-0.1,0.1,0.1
1698924294.339,16,0.0,0.0,0.0,-0.2,9.200000000000001,-2.6,-0.30000000000000004,0.1,0.1
1698924294.356,16,0.0,0.0,0.1,-0.2,9.200000000000001,-2.5,0.30000000000000004,-0.1,0.1
1698924294.372,16,0.0,0.0,0.0,-0.2,9.200000000000001,-2.6,0.2,0.0,0.1
1698924294.389,16,0.0,0.0,0.0,-0.2,9.200000000000001,-2.6,0.8,0.2,0.2
1698924294.406,16,0.0,0.0,0.0,-0.1,9.200000000000001,-2.7,1.0999999999999999,0.30000000000000004,0.1
1698924294.423,16,0.0,0.0,0.0,-0.1,9.1,-2.7,1.0999999999999999,0.30000000000000004,0.1
1698924294.439,16,0.0,0.0,-0.1,-0.1,9.1,-2.7,1.0,0.30000000000000004,0.1
1698924294.456,16,0.0,0.0,0.0,-0.1,9.200000000000001,-2.6,0.7,0.1,0.1
1698924294.473,16,0.0,0.0,0.0,-0.1,9.1,-2.6,0.7,0.30000000000000004,0.0
1698924294.489,16,0.0,0.0,0.0,-0.1,9.200000000000001,-2.6,0.4,0.30000000000000004,0.0
1698924294.506,16,0.0,0.0,0.0,-0.1,9.1,-2.7,0.30000000000000004,0.1,0.0
1698924294.522,16,0.0,0.0,0.0,-0.1,9.1,-2.6,0.2,-0.1,-0.1
1698924294.539,16,0.0,0.0,0.0,-0.1,9.200000000000001,-2.7,-0.30000000000000004,0.0,0.0
1698924294.556,16,0.0,0.0,-0.1,-0.2,9.1,-2.7,-0.9,-0.2,-0.1
1698924294.573,16,0.0,0.0,-0.1,-0.1,9.1,-2.7,-1.3,-0.4,-0.2
1698924294.589,16,0.0,0.0,-0.1,-0.1,9.1,-2.7,-1.9,-0.4,-0.2
1698924294.606,16,0.0,0.0,-0.2,-0.1,9.1,-2.8000000000000003,-3.3000000000000003,-1.7,-0.5
1698924294.624,16,0.0,0.0,-0.1,-0.1,9.200000000000001,-2.7,-4.9,-2.7,-0.6000000000000001
1698924294.639,16,0.0,0.0,0.0,-0.1,9.200000000000001,-2.7,-6.2,-3.2,-0.6000000000000001
1698924294.655,16,0.0,-0.1,0.0,-0.2,9.1,-2.6,-9.600000000000001,-4.9,-1.0
1698924294.673,16,0.0,-0.1,0.0,-0.2,9.1,-2.5,-11.3,-5.300000000000001,-1.0999999999999999
1698924294.689,16,0.0,-0.1,-0.1,-0.2,9.1,-2.7,-16.1,-6.2,-1.3
1698924294.705,16,-0.1,0.0,0.2,-0.2,9.200000000000001,-2.3000000000000003,-20.0,-6.7,-1.6
1698924294.723,16,0.0,0.1,0.1,-0.2,9.3,-2.4000000000000004,-20.6,-6.000000000000001,-1.5000000000000002
1698924294.739,16,0.0,0.0,0.0,-0.2,9.200000000000001,-2.4000000000000004,-21.400000000000002,-4.9,-1.2000000000000002
1698924294.756,16,0.0,0.0,0.0,-0.2,9.3,-2.3000000000000003,-23.2,-4.3999999999999995,-1.3
1698924294.772,16,0.0,0.0,0.0,-0.2,9.3,-2.3000000000000003,-24.400000000000002,-3.4,-1.3
1698924294.789,16,0.0,0.1,0.1,-0.2,9.4,-2.1,-27.400000000000002,-2.3000000000000003,-1.7
1698924294.806,16,0.0,0.1,0.0,-0.2,9.4,-2.1,-29.300000000000004,-2.0,-1.6
1698924294.822,16,0.1,0.1,0.0,-0.2,9.4,-2.1,-30.5,-3.2,-1.8
1698924294.839,16,0.0,0.1,-0.1,-0.2,9.4,-2.1,-32.1,-5.7,-1.7
1698924294.856,16,0.1,0.0,-0.2,-0.1,9.4,-2.0,-34.50000000000001,-8.700000000000001,-2.0
1698924294.873,16,0.1,0.0,-0.30000000000000004,-0.2,9.4,-2.1,-35.5,-12.8,-2.0
1698924294.89,16,0.0,0.1,-0.4,-0.2,9.5,-2.1,-36.800000000000004,-14.600000000000001,-1.8
1698924294.906,16,-0.1,0.5,-0.30000000000000004,-0.30000000000000004,10.0,-1.9000000000000001,-40.3,-17.200000000000003,0.1
1698924294.922,16,0.0,1.1,-0.4,-0.30000000000000004,10.600000000000001,-1.8,-44.00000000000001,-19.500000000000004,6.4
1698924294.94,16,0.2,1.9000000000000001,-0.4,-0.1,11.4,-1.8,-46.6,-21.1,13.9
1698924294.956,16,0.2,3.2,-0.4,0.1,12.700000000000001,-1.6,-54.3,-19.0,32.1
1698924294.972,16,0.2,3.1,-0.4,0.1,12.600000000000001,-1.5,-59.400000000000006,-15.5,36.9
1698924294.989,16,-0.5,3.0,-0.30000000000000004,-0.5,12.600000000000001,-1.1,-73.9,-8.1,23.5
1698924295.006,16,-0.7000000000000001,0.9,-0.9,-0.7000000000000001,10.5,-1.4000000000000001,-96.80000000000001,6.5,-0.6000000000000001
1698924295.023,16,-0.6000000000000001,-0.1,-1.2000000000000002,-0.6000000000000001,9.5,-1.6,-103.4,7.8,-10.2
1698924295.039,16,0.1,-0.2,-1.7000000000000002,0.1,9.4,-1.8,-109.8,5.1,-21.8
1698924295.056,16,0.5,0.2,-1.3,0.4,9.8,-1.0,-112.3,8.9,-19.500000000000004
1698924295.072,16,0.6000000000000001,0.6000000000000001,-1.3,0.4,10.200000000000001,-0.8,-110.10000000000001,7.300000000000001,-13.5
1698924295.09,16,0.30000000000000004,1.0,-1.2000000000000002,0.1,10.600000000000001,-0.30000000000000004,-109.60000000000001,6.000000000000001,-2.0
1698924295.109,16,0.0,1.1,-1.2000000000000002,-0.2,10.700000000000001,0.0,-110.60000000000001,2.9,-1.5000000000000002
1698924295.122,16,0.0,1.0,-1.3,-0.2,10.600000000000001,0.1,-112.2,1.5000000000000002,-3.8
1698924295.139,16,-0.1,1.0,-1.7000000000000002,-0.30000000000000004,10.5,0.1,-111.4,2.9,-8.4
1698924295.155,16,-0.1,0.8,-2.0,-0.4,10.3,0.1,-117.89999999999999,7.6,-12.9
1698924295.173,16,0.0,0.8,-2.1,-0.30000000000000004,10.200000000000001,0.2,-121.5,4.0,-14.600000000000001
1698924295.189,16,0.0,0.9,-2.4000000000000004,-0.30000000000000004,10.200000000000001,0.30000000000000004,-123.4,2.5,-16.8
1698924295.206,16,0.0,0.9,-2.8000000000000003,-0.30000000000000004,10.100000000000001,0.1,-125.10000000000001,2.8,-17.3
1698924295.223,16,0.6000000000000001,0.8,-2.7,0.2,9.8,0.8,-122.10000000000001,9.600000000000001,-16.8
1698924295.239,16,0.7000000000000001,1.0,-2.6,0.2,10.0,1.0,-116.4,9.3,-17.3
1698924295.256,16,1.0,1.6,-1.9000000000000001,0.4,10.4,2.0,-99.4,10.700000000000001,-16.2
1698924295.273,16,1.1,2.5,-0.4,0.5,11.200000000000001,3.7,-72.2,7.400000000000001,-12.3
1698924295.289,16,1.2000000000000002,2.6,1.0,0.6000000000000001,11.3,5.2,-67.80000000000001,7.0,-7.8
1698924295.306,16,0.7000000000000001,2.5,1.4000000000000001,0.1,11.100000000000001,5.800000000000001,-59.80000000000001,7.300000000000001,0.5
1698924295.322,16,0.1,1.5,2.0,-0.6000000000000001,10.0,6.7,-73.30000000000001,14.600000000000001,1.3
1698924295.34,16,-0.1,1.1,2.4000000000000004,-0.7000000000000001,9.600000000000001,7.2,-83.50000000000001,13.9,-2.7
1698924295.356,16,-0.4,0.5,2.7,-1.1,8.8,7.800000000000001,-104.4,14.3,-9.0
1698924295.373,16,-0.4,-0.5,2.1,-1.1,8.200000000000001,7.9,-108.7,18.1,-5.6
1698924295.389,16,-0.4,-1.0,1.6,-1.2000000000000002,7.0,7.2,-102.4,19.3,-2.7
1698924295.406,16,-0.2,-2.0,0.8,-1.1,5.800000000000001,6.6000000000000005,-80.2,20.0,1.4
1698924295.423,16,-0.30000000000000004,-2.0,0.6000000000000001,-0.9,5.9,6.7,-66.5,16.900000000000002,3.0000000000000004
1698924295.44,16,-0.4,-2.9000000000000004,0.7000000000000001,-1.2000000000000002,4.7,6.7,-36.9,10.1,7.300000000000001
1698924295.456,16,-0.5,-2.4000000000000004,1.3,-1.3,5.1000000000000005,7.300000000000001,-14.100000000000001,3.1,17.400000000000002
1698924295.473,16,-0.5,-1.8,1.4000000000000001,-1.3,5.7,7.5,-8.3,1.2000000000000002,18.400000000000002
1698924295.49,16,-0.30000000000000004,-1.0,1.7000000000000002,-1.0,6.5,7.800000000000001,-9.4,1.0,17.9
1698924295.506,16,-0.2,-0.2,1.7000000000000002,-0.9,7.300000000000001,7.9,-10.9,3.3000000000000003,21.3
1698924295.523,16,-0.1,0.2,1.5,-0.8,7.7,7.7,-9.700000000000001,4.300000000000001,22.3
1698924295.539,16,0.0,0.30000000000000004,1.2000000000000002,-0.7000000000000001,7.800000000000001,7.4,-4.9,4.800000000000001,20.2
1698924295.556,16,-0.30000000000000004,0.0,1.3,-0.9,7.5,7.5,2.1,6.8,17.3
1698924295.573,16,-0.4,-0.4,1.2000000000000002,-1.0,7.2,7.5,10.2,8.700000000000001,15.2
1698924295.589,16,-0.30000000000000004,-0.4,1.1,-0.9,7.1000000000000005,7.300000000000001,12.100000000000001,7.400000000000001,14.0
1698924295.606,16,-0.2,-0.30000000000000004,0.8,-0.7000000000000001,7.300000000000001,7.0,9.9,7.1000000000000005,11.9
1698924295.622,16,-0.30000000000000004,-0.30000000000000004,0.8,-0.8,7.300000000000001,7.0,7.699999999999999,8.3,11.6
1698924295.639,16,-0.4,-0.2,0.8,-1.0,7.4,7.0,11.6,8.3,13.6
1698924295.656,16,-0.5,-0.30000000000000004,0.7000000000000001,-1.1,7.300000000000001,6.800000000000001,15.7,7.8,13.700000000000001
1698924295.673,16,-0.4,-0.5,0.6000000000000001,-0.9,7.2,6.6000000000000005,22.2,6.7,14.200000000000001
1698924295.689,16,-0.4,-0.6000000000000001,0.6000000000000001,-0.9,7.1000000000000005,6.7,24.6,7.6,13.6
1698924295.706,16,-0.2,-0.6000000000000001,0.5,-0.7000000000000001,7.1000000000000005,6.5,29.000000000000004,7.400000000000001,13.100000000000001
1698924295.723,16,-0.2,-0.5,0.5,-0.7000000000000001,7.2,6.4,30.7,5.4,13.3
1698924295.739,16,-0.2,-0.4,0.4,-0.6000000000000001,7.4,6.300000000000001,33.7,3.6,15.100000000000001
1698924295.757,16,-0.2,-0.4,0.30000000000000004,-0.6000000000000001,7.5,6.1000000000000005,34.800000000000004,2.0,16.1
1698924295.773,16,-0.30000000000000004,-0.5,0.30000000000000004,-0.7000000000000001,7.5,5.9,36.2,3.5,15.7
1698924295.789,16,-0.30000000000000004,-0.5,0.2,-0.7000000000000001,7.5,5.800000000000001,36.7,3.6,14.700000000000001
1698924295.806,16,-0.2,-0.7000000000000001,0.0,-0.6000000000000001,7.4,5.5,37.1,6.6000000000000005,11.1
1698924295.822,16,-0.1,-1.0,-0.2,-0.5,7.2,5.2,38.400000000000006,11.3,8.5
1698924295.839,16,-0.1,-1.4000000000000001,-0.4,-0.4,6.800000000000001,4.9,41.6,11.700000000000001,8.4
1698924295.856,16,-0.1,-1.6,-0.6000000000000001,-0.5,6.6000000000000005,4.6000000000000005,42.800000000000004,11.000000000000002,9.0
1698924295.872,16,-0.2,-1.9000000000000001,-0.7000000000000001,-0.5,6.4,4.3,44.6,11.5,10.0
1698924295.889,16,-0.4,-2.3000000000000003,-0.7000000000000001,-0.7000000000000001,6.1000000000000005,4.2,48.6,15.399999999999999,10.600000000000001
1698924295.907,16,-0.4,-2.4000000000000004,-1.0,-0.7000000000000001,6.0,3.8000000000000003,51.300000000000004,14.800000000000002,11.2
1698924295.923,16,-0.30000000000000004,-2.6,-1.3,-0.6000000000000001,5.800000000000001,3.3000000000000003,52.6,9.3,11.6
1698924295.939,16,-0.4,-2.9000000000000004,-1.4000000000000001,-0.7000000000000001,5.6000000000000005,3.1,52.50000000000001,4.800000000000001,11.700000000000001
1698924295.956,16,-0.4,-3.1,-1.4000000000000001,-0.7000000000000001,5.5,3.1,52.1,2.6,12.700000000000001
1698924295.973,16,-0.6000000000000001,-3.5,-0.9,-0.9,5.1000000000000005,3.4000000000000004,52.400000000000006,1.9,15.000000000000002
1698924295.989,16,-0.6000000000000001,-3.8000000000000003,-0.7000000000000001,-0.8,4.9,3.5,54.9,2.5,16.700000000000003
1698924296.006,16,-0.7000000000000001,-4.2,-1.0,-0.9,4.5,3.0,60.7,-0.4,16.900000000000002
1698924296.023,16,-0.9,-4.3,-0.9,-1.0,4.4,2.9000000000000004,61.7,-5.300000000000001,14.3
1698924296.04,16,-0.8,-4.1000000000000005,-0.7000000000000001,-0.9,4.6000000000000005,3.0,62.50000000000001,-7.2,12.5
1698924296.056,16,-0.5,-3.5,-0.4,-0.6000000000000001,5.300000000000001,3.1,64.50000000000001,-9.8,8.1
1698924296.075,16,-0.2,-2.8000000000000003,0.1,-0.2,6.1000000000000005,3.4000000000000004,63.300000000000004,-10.700000000000001,6.4
1698924296.09,16,0.1,-2.1,0.8,0.1,6.800000000000001,3.9000000000000004,61.300000000000004,-16.3,8.0
1698924296.106,16,0.0,-1.6,1.1,0.0,7.300000000000001,4.1000000000000005,56.300000000000004,-18.900000000000002,10.600000000000001
1698924296.123,16,-0.1,-0.4,1.3,0.0,8.6,4.2,51.7,-19.500000000000004,11.3
1698924296.139,16,0.0,0.2,1.3,0.1,9.200000000000001,4.1000000000000005,45.5,-20.3,10.5
1698924296.156,16,0.4,1.2000000000000002,1.2000000000000002,0.6000000000000001,10.200000000000001,3.9000000000000004,32.300000000000004,-23.400000000000002,6.000000000000001
1698924296.173,16,0.7000000000000001,1.6,1.1,0.9,10.700000000000001,3.8000000000000003,22.3,-20.900000000000002,-0.30000000000000004
1698924296.189,16,0.7000000000000001,1.0,0.9,0.9,10.100000000000001,3.5,15.100000000000001,-13.200000000000001,-3.8
1698924296.205,16,1.0,0.1,0.7000000000000001,1.1,9.200000000000001,3.2,10.5,-6.9,-6.1000000000000005
1698924296.222,16,1.2000000000000002,0.1,0.6000000000000001,1.3,9.200000000000001,3.2,9.1,-4.5,-7.400000000000001
1698924296.239,16,1.4000000000000001,0.1,0.6000000000000001,1.6,9.3,3.1,7.6,-0.4,-9.8
1698924296.255,16,1.4000000000000001,0.4,0.6000000000000001,1.5,9.600000000000001,3.1,4.3999999999999995,7.300000000000001,-9.9
1698924296.273,16,1.3,0.7000000000000001,0.5,1.4000000000000001,9.8,3.0,2.4000000000000004,9.9,-8.9
1698924296.289,16,1.1,0.8,0.6000000000000001,1.2000000000000002,9.9,3.1,-0.8,10.700000000000001,-3.9
1698924296.306,16,0.8,0.4,0.6000000000000001,0.9,9.600000000000001,3.1,-2.5,9.5,2.1999999999999997
1698924296.324,16,0.6000000000000001,0.0,0.5,0.8,9.1,3.0,-4.1000000000000005,9.600000000000001,4.2
1698924296.339,16,0.30000000000000004,-0.6000000000000001,0.6000000000000001,0.4,8.5,3.2,-8.0,8.5,5.0
1698924296.356,16,0.2,-0.7000000000000001,0.6000000000000001,0.30000000000000004,8.5,3.2,-8.4,7.0,4.6000000000000005
1698924296.375,16,0.30000000000000004,-0.6000000000000001,0.5,0.5,8.6,3.1,-8.3,1.4,3.7000000000000006
1698924296.389,16,0.6000000000000001,-0.8,0.2,0.8,8.4,2.9000000000000004,-8.4,-4.6000000000000005,3.3000000000000003
1698924296.407,16,0.8,-0.9,0.1,0.8,8.200000000000001,2.8000000000000003,-8.600000000000001,-6.9,3.1
1698924296.423,16,0.8,-0.9,0.0,1.1,8.200000000000001,2.7,-6.2,-8.5,2.7
1698924296.439,16,0.8,-0.8,0.0,1.1,8.200000000000001,2.7,-0.8,-11.2,2.4000000000000004
1698924296.456,16,0.7000000000000001,-0.5,-0.1,1.0,8.6,2.6,2.1999999999999997,-11.8,1.6
1698924296.473,16,0.5,-0.30000000000000004,-0.1,0.8,8.8,2.6,8.1,-13.3,-1.6
1698924296.489,16,0.30000000000000004,0.1,0.2,0.5,9.200000000000001,2.9000000000000004,14.700000000000001,-14.900000000000002,-3.8
1698924296.506,16,0.1,0.4,0.4,0.4,9.5,3.0,17.5,-12.700000000000001,-4.6000000000000005
1698924296.523,16,0.0,0.7000000000000001,0.6000000000000001,0.2,9.8,3.2,21.0,-2.9,-7.400000000000001
1698924296.539,16,0.0,0.7000000000000001,0.8,0.2,9.9,3.3000000000000003,21.8,1.3,-9.600000000000001
1698924296.556,16,0.30000000000000004,0.0,1.1,0.4,9.200000000000001,3.5,20.3,4.800000000000001,-13.0
1698924296.573,16,0.4,-0.1,0.8,0.5,9.1,3.2,17.400000000000002,4.6000000000000005,-11.8
1698924296.589,16,0.0,-0.4,0.0,0.1,8.8,2.3000000000000003,3.8,1.3,-6.4
1698924296.606,16,-0.7000000000000001,-0.8,-0.4,-0.30000000000000004,8.5,2.1,-14.200000000000001,-0.9,1.2000000000000002
1698924296.622,16,-1.0,-0.9,-0.6000000000000001,-0.9,8.3,1.9000000000000001,-19.8,-3.0000000000000004,3.9
1698924296.639,16,-1.3,-0.9,-1.0,-1.2000000000000002,8.200000000000001,1.5,-24.6,-12.100000000000001,5.1
1698924296.657,16,-1.3,-0.5,-1.3,-1.1,8.3,1.4000000000000001,-25.0,-17.200000000000003,4.2
1698924296.673,16,-1.3,-0.1,-1.4000000000000001,-1.1,9.0,1.2000000000000002,-25.1,-25.2,2.4000000000000004
1698924296.689,16,-1.1,0.9,-1.4000000000000001,-0.9,10.0,1.2000000000000002,-24.000000000000004,-24.000000000000004,-0.30000000000000004
1698924296.706,16,-0.8,1.3,-1.5,-0.7000000000000001,10.4,1.2000000000000002,-22.6,-20.5,-2.5
1698924296.723,16,-0.4,1.7000000000000002,-1.5,-0.30000000000000004,10.700000000000001,1.2000000000000002,-19.200000000000003,-12.200000000000001,-8.3
1698924296.739,16,-0.2,1.8,-1.2000000000000002,-0.1,10.9,1.6,-13.0,-1.7,-13.0
1698924296.756,16,0.0,1.8,-1.2000000000000002,0.1,10.9,1.5,-8.1,5.1,-14.900000000000002
1698924296.773,16,0.2,1.3,-1.7000000000000002,0.30000000000000004,10.4,1.1,-1.5000000000000002,13.700000000000001,-15.8
1698924296.789,16,0.2,0.4,-1.4000000000000001,0.2,9.5,1.4000000000000001,1.0,17.200000000000003,-9.700000000000001
1698924296.806,16,0.1,0.1,-1.3,0.1,9.200000000000001,1.5,3.0000000000000004,19.500000000000004,-5.300000000000001
1698924296.824,16,-0.2,-0.30000000000000004,-1.5,-0.30000000000000004,8.8,1.2000000000000002,5.300000000000001,24.7,-0.6000000000000001
1698924296.839,16,-0.5,-0.4,-1.7000000000000002,-0.6000000000000001,8.700000000000001,1.0,2.1999999999999997,22.900000000000002,0.30000000000000004
1698924296.855,16,-0.6000000000000001,-0.30000000000000004,-1.7000000000000002,-0.7000000000000001,8.8,1.0,-5.2,20.0,-0.5
1698924296.873,16,-0.6000000000000001,-0.2,-1.7000000000000002,-0.7000000000000001,8.9,1.0,-9.4,18.8,-1.0
1698924296.89,16,-0.5,-0.1,-2.1,-0.6000000000000001,8.9,0.6000000000000001,-18.900000000000002,12.9,-0.2
1698924296.905,16,-0.5,-0.30000000000000004,-2.2,-0.7000000000000001,8.8,0.6000000000000001,-29.1,7.9,4.300000000000001
1698924296.923,16,-0.8,-0.4,-2.3000000000000003,-0.8,8.6,0.6000000000000001,-33.300000000000004,7.1000000000000005,7.2
1698924296.939,16,-1.0,-0.4,-2.2,-1.1,8.6,0.7000000000000001,-39.400000000000006,4.0,13.8
1698924296.956,16,-1.4000000000000001,-0.30000000000000004,-2.0,-1.4000000000000001,8.6,1.1,-40.1,0.9,17.0
1698924296.973,16,-1.4000000000000001,-0.1,-1.9000000000000001,-1.5,8.8,1.3,-37.4,-0.1,16.5
1698924296.989,16,-1.1,0.4,-1.6,-1.1,9.3,1.6,-27.3,-1.0,8.0
1698924297.007,16,-0.6000000000000001,0.9,-1.7000000000000002,-0.7000000000000001,9.8,1.6,-12.000000000000002,2.1,-5.7
1698924297.023,16,-0.30000000000000004,0.9,-2.0,-0.30000000000000004,9.8,1.2000000000000002,-5.4,2.5,-10.600000000000001
1698924297.039,16,0.1,0.5,-2.3000000000000003,0.0,9.4,0.9,1.3,-2.0,-10.600000000000001
1698924297.056,16,-0.2,0.6000000000000001,-1.2000000000000002,-0.30000000000000004,9.5,2.0,4.9,0.5,-1.4
1698924297.073,16,-0.5,1.4000000000000001,0.0,-0.6000000000000001,10.3,3.1,14.200000000000001,8.700000000000001,1.9
1698924297.09,16,-0.30000000000000004,3.0,0.1,-0.5,12.0,3.1,46.900000000000006,23.6,-5.2
1698924297.109,16,0.0,2.9000000000000004,-0.5,-0.2,11.9,2.3000000000000003,63.800000000000004,26.500000000000004,-20.1
1698924297.123,16,0.30000000000000004,2.7,-0.1,0.0,11.8,2.6,63.6,31.099999999999998,-22.5
1698924297.139,16,0.1,2.2,-0.8,-0.30000000000000004,11.4,1.8,54.1,42.900000000000006,-16.1
1698924297.156,16,0.0,1.5,-1.6,-0.4,10.700000000000001,0.8,18.2,37.5,1.2000000000000002
1698924297.172,16,-0.30000000000000004,1.7000000000000002,-0.7000000000000001,-0.7000000000000001,10.9,1.7000000000000002,-2.0,36.9,9.600000000000001
1698924297.19,16,-0.8,3.2,0.6000000000000001,-1.2000000000000002,12.4,3.0,-13.9,42.1,18.900000000000002
1698924297.206,16,-0.7000000000000001,3.2,1.2000000000000002,-1.1,12.4,3.7,2.8,28.700000000000003,14.200000000000001
1698924297.222,16,-0.5,2.4000000000000004,1.4000000000000001,-0.9,11.700000000000001,3.9000000000000004,16.900000000000002,22.000000000000004,8.799999999999999
1698924297.239,16,0.0,0.7000000000000001,1.6,-0.4,10.0,3.9000000000000004,41.4,3.1,3.2
1698924297.256,16,-0.6000000000000001,-0.1,2.8000000000000003,-1.0,9.3,5.0,58.7,-8.4,3.6
1698924297.274,16,-1.6,-0.5,2.9000000000000004,-1.9000000000000001,8.9,4.9,62.900000000000006,-9.4,2.8
1698924297.289,16,-1.9000000000000001,-0.9,2.6,-2.2,8.5,4.6000000000000005,54.9,-8.4,-0.30000000000000004
1698924297.306,16,-1.7000000000000002,-1.6,2.0,-2.1,7.800000000000001,3.9000000000000004,23.0,-9.4,-10.700000000000001
1698924297.323,16,-1.2000000000000002,-1.5,2.0,-1.6,8.0,3.9000000000000004,4.1000000000000005,-13.6,-15.9
1698924297.339,16,0.2,-0.5,1.5,-0.30000000000000004,8.9,3.5,-21.700000000000003,-21.200000000000003,-18.5
1698924297.356,16,0.9,-0.5,0.8,0.4,8.9,2.8000000000000003,-32.800000000000004,-29.000000000000004,-12.200000000000001
1698924297.374,16,1.1,-1.4000000000000001,0.4,0.6000000000000001,7.9,2.6,-32.9,-31.900000000000002,-2.5
1698924297.389,16,1.1,-1.9000000000000001,0.2,0.6000000000000001,7.4,2.5,-29.200000000000003,-32.9,1.5000000000000002
1698924297.406,16,0.7000000000000001,-2.2,0.2,0.30000000000000004,7.0,2.5,-17.400000000000002,-36.7,5.6
1698924297.422,16,0.5,-2.1,0.1,0.1,7.1000000000000005,2.4000000000000004,-1.9,-35.7,4.6000000000000005
1698924297.439,16,0.30000000000000004,-2.0,0.0,0.0,7.2,2.3000000000000003,4.7,-34.400000000000006,3.0000000000000004
1698924297.456,16,0.2,-1.7000000000000002,0.0,-0.1,7.6000000000000005,2.3000000000000003,14.500000000000002,-34.400000000000006,0.0
1698924297.472,16,0.5,-1.4000000000000001,-0.1,0.2,7.800000000000001,2.1,18.3,-35.9,-1.5000000000000002
1698924297.489,16,0.7000000000000001,-1.5,0.0,0.4,7.800000000000001,2.2,17.400000000000002,-36.4,-1.9
1698924297.507,16,1.1,-1.4000000000000001,-0.1,0.9,7.9,2.1,13.700000000000001,-33.900000000000006,-1.6
1698924297.523,16,1.3,-1.0,-0.1,1.0,8.0,2.0,10.4,-32.800000000000004,-1.0999999999999999
1698924297.539,16,1.4000000000000001,-0.7000000000000001,-0.4,1.1,8.5,1.9000000000000001,3.2,-26.700000000000003,0.0
1698924297.555,16,1.4000000000000001,-0.7000000000000001,-0.6000000000000001,1.2000000000000002,8.6,1.6,-2.9,-16.2,-2.1999999999999997
1698924297.573,16,1.3,-1.0,-0.9,1.1,8.200000000000001,1.3,-8.5,-3.9,-5.9
1698924297.59,16,1.2000000000000002,-1.2000000000000002,-0.9,1.0,8.0,1.2000000000000002,-10.5,0.1,-6.9
1698924297.608,16,1.1,-1.5,-1.1,0.9,7.7,1.1,-11.8,4.3999999999999995,-6.6000000000000005
1698924297.623,16,1.0,-1.4000000000000001,-1.3,0.8,7.7,0.9,-11.9,7.1000000000000005,-5.7
1698924297.64,16,0.9,-1.3,-1.3,0.7000000000000001,7.800000000000001,0.9,-11.1,9.3,-5.300000000000001
1698924297.656,16,0.9,-0.8,-1.3,0.6000000000000001,8.3,0.9,-7.699999999999999,13.100000000000001,-5.300000000000001
1698924297.673,16,0.6000000000000001,0.0,-1.2000000000000002,0.5,8.700000000000001,0.9,-4.5,12.8,-5.300000000000001
1698924297.689,16,0.5,0.4,-1.0,0.30000000000000004,9.600000000000001,1.2000000000000002,3.6,8.4,-2.5
1698924297.707,16,0.30000000000000004,1.3,-0.30000000000000004,0.0,10.4,1.8,16.8,0.8,2.9
1698924297.723,16,0.0,1.5,-0.4,-0.30000000000000004,10.700000000000001,1.7000000000000002,33.2,-2.3000000000000003,8.1
1698924297.739,16,0.1,1.1,-0.7000000000000001,-0.2,10.5,1.3,36.2,-3.4,9.600000000000001
1698924297.756,16,0.30000000000000004,1.0,-0.8,0.1,10.3,1.1,29.400000000000002,-0.9,7.8
1698924297.772,16,1.1,1.2000000000000002,-1.3,0.9,10.5,0.6000000000000001,11.700000000000001,0.4,3.4
1698924297.789,16,1.4000000000000001,2.1,-1.1,1.2000000000000002,11.3,0.7000000000000001,-12.5,0.4,-1.6
1698924297.806,16,1.2000000000000002,3.0,-0.5,1.0,12.3,1.4000000000000001,-20.5,7.300000000000001,-1.0999999999999999
1698924297.837,16,1.1,4.0,-0.9,1.0,13.3,1.1,-24.200000000000003,-5.7,12.4
1698924297.839,16,1.0,3.2,0.0,1.0,13.3,1.1,-22.7,-8.5,18.5
1698924297.857,16,0.6000000000000001,2.4000000000000004,0.5,0.6000000000000001,11.700000000000001,2.5,-14.500000000000002,-4.2,23.6
1698924297.873,16,-0.1,1.8,0.7000000000000001,0.0,11.100000000000001,2.7,10.700000000000001,-5.1,22.4
1698924297.889,16,-0.9,1.5,1.2000000000000002,-0.8,10.9,3.1,40.1,-0.5,12.000000000000002
1698924297.906,16,-0.7000000000000001,0.9,1.4000000000000001,-0.6000000000000001,10.200000000000001,3.3000000000000003,55.300000000000004,0.2,7.699999999999999
1698924297.922,16,-0.2,-1.0,2.1,0.0,8.5,3.8000000000000003,85.0,-7.0,1.3
1698924297.939,16,0.1,-1.5,2.5,0.2,8.0,3.9000000000000004,96.9,-6.1000000000000005,0.30000000000000004
1698924297.957,16,0.2,-1.3,2.7,0.30000000000000004,8.200000000000001,3.9000000000000004,107.6,0.0,2.9
1698924297.973,16,0.1,-0.1,3.5,0.2,9.4,4.3,98.6,1.6,8.9
1698924297.989,16,-0.4,0.30000000000000004,2.8000000000000003,-0.2,9.9,3.4000000000000004,64.30000000000001,3.8,12.9
1698924298.006,16,-0.4,0.30000000000000004,2.4000000000000004,-0.2,9.8,3.0,37.2,4.7,13.3
1698924298.023,16,-0.30000000000000004,0.30000000000000004,2.1,-0.1,9.9,2.6,8.3,3.8,11.9
1698924298.039,16,-0.4,0.2,1.6,-0.1,9.8,2.3000000000000003,-36.5,-2.4000000000000004,7.300000000000001
1698924298.056,16,-0.5,0.2,1.4000000000000001,-0.2,9.700000000000001,2.3000000000000003,-55.1,0.4,9.1
1698924298.073,16,-1.0,-0.2,0.9,-0.7000000000000001,9.3,1.9000000000000001,-58.2,-2.1,14.0
1698924298.09,16,-1.4000000000000001,-0.4,0.7000000000000001,-1.0,9.0,1.9000000000000001,-53.300000000000004,-9.8,18.2
1698924298.107,16,-1.5,-0.5,0.6000000000000001,-1.1,9.0,1.9000000000000001,-48.2,-12.4,18.2
1698924298.123,16,-1.6,-0.6000000000000001,0.4,-1.1,8.8,1.9000000000000001,-36.3,-12.700000000000001,13.100000000000001
1698924298.139,16,-1.5,-0.7000000000000001,0.30000000000000004,-1.1,8.700000000000001,1.8,-30.799999999999997,-13.100000000000001,8.4
1698924298.156,16,-1.5,-1.0,0.2,-1.1,8.4,1.8,-20.1,-15.2,-2.3000000000000003
1698924298.173,16,-1.5,-1.3,0.0,-1.1,8.1,1.6,-10.0,-16.8,-10.4
1698924298.189,16,-1.2000000000000002,-1.6,-0.30000000000000004,-0.8,7.800000000000001,1.3,-3.8,-19.0,-15.5
1698924298.205,16,-0.9,-1.8,-0.5,-0.6000000000000001,7.6000000000000005,1.1,-2.9,-20.900000000000002,-17.599999999999998
1698924298.223,16,-0.5,-1.9000000000000001,-0.6000000000000001,-0.30000000000000004,7.5,1.0,-3.9,-25.6,-19.6
1698924298.239,16,-0.30000000000000004,-1.9000000000000001,-0.7000000000000001,-0.1,7.5,0.9,-7.500000000000001,-30.100000000000005,-18.0
1698924298.256,16,-0.2,-1.8,-0.8,0.0,7.5,0.9,-9.9,-32.0,-15.399999999999999
1698924298.273,16,-0.2,-1.7000000000000002,-0.9,0.0,7.6000000000000005,0.8,-15.7,-35.0,-8.200000000000001
1698924298.289,16,-0.2,-1.5,-1.1,0.0,7.7,0.6000000000000001,-23.2,-36.4,-0.6000000000000001
1698924298.306,16,-0.2,-1.4000000000000001,-1.2000000000000002,0.0,7.9,0.6000000000000001,-26.8,-39.9,1.8
1698924298.323,16,-0.30000000000000004,-1.1,-1.4000000000000001,0.0,8.1,0.5,-34.1,-46.4,3.4
1698924298.339,16,-0.5,-0.9,-1.3,-0.2,8.3,0.6000000000000001,-40.6,-45.3,2.3000000000000003
1698924298.356,16,-0.4,-0.5,-1.3,-0.2,8.5,0.7000000000000001,-44.3,-38.300000000000004,0.8
1698924298.373,16,-0.30000000000000004,-0.4,-1.2000000000000002,0.0,8.8,1.0,-43.800000000000004,-35.5,-0.7
1698924298.389,16,0.0,-0.30000000000000004,-0.8,0.30000000000000004,8.8,1.5,-37.1,-32.9,-3.0000000000000004
1698924298.405,16,0.4,-0.1,-0.30000000000000004,0.8,9.0,2.0,-21.400000000000002,-25.1,-3.6
1698924298.422,16,0.6000000000000001,0.2,-0.4,1.0,9.200000000000001,2.0,-11.6,-17.8,-4.2
1698924298.439,16,0.6000000000000001,0.9,-1.3,0.9,10.0,1.1,3.2,-7.0,-5.4
1698924298.455,16,0.2,1.4000000000000001,-1.8,0.8,10.3,0.7000000000000001,5.4,-5.7,-4.800000000000001
1698924298.472,16,0.0,1.4000000000000001,-1.9000000000000001,0.4,10.600000000000001,0.4,2.5,-6.000000000000001,-0.7
1698924298.49,16,-0.4,1.8,-1.9000000000000001,0.0,10.9,0.4,-4.5,-2.1999999999999997,3.5
1698924298.505,16,-0.5,3.0,-0.5,-0.2,12.200000000000001,1.9000000000000001,-5.9,7.1000000000000005,3.1
1698924298.522,16,-0.30000000000000004,3.9000000000000004,0.2,0.1,13.0,2.5,1.7,16.8,-1.2000000000000002
1698924298.539,16,0.0,4.9,-0.1,0.30000000000000004,14.100000000000001,2.1,22.4,38.300000000000004,-15.2
1698924298.555,16,0.4,4.4,0.8,0.7000000000000001,13.700000000000001,3.0,41.300000000000004,34.900000000000006,-22.3
1698924298.572,16,0.7000000000000001,3.3000000000000003,1.8,0.8,12.700000000000001,3.9000000000000004,57.3,25.1,-21.1
1698924298.589,16,0.8,1.4000000000000001,2.6,0.9,10.8,4.4,96.9,20.3,-12.3
1698924298.606,16,0.2,0.1,1.9000000000000001,0.6000000000000001,10.100000000000001,3.9000000000000004,114.00000000000001,20.4,-7.699999999999999
1698924298.622,16,-0.30000000000000004,-0.4,1.9000000000000001,-0.30000000000000004,9.1,3.1,128.9,8.799999999999999,-3.2
1698924298.639,16,-1.0,-0.7000000000000001,3.3000000000000003,-0.9,8.8,4.2,123.30000000000001,-0.1,-6.4
1698924298.655,16,-0.9,0.1,4.6000000000000005,-0.9,9.600000000000001,5.1000000000000005,110.2,4.800000000000001,-17.200000000000003
1698924298.672,16,-0.7000000000000001,0.30000000000000004,4.2,-0.7000000000000001,9.9,4.6000000000000005,94.60000000000001,8.200000000000001,-23.6
1698924298.689,16,0.30000000000000004,0.5,1.6,0.2,10.100000000000001,1.9000000000000001,11.4,-5.4,-30.5
1698924298.705,16,1.0,0.5,2.2,0.5,10.100000000000001,2.0,-35.1,-14.0,-30.599999999999998
1698924298.723,16,1.2000000000000002,0.30000000000000004,2.4000000000000004,0.9,9.9,2.9000000000000004,-81.4,-1.6,-27.900000000000002
1698924298.739,16,1.4000000000000001,-0.2,1.5,1.1,9.3,2.4000000000000004,-91.9,10.8,-22.000000000000004
1698924298.755,16,1.3,-0.9,0.8,1.0,8.6,2.0,-91.60000000000001,9.200000000000001,-13.0
1698924298.773,16,1.2000000000000002,-1.1,0.8,0.8,8.3,2.1,-87.10000000000001,5.9,-8.3
1698924298.789,16,0.8,-1.3,0.7000000000000001,0.4,8.200000000000001,2.3000000000000003,-68.9,0.1,-1.5000000000000002
1698924298.805,16,0.4,-1.3,0.2,0.0,8.1,2.0,-45.9,2.9,-0.2
1698924298.822,16,0.30000000000000004,-1.4000000000000001,0.0,-0.1,8.0,1.9000000000000001,-35.6,7.300000000000001,-1.4
1698924298.838,16,0.30000000000000004,-1.6,0.0,-0.1,7.7,1.9000000000000001,-16.3,20.0,-4.6000000000000005
1698924298.855,16,0.7000000000000001,-2.0,-0.1,0.2,7.4,1.8,2.9,25.900000000000002,-5.1
1698924298.872,16,0.8,-2.1,-0.1,0.4,7.2,1.8,12.3,23.6,-3.3000000000000003
1698924298.889,16,1.1,-2.2,-0.1,0.6000000000000001,7.1000000000000005,1.7000000000000002,28.200000000000003,18.1,3.7000000000000006
1698924298.905,16,1.0,-1.7000000000000002,-0.1,0.6000000000000001,7.6000000000000005,1.6,36.7,14.800000000000002,12.200000000000001
1698924298.923,16,0.8,-1.3,0.1,0.4,8.1,1.7000000000000002,38.2,16.3,15.399999999999999
1698924298.939,16,0.7000000000000001,-0.6000000000000001,-0.1,0.30000000000000004,8.8,1.3,36.1,26.200000000000003,13.0
1698924298.956,16,0.5,-0.7000000000000001,-0.2,0.30000000000000004,8.8,1.2000000000000002,25.400000000000002,24.3,3.2
1698924298.973,16,0.4,-1.1,-0.30000000000000004,0.1,8.4,1.2000000000000002,18.2,22.5,0.0
1698924298.989,16,0.30000000000000004,-1.2000000000000002,-0.6000000000000001,-0.1,8.200000000000001,0.8,0.6000000000000001,22.900000000000002,-2.1
1698924299.005,16,0.1,-1.3,-0.6000000000000001,-0.2,8.0,0.7000000000000001,-19.700000000000003,26.1,-2.1
1698924299.023,16,0.1,-1.4000000000000001,-0.7000000000000001,-0.30000000000000004,8.0,0.7000000000000001,-27.0,27.2,-1.9
1698924299.039,16,0.0,-1.1,-1.1,-0.4,8.200000000000001,0.4,-36.800000000000004,23.900000000000002,-1.3
1698924299.055,16,-0.30000000000000004,-0.4,-1.0,-0.7000000000000001,8.9,0.6000000000000001,-42.300000000000004,17.8,0.0
1698924299.073,16,-0.4,0.0,-0.8,-0.9,9.200000000000001,0.9,-41.0,16.8,1.5000000000000002
1698924299.089,16,-0.6000000000000001,0.8,-0.9,-1.0,10.0,0.9,-32.5,11.2,4.2
1698924299.105,16,-0.5,1.1,-0.6000000000000001,-1.0,10.200000000000001,1.1,-18.900000000000002,-2.3000000000000003,3.5
1698924299.122,16,-0.1,0.9,-1.0,-0.8,10.3,1.3,-10.3,-5.7,1.8
1698924299.139,16,0.30000000000000004,0.6000000000000001,-1.3,-0.1,9.8,0.5,0.0,-7.400000000000001,-3.5
1698924299.155,16,0.7000000000000001,0.4,-1.5,0.30000000000000004,9.600000000000001,0.4,-0.4,-8.700000000000001,-4.6000000000000005
1698924299.172,16,0.6000000000000001,1.4000000000000001,-0.8,0.2,10.700000000000001,1.1,-2.3000000000000003,-4.2,0.5
1698924299.189,16,0.4,2.5,-0.30000000000000004,0.0,11.700000000000001,1.6,1.6,-3.4,5.8
1698924299.206,16,-0.1,4.1000000000000005,-0.30000000000000004,-0.4,13.4,1.5,15.9,-19.200000000000003,19.400000000000002
1698924299.224,16,-0.30000000000000004,3.9000000000000004,-0.2,-0.6000000000000001,13.200000000000001,1.6,20.0,-27.2,24.6
1698924299.239,16,-0.1,2.7,1.2000000000000002,-0.30000000000000004,12.0,2.9000000000000004,28.700000000000003,-26.3,25.400000000000002
1698924299.255,16,-0.1,2.6,2.2,-0.30000000000000004,12.0,3.8000000000000003,50.300000000000004,-32.2,17.400000000000002
1698924299.272,16,-0.9,3.2,2.3000000000000003,-1.0,12.600000000000001,3.7,67.2,-31.099999999999998,18.8
1698924299.289,16,-1.0,3.1,2.3000000000000003,-1.0,12.600000000000001,3.6,70.6,-35.5,21.5
1698924299.305,16,-0.2,0.8,2.3000000000000003,-0.1,10.4,3.4000000000000004,66.4,-48.300000000000004,15.8
1698924299.323,16,0.0,-1.2000000000000002,2.3000000000000003,0.0,9.1,3.1,56.0,-46.5,6.6000000000000005
1698924299.339,16,0.2,-1.3,2.9000000000000004,0.2,8.3,3.8000000000000003,24.3,-31.8,-6.7
1698924299.356,16,0.2,0.0,3.3000000000000003,0.30000000000000004,9.5,4.3,-2.1999999999999997,-10.4,-6.9
1698924299.372,16,0.30000000000000004,0.30000000000000004,2.5,0.4,9.8,3.6,-22.5,-11.8,-4.7
1698924299.389,16,0.4,-0.30000000000000004,2.3000000000000003,0.4,9.200000000000001,3.4000000000000004,-31.099999999999998,-14.600000000000001,-4.6000000000000005
1698924299.405,16,0.30000000000000004,-1.8,1.7000000000000002,0.30000000000000004,7.7,2.9000000000000004,-41.6,-14.0,-2.9
1698924299.423,16,0.0,-2.0,1.5,0.1,7.5,2.8000000000000003,-44.1,-13.5,-1.0999999999999999
1698924299.439,16,-0.7000000000000001,-1.3,1.5,-0.6000000000000001,8.200000000000001,2.9000000000000004,-40.2,-15.8,3.2
1698924299.455,16,-1.4000000000000001,-0.5,1.3,-1.4000000000000001,8.9,2.9000000000000004,-27.7,-29.1,4.9
1698924299.472,16,-1.7000000000000002,-0.4,1.3,-1.6,9.0,3.0,-12.8,-40.8,6.2
1698924299.489,16,-1.6,-0.4,1.3,-1.5,9.1,3.0,-6.4,-44.1,4.3999999999999995
1698924299.505,16,-1.6,-0.30000000000000004,1.5,-1.5,9.1,3.1,2.1999999999999997,-43.2,-5.1
1698924299.522,16,-1.3,-0.5,1.3,-1.2000000000000002,8.9,3.0,5.8,-44.3,-16.5
1698924299.538,16,-1.1,-0.7000000000000001,1.2000000000000002,-1.1,8.700000000000001,2.9000000000000004,4.300000000000001,-48.300000000000004,-20.1
1698924299.555,16,-1.1,-0.7000000000000001,1.3,-1.1,8.700000000000001,2.9000000000000004,-4.5,-54.9,-19.9
1698924299.572,16,-1.2000000000000002,-0.1,0.8,-1.2000000000000002,9.3,2.5,-17.1,-59.1,-17.0
1698924299.589,16,-1.3,0.0,0.6000000000000001,-1.3,9.3,2.4000000000000004,-24.1,-62.900000000000006,-17.0
1698924299.606,16,-1.4000000000000001,-0.30000000000000004,0.30000000000000004,-1.4000000000000001,9.1,2.2,-34.50000000000001,-70.6,-19.1
1698924299.622,16,-1.3,-0.5,-0.1,-1.4000000000000001,8.9,1.9000000000000001,-40.1,-83.89999999999999,-22.3
1698924299.639,16,-1.3,-0.6000000000000001,-0.2,-1.4000000000000001,8.700000000000001,1.9000000000000001,-41.800000000000004,-91.60000000000001,-23.400000000000002
1698924299.655,16,-1.2000000000000002,-0.5,-0.4,-1.3,8.8,1.8,-43.300000000000004,-102.0,-26.0
1698924299.672,16,-1.2000000000000002,-0.2,-0.30000000000000004,-1.3,9.1,2.0,-41.0,-107.7,-29.1
1698924299.689,16,-1.1,0.0,-0.4,-1.3,9.200000000000001,2.0,-38.5,-110.2,-30.7
1698924299.706,16,-1.0,0.30000000000000004,-0.6000000000000001,-1.2000000000000002,9.5,1.9000000000000001,-32.6,-117.4,-34.2
1698924299.722,16,-0.8,0.30000000000000004,-0.8,-1.0,9.4,1.8,-26.8,-126.1,-37.2
1698924299.739,16,-0.7000000000000001,0.2,-0.9,-0.9,9.3,1.7000000000000002,-24.9,-130.3,-37.900000000000006
1698924299.756,16,-0.5,-0.1,-1.0,-0.7000000000000001,9.1,1.7000000000000002,-22.5,-138.20000000000002,-38.2
1698924299.772,16,-0.30000000000000004,-0.1,-1.0,-0.4,9.0,1.7000000000000002,-20.900000000000002,-144.0,-37.900000000000006
1698924299.788,16,-0.30000000000000004,-0.1,-0.9,-0.4,9.0,1.9000000000000001,-18.8,-145.7,-36.1
1698924299.806,16,-0.30000000000000004,0.1,-0.7000000000000001,-0.5,9.200000000000001,2.1,-16.5,-145.9,-34.7
1698924299.822,16,-0.2,0.4,-0.6000000000000001,-0.2,9.5,2.3000000000000003,-9.700000000000001,-150.0,-33.1
1698924299.839,16,-0.1,0.4,-0.8,-0.2,9.5,2.1,-7.300000000000001,-151.4,-33.800000000000004
1698924299.856,16,-0.30000000000000004,0.1,-1.2000000000000002,-0.30000000000000004,9.200000000000001,1.7000000000000002,-9.200000000000001,-150.6,-35.7
1698924299.872,16,-0.4,0.1,-1.3,-0.4,9.1,1.7000000000000002,-16.8,-153.70000000000002,-36.5
1698924299.889,16,-0.5,0.1,-1.5,-0.4,9.1,1.6,-24.7,-160.3,-36.800000000000004
1698924299.907,16,-0.6000000000000001,0.0,-1.6,-0.5,9.0,1.4000000000000001,-28.900000000000002,-163.5,-36.9
1698924299.922,16,-0.9,-0.2,-1.8,-0.7000000000000001,8.700000000000001,1.3,-37.900000000000006,-169.4,-35.3
1698924299.939,16,-1.0,-0.1,-1.8,-0.8,8.700000000000001,1.4000000000000001,-44.1,-175.0,-32.4
1698924299.956,16,-1.0,0.1,-1.6,-0.8,9.0,1.7000000000000002,-45.2,-176.7,-31.900000000000002
1698924299.973,16,-0.5,1.0,-0.9,-0.2,9.9,2.5,-38.7,-178.0,-34.400000000000006
1698924299.989,16,-0.2,1.0,-1.0,0.2,9.9,2.4000000000000004,-28.0,-163.7,-43.300000000000004
1698924300.005,16,0.30000000000000004,0.4,-1.7000000000000002,0.8,9.200000000000001,1.8,-24.9,-161.6,-45.0
1698924300.023,16,0.7000000000000001,0.0,-1.4000000000000001,1.2000000000000002,8.9,2.1,-18.8,-169.0,-43.1
1698924300.039,16,0.7000000000000001,0.4,-1.2000000000000002,1.3,9.200000000000001,2.3000000000000003,-10.8,-158.6,-38.900000000000006
1698924300.055,16,0.5,0.7000000000000001,-1.3,1.2000000000000002,9.5,2.2,-6.3,-153.60000000000002,-37.0
1698924300.072,16,0.8,1.4000000000000001,-1.2000000000000002,1.5,10.200000000000001,2.3000000000000003,1.0,-156.10000000000002,-35.1
1698924300.089,16,0.8,1.6,-0.6000000000000001,1.6,10.5,2.7,7.699999999999999,-163.1,-36.3
1698924300.105,16,0.6000000000000001,1.5,-0.4,1.5,10.4,2.9000000000000004,9.9,-158.10000000000002,-36.2
1698924300.122,16,0.4,0.7000000000000001,-0.5,1.4000000000000001,9.600000000000001,2.8000000000000003,10.1,-142.4,-34.1
1698924300.139,16,0.7000000000000001,0.2,-0.5,1.7000000000000002,9.200000000000001,2.6,3.5,-143.1,-33.1
1698924300.155,16,0.8,0.1,-0.4,1.8,9.0,2.7,-2.1999999999999997,-143.6,-35.1
1698924300.172,16,0.4,-0.4,-0.5,1.5,8.6,2.6,-16.2,-134.8,-38.5
1698924300.189,16,-0.2,-0.8,-1.1,0.9,8.1,2.0,-33.5,-129.3,-36.3
1698924300.205,16,-0.6000000000000001,-0.8,-1.3,0.6000000000000001,8.1,1.9000000000000001,-42.400000000000006,-132.4,-33.800000000000004
1698924300.222,16,-1.2000000000000002,-0.6000000000000001,-1.3,-0.1,8.200000000000001,2.0,-55.4,-135.70000000000002,-32.9
1698924300.239,16,-1.0,-0.4,-1.9000000000000001,0.2,8.3,1.5,-61.4,-142.50000000000003,-41.4
1698924300.255,16,-0.7000000000000001,-0.2,-2.1,0.5,8.5,1.3,-63.900000000000006,-149.3,-47.400000000000006
1698924300.272,16,0.0,0.5,-2.2,1.2000000000000002,9.200000000000001,1.4000000000000001,-68.2,-160.8,-58.00000000000001
1698924300.289,16,0.5,1.2000000000000002,-1.7000000000000002,1.7000000000000002,9.8,2.0,-65.8,-163.29999999999998,-65.7
1698924300.306,16,0.6000000000000001,1.4000000000000001,-1.6,1.9000000000000001,10.0,2.2,-60.900000000000006,-160.50000000000003,-68.1
1698924300.322,16,0.8,1.3,-1.6,2.1,9.9,2.2,-47.400000000000006,-152.0,-69.7
1698924300.339,16,1.1,0.9,-2.2,2.4000000000000004,9.5,1.6,-36.0,-141.8,-70.0
1698924300.356,16,1.2000000000000002,0.7000000000000001,-2.5,2.5,9.3,1.4000000000000001,-33.800000000000004,-136.1,-69.9
1698924300.373,16,1.5,0.6000000000000001,-2.6,2.7,9.1,1.3,-32.800000000000004,-127.10000000000001,-68.60000000000001
1698924300.388,16,1.4000000000000001,0.4,-2.5,2.6,8.9,1.4000000000000001,-29.600000000000005,-124.60000000000001,-64.0
1698924300.406,16,1.3,0.1,-2.5,2.5,8.700000000000001,1.4000000000000001,-27.2,-123.30000000000001,-60.00000000000001
1698924300.422,16,1.1,-0.30000000000000004,-2.3000000000000003,2.4000000000000004,8.200000000000001,1.6,-22.5,-115.3,-54.3
1698924300.439,16,1.3,-0.30000000000000004,-2.0,2.5,8.3,1.9000000000000001,-12.3,-111.80000000000001,-58.3
1698924300.456,16,1.3,-0.1,-1.9000000000000001,2.5,8.5,2.0,-5.8,-111.10000000000001,-61.1
1698924300.473,16,1.2000000000000002,0.4,-1.7000000000000002,2.4000000000000004,9.0,2.1,6.7,-99.7,-61.0
1698924300.489,16,1.0,0.6000000000000001,-1.7000000000000002,2.2,9.200000000000001,2.0,17.9,-91.50000000000001,-55.2
1698924300.505,16,1.1,0.30000000000000004,-1.4000000000000001,2.2,9.0,2.1,26.200000000000003,-89.8,-49.5
1698924300.522,16,1.2000000000000002,0.2,-1.3,2.3000000000000003,8.9,2.2,29.400000000000002,-88.7,-48.6
1698924300.539,16,1.2000000000000002,0.30000000000000004,-1.1,2.3000000000000003,9.1,2.3000000000000003,32.9,-82.0,-47.400000000000006
1698924300.556,16,1.2000000000000002,0.5,-1.1,2.3000000000000003,9.3,2.2,32.7,-76.9,-45.4
1698924300.572,16,1.0,0.6000000000000001,-1.3,2.0,9.5,1.9000000000000001,26.9,-71.30000000000001,-38.800000000000004
1698924300.589,16,0.8,0.6000000000000001,-1.0,1.8,9.5,2.1,16.2,-73.7,-32.1
1698924300.606,16,0.7000000000000001,0.8,-0.8,1.7000000000000002,9.700000000000001,2.2,4.6000000000000005,-71.0,-29.300000000000004
1698924300.622,16,0.6000000000000001,0.8,-0.9,1.6,9.8,2.1,-1.7,-65.10000000000001,-28.8
1698924300.639,16,0.6000000000000001,0.7000000000000001,-1.3,1.5,9.700000000000001,1.8,-16.3,-54.3,-27.400000000000002
1698924300.655,16,0.7000000000000001,0.5,-1.3,1.6,9.5,1.8,-29.200000000000003,-49.0,-25.900000000000002
1698924300.672,16,0.6000000000000001,0.5,-1.4000000000000001,1.5,9.4,1.8,-33.7,-45.7,-24.7
1698924300.688,16,0.7000000000000001,0.4,-1.5,1.6,9.3,1.7000000000000002,-38.900000000000006,-39.6,-22.000000000000004
1698924300.705,16,0.7000000000000001,0.1,-1.7000000000000002,1.6,9.0,1.6,-40.0,-36.3,-19.3
1698924300.722,16,0.7000000000000001,0.0,-1.9000000000000001,1.6,8.9,1.4000000000000001,-40.1,-34.6,-17.8
1698924300.739,16,0.6000000000000001,0.1,-1.8,1.4000000000000001,8.9,1.6,-38.900000000000006,-33.400000000000006,-14.100000000000001
1698924300.756,16,0.30000000000000004,0.4,-1.6,1.2000000000000002,9.1,1.9000000000000001,-35.3,-33.1,-11.9
1698924300.772,16,-0.1,0.9,-1.7000000000000002,0.8,9.600000000000001,1.8,-23.2,-33.6,-5.0
1698924300.789,16,-0.2,0.6000000000000001,-1.5,0.7000000000000001,9.4,2.1,-10.4,-33.5,-1.3
1698924300.807,16,0.30000000000000004,0.2,-1.3,1.2000000000000002,8.9,2.2,4.300000000000001,-30.299999999999997,-5.2
1698924300.822,16,0.5,0.1,-1.2000000000000002,1.5,8.8,2.3000000000000003,12.3,-31.4,-8.5
1698924300.839,16,1.0,-0.1,-1.3,1.9000000000000001,8.6,2.2,26.200000000000003,-28.400000000000002,-13.5
1698924300.855,16,1.2000000000000002,-0.5,-0.7000000000000001,2.1,8.3,2.6,36.1,-22.8,-10.2
1698924300.873,16,1.3,-0.6000000000000001,-0.30000000000000004,2.2,8.3,2.9000000000000004,43.0,-20.900000000000002,-5.8
1698924300.889,16,1.1,0.0,0.5,2.1,8.9,3.5,62.4,-30.9,6.000000000000001
1698924300.907,16,0.7000000000000001,0.8,0.7000000000000001,1.7000000000000002,9.700000000000001,3.6,74.2,-44.4,12.8
1698924300.923,16,-0.8,1.8,0.7000000000000001,0.4,10.8,3.4000000000000004,87.80000000000001,-57.6,21.0
1698924300.939,16,-1.1,1.2000000000000002,0.9,0.2,10.3,3.3000000000000003,81.5,-45.0,10.8
1698924300.955,16,-0.7000000000000001,0.1,1.3,0.6000000000000001,9.3,3.4000000000000004,65.89999999999999,-44.8,-12.100000000000001
1698924300.972,16,-0.7000000000000001,-0.1,1.5,0.5,9.1,3.5,55.800000000000004,-42.5,-17.0
1698924300.989,16,-1.0,-0.1,1.7000000000000002,0.2,9.1,3.7,35.7,-37.7,-11.1
1698924301.005,16,-1.0,0.2,1.7000000000000002,0.2,9.4,3.5,20.900000000000002,-46.6,-4.7
1698924301.022,16,-1.2000000000000002,0.30000000000000004,1.8,0.0,9.5,3.6,15.299999999999999,-52.1,-4.1000000000000005
1698924301.039,16,-1.8,0.5,1.8,-0.5,9.8,3.6,8.5,-52.400000000000006,-5.2
1698924301.055,16,-1.9000000000000001,1.0,2.0,-0.7000000000000001,10.0,3.6,6.000000000000001,-51.300000000000004,-7.6
1698924301.072,16,-1.7000000000000002,1.3,2.3000000000000003,-0.5,10.600000000000001,4.0,4.3999999999999995,-43.50000000000001,-18.5
1698924301.089,16,-1.1,1.4000000000000001,1.6,0.0,10.700000000000001,3.3000000000000003,5.4,-29.700000000000003,-34.7
1698924301.105,16,-0.6000000000000001,0.5,0.7000000000000001,0.4,9.8,2.4000000000000004,-3.0000000000000004,-28.700000000000003,-41.4
1698924301.123,16,-0.30000000000000004,0.0,0.6000000000000001,0.6000000000000001,9.4,2.3000000000000003,-9.3,-26.400000000000002,-38.5
1698924301.139,16,-0.1,-0.6000000000000001,0.1,0.7000000000000001,8.8,1.9000000000000001,-20.0,-20.1,-27.5
1698924301.155,16,-0.30000000000000004,-1.0,-0.2,0.5,8.3,1.7000000000000002,-28.0,-17.8,-16.3
1698924301.172,16,-0.30000000000000004,-1.1,-0.2,0.5,8.200000000000001,1.7000000000000002,-30.599999999999998,-16.8,-12.200000000000001
1698924301.189,16,-0.30000000000000004,-1.1,-0.30000000000000004,0.5,8.200000000000001,1.7000000000000002,-31.099999999999998,-17.5,-7.8
1698924301.205,16,-0.6000000000000001,-1.0,-0.5,0.1,8.3,1.6,-27.7,-17.599999999999998,-6.3
1698924301.222,16,-0.8,-0.6000000000000001,-0.6000000000000001,0.0,8.700000000000001,1.6,-23.1,-15.399999999999999,-5.2
1698924301.24,16,-0.8,-0.4,-0.6000000000000001,-0.1,8.8,1.6,-20.0,-14.200000000000001,-5.300000000000001
1698924301.255,16,-0.7000000000000001,-0.30000000000000004,-0.7000000000000001,0.0,8.9,1.6,-16.400000000000002,-12.6,-5.9
1698924301.272,16,-0.7000000000000001,-0.8,-0.9,0.0,8.700000000000001,1.4000000000000001,-6.2,-11.8,-8.5
1698924301.289,16,-0.7000000000000001,-1.0,-0.9,0.0,8.200000000000001,1.3,-4.0,-13.5,-8.200000000000001
1698924301.305,16,-0.7000000000000001,-1.1,-0.8,0.0,8.1,1.4000000000000001,-0.2,-18.3,-4.800000000000001
1698924301.323,16,-0.9,-0.9,-1.1,-0.1,8.200000000000001,1.3,1.5000000000000002,-20.1,-2.8
1698924301.339,16,-0.9,-0.7000000000000001,-1.2000000000000002,-0.30000000000000004,8.4,1.0,1.5000000000000002,-24.1,1.2000000000000002
1698924301.355,16,-1.0,-0.5,-1.3,-0.30000000000000004,8.6,0.9,-3.4,-27.8,3.7000000000000006
1698924301.373,16,-1.3,-0.6000000000000001,-1.2000000000000002,-0.6000000000000001,8.6,1.0,-10.0,-27.3,4.5
1698924301.389,16,-1.4000000000000001,-0.6000000000000001,-1.0,-0.7000000000000001,8.5,1.2000000000000002,-12.000000000000002,-26.8,5.2
1698924301.406,16,-1.2000000000000002,-0.9,-0.9,-0.4,8.3,1.3,-10.600000000000001,-31.099999999999998,5.9
1698924301.423,16,-1.0,-1.1,-0.7000000000000001,-0.30000000000000004,8.1,1.4000000000000001,-8.9,-33.2,5.300000000000001
1698924301.44,16,-0.9,-1.2000000000000002,-0.6000000000000001,-0.1,8.0,1.7000000000000002,-4.5,-31.7,3.6
1698924301.455,16,-0.5,-0.8,-0.6000000000000001,0.4,8.3,1.7000000000000002,2.4000000000000004,-25.6,0.7
1698924301.472,16,-0.2,-0.2,-0.6000000000000001,0.6000000000000001,8.9,1.6,9.1,-21.200000000000003,-4.6000000000000005
1698924301.489,16,-0.1,0.30000000000000004,-0.6000000000000001,0.8,9.4,1.6,12.000000000000002,-18.400000000000002,-6.5
1698924301.505,16,0.30000000000000004,0.9,-1.0,1.1,10.0,1.1,14.700000000000001,-9.5,-9.4
1698924301.522,16,0.4,0.9,-1.6,1.3,10.100000000000001,0.8,12.5,-5.2,-10.4
1698924301.539,16,0.30000000000000004,0.8,-1.7000000000000002,1.1,9.9,0.4,1.3,1.6,-6.8
1698924301.555,16,-0.30000000000000004,1.1,-1.6,0.5,10.3,0.4,-12.200000000000001,12.4,4.2
1698924301.572,16,-0.9,1.7000000000000002,-1.6,-0.1,10.9,0.5,-22.5,19.3,11.000000000000002
1698924301.589,16,-1.1,2.5,-0.9,-0.30000000000000004,11.700000000000001,1.3,-23.8,14.800000000000002,12.700000000000001
1698924301.605,16,-1.2000000000000002,4.5,0.7000000000000001,-0.30000000000000004,13.600000000000001,2.9000000000000004,-6.6000000000000005,8.5,10.5
1698924301.622,16,-1.3,4.9,0.5,-0.5,14.0,2.7,15.100000000000001,33.5,2.4000000000000004
1698924301.639,16,-0.9,4.5,0.6000000000000001,-0.1,13.700000000000001,2.8000000000000003,23.8,40.8,-2.1
1698924301.655,16,0.30000000000000004,3.1,2.1,1.0,12.4,4.1000000000000005,50.5,41.7,-16.400000000000002
1698924301.673,16,0.6000000000000001,2.2,2.9000000000000004,1.3,11.600000000000001,4.7,85.0,54.3,-18.6
1698924301.689,16,0.4,1.7000000000000002,2.2,1.0,11.100000000000001,3.9000000000000004,99.0,61.199999999999996,-15.7
1698924301.706,16,-0.2,0.0,0.2,0.30000000000000004,9.5,1.5,99.0,49.3,-5.8
1698924301.722,16,-0.4,-1.7000000000000002,0.8,0.1,7.800000000000001,2.0,66.3,31.6,3.7000000000000006
1698924301.739,16,-0.8,-2.2,1.9000000000000001,-0.2,7.300000000000001,3.0,50.0,31.0,8.0
1698924301.755,16,-1.9000000000000001,-1.2000000000000002,3.6,-1.4000000000000001,8.3,4.6000000000000005,30.599999999999998,32.5,16.6
1698924301.772,16,-2.5,0.5,3.0,-2.0,10.0,3.9000000000000004,16.3,14.500000000000002,15.299999999999999
1698924301.789,16,-2.3000000000000003,0.9,2.5,-1.7000000000000002,10.4,3.5,4.2,1.8,8.9
1698924301.806,16,-1.7000000000000002,0.2,2.0,-1.2000000000000002,9.700000000000001,3.0,-24.3,-14.0,-7.1000000000000005
1698924301.822,16,-1.1,-0.9,1.8,-0.5,8.6,2.9000000000000004,-45.7,-16.400000000000002,-9.0
1698924301.839,16,-0.7000000000000001,-1.0,1.7000000000000002,-0.2,8.5,2.9000000000000004,-51.800000000000004,-11.5,-7.500000000000001
1698924301.855,16,-0.30000000000000004,-0.7000000000000001,1.1,0.2,8.8,2.6,-56.0,2.7,-8.3
1698924301.873,16,0.1,-0.8,0.4,0.5,8.6,2.1,-54.5,7.400000000000001,-11.3
1698924301.889,16,0.2,-1.0,0.2,0.6000000000000001,8.4,1.9000000000000001,-52.7,6.4,-11.5
1698924301.905,16,0.4,-1.5,0.0,0.8,7.800000000000001,1.9000000000000001,-46.6,3.2,-8.5
1698924301.922,16,0.4,-1.8,0.2,0.8,7.5,2.2,-34.7,-1.8,-2.4000000000000004
1698924301.939,16,0.30000000000000004,-1.8,0.2,0.7000000000000001,7.5,2.3000000000000003,-26.0,-6.6000000000000005,1.6
1698924301.955,16,0.2,-1.5,0.1,0.6000000000000001,7.800000000000001,2.2,-7.8,-15.299999999999999,9.9
1698924301.972,16,-0.30000000000000004,-1.1,-0.1,0.2,8.1,2.0,4.9,-13.3,14.700000000000001
1698924301.989,16,-0.30000000000000004,-1.0,-0.4,0.2,8.3,1.7000000000000002,11.5,-6.000000000000001,11.1
1698924302.005,16,-0.30000000000000004,-1.0,-0.5,0.2,8.3,1.5,12.700000000000001,-5.7,6.2
1698924302.022,16,-0.2,-1.1,-0.6000000000000001,0.4,8.200000000000001,1.4000000000000001,11.5,-6.6000000000000005,-2.3000000000000003
1698924302.039,16,-0.1,-1.1,-0.5,0.5,8.1,1.4000000000000001,7.6,-4.6000000000000005,-4.1000000000000005
1698924302.057,16,0.2,-1.2000000000000002,-0.5,0.7000000000000001,8.0,1.5,5.6,-2.0,-3.5
1698924302.074,16,0.30000000000000004,-1.2000000000000002,-0.5,0.8,8.1,1.5,2.1999999999999997,3.5,-1.4
1698924302.089,16,0.30000000000000004,-1.1,-0.5,0.8,8.200000000000001,1.4000000000000001,0.8,5.6,-0.8
1698924302.105,16,0.2,-0.9,-0.9,0.7000000000000001,8.3,1.0,-3.5,8.9,-0.6000000000000001
1698924302.122,16,0.2,-0.9,-1.0,0.7000000000000001,8.3,0.9,-10.5,12.3,-2.1
1698924302.138,16,0.2,-0.8,-0.8,0.6000000000000001,8.4,1.2000000000000002,-14.500000000000002,14.600000000000001,-5.4
1698924302.155,16,0.2,-0.7000000000000001,-0.7000000000000001,0.6000000000000001,8.5,1.3,-14.3,16.5,-7.699999999999999
1698924302.172,16,0.0,-0.5,-0.7000000000000001,0.4,8.6,1.3,-11.9,18.900000000000002,-11.1
1698924302.188,16,-0.2,-0.2,-0.5,0.1,9.0,1.5,-7.400000000000001,15.000000000000002,-9.3
1698924302.205,16,-0.6000000000000001,0.1,-0.4,-0.2,9.3,1.7000000000000002,-3.3000000000000003,10.600000000000001,-5.500000000000001
1698924302.222,16,-1.3,0.5,-0.4,-0.9,9.700000000000001,1.6,6.4,1.9,5.7
1698924302.239,16,-0.8,0.7000000000000001,-0.8,-0.5,9.9,1.2000000000000002,12.4,-4.300000000000001,8.799999999999999
1698924302.255,16,-0.5,0.9,-1.0,-0.1,10.100000000000001,1.0,13.0,-10.3,6.5
1698924302.273,16,0.1,1.1,-1.5,0.5,10.3,0.4,7.2,-18.6,0.0
1698924302.289,16,0.5,1.2000000000000002,-1.9000000000000001,0.9,10.5,0.0,-8.1,-17.9,-5.7
1698924302.306,16,0.5,1.8,-1.7000000000000002,0.9,11.0,0.30000000000000004,-17.599999999999998,-17.0,-6.6000000000000005
1698924302.324,16,0.0,3.7,0.2,0.4,12.9,2.2,-25.5,-11.4,-0.2
1698924302.339,16,-0.30000000000000004,4.1000000000000005,0.7000000000000001,0.1,13.4,2.8000000000000003,-6.2,-19.3,20.2
1698924302.355,16,-0.5,3.0,0.7000000000000001,0.0,12.3,2.8000000000000003,6.3,-33.400000000000006,30.5
1698924302.372,16,-0.30000000000000004,1.7000000000000002,1.7000000000000002,0.30000000000000004,11.0,3.7,30.599999999999998,-50.1,35.9
1698924302.388,16,-0.4,1.0,1.7000000000000002,0.30000000000000004,10.4,3.6,52.300000000000004,-30.799999999999997,19.1
1698924302.405,16,-0.6000000000000001,0.8,1.8,0.2,10.200000000000001,3.6,58.3,-16.3,9.4
1698924302.422,16,-0.2,0.9,2.8000000000000003,0.6000000000000001,10.3,4.4,71.4,-21.5,-5.2
1698924302.439,16,0.0,0.2,3.7,0.8,9.600000000000001,5.0,85.0,-23.400000000000002,-8.0
1698924302.456,16,0.1,-0.5,3.5,0.8,9.0,4.6000000000000005,86.80000000000001,-11.000000000000002,-5.2
1698924302.473,16,0.2,-1.1,2.5,0.9,8.3,3.4000000000000004,70.3,6.8,2.9
1698924302.489,16,0.2,-1.0,2.5,0.9,8.5,3.4000000000000004,32.1,1.0,11.700000000000001
1698924302.506,16,-0.5,0.1,2.9000000000000004,0.30000000000000004,9.600000000000001,3.7,11.6,0.1,16.400000000000002
1698924302.523,16,-0.8,0.8,2.0,0.1,10.3,2.9000000000000004,-26.500000000000004,0.9,17.1
1698924302.54,16,-1.0,0.4,1.5,0.1,10.200000000000001,2.6,-43.6,-1.8,12.200000000000001
1698924302.557,16,-1.2000000000000002,0.2,1.6,-0.30000000000000004,9.600000000000001,2.7,-66.4,0.1,2.9
1698924302.573,16,-1.1,-0.1,1.1,-0.30000000000000004,9.3,2.6,-70.0,2.3000000000000003,1.0999999999999999
1698924302.589,16,-1.3,-0.7000000000000001,0.5,-0.30000000000000004,9.0,2.3000000000000003,-67.60000000000001,2.3000000000000003,1.0999999999999999
1698924302.605,16,-1.2000000000000002,-0.9,0.4,-0.4,8.5,2.1,-59.400000000000006,2.7,0.30000000000000004
1698924302.624,16,-1.1,-1.1,0.2,-0.30000000000000004,8.200000000000001,2.1,-45.4,7.1000000000000005,-4.3999999999999995
1698924302.639,16,-0.8,-1.3,0.0,0.0,8.0,2.0,-27.7,14.3,-11.2
1698924302.655,16,-0.6000000000000001,-1.4000000000000001,-0.1,0.1,7.9,1.9000000000000001,-18.400000000000002,16.0,-13.6
1698924302.672,16,-0.7000000000000001,-1.4000000000000001,-0.2,0.0,7.9,1.9000000000000001,1.2000000000000002,9.9,-12.000000000000002
1698924302.689,16,-0.8,-1.2000000000000002,-0.2,-0.1,8.1,1.8,18.900000000000002,0.6000000000000001,-3.9
1698924302.706,16,-0.9,-1.1,-0.2,-0.2,8.200000000000001,1.8,25.3,-1.8,-1.6
1698924302.724,16,-0.9,-0.9,-0.1,-0.30000000000000004,8.4,1.8,32.0,-3.4,-1.6
1698924302.74,16,-0.8,-0.7000000000000001,-0.1,-0.2,8.6,1.7000000000000002,30.100000000000005,-1.6,-3.0000000000000004
1698924302.756,16,-0.8,-0.7000000000000001,-0.1,-0.2,8.6,1.6,26.0,-1.4,-2.6
1698924302.773,16,-0.8,-0.7000000000000001,-0.30000000000000004,-0.1,8.6,1.4000000000000001,12.6,-2.9,1.0999999999999999
1698924302.79,16,-0.9,-0.5,-0.4,-0.2,8.8,1.2000000000000002,-6.3,-2.0,4.0
1698924302.806,16,-1.0,-0.5,-0.5,-0.30000000000000004,8.8,1.2000000000000002,-16.2,-2.4000000000000004,4.6000000000000005
1698924302.824,16,-1.1,-0.6000000000000001,-0.5,-0.4,8.700000000000001,1.3,-31.900000000000002,-5.1,5.0
1698924302.839,16,-1.1,-0.7000000000000001,-0.9,-0.4,8.5,1.0,-41.5,-9.600000000000001,6.1000000000000005
1698924302.856,16,-1.1,-0.8,-1.0,-0.5,8.5,0.9,-45.2,-13.200000000000001,7.0
1698924302.873,16,-1.2000000000000002,-0.8,-1.1,-0.5,8.4,1.0,-48.9,-17.9,8.1
1698924302.889,16,-1.3,-0.5,-0.7000000000000001,-0.6000000000000001,8.6,1.6,-44.1,-15.7,7.0
1698924302.906,16,-1.1,-0.4,-0.6000000000000001,-0.4,8.700000000000001,1.7000000000000002,-37.4,-12.700000000000001,4.9
1698924302.924,16,-0.6000000000000001,-0.2,-0.8,0.1,8.8,1.5,-20.900000000000002,-7.9,-3.5
1698924302.94,16,-0.1,-0.4,-0.7000000000000001,0.6000000000000001,8.6,1.7000000000000002,-5.2,-3.5,-10.4
1698924302.956,16,0.0,-0.4,-0.6000000000000001,0.7000000000000001,8.700000000000001,1.7000000000000002,3.3000000000000003,-0.8,-10.9
1698924302.974,16,-0.1,0.2,-0.30000000000000004,0.6000000000000001,9.3,2.0,20.1,4.300000000000001,-7.6
1698924302.989,16,-0.1,1.2000000000000002,0.30000000000000004,0.6000000000000001,10.3,2.5,34.300000000000004,5.9,-10.0
1698924303.005,16,0.1,1.9000000000000001,1.1,0.7000000000000001,11.100000000000001,3.2,43.900000000000006,9.9,-15.000000000000002
1698924303.023,16,-0.2,2.6,0.30000000000000004,0.30000000000000004,11.8,2.2,61.0,15.299999999999999,-26.6
1698924303.039,16,-0.30000000000000004,2.3000000000000003,0.7000000000000001,0.1,11.600000000000001,2.5,52.800000000000004,24.400000000000002,-21.0
1698924303.055,16,-0.4,2.1,0.5,0.0,11.4,2.3000000000000003,45.3,33.2,-15.2
1698924303.072,16,-0.4,1.3,0.4,0.0,10.600000000000001,2.1,19.500000000000004,30.200000000000003,-3.1
1698924303.089,16,-0.2,2.7,2.5,0.1,12.100000000000001,4.1000000000000005,6.7,29.600000000000005,-0.6000000000000001
1698924303.106,16,-0.5,3.3000000000000003,1.7000000000000002,-0.2,12.600000000000001,3.4000000000000004,7.9,26.500000000000004,-4.7
1698924303.123,16,-0.8,2.7,2.0,-0.5,12.100000000000001,3.7,2.5,16.5,-11.8
1698924303.139,16,-0.6000000000000001,0.4,1.0,-0.4,9.9,2.7,-4.3999999999999995,2.9,-12.4
1698924303.156,16,-0.5,-0.6000000000000001,1.4000000000000001,-0.30000000000000004,8.8,3.1,-9.600000000000001,-5.6,-12.200000000000001
1698924303.172,16,-0.5,-1.6,2.0,-0.4,7.800000000000001,3.7,-10.9,-14.3,-14.200000000000001
1698924303.189,16,-1.2000000000000002,-0.9,2.4000000000000004,-1.1,8.5,4.2,-4.7,-18.1,-16.2
1698924303.206,16,-1.4000000000000001,-0.4,2.1,-1.3,8.9,3.9000000000000004,-2.4000000000000004,-18.1,-18.8
1698924303.222,16,-1.2000000000000002,0.0,1.7000000000000002,-1.2000000000000002,9.4,3.6,-3.9,-22.4,-26.6
1698924303.239,16,-0.30000000000000004,0.1,1.6,-0.4,9.4,3.5,-9.700000000000001,-26.9,-28.900000000000002
1698924303.255,16,0.6000000000000001,0.0,1.6,0.4,9.3,3.6,-17.1,-29.1,-21.3
1698924303.273,16,0.9,-0.2,1.3,0.8,9.1,3.3000000000000003,-20.0,-28.900000000000002,-16.6
1698924303.29,16,0.9,-1.0,0.8,0.8,8.4,2.9000000000000004,-28.0,-35.7,-7.8
1698924303.305,16,0.4,-1.4000000000000001,0.6000000000000001,0.30000000000000004,7.9,2.8000000000000003,-32.4,-41.9,-1.4
1698924303.323,16,0.1,-1.3,0.5,0.0,8.0,2.8000000000000003,-32.5,-42.7,-1.7
1698924303.339,16,0.0,-1.1,0.6000000000000001,-0.1,8.200000000000001,3.0,-28.700000000000003,-40.2,-7.699999999999999
1698924303.355,16,0.4,-0.9,0.5,0.30000000000000004,8.3,2.9000000000000004,-19.1,-41.2,-12.9
1698924303.372,16,0.5,-1.0,0.2,0.4,8.200000000000001,2.7,-15.000000000000002,-41.1,-13.9
1698924303.39,16,1.0,-1.4000000000000001,0.2,0.9,7.800000000000001,2.7,-11.4,-37.2,-13.4
1698924303.409,16,1.3,-1.5,0.30000000000000004,1.2000000000000002,7.7,2.8000000000000003,-7.2,-36.4,-11.3
1698924303.422,16,1.4000000000000001,-1.4000000000000001,0.2,1.3,7.7,2.7,-5.500000000000001,-35.9,-9.8
1698924303.439,16,1.0,-1.1,0.2,0.9,8.1,2.7,-5.4,-31.7,-5.7
1698924303.456,16,0.8,-0.9,0.30000000000000004,0.7000000000000001,8.3,2.9000000000000004,-5.8,-22.8,-5.4
1698924303.473,16,0.4,-0.6000000000000001,0.30000000000000004,0.30000000000000004,8.5,2.8000000000000003,-5.300000000000001,-20.2,-6.9
1698924303.489,16,0.5,-0.7000000000000001,0.0,0.5,8.5,2.6,-6.7,-18.7,-13.8
1698924303.506,16,0.8,-0.9,-0.1,0.7000000000000001,8.200000000000001,2.6,-8.5,-19.0,-19.3
1698924303.523,16,0.9,-1.1,-0.30000000000000004,0.8,8.0,2.4000000000000004,-9.1,-16.3,-19.9
1698924303.539,16,1.1,-1.3,-0.6000000000000001,0.9,7.800000000000001,2.1,-11.700000000000001,-13.3,-19.3
1698924303.556,16,1.1,-1.4000000000000001,-0.5,0.9,7.7,2.1,-12.100000000000001,-12.6,-18.7
1698924303.572,16,0.9,-1.2000000000000002,-0.7000000000000001,0.7000000000000001,7.9,2.0,-9.700000000000001,-14.3,-16.5
1698924303.589,16,0.1,-0.7000000000000001,-0.5,-0.1,8.3,2.2,-5.0,-24.000000000000004,-11.9
1698924303.608,16,-0.7000000000000001,-0.2,-0.2,-1.0,8.8,2.6,3.0000000000000004,-26.9,-9.4
1698924303.622,16,-1.2000000000000002,0.0,-0.2,-1.4000000000000001,9.0,2.5,8.0,-31.2,-10.3
1698924303.639,16,-1.6,0.4,-0.30000000000000004,-1.9000000000000001,9.5,2.4000000000000004,14.600000000000001,-39.2,-16.1
1698924303.656,16,-1.2000000000000002,1.0,-0.4,-1.5,10.0,2.2,15.5,-39.400000000000006,-26.1
1698924303.672,16,0.0,1.1,-0.6000000000000001,-1.0,10.200000000000001,2.1,14.3,-38.6,-31.099999999999998
1698924303.689,16,0.5,1.1,-0.5,0.0,10.100000000000001,2.0,9.4,-43.0,-34.7
1698924303.706,16,0.9,1.0,-0.4,0.6000000000000001,10.200000000000001,2.1,5.7,-38.300000000000004,-30.4
1698924303.722,16,1.2000000000000002,1.7000000000000002,-0.2,0.7000000000000001,10.8,2.4000000000000004,3.1,-34.400000000000006,-23.6
1698924303.739,16,1.1,2.2,0.30000000000000004,0.6000000000000001,11.3,2.8000000000000003,3.9,-35.9,-19.400000000000002
1698924303.755,16,0.5,3.3000000000000003,1.9000000000000001,0.0,12.5,4.5,14.4,-47.400000000000006,-3.0000000000000004
1698924303.772,16,-1.1,3.9000000000000004,2.4000000000000004,-1.5,13.100000000000001,4.800000000000001,39.50000000000001,-78.9,26.1
1698924303.789,16,-2.2,3.3000000000000003,1.2000000000000002,-2.5,12.5,3.6,43.6,-81.8,37.900000000000006
1698924303.806,16,-1.5,0.8,-1.0,-1.7000000000000002,10.100000000000001,1.3,17.200000000000003,-71.30000000000001,30.299999999999997
1698924303.822,16,-0.4,-0.6000000000000001,-1.3,-0.6000000000000001,8.700000000000001,1.1,-4.5,-77.2,9.4
1698924303.839,16,0.6000000000000001,-1.8,-0.4,0.4,7.4,2.1,-41.0,-82.0,-39.6
1698924303.856,16,1.3,-0.9,0.4,1.1,8.200000000000001,3.0,-48.400000000000006,-74.10000000000001,-53.400000000000006
1698924303.873,16,0.6000000000000001,-1.1,0.0,0.6000000000000001,8.3,2.8000000000000003,-43.7,-67.80000000000001,-48.400000000000006
1698924303.889,16,0.30000000000000004,-1.6,0.1,0.0,7.5,2.9000000000000004,-24.9,-74.0,-25.1
1698924303.906,16,-0.9,-2.5,0.1,-1.2000000000000002,6.5,2.9000000000000004,2.1,-86.1,-8.0
1698924303.922,16,-2.1,-2.4000000000000004,0.7000000000000001,-2.3000000000000003,6.7,3.4000000000000004,25.900000000000002,-99.30000000000001,-4.9
1698924303.939,16,-2.5,-1.7000000000000002,1.1,-2.7,7.4,3.8000000000000003,38.6,-107.6,-6.000000000000001
1698924303.955,16,-2.4000000000000004,0.30000000000000004,1.3,-2.5,9.4,3.8000000000000003,58.1,-127.9,-11.9
1698924303.972,16,-1.6,1.6,1.0,-1.7000000000000002,10.8,3.3000000000000003,57.400000000000006,-134.9,-20.2
1698924303.989,16,-1.0,1.5,0.6000000000000001,-1.1,10.700000000000001,2.9000000000000004,46.7,-134.5,-25.2
1698924304.006,16,-0.2,0.1,0.4,-0.2,9.4,2.6,10.8,-138.5,-30.299999999999997
1698924304.022,16,-0.30000000000000004,0.1,0.2,-0.30000000000000004,9.4,2.5,-24.400000000000002,-135.8,-28.400000000000002
1698924304.039,16,-0.5,0.5,0.0,-0.5,9.8,2.4000000000000004,-36.800000000000004,-137.1,-28.500000000000004
1698924304.056,16,-0.9,0.9,-0.2,-0.9,10.100000000000001,2.3000000000000003,-52.300000000000004,-141.3,-32.9
1698924304.073,16,-1.1,1.0,-0.5,-1.1,10.100000000000001,2.1,-55.7,-138.9,-37.6
1698924304.089,16,-1.1,0.9,-0.8,-1.1,10.100000000000001,1.9000000000000001,-54.0,-139.60000000000002,-39.50000000000001
1698924304.106,16,-1.1,0.9,-0.9,-1.1,10.0,2.0,-45.0,-152.3,-42.1
1698924304.124,16,-1.2000000000000002,0.9,-0.9,-1.2000000000000002,10.0,2.0,-37.900000000000006,-157.0,-43.300000000000004
1698924304.14,16,-1.3,0.9,-1.1,-1.3,10.0,1.9000000000000001,-23.0,-157.8,-50.1
1698924304.156,16,-1.0,0.6000000000000001,-1.5,-1.0,9.700000000000001,1.6,-10.9,-159.2,-61.50000000000001
1698924304.173,16,-0.30000000000000004,0.2,-1.4000000000000001,-0.4,9.200000000000001,1.7000000000000002,-2.4000000000000004,-169.10000000000002,-67.2
1698924304.189,16,-0.2,0.0,-1.4000000000000001,-0.30000000000000004,9.1,1.6,0.4,-172.4,-66.3
1698924304.205,16,-0.2,0.0,-1.6,-0.30000000000000004,9.0,1.5,0.8,-175.20000000000002,-63.0
1698924304.222,16,-0.2,0.2,-1.5,-0.30000000000000004,9.200000000000001,1.6,-3.3000000000000003,-179.3,-62.300000000000004
1698924304.239,16,-0.2,0.4,-1.3,-0.30000000000000004,9.4,1.8,-5.300000000000001,-181.0,-62.199999999999996
1698924304.256,16,-0.1,0.6000000000000001,-1.4000000000000001,-0.2,9.700000000000001,1.6,-8.9,-184.0,-62.50000000000001
1698924304.272,16,0.2,0.5,-1.5,0.1,9.5,1.6,-16.3,-185.7,-61.900000000000006
1698924304.288,16,0.2,0.5,-1.6,0.2,9.5,1.6,-20.5,-184.60000000000002,-61.1
1698924304.306,16,0.30000000000000004,0.4,-1.7000000000000002,0.2,9.3,1.5,-28.3,-182.4,-58.9
1698924304.322,16,0.2,0.1,-1.7000000000000002,0.2,9.1,1.6,-33.1,-181.3,-56.1
1698924304.339,16,0.1,0.0,-1.8,0.0,8.9,1.6,-33.7,-180.50000000000003,-54.9
1698924304.356,16,0.0,0.0,-1.6,0.0,8.8,1.8,-31.8,-176.9,-53.9
1698924304.373,16,0.0,0.2,-1.9000000000000001,0.0,9.0,1.6,-27.5,-174.3,-57.00000000000001
1698924304.389,16,0.0,0.2,-1.8,0.1,9.0,1.7000000000000002,-25.8,-173.60000000000002,-58.9
1698924304.406,16,-0.1,0.1,-1.6,0.0,8.9,2.0,-19.6,-170.8,-58.9
1698924304.422,16,-0.30000000000000004,0.30000000000000004,-1.5,-0.2,9.1,2.2,-10.5,-165.8,-55.300000000000004
1698924304.439,16,-0.4,0.5,-1.2000000000000002,-0.2,9.3,2.4000000000000004,-2.1,-163.9,-53.8
1698924304.456,16,-0.4,0.6000000000000001,-0.7000000000000001,-0.2,9.4,2.8000000000000003,1.7,-162.70000000000002,-53.9
1698924304.473,16,-0.1,1.3,-1.4000000000000001,0.1,10.100000000000001,2.1,9.9,-159.70000000000002,-57.699999999999996
1698924304.49,16,-0.1,0.7000000000000001,-0.5,0.1,9.5,3.0,2.4000000000000004,-158.9,-60.7
1698924304.508,16,-0.2,0.7000000000000001,-0.6000000000000001,0.0,9.600000000000001,2.9000000000000004,-0.2,-149.0,-59.20000000000001
1698924304.522,16,-0.6000000000000001,0.9,-0.8,-0.30000000000000004,9.700000000000001,2.7,-10.5,-139.5,-56.2
1698924304.539,16,-0.4,1.0,-0.4,-0.2,9.8,3.1,-15.6,-137.0,-55.0
1698924304.555,16,0.0,1.1,-0.5,0.2,9.9,3.0,-20.4,-134.6,-56.7
1698924304.573,16,0.5,0.5,-0.6000000000000001,0.7000000000000001,9.3,3.0,-27.2,-134.6,-58.1
1698924304.589,16,0.9,0.30000000000000004,-0.6000000000000001,1.2000000000000002,9.1,3.1,-29.400000000000002,-136.4,-55.1
1698924304.606,16,0.9,0.30000000000000004,-0.6000000000000001,1.2000000000000002,9.0,3.1,-29.300000000000004,-139.70000000000002,-52.300000000000004
1698924304.622,16,0.5,0.1,-0.6000000000000001,0.8,8.8,3.3000000000000003,-29.400000000000002,-141.8,-44.1
1698924304.639,16,0.2,-0.1,-0.5,0.5,8.700000000000001,3.3000000000000003,-30.4,-140.6,-41.6
1698924304.656,16,0.2,-0.4,-0.1,0.6000000000000001,8.3,3.8000000000000003,-32.0,-137.1,-47.800000000000004
1698924304.672,16,0.9,-0.4,-0.2,1.3,8.200000000000001,3.8000000000000003,-31.6,-131.20000000000002,-59.20000000000001
1698924304.688,16,1.4000000000000001,-0.2,-0.6000000000000001,1.7000000000000002,8.3,3.5,-34.900000000000006,-115.7,-65.10000000000001
1698924304.705,16,1.7000000000000002,-0.30000000000000004,-1.0,2.4000000000000004,8.0,3.2,-38.2,-104.60000000000001,-67.5
1698924304.722,16,2.4000000000000004,-0.8,-0.9,2.7,7.7,3.4000000000000004,-42.1,-90.7,-71.30000000000001
1698924304.739,16,2.6,-0.8,-1.0,2.8000000000000003,7.6000000000000005,3.4000000000000004,-35.1,-90.10000000000001,-62.0
1698924304.756,16,2.4000000000000004,-0.7000000000000001,-0.9,2.7,7.800000000000001,3.5,-29.900000000000006,-93.0,-51.6
1698924304.773,16,1.3,0.1,-0.7000000000000001,1.7000000000000002,8.5,3.7,-18.6,-90.4,-29.000000000000004
1698924304.789,16,0.4,0.6000000000000001,-0.30000000000000004,0.8,9.0,4.2,-9.4,-76.5,-27.0
1698924304.807,16,0.6000000000000001,0.4,-0.4,0.7000000000000001,8.9,4.1000000000000005,-5.500000000000001,-70.9,-31.8
1698924304.823,16,1.0,0.4,-0.4,1.3,8.8,4.1000000000000005,-5.300000000000001,-62.199999999999996,-42.900000000000006
1698924304.839,16,1.6,0.5,-0.1,1.9000000000000001,8.9,4.4,-11.9,-58.400000000000006,-42.2
1698924304.856,16,1.6,0.5,-0.1,2.0,8.9,4.4,-16.400000000000002,-54.9,-38.2
1698924304.874,16,1.3,0.5,0.0,1.7000000000000002,8.8,4.5,-28.500000000000004,-47.800000000000004,-29.500000000000004
1698924304.889,16,0.8,0.30000000000000004,0.0,1.1,8.6,4.6000000000000005,-39.6,-38.900000000000006,-24.3
1698924304.905,16,0.5,0.2,0.0,0.9,8.4,4.800000000000001,-45.5,-36.6,-22.8
1698924304.922,16,0.4,0.30000000000000004,0.0,0.8,8.5,4.800000000000001,-45.4,-36.6,-22.4
1698924304.938,16,0.2,0.6000000000000001,-0.1,0.6000000000000001,8.700000000000001,4.9,-42.800000000000004,-35.8,-21.5
1698924304.956,16,0.2,0.5,0.0,0.5,8.6,5.0,-40.9,-33.900000000000006,-21.3
1698924304.973,16,0.2,0.2,0.0,0.5,8.200000000000001,5.1000000000000005,-36.0,-27.2,-21.3
1698924304.989,16,0.30000000000000004,-0.4,-0.1,0.6000000000000001,7.9,5.0,-33.400000000000006,-20.3,-22.6
1698924305.006,16,0.4,-0.5,0.1,0.7000000000000001,7.5,5.4,-31.900000000000002,-17.599999999999998,-22.7
1698924305.022,16,0.30000000000000004,-0.5,-0.1,0.6000000000000001,7.4,5.300000000000001,-30.4,-13.9,-19.6
1698924305.039,16,0.2,-0.7000000000000001,0.4,0.5,7.300000000000001,5.5,-31.8,-13.3,-15.7
1698924305.055,16,0.0,-0.6000000000000001,0.4,0.30000000000000004,7.2,5.9,-31.0,-14.0,-8.9
1698924305.073,16,-0.5,-0.4,0.1,-0.2,7.300000000000001,5.7,-31.3,-13.200000000000001,-8.0
1698924305.09,16,-0.7000000000000001,-0.5,0.0,-0.4,7.2,5.7,-35.7,-11.000000000000002,-12.3
1698924305.106,16,-0.7000000000000001,-0.5,0.1,-0.4,7.1000000000000005,5.9,-36.5,-12.6,-13.6
1698924305.123,16,-0.7000000000000001,-0.6000000000000001,-0.1,-0.4,6.9,5.6000000000000005,-36.0,-13.700000000000001,-11.8
1698924305.139,16,-0.8,-1.1,-0.30000000000000004,-0.5,6.7,5.5,-36.6,-13.8,-9.8
1698924305.155,16,-0.8,-1.2000000000000002,-0.30000000000000004,-0.6000000000000001,6.2,5.6000000000000005,-36.5,-11.6,-8.799999999999999
1698924305.173,16,-0.8,-1.0,-0.4,-0.6000000000000001,6.300000000000001,5.6000000000000005,-30.9,-8.600000000000001,-11.6
1698924305.189,16,-0.30000000000000004,-0.5,-0.4,-0.1,6.800000000000001,5.6000000000000005,-24.3,-6.3,-13.9
1698924305.206,16,0.1,-0.7000000000000001,-0.30000000000000004,0.2,6.5,5.800000000000001,-20.7,-4.0,-12.000000000000002
1698924305.223,16,0.1,-1.0,-0.2,0.2,6.2,5.9,-20.1,-2.6,-9.200000000000001
1698924305.238,16,-0.1,-1.3,-0.4,0.0,5.9,5.800000000000001,-19.9,2.0,-3.2
1698924305.255,16,-0.2,-1.4000000000000001,-0.4,-0.1,5.7,5.9,-19.700000000000003,2.3000000000000003,-0.6000000000000001
1698924305.273,16,-0.30000000000000004,-1.3,-0.30000000000000004,-0.2,5.800000000000001,5.9,-18.1,0.6000000000000001,0.8
1698924305.289,16,-0.6000000000000001,-1.1,-0.2,-0.5,5.9,6.0,-16.1,-2.3000000000000003,3.3000000000000003
1698924305.307,16,-1.5,-0.7000000000000001,-0.1,-1.3,6.300000000000001,6.300000000000001,-12.4,-8.1,7.500000000000001
1698924305.324,16,-1.5,-0.8,-0.1,-1.4000000000000001,6.2,6.2,-12.4,-7.8,3.9
1698924305.339,16,-1.3,-1.1,-0.2,-1.1,5.800000000000001,6.2,-15.8,-3.8,-5.7
1698924305.356,16,-1.0,-1.2000000000000002,-0.4,-0.9,5.800000000000001,6.0,-16.5,-0.2,-9.3
1698924305.373,16,-0.6000000000000001,-1.3,-0.4,-0.4,5.6000000000000005,6.0,-16.1,0.4,-10.8
1698924305.389,16,-0.4,-1.3,-0.2,-0.30000000000000004,5.5,6.2,-8.9,-1.0,-6.9
1698924305.406,16,-0.4,-1.2000000000000002,-0.5,-0.30000000000000004,5.7,6.0,-2.0,-1.7,-2.4000000000000004
1698924305.423,16,-0.4,-1.2000000000000002,-0.4,-0.4,5.6000000000000005,6.0,-1.8,-2.3000000000000003,-1.4
1698924305.438,16,-0.5,-1.2000000000000002,-0.4,-0.4,5.6000000000000005,6.1000000000000005,-3.6,-3.4,0.5
1698924305.455,16,-0.4,-1.0,-0.6000000000000001,-0.30000000000000004,5.800000000000001,5.800000000000001,-8.200000000000001,-4.0,2.6
1698924305.472,16,-0.5,-0.9,-0.7000000000000001,-0.5,5.9,6.0,-13.3,-4.6000000000000005,3.0000000000000004
1698924305.488,16,-0.8,-0.9,-0.5,-0.7000000000000001,5.9,6.0,-13.100000000000001,-3.2,2.9
1698924305.505,16,-0.9,-0.6000000000000001,-0.1,-0.8,6.1000000000000005,6.4,-7.6,-1.4,1.4
1698924305.522,16,-0.8,-0.5,-0.4,-0.7000000000000001,6.2,6.2,-2.9,-3.4,-2.1999999999999997
1698924305.538,16,-0.7000000000000001,-0.5,-0.30000000000000004,-0.6000000000000001,6.2,6.2,-3.4,-4.2,-3.6
1698924305.555,16,-0.8,-0.4,0.2,-0.7000000000000001,6.300000000000001,6.7,-4.800000000000001,-3.2,-3.8
1698924305.572,16,-1.0,-0.2,0.2,-0.8,6.4,6.800000000000001,-5.500000000000001,-3.0000000000000004,-2.7
1698924305.589,16,-1.0,-0.30000000000000004,0.0,-0.9,6.4,6.5,-7.300000000000001,-3.8,-3.0000000000000004
1698924305.606,16,-1.1,-0.4,-0.1,-1.0,6.2,6.5,-12.8,-8.5,-4.300000000000001
1698924305.622,16,-1.2000000000000002,-0.4,-0.1,-1.1,6.1000000000000005,6.5,-13.100000000000001,-10.9,-4.1000000000000005
1698924305.639,16,-1.4000000000000001,-0.1,0.4,-1.3,6.5,7.0,-10.600000000000001,-12.3,-3.5
1698924305.656,16,-1.3,0.2,0.6000000000000001,-1.2000000000000002,6.800000000000001,7.2,-3.4,-10.700000000000001,-6.4
1698924305.672,16,-1.2000000000000002,0.30000000000000004,0.7000000000000001,-1.1,6.9,7.300000000000001,-1.4,-10.700000000000001,-9.9
1698924305.69,16,-0.9,0.30000000000000004,1.0,-0.8,6.9,7.7,-1.5000000000000002,-11.3,-17.400000000000002
1698924305.706,16,-0.7000000000000001,0.30000000000000004,1.0,-0.6000000000000001,6.800000000000001,7.7,-1.5000000000000002,-7.699999999999999,-22.4
1698924305.723,16,-0.6000000000000001,0.2,1.1,-0.6000000000000001,6.800000000000001,7.7,-2.9,-8.1,-23.6
1698924305.739,16,-0.7000000000000001,0.2,1.6,-0.7000000000000001,6.7,8.3,-0.5,-4.2,-23.1
1698924305.755,16,-1.0,-0.2,1.3,-1.0,6.4,8.0,5.0,-7.6,-21.5
1698924305.772,16,-0.9,-0.30000000000000004,1.3,-1.0,6.300000000000001,7.9,7.500000000000001,-5.9,-20.3
1698924305.79,16,-0.6000000000000001,-0.4,1.0,-0.8,6.2,7.7,11.2,-6.7,-19.8
1698924305.806,16,-0.6000000000000001,-0.5,0.9,-0.7000000000000001,6.1000000000000005,7.5,14.100000000000001,-6.1000000000000005,-19.8
1698924305.822,16,-0.7000000000000001,-0.7000000000000001,1.0,-0.8,6.0,7.7,15.8,-6.1000000000000005,-18.6
1698924305.839,16,-0.8,-0.7000000000000001,0.9,-1.0,6.0,7.5,22.7,-7.699999999999999,-14.200000000000001
1698924305.856,16,-0.8,-0.9,1.0,-1.0,5.800000000000001,7.6000000000000005,31.0,-10.3,-10.700000000000001
1698924305.872,16,-0.8,-1.1,0.8,-1.0,5.7,7.300000000000001,40.4,-13.100000000000001,-7.8
1698924305.889,16,-0.8,-1.2000000000000002,0.8,-1.0,5.6000000000000005,7.2,44.4,-13.9,-5.9
1698924305.905,16,-0.6000000000000001,-1.3,0.7000000000000001,-0.8,5.6000000000000005,7.0,53.400000000000006,-15.299999999999999,-0.2
1698924305.922,16,-0.2,-1.4000000000000001,0.6000000000000001,-0.4,5.7,6.800000000000001,65.5,-15.399999999999999,5.300000000000001
1698924305.939,16,0.0,-1.4000000000000001,0.30000000000000004,-0.1,5.800000000000001,6.300000000000001,72.6,-16.3,7.1000000000000005
1698924305.956,16,0.4,-1.6,-0.4,0.30000000000000004,5.7,5.5,83.7,-16.5,9.700000000000001
1698924305.973,16,0.30000000000000004,-1.9000000000000001,-1.0,0.30000000000000004,5.6000000000000005,4.6000000000000005,92.4,-11.8,12.5
1698924305.989,16,0.4,-2.0,-1.2000000000000002,0.4,5.5,4.3,96.80000000000001,-10.1,13.8
1698924306.008,16,0.30000000000000004,-1.7000000000000002,-0.8,0.4,6.1000000000000005,4.4,111.10000000000001,-8.1,15.000000000000002
1698924306.023,16,0.2,0.2,0.30000000000000004,0.30000000000000004,8.200000000000001,5.1000000000000005,132.8,-8.700000000000001,16.400000000000002
1698924306.039,16,0.2,1.7000000000000002,1.1,0.4,9.700000000000001,5.800000000000001,144.10000000000002,-9.0,16.700000000000003
1698924306.055,16,0.2,5.7,2.6,0.4,14.100000000000001,6.9,158.5,-12.8,18.0
1698924306.073,16,0.4,9.3,3.4000000000000004,0.7000000000000001,17.900000000000002,7.2,145.7,-6.9,14.800000000000002
1698924306.088,16,0.6000000000000001,8.9,2.9000000000000004,0.9,17.6,6.6000000000000005,122.7,-5.1,10.4
1698924306.105,16,2.0,9.200000000000001,-0.9,2.4000000000000004,18.2,2.3000000000000003,167.5,-98.6,-1.6
1698924306.123,16,-0.8,-0.2,-2.0,-0.30000000000000004,9.1,0.5,198.9,43.2,4.2
1698924306.139,16,1.0,3.8000000000000003,3.8000000000000003,1.5,13.100000000000001,6.1000000000000005,146.20000000000002,1.0999999999999999,2.1
1698924306.155,16,0.0,6.2,-4.1000000000000005,0.4,15.700000000000001,-2.5,176.5,-59.60000000000001,-18.7
1698924306.172,16,-2.1,-1.7000000000000002,-5.1000000000000005,-1.7000000000000002,7.9,-4.0,129.7,-17.0,-20.900000000000002
1698924306.189,16,-0.2,-0.8,-4.3,0.1,8.700000000000001,-3.4000000000000004,95.4,2.6,-13.6
1698924306.205,16,-1.4000000000000001,-2.2,-0.9,-1.1,7.4,-0.30000000000000004,96.4,7.0,-12.100000000000001
1698924306.222,16,-0.4,-0.2,-1.8,-0.1,9.4,-1.5,100.60000000000001,17.3,-10.1
1698924306.238,16,-0.2,0.1,-1.5,-0.1,8.8,-1.2000000000000002,101.0,20.8,-8.5
1698924306.256,16,-0.4,-0.30000000000000004,-1.0,-0.2,9.3,-1.3,99.30000000000001,27.900000000000002,-7.2
1698924306.273,16,-0.2,-0.8,0.5,0.0,8.8,-0.1,98.5,33.0,-8.3
1698924306.289,16,-0.9,-0.8,-0.6000000000000001,-0.7000000000000001,8.700000000000001,-1.4000000000000001,100.10000000000001,33.400000000000006,-8.799999999999999
1698924306.305,16,-0.5,-0.30000000000000004,-0.5,-0.30000000000000004,9.200000000000001,-1.5,92.30000000000001,30.9,-2.7
1698924306.322,16,-0.30000000000000004,-0.2,0.0,-0.1,9.3,-1.4000000000000001,87.60000000000001,23.700000000000003,-0.4
1698924306.339,16,-0.30000000000000004,0.0,-0.4,-0.1,9.4,-1.9000000000000001,85.60000000000001,20.7,-0.30000000000000004
1698924306.355,16,-0.4,-0.1,-0.9,-0.2,9.4,-2.7,75.2,16.1,-0.5
1698924306.373,16,-0.2,-0.4,-0.9,0.0,8.9,-2.9000000000000004,64.7,14.3,-0.9
1698924306.389,16,0.0,-0.6000000000000001,-0.9,0.2,8.700000000000001,-3.0,60.20000000000001,13.4,-1.7
1698924306.408,16,-0.4,-0.1,-1.2000000000000002,-0.1,9.200000000000001,-3.4000000000000004,53.00000000000001,4.300000000000001,-2.8
1698924306.422,16,-0.30000000000000004,0.1,-1.0,-0.1,9.4,-3.4000000000000004,46.6,-0.6000000000000001,-1.4
1698924306.44,16,-0.4,-0.2,-0.8,-0.1,9.200000000000001,-3.3000000000000003,42.400000000000006,-3.2,-1.4
1698924306.455,16,-0.30000000000000004,-0.30000000000000004,-0.7000000000000001,-0.1,8.9,-3.4000000000000004,35.9,-5.9,-1.5000000000000002
1698924306.473,16,-0.30000000000000004,0.1,-0.7000000000000001,-0.1,9.3,-3.5,30.100000000000005,-7.500000000000001,-1.3
1698924306.49,16,-0.2,0.0,-0.7000000000000001,-0.1,9.200000000000001,-3.5,27.1,-8.4,-1.3
1698924306.505,16,-0.1,0.1,-0.5,0.1,9.3,-3.4000000000000004,21.6,-9.1,-1.7
1698924306.523,16,-0.30000000000000004,-0.1,-0.6000000000000001,-0.2,9.0,-3.6,15.8,-8.799999999999999,-2.0
1698924306.538,16,-0.4,-0.2,-0.7000000000000001,-0.2,8.9,-3.7,12.6,-7.699999999999999,-1.8
1698924306.556,16,-0.4,0.0,-0.6000000000000001,-0.30000000000000004,9.1,-3.5,6.9,-5.1,-1.4
1698924306.573,16,-0.30000000000000004,0.0,-0.4,-0.2,9.1,-3.4000000000000004,3.2,-2.8,-1.0
1698924306.591,16,-0.30000000000000004,0.0,-0.4,-0.30000000000000004,9.0,-3.4000000000000004,0.5,-1.8,-0.7
1698924306.606,16,-0.4,-0.2,-0.5,-0.30000000000000004,8.9,-3.5,-0.30000000000000004,-1.8,-0.6000000000000001
1698924306.622,16,-0.5,-0.2,-0.4,-0.4,8.9,-3.5,-2.0,-2.3000000000000003,-0.6000000000000001
1698924306.639,16,-0.5,-0.2,-0.30000000000000004,-0.4,8.9,-3.3000000000000003,-2.6,-2.6,-0.4
1698924306.656,16,-0.4,-0.1,-0.1,-0.30000000000000004,9.0,-3.1,-3.1,-2.9,-0.1
1698924306.673,16,-0.4,-0.1,0.1,-0.30000000000000004,9.0,-2.9000000000000004,-3.3000000000000003,-3.5,0.1
1698924306.689,16,-0.4,0.0,0.1,-0.30000000000000004,9.1,-2.8000000000000003,-2.5,-3.6,0.1
1698924306.705,16,-0.4,0.0,0.2,-0.30000000000000004,9.1,-2.8000000000000003,-2.1999999999999997,-3.6,0.1
1698924306.722,16,-0.30000000000000004,0.0,0.2,-0.2,9.1,-2.8000000000000003,-1.3,-3.2,0.4
1698924306.739,16,-0.30000000000000004,0.0,0.30000000000000004,-0.2,9.1,-2.7,-1.4,-2.7,0.2
1698924306.756,16,-0.30000000000000004,-0.1,0.2,-0.30000000000000004,9.1,-2.7,-1.7,-2.1,0.2
1698924306.773,16,-0.30000000000000004,0.0,0.30000000000000004,-0.2,9.1,-2.7,-1.8,-1.3,0.30000000000000004
1698924306.79,16,-0.30000000000000004,0.0,0.2,-0.2,9.1,-2.7,-1.7,-0.7,0.1
1698924306.806,16,-0.30000000000000004,0.0,0.2,-0.30000000000000004,9.1,-2.7,-1.6,-0.2,0.0
1698924306.822,16,-0.30000000000000004,0.0,0.1,-0.30000000000000004,9.1,-2.8000000000000003,-1.0999999999999999,0.6000000000000001,0.0
1698924306.838,16,-0.30000000000000004,-0.1,0.0,-0.30000000000000004,9.0,-2.9000000000000004,-0.4,1.2000000000000002,-0.1
1698924306.855,16,-0.2,-0.1,0.0,-0.30000000000000004,9.1,-2.9000000000000004,0.0,1.2000000000000002,0.0
1698924306.873,16,-0.2,-0.1,0.0,-0.2,9.0,-2.9000000000000004,0.8,1.0999999999999999,-0.2
1698924306.89,16,-0.2,-0.1,-0.1,-0.30000000000000004,9.1,-3.0,1.5000000000000002,0.9,-0.1
1698924306.906,16,-0.2,-0.1,-0.1,-0.30000000000000004,9.0,-3.0,1.7,0.6000000000000001,-0.2
1698924306.923,16,-0.2,-0.1,-0.1,-0.30000000000000004,9.0,-3.0,1.9,0.7,0.0
1698924306.939,16,-0.2,-0.1,-0.1,-0.30000000000000004,9.0,-3.1,1.8,0.7,0.0
1698924306.955,16,-0.2,-0.1,-0.1,-0.30000000000000004,9.0,-3.0,1.6,0.6000000000000001,0.0
1698924306.972,16,-0.2,-0.1,-0.1,-0.30000000000000004,9.0,-3.0,1.3,0.5,0.0
1698924306.989,16,-0.2,0.0,-0.1,-0.30000000000000004,9.0,-3.1,1.0999999999999999,0.6000000000000001,-0.1
1698924307.009,16,-0.2,-0.1,-0.1,-0.30000000000000004,9.0,-3.1,0.5,0.4,0.1
1698924307.024,16,-0.2,-0.1,-0.1,-0.30000000000000004,9.0,-3.1,0.1,0.5,0.1
1698924307.039,16,-0.2,0.0,-0.1,-0.30000000000000004,9.0,-3.1,-0.2,0.6000000000000001,0.0
1698924307.055,16,-0.2,0.0,-0.1,-0.30000000000000004,9.0,-3.1,-0.5,0.30000000000000004,0.1
1698924307.073,16,-0.1,-0.1,0.0,-0.30000000000000004,9.0,-3.0,-0.7,0.0,0.2
1698924307.089,16,-0.1,0.0,0.0,-0.30000000000000004,9.1,-3.0,-0.6000000000000001,0.2,0.2
1698924307.106,16,-0.1,0.0,0.1,-0.30000000000000004,9.0,-2.9000000000000004,-0.6000000000000001,0.7,0.30000000000000004
1698924307.123,16,-0.1,0.0,0.0,-0.30000000000000004,9.0,-3.0,-0.6000000000000001,0.9,0.30000000000000004
1698924307.138,16,-0.1,-0.1,0.0,-0.2,9.0,-3.0,-0.7,0.9,0.30000000000000004
1698924307.155,16,-0.1,0.0,0.1,-0.2,9.0,-2.9000000000000004,-0.8,1.0999999999999999,0.30000000000000004
1698924307.172,16,-0.1,0.0,0.0,-0.2,9.1,-3.0,-0.7,1.0,0.1
1698924307.188,16,-0.1,0.0,-0.1,-0.30000000000000004,9.1,-3.0,-0.9,0.9,0.2
1698924307.205,16,-0.1,0.0,-0.1,-0.30000000000000004,9.1,-3.1,-0.9,0.9,0.30000000000000004
1698924307.222,16,-0.1,0.0,0.0,-0.2,9.0,-3.0,-1.3,0.8,0.2
1698924307.239,16,-0.1,0.0,0.0,-0.2,9.0,-3.0,-1.5000000000000002,0.4,0.30000000000000004
1698924307.255,16,-0.1,0.0,0.0,-0.2,9.0,-3.0,-1.5000000000000002,0.4,0.2
1698924307.273,16,-0.1,0.0,0.0,-0.30000000000000004,9.0,-3.0,-1.4,0.5,0.30000000000000004
1698924307.289,16,-0.1,0.0,0.0,-0.30000000000000004,9.0,-3.0,-1.4,0.5,0.2
1698924307.306,16,-0.1,0.0,0.0,-0.30000000000000004,9.1,-3.0,-1.2000000000000002,0.4,0.30000000000000004
1698924307.323,16,-0.1,0.0,0.0,-0.30000000000000004,9.0,-3.0,-1.2000000000000002,0.30000000000000004,0.2
1698924307.339,16,-0.1,0.0,0.0,-0.30000000000000004,9.0,-2.9000000000000004,-1.0999999999999999,0.4,0.30000000000000004
1698924307.355,16,0.0,0.0,0.0,-0.2,9.1,-2.9000000000000004,-0.6000000000000001,0.4,0.2
1698924307.373,16,0.0,0.0,0.0,-0.2,9.1,-2.9000000000000004,-0.4,0.4,0.30000000000000004
1698924307.389,16,0.0,0.0,0.0,-0.2,9.0,-2.9000000000000004,-0.2,0.30000000000000004,0.1
1698924307.405,16,0.0,0.0,0.0,-0.2,9.1,-3.0,0.0,0.2,0.1
1698924307.423,16,0.0,0.0,0.0,-0.2,9.1,-2.9000000000000004,0.2,0.1,0.1
1698924307.438,16,0.0,0.0,0.0,-0.2,9.0,-2.9000000000000004,0.5,0.1,0.1
1698924307.455,16,0.0,0.0,0.0,-0.2,9.1,-2.9000000000000004,0.6000000000000001,0.1,-0.1
1698924307.472,16,0.0,0.0,0.0,-0.2,9.1,-3.0,0.7,0.1,-0.1
1698924307.488,16,-0.1,0.0,0.0,-0.2,9.1,-3.0,0.6000000000000001,0.1,-0.2
1698924307.506,16,0.0,0.0,0.0,-0.2,9.0,-3.0,0.5,0.1,-0.2
1698924307.522,16,0.0,0.0,0.0,-0.2,9.0,-3.0,0.5,0.1,-0.2
1698924307.539,16,0.0,0.0,0.0,-0.2,9.1,-3.0,0.4,-0.1,-0.2
1698924307.555,16,0.0,0.0,-0.1,-0.30000000000000004,9.0,-3.0,0.30000000000000004,-0.1,-0.30000000000000004
1698924307.573,16,-0.1,0.0,-0.1,-0.30000000000000004,9.0,-3.0,0.30000000000000004,-0.2,-0.2
1698924307.589,16,0.0,0.0,0.0,-0.2,9.1,-3.0,0.30000000000000004,-0.30000000000000004,-0.1
1698924307.606,16,0.0,0.0,0.0,-0.30000000000000004,9.0,-2.9000000000000004,0.30000000000000004,-0.2,-0.2
1698924307.622,16,0.0,0.0,0.0,-0.30000000000000004,9.0,-2.9000000000000004,0.30000000000000004,-0.2,-0.1
1698924307.639,16,0.0,0.0,0.0,-0.30000000000000004,9.0,-3.0,0.2,-0.2,-0.1
1698924307.655,16,0.0,0.0,0.0,-0.30000000000000004,9.0,-3.0,0.1,-0.30000000000000004,0.0
1698924307.671,16,0.0,0.0,0.0,-0.2,9.0,-3.0,0.0,0.0,-0.1
1698924307.689,16,0.0,0.0,0.0,-0.2,9.0,-3.0,0.1,0.0,-0.1
1698924307.706,16,0.0,0.0,0.0,-0.30000000000000004,9.0,-3.0,0.2,-0.2,0.0
1698924307.722,16,0.0,0.0,0.0,-0.30000000000000004,9.1,-3.0,0.30000000000000004,-0.2,0.1
1698924307.739,16,0.0,0.0,0.0,-0.30000000000000004,9.1,-2.9000000000000004,0.5,-0.2,0.0
1698924307.755,16,0.0,0.0,0.0,-0.30000000000000004,9.1,-2.9000000000000004,0.5,-0.2,-0.1
1698924307.772,16,0.0,0.0,0.0,-0.30000000000000004,9.1,-2.9000000000000004,0.5,-0.4,-0.1
1698924307.789,16,0.0,0.0,-0.1,-0.2,9.0,-3.0,0.30000000000000004,-0.5,-0.1
1698924307.805,16,0.0,0.0,0.0,-0.2,9.0,-3.0,0.30000000000000004,-0.7,0.0
1698924307.822,16,0.0,0.0,0.0,-0.2,9.1,-3.0,0.30000000000000004,-0.5,-0.1
1698924307.839,16,0.0,0.0,0.0,-0.2,9.0,-3.0,0.4,-0.5,0.0
1698924307.856,16,0.0,0.0,0.0,-0.2,9.0,-3.0,0.5,-0.4,0.0
1698924307.872,16,0.0,0.0,0.0,-0.2,9.0,-3.0,0.5,-0.1,0.0
1698924307.889,16,0.0,0.0,0.0,-0.30000000000000004,9.0,-3.0,0.30000000000000004,-0.1,-0.1
1698924307.905,16,0.0,0.0,0.0,-0.30000000000000004,9.1,-3.0,0.30000000000000004,-0.2,-0.1
1698924307.922,16,0.0,0.0,-0.1,-0.30000000000000004,9.0,-3.0,0.2,-0.2,0.0
1698924307.939,16,0.0,0.0,0.0,-0.30000000000000004,9.0,-3.0,0.0,-0.2,0.0
1698924307.955,16,0.0,0.0,0.0,-0.30000000000000004,9.1,-3.0,-0.2,-0.4,-0.1
1698924307.972,16,0.0,0.0,0.0,-0.30000000000000004,9.0,-3.0,-0.30000000000000004,-0.4,0.0
1698924307.989,16,0.0,0.0,0.0,-0.30000000000000004,9.0,-3.0,-0.6000000000000001,-0.4,-0.1
1698924308.005,16,0.0,0.0,0.0,-0.30000000000000004,9.0,-3.0,-0.8,-0.2,0.0
1698924308.023,16,0.0,0.0,0.0,-0.2,9.0,-3.0,-0.8,-0.30000000000000004,-0.1
1698924308.039,16,0.0,0.0,0.0,-0.30000000000000004,9.1,-3.0,-0.8,-0.30000000000000004,0.1
1698924308.055,16,0.0,0.0,0.0,-0.2,9.0,-3.0,-0.6000000000000001,-0.2,0.1
1698924308.072,16,0.0,0.0,0.0,-0.30000000000000004,9.0,-2.9000000000000004,-0.5,0.0,0.0
1698924308.089,16,0.0,0.0,0.0,-0.2,9.0,-3.0,-0.5,0.1,0.1
1698924308.105,16,0.0,0.0,0.1,-0.2,9.0,-2.9000000000000004,-0.30000000000000004,0.1,0.0
1698924308.123,16,0.0,0.0,0.1,-0.30000000000000004,9.0,-2.9000000000000004,-0.2,0.2,-0.1
1698924308.138,16,0.0,0.0,0.0,-0.30000000000000004,9.0,-2.9000000000000004,-0.1,0.2,0.0
1698924308.155,16,0.0,0.0,0.0,-0.30000000000000004,9.0,-2.9000000000000004,0.0,0.2,0.0
1698924308.171,16,0.0,0.0,0.0,-0.30000000000000004,9.1,-3.0,-0.2,0.2,0.0
1698924308.188,16,0.0,0.0,0.0,-0.30000000000000004,9.1,-3.0,-0.2,0.2,0.0
1698924308.205,16,0.0,0.0,0.0,-0.30000000000000004,9.0,-3.0,-0.1,0.1,0.1
1698924308.221,16,0.0,0.0,0.0,-0.30000000000000004,9.0,-3.0,0.0,-0.1,0.1
1698924308.238,16,0.0,0.0,0.0,-0.2,9.0,-3.0,0.1,0.2,0.0
1698924308.255,16,0.0,0.0,0.0,-0.2,9.0,-3.0,0.2,0.2,0.0
1698924308.272,16,0.0,0.0,0.0,-0.30000000000000004,9.1,-3.0,0.2,0.2,0.1
1698924308.288,16,0.0,0.0,0.0,-0.2,9.0,-3.0,0.2,0.2,0.0
1698924308.305,16,0.0,0.0,0.0,-0.30000000000000004,9.0,-3.0,0.1,0.2,0.1
1698924308.322,16,0.0,0.0,0.0,-0.30000000000000004,9.0,-3.0,0.0,0.4,0.1
1698924308.339,16,0.0,0.0,0.0,-0.2,9.0,-2.9000000000000004,-0.1,0.30000000000000004,0.0
1698924308.355,16,0.0,0.0,0.0,-0.30000000000000004,9.0,-3.0,0.1,0.2,0.1
1698924308.372,16,0.0,0.0,-0.1,-0.30000000000000004,9.0,-3.0,-0.1,0.4,0.0
1698924308.389,16,0.0,0.0,0.0,-0.30000000000000004,9.0,-3.0,-0.30000000000000004,0.5,0.1
1698924308.405,16,0.0,0.0,0.0,-0.30000000000000004,9.0,-3.0,-0.4,0.5,0.1
1698924308.421,16,0.0,0.0,0.0,-0.2,9.0,-3.0,-0.6000000000000001,0.4,0.1
1698924308.439,16,0.0,0.0,0.0,-0.2,9.1,-2.9000000000000004,-0.30000000000000004,0.2,0.1
1698924308.455,16,0.0,0.0,0.0,-0.2,9.1,-2.9000000000000004,-0.4,0.1,0.1
1698924308.472,16,0.0,0.0,0.0,-0.2,9.0,-3.0,-0.4,0.1,0.1
1698924308.491,16,0.0,0.0,0.0,-0.2,9.1,-3.0,-0.4,0.2,0.0
1698924308.505,16,0.0,0.0,0.0,-0.2,9.0,-3.0,-0.4,0.1,0.0
1698924308.522,16,0.0,0.0,0.0,-0.30000000000000004,9.0,-3.0,-0.4,0.2,-0.1
1698924308.538,16,0.0,0.0,0.0,-0.2,9.0,-3.0,-0.5,0.1,0.0
1698924308.555,16,0.0,0.0,0.0,-0.30000000000000004,9.0,-3.0,-0.6000000000000001,0.1,0.0
1698924308.572,16,0.0,0.0,0.0,-0.30000000000000004,9.0,-2.9000000000000004,-0.7,-0.1,0.0
1698924308.588,16,0.0,0.0,0.0,-0.30000000000000004,9.0,-2.9000000000000004,-0.5,-0.1,0.0
1698924308.605,16,0.0,0.0,0.0,-0.30000000000000004,9.1,-2.9000000000000004,-0.5,-0.2,0.1
1698924308.622,16,0.0,0.0,0.0,-0.2,9.1,-2.9000000000000004,-0.30000000000000004,-0.2,0.0
1698924308.639,16,0.0,0.0,0.0,-0.2,9.0,-2.9000000000000004,-0.30000000000000004,-0.2,0.0
1698924308.656,16,0.0,0.0,0.0,-0.2,9.1,-3.0,-0.30000000000000004,-0.2,0.0
1698924308.672,16,0.0,0.0,0.0,-0.2,9.1,-2.9000000000000004,-0.1,-0.2,-0.1
1698924308.689,16,0.0,0.0,0.0,-0.2,9.1,-2.9000000000000004,0.2,-0.2,0.0
1698924308.705,16,0.0,0.0,0.0,-0.2,9.1,-2.9000000000000004,0.2,-0.2,0.0
1698924308.722,16,0.0,0.0,0.0,-0.30000000000000004,9.0,-2.9000000000000004,0.4,-0.1,-0.1
1698924308.738,16,0.0,0.0,0.0,-0.30000000000000004,9.1,-3.0,0.5,-0.1,-0.2
1698924308.755,16,0.0,0.0,0.0,-0.30000000000000004,9.0,-2.9000000000000004,0.6000000000000001,-0.1,-0.2
1698924308.772,16,0.0,0.0,0.0,-0.30000000000000004,9.0,-2.9000000000000004,0.6000000000000001,0.0,-0.1
1698924308.789,16,0.0,0.0,0.0,-0.30000000000000004,9.1,-3.0,0.7,-0.2,0.1
1698924308.805,16,0.0,0.0,0.0,-0.30000000000000004,9.1,-2.9000000000000004,0.7,-0.1,0.0
1698924308.822,16,0.0,0.0,0.0,-0.2,9.0,-3.0,0.6000000000000001,-0.1,0.0
1698924308.838,16,0.0,0.0,0.0,-0.30000000000000004,9.0,-3.0,0.5,0.0,0.0
1698924308.855,16,0.0,0.0,0.0,-0.30000000000000004,9.0,-3.0,0.4,0.1,0.0
1698924308.872,16,0.0,0.0,-0.1,-0.30000000000000004,9.0,-3.0,0.30000000000000004,-0.2,0.0
1698924308.888,16,0.0,0.0,0.0,-0.30000000000000004,9.0,-3.0,0.4,-0.30000000000000004,0.0
1698924308.905,16,0.0,0.0,0.0,-0.2,9.0,-3.0,0.30000000000000004,-0.30000000000000004,0.0
1698924308.922,16,0.0,0.0,0.0,-0.2,9.0,-3.0,0.2,-0.2,0.0
1698924308.938,16,0.0,0.0,0.0,-0.2,9.0,-3.0,0.0,0.0,0.0
1698924308.955,16,0.0,0.0,0.0,-0.2,9.0,-3.0,0.0,0.0,0.1
1698924308.972,16,0.0,0.0,0.0,-0.2,9.0,-3.0,-0.30000000000000004,0.1,0.0
1698924308.988,16,0.0,0.0,0.0,-0.30000000000000004,9.0,-3.0,-0.4,0.2,0.0
1698924309.006,16,0.0,0.0,0.0,-0.2,9.0,-2.9000000000000004,-0.4,0.2,0.0
1698924309.023,16,0.0,0.0,0.0,-0.30000000000000004,9.0,-3.0,-0.30000000000000004,0.2,0.0
1698924309.038,16,0.0,0.0,0.0,-0.30000000000000004,9.0,-3.0,-0.30000000000000004,0.2,-0.1
1698924309.055,16,0.0,0.0,0.0,-0.30000000000000004,9.0,-3.0,-0.4,0.2,0.0
1698924309.072,16,0.0,0.0,0.0,-0.30000000000000004,9.0,-3.0,-0.30000000000000004,0.2,0.0
1698924309.088,16,0.0,0.0,0.0,-0.30000000000000004,9.0,-3.0,-0.4,0.2,0.0
1698924309.105,16,0.0,0.0,0.0,-0.30000000000000004,9.0,-3.0,-0.4,0.2,0.1
1698924309.123,16,0.0,0.0,0.0,-0.2,9.0,-2.9000000000000004,-0.4,0.1,0.1
1698924309.138,16,0.0,0.0,0.0,-0.2,9.1,-3.0,-0.4,0.2,0.0
1698924309.155,16,0.0,0.0,0.0,-0.2,9.1,-3.0,-0.4,0.1,0.0
1698924309.172,16,0.0,0.0,0.0,-0.2,9.0,-3.0,-0.6000000000000001,0.1,0.0
1698924309.188,16,0.0,0.0,0.0,-0.2,9.0,-3.0,-0.7,-0.2,0.0
1698924309.206,16,0.0,0.0,0.0,-0.2,9.0,-3.0,-0.6000000000000001,-0.2,-0.2
1698924309.223,16,0.0,0.0,0.0,-0.2,9.0,-3.0,-0.6000000000000001,-0.30000000000000004,0.0
1698924309.238,16,0.0,0.0,0.0,-0.2,9.0,-2.9000000000000004,-0.4,-0.4,0.0
1698924309.255,16,0.0,0.0,0.0,-0.2,9.0,-2.9000000000000004,-0.30000000000000004,-0.30000000000000004,0.0
1698924309.272,16,0.0,0.0,0.0,-0.2,9.1,-3.0,-0.30000000000000004,-0.2,0.0
1698924309.289,16,0.0,0.0,0.0,-0.2,9.1,-3.0,-0.30000000000000004,-0.4,0.0
1698924309.306,16,0.0,0.0,0.0,-0.30000000000000004,9.0,-2.9000000000000004,-0.30000000000000004,-0.2,0.1
1698924309.323,16,0.0,0.0,0.0,-0.30000000000000004,9.1,-2.9000000000000004,-0.2,-0.2,0.0
1698924309.338,16,0.0,0.0,0.1,-0.30000000000000004,9.1,-2.9000000000000004,-0.1,-0.2,0.0
1698924309.355,16,0.0,0.0,0.0,-0.2,9.1,-2.9000000000000004,-0.1,-0.1,0.0
1698924309.372,16,0.0,0.0,0.1,-0.30000000000000004,9.1,-2.9000000000000004,-0.1,-0.2,0.0
1698924309.388,16,0.0,0.0,0.0,-0.2,9.0,-2.9000000000000004,0.0,-0.2,0.0
1698924309.405,16,0.0,0.0,0.0,-0.2,9.1,-2.9000000000000004,0.0,-0.1,0.0
1698924309.422,16,0.0,0.0,0.0,-0.2,9.0,-2.9000000000000004,0.2,-0.1,0.0
1698924309.438,16,0.0,0.0,0.0,-0.30000000000000004,9.1,-3.0,0.2,-0.1,0.0
1698924309.455,16,0.0,0.0,0.0,-0.30000000000000004,9.1,-3.0,0.2,-0.4,0.0
1698924309.472,16,0.0,0.0,0.0,-0.30000000000000004,9.0,-3.0,0.30000000000000004,-0.4,0.0
1698924309.488,16,0.0,0.0,0.0,-0.30000000000000004,9.0,-3.0,0.2,-0.4,0.0
1698924309.505,16,0.0,0.0,0.0,-0.2,9.0,-3.0,0.0,-0.2,0.1
1698924309.522,16,0.0,0.0,0.0,-0.2,9.0,-2.9000000000000004,0.2,-0.30000000000000004,0.0
1698924309.538,16,0.0,0.0,0.0,-0.30000000000000004,9.1,-2.9000000000000004,0.30000000000000004,-0.5,0.0
1698924309.555,16,0.0,0.0,0.0,-0.30000000000000004,9.0,-2.9000000000000004,0.2,-0.4,0.0
1698924309.572,16,0.0,0.0,0.0,-0.30000000000000004,9.0,-3.0,0.2,-0.30000000000000004,0.0
1698924309.589,16,0.0,0.0,0.0,-0.30000000000000004,9.1,-3.0,-0.2,-0.1,-0.1
1698924309.605,16,0.0,0.0,0.0,-0.30000000000000004,9.0,-2.9000000000000004,-0.1,0.1,-0.2
1698924309.622,16,0.0,0.0,0.0,-0.30000000000000004,9.1,-3.0,-0.2,0.0,0.0
1698924309.638,16,0.0,0.0,0.0,-0.30000000000000004,9.1,-2.9000000000000004,-0.30000000000000004,-0.1,0.0
1698924309.655,16,0.0,0.0,0.0,-0.2,9.0,-3.0,-0.30000000000000004,0.0,0.0
1698924309.671,16,0.0,0.0,0.0,-0.30000000000000004,9.0,-3.0,-0.30000000000000004,-0.1,0.0
