timestamp,interval,accx,accy,accz,accGx,accGy,accGz,alpha,beta,gamma
1698924293.002,0.01666666753590107,0.16513517875149844,-0.027846915085613724,-0.004821136546134948,1.3946224670410154,-4.046350151006878,-8.865429472351074,4.928784887165323,-6.943557930517092,3.406667839117872
1698924293.177,0.01666666753590107,-0.23129940340220928,-0.6263035143613815,0.3845569512248039,-0.1551741859657224,-6.028600364795327,-7.799560820770263,-1.0313724384936769,-2.4160641594497667,3.7537485975471245
1698924293.194,0.01666666753590107,-0.3348681336220354,-0.45153497647643087,0.201543732085824,-0.27039514086074196,-5.839457264599203,-7.992144416809081,-11.474559003723218,-1.819831333589966,2.6124222796907013
1698924293.21,0.01666666753590107,-0.3081213252654299,-0.31982641263902184,-0.019460487273335457,-0.2534861144687747,-5.671714095306396,-8.236801898956298,-21.202566919687893,-4.860938910592293,1.6779004295239244
1698924293.227,0.01666666753590107,-0.25037770469123494,-0.3684977968275547,-0.11126198813617229,-0.20979192503776867,-5.674856484985352,-8.358157995605469,-19.739873371193198,-6.281776206079503,0.8647928224560871
1698924293.244,0.01666666753590107,0.08163754198402166,-0.3326391324609518,-0.0539706596404314,0.10324993746108375,-5.595398917388915,-8.328829025268554,-10.795546846443802,-5.052547914925953,1.02925262525174
1698924293.26,0.01666666753590107,0.5546894998721779,0.49159401514232154,-0.5039098913580179,0.37229833988798783,-5.53509496307373,-8.237998999786376,-5.482299148634925,-5.606350751887989,3.1036240850320422
1698924293.277,0.01666666753590107,0.638310324627906,0.3074900781571865,-0.013799392771720886,0.3633200653960928,-5.486462741851806,-7.9210665550231925,1.0935490378904782,-4.8282893256991635,6.73904285685987
1698924293.293,0.01666666753590107,0.600145538743399,0.3930453781068325,0.12716273710131645,0.3103483719314448,-5.346700635418296,-7.819013709259033,0.4177280463769123,-5.470969572349166,8.470296882198525
1698924293.31,0.01666666753590107,0.5406617051720619,0.3986176252812147,0.26890169656574725,0.27189147123256696,-5.266794739532471,-7.73117643585205,-3.7593194705889164,-6.674497569203249,9.14438276553907
1698924293.327,0.01666666753590107,0.36005412240270523,0.4256266282379627,0.4865186115741729,0.168491905300878,-5.17746109008789,-7.559542104339599,-6.399041589505336,-4.099923929024527,6.790916862945647
1698924293.343,0.01666666753590107,0.18695994747076183,0.37781507574915885,0.6164771168738603,0.028131851240526883,-5.205293684387207,-7.44417151184082,-3.9744145072704886,-1.0519515850195138,2.7331172718535273
1698924293.36,0.01666666753590107,-0.2826367188643664,0.03328618353009224,0.8067740632802247,-0.3890577697753906,-5.54182923976481,-7.260266896820068,-6.5056642575438195,4.051990942089847,-0.38674046528834294
1698924293.377,0.01666666753590107,-0.3390699692260474,-0.1947995185226202,0.7154998011618853,-0.3924994437950197,-5.739799205017089,-7.372794374847412,-12.865900127279728,9.774519796665167,-1.9610119840643643
1698924293.394,0.01666666753590107,-0.253360300698597,-0.2841734999775886,0.6567454143762588,-0.272938998390967,-5.803694461822509,-7.449110137286782,-10.793106761362816,10.111421438796985,-1.855670830268904
1698924293.41,0.01666666753590107,-0.06913290629715192,-0.36362405331134795,0.4308259504467249,-0.05342062568388064,-5.865045879364013,-7.687332617950439,-9.101565163405906,9.36646722017568,-3.11322050081591
1698924293.427,0.01666666753590107,-0.1839604003285989,-0.364847457626462,0.35754502565860746,-0.14065935210075695,-5.847687917327881,-7.773074380382895,-10.217388408675149,7.332329309866456,-6.192453553435014
1698924293.444,0.01666666753590107,-0.3247196280406788,-0.4500146350413561,0.4856956047534942,-0.2626139900318114,-5.922806578937172,-7.651569230651855,-9.153396053922547,7.050943872195325,-9.681867426800299
1698924293.46,0.01666666753590107,-0.12389253805791958,-0.8265408400237559,0.41655367946624755,-0.054168817127612415,-6.303035145568847,-7.718157964324951,-12.074965928939543,5.187220462338388,-11.385892049239052
1698924293.477,0.01666666753590107,0.2976237870506942,-1.3546201269984244,0.412380777695775,0.39160159077299755,-6.821379220470786,-7.728632596588135,-14.983532831324126,3.305435684438409,-13.73724443517118
1698924293.494,0.01666666753590107,0.27416480472572147,-1.716620378500223,0.4696288515716791,0.3907037742835935,-7.164049333080649,-7.684040590667724,-10.50068331110612,3.3622822816833677,-12.32528126296311
1698924293.51,0.01666666753590107,0.1447998357392382,-2.334509700259566,0.3044488107651472,0.2811690665977541,-7.776964958080649,-7.852233841815591,-3.8591392702140674,6.522098119573693,-5.887075795643744
1698924293.526,0.01666666753590107,0.16961557556856421,-2.2680998302847146,-0.35179859096109867,0.3175310134445317,-7.715314849853515,-8.505102122497558,0.23576921888640742,1.509622177456264,-1.437374891015102
1698924293.544,0.01666666753590107,0.140283426893875,-2.1079396634668113,-0.3610813830912113,0.2861070892555173,-7.561037895855307,-8.51048849171102,-0.7369562271857782,-1.3932066189735683,2.3414915137613326
1698924293.56,0.01666666753590107,0.06883526135771535,-2.2350684982985256,-0.13723930995762348,0.20335751264267599,-7.694066310119628,-8.282890280914307,-7.434313425684855,-5.253710646361169,5.750305099495647
1698924293.577,0.01666666753590107,0.7978150232117622,-2.1912316946595904,-0.5776280385196209,0.8879495589767582,-7.640196188244223,-8.730605991363525,-4.276205988860679,-22.154992403216564,2.96085178703762
1698924293.594,0.01666666753590107,1.0606136536620556,-2.37920633559823,-0.9653490067332983,1.087865379333496,-7.84026224899292,-9.110685504913329,11.536294522310026,-33.93821960836371,0.6648071247139352
1698924293.61,0.01666666753590107,1.6041265104815363,-3.1661990090876815,-1.1283405975848435,1.5286977965423836,-8.684667247009276,-9.234585440826416,26.66173563269857,-36.890182971413616,0.7652896127711365
1698924293.627,0.01666666753590107,1.4597148246765135,-3.4818566116094587,-0.9512269578784703,1.3045405565124004,-9.05980871963501,-9.015515988922118,29.145284622469,-31.698108805896286,9.46003995803121
1698924293.644,0.01666666753590107,1.1992767128124833,-3.4309757346779106,-0.9703642045468092,0.9654618011916987,-9.071180592998862,-8.98932940826416,31.286012757418153,-20.45040599771858,21.806739840457833
1698924293.66,0.01666666753590107,0.44809122923072425,-1.7580127115964888,-1.496421045783162,0.13183065584711728,-7.4980410491943355,-9.441384609222412,43.64739157014478,1.34927121369405,31.819761305203382
1698924293.677,0.01666666753590107,0.6188873928859829,0.4395826728761196,-3.552306696885824,0.2575262795379385,-5.40101967010498,-11.42168865737915,57.53458341703348,4.633008667799798,38.82737488419097
1698924293.694,0.01666666753590107,0.366628861150518,1.514965002733469,-4.622521268716454,-0.05581478966977447,-4.455907980236411,-12.390442504119873,72.77097326652606,-9.774151820223633,33.45156521490571
1698924293.71,0.01666666753590107,-0.0970319123296067,3.428314991036057,-5.8898208396583795,-0.6292261603424325,-2.749890244293213,-13.486986864471435,84.17013551954881,-34.76346355445216,16.26628163104025
1698924293.727,0.01666666753590107,-0.5328295502416789,4.283696725618839,-4.829166707855463,-1.1667243234496563,-2.0594617560237647,-12.281206468853354,84.61844864610093,-42.900868969335306,12.979265899576307
1698924293.743,0.01666666753590107,-0.565310262607783,4.452567437636852,-3.8461557877033945,-1.3058874410767107,-2.0504840843200682,-11.149049527850746,85.27155133453755,-39.68148320971189,20.343259112661297
1698924293.76,0.01666666753590107,-1.0373984900303184,4.498361220562458,-1.986578306120634,-1.9321208858765662,-2.212691246795654,-9.081057843890786,86.72114287265687,-22.482595596567055,41.437685354767666
1698924293.777,0.01666666753590107,-1.1793284420222043,5.082483881798386,-0.7024222929239272,-2.1782746709961445,-1.7741034301757812,-7.64214206161499,84.16755370804253,1.7468356078261589,52.36430438515766
1698924293.794,0.01666666753590107,-1.0806083939425646,5.20642473424375,-0.5919008940219879,-2.1526866407532244,-1.7788918334960937,-7.390900524902343,74.64393408034861,24.883179986036637,55.480936778907406
1698924293.81,0.01666666753590107,-0.33388591765165326,5.187956765139103,-0.8193442065179347,-1.4665983005799352,-1.9274819740295408,-7.472004106140136,54.033414788106604,32.53621058309729,51.689119695134394
1698924293.827,0.01666666753590107,0.6136858787201345,4.698607314053177,-1.419217394593358,-0.5588965231079608,-2.479495678821206,-7.997232095336914,36.164000673952444,36.93383129530458,56.34192652001712
1698924293.844,0.01666666753590107,0.9212574976809322,4.7099277494907374,-1.793171703261137,-0.29777890454716976,-2.494309217071533,-8.334066925922036,16.27940754707772,36.895749575587175,59.97292679978218
1698924293.86,0.01666666753590107,1.0456149681031703,4.9956040552467105,-2.3776971000790597,-0.24630349578857422,-2.1977274864196774,-8.916605532836913,1.0388334596665638,31.467692374245907,62.5241732095112
1698924293.877,0.01666666753590107,1.0588650564290583,5.624770557823777,-3.9857267554789777,-0.3037641895018518,-1.5466536879390478,-10.53433708256185,-2.0012514032292597,20.092097688954293,58.35513502316213
1698924293.894,0.01666666753590107,0.9338673884071409,5.806616486749053,-4.5540094580262895,-0.49320554199218747,-1.3385077811092136,-11.117624462017416,-7.488869561680332,17.390911551470577,42.64418363013706
1698924293.91,0.01666666753590107,0.5809453463740647,5.311666146916151,-4.757562191846967,-0.8831609912596643,-1.788917552947998,-11.361234480938315,-18.26170602913384,15.871016876224319,19.41801607448198
1698924293.927,0.01666666753590107,0.4859479720793664,4.141903990140557,-4.269173694747686,-0.9736918876647949,-2.919728924560547,-10.915464059337973,-19.212753521997463,18.060104458044453,7.053372431332088
1698924293.944,0.01666666753590107,0.49105391691625117,3.565690494593978,-3.705146311557293,-0.9322422714233398,-3.469946393585205,-10.386794989776611,-8.093907355153926,30.771976135577578,-1.5441825077697053
1698924293.96,0.01666666753590107,0.5856330657988786,2.989187076190114,-3.0431238335609434,-0.7218519466675818,-4.056376162719726,-9.737966339874268,13.299118535766127,57.53866103996798,-6.894194445838117
1698924293.977,0.01666666753590107,0.9286912278782575,2.479862758567929,-3.644036886078119,-0.25438392639160157,-4.598662838745117,-10.327239808002114,19.871368173094286,63.900647572565525,-10.421416404467184
1698924293.993,0.01666666753590107,1.1954734480720013,2.1424317156553268,-4.057585538509488,0.14155717315673827,-4.972308519855141,-10.723928511047363,15.775491558039812,58.04496930276268,-14.46108995416256
1698924294.01,0.01666666753590107,1.2653263711728155,1.154874968767166,-3.878016906866431,0.3785832105774432,-5.979968143573403,-10.547206501007079,-4.1261514285505525,53.770872561695064,-13.421645299286984
1698924294.027,0.01666666753590107,1.1129632149066775,0.533425324177742,-3.2790205016255376,0.3350386678833514,-6.584653115844726,-9.979631069946288,-17.04263679059704,47.246289960810785,-9.698603951587769
1698924294.044,0.01666666753590107,1.0794934915032237,0.6382394513487816,-2.890779893451929,0.4001310985840857,-6.446237747845053,-9.637558923229575,-22.293926988671085,41.25984088915887,-13.657933986076284
1698924294.06,0.01666666753590107,1.4201906235396862,0.9036778557181357,-2.103362857070565,0.8711902021545916,-6.134094290924072,-8.910620028686523,-20.547592759418688,34.70718279569125,-17.896907333110754
1698924294.077,0.01666666753590107,1.3666316134400665,0.45739130128920075,-2.3203595943540334,0.9044097501892596,-6.5391632843017575,-9.176376412963867,-30.947283185909708,24.7195576818271,-18.95888905092643
1698924294.094,0.01666666753590107,1.086197299990803,0.18644436263144015,-2.50018950728178,0.6965631550995632,-6.735937317767739,-9.435548742675781,-54.67586921162717,18.839724448024512,-18.926175859896656
1698924294.11,0.01666666753590107,0.37835816964991387,0.17436287969350814,-1.9083260226607321,0.07930798479160293,-6.582558189392089,-9.009380847167968,-78.74749124312477,20.00619952240492,-17.816539912241797
1698924294.127,0.01666666753590107,0.21998601875994353,0.8632669348746538,-1.3777385522574186,-0.009277440101560204,-5.748778045764565,-8.616432499694824,-74.64708962774516,20.52787912592674,-18.048054296801258
1698924294.144,0.01666666753590107,0.03793916043508798,1.0284504828125238,-1.3365256673812866,-0.12135606011655181,-5.452644643402099,-8.69454332885742,-64.54936527955499,21.114471139773066,-17.37342455964805
1698924294.16,0.01666666753590107,-0.364991651870124,0.7824713966727256,-1.1415618982076645,-0.43080659729228354,-5.530456197357178,-8.645761470031738,-69.27912784581625,26.96694434330788,-10.375441547390182
1698924294.177,0.01666666753590107,-0.5885934499744325,0.5709241569668054,-1.1567255650699138,-0.5844844017975978,-5.594351454162597,-8.782979737201332,-78.42729197483457,32.888453683878595,-1.276824144219665
1698924294.194,0.01666666753590107,-0.6417931252423673,0.42981063592433927,-0.9957160879462956,-0.5707177339747781,-5.57295386134684,-8.750208517456054,-81.21436432603662,38.126279871551255,6.635123236185418
1698924294.21,0.01666666753590107,-0.39628772102892396,0.3989531408458948,-0.5862760398775338,-0.2362776667388156,-5.385158084106445,-8.50390502166748,-77.66579418426986,38.46876604710321,11.91810636578197
1698924294.227,0.01666666753590107,0.4561320219431072,0.7513339156091213,-0.7179203063070774,0.6667852719513699,-4.878485157775879,-8.744821563720702,-68.8487712865921,25.69468159151502,10.671021398817068
1698924294.244,0.01666666753590107,0.6014484745681286,0.7655348749190568,-0.41461657392382617,0.839167828015238,-4.733187044525146,-8.531139065551757,-55.461293154854445,12.812003104539157,6.811258873841237
1698924294.26,0.01666666753590107,0.38668263814188536,0.7525543973147869,0.6015338147640228,0.6429929112198762,-4.601056455883383,-7.6108678024291985,-48.82631762150983,6.640831993671079,-0.35639569571412166
1698924294.277,0.01666666753590107,0.06353636036515235,0.8272194699376821,1.2045651746094226,0.3426701856750995,-4.4105683708190915,-7.081449960327148,-58.82866520812995,10.6100858661368,-5.758296847711385
1698924294.294,0.01666666753590107,0.040560668045096095,0.7817927667587995,1.3348387372076511,0.3586814458100125,-4.311957189941406,-7.039103102985024,-71.9659808313267,16.518926913344437,-8.236733440888061
1698924294.31,0.01666666753590107,0.02934570227600634,0.44582185952663417,1.1945049683660267,0.42901119264233856,-4.422988291931152,-7.308750064960122,-76.97235922878431,28.98397604484081,-9.213771511090876
1698924294.327,0.01666666753590107,0.16674045852366834,0.660346361477673,0.9056284052640199,0.6531682500092312,-4.0396164588376875,-7.687631893157959,-69.48052280368324,36.03481789108541,-10.850026996584763
1698924294.344,0.01666666753590107,0.2045338172798976,0.8290458085820078,1.0124667317390441,0.7888895566193387,-3.7364506736204026,-7.6469298804134125,-45.3088077649937,37.170405142491724,-12.531835574974403
1698924294.36,0.01666666753590107,0.29680326444804667,1.09863753323853,1.4383756840497255,1.0127473753113299,-3.3876454192563887,-7.25248574142456,-5.774888657865815,34.00553795282335,-15.772069633265637
1698924294.377,0.01666666753590107,0.3447175466589629,1.0936576989993452,1.6559446682631969,1.1531075207032262,-3.3922841849729415,-7.026982457080483,8.512739677700985,26.717831976351885,-21.113895696335494
1698924294.394,0.01666666753590107,0.2043878694705665,0.8939932047888636,1.7379571810394525,1.0878656715944408,-3.605817337799072,-6.930465618133544,6.0931776076225255,16.84092422893364,-20.200935045831155
1698924294.41,0.01666666753590107,0.05730141149833798,0.38890170243084426,1.131222875022888,0.981622899859771,-4.079719336645305,-7.549067472076415,-24.413459339078397,-9.567356744044096,-11.693681717580983
1698924294.427,0.01666666753590107,0.38000111455135044,0.21719489020407198,0.4335474843651056,1.2735658647950738,-4.1660605262756345,-8.29336491317749,-42.911281592725,-25.30363277096428,-4.456456388604607
1698924294.444,0.01666666753590107,0.40555860352553424,0.24245500366687772,0.6484001953572034,1.2360066801209002,-4.041562039947509,-8.13385122756958,-38.603245641671585,-31.817292191818424,-1.5123833881499475
1698924294.459,0.01666666753590107,0.04217895342931151,0.8158344448313116,1.8385943147867916,0.7806595249451697,-3.3858500602722166,-6.991517760467529,-10.149053219802816,-27.44242113218915,-0.07262195966973413
1698924294.477,0.01666666753590107,-0.3859161107487976,1.4017369752213358,3.0597967359423635,0.30855281201787293,-2.80271231842041,-5.772569840240478,18.371636216277906,-14.608941351578533,-6.96149187284343
1698924294.494,0.01666666753590107,-0.3674934420906007,1.5036021894589067,3.2083295933306215,0.31992534296885133,-2.7693431327819824,-5.591657977294922,44.428437362114074,-2.194127621097369,-9.261366830548463
1698924294.51,0.01666666753590107,-0.48249797775596376,1.1148515859365462,2.3373569063842297,0.2332850973267108,-3.282001563262939,-6.399102487182617,52.48473769569791,2.8918064719350185,-10.634922995279904
1698924294.527,0.01666666753590107,-0.056250806466862556,0.3819733644723892,1.3646253881841897,0.6856396465577185,-4.094533459417522,-7.32910019454956,39.7304761566284,0.641274828506567,-11.46180362544822
1698924294.544,0.01666666753590107,-0.0029099691625684497,0.2377244680136442,1.1849275772035122,0.7541736690796911,-4.301033644866943,-7.475146495819091,22.79765343995953,0.3327583319874116,-11.571776501274595
1698924294.56,0.01666666753590107,-0.33657866386696694,0.058881812557578087,1.768556901964545,0.4517559988159686,-4.516811069488525,-6.8692638381958,11.929756960958718,8.981160027395983,-7.117140784970619
1698924294.577,0.01666666753590107,-0.565650600478053,-0.07734072157293558,1.5378285764485597,0.25243885673843325,-4.672583815002441,-7.086836914062499,10.250282599717929,11.321125634208052,1.6820836002254398
1698924294.594,0.01666666753590107,-0.8084710764564573,0.16325813283324242,-0.023143559700250626,0.03007730448618531,-4.4413934249326585,-8.640823429107666,-3.6091082428147034,8.100705954699027,8.189978234698385
1698924294.61,0.01666666753590107,-0.8559753165617585,0.4850155135348439,-0.4150660712569952,-0.009576660510152577,-4.103362370300292,-9.040655106353759,-8.642332271918221,6.099555723646848,6.286246564891275
1698924294.627,0.01666666753590107,-1.0971823659941553,0.7615688938975333,-0.759932232606411,-0.24375958345942197,-3.809623461858928,-9.393949488830566,-3.4836385215352155,7.610913943091059,8.701590139383606
1698924294.644,0.01666666753590107,-1.3443525616146623,1.25101800596565,-0.8489438104897737,-0.47913931497782464,-3.317914588165283,-9.482983863067627,1.644437731954445,12.27278699032333,16.154836849447737
1698924294.661,0.01666666753590107,-1.2802020148739217,1.3259402682200074,-0.8434031274974345,-0.40791196171864863,-3.257161428777873,-9.469217788043618,10.83676703808483,10.394455086492204,16.523620960851527
1698924294.677,0.01666666753590107,-0.9601436201099306,1.4347738601654767,-1.1016788006305693,-0.0817019124571234,-3.188328423309326,-9.705494979858399,25.79209033436316,12.782531692044198,14.540803384418485
1698924294.694,0.01666666753590107,-1.0251260145649312,1.5691247552052139,-1.285391692471504,-0.12150558812245726,-3.150470109558105,-9.834033681488037,36.791107662407995,17.298835478816926,15.419669438133413
1698924294.71,0.01666666753590107,-0.9526797139700501,1.6902394443139432,-1.2335171283274888,-0.0299273746214807,-3.1157541854858395,-9.731831198120117,39.423913361016126,15.416836617175152,13.420712978465279
1698924294.727,0.01666666753590107,-0.7880968353390693,1.777901068893075,-0.9772551331043243,0.15128383659683167,-3.113659259033203,-9.424774835205078,39.781040047054,13.65833099082179,12.030185501193648
1698924294.744,0.01666666753590107,-0.8725760304898023,1.8459797488629817,-0.4771954874336719,0.08963321691304445,-3.1630396682739255,-8.853010135760902,41.87579076360521,15.454076516077354,9.69177290864411
1698924294.76,0.01666666753590107,-0.8165772990878671,2.0088807388216257,-0.39089842920601364,0.17462730278335512,-3.093906510815024,-8.706513752636313,44.74210355446316,20.667257673677312,7.125708403510754
1698924294.777,0.01666666753590107,-0.8187320659689604,1.9834329938322304,-0.2967892359226942,0.21308409388437866,-3.2191537696838375,-8.545354637908934,50.27509295202333,23.697240580068982,6.17992271762898
1698924294.794,0.01666666753590107,-0.3563577886354178,1.6881091542869806,-0.45635026780366894,0.7266404230531305,-3.6623803520202634,-8.603114752960204,52.72044069376588,17.35255491663908,4.853107244935227
1698924294.81,0.01666666753590107,-0.12723551007658243,1.7046797653377055,-0.5270142880916595,0.979079060595855,-3.751414726257324,-8.600271638488769,46.906003106171575,10.520001647399855,4.129526395774185
1698924294.827,0.01666666753590107,0.0847480021547526,1.227759587714076,-0.5281050059378147,1.199944090680033,-4.312855015563964,-8.54236188583374,35.18224977322232,2.6491287835074075,3.381253558989901
1698924294.843,0.01666666753590107,0.4807578560903668,1.095903724360466,-1.357759594067931,1.5839142549928278,-4.516661431884765,-9.323470177459717,21.335303108470626,-10.418361602360896,-0.9863794211098642
1698924294.86,0.01666666753590107,0.7072131804622709,1.219204525336623,-1.6209166095018386,1.780687557806447,-4.434510387420654,-9.561543020519613,21.846407871609973,-21.380541158890914,-5.016280464206832
1698924294.877,0.01666666753590107,0.32476006964892146,1.1805886712163687,-1.4041571881055832,1.3606548771180211,-4.516361572155356,-9.318830827221273,25.604707509578443,-23.459780515837025,-6.542967762582667
1698924294.894,0.01666666753590107,-0.16822342709042132,1.4487760820329187,-1.40906775650084,0.8122330593384802,-4.3153988548278805,-9.282019976696372,27.54706304536833,-25.027720449252445,-2.995839857947833
1698924294.91,0.01666666753590107,-0.1963967245861888,1.5586504152029752,-1.3022750227332114,0.7357683168824761,-4.2588358406066895,-9.141810126495361,26.93683516189917,-23.41383383329035,1.910980848394021
1698924294.926,0.01666666753590107,-0.39961365058124065,1.4358523030519486,-1.201606909325719,0.4792893909730017,-4.433014595904946,-9.008931934356688,27.240011891230406,-20.85884277234888,8.727749763904754
1698924294.943,0.01666666753590107,-0.12248188580870628,1.4316197800487278,-1.2883838600248099,0.6887818901062012,-4.516661431884765,-9.042749448284507,35.27082025128446,-16.81545445351866,7.810907858404556
1698924294.959,0.01666666753590107,0.04001549178510904,1.419864460325241,-1.4684148484826087,0.8026563257630914,-4.610484209442139,-9.164106129455567,47.20310267468879,-19.197443652972883,8.682626972926712
1698924294.976,0.01666666753590107,0.2557864136006683,1.4692594826132057,-1.2612339872926472,0.9677066027101129,-4.662857370758056,-8.88099178314209,58.2781109798919,-18.541957228515926,6.622827615018926
1698924294.993,0.01666666753590107,0.4234540334392339,1.508722893473506,-0.6526911705493926,1.0835260349549352,-4.785111293029785,-8.144176222229003,66.77179272226125,-14.798921355795144,1.9375218962916327
1698924295.01,0.01666666753590107,0.5886445956397801,1.44463357540071,-0.40928105811476706,1.2208932821411638,-4.976048875427246,-7.794772417449951,65.79741159564557,-13.710389838901982,-1.6037224407034703
1698924295.027,0.01666666753590107,0.8553510471835732,1.1371458353310824,0.05046645091176033,1.4639047871796413,-5.437082332611084,-7.200711130523681,59.231660029539036,-10.807017295381193,-4.971950828946157
1698924295.044,0.01666666753590107,1.1549399968273937,0.9712982705265283,0.423063499751687,1.7579426785675807,-5.706579072460531,-6.733242671856284,57.70210063661721,-7.313966346282877,-8.217772835752106
1698924295.06,0.01666666753590107,1.2384336880721152,1.0632879874378443,0.5891992338478564,1.8457800250397993,-5.720945451465249,-6.465990496063232,61.18131020736249,-6.575869210701442,-10.963808556647066
1698924295.077,0.01666666753590107,1.4596142869114874,1.077033604195714,1.1455120971381663,2.088791457013041,-5.853224508666992,-5.764339772033691,62.78071511473687,-3.3983559257847897,-17.2335627760137
1698924295.094,0.01666666753590107,1.5253544409312307,0.6507084722995757,1.4243810609668492,2.182015684155375,-6.380696477398276,-5.379920767974853,56.107623710729,-2.1637366943853973,-18.388103802366807
1698924295.11,0.01666666753590107,1.3384806008413432,0.4232447015374899,1.416350899246335,2.030582429150492,-6.697030956268311,-5.291334722027182,50.438699888307234,1.8327531977259839,-19.887618900677037
1698924295.127,0.01666666753590107,1.2805246709570288,0.11681143895685672,1.2880208719313144,2.0332759060181678,-7.106888352966308,-5.301510663604736,45.1581372069978,6.764410179437297,-19.996459672648484
1698924295.143,0.01666666753590107,1.2130745712142437,-0.23227321687042712,1.0991326232790946,2.0147208431519568,-7.5242276298522945,-5.408951047626138,41.82706760916093,8.06558768330776,-17.495309285386927
1698924295.16,0.01666666753590107,1.1456151191212236,-0.25826924339234825,1.163057106178999,1.990180276135355,-7.615805843353271,-5.265298363494873,42.02759171790874,5.887822847584214,-11.885570759670614
1698924295.177,0.01666666753590107,0.7892994891270995,-0.471495814487338,1.6044909598797559,1.6768390607971697,-7.912087714275717,-4.721664949035644,33.250412728754256,11.505186425735202,-7.661239630669359
1698924295.194,0.01666666753590107,1.171159967809543,-0.3949170171976089,1.4968991846889257,2.0863972553528845,-7.87826961582601,-4.7746366607666015,22.77708261772674,9.564024465502776,-2.3642422335564106
1698924295.21,0.01666666753590107,1.0426124252863227,-0.3997001598209142,1.546710971084237,1.9738697773255407,-7.913285399627685,-4.68620083694458,15.607342545957854,9.471563340934667,1.1643683879082842
1698924295.227,0.01666666753590107,0.8125865489512681,-0.469509609106183,1.4546727388560772,1.7550996006287634,-8.001870861053467,-4.753837033843994,0.7300878850059486,8.618619562667229,6.037607615422124
1698924295.244,0.01666666753590107,0.4826649318207055,-0.5413181232541799,1.6078864475369452,1.4245502069886773,-8.062773365783691,-4.613925874328613,-15.582847780046896,8.442748167954925,8.559665638619911
1698924295.26,0.01666666753590107,0.6464389052215963,-0.5731874257236719,1.6847124975860117,1.5831658477783201,-8.059630391582846,-4.579957553753257,-26.517504235542702,6.718655595961028,10.322564784156882
1698924295.277,0.01666666753590107,0.6994098863001913,-0.5226946713268756,2.274588607782125,1.6154876432556657,-7.958027043151855,-4.053682685852051,-20.464414715706273,4.02858473757786,14.054110571146412
1698924295.294,0.01666666753590107,0.9082872492097318,-0.5243535444498062,2.0662042160212994,1.8050784141540526,-7.934234664154053,-4.294598643383384,-12.897627209748084,5.829289833944498,14.578205500313475
1698924295.31,0.01666666753590107,0.9845876679494976,-0.639583267173171,1.6497539969295263,1.8561049831666052,-8.039878812408446,-4.725704579815268,-2.5089590010301714,1.9859519929318428,18.862265779832846
1698924295.327,0.01666666753590107,0.8993388766657561,-0.9218149854332208,1.199131459122896,1.7132010715760289,-8.333617428588866,-5.170578344836831,5.956536258181835,-1.7977399404932062,25.92294309848226
1698924295.343,0.01666666753590107,0.6110352911461144,-1.0578601171702147,1.1669903539747,1.366341032995656,-8.483404085430502,-5.193921226501464,4.179399156433149,-3.6652933789272284,30.377857144994916
1698924295.36,0.01666666753590107,0.5752493266895413,-1.0868670159459113,1.2028139470279215,1.2602481180604546,-8.52275935974121,-5.153967986297607,1.8474028862786036,-5.263415064511288,34.15092194440166
1698924295.377,0.01666666753590107,0.5056230519514531,-0.9563742576390504,1.243375089997053,1.0880151996003464,-8.405593115997315,-5.108029241943359,5.627629352473517,-4.001932485662824,35.93348861965368
1698924295.394,0.01666666753590107,0.482294271877408,-1.1946885082393883,1.3339765674203634,0.9916486193116754,-8.661922331237793,-5.002534731292724,10.390111086180077,0.35893796682839446,36.57772913764221
1698924295.411,0.01666666753590107,0.4663671463619917,-1.365493987712264,1.257916825568676,0.9091981900421902,-8.853458464050293,-5.059097745513916,8.468673004723355,5.165516682477025,35.686915375521636
1698924295.427,0.01666666753590107,0.3145864661589265,-1.5621125383555887,0.8876935201227665,0.6863878345765173,-9.0657942237854,-5.415235242462158,2.531857850552874,8.681698920973236,31.418603804681023
1698924295.444,0.01666666753590107,0.3866455940671265,-1.4672323606997728,0.3290004836976528,0.7143700299469754,-8.972420943561195,-5.974580605316162,-3.2551496973346596,4.80233674128723,26.1033505925771
1698924295.46,0.01666666753590107,0.43868776986300945,-1.4963871435135603,-0.04608312126100063,0.721552598394826,-8.994417671313881,-6.360346347808838,-6.003065214355255,-1.5108438208223443,23.31338736380885
1698924295.477,0.01666666753590107,0.49052726269364355,-1.390559455385804,-0.4449427386045456,0.7083844709976576,-8.885780770984292,-6.7651160659790035,5.466919697058172,-5.512654216853754,20.272042437732864
1698924295.494,0.01666666753590107,0.15279356530634686,-1.1650491567790509,-0.3898462898045778,0.3271079479493201,-8.680627031707763,-6.687154874420165,18.866836883934877,-2.6506544770132594,18.12119537752834
1698924295.51,0.01666666753590107,0.005919809369882568,-1.0749158813893795,-0.42559331049025056,0.14634574087383226,-8.627954595184326,-6.678775168609619,25.374299615664526,1.2271933216677078,14.556354017611312
1698924295.527,0.01666666753590107,-0.12404110708259977,-0.7647153752297162,-0.6368956355243921,-0.002543665733980015,-8.372972118377685,-6.823174871715903,24.72145988951095,5.610051860644489,6.197806287310189
1698924295.544,0.01666666753590107,-0.47602308265343307,-0.7310533441245556,-0.7083072593092918,-0.34925406671059317,-8.371925824195147,-6.854151024737954,16.401739650207233,10.809720342745225,2.6359072448215555
1698924295.56,0.01666666753590107,-0.5840083872064947,-0.7501052505970001,-0.9174299022167921,-0.43843810595087707,-8.40798848670125,-7.04164694224894,6.052095300425368,13.007588986517057,-0.7122615181590385
1698924295.577,0.01666666753590107,-0.6722664433088154,-0.37237726860940457,-1.2643804686248301,-0.4845263965773396,-8.036587369647622,-7.379528067016601,3.1744414073374387,15.787070436230277,-8.4978968228609
1698924295.595,0.01666666753590107,-0.433237103241682,-0.2990337999790907,-1.3830764061540364,-0.19452883008876815,-7.968651313018798,-7.489660758861899,5.838900763880352,18.5268164066733,-13.996828335898453
1698924295.61,0.01666666753590107,-0.34283545923940834,-0.34032267270088196,-1.4993214433997868,-0.04129983250722289,-8.017583393970131,-7.593509840393066,5.840869565908608,18.721014052702397,-17.180777366560548
1698924295.627,0.01666666753590107,0.09106354197710752,0.13841302991211413,-1.9183342064559459,0.4839281201569363,-7.535451034656167,-8.011597305297851,-7.609385688264268,11.4663977814387,-25.380013068905242
1698924295.643,0.01666666753590107,0.1673118652034551,0.3778057233989239,-2.023801829099655,0.6296751827515661,-7.26505588466227,-8.151058967480063,-26.106340507886273,5.534734084006289,-29.67629084930247
1698924295.66,0.01666666753590107,0.22756861937604844,0.5141267494678498,-2.0147849944293497,0.7589621454652399,-7.063343810272216,-8.217198788341879,-49.1392803043744,-1.1081335194808652,-34.97173651281336
1698924295.677,0.01666666753590107,0.10511720177084206,0.9507137476593256,-2.0765549296438692,0.7264908585146069,-6.474670061603188,-8.452130410766602,-80.7777103323977,-5.709925448009354,-38.91396802248839
1698924295.694,0.01666666753590107,-0.3116021896511316,1.3331348558992147,-2.500782796999812,0.37469270594492554,-5.931484975433349,-9.052476477050782,-96.33093216691967,-8.734095009643697,-38.403346495232825
1698924295.71,0.01666666753590107,-0.5394547405350953,1.5112936207443475,-2.4246038126826286,0.19916786979995665,-5.574748928070068,-9.163507579040527,-97.15707086778939,-10.925798553915946,-35.25438681614141
1698924295.726,0.01666666753590107,-0.9339278864227235,2.247315400931239,-2.2139216653734444,-0.14754253117665647,-4.61602080078125,-9.17428090198934,-76.22793008095545,-17.15048377004425,-29.047879294715447
1698924295.743,0.01666666753590107,-1.081806663816422,2.4899831705659627,-2.28140530205965,-0.2828149249754846,-4.249408671569824,-9.360430665588378,-47.375715215393356,-21.91666661250731,-25.661876192931448
1698924295.76,0.01666666753590107,-0.9605916561383754,2.665673499470949,-2.0346423720657825,-0.154874773760885,-4.008342491912842,-9.17458076171875,-14.61172294611802,-23.3484296493456,-29.43593990750431
1698924295.777,0.01666666753590107,-0.5276536819737404,2.7610008363723755,-1.3309528356850147,0.2970307895936072,-3.902099793243408,-8.478916126361488,10.160055800782061,-22.914698976671453,-36.765064151102735
1698924295.794,0.01666666753590107,-0.5007153331004083,2.1554244682192802,-0.5643839415431022,0.3465609095033258,-4.5133694046020505,-7.704391304779052,6.515219692192668,-25.609430585389507,-38.74031729302999
1698924295.81,0.01666666753590107,-0.42505598874315614,1.8048697398394344,-0.28281273301839827,0.4384383982118219,-4.852747489929199,-7.43130267791748,-9.455111976545044,-28.291502438480943,-36.591321214090534
1698924295.827,0.01666666753590107,-0.3258540754307061,1.4483108026087284,0.3387883027404546,0.5388451572693884,-5.135113648223877,-6.8779428192138665,-38.869602528734575,-33.39818728654206,-30.60507021792456
1698924295.844,0.01666666753590107,-0.33095731685385105,1.5141151079058646,0.8093804463863372,0.5186441538270563,-4.975749600219726,-6.493374177551269,-48.59923432217442,-34.371987847078294,-27.571120679172406
1698924295.86,0.01666666753590107,-0.25343802384361624,1.985181298804283,1.3758645750790834,0.5732618791993707,-4.3807904876708985,-6.037727674102783,-36.88625561264086,-29.896294657563168,-27.570806490470584
1698924295.877,0.01666666753590107,-0.3180020467560738,2.091663651448488,1.4090841231137514,0.4988918440002948,-4.2131963714599605,-6.057629475402831,-18.644160764161413,-25.281868373174035,-26.87650239341316
1698924295.894,0.01666666753590107,-0.2909592145949602,1.999580995556712,1.3466495865106582,0.5276222639221698,-4.275744889831543,-6.1447185607910155,-5.597713550795684,-19.82274747148755,-26.983954929435797
1698924295.911,0.01666666753590107,-0.11298106701374053,1.5562404314517975,1.165018761640787,0.7127239797729998,-4.701463872528076,-6.340294908905029,-3.173614527561044,-16.938182707620037,-23.060701100369645
1698924295.927,0.01666666753590107,0.018866759163886308,1.289095807686448,1.061434468525648,0.8488942722596228,-4.9540521476745605,-6.4555158638000485,-6.691319471355344,-16.20772812683302,-21.236062167377636
1698924295.944,0.01666666753590107,0.14115019979104398,0.6914250980913639,0.9152420367836952,0.9711481214661151,-5.523871558269858,-6.624755993652343,-17.089599463782758,-15.86908734778379,-17.29633904467529
1698924295.96,0.01666666753590107,0.12701894471645356,0.3939811976522207,0.9987807362139225,0.9510967556275427,-5.7513207159847015,-6.599018325805663,-30.061373499613204,-11.612451131555668,-12.382342370836689
1698924295.977,0.01666666753590107,0.000702010789513588,0.19198329205811024,0.9598930794149637,0.8233062420167029,-5.887042607116699,-6.691195089721679,-32.321285020484495,-8.790123905178957,-10.3544370081451
1698924295.994,0.01666666753590107,0.048451311697065826,0.19734628039598465,0.2135772842288017,0.8677486103333533,-5.818209309387207,-7.4878662766605615,-26.327143448279863,-11.497262552524342,-10.873953149247317
1698924296.01,0.01666666753590107,-0.013021978658437728,-0.17587328425645826,-0.19892156688868998,0.7959225605286657,-6.13544102935791,-7.944858934020996,-14.039861088990472,-13.38731249965027,-8.92943415103783
1698924296.027,0.01666666753590107,-0.2548879303909838,-0.33309564405679704,-0.301185425055027,0.5376479103088379,-6.265476107025146,-8.06965669555664,-10.677901106858563,-14.185038467346384,-6.168224738014863
1698924296.044,0.01666666753590107,-0.3101405926659703,-0.3373667455047369,-0.06317571035921574,0.46193135587163264,-6.251708862957358,-7.847444853973388,-4.336594679520523,-14.495531183052348,-6.186218017609615
1698924296.06,0.01666666753590107,-0.32780389432422813,-0.4778320317715406,0.33226386940777297,0.42347456477060913,-6.395511184692382,-7.451503754425048,9.62560801238055,-11.05608611988123,-8.735374816339428
1698924296.077,0.01666666753590107,-0.3111051268491894,-0.3933323783546686,0.39033261201679703,0.43694194910898804,-6.341791284942627,-7.370251120105386,23.888724933450288,-9.615479695615067,-13.341579260515157
1698924296.094,0.01666666753590107,-0.3437017206799239,-0.504351789906621,-0.01630582263469696,0.4101567449707538,-6.515670180511474,-7.727734770965576,43.323141999676764,-9.629746253243932,-19.879711249165457
1698924296.11,0.01666666753590107,-0.5190856870494782,-0.8836912987440824,-0.1513368088930845,0.26096805402226747,-7.029376074218749,-7.753472438812255,58.3784874399344,-6.674699059783764,-23.734173120458532
1698924296.127,0.01666666753590107,-0.7108578205749392,-1.060787402793765,-0.31352234405875207,0.09352364848032593,-7.3100962188720695,-7.828141603088379,49.90105130250592,-5.754839491330889,-21.276645443878557
1698924296.144,0.01666666753590107,-0.9644185209501535,-0.8923410536676645,-0.48978725798130035,-0.13138181610107422,-7.235426470074057,-7.922263071331382,26.970145994481324,-3.379548359574925,-15.728404233901745
1698924296.16,0.01666666753590107,-0.8209005691144615,-0.8364876490205526,-0.49228725810348983,0.03411744672246277,-7.216722354125976,-7.890391430774331,17.743385171136378,-0.1849530650287621,-15.235592424906985
1698924296.177,0.01666666753590107,-0.49717561466693877,-0.8112088308572769,-0.8099754896700382,0.38277306348271667,-7.223306408691406,-8.17754540786743,21.12728969729789,1.2258193864274776,-13.693422795230024
1698924296.194,0.01666666753590107,0.11085384572669862,-0.8181324926406145,-1.5354904888898133,1.0266635993957518,-7.2988733985900875,-8.838344481548667,36.94617344713479,1.1688982974318838,-14.44329389628009
1698924296.21,0.01666666753590107,0.024958865493908522,-0.8263029396146535,-1.9812246701329945,0.9666590664185583,-7.380575530242919,-9.214833861652016,44.163504569493035,3.5372608426051046,-11.73087722025358
1698924296.227,0.01666666753590107,-0.02223871981501579,-0.70269701821208,-2.0132605613410473,0.9464579168457538,-7.337480484881997,-9.169493083190918,43.87593652996257,7.531522385499769,-7.519946068630244
1698924296.244,0.01666666753590107,0.09797259071320295,-0.8354612285822629,-1.81334530723989,1.1013328367371111,-7.564480145263672,-8.876203379821776,31.99378769506614,15.705924373795941,3.31350427228231
1698924296.26,0.01666666753590107,0.5578194684609771,-0.5576058257102966,-1.943008044463396,1.5765818662781268,-7.330746208190917,-8.961347176361084,14.305974650564277,16.47353176857324,13.318790334349409
1698924296.277,0.01666666753590107,0.757191920922324,-0.27088790194690227,-2.1045500210285186,1.7735049528259783,-7.053616781505942,-9.113978116717934,-8.162236567610734,17.192977791965486,23.820474268168937
1698924296.294,0.01666666753590107,0.6118870856698602,0.13196341538131237,-1.942398388132453,1.5979800436157732,-6.611587884521484,-8.993818536376953,-26.869025043819285,13.371403281526018,33.16578668493779
1698924296.31,0.01666666753590107,0.8310061488695443,0.9702502227783203,-2.2038930233120917,1.7741035032410173,-5.729623847961426,-9.302670550537108,-24.875982674198735,5.2718554707781315,35.288223573289656
1698924296.327,0.01666666753590107,0.972476520525664,1.3027531616389751,-2.3352479514062403,1.8562545477051287,-5.366004470825195,-9.470863217163085,-15.114740765280072,-4.749523584190576,32.57434352923347
1698924296.343,0.01666666753590107,1.0045873036008328,2.0789152290344237,-2.4320149657219647,1.8001405193604527,-4.5787610374450685,-9.588328736114502,3.5437591272701368,-11.40584730067289,22.864071906996024
1698924296.36,0.01666666753590107,0.7681794711437075,2.282932657757401,-1.4233616547912358,1.5087959587097166,-4.393808374676108,-8.5678002784729,16.44654569116252,-10.561236353192868,17.532846297518027
1698924296.377,0.01666666753590107,0.6995183881759643,2.2243115419626234,-1.158636951649189,1.3898342098511756,-4.490923764038086,-8.271967320361734,22.789861901663837,-12.906542314162243,15.006878417907231
1698924296.393,0.01666666753590107,0.5149387965030968,2.5028765544086693,-0.5291033693253994,1.1471220165528357,-4.268862144580483,-7.594108975329995,22.193453198432906,-9.45800797675313,9.541357628968443
1698924296.409,0.01666666753590107,0.23428532387781886,2.399343699219823,-0.08267594512104988,0.8367735532898455,-4.405031194958091,-7.1188587767452,13.576874154780219,-4.096725692945669,11.033026547469621
1698924296.427,0.01666666753590107,0.16484788624271748,2.1485832240223885,-0.3359843512356281,0.7393594732422382,-4.668993097034097,-7.361721192169189,0.27463777106011367,-1.9995365988607634,14.984335378551604
1698924296.444,0.01666666753590107,0.5287641639662907,1.8034060970276593,-0.8665197991907596,1.0564415556091815,-5.001188577380776,-7.908496996307373,-10.404354591920493,-3.1409542704973354,17.93052040156368
1698924296.46,0.01666666753590107,0.6568762011490762,1.667839688718319,-0.9245838656246662,1.147421255227737,-5.112967282867431,-7.992144416809081,-14.562745367127151,-3.1533730485122997,16.08450468401682
1698924296.477,0.01666666753590107,0.7091451714381575,1.7076953137665987,-0.6708195324361323,1.1683705562867224,-5.046678408923745,-7.765743306842446,-14.599537888638718,-3.8464547551517074,12.71992190924363
1698924296.494,0.01666666753590107,0.7154067160509526,1.6696902850210666,-0.5413800825744867,1.140837091064453,-5.050568402099609,-7.670722843933105,-11.87535621176686,-4.248549699137651,6.868890729397336
1698924296.51,0.01666666753590107,0.5693665887938812,1.662374993571639,-0.30631168202757836,0.9790788779327645,-5.0376995681762695,-7.455544554248451,-7.654088422608355,-5.443053735437678,0.759088227891588
1698924296.527,0.01666666753590107,0.5771309757176787,1.6392828717976808,-0.13481295959353445,0.982071666540578,-5.049072610583901,-7.295282096099853,-3.957147362161873,-2.9571099105895104,-4.007601542673934
1698924296.544,0.01666666753590107,0.2780305037105456,1.6137901186227797,0.22702947099804877,0.6926725408691913,-5.064484699249268,-6.942286988830566,-2.4918397722057692,-0.4648526964315773,-8.084536335612668
1698924296.56,0.01666666753590107,0.23847075633630155,1.4063257643163203,0.48325230325460433,0.6703765744416043,-5.262604886627197,-6.693738928985596,-1.7005494435333923,-1.4621365679122198,-8.126436984849757
1698924296.577,0.01666666753590107,0.1663538703588769,1.3302818045556544,0.5526397277355194,0.6100725835938007,-5.33098927154541,-6.630741497802734,-2.0366281545919294,-4.471567755256438,-8.500624629660674
1698924296.594,0.01666666753590107,0.03798701816480607,1.548270475485921,0.8835293861806393,0.49604872952885926,-5.099050985717773,-6.311863764190673,-2.776446711287619,-5.837930023244564,-11.681292608200225
1698924296.61,0.01666666753590107,-0.053703569669462735,1.6860265027940273,1.1059364580750464,0.4156933363098651,-4.951209033203125,-6.098031628417968,-3.245425642390677,-7.843438341874034,-14.53218368568593
1698924296.627,0.01666666753590107,-0.06105988724902272,1.6514929495513437,1.1688853739410638,0.42122996418159453,-4.975599962615966,-6.043563540649414,-5.184116995134263,-8.987856174103534,-18.68142456872571
1698924296.644,0.01666666753590107,-0.0830791190944612,1.6274696844071148,0.9575573299437761,0.42242702847905456,-4.977844526672363,-6.273257262420654,-7.296971981854239,-10.848825737064487,-22.24475987193075
1698924296.66,0.01666666753590107,-0.1535793271228671,1.2789865016043185,1.0174994652092457,0.36855745459292083,-5.312134348949789,-6.225074538531899,-2.649622264674941,-12.725670367203842,-22.971633726045386
1698924296.677,0.01666666753590107,-0.09573807312678545,1.1257833143174647,1.2263877148389815,0.4397850270478055,-5.463119275665283,-6.017227906909585,3.580033194735017,-14.082870790194042,-21.727320108336215
1698924296.694,0.01666666753590107,-0.1554285717187449,0.7336287475705147,1.2310317412525416,0.38756150333564726,-5.862053127288818,-6.005854864501953,4.237597490803536,-16.71923757868069,-18.248033697962768
1698924296.71,0.01666666753590107,-0.21716350868511944,0.39823534796535964,0.9622831894218921,0.3229180219788104,-6.2011313528865575,-6.271461611175536,3.4003324117758624,-16.362761468161263,-14.96811197172553
1698924296.727,0.01666666753590107,-0.25320600518602876,0.24531799188256262,1.015564697754383,0.2813187316009775,-6.359897434997558,-6.2132531678348775,5.885985526697481,-15.102845990840494,-13.632446281414735
1698924296.744,0.01666666753590107,-0.034071634819358584,-0.08736439519822597,0.900025762951374,0.4935049267975613,-6.712592682537436,-6.310965938568115,12.853553706581284,-14.477861483669525,-13.160152360686693
1698924296.76,0.01666666753590107,0.20497085699029266,-0.38213703060150145,0.7921323744654655,0.729782630068995,-7.033715564727783,-6.394762996673584,17.849978810870887,-15.061125487842764,-15.291582900628164
1698924296.777,0.01666666753590107,0.3986933573985472,-0.6185352184474467,0.7518389425218105,0.9196727857727557,-7.304409989929199,-6.40344197769165,20.771913247234835,-17.698657677356547,-15.229262547093676
1698924296.794,0.01666666753590107,0.4783633987018838,-1.173726384231448,0.5778565865784883,0.985064345550537,-7.908047498974204,-6.532878504943847,20.657524654110045,-20.576609110560195,-12.830459129450178
1698924296.81,0.01666666753590107,0.5689931158389896,-1.274108666434884,0.5124433264255523,1.0600328580994158,-8.044667800250648,-6.564900952148437,21.18901923946917,-19.819972707137232,-12.635817521125032
1698924296.827,0.01666666753590107,0.5667996974479407,-1.1842127069324255,0.4801221885353327,1.048510762609914,-7.991695503997803,-6.562357112884521,20.819576014810476,-14.476770360949615,-12.941103925136153
1698924296.844,0.01666666753590107,0.6570984655976295,-0.7764221796363592,0.2371884614408016,1.1436802786011249,-7.634809234508872,-6.755390206256508,25.021539128053583,-9.835795985030291,-16.151703500165993
1698924296.86,0.01666666753590107,0.907095847468078,-0.677829118937254,-0.07825871320068836,1.4088380759308115,-7.585129550060629,-7.021445281219482,31.951771786386804,-5.821954210775904,-15.888403122756586
1698924296.877,0.01666666753590107,0.9065694855064154,-0.6697048491925001,-0.28626024312376974,1.4270937905242667,-7.637204020690917,-7.167641220092773,36.630816782966136,-3.0930560748387403,-13.786742816086262
1698924296.894,0.01666666753590107,0.9996956591017544,-0.7935276282161474,-0.813562115985155,1.5400702544281257,-7.844751961627602,-7.607576359668373,33.56711152509482,-2.7843707979418912,-6.332992379570843
1698924296.91,0.01666666753590107,0.9247830414585768,-1.1037024154126645,-1.2267764218956232,1.462707613284327,-8.203132853588462,-7.970596601867675,21.498356799431757,-5.04859238162287,1.1621857155816422
1698924296.928,0.01666666753590107,0.8541586225286125,-1.1259393816620111,-1.1228455072999,1.3780127660889179,-8.250419505420327,-7.841309127697349,6.70891574620459,-3.9069531557250956,4.201220757057694
1698924296.944,0.01666666753590107,0.5571253852495923,-1.116564235073328,-1.2427449753999709,1.067514701754786,-8.229619878497719,-7.974338126483559,-16.903249705110007,1.2358913541323076,2.206549387320095
1698924296.96,0.01666666753590107,0.41988059539925304,-0.874523657426238,-2.099129165023565,0.9361328856537118,-7.940818718719482,-8.879345769500732,-34.54863361448775,6.833966691510591,-0.635585974619034
1698924296.977,0.01666666753590107,0.271663781690225,-0.727742027619481,-2.6229274136781693,0.8098387480804696,-7.724143468475341,-9.47355669403076,-40.44405333997631,11.524031771428914,-5.749142259789452
1698924296.994,0.01666666753590107,0.3916113632483408,-0.0611556027084589,-2.770761182886362,0.9868600698608905,-6.969221757507324,-9.705794839587806,-28.01286999393215,16.33781932485967,-13.691161148841104
1698924297.01,0.01666666753590107,0.5687739931955933,0.3807183959752321,-2.444858665204048,1.2243349470276386,-6.483647733306884,-9.417741867828369,-17.25551500400612,17.2570227682654,-18.282302464576016
1698924297.027,0.01666666753590107,0.551178130750358,0.6836947961002587,-2.4381156206846235,1.2704233289856464,-6.14786095046997,-9.436895481109618,-15.463838563948594,14.45057829302991,-19.009842262134725
1698924297.044,0.01666666753590107,0.23897987490221856,1.256278995233774,-2.6981688248842954,1.0245686729431152,-5.5222255446285,-9.741258367156982,-24.423351160543866,6.48052062366171,-14.01285281346495
1698924297.06,0.01666666753590107,-0.16475918504595755,1.8692606712073088,-2.713514862576127,0.6479308242797851,-4.853794953155517,-9.806500362396239,-30.085050350371056,1.3963312170754376,-9.497827125840658
1698924297.077,0.01666666753590107,-0.43505153225250537,2.362678979167342,-2.2918770117133853,0.3930980581421405,-4.305073860168457,-9.435099829864502,-24.13664030975424,-0.6338798147087059,-8.664843721648937
1698924297.094,0.01666666753590107,-0.7770914572000504,3.301270911878347,-1.7370388971507549,0.07930800305791198,-3.329736543384194,-8.911068941497803,-1.49792996081426,2.592275569516691,-15.052697034406968
1698924297.11,0.01666666753590107,-0.9118319360792636,3.064635408145189,-1.5117559775590896,-0.017956512451171875,-3.563768586620688,-8.683619199261068,2.5362801845970453,4.893133007245148,-19.493629683688606
1698924297.127,0.01666666753590107,-0.9399822180256246,2.769765157586336,-1.6693746432006358,-0.00269340380243957,-3.851073370361328,-8.84268455657959,-5.5029502255904585,3.5942692299560273,-20.576163440716854
1698924297.144,0.01666666753590107,-0.7408684165004641,2.2287825498968363,-1.6623270627766846,0.24690211926884947,-4.351760792541504,-8.865877800640463,-19.398713959887523,1.3595933370772315,-18.82349591855656
1698924297.16,0.01666666753590107,-0.30376126689240335,1.8636293873220682,-1.4610533798038958,0.716464919866994,-4.6667485329777,-8.705617096057534,-26.633663555209814,1.4155587331975525,-16.42575288778171
1698924297.177,0.01666666753590107,-0.03274506239071488,1.5861866569042204,-1.0188590631246566,1.0230722969055175,-4.862623571777344,-8.331073589324951,-30.85674219827202,1.6739184292378069,-11.646861624594191
1698924297.194,0.01666666753590107,0.093667148604244,1.5727414843976497,-0.6480471441358328,1.1688193960327655,-4.81399135055542,-8.011746942901611,-30.265906929403823,3.2203577809196724,-5.678155249971863
1698924297.211,0.01666666753590107,-0.022460180545970796,1.4389023382723332,-0.1255956339150667,1.0639234357971696,-4.890905078887939,-7.536647550964355,-25.09897469022131,3.774847051893294,0.8198154398021714
1698924297.227,0.01666666753590107,0.18773045691922305,1.5616922671169042,-0.0362941331744194,1.2689269529480487,-4.7248073387146,-7.484872940063476,-7.170263435014039,0.2005727738456557,8.48280039724788
1698924297.244,0.01666666753590107,0.1823570202525705,1.431436824697256,0.18230419408679008,1.2464813123840839,-4.856937342834472,-7.267150811114907,6.000659707106941,1.2811952518450616,13.025171600987962
1698924297.26,0.01666666753590107,0.025645167257636783,1.3088403725981712,0.5439800359398126,1.0708066925048827,-5.000739664569497,-6.890213102722168,12.027075203800353,4.272641483887578,16.54533071712841
1698924297.277,0.01666666753590107,-0.03456285240240395,1.398247087278962,0.9670622403919696,0.9889549963135271,-4.94761773071289,-6.439205364990234,11.467863710789313,10.193525435262416,18.628540121529593
1698924297.293,0.01666666753590107,-0.002670826644450426,1.5215344442516565,1.2257763049423693,1.0130466505188493,-4.8506525634765625,-6.158934133148193,11.262918762101204,14.403076034899764,19.24929161896245
1698924297.31,0.01666666753590107,0.13866079412810503,1.4923136104643344,1.5746756673306226,1.1541549108643083,-4.905719786182046,-5.787683238220215,11.208475324227033,19.22463975870058,20.42872014710379
1698924297.327,0.01666666753590107,0.2558242613930255,1.4565969849169254,1.4969967998445033,1.279551222814992,-4.975450325012207,-5.8345198081970215,10.339170681576476,23.03691838167966,21.379335630502407
1698924297.344,0.01666666753590107,0.3643502486940473,1.4325281270653007,1.3332973529845475,1.3964181182861328,-5.021987619781494,-5.977274082183838,7.462014965411134,21.55239896369219,20.122690106246782
1698924297.36,0.01666666753590107,0.2856031674545258,1.0727426290035247,0.9655927523612976,1.3230957655090838,-5.3953334411621094,-6.332214478302002,1.865373113984907,18.297337418486507,19.39428970485265
1698924297.377,0.01666666753590107,-0.08322115791365504,0.78906538811028,0.6825263368427753,0.9524434940613805,-5.680093801116943,-6.6145806365966795,-5.400110628578515,13.885856544905963,19.285935583859565
1698924297.394,0.01666666753590107,-0.1468413971699774,0.7615712319850921,0.41218028668761253,0.8785224447388201,-5.697003434863686,-6.895749694061279,-10.804971653724774,10.432864655289771,20.054125252263606
1698924297.41,0.01666666753590107,-0.5298575486935675,0.709731739154458,0.12951134605407713,0.4795886661805212,-5.729623847961426,-7.197568740844726,-13.281839864713287,9.14316186922493,20.91501083298848
1698924297.427,0.01666666753590107,-0.8547186675641685,0.6408055024445056,-0.001771101325750351,0.1336265262879431,-5.779004841724038,-7.348852358245849,-5.064835425242807,10.659025025313587,19.329604398318043
1698924297.444,0.01666666753590107,-0.9670029114201665,0.7162865676254033,0.029025018954277036,0.013916370214894414,-5.708973858642578,-7.314286071777343,6.758534936090617,12.639319700621956,15.321304468801475
1698924297.46,0.01666666753590107,-1.3064523084178565,0.4433259510576725,0.236534965968132,-0.3158848354063928,-6.0221653633117675,-7.070078086963296,20.74596194348337,16.41927274580666,10.587784444723063
1698924297.477,0.01666666753590107,-1.4121278747238217,-0.17477087597250937,0.3189320941478014,-0.40761275957636534,-6.685059947967529,-6.945878291320801,23.219262234404198,17.40921645844621,11.562246679835136
1698924297.494,0.01666666753590107,-1.5168874952286482,-0.24549451749324797,0.22198972326517105,-0.5012859725952148,-6.801328950610756,-7.0001967414855955,21.69202169070559,14.941411054712658,11.280230730326247
1698924297.51,0.01666666753590107,-1.4856060756497085,-0.13645137445032596,0.1589975527793169,-0.4584895448546856,-6.744166801452637,-7.014113038635253,17.07612350055032,12.325049036531329,7.964505152459802
1698924297.527,0.01666666753590107,-1.3343845636993645,-0.024675007051229474,0.03493102812767029,-0.29538455675654113,-6.660968293762207,-7.110031327167153,12.894695351046854,12.42072120378299,3.5682039474227896
1698924297.543,0.01666666753590107,-1.3116957620292902,-0.018099720314145088,0.037976971694827076,-0.251540811920166,-6.674285455974936,-7.085339953503012,8.185486531545456,12.059737168411354,0.01199973523721326
1698924297.56,0.01666666753590107,-1.0662523171361535,-0.1625263114273548,-0.6362234353512525,0.017806947912648318,-6.828861685180664,-7.746439471435546,2.4965269895236903,3.3301821001316,-3.8132655853141464
1698924297.577,0.01666666753590107,-0.8199394689973444,-0.38171442127525806,-1.069071831536293,0.27144275935068723,-7.053018815612792,-8.173505192565917,5.9403465754147895,-3.0904795994177645,-4.73669350072153
1698924297.594,0.01666666753590107,-0.8830625723864882,-0.4891466219902038,-1.1391454847157,0.208894167913869,-7.176619476318359,-8.228273140063882,13.128088891401715,-4.831217769305806,-5.571614971090242
1698924297.61,0.01666666753590107,-0.8401530396603047,-0.8157400445461273,-1.2358756741523742,0.25528182507939634,-7.536498497882485,-8.29291600036621,14.765350976024532,-3.5918526236503125,-5.693997019978061
1698924297.627,0.01666666753590107,-0.502627596462518,-1.1937187864243983,-1.7911422432601452,0.5981015752930193,-7.937377053833007,-8.825476232147217,12.485703623546492,-1.5660347375238093,-5.52849982884136
1698924297.644,0.01666666753590107,-0.3071019556224346,-1.255824237203598,-2.151612800976634,0.8005612531799823,-8.015937380328774,-9.169044170379639,7.287804160440789,-3.4257671824713434,-6.791271605895664
1698924297.66,0.01666666753590107,0.2768430840242654,-0.8773433910220861,-3.1241192782491445,1.3853450817383826,-7.637952793231606,-10.140940406799317,-4.582481916527805,-10.216512436914094,-7.205560145097373
1698924297.677,0.01666666753590107,0.20435937402844429,-0.01435819569826126,-3.42540056489408,1.3003508497375995,-6.7546408491939305,-10.463708133587241,-14.235032036976293,-15.103943943749574,-6.064483556032479
1698924297.694,0.01666666753590107,0.037945699773728844,0.28589374789893623,-3.246912714225054,1.115997321905568,-6.41631081161499,-10.32424647140503,-24.545128310803317,-16.08580071241183,-6.68694729651289
1698924297.71,0.01666666753590107,-0.02916464662067592,0.8498504039406776,-3.0447476353704928,1.0226235302247106,-5.771821652221679,-10.201393998718261,-35.72989775596853,-20.74782487757949,-10.295770805816568
1698924297.727,0.01666666753590107,0.057365928101912135,1.5648001700043677,-3.0660932057380674,1.0839749477662146,-4.983979668426513,-10.293122434344887,-35.66930373274676,-27.04756789627071,-12.527490720888629
1698924297.744,0.01666666753590107,0.06729439772441982,2.0276544128745795,-3.1439117739558218,1.0633248853821307,-4.457554578399658,-10.432284821319579,-25.326910055655684,-30.244897267516862,-16.66399500867363
1698924297.76,0.01666666753590107,0.02821216820143163,2.9160253938674927,-3.0456179884642363,0.9904513723511248,-3.5148376747131347,-10.386495714569092,-9.43237513057172,-31.578457552016,-23.139413907912164
1698924297.777,0.01666666753590107,0.09942140128202735,3.2492508017837998,-2.2435633549213407,1.0455180835999547,-3.17306538772583,-9.594015549579263,9.521331514321965,-27.85551097319152,-27.221940918233845
1698924297.794,0.01666666753590107,0.06684877284877001,3.355047510251403,-1.5736556766331196,1.015889764990285,-3.0933085449218747,-8.900893584442137,24.37292899654354,-19.9473489049688,-31.43225052264271
1698924297.81,0.01666666753590107,0.2773508143506944,3.1576410241007804,-0.8239046463012695,1.2665327512878923,-3.3433529808044433,-8.099135303497315,24.131614998072404,-7.3641614064933005,-33.779325502607115
1698924297.827,0.01666666753590107,0.391400387378782,2.854333784586191,-0.7851566902339459,1.4275428129334002,-3.6755484611511227,-8.027907219585776,17.05985398994735,-3.823282911505616,-32.535534394369456
1698924297.844,0.01666666753590107,0.5523126146730035,2.658234289380908,-0.8623281927198171,1.6314987937927246,-3.886986395263672,-8.084919731140136,9.275244067394636,-7.553942481450336,-29.474335815923535
1698924297.86,0.01666666753590107,0.7188715426173061,2.3499743958950043,-1.2061445527553558,1.8314147054810075,-4.198681523895264,-8.42055687637329,3.443942529296159,-15.934045861885197,-26.01614956744355
1698924297.877,0.01666666753590107,0.6461893143747002,2.371010754182935,-1.3077175060480832,1.7645266235351562,-4.170848345074058,-8.527398125457763,-1.0467249962005731,-24.38429443132244,-26.925404840323157
1698924297.893,0.01666666753590107,0.33202121975831683,2.384941664379835,-1.2093752052396536,1.4508862060546874,-4.141071046447753,-8.443301207622886,-5.792165194484539,-27.598016256576624,-32.05666641656528
1698924297.911,0.01666666753590107,-0.3674496029488742,2.392825111106038,-0.8875222552090882,0.7624035911560059,-4.097975416564942,-8.151358827209473,-9.038163078661617,-27.867356228759615,-39.95043898375407
1698924297.93,0.01666666753590107,-0.6953392027951777,2.341581830602884,-0.7468050400078297,0.45235447616577146,-4.117428305053711,-8.036137872314452,-9.243790192493082,-29.244554591865967,-45.619980938295726
1698924297.945,0.01666666753590107,-0.8295134260937571,2.5165111120074988,-0.7564081501334905,0.3441664886474609,-3.9112276870727536,-8.06920778274536,-6.814835331645385,-29.972096096971967,-53.19718789783277
1698924297.96,0.01666666753590107,-1.138034308603406,2.7137387344598767,-0.47286301118731494,0.09442132797241211,-3.678541213226318,-7.807043285480141,-0.2851174156810289,-26.153941803759384,-62.423236673956744
1698924297.977,0.01666666753590107,-1.1686683701895177,2.5885639563053844,-0.369944488504529,0.12105696757212281,-3.7876264418452976,-7.708281882476806,7.646952582472984,-26.719216797206105,-68.16274025616684
1698924297.995,0.01666666753590107,-1.1114226344011724,2.459239657256007,-0.33063305333554743,0.2455554539002478,-3.913023338317871,-7.660248211669922,13.848065108228282,-26.98621401450378,-74.37423723078149
1698924298.011,0.01666666753590107,-0.6448562391400336,2.1809406022697684,-0.7673591677367687,0.809539436340332,-4.186261602783203,-8.082675167083739,11.478259258706073,-32.174623783531395,-81.26048176331254
1698924298.028,0.01666666753590107,-0.62488897138834,1.5055319884777068,-1.2825801421821117,0.9000701866149902,-4.844816696929931,-8.598176712036132,4.79275782786311,-35.649523504910405,-81.7479865153222
1698924298.045,0.01666666753590107,-0.5779951182663441,1.319896604141593,-1.493280409669876,1.0099041877746582,-4.998045603179931,-8.823530943298339,-2.8610689131226685,-40.14136667671802,-82.65009741032998
1698924298.061,0.01666666753590107,-0.47097734357118604,1.43875854588747,-1.868542293804884,1.1888707618713379,-4.816834465026855,-9.236231454467774,-6.264838190711517,-46.63393618096246,-85.87215035882429
1698924298.078,0.01666666753590107,-0.4130179065555334,1.6467624138981103,-1.789434270298481,1.2943652725219725,-4.560056336975097,-9.18744959564209,-2.6416185636281555,-50.76030959066104,-88.6955798069783
1698924298.096,0.01666666753590107,-0.44006022725999355,1.708727579423785,-1.6805191375494002,1.3108255550660193,-4.458901316833495,-9.101108698272705,4.8118840650864385,-53.35433689025643,-90.9410727985117
1698924298.111,0.01666666753590107,-0.6436436484798789,1.7127648721158504,-1.1065981368541717,1.1649287452697754,-4.423288151660561,-8.539518771362305,14.932606940872512,-52.95725701266856,-91.84532154272968
1698924298.128,0.01666666753590107,-0.7882064331933856,1.7817156587451695,-0.8833744878798723,1.0646714046202599,-4.342781951794028,-8.314912728118896,19.545552781759042,-53.36997460836117,-93.5266682295767
1698924298.145,0.01666666753590107,-0.775256935249269,1.7994319326996802,-0.7926298025935887,1.1246762298583983,-4.320187258148193,-8.21630154724121,24.077197173407622,-54.359569981353054,-96.82852510833344
1698924298.161,0.01666666753590107,-0.6785933813080192,1.746705135640502,-0.7521288653790951,1.2867337547302244,-4.371363318634033,-8.160037808227539,26.14438636911054,-58.9132229500547,-101.32092494055841
1698924298.177,0.01666666753590107,-0.6842435160242021,1.4018021494120358,-0.7567997797995806,1.3242926471434533,-4.709693940734863,-8.15854143218994,21.812412312563527,-63.73216046611965,-102.64237529965912
1698924298.194,0.01666666753590107,-0.6970896997243166,1.4040619110375643,-0.7911082921147347,1.3489828517638147,-4.688295763397217,-8.198344450268149,15.829053901511053,-68.05558824846769,-104.84177817467327
1698924298.21,0.01666666753590107,-0.7513666488349438,1.5334376480132341,-0.7289999187260866,1.3365629306517541,-4.515763606262206,-8.159888170623779,11.343271668818172,-70.94082407842114,-106.04016901549785
1698924298.228,0.01666666753590107,-0.7730446660272776,1.5440245084792374,-0.5950239944785833,1.342249159594625,-4.467879573059082,-8.048407571300864,11.404596522281132,-71.39210150707306,-106.42692847724982
1698924298.246,0.01666666753590107,-0.767083419535309,1.5436825631737707,-0.5681336494654416,1.3766659545898436,-4.431517635345458,-8.042871564483642,12.43828247391274,-71.62097431597101,-109.06574474232757
1698924298.26,0.01666666753590107,-0.5431377398967743,1.557283803024888,-0.6526794801115989,1.6445169730588793,-4.364629041942954,-8.157044471630453,11.993743026877045,-72.00842362682916,-114.78310485124848
1698924298.277,0.01666666753590107,-0.4524864319823682,1.4383406127363443,-0.8858411702543496,1.7712600234434008,-4.437503139495849,-8.415767888531088,10.080864026223994,-73.30268983303321,-117.56519116435642
1698924298.294,0.01666666753590107,-0.41789062715843317,1.3476111250191927,-0.9875006327867507,1.8400934673033653,-4.477756239429116,-8.546402101135254,9.279360963916861,-74.14500242185753,-117.85096627922975
1698924298.311,0.01666666753590107,-0.41895577217191454,1.2100035662710666,-1.135036880353093,1.871666709435731,-4.5492824295043945,-8.734646206665039,11.691348354205777,-77.95127560100887,-113.69364186730726
1698924298.327,0.01666666753590107,-0.3839778361625969,1.187738542971015,-1.244687926161289,1.9141640811644494,-4.5317754143863915,-8.872013526916504,16.392932121272505,-82.27124730763688,-110.41457049962169
1698924298.344,0.01666666753590107,-0.34984891819804903,1.1318436372697354,-1.1979787819564343,1.9433434138976036,-4.556764894214273,-8.849867161560057,17.984574518655158,-84.46121086121806,-108.0357180645438
1698924298.36,0.01666666753590107,-0.4832524493850767,1.0754261689990758,-0.9764227739334106,1.7949029109679162,-4.57112951965332,-8.66386762008667,14.572140292330504,-83.81937798491197,-107.07453969359375
1698924298.377,0.01666666753590107,-0.5301768437758088,1.1537369046479462,-0.5725011970251799,1.7377413463316858,-4.458602626147866,-8.287977959442138,16.157999227033454,-82.35631731374939,-107.85294220235426
1698924298.395,0.01666666753590107,-0.5842670381426811,1.0628133556634187,-0.49135026951432226,1.6669626136228441,-4.5127708541870115,-8.238298859515785,18.90018186746288,-84.46313014437484,-105.1404418565104
1698924298.41,0.01666666753590107,-0.5916342059098184,1.0141951629668473,-0.6716542296946049,1.634790674944967,-4.538807797241211,-8.441955053710936,18.557086097527506,-88.82604325031471,-103.33548923625368
1698924298.427,0.01666666753590107,-0.5003492762669921,1.000243794503808,-0.981774656355381,1.6892586165830492,-4.527584976959228,-8.780435897937416,14.89995180645068,-92.67923982906404,-102.89865765769633
1698924298.444,0.01666666753590107,-0.5543915398389101,0.93789284453094,-1.1683727482438087,1.5738880240842699,-4.543596200561523,-9.016562867626547,8.35158648687641,-95.11207124915255,-102.46392977740337
1698924298.46,0.01666666753590107,-0.6154438283033669,0.9176181182652712,-1.1227853015452622,1.4628570682249962,-4.521300782123208,-9.01386997528076,5.482118575508743,-95.61437702109363,-102.95780709590865
1698924298.477,0.01666666753590107,-0.8900541117742657,0.8839584252476692,-1.249059565374255,1.1344023818418383,-4.50753295353353,-9.18655177001953,2.289336402702527,-97.29998574598274,-104.7207335622023
1698924298.494,0.01666666753590107,-1.2147747261956334,0.8934270953387021,-1.3378624689429999,0.734271429388225,-4.423437789264321,-9.344269804382323,-2.4843214414768777,-99.40192865172997,-109.34449159254495
1698924298.51,0.01666666753590107,-1.439021580737829,0.8277291730254888,-1.3497960678428411,0.4541496890194714,-4.425681768798828,-9.4113074508667,-4.413716479873253,-98.58723051772002,-112.26314070791813
1698924298.528,0.01666666753590107,-1.911615273464471,1.047279101923108,-1.497277370351553,-0.0712279377810657,-4.141220684051514,-9.612869303131102,-3.587911177612392,-97.1483692067868,-115.84610085215591
1698924298.544,0.01666666753590107,-1.9111849192231893,1.401437992274761,-1.6158850450754165,-0.12689312637969852,-3.7108635201603173,-9.792134567913413,4.015564689472523,-92.42539584856053,-123.67907107535325
1698924298.56,0.01666666753590107,-1.8235700563952326,1.5569570552885532,-1.596497623038292,-0.06539177897349,-3.5134915208011863,-9.804405435943602,11.989527092611853,-89.13566255558057,-130.47926205453132
1698924298.577,0.01666666753590107,-1.681990233015269,1.7455927904844284,-1.4341922608852387,0.061500909014791244,-3.296217135620117,-9.662848262786865,17.480661944711837,-86.50351938532192,-134.80538093141232
1698924298.593,0.01666666753590107,-1.357699534443766,1.6429799727499483,-1.418102126827836,0.3745427760802209,-3.372682535663247,-9.665092826843262,20.996633301117424,-85.54608395803704,-135.39852821931456
1698924298.61,0.01666666753590107,-1.2485134757988154,1.592694723623991,-1.3685130432724952,0.4749493159420788,-3.4081466477543114,-9.626336687469482,21.787068895648197,-85.48431172718345,-134.90899490112142
1698924298.627,0.01666666753590107,-1.1547829065695405,1.5977514224916696,-1.118011511272192,0.5545566672727466,-3.3925843369632958,-9.38512087020874,24.002172668016907,-87.50638923096572,-130.9566512963802
1698924298.644,0.01666666753590107,-1.2803168734252452,1.2672235830962657,-0.8050210821330547,0.3871120425350964,-3.724479957580566,-9.079860158538818,28.1648724388162,-91.19784693016915,-120.32147302278004
1698924298.66,0.01666666753590107,-1.3274809217907488,1.2010516135305165,-0.4900578916162252,0.2946360034115612,-3.801393685913086,-8.767416257366538,27.99348250197307,-90.85229399967987,-114.93696169249219
1698924298.677,0.01666666753590107,-1.463841256956756,1.3019804237008095,-0.08494389005303382,0.09651581603363156,-3.7158015610843895,-8.364891687774657,26.367882111584404,-88.75815800015395,-114.37462538793586
1698924298.694,0.01666666753590107,-1.3728345597334206,1.2689993605971335,-0.012078560328483581,0.1464947756893933,-3.7554555260807274,-8.295609477233887,21.86537701448239,-87.28190140351491,-115.93870455692294
1698924298.711,0.01666666753590107,-1.4061653130576013,1.16163788703084,0.04267769673168659,0.07930749160125851,-3.8569098214298485,-8.250568558502197,14.462025690078852,-84.54736003721943,-116.65691260852812
1698924298.727,0.01666666753590107,-1.4165696565635502,0.953301426064968,0.0723182172358036,0.02798208577260375,-4.034230381885171,-8.246827618408203,5.317440580185619,-83.43186037216212,-116.71998257532402
1698924298.744,0.01666666753590107,-1.4096576852180063,0.8759621657967567,0.024616554862260817,0.004937748663127422,-4.071939058032632,-8.323292433929442,-2.081652975044065,-82.28016070450374,-116.68320883683268
1698924298.76,0.01666666753590107,-1.4179393374815583,0.8426549394786358,-0.0637087943226099,-0.03366875310689211,-4.050840155902505,-8.448688161358238,-8.296317449886315,-81.16607488860463,-116.06101958457953
1698924298.777,0.01666666753590107,-1.411057761274278,0.8948878155410289,0.062251581251621245,-0.06793561823740601,-3.9131732681825753,-8.378658347320556,-10.585154821892607,-79.45169057674225,-116.90441134329271
1698924298.794,0.01666666753590107,-1.4303937453851103,0.7949602913677692,0.23290976120829582,-0.11731631973907351,-3.9553710724428295,-8.245331242370606,-5.840147273403879,-78.33931913832481,-115.40769833008947
1698924298.81,0.01666666753590107,-1.3396362006172537,0.6917541839152574,0.3390443233281374,-0.05656330648213625,-4.0086423516422505,-8.171559903717041,-4.519030312912033,-75.69544853326126,-113.74152149338904
1698924298.827,0.01666666753590107,-1.427131674849242,0.33295477428138254,0.36244799526929855,-0.18450345769673585,-4.300585024316609,-8.19071351699829,-8.695839973876101,-72.79705775896635,-110.1098552701799
1698924298.844,0.01666666753590107,-1.2454656325355171,0.1168254674822092,0.10651625491380691,-0.03217245013453066,-4.458901901355386,-8.481907709392905,-11.66198110209566,-69.06106722637443,-107.56694169123831
1698924298.86,0.01666666753590107,-1.1664087546944617,0.06959376070797443,0.1101028812289238,0.021996508556976914,-4.4484272690922015,-8.512284727478027,-9.266754996029958,-64.56074437471223,-105.51826060063884
1698924298.876,0.01666666753590107,-1.0821383799888193,-0.02892857284247875,0.3188496765613556,0.08858509609960019,-4.502147168841958,-8.329277938079834,-1.934695478635717,-59.519129031326536,-104.46011403404212
1698924298.893,0.01666666753590107,-1.052696304666251,-0.14261837264746427,0.6896791312068701,0.10728957737386226,-4.5842973365232345,-7.9761331932067865,7.558418816677633,-53.72829657750379,-104.65471295368495
1698924298.91,0.01666666753590107,-1.0373516552139073,-0.2217322413727641,0.808121970757842,0.12629399144276976,-4.651186222186684,-7.863455493053793,9.051633065478528,-50.595141956151785,-105.78754080866659
1698924298.927,0.01666666753590107,-0.842603063160926,-0.4856391983911395,0.7946545864194631,0.3336916371885687,-4.8982379059940575,-7.883806791687011,7.622345972214367,-48.32013913230936,-105.26876745063662
1698924298.944,0.01666666753590107,-0.7089042022891342,-0.9103682932674885,0.8063795110046863,0.4806356910154223,-5.308394577899575,-7.877671649932861,8.159669270256455,-45.76990700567209,-103.15304122314429
1698924298.96,0.01666666753590107,-0.6258310014788061,-1.0534268108978866,0.7381932790070772,0.5752067296568304,-5.441721390588581,-7.949197840008139,10.90743473655872,-45.89241669372002,-99.46066827859208
1698924298.977,0.01666666753590107,-0.6807425221659242,-1.3907041245535015,0.6866144829392433,0.5250780593320727,-5.7704754983097315,-8.004414700317382,8.185770838169658,-48.37432302299507,-93.01115970196999
1698924298.994,0.01666666753590107,-0.9322233475271612,-1.6294754712715744,0.6530600038617849,0.2609677617613226,-5.994034078326821,-8.047360108074546,2.6371855574134058,-53.107302608355404,-90.33744800042264
1698924299.011,0.01666666753590107,-1.1409901627343146,-1.76102270706743,0.7180342880755662,0.03037628743276,-6.094590548053383,-8.000823397827148,-6.040947151039438,-55.19128553168009,-90.03565609194564
1698924299.026,0.01666666753590107,-1.362050130868703,-1.7424907328158616,0.7793576485663652,-0.22281061119399964,-6.007501170404255,-7.977479931640625,-13.684434266282286,-52.23590365895059,-92.20716447438944
1698924299.043,0.01666666753590107,-1.4036325797095894,-1.777738279546797,0.6198708509653806,-0.27638080027475953,-5.9895446579530836,-8.164227076610922,-8.657364664507773,-46.37477489819008,-90.06727303761362
1698924299.06,0.01666666753590107,-1.3490341435596347,-1.7127125574067235,0.4188379910111427,-0.22954415723271668,-5.892879350446164,-8.381351824188233,3.8058573913856213,-44.21173936541167,-86.79893872730331
1698924299.081,0.01666666753590107,-1.3139277588650584,-1.6556299032256006,0.1896317604959011,-0.20784685081802307,-5.8367649567753075,-8.611793149456382,15.132784417519954,-45.15870411269891,-82.03516864916456
1698924299.094,0.01666666753590107,-1.2436357867598533,-1.690817828723788,0.13190262510478495,-0.15771825355850158,-5.886594278827309,-8.665064720916748,16.626234307847213,-48.44808565093662,-80.86748633884835
1698924299.111,0.01666666753590107,-1.2135648389492184,-1.6917735220134258,0.25835692167580127,-0.15307934171147644,-5.9055982545048,-8.533084354400634,18.998178006579636,-50.807178348745666,-82.14217039270197
1698924299.126,0.01666666753590107,-1.007530809706822,-1.7884841299667953,0.4283785572946071,0.020200930377095937,-6.039823185077309,-8.348879879650474,24.796385357158698,-50.10086507158006,-84.3630337220883
1698924299.144,0.01666666753590107,-0.8697246596466749,-1.7946081658050417,0.5122556948989629,0.13721753651723265,-6.086061204639077,-8.247874497112631,29.08659280693108,-49.901659189342055,-85.48397704791411
1698924299.16,0.01666666753590107,-0.8248596089385449,-1.8220523453086614,0.5597188723415136,0.1640026675902307,-6.163124570575357,-8.17799432067871,32.863926474569084,-48.55726963991386,-82.42137486559376
1698924299.177,0.01666666753590107,-0.9560285129413009,-1.9409201322734355,0.581426846280694,0.006883183642476797,-6.356307009290158,-8.121879634746909,31.793973925992,-47.55996298334903,-76.6898830952801
1698924299.194,0.01666666753590107,-0.7766618336111306,-1.676565723748505,0.3566583059519529,0.16445158040150998,-6.142923494067788,-8.322992574200034,28.03553085405096,-47.974555465968805,-73.79118496247253
1698924299.21,0.01666666753590107,-0.5982875993844121,-1.5577093349605797,0.20836393349468707,0.3185783122740686,-6.06466302730143,-8.45287801426351,23.224485621571965,-47.31946177738913,-71.00528057361856
1698924299.227,0.01666666753590107,-0.3560022531960159,-1.4705518605113028,-0.02318213814496994,0.5385457359313964,-6.028899640002846,-8.659826820263266,26.184262721032365,-39.94973547426956,-68.627124817836
1698924299.245,0.01666666753590107,0.08385843290388584,-1.1822557276457548,0.10428279677331447,0.9759364517211914,-5.792921138873696,-8.504802262768148,33.208950065397694,-32.69340055665596,-65.53056293496235
1698924299.26,0.01666666753590107,0.24631240974739194,-1.0632470709055661,0.1899836426734924,1.1499649848937987,-5.742044353595376,-8.381051964458823,39.85853878847155,-25.754409888259488,-60.934446680190725
1698924299.277,0.01666666753590107,0.6994454690702259,-0.8216349478036165,0.07996317903101444,1.6244658264160154,-5.601235368457436,-8.43297679748535,37.709050935911854,-22.709892339314035,-53.95309517856184
1698924299.294,0.01666666753590107,0.7900095370925962,-0.7305588386058807,0.2902829227685928,1.7334019288878886,-5.575647630475461,-8.183530327495932,30.62257940786189,-18.538239898060148,-48.58507534002498
1698924299.31,0.01666666753590107,0.8575928347609937,-0.6934273778244853,0.36509120325446126,1.823184491143748,-5.584625594440102,-8.079682415008545,20.55949607159473,-12.332884971056627,-42.320241418181695
1698924299.327,0.01666666753590107,0.8748835767798125,-0.7963970461726189,0.4168067774444818,1.8792987386841327,-5.7154088601261375,-8.007257230266928,7.256287106289411,-4.857193405606187,-34.737969873375086
1698924299.344,0.01666666753590107,0.9977947939164936,-0.5070803380876779,0.2447434068650007,2.0362685119628905,-5.4261599565804,-8.175150621685384,-0.8666218724106225,-0.9975132697872197,-28.9304751730721
1698924299.36,0.01666666753590107,0.9587393062699585,-0.4205661299780011,-0.015996610555052755,2.031928948388621,-5.32126370408386,-8.442253744396567,-10.217950191734381,1.3233921605374004,-23.799838559139037
1698924299.377,0.01666666753590107,1.107605706461519,-0.3346943114250898,-0.9338684113204478,2.2141875497680155,-5.179705946405232,-9.387963400158286,-22.80187791196118,-2.663925534570594,-16.630212893038745
1698924299.393,0.01666666753590107,1.2840946383982896,0.033141514362394806,-1.3454185834109782,2.396296659674123,-4.755932544818521,-9.830591432079672,-24.63470965686262,-7.808755495042355,-11.510171610055666
1698924299.41,0.01666666753590107,1.2372203667595982,0.14474837041348218,-1.1535364136397839,2.338686109161377,-4.591181835339963,-9.669880645641683,-20.742449518702692,-11.215188546407509,-7.413134716615938
1698924299.427,0.01666666753590107,1.0472432999573646,0.3979395798891783,-0.48227790526449676,2.1176712222777305,-4.292354956109822,-9.02778568790853,-10.100129428551663,-13.207643519759438,1.6081851155524272
1698924299.444,0.01666666753590107,0.8581818866953254,0.6627972617611289,0.24124328978955745,1.891718586730957,-4.0155256814152,-8.315361640930176,-3.4567726127652048,-16.032593538777434,3.4637453821341415
1698924299.46,0.01666666753590107,0.8171165935963391,0.8267617892980575,0.5731634603261947,1.809268267059326,-3.8473330147892235,-7.990647456249595,-3.0003027462402017,-17.048251206094793,3.2794043394076096
1698924299.477,0.01666666753590107,0.6012799861334264,0.6244383050113916,1.0888806938558817,1.5352818145751952,-4.030190166583657,-7.492055545043945,-13.990207321271772,-16.4638141169316,4.572079538421876
1698924299.494,0.01666666753590107,0.3019530484266579,0.2702475582167506,1.4362714052468537,1.193509381457418,-4.342633190973102,-7.171680850872397,-25.80443248619337,-14.671007280566439,6.712344928054759
1698924299.51,0.01666666753590107,0.1173250875674188,0.10537205331474542,1.52551912997365,0.9712976860046386,-4.441543939319253,-7.1212535629272455,-34.25779391434485,-11.44753365272477,6.471338288096274
1698924299.527,0.01666666753590107,0.06819529208689927,-0.15891805780231952,1.4506120652884245,0.8869020774841309,-4.594323932757973,-7.257274144744873,-41.1111237652656,-6.554124022818237,2.5828279237906826
1698924299.544,0.01666666753590107,-0.1650814027376473,-0.3596338146314025,1.2544728225946427,0.6438906089782714,-4.697274896405637,-7.503428002929687,-45.98589466270082,-0.7694104579964756,-0.38714267271700675
1698924299.559,0.01666666753590107,-0.16060739912874997,-0.4587140743255615,1.0607955861002205,0.6528688652038573,-4.690690841840207,-7.748234538158774,-45.111872920654726,2.60684735122409,-3.45011552620197
1698924299.577,0.01666666753590107,0.15970350909158587,-0.40825960611253975,0.8718985696196555,0.9977835418701171,-4.526239115308225,-7.988702751922607,-26.534741925460523,8.47032078786062,-8.732400268955887
1698924299.594,0.01666666753590107,0.3103771048355847,-0.7607526090785861,0.7942822459757327,1.1804910560607909,-4.839580257581174,-8.081327844128012,-6.268179860762945,9.415607869932984,-11.33468526725782
1698924299.61,0.01666666753590107,0.3886865983754396,-0.9938628612950443,0.7355401341497898,1.28957686920166,-5.076606221936643,-8.135197966003417,10.842650392281149,5.309400166872045,-14.078934039911175
1698924299.627,0.01666666753590107,0.7055711123436689,-1.1965969722092151,0.814265295818448,1.6367361099243163,-5.329343842425942,-8.030152368164062,23.521079756090597,-1.0514692029093817,-18.252437462430134
1698924299.644,0.01666666753590107,-0.10802950902096926,-1.7692849239781498,1.3935907859057188,0.8445546356201171,-5.951686344201862,-7.42516695164144,20.198737432465702,2.992766059377916,-19.039775566172306
1698924299.66,0.01666666753590107,-0.17211093604825436,-1.681328992627561,1.8558979162871836,0.8200140686035156,-5.907393905749917,-6.937647638592123,13.069626740974636,4.906605982269822,-17.91775136291034
1698924299.677,0.01666666753590107,-0.42934148404262956,-1.6038050234422088,1.993777277714014,0.5952583877563477,-5.854272848676144,-6.7842696792602535,11.993681555174515,5.871503818109761,-18.214400138942334
1698924299.694,0.01666666753590107,-0.4672554004386067,-1.230801439628005,2.1400912900090217,0.5913677369933575,-5.504120855878293,-6.622810120281577,11.369036849914753,5.362753335799954,-19.329215077535352
1698924299.71,0.01666666753590107,-0.6384268636796623,-1.0937871705979108,2.1611264792531726,0.4659714981079101,-5.391144172778725,-6.584353256115317,7.695311175570321,6.17024007070684,-18.96072295671858
1698924299.726,0.01666666753590107,-0.7751780978593975,-1.0762623275622725,2.1704712307035923,0.36451727582402527,-5.378873889270425,-6.5678931197017425,1.005971285135517,6.559314112813801,-18.07687086490954
1698924299.743,0.01666666753590107,-0.5302270395930856,-1.1613283826902507,1.7489701579630375,0.6401497419495135,-5.4556382722601295,-6.989422834014892,-4.905085411405848,3.7783236181808304,-14.453610897021395
1698924299.76,0.01666666753590107,-0.5281396388597787,-1.3398515969336031,1.6651479654163122,0.6606500936646014,-5.604677325604856,-7.085190900421142,-11.704978850468184,-1.9274456597185714,-7.6699336077091385
1698924299.777,0.01666666753590107,-0.5135457347095013,-1.4378063597291708,1.7791688968718051,0.6751647950988262,-5.668721927753091,-6.987626598247886,-17.31948655577246,-3.5537971574725287,-4.726940417473575
1698924299.794,0.01666666753590107,-0.4144342761594802,-1.5805015970051288,1.8363509197741745,0.7691373563904315,-5.762544413049519,-6.954556687816977,-25.502468115439815,-4.351443083889308,-3.0443965265311
1698924299.81,0.01666666753590107,-0.3299524506602436,-1.9255816933661698,1.8478858747452496,0.8432078971862792,-6.010045009668171,-6.990170437511801,-37.7168988232682,-3.695412805619692,-0.79240994608773
1698924299.827,0.01666666753590107,-0.12869381912611425,-2.1026213910534977,1.7812305055767297,1.0363900436401368,-6.09369301469177,-7.100453936004638,-42.59260545661971,-2.0140255645244762,2.5553899866776835
1698924299.844,0.01666666753590107,0.08343275483772158,-2.257981464113295,1.3540981489509343,1.240645445837453,-6.155941965594887,-7.569866514477133,-38.34321350978003,-0.5608242180679553,8.40013120262863
1698924299.86,0.01666666753590107,0.3011681816592812,-2.008859988294542,1.329436001381278,1.4354736059326678,-5.819107719531655,-7.635258731842041,-19.388685534638654,-5.586603821223836,14.589786086051232
1698924299.877,0.01666666753590107,0.3202674344047904,-1.8803721400693059,1.413967218980193,1.422455061340332,-5.672911780658364,-7.562234996685385,-0.8712142141321041,-7.22591667014495,14.308917608322906
1698924299.893,0.01666666753590107,0.629539646738395,-1.7830919155344367,1.4327397239893673,1.70467158203125,-5.59240674983561,-7.539639718517661,10.418059366490123,-6.179713543085648,7.7385377352800395
1698924299.91,0.01666666753590107,0.26357546004168686,-2.094599120378494,1.4300351412057877,1.3263877197265623,-5.945551494708657,-7.5260232810974115,11.851151728895626,4.407445085554712,0.4768559001242284
1698924299.927,0.01666666753590107,0.1948097476556897,-2.1929233010083435,1.3064730589449405,1.2759599933899939,-6.064363752093911,-7.6385507591247555,4.618343397878134,10.369386584690966,-0.7127228760931317
1698924299.944,0.01666666753590107,0.26909546557217834,-2.4796181361570953,0.4876671970874071,1.3889363111633806,-6.34867549149841,-8.453626786804199,-6.1124447174974845,13.196438594426033,-1.720327323492222
1698924299.96,0.01666666753590107,0.6300896087713539,-2.140257001964748,-0.04230418724417686,1.7817349479675293,-5.9901432083681225,-8.987832447704672,-9.749117469368244,12.13699087679243,-4.169897082637192
1698924299.977,0.01666666753590107,0.6486698060788214,-2.073582928095758,-0.2220359004944563,1.8243816650390623,-5.899463112750649,-9.174729814800619,-10.888268371974018,2.3551679003572255,-2.350179514385589
1698924299.994,0.01666666753590107,0.7202559096477925,-1.9876818834483623,-0.8881634757220744,1.910123938928172,-5.792172950854897,-9.848099031719565,1.841981423624906,4.380864550625961,-3.0959283828281423
1698924300.01,0.01666666753590107,0.7587035675942897,-2.3726345559924837,-1.062995726493001,1.9653402877807615,-6.206369838061929,-10.008211267742514,19.84828213369964,4.228886011404007,-8.976824564820317
1698924300.027,0.01666666753590107,0.46961277721971273,-2.327532846984267,-0.9203963508069515,1.701678976086527,-6.216245919910073,-9.83837317199707,27.866476841903975,9.959501809956622,-9.408336279787859
1698924300.043,0.01666666753590107,0.052903030408918854,-2.236996836012602,-1.096737252575159,1.3425485809326172,-6.209662157605588,-9.969455712890625,25.366460266044644,19.148725621170474,-8.24286097434721
1698924300.06,0.01666666753590107,-0.09211305103003978,-1.9668655976518987,-1.4822709398776293,1.2580033348083495,-5.981764087079465,-10.326939363750816,11.457571469483751,25.725523310712212,-10.696169301567409
1698924300.077,0.01666666753590107,-0.1986050482854247,-1.8126950266376136,-1.5925848335087298,1.2316672626771032,-5.8282356133610005,-10.424353443798422,-7.938218315665362,31.64185536789206,-14.595593454393036
1698924300.094,0.01666666753590107,-0.43961949775516984,-1.4575810275182126,-1.7468588648974894,1.1216836239136754,-5.40730503398478,-10.586112277984618,-28.196187148613415,38.14103991034765,-18.712744401164805
1698924300.11,0.01666666753590107,0.1697679531186819,-0.784721805948019,-1.8937573990821837,1.8388966587342321,-4.6549271622806785,-10.748468493542074,-33.723580913696054,36.8524905724789,-19.253273619248567
1698924300.126,0.01666666753590107,0.2685346168190241,-0.48394583847671746,-1.8395576068609951,2.037615396527201,-4.274249098315835,-10.709413663482666,-28.5942864319349,34.10596905437922,-14.386220835575465
1698924300.144,0.01666666753590107,0.5382030599735677,-0.19334581258296965,-1.8046049514234066,2.404975567626953,-3.916016674914956,-10.683076860699057,-10.226604041412788,18.66200121827349,-8.89571521465277
1698924300.16,0.01666666753590107,0.4924902333296835,0.5027265267923474,-0.9518138178557157,2.3965958618164063,-3.2142163132816552,-9.824756150054931,6.759586358335976,8.592068909816097,-5.261910288459769
1698924300.18,0.01666666753590107,0.07703180175423621,0.631862025271356,-0.42937633616030213,1.9975125187195837,-3.1191967271551486,-9.284414762878418,22.851803179699388,2.639242725014049,-2.8840055421292177
1698924300.193,0.01666666753590107,-0.6426373940467834,0.8343900922194123,0.6369213544875383,1.2843396992005407,-3.006070698712766,-8.17829301136434,31.24534922619448,0.9091555948064076,-1.3255215787328576
1698924300.21,0.01666666753590107,-0.9145873722672462,1.0323670717343687,0.7642033340543508,1.0136451278686522,-2.87289293910563,-8.022220990642905,21.81614501094494,0.09774475613878975,0.8118992505541266
1698924300.227,0.01666666753590107,-1.1139800637990236,1.1470020434349775,0.6733639562219381,0.8099884952820837,-2.7911910997137426,-8.099284941101073,3.770957259160972,-0.8034421957011815,6.542563073874344
1698924300.244,0.01666666753590107,-1.1982884324274956,1.1899021507456897,0.548449874830246,0.704493984631449,-2.733131417194009,-8.23560479812622,-15.382552482636273,-6.505610042917283,7.984134262360772
1698924300.26,0.01666666753590107,-0.5232371076405048,1.1579010385900734,0.7447276492118835,1.3494319107055663,-2.7292411317571994,-8.061725902557372,-18.702330070227827,-13.734491868935663,3.0455356740186112
1698924300.277,0.01666666753590107,-0.30654183752164244,1.1673530498072504,0.8594429926723242,1.5310918155394493,-2.6783640542179343,-7.972541306194662,-17.25053921119577,-16.86271936257515,-5.907701686276713
1698924300.294,0.01666666753590107,-0.3442962525069713,0.9170540546417236,0.938980055245757,1.457470260620117,-2.8706486673101783,-7.925405461010336,-17.171001658310967,-15.414254805668886,-15.041022533568125
1698924300.31,0.01666666753590107,-0.4322483844652772,0.6677762192174792,0.7613380077511072,1.352873575592041,-3.0753526169925927,-8.125321299633383,-14.157196054968475,-13.448344508752564,-20.989260111908393
1698924300.327,0.01666666753590107,-0.6169359665572642,0.5238020480468869,0.6826414876550435,1.159392153930664,-3.183839879718423,-8.220641037750244,-8.065453640845298,-13.41747632257234,-22.33818661449277
1698924300.344,0.01666666753590107,-0.3119450117394328,0.5088794964641332,0.8388117080539464,1.4459483112610876,-3.1774054627567527,-8.076988938140868,0.436313231232355,-13.43518956441112,-14.202016610075745
1698924300.36,0.01666666753590107,-0.24265885567590592,0.4643003500252962,1.1217232252717018,1.49547835810557,-3.2242420327335592,-7.797016396984458,4.577548812399764,-12.485543967874642,-7.915105809287685
1698924300.377,0.01666666753590107,-0.35174203846827146,0.3761933197662234,1.3253402565002441,1.3645453086853025,-3.3255469827398656,-7.592163101959228,8.28565893968651,-10.567567084779824,-3.7802275334119715
1698924300.393,0.01666666753590107,-0.4510908859707415,-0.0023851415708661078,1.942045921432972,1.2442366752624512,-3.7330101777777074,-6.967426106262207,9.182032475791473,-4.380060295851192,0.12470129831743511
1698924300.41,0.01666666753590107,-0.48155149068608877,-0.38245530277043577,2.0527701494306325,1.2042834350585936,-4.131644169671834,-6.850708190807699,4.490420784912965,-2.4846584686237354,3.334405931803018
1698924300.427,0.01666666753590107,-0.4571399568766355,-0.5111313670441509,2.0308371345639227,1.2204442962646485,-4.264223378863931,-6.872555280956625,-3.4129426485309984,-1.069094292619188,4.632245394160049
1698924300.444,0.01666666753590107,-0.3820226104415953,-0.6816068839102983,1.8668477648466824,1.2847883197508752,-4.406678377643227,-7.050324754223227,-17.905708031856314,-2.3989423693044256,4.32054458874464
1698924300.46,0.01666666753590107,-0.2772439929753542,-0.8649214240834117,1.4118530033051966,1.3784616058349608,-4.538509106555581,-7.528716173443198,-27.45299597257162,-3.776734745425156,3.5951878903993943
1698924300.477,0.01666666753590107,-0.3033218525618315,-0.9568041734889149,1.2132803959846497,1.3370119895935058,-4.565593512836099,-7.756464606365561,-28.990823309483748,-6.354082723067373,3.7897253383396974
1698924300.494,0.01666666753590107,-0.45203503495305775,-1.067661964738369,0.9504957209944724,1.15565121383667,-4.591031905475258,-8.059032425689697,-27.53041104417184,-10.360414277442507,4.514297418704038
1698924300.51,0.01666666753590107,-0.635040070785582,-1.1608099117740989,0.9411801956385374,0.9427169036865234,-4.6260471047550435,-8.096142551422119,-23.34737780021342,-10.700258877332955,5.023138827907172
1698924300.527,0.01666666753590107,-0.7144280802771449,-1.2231558933109044,0.9753764797508716,0.8358756546020507,-4.647595211957395,-8.08222566975057,-12.59661223528916,-8.486827647537249,4.69721415354521
1698924300.544,0.01666666753590107,-0.6656506053656339,-1.2775360105350613,1.1405454146414995,0.8640075241088867,-4.688745260730386,-7.925555098614097,1.7894151138337242,-2.640039722712825,-0.41029010377290065
1698924300.56,0.01666666753590107,-0.6833722861476242,-1.30143857190907,0.9204097948104143,0.8439562313355505,-4.724060027478635,-8.141782020568847,7.634385034400161,-1.626398455304501,-5.743618344298205
1698924300.577,0.01666666753590107,-0.8338261747263371,-1.4067697086915374,0.7756611321359872,0.6998552189148962,-4.848408583942056,-8.278251515197754,10.232283343707653,1.3588238735785474,-9.281829223528176
1698924300.594,0.01666666753590107,-0.8853903577469289,-1.831158027306199,0.5457745181411504,0.6705259563170373,-5.3033068993717425,-8.492681616863608,11.82508943457015,5.3953832838992195,-8.493750044261057
1698924300.611,0.01666666753590107,-0.7800466537438333,-1.8840543357133863,0.2330751809030771,0.7933787212647497,-5.383512947247922,-8.791807771301269,13.043289531535068,4.415389449333083,-3.920785142568018
1698924300.628,0.01666666753590107,-0.8016942757979035,-1.8714698716893792,0.11529869630634784,0.7803602497376501,-5.404312281909585,-8.895057133373617,15.456782978535971,2.258047092671287,2.3097847084170757
1698924300.643,0.01666666753590107,-0.7175874210909009,-1.663708580262959,0.13107085045576095,0.8592191207885742,-5.252430406354367,-8.858097229766845,17.052139291279822,-0.7447769005071486,7.520916809266032
1698924300.66,0.01666666753590107,-0.7578278076730668,-1.79064832226336,-0.110050274258852,0.8096892200745641,-5.422269086621702,-9.083600514110922,16.208085004217157,-1.3078414206228681,6.4206821901168745
1698924300.677,0.01666666753590107,-0.6408752066798508,-1.7030515796139836,-0.20832944670319556,0.9014167789183557,-5.387851853235065,-9.164554457744956,16.679115339948744,-4.31852882916584,1.3125948053983738
1698924300.693,0.01666666753590107,-0.6689470165625214,-1.8179329272910951,-0.6383885044306516,0.8361749298095703,-5.572654586139321,-9.571868015179037,15.918650615495988,-7.619479000310254,-6.7897360939928815
1698924300.71,0.01666666753590107,-0.4138312687650323,-1.8125681853875517,-0.8999217180550098,1.0723032146729528,-5.604826670947671,-9.820715934753418,14.319901406281932,-11.70705693552316,-11.233944245868363
1698924300.727,0.01666666753590107,-0.4260504066079855,-1.7130296605318784,-1.0089742134481667,1.0407295341491698,-5.534795980127155,-9.920373994335531,14.761548268204127,-14.382587174937017,-11.484335565746445
1698924300.744,0.01666666753590107,-0.4914478846698999,-1.8679463737383484,-0.8445446987479924,0.9507974804200231,-5.7333653725773095,-9.741108729553222,15.812219192754265,-9.246393348340503,-10.094338281909137
1698924300.76,0.01666666753590107,-0.15711831490397452,-1.6524574106693266,-0.7796464023798704,1.2777554985046387,-5.549161482349038,-9.663745503887533,12.290933949174407,-5.736551232941356,-7.520241474311847
1698924300.778,0.01666666753590107,0.015343991865217685,-1.4301663663700221,-1.0877695177435873,1.4457985275268554,-5.345205428424477,-9.964517671966552,4.712810890514934,-3.893899383560732,-4.876772996635675
1698924300.793,0.01666666753590107,0.1778717645972967,-0.9636252516806125,-1.2570090630739927,1.603516415759176,-4.872948858697712,-10.137049244579671,-7.594873243825283,-3.5847855122934646,-4.601150531076743
1698924300.81,0.01666666753590107,0.3067356065280735,-0.6471814672172069,-1.0380366418033837,1.7287630901060997,-4.5317754143863915,-9.929501888164877,-12.076360141303873,-4.610849399698161,-6.737679807233629
1698924300.828,0.01666666753590107,0.2982176612906158,-0.4555161550670862,-0.9650386256098746,1.712003970745951,-4.309114952252805,-9.87129286030233,-12.969609719637202,-8.362848615044117,-6.898003983847692
1698924300.843,0.01666666753590107,0.5637441823348402,-0.08801438353955746,-1.0309142425775528,1.9529205127991736,-3.8977608872562644,-9.95987890625,-13.495604295167176,-14.72926367154477,-8.468453584896269
1698924300.861,0.01666666753590107,0.7507901641212403,0.3700727910593152,-1.1425205141067505,2.1074961574830113,-3.410840416882932,-10.088716883087157,-9.267348368714101,-19.613327041345787,-7.09307205210914
1698924300.877,0.01666666753590107,0.7844475190512835,0.6735144706085324,-1.054144311517477,2.096871887616068,-3.094805797742307,-10.012252067565917,-0.045825726833385726,-23.224349017788565,-5.517532252581613
1698924300.894,0.01666666753590107,0.7720674915581941,1.2483873652011155,-0.5330471385151148,2.0211552601136265,-2.536657535718381,-9.4931586356014,10.644455378040304,-19.400146592065934,-3.6708155868711834
1698924300.91,0.01666666753590107,0.8983828911151737,1.3137833819583058,0.08320376838743686,2.111985212530568,-2.500295598004758,-8.869469687652588,12.410920736097669,-13.13936894881599,-1.9610104899604834
1698924300.927,0.01666666753590107,0.865185262651369,1.1089040757089852,0.3288841638416052,2.0548236478943376,-2.7368726495489475,-8.61343916309774,6.452980874041396,-1.8478496233390047,1.9513402227562147
1698924300.944,0.01666666753590107,0.8893180525846779,0.9643567808255553,0.36530922991931436,2.07891530209966,-2.893094015613198,-8.571990131378174,2.6521383356104447,4.368336703027688,5.54931696477109
1698924300.96,0.01666666753590107,1.1089737799443304,0.9750932788953185,0.048535190588235855,2.3032219970703123,-2.8902509011417625,-8.884732723236084,1.080498467377288,5.330724017460825,7.068543135252332
1698924300.977,0.01666666753590107,1.2250672798901796,0.8403218203559517,-0.1945855835109949,2.425625630011037,-3.0274685837894677,-9.125948540496825,-1.7496797412852345,4.8843579217089745,8.297574204693596
1698924300.994,0.01666666753590107,1.1838211503315716,0.6712345429778098,-0.2690261997282505,2.386121375683695,-3.1979058144718406,-9.19956965702474,0.3676744991483548,3.1743856986070207,7.069659444294806
1698924301.011,0.01666666753590107,1.0835334876090288,0.5029109434485435,0.033736265385150906,2.30232424451299,-3.3657992058902977,-8.894758442687987,1.17788607932768,2.9779643991162636,5.464340446872845
1698924301.027,0.01666666753590107,0.6832184107601642,0.40813627199381586,0.38767537550628184,1.961300072479248,-3.4506440194830295,-8.53682470997274,1.0740042381370751,4.902127939495232,4.202377620348365
1698924301.044,0.01666666753590107,0.4969188634268939,0.351911695946753,0.5857599070489407,1.8146552207946776,-3.5012212372928855,-8.335412495312093,1.737341751601547,6.1980026552488265,3.661081286643446
1698924301.06,0.01666666753590107,0.06623699762597679,0.2489949268296361,1.0399304927259683,1.4413093994140624,-3.5923505379825826,-7.877671649932861,2.9078130202549435,5.594609229817913,6.074823608662231
1698924301.077,0.01666666753590107,-0.19288886259570717,0.12042086162567138,1.557940221107006,1.20817415888682,-3.728969670215249,-7.352143801006674,5.31194099724329,2.7034426612307607,8.904965852109905
1698924301.093,0.01666666753590107,-0.30845453927516936,0.14490473001897333,1.7737860347896812,1.0959458099365234,-3.7162507661566138,-7.130680731964111,3.078442885109498,2.9472014405379374,9.832421871580305
1698924301.11,0.01666666753590107,-0.36538989394009114,0.18782354203015564,2.097221870097518,1.0441711990356444,-3.6740529618963595,-6.806116769409179,-3.769167749598428,3.347347859619723,7.325861120722454
1698924301.127,0.01666666753590107,-0.3396149628229439,0.05674830766022205,2.256938969323039,1.0815805999755859,-3.7802956605657934,-6.655282064819335,-12.90456326685023,5.838261714306133,1.5328068277070492
1698924301.144,0.01666666753590107,-0.3176797559991479,0.019814707538485524,2.232659683591127,1.1186908718384803,-3.7819416742071508,-6.692241968426108,-17.20228733980421,6.855710171846503,-2.587377470108146
1698924301.16,0.01666666753590107,-0.3312438787102699,-0.3894377090036869,2.010097713395953,1.124825867462158,-4.150199524798989,-6.928969242095947,-16.829591237553295,7.499463185083021,-4.619665039482531
1698924301.18,0.01666666753590107,-0.24170433143004774,-0.6119590549275279,1.5373451768457889,1.2424410240173338,-4.332458418439328,-7.413944131359457,-7.137720571826691,5.799231878954564,-5.768630923925614
1698924301.193,0.01666666753590107,-0.2465823127299547,-0.6807678027376532,1.365354286980629,1.2553098579406738,-4.390667446301877,-7.587374114117026,-0.8099604373251951,4.787297091621685,-6.578496699097781
1698924301.21,0.01666666753590107,-0.4019001540832221,-0.8444692954242229,1.1004355225712061,1.1254245640076697,-4.556764894214273,-7.846995941162109,3.9309070560311534,5.530301718121774,-9.34582468095661
1698924301.227,0.01666666753590107,-0.3067966890655458,-1.0336243783190846,0.9890729966700077,1.2415431983947753,-4.754585806384682,-7.951143713378905,5.723689132960576,4.607068036218912,-10.791316398026625
1698924301.244,0.01666666753590107,-0.25369813608452674,-1.191724105475843,0.9927420405715703,1.3156139583863318,-4.922030577252805,-7.939920308575034,5.4601082909083765,5.00652097765653,-10.663018124657107
1698924301.26,0.01666666753590107,-0.1750328879095614,-1.4278691953435538,1.130247892510891,1.4215570895873009,-5.1695308816105126,-7.792826544079184,5.033651342813467,5.333768147396535,-7.829134218204735
1698924301.277,0.01666666753590107,-0.12133563838303088,-1.5183251268163322,1.1468915687978267,1.4921863308228551,-5.2747261170536275,-7.766939238628745,7.995824984898896,5.442441152846492,-5.046007581908843
1698924301.294,0.01666666753590107,-0.0855797037385404,-1.5186170955002307,1.1275567537307738,1.541716231536865,-5.297471032825112,-7.774272065734863,10.842460854531682,3.988417248842661,-3.350613330373224
1698924301.31,0.01666666753590107,0.07702259553447366,-1.5759218679994345,0.985396353983879,1.7143980262756346,-5.396680471856892,-7.896675041088462,12.551421142419416,2.77319788912022,-1.966585845313918
1698924301.327,0.01666666753590107,0.12299261180981994,-1.4184355965659021,0.9127192403078078,1.760785683441162,-5.281759084430337,-7.950843853649497,14.415785309397865,0.5821655176556304,-1.9851434692888426
1698924301.344,0.01666666753590107,0.17370280834957957,-1.2236568285703657,0.9084498924255371,1.809268267059326,-5.132420463617145,-7.935580818066001,17.541880930242662,-1.4741695469607838,-2.52158738047529
1698924301.36,0.01666666753590107,0.32189357430189847,-0.9394842053756117,0.6672983725726604,1.9443910232543944,-4.932056004443765,-8.141632382965087,20.823749260393353,-4.375765387523724,-2.6497279191636647
1698924301.378,0.01666666753590107,0.3862345290482044,-0.7824974078968167,0.35758418862521646,1.9943701290406286,-4.863821549390256,-8.413224049267173,24.61715948579027,-5.952944432452054,-2.3599635469282205
1698924301.396,0.01666666753590107,0.3686234690338373,-0.6304042276784777,0.2753255921334028,1.9651906501770018,-4.7722433358892795,-8.469188513073325,28.73760429128928,-5.443834938323998,-2.0226860309486407
1698924301.411,0.01666666753590107,0.11453618750125169,-0.5164943553820253,0.36464287496507164,1.7018284675598143,-4.749797695325315,-8.337657643890381,30.522069759130567,-1.5990930665500824,-0.8326960559989047
1698924301.427,0.01666666753590107,-0.17349997925385832,-0.6379115345686673,0.26928631196916103,1.4140755016602575,-4.936994337628781,-8.400654490551352,25.837753564059277,2.368184533367977,0.5970646148346612
1698924301.445,0.01666666753590107,-0.13785700346454977,-0.7674088520973921,0.02713818229436874,1.4600140998840332,-5.1134167802006,-8.617478793877362,13.79524127896105,7.378514195260436,1.268491099988838
1698924301.461,0.01666666753590107,0.12490049125775694,-0.8366171206191182,-0.7164356207072734,1.7474679367065429,-5.189582612775266,-9.35294878540039,-9.742181412266095,9.872418605586253,-0.5391414623826325
1698924301.477,0.01666666753590107,0.3056682695575058,-0.7712865703135728,-1.280515026345849,1.9541174674987791,-5.091120777240396,-9.928753700146078,-16.996454466524,11.925290871015177,-3.0023372888392195
1698924301.493,0.01666666753590107,0.31793226945549247,-0.6443351378753781,-1.2526561285614966,2.002151138305664,-4.931008541217446,-9.910497912487386,-9.218085629325385,14.205143982941964,-8.9776143054431
1698924301.511,0.01666666753590107,0.4409446088790893,-0.49098903498649593,-0.9326765711873769,2.194884371948242,-4.7595241395697,-9.585635259246825,-0.3452784956228681,19.602169927336572,-17.933293458366705
1698924301.528,0.01666666753590107,0.24603315441459417,-0.6593272475630044,-1.2813117296814918,2.0699371189393103,-4.914548404803872,-9.926359498485922,-5.364376786388301,21.943656105012614,-22.377612173929375
1698924301.545,0.01666666753590107,0.24257336934953927,-0.628868688674271,-1.769444790714979,2.137273894500732,-4.845715399335324,-10.418069248962402,-20.090215971837956,18.514363264269075,-22.870690360301765
1698924301.561,0.01666666753590107,0.3948120955184102,-0.3034714901655912,-2.729499782693386,2.3611320419862865,-4.4164051141485565,-11.412111850738524,-38.7330943679827,8.340719655906922,-15.091280773028371
1698924301.577,0.01666666753590107,0.21996099391654134,0.1332280284896493,-2.962713495284319,2.2028151649475096,-3.8869869797855614,-11.684900617870687,-37.27732833885369,-1.3476498975398181,-3.992144824582195
1698924301.594,0.01666666753590107,-0.012469459342211484,0.3984443145409226,-2.577706462204456,1.960252755383402,-3.5483567902162667,-11.335646450695394,-26.33974856239312,-7.234994845325543,2.4485449106043506
1698924301.611,0.01666666753590107,-0.7443954946480691,1.0280302115738391,-1.601422804480791,1.1917138763427733,-2.874688590350747,-10.38724390258789,-5.050070690691355,-11.852107101605782,3.988556413947
1698924301.627,0.01666666753590107,-1.4905577067077158,1.3265513858556746,-0.27374270685613156,0.41554391790181394,-2.580949974170327,-9.063998572540283,6.220167045992341,-10.941706064492905,0.9592810724646618
1698924301.644,0.01666666753590107,-1.7552739342823624,1.4341361467838287,0.17253858687579632,0.12704261785298585,-2.4944594391971826,-8.61343916309774,11.377017072186266,-10.780694600093609,-4.031163987763185
1698924301.66,0.01666666753590107,-1.918299281273037,1.4469602647826074,0.43802083038687706,-0.05805939025878906,-2.509722474780679,-8.340051845550537,7.587139762137537,-10.685342597959293,-12.480833698668272
1698924301.677,0.01666666753590107,-1.8261624109759926,1.3462857216343282,0.30043606799244876,0.02558803024291992,-2.61087749492228,-8.479214817047119,-1.6342199823995176,-10.00351896406277,-19.9677575102088
1698924301.694,0.01666666753590107,-1.7333059942327438,1.2219517782181502,0.42253158483207226,0.12240370600596069,-2.7090394707277414,-8.368033492931723,-11.308273779511028,-7.405329517941906,-26.60698142121716
1698924301.71,0.01666666753590107,-1.4992966012194753,0.996332758539915,0.4208195202171802,0.3761887897215783,-2.8648125085026024,-8.396464637646078,-21.085908996211366,-6.039606299528,-32.42372761275093
1698924301.728,0.01666666753590107,-1.1960608195059002,0.9264256940990686,0.12519698998630047,0.6968623207092285,-2.8666078674867745,-8.717886210522055,-24.306893020100564,-6.915574218600726,-33.31191858223022
1698924301.744,0.01666666753590107,-1.1020547943361103,0.9110998224124311,0.036004210317134855,0.8072950184144079,-2.8122897095829247,-8.833107165417074,-20.856515385389198,-7.611293018589994,-35.03597102686274
1698924301.76,0.01666666753590107,-0.8800541112855076,1.0218716889441013,-0.01416997964978218,1.0486604732789098,-2.625542272351682,-8.910619444164633,-12.811548043185704,-8.917686225665408,-36.418138352590276
1698924301.777,0.01666666753590107,-0.7650890308476984,1.0798226503923534,0.2291068617939949,1.176600478363037,-2.5347122468695042,-8.677933554840088,1.0105950030384983,-10.010002521132405,-37.27833579175627
1698924301.794,0.01666666753590107,-0.6723172236479819,1.0968085642457008,0.4889648356825113,1.2792518745422363,-2.517353992572427,-8.416067163738608,13.556097573098686,-10.958208655301302,-37.43824759569919
1698924301.81,0.01666666753590107,-0.7576919063337146,0.984933997169137,1.04074765432775,1.2089222007751463,-2.6572648598268627,-7.849539195904136,18.059445344789548,-8.976510376118497,-36.27244700249932
1698924301.828,0.01666666753590107,-0.6205459737479686,0.7294885790258645,1.1709031435042618,1.3603556019105016,-2.9319997925907373,-7.708281297954916,12.852001546092398,-8.094475968402328,-35.115648598625526
1698924301.844,0.01666666753590107,-0.5652123551912606,0.6077449443638324,1.1601041015923022,1.4296376663208008,-3.055300885827839,-7.715314265331625,3.5880631493214246,-8.276239255047415,-33.58170763935114
1698924301.86,0.01666666753590107,-0.6204466050267219,0.28245266753435133,1.1852531558960675,1.3875894996643066,-3.353678559985757,-7.698255578503012,-6.507888764779128,-9.328410259894016,-30.580891348262714
1698924301.877,0.01666666753590107,-0.7205278584569692,-0.01568506038784981,1.0362953510940074,1.2904748409546911,-3.6161429169803854,-7.8610612913936375,-10.946304489351617,-12.617045599964898,-29.092012562037485
1698924301.894,0.01666666753590107,-0.7536195423282682,-0.025406536196172235,0.9182955791354179,1.2530654400147496,-3.5838209023073313,-7.996932235607504,-12.104673836734515,-14.191080623440907,-28.862712866316404
1698924301.912,0.01666666753590107,-0.8292229187145829,-0.28367607184946536,0.5651572640031576,1.16837041015625,-3.781342831531167,-8.37611450805664,-14.128725265186922,-13.938013576955473,-30.99073001922016
1698924301.927,0.01666666753590107,-0.8698030586451292,-0.5713479353368281,0.13546703958809375,1.124526738385111,-4.019416259112954,-8.825774922832846,-14.333665945006802,-13.232043516795663,-31.97145639157478
1698924301.944,0.01666666753590107,-0.8756824720725417,-0.691650431279838,-0.08723404681682587,1.1186910179689527,-4.09513317887634,-9.06549494857788,-8.449040479727799,-11.369981977341153,-33.98299832856231
1698924301.96,0.01666666753590107,-0.9450263496726751,-0.7621563383966684,-0.2104804872572422,1.0586861927308142,-4.137779311425984,-9.197175455364585,7.213022980539258,-7.974963025852738,-34.19582702309991
1698924301.977,0.01666666753590107,-1.0915126497946679,-0.7829930824592709,-0.1933522423237562,0.9249101749695837,-4.177882189233601,-9.169941411480307,23.211375073460125,-6.434252495337221,-32.371227363695624
1698924301.994,0.01666666753590107,-1.1356222790256143,-0.7586401469692587,-0.1435994926393032,0.8937855533875525,-4.207211744092405,-9.096769207763671,35.877023445785184,-6.49720250693582,-30.872099878620794
1698924302.01,0.01666666753590107,-1.2263666720509527,-0.8726946884334087,-0.08817161992788314,0.8147767524719238,-4.425383078113198,-8.997858751678466,42.57786590839082,-9.67447118570282,-30.925908108902153
1698924302.027,0.01666666753590107,-1.2424778488963841,-0.9565510755106806,-0.2686164498835802,0.8029555279053747,-4.591181543079018,-9.144203743633627,41.51994473803671,-11.370813552872603,-33.06390075308872
1698924302.044,0.01666666753590107,-1.2947048797398806,-1.0074132477417588,-0.20821195780336857,0.7522285263612866,-4.716428509686887,-9.052625530132651,37.96988903012547,-16.388675205872293,-36.455755619444126
1698924302.06,0.01666666753590107,-1.360263831973821,-1.1363102612897753,-0.31498189521729947,0.6759132023133337,-4.923975573840737,-9.128491795238851,30.498017247968367,-21.92839233976493,-39.69239785200558
1698924302.077,0.01666666753590107,-1.5684126614131033,-1.0633148754447699,-0.13447393689751624,0.4565444752015173,-4.895245153918862,-8.931419071087241,26.50079588528556,-23.1499972860311,-43.545075336377984
1698924302.093,0.01666666753590107,-1.5967419531881808,-0.8659113119035958,-0.12211129893064498,0.42197818873301146,-4.730644082044065,-8.90613090057373,23.184284835664563,-22.68590642249624,-49.572177693969806
1698924302.11,0.01666666753590107,-1.6057058886274695,-0.6452332557588816,-0.23777064524292946,0.4170402939394116,-4.541352221027016,-9.006986060985922,22.180158235213476,-21.84219705998666,-55.38765688541254
1698924302.127,0.01666666753590107,-1.4914194381035863,-0.7095613510236144,-0.5128974999338388,0.5360020427979528,-4.629638407245278,-9.27034824360311,24.627585769558298,-24.42880335904883,-59.06436820619791
1698924302.143,0.01666666753590107,-1.332406541624665,-0.6853285347819328,-0.5791285062104463,0.6997057274416089,-4.632481521716714,-9.323319955334068,26.014708397528675,-25.408769872858286,-60.22823927095726
1698924302.16,0.01666666753590107,-1.2667150490522383,-0.6474141069293021,-0.4769534953713417,0.770484314019978,-4.62829166881144,-9.204657335552573,22.60327650146472,-24.808404782550628,-60.39542181127166
1698924302.177,0.01666666753590107,-1.2153770760029554,-0.4245540305703878,-0.2970435029447078,0.8319852230347693,-4.417153009906411,-9.017011780437826,14.62221411668316,-21.27958071767437,-61.16896805553228
1698924302.194,0.01666666753590107,-1.0911850252754987,-0.37398558058887715,-0.38965573566854,0.9766847858704626,-4.35400594111979,-9.11053528278768,2.918110811089207,-17.188410102958038,-63.19797820132212
1698924302.21,0.01666666753590107,-0.7826723260723054,-0.4064604477360844,-0.7681132009744643,1.3296800392702222,-4.322283061383664,-9.507374207958579,-13.3301924813951,-14.078934893684822,-70.34424803555555
1698924302.227,0.01666666753590107,-0.24713702400326729,-0.06818389391005039,-1.7387322570651769,1.9065330017641187,-3.905691680255532,-10.50261391056478,-18.23320364972738,-15.444316175753405,-78.78747517052602
1698924302.244,0.01666666753590107,0.22193331690281629,0.005365034164488316,-2.8481314228147268,2.425326573999226,-3.722535545514524,-11.646892666515708,-10.609793021776136,-26.658282972073128,-87.33719178484617
1698924302.26,0.01666666753590107,0.40782691378369923,0.03869359553158283,-3.198125594702363,2.6152165470398963,-3.6279639954164624,-12.02158522633016,1.7797036520510239,-43.3178042068404,-87.6978804145362
1698924302.277,0.01666666753590107,0.25963731687515973,0.12988193293213843,-2.830819638007879,2.434304976355284,-3.5109476815372704,-11.673079831695556,17.754571313449564,-54.56659984528531,-83.81862666410326
1698924302.294,0.01666666753590107,-0.7617536028146743,0.7396531224265694,-1.3059183476716278,1.3326729374758899,-2.928258852496743,-10.156352495464683,36.6303011036838,-61.410367431368044,-75.40759704088023
1698924302.31,0.01666666753590107,-1.1247536790087818,1.2074497901350258,-0.5954354978889227,0.8973771481387317,-2.51825211045593,-9.438541494750975,45.97385303919409,-61.64445167460272,-70.61934756475615
1698924302.327,0.01666666753590107,-1.8340408892661333,1.7556734549939632,0.5042834008455276,0.11432342153340577,-2.0464444535404445,-8.322842936596274,50.446083322800014,-62.048518835711505,-70.74161478108856
1698924302.344,0.01666666753590107,-1.9522002357006072,2.241231112581491,1.2192688227444886,-0.0938224852964282,-1.6759414543703197,-7.576899481853842,54.806920051232204,-59.68891387371471,-77.25663170204024
1698924302.36,0.01666666753590107,-2.005799431680143,2.2690116844326256,1.2953507764279841,-0.19677301055267452,-1.7348989625126123,-7.472004106140136,53.10266832500355,-56.34609293541082,-84.48070422110928
1698924302.377,0.01666666753590107,-1.6142751256607473,2.1392940021514892,0.9125427146971226,0.15966361547261476,-1.9379568985536693,-7.828141018566488,45.90013822257672,-56.95160969589997,-93.01956766483828
1698924302.394,0.01666666753590107,-1.119313241520524,1.761803920572996,0.20595102713406085,0.6142626556947827,-2.3731033425480126,-8.515725807842612,30.318099819946475,-63.618041665467075,-105.47358433327778
1698924302.41,0.01666666753590107,-0.890105841961503,1.6764871055543422,-0.10930267076194286,0.8117842926576733,-2.4639330757692455,-8.834603541454673,18.28621445542314,-68.24240758264587,-114.67838439089385
1698924302.427,0.01666666753590107,-0.7310090665914117,1.513826938614249,-0.750847593396902,0.9247608296267688,-2.5966619225651026,-9.499144139751792,8.136472240287798,-75.86547243227038,-125.84060738160885
1698924302.443,0.01666666753590107,-0.5072068870767951,1.512995163965225,-1.2322311801701784,1.110760224969685,-2.554912738855183,-10.007463079723715,2.585990941706633,-77.26539483474536,-131.65566651641763
1698924302.46,0.01666666753590107,-0.42104309983998534,1.5459768115907906,-1.504337810257077,1.1608888222292064,-2.4696195969730614,-10.31017995212972,1.172722563036856,-76.09067742958403,-134.5639747253874
1698924302.477,0.01666666753590107,-0.0763052410453558,1.7940259820029139,-1.9808102441132067,1.476175399481505,-2.1776766320377585,-10.811765199932456,10.599419671974179,-73.11890993303568,-139.1333986008826
1698924302.494,0.01666666753590107,0.2673966988302767,1.965921594800055,-2.057664351212978,1.798345306506753,-2.0003560715824364,-10.894814654541015,36.195730317741734,-69.48959329490103,-146.0196772843595
1698924302.51,0.01666666753590107,0.43051352349668737,1.8610528148323295,-2.003943282419443,1.9551653691165147,-2.15134041377604,-10.821342006573081,53.54913730047977,-68.94513842559181,-147.39395232650108
1698924302.527,0.01666666753590107,0.6009092531248926,1.7505583039373158,-1.2598837417274713,2.1259015827454624,-2.369959783825278,-10.027215827941895,65.91132549062304,-70.14385711549654,-153.06447099809404
1698924302.544,0.01666666753590107,0.6165414142817258,1.597193204087019,-0.5818915411829948,2.1455044010989366,-2.611775028283894,-9.306411490631103,63.39063734724067,-74.24891008970093,-155.73275269925122
1698924302.56,0.01666666753590107,0.6310305428832769,1.5025602791905401,-0.33189211348593234,2.160917220416665,-2.780117624774575,-9.020303807720541,55.18412407833533,-77.45654450885733,-155.92185331661221
1698924302.577,0.01666666753590107,0.6206424198597669,1.3227625149667261,-0.04515139336884021,2.1443073002688586,-3.0186399651676417,-8.705466873931885,38.097627227983054,-83.00236441677339,-158.7249902727421
1698924302.593,0.01666666753590107,0.720168377494812,1.296956750319898,-0.08130465676784515,2.233790879578143,-3.052906684167683,-8.739134750255943,25.2157777552177,-87.19516483124492,-161.84328581755474
1698924302.61,0.01666666753590107,0.6125662270404398,1.303361356665194,0.08805822268128395,2.109741159930825,-3.028964959827065,-8.581416715893148,15.916765483285065,-89.66621798992881,-161.4814360557058
1698924302.627,0.01666666753590107,0.39624899645373224,1.40224229439497,0.6106231301486492,1.8631382428042589,-2.888604887500405,-8.084619871410727,13.072886448756025,-89.83458215296963,-161.92407329505767
1698924302.643,0.01666666753590107,0.3955608680590987,1.5581152854129672,0.8153484148800373,1.8411418073125183,-2.7015575905397533,-7.898770552062988,12.904763049883455,-88.65578712487381,-161.14761739021063
1698924302.66,0.01666666753590107,0.40831922734528775,1.5389987892717123,0.7683662989526987,1.8329113007143139,-2.688389189147949,-7.964909788402915,11.395489318796566,-87.21184415319809,-161.2662031345804
1698924302.677,0.01666666753590107,0.2537488433584571,1.506417539140582,0.6959913830935954,1.6511019044071436,-2.6752213722780347,-8.06367119140625,11.245646921237533,-85.81153926012959,-159.7843252922544
1698924302.693,0.01666666753590107,0.34048005521968006,1.6615940723270177,0.6145300744593143,1.7196357807986438,-2.4919153076723215,-8.161384546661376,14.707270462417329,-84.39070281841603,-164.97026936299164
1698924302.71,0.01666666753590107,0.23512451464831827,1.773704786247015,0.3739741824120283,1.601721495166421,-2.3555951583862305,-8.415319560241699,15.594986733749302,-82.58538819813327,-164.90266415058687
1698924302.727,0.01666666753590107,0.2830884812198579,1.5839496916323899,0.06435235292315483,1.638083432880044,-2.510171095331013,-8.743175550079345,11.326832257259598,-80.90504554909425,-165.81535500861898
1698924302.743,0.01666666753590107,0.4320690823756158,1.6484028745815158,-0.2098053644746542,1.7750015480592847,-2.4076690444946287,-9.036763944134115,5.675077395977127,-83.94700006955365,-165.1030755612134
1698924302.76,0.01666666753590107,0.48380116930902,1.4627847336411475,-0.26273323706388474,1.8014878423161804,-2.5397990486145017,-9.117868109893799,-3.0953725761844324,-86.565271125608,-161.4489106948782
