msFromStart,interval,accx,accy,accz,accGx,accGy,accGz,rotRate_alpha,rotRate_beta,rotRate_gamma
1698415346015.0,16,0.0,0.0,0.1,-0.5,9.4,1.0,9.5,-2.8,-0.1
1698415346032.0,16,0.0,0.0,0.1,-0.5,9.4,0.9,10.1,-2.3000000000000003,-0.1
1698415346048.0,16,0.0,0.0,0.1,-0.5,9.5,0.9,11.000000000000002,-1.5000000000000002,-0.5
1698415346065.0,16,0.0,0.0,0.0,-0.5,9.5,0.7000000000000001,10.9,-1.5000000000000002,-0.6000000000000001
1698415346082.0,16,0.0,0.0,0.0,-0.5,9.5,0.7000000000000001,10.4,-1.6,-0.9
1698415346098.0,16,0.1,0.0,0.0,-0.4,9.5,0.7000000000000001,10.2,-2.0,-1.0
1698415346115.0,16,0.2,0.1,-0.1,-0.4,9.600000000000001,0.6000000000000001,10.2,-1.7,-1.0999999999999999
1698415346132.0,16,0.1,0.1,-0.1,-0.4,9.600000000000001,0.5,9.8,-0.6000000000000001,-1.4
1698415346148.0,16,0.1,0.1,-0.1,-0.4,9.600000000000001,0.5,9.5,0.5,-1.4
1698415346165.0,16,0.1,0.1,-0.2,-0.4,9.600000000000001,0.4,8.600000000000001,1.2000000000000002,-1.2000000000000002
1698415346182.0,16,0.0,0.1,-0.30000000000000004,-0.5,9.600000000000001,0.30000000000000004,8.1,1.3,-0.8
1698415346198.0,16,0.0,0.2,-0.30000000000000004,-0.5,9.700000000000001,0.30000000000000004,6.2,1.8,-0.7
1698415346215.0,16,0.0,0.1,-0.30000000000000004,-0.6000000000000001,9.600000000000001,0.2,4.300000000000001,1.8,-0.7
1698415346232.0,16,-0.1,0.1,-0.30000000000000004,-0.6000000000000001,9.600000000000001,0.2,3.2,1.8,-1.0
1698415346248.0,16,-0.1,0.2,-0.30000000000000004,-0.6000000000000001,9.700000000000001,0.2,1.6,1.4,-0.9
1698415346265.0,16,0.0,0.1,-0.2,-0.6000000000000001,9.600000000000001,0.2,1.0,1.0,-0.9
1698415346282.0,16,-0.1,0.1,-0.2,-0.6000000000000001,9.600000000000001,0.30000000000000004,1.0,0.9,-1.0
1698415346299.0,16,-0.1,0.1,-0.2,-0.6000000000000001,9.600000000000001,0.30000000000000004,0.2,0.5,-1.7
1698415346315.0,16,-0.1,0.0,-0.1,-0.6000000000000001,9.5,0.30000000000000004,0.2,-0.1,-1.6
1698415346332.0,16,0.0,0.0,-0.1,-0.6000000000000001,9.5,0.4,0.1,0.0,-1.4
1698415346348.0,16,0.0,0.0,0.0,-0.6000000000000001,9.5,0.4,0.0,-0.6000000000000001,-1.0999999999999999
1698415346365.0,16,0.0,0.0,0.1,-0.6000000000000001,9.5,0.5,-0.5,-0.7,-1.5000000000000002
1698415346383.0,16,0.0,0.0,0.1,-0.6000000000000001,9.5,0.5,-0.4,-0.6000000000000001,-1.3
1698415346399.0,16,0.0,0.0,0.0,-0.6000000000000001,9.5,0.5,-0.5,-0.7,-1.0
1698415346416.0,16,0.0,0.0,0.1,-0.6000000000000001,9.5,0.5,-0.9,-0.7,-1.0999999999999999
1698415346434.0,16,0.0,0.0,0.0,-0.6000000000000001,9.5,0.5,-0.6000000000000001,-0.6000000000000001,-0.9
1698415346448.0,16,0.0,0.0,0.0,-0.5,9.5,0.5,-0.7,-0.4,-0.7
1698415346465.0,16,0.1,0.0,0.0,-0.5,9.5,0.5,-0.4,0.0,-1.0
1698415346482.0,16,0.1,0.0,0.1,-0.5,9.5,0.5,-0.30000000000000004,0.30000000000000004,-1.0999999999999999
1698415346498.0,16,0.0,0.0,0.0,-0.5,9.5,0.5,-0.1,1.0,-1.3
1698415346515.0,16,0.0,0.0,0.0,-0.6000000000000001,9.5,0.4,0.0,0.9,-1.3
1698415346532.0,16,0.0,0.0,-0.1,-0.6000000000000001,9.5,0.5,0.2,1.2000000000000002,-1.3
1698415346549.0,16,-0.1,0.0,0.0,-0.7000000000000001,9.5,0.4,-0.1,1.0,-1.2000000000000002
1698415346565.0,16,-0.1,0.0,0.0,-0.7000000000000001,9.5,0.4,-0.1,0.8,-1.0999999999999999
1698415346582.0,16,0.0,0.0,0.0,-0.6000000000000001,9.5,0.4,-0.1,0.5,-1.0
1698415346600.0,16,0.0,0.0,0.0,-0.6000000000000001,9.5,0.5,-0.1,0.7,-1.0
1698415346616.0,16,-0.1,0.0,0.0,-0.7000000000000001,9.5,0.4,-0.1,0.8,-0.7
1698415346631.0,16,-0.1,0.0,0.0,-0.7000000000000001,9.5,0.5,0.2,0.6000000000000001,-0.8
1698415346648.0,16,0.0,0.0,0.0,-0.7000000000000001,9.5,0.5,0.1,0.2,-0.5
1698415346665.0,16,0.0,0.0,0.0,-0.6000000000000001,9.5,0.5,0.2,0.30000000000000004,-0.5
1698415346681.0,16,0.0,0.0,0.0,-0.6000000000000001,9.5,0.5,0.30000000000000004,0.2,-0.4
1698415346698.0,16,0.0,0.0,0.0,-0.6000000000000001,9.5,0.5,0.4,0.5,-0.4
1698415346715.0,16,0.0,0.0,0.0,-0.6000000000000001,9.5,0.4,0.9,0.4,-0.2
1698415346732.0,16,0.0,0.0,0.0,-0.7000000000000001,9.5,0.4,0.9,0.4,-0.1
1698415346748.0,16,0.0,0.0,0.0,-0.7000000000000001,9.5,0.4,0.9,0.2,-0.1
1698415346765.0,16,0.0,0.0,0.0,-0.6000000000000001,9.5,0.5,1.0999999999999999,0.2,0.1
1698415346783.0,16,0.0,0.0,0.0,-0.6000000000000001,9.5,0.5,1.4,0.30000000000000004,0.2
1698415346798.0,16,0.0,0.0,0.0,-0.6000000000000001,9.5,0.5,1.3,0.5,0.1
1698415346815.0,16,0.0,0.0,0.0,-0.7000000000000001,9.5,0.5,1.5000000000000002,0.30000000000000004,0.30000000000000004
1698415346831.0,16,0.0,0.0,0.0,-0.6000000000000001,9.5,0.4,1.3,0.2,0.2
1698415346848.0,16,0.0,0.0,0.0,-0.6000000000000001,9.5,0.4,1.3,0.2,0.1
1698415346865.0,16,0.0,0.0,0.0,-0.6000000000000001,9.5,0.4,1.4,0.2,0.1
1698415346882.0,16,0.0,0.0,0.0,-0.6000000000000001,9.5,0.4,1.3,0.2,0.1
1698415346898.0,16,0.0,0.0,0.0,-0.7000000000000001,9.5,0.4,1.5000000000000002,0.2,0.2
1698415346917.0,16,0.0,0.0,0.0,-0.7000000000000001,9.5,0.4,1.3,0.1,0.4
1698415346932.0,16,0.0,0.0,0.0,-0.7000000000000001,9.5,0.4,1.4,-0.5,0.2
1698415346948.0,16,0.0,0.0,0.0,-0.7000000000000001,9.5,0.4,1.3,-0.7,0.5
1698415346965.0,16,0.0,0.0,0.0,-0.6000000000000001,9.5,0.4,1.5000000000000002,-1.0,0.30000000000000004
1698415346982.0,16,0.1,0.0,0.0,-0.5,9.5,0.4,1.7,-0.7,0.1
1698415346998.0,16,0.1,0.0,0.0,-0.5,9.5,0.4,1.8,-0.4,0.0
1698415347015.0,16,0.0,0.0,0.0,-0.6000000000000001,9.5,0.4,1.8,0.1,0.0
1698415347034.0,16,0.0,0.0,0.0,-0.6000000000000001,9.5,0.4,1.6,0.5,0.4
1698415347049.0,16,0.0,0.0,0.0,-0.6000000000000001,9.5,0.4,1.5000000000000002,0.6000000000000001,0.30000000000000004
1698415347065.0,16,0.0,0.0,-0.1,-0.6000000000000001,9.5,0.30000000000000004,1.2000000000000002,0.7,0.4
1698415347082.0,16,0.0,0.0,-0.1,-0.6000000000000001,9.5,0.30000000000000004,0.7,0.5,0.5
1698415347102.0,16,0.0,0.0,-0.1,-0.6000000000000001,9.600000000000001,0.2,0.6000000000000001,0.4,0.6000000000000001
1698415347115.0,16,0.0,0.1,-0.2,-0.6000000000000001,9.600000000000001,0.2,0.5,0.1,0.5
1698415347133.0,16,-0.1,0.0,-0.2,-0.7000000000000001,9.5,0.2,0.4,0.2,0.6000000000000001
1698415347150.0,16,-0.1,0.0,-0.1,-0.7000000000000001,9.600000000000001,0.2,0.2,0.2,0.8
1698415347165.0,16,-0.1,0.0,-0.1,-0.7000000000000001,9.600000000000001,0.2,-0.2,0.2,1.2000000000000002
1698415347182.0,16,0.0,0.0,0.0,-0.6000000000000001,9.5,0.30000000000000004,-0.4,0.0,1.4
1698415347199.0,16,0.0,0.0,0.0,-0.6000000000000001,9.5,0.30000000000000004,-0.5,-0.1,1.5000000000000002
1698415347215.0,16,0.0,0.0,0.0,-0.6000000000000001,9.5,0.4,-0.7,0.0,1.6
1698415347232.0,16,-0.1,0.0,0.1,-0.7000000000000001,9.5,0.4,-0.9,-0.5,1.5000000000000002
1698415347248.0,16,-0.1,0.0,0.1,-0.7000000000000001,9.5,0.4,-0.9,-0.6000000000000001,1.7
1698415347265.0,16,0.0,0.0,0.1,-0.6000000000000001,9.5,0.4,-0.8,-0.9,2.0
1698415347282.0,16,0.0,0.0,0.0,-0.6000000000000001,9.5,0.4,-0.4,-1.0999999999999999,2.1
1698415347299.0,16,0.0,0.0,0.0,-0.6000000000000001,9.5,0.4,-0.5,-1.5000000000000002,2.1
1698415347315.0,16,0.0,0.0,0.0,-0.6000000000000001,9.5,0.4,-0.6000000000000001,-2.4000000000000004,2.1
1698415347332.0,16,0.1,0.0,0.0,-0.5,9.5,0.4,-0.5,-2.1,2.1
1698415347348.0,16,0.1,0.0,0.0,-0.5,9.5,0.4,-0.4,-1.6,2.0
1698415347366.0,16,0.1,0.0,0.0,-0.4,9.5,0.4,-0.5,-0.6000000000000001,1.7
1698415347384.0,16,0.1,0.0,0.1,-0.4,9.5,0.5,-0.5,0.30000000000000004,1.3
1698415347399.0,16,0.1,0.0,0.1,-0.4,9.5,0.5,-0.6000000000000001,0.9,1.2000000000000002
1698415347415.0,16,0.1,0.0,0.1,-0.4,9.5,0.4,-0.9,2.4000000000000004,0.8
1698415347433.0,16,0.1,-0.1,0.0,-0.4,9.5,0.4,-0.30000000000000004,3.2,1.0
1698415347449.0,16,0.0,-0.1,0.0,-0.5,9.5,0.4,-0.2,3.0000000000000004,1.0999999999999999
1698415347465.0,16,-0.1,0.0,-0.1,-0.7000000000000001,9.5,0.30000000000000004,0.1,2.5,0.8
1698415347483.0,16,-0.2,0.0,0.0,-0.7000000000000001,9.600000000000001,0.4,-0.1,1.3,0.5
1698415347498.0,16,-0.2,0.0,0.0,-0.7000000000000001,9.600000000000001,0.4,-0.4,0.1,0.4
1698415347515.0,16,-0.1,0.0,0.0,-0.6000000000000001,9.5,0.4,-0.4,-0.6000000000000001,0.6000000000000001
1698415347532.0,16,0.0,0.0,0.0,-0.5,9.5,0.4,-0.7,-1.9,0.7
1698415347548.0,16,0.0,0.0,0.0,-0.5,9.5,0.4,-0.7,-2.0,0.6000000000000001
1698415347565.0,16,0.0,-0.1,0.0,-0.5,9.4,0.4,0.0,-1.7,0.4
1698415347583.0,16,0.1,0.0,0.0,-0.4,9.5,0.4,0.1,-1.3,0.1
1698415347598.0,16,0.1,0.0,0.0,-0.4,9.5,0.4,0.4,-0.1,0.1
1698415347615.0,16,0.1,0.0,0.0,-0.5,9.5,0.4,0.5,0.30000000000000004,0.0
1698415347632.0,16,0.0,0.0,0.0,-0.5,9.600000000000001,0.4,0.7,0.30000000000000004,0.1
1698415347648.0,16,0.0,0.1,0.0,-0.5,9.600000000000001,0.4,0.5,0.2,-0.1
1698415347665.0,16,0.0,0.1,0.0,-0.5,9.600000000000001,0.4,0.4,0.2,-0.2
1698415347682.0,16,0.0,0.0,0.0,-0.5,9.5,0.4,0.0,0.30000000000000004,-0.6000000000000001
1698415347701.0,16,0.0,0.0,0.0,-0.6000000000000001,9.5,0.4,-0.2,0.5,-0.6000000000000001
1698415347716.0,16,0.0,0.0,0.0,-0.6000000000000001,9.5,0.30000000000000004,-0.4,0.5,-0.7
1698415347732.0,16,0.0,0.0,-0.1,-0.6000000000000001,9.5,0.30000000000000004,-0.6000000000000001,0.5,-0.8
1698415347748.0,16,0.0,0.0,0.0,-0.5,9.5,0.30000000000000004,-0.7,0.2,-0.9
1698415347765.0,16,0.0,0.0,-0.1,-0.5,9.5,0.30000000000000004,-0.8,-0.1,-1.0999999999999999
1698415347783.0,16,0.0,0.0,-0.1,-0.5,9.5,0.30000000000000004,-1.0,0.0,-1.0
1698415347799.0,16,0.0,0.0,0.0,-0.5,9.5,0.4,-1.0,0.2,-0.9
1698415347815.0,16,0.0,0.0,0.0,-0.5,9.5,0.4,-1.0999999999999999,0.2,-0.9
1698415347833.0,16,0.0,0.0,0.0,-0.5,9.5,0.4,-0.9,0.2,-0.9
1698415347849.0,16,0.0,0.0,0.0,-0.5,9.5,0.4,-0.6000000000000001,0.4,-0.8
1698415347865.0,16,0.0,0.0,0.0,-0.5,9.5,0.4,-0.6000000000000001,0.4,-0.9
1698415347883.0,16,0.0,0.0,0.0,-0.5,9.5,0.4,-0.8,0.5,-0.9
1698415347899.0,16,0.0,0.0,0.0,-0.6000000000000001,9.5,0.4,-0.7,0.5,-0.9
1698415347915.0,16,0.0,0.0,0.0,-0.6000000000000001,9.5,0.5,-0.7,0.5,-0.8
1698415347932.0,16,0.0,0.0,0.0,-0.6000000000000001,9.5,0.5,-0.4,0.4,-0.7
1698415347948.0,16,0.0,0.0,0.0,-0.6000000000000001,9.5,0.4,0.0,0.1,-0.4
1698415347965.0,16,0.0,0.0,0.0,-0.6000000000000001,9.5,0.4,0.1,0.2,-0.5
1698415347983.0,16,0.0,0.0,0.0,-0.6000000000000001,9.5,0.4,0.2,0.30000000000000004,-0.30000000000000004
1698415347999.0,16,-0.1,0.0,0.0,-0.6000000000000001,9.5,0.4,0.2,0.30000000000000004,-0.1
1698415348016.0,16,-0.1,0.0,0.0,-0.6000000000000001,9.5,0.4,0.2,-0.1,-0.1
1698415348032.0,16,0.0,0.0,0.0,-0.6000000000000001,9.5,0.5,0.4,-0.4,0.2
1698415348048.0,16,0.0,0.0,0.0,-0.6000000000000001,9.5,0.4,0.7,-0.4,0.2
1698415348065.0,16,0.0,0.0,0.0,-0.6000000000000001,9.5,0.4,0.8,0.0,0.2
1698415348082.0,16,0.0,0.0,0.0,-0.6000000000000001,9.5,0.4,1.0,-0.1,0.2
1698415348098.0,16,0.0,0.0,0.0,-0.6000000000000001,9.5,0.4,0.9,-0.7,0.30000000000000004
1698415348115.0,16,0.0,0.0,0.0,-0.6000000000000001,9.5,0.4,1.4,-0.30000000000000004,0.6000000000000001
1698415348133.0,16,0.0,0.0,0.0,-0.6000000000000001,9.5,0.4,1.5000000000000002,-0.2,0.6000000000000001
1698415348148.0,16,0.0,0.0,0.0,-0.6000000000000001,9.5,0.4,1.6,-0.30000000000000004,0.6000000000000001
1698415348166.0,16,0.0,0.0,0.0,-0.6000000000000001,9.5,0.4,1.6,-0.5,0.5
1698415348183.0,16,0.0,0.0,0.0,-0.5,9.5,0.4,1.8,-0.4,0.6000000000000001
1698415348199.0,16,0.0,0.0,0.0,-0.6000000000000001,9.5,0.4,2.1,-0.30000000000000004,0.6000000000000001
1698415348216.0,16,0.0,0.0,0.0,-0.6000000000000001,9.5,0.4,2.1,-0.30000000000000004,0.6000000000000001
1698415348233.0,16,0.0,0.0,0.0,-0.6000000000000001,9.5,0.4,2.7,-0.4,1.0
1698415348248.0,16,0.0,0.0,0.0,-0.6000000000000001,9.5,0.4,2.9,-0.5,0.9
1698415348265.0,16,0.0,0.0,0.1,-0.5,9.5,0.4,3.5,-0.4,0.8
1698415348282.0,16,0.1,0.0,0.0,-0.5,9.5,0.4,3.6,-0.30000000000000004,0.7
1698415348299.0,16,0.0,0.1,0.0,-0.5,9.600000000000001,0.30000000000000004,3.2,-0.1,0.9
1698415348317.0,16,0.0,0.1,0.0,-0.5,9.600000000000001,0.30000000000000004,2.4000000000000004,-0.30000000000000004,0.8
1698415348332.0,16,0.0,0.0,0.0,-0.6000000000000001,9.600000000000001,0.30000000000000004,1.9,-0.4,0.7
1698415348348.0,16,0.0,0.0,-0.1,-0.6000000000000001,9.5,0.30000000000000004,1.6,-0.4,0.8
1698415348365.0,16,0.0,0.0,-0.1,-0.5,9.5,0.2,1.5000000000000002,-0.4,0.7
1698415348383.0,16,0.1,0.1,-0.1,-0.5,9.600000000000001,0.2,1.2000000000000002,-0.30000000000000004,0.9
1698415348399.0,16,0.0,0.0,-0.1,-0.5,9.5,0.1,1.0,-0.1,0.8
1698415348415.0,16,0.0,0.0,-0.1,-0.5,9.600000000000001,0.2,0.9,-0.2,0.8
1698415348432.0,16,0.0,0.1,-0.1,-0.5,9.600000000000001,0.2,0.5,-0.6000000000000001,0.6000000000000001
1698415348448.0,16,0.0,0.0,0.0,-0.5,9.600000000000001,0.2,0.2,-0.6000000000000001,0.5
1698415348465.0,16,0.0,0.0,0.0,-0.5,9.5,0.30000000000000004,-0.1,-0.4,0.5
1698415348482.0,16,0.0,0.0,0.0,-0.5,9.5,0.30000000000000004,-0.2,0.0,0.30000000000000004
1698415348498.0,16,0.0,0.0,0.1,-0.5,9.5,0.30000000000000004,-0.7,0.1,0.1
1698415348516.0,16,0.0,0.0,0.0,-0.5,9.5,0.30000000000000004,-0.8,0.2,-0.1
1698415348532.0,16,0.0,0.0,0.0,-0.5,9.5,0.30000000000000004,-0.9,0.4,-0.1
1698415348548.0,16,0.0,0.0,0.1,-0.5,9.5,0.4,-0.9,0.30000000000000004,-0.1
1698415348565.0,16,0.0,0.0,0.0,-0.5,9.5,0.30000000000000004,-0.5,0.7,0.0
1698415348582.0,16,0.0,0.0,0.0,-0.5,9.5,0.30000000000000004,-0.6000000000000001,0.5,-0.2
1698415348598.0,16,0.0,0.0,0.0,-0.5,9.5,0.4,-0.4,0.5,-0.30000000000000004
1698415348615.0,16,0.0,0.0,0.0,-0.5,9.5,0.30000000000000004,-0.4,0.2,-0.30000000000000004
1698415348633.0,16,0.0,0.0,0.0,-0.5,9.5,0.30000000000000004,-0.30000000000000004,0.2,-0.30000000000000004
1698415348648.0,16,0.0,0.0,0.0,-0.5,9.5,0.30000000000000004,-0.2,0.4,-0.30000000000000004
1698415348665.0,16,0.0,0.0,0.0,-0.5,9.5,0.30000000000000004,-0.1,0.30000000000000004,-0.2
1698415348682.0,16,0.0,0.0,0.0,-0.5,9.5,0.30000000000000004,-0.2,0.1,-0.2
1698415348699.0,16,0.0,0.0,0.0,-0.5,9.600000000000001,0.30000000000000004,-0.30000000000000004,0.1,-0.2
1698415348715.0,16,0.0,0.0,0.0,-0.5,9.5,0.30000000000000004,-0.2,0.1,-0.2
1698415348732.0,16,0.0,0.0,0.0,-0.5,9.5,0.30000000000000004,-0.2,0.0,-0.2
1698415348748.0,16,0.0,0.0,0.0,-0.5,9.5,0.30000000000000004,-0.2,0.2,-0.2
1698415348765.0,16,0.0,0.0,0.0,-0.6000000000000001,9.5,0.30000000000000004,-0.2,0.2,-0.1
1698415348782.0,16,0.0,0.0,0.0,-0.5,9.5,0.30000000000000004,-0.2,0.1,0.1
1698415348799.0,16,0.0,0.0,0.0,-0.5,9.5,0.30000000000000004,-0.2,0.0,-0.1
1698415348814.0,16,0.0,0.0,0.0,-0.5,9.5,0.30000000000000004,-0.30000000000000004,0.1,-0.1
1698415348831.0,16,0.0,0.0,0.0,-0.6000000000000001,9.5,0.30000000000000004,-0.30000000000000004,-0.1,-0.1
1698415348849.0,16,0.0,0.0,0.0,-0.5,9.5,0.30000000000000004,-0.2,-0.2,0.2
1698415348866.0,16,0.0,0.0,0.0,-0.5,9.5,0.4,-0.2,-0.30000000000000004,0.0
1698415348882.0,16,0.0,0.0,0.0,-0.5,9.5,0.4,-0.1,0.0,0.0
1698415348898.0,16,0.0,0.0,0.0,-0.5,9.5,0.30000000000000004,-0.2,-0.1,-0.2
1698415348915.0,16,0.0,0.0,0.0,-0.5,9.600000000000001,0.4,-0.30000000000000004,-0.1,-0.2
1698415348932.0,16,0.0,0.0,0.0,-0.5,9.600000000000001,0.30000000000000004,-0.2,-0.1,-0.1
1698415348948.0,16,0.0,0.0,0.0,-0.5,9.5,0.30000000000000004,-0.1,0.1,-0.1
1698415348965.0,16,0.0,0.0,0.0,-0.5,9.5,0.30000000000000004,-0.2,-0.4,-0.1
1698415348984.0,16,0.0,0.0,0.0,-0.5,9.5,0.30000000000000004,0.0,-0.4,0.0
1698415348998.0,16,0.0,0.0,0.0,-0.5,9.5,0.30000000000000004,-0.1,-0.4,-0.1
1698415349015.0,16,0.0,0.0,0.0,-0.5,9.5,0.30000000000000004,0.1,-0.2,-0.1
1698415349032.0,16,0.0,0.0,0.0,-0.5,9.5,0.4,0.1,-0.30000000000000004,-0.1
1698415349049.0,16,0.0,0.0,0.0,-0.5,9.5,0.30000000000000004,0.2,-0.30000000000000004,-0.2
1698415349065.0,16,0.0,0.0,0.0,-0.5,9.5,0.4,0.2,0.0,-0.30000000000000004
1698415349082.0,16,0.0,0.0,0.0,-0.5,9.5,0.4,0.2,0.0,-0.2
1698415349099.0,16,0.0,0.0,0.0,-0.5,9.5,0.4,0.1,0.1,-0.2
1698415349115.0,16,0.0,0.0,0.0,-0.5,9.5,0.30000000000000004,0.2,0.30000000000000004,-0.30000000000000004
1698415349131.0,16,0.0,0.0,0.0,-0.5,9.5,0.30000000000000004,0.2,0.2,-0.2
1698415349148.0,16,0.0,0.0,0.0,-0.6000000000000001,9.5,0.30000000000000004,0.30000000000000004,0.1,-0.2
1698415349164.0,16,0.0,0.0,0.0,-0.5,9.5,0.30000000000000004,0.2,0.2,-0.1
1698415349181.0,16,0.0,0.0,0.0,-0.5,9.5,0.30000000000000004,0.1,0.5,-0.1
1698415349198.0,16,0.0,0.0,0.0,-0.5,9.5,0.30000000000000004,-0.1,0.7,-0.2
1698415349215.0,16,0.0,0.0,0.0,-0.6000000000000001,9.5,0.30000000000000004,0.1,0.8,-0.1
1698415349232.0,16,0.0,0.0,0.0,-0.6000000000000001,9.5,0.30000000000000004,0.1,0.7,-0.1
1698415349248.0,16,0.0,0.0,0.0,-0.6000000000000001,9.5,0.30000000000000004,0.30000000000000004,0.4,0.1
1698415349265.0,16,0.0,0.0,0.0,-0.5,9.5,0.30000000000000004,0.2,0.30000000000000004,0.1
1698415349283.0,16,0.0,0.0,0.0,-0.5,9.5,0.30000000000000004,0.1,0.2,0.1
1698415349299.0,16,0.0,0.0,0.0,-0.6000000000000001,9.5,0.30000000000000004,-0.2,0.1,0.1
1698415349316.0,16,0.0,0.0,0.0,-0.6000000000000001,9.5,0.30000000000000004,-0.6000000000000001,0.2,0.4
1698415349332.0,16,0.0,0.0,0.0,-0.6000000000000001,9.5,0.30000000000000004,-0.6000000000000001,0.5,0.1
1698415349349.0,16,0.0,0.0,0.0,-0.5,9.5,0.30000000000000004,-0.7,0.2,0.30000000000000004
1698415349366.0,16,0.0,0.0,0.0,-0.5,9.5,0.30000000000000004,-0.7,0.30000000000000004,0.1
1698415349382.0,16,0.0,0.0,0.0,-0.5,9.5,0.4,-0.4,0.2,0.0
1698415349398.0,16,0.0,0.0,0.0,-0.5,9.5,0.30000000000000004,-0.30000000000000004,0.30000000000000004,0.0
1698415349416.0,16,0.0,0.0,0.0,-0.5,9.5,0.30000000000000004,-0.1,0.2,0.0
1698415349432.0,16,0.0,0.0,0.0,-0.6000000000000001,9.5,0.4,-0.2,0.4,-0.1
1698415349449.0,16,0.0,0.0,0.0,-0.5,9.5,0.30000000000000004,-0.2,0.30000000000000004,0.0
1698415349465.0,16,0.0,0.0,0.0,-0.5,9.5,0.30000000000000004,-0.2,0.4,-0.1
1698415349482.0,16,0.0,0.0,0.0,-0.5,9.5,0.30000000000000004,-0.1,0.4,-0.1
1698415349498.0,16,0.0,0.0,0.0,-0.6000000000000001,9.5,0.4,0.0,0.30000000000000004,0.0
1698415349514.0,16,0.0,0.0,0.0,-0.6000000000000001,9.5,0.30000000000000004,0.1,0.1,0.0
1698415349531.0,16,0.0,0.0,0.0,-0.5,9.600000000000001,0.30000000000000004,0.1,0.1,-0.2
1698415349548.0,16,0.0,0.0,0.0,-0.5,9.5,0.30000000000000004,0.1,0.1,-0.1
1698415349565.0,16,0.0,0.0,0.0,-0.6000000000000001,9.5,0.30000000000000004,0.2,0.2,-0.1
1698415349581.0,16,0.0,0.0,0.0,-0.6000000000000001,9.5,0.4,0.1,0.0,-0.1
1698415349598.0,16,0.0,0.0,0.0,-0.6000000000000001,9.5,0.4,0.1,0.1,0.0
1698415349615.0,16,0.0,0.0,0.0,-0.5,9.5,0.30000000000000004,0.2,0.2,-0.1
1698415349632.0,16,0.0,0.0,0.0,-0.6000000000000001,9.5,0.30000000000000004,0.1,0.2,0.1
1698415349648.0,16,0.0,0.0,0.0,-0.6000000000000001,9.5,0.30000000000000004,-0.1,-0.1,-0.1
1698415349665.0,16,0.0,0.0,0.0,-0.6000000000000001,9.5,0.30000000000000004,0.0,-0.1,0.1
1698415349682.0,16,0.0,0.0,0.0,-0.5,9.5,0.4,0.0,0.1,0.2
1698415349698.0,16,0.0,0.0,0.0,-0.6000000000000001,9.5,0.30000000000000004,-0.1,0.4,0.2
1698415349715.0,16,0.0,0.0,0.0,-0.6000000000000001,9.5,0.30000000000000004,-0.2,0.0,0.1
1698415349732.0,16,0.0,0.0,0.0,-0.6000000000000001,9.5,0.4,-0.2,-0.2,0.2
1698415349748.0,16,0.0,0.0,0.0,-0.6000000000000001,9.600000000000001,0.30000000000000004,-0.1,-0.1,0.30000000000000004
1698415349765.0,16,0.0,0.0,0.0,-0.6000000000000001,9.5,0.30000000000000004,0.0,0.2,0.30000000000000004
1698415349781.0,16,0.0,0.0,0.0,-0.6000000000000001,9.5,0.4,-0.1,-0.30000000000000004,0.1
1698415349798.0,16,0.0,0.0,0.0,-0.6000000000000001,9.5,0.30000000000000004,-0.1,-0.30000000000000004,0.2
1698415349816.0,16,0.0,0.0,0.0,-0.6000000000000001,9.5,0.30000000000000004,0.1,-0.5,0.30000000000000004
1698415349832.0,16,0.0,0.0,0.0,-0.6000000000000001,9.5,0.30000000000000004,0.1,-0.4,0.4
1698415349848.0,16,0.0,0.0,0.0,-0.6000000000000001,9.5,0.30000000000000004,-0.1,-0.4,0.5
1698415349865.0,16,0.0,0.0,0.0,-0.5,9.5,0.30000000000000004,0.1,-0.5,0.6000000000000001
1698415349882.0,16,0.0,0.0,0.0,-0.5,9.5,0.30000000000000004,0.1,-0.4,0.6000000000000001
1698415349898.0,16,0.0,0.0,0.0,-0.5,9.5,0.30000000000000004,0.2,0.30000000000000004,0.2
1698415349915.0,16,0.0,0.0,0.0,-0.5,9.5,0.30000000000000004,0.1,0.2,0.2
1698415349932.0,16,0.0,0.0,0.0,-0.5,9.600000000000001,0.30000000000000004,-0.4,-0.1,0.2
1698415349948.0,16,0.0,0.0,0.0,-0.5,9.5,0.30000000000000004,-0.4,0.2,0.1
1698415349965.0,16,0.0,0.0,0.0,-0.5,9.5,0.30000000000000004,-0.4,0.2,0.1
1698415349982.0,16,0.0,0.0,0.0,-0.5,9.5,0.4,-0.30000000000000004,0.30000000000000004,-0.1
1698415349998.0,16,0.0,0.0,0.0,-0.5,9.5,0.30000000000000004,0.1,0.8,-0.2
1698415350015.0,16,0.0,0.0,0.0,-0.5,9.5,0.4,0.2,0.8,-0.2
1698415350032.0,16,0.0,0.0,0.0,-0.5,9.5,0.30000000000000004,0.2,1.0,-0.2
1698415350048.0,16,0.0,0.0,0.0,-0.6000000000000001,9.5,0.30000000000000004,0.30000000000000004,0.6000000000000001,0.0
1698415350065.0,16,0.0,0.0,0.0,-0.5,9.5,0.30000000000000004,0.2,0.4,0.0
1698415350082.0,16,0.0,0.0,0.0,-0.5,9.5,0.30000000000000004,0.30000000000000004,0.4,-0.2
1698415350099.0,16,0.0,0.0,0.0,-0.5,9.5,0.30000000000000004,0.1,0.4,-0.2
1698415350115.0,16,0.0,0.0,0.0,-0.6000000000000001,9.5,0.30000000000000004,0.2,0.2,-0.2
1698415350132.0,16,-0.1,0.0,0.0,-0.6000000000000001,9.5,0.30000000000000004,0.0,0.2,-0.1
1698415350148.0,16,0.0,0.0,0.0,-0.6000000000000001,9.5,0.30000000000000004,0.1,-0.2,-0.1
1698415350164.0,16,0.0,0.0,0.0,-0.6000000000000001,9.5,0.30000000000000004,0.1,-0.1,0.0
1698415350181.0,16,0.0,0.0,0.0,-0.6000000000000001,9.5,0.30000000000000004,0.1,-0.30000000000000004,0.1
1698415350200.0,16,0.0,0.0,0.0,-0.5,9.5,0.30000000000000004,0.1,0.0,0.1
1698415350214.0,16,0.0,0.0,0.0,-0.6000000000000001,9.5,0.30000000000000004,0.1,-0.2,0.1
1698415350232.0,16,0.0,0.0,0.0,-0.5,9.5,0.30000000000000004,-0.1,-0.30000000000000004,0.1
1698415350248.0,16,0.0,0.0,0.0,-0.5,9.5,0.4,0.1,-0.2,0.2
1698415350265.0,16,0.0,0.0,0.0,-0.5,9.5,0.4,0.2,-0.30000000000000004,0.2
1698415350282.0,16,0.0,0.0,0.0,-0.5,9.5,0.4,0.4,-0.1,0.1
1698415350299.0,16,0.0,0.0,0.0,-0.5,9.5,0.4,0.4,-0.1,0.1
1698415350316.0,16,0.0,0.0,0.0,-0.5,9.5,0.4,0.5,-0.1,0.1
1698415350332.0,16,0.0,0.0,0.0,-0.5,9.5,0.30000000000000004,0.7,-0.1,0.1
1698415350349.0,16,0.0,0.0,0.0,-0.5,9.5,0.4,0.6000000000000001,0.1,-0.1
1698415350365.0,16,0.0,0.0,0.0,-0.5,9.5,0.30000000000000004,0.7,0.1,-0.1
1698415350383.0,16,0.0,0.0,0.0,-0.5,9.5,0.30000000000000004,0.6000000000000001,0.0,-0.1
1698415350400.0,16,0.0,0.0,0.0,-0.5,9.600000000000001,0.30000000000000004,0.4,0.1,-0.1
1698415350417.0,16,0.0,0.0,0.0,-0.6000000000000001,9.5,0.30000000000000004,0.5,0.0,-0.1
1698415350432.0,16,0.0,0.0,0.0,-0.6000000000000001,9.5,0.30000000000000004,0.5,0.1,-0.1
1698415350449.0,16,0.0,0.0,0.0,-0.5,9.5,0.30000000000000004,0.30000000000000004,0.0,0.1
1698415350466.0,16,0.0,0.0,0.0,-0.5,9.5,0.30000000000000004,0.4,0.1,0.1
1698415350482.0,16,0.0,0.0,0.0,-0.5,9.5,0.30000000000000004,0.4,0.1,-0.1
1698415350498.0,16,0.0,0.0,0.0,-0.5,9.5,0.30000000000000004,0.4,-0.1,0.0
1698415350515.0,16,0.0,0.0,0.0,-0.6000000000000001,9.5,0.30000000000000004,0.30000000000000004,-0.2,0.1
1698415350531.0,16,0.0,0.0,0.0,-0.6000000000000001,9.5,0.30000000000000004,0.30000000000000004,-0.1,0.1
1698415350548.0,16,0.0,0.0,0.0,-0.5,9.5,0.30000000000000004,0.30000000000000004,0.5,-0.1
1698415350564.0,16,0.0,0.0,0.0,-0.5,9.5,0.30000000000000004,0.1,0.4,-0.1
1698415350582.0,16,0.0,0.0,0.0,-0.6000000000000001,9.5,0.30000000000000004,-0.2,-0.30000000000000004,0.1
1698415350599.0,16,0.0,0.0,0.0,-0.5,9.5,0.30000000000000004,-0.1,0.1,0.2
1698415350615.0,16,0.0,0.0,0.0,-0.5,9.5,0.30000000000000004,-0.2,0.0,0.1
1698415350632.0,16,0.0,0.0,0.0,-0.5,9.5,0.30000000000000004,-0.2,0.0,0.0
1698415350648.0,16,0.0,0.0,0.0,-0.5,9.600000000000001,0.30000000000000004,-0.6000000000000001,0.1,0.0
1698415350664.0,16,0.0,0.0,0.0,-0.6000000000000001,9.5,0.30000000000000004,-0.5,0.1,-0.1
1698415350682.0,16,0.0,-0.1,0.0,-0.6000000000000001,9.4,0.30000000000000004,-0.4,0.1,0.0
1698415350698.0,16,0.0,0.0,0.0,-0.6000000000000001,9.5,0.30000000000000004,-0.2,-0.2,0.2
1698415350715.0,16,0.0,0.0,0.0,-0.6000000000000001,9.5,0.30000000000000004,-0.6000000000000001,-0.1,0.1
1698415350732.0,16,0.0,0.0,0.0,-0.5,9.5,0.30000000000000004,-0.6000000000000001,0.0,0.2
1698415350748.0,16,0.0,0.0,0.0,-0.5,9.5,0.4,-0.5,0.2,0.1
1698415350765.0,16,0.0,0.0,0.0,-0.5,9.5,0.30000000000000004,-0.4,0.0,0.0
1698415350782.0,16,0.0,0.0,0.0,-0.5,9.5,0.30000000000000004,-0.4,-0.1,0.1
1698415350798.0,16,0.0,0.0,0.0,-0.5,9.5,0.30000000000000004,-0.4,0.0,-0.2
1698415350815.0,16,0.0,0.0,0.0,-0.6000000000000001,9.5,0.30000000000000004,-0.4,0.1,0.0
1698415350831.0,16,0.0,0.0,0.0,-0.6000000000000001,9.5,0.30000000000000004,-0.4,0.0,-0.1
1698415350848.0,16,0.0,0.0,0.0,-0.5,9.5,0.30000000000000004,-0.1,0.1,0.0
1698415350865.0,16,0.0,0.0,0.0,-0.5,9.5,0.30000000000000004,0.2,0.4,-0.1
1698415350882.0,16,0.0,0.0,0.0,-0.6000000000000001,9.5,0.30000000000000004,0.2,0.4,-0.1
1698415350899.0,16,0.0,0.0,0.0,-0.6000000000000001,9.5,0.30000000000000004,0.2,0.1,0.1
1698415350915.0,16,0.0,0.0,0.0,-0.6000000000000001,9.5,0.30000000000000004,0.30000000000000004,-0.2,-0.1
1698415350932.0,16,0.0,0.0,0.0,-0.6000000000000001,9.5,0.30000000000000004,0.2,0.0,-0.1
1698415350948.0,16,0.0,0.0,0.0,-0.5,9.5,0.30000000000000004,0.2,0.2,-0.2
1698415350964.0,16,0.0,0.0,0.0,-0.6000000000000001,9.5,0.30000000000000004,0.2,0.1,-0.1
1698415350981.0,16,0.0,0.0,0.0,-0.6000000000000001,9.5,0.30000000000000004,0.1,0.2,-0.1
1698415350998.0,16,0.0,0.0,0.0,-0.5,9.5,0.30000000000000004,0.30000000000000004,0.1,0.1
1698415351015.0,16,0.0,0.0,0.0,-0.6000000000000001,9.5,0.30000000000000004,0.30000000000000004,0.1,0.1
1698415351032.0,16,0.0,0.0,0.0,-0.6000000000000001,9.5,0.30000000000000004,0.2,0.0,-0.1
1698415351048.0,16,0.0,0.0,0.0,-0.5,9.5,0.30000000000000004,0.2,0.1,0.1
1698415351065.0,16,0.0,0.0,0.1,-0.6000000000000001,9.5,0.4,0.9,-0.1,0.1
1698415351082.0,16,0.0,0.0,0.0,-0.6000000000000001,9.5,0.30000000000000004,0.4,-0.1,0.2
1698415351098.0,16,0.0,0.0,0.0,-0.6000000000000001,9.5,0.30000000000000004,0.5,-0.2,0.1
1698415351115.0,16,0.0,0.0,0.0,-0.5,9.5,0.4,0.2,-0.2,0.2
1698415351132.0,16,0.0,0.0,0.0,-0.5,9.5,0.4,0.30000000000000004,-0.1,0.1
1698415351148.0,16,0.0,0.0,0.0,-0.5,9.5,0.30000000000000004,0.5,-0.1,0.1
1698415351164.0,16,0.0,0.0,0.0,-0.6000000000000001,9.5,0.30000000000000004,0.4,-0.30000000000000004,0.1
1698415351181.0,16,0.0,0.0,0.0,-0.5,9.5,0.30000000000000004,0.30000000000000004,-0.6000000000000001,0.30000000000000004
1698415351198.0,16,0.0,0.0,-0.1,-0.5,9.5,0.30000000000000004,0.4,-0.30000000000000004,0.2
1698415351214.0,16,0.0,0.0,0.0,-0.5,9.5,0.30000000000000004,0.0,-0.4,0.1
1698415351232.0,16,0.0,0.0,0.0,-0.5,9.5,0.30000000000000004,0.1,-0.30000000000000004,0.1
1698415351248.0,16,0.0,0.0,0.0,-0.6000000000000001,9.5,0.30000000000000004,0.4,-0.1,-0.1
1698415351265.0,16,0.0,0.0,0.0,-0.5,9.5,0.30000000000000004,0.4,0.0,-0.1
1698415351282.0,16,0.0,0.0,0.0,-0.5,9.5,0.30000000000000004,0.4,-0.1,-0.1
1698415351299.0,16,0.0,0.0,0.0,-0.5,9.5,0.30000000000000004,0.2,0.1,-0.1
1698415351319.0,16,0.0,0.0,0.0,-0.5,9.5,0.30000000000000004,0.30000000000000004,0.1,-0.1
1698415351332.0,16,0.0,0.0,0.0,-0.6000000000000001,9.5,0.30000000000000004,0.5,0.2,-0.1
1698415351348.0,16,0.0,0.0,0.0,-0.5,9.5,0.30000000000000004,0.5,0.0,-0.2
1698415351365.0,16,0.0,0.0,0.0,-0.5,9.5,0.30000000000000004,0.4,-0.1,-0.1
1698415351382.0,16,0.0,0.0,0.0,-0.5,9.5,0.30000000000000004,0.6000000000000001,0.1,-0.1
1698415351398.0,16,0.0,0.0,0.0,-0.6000000000000001,9.5,0.30000000000000004,0.7,0.30000000000000004,-0.1
1698415351418.0,16,0.0,0.0,0.0,-0.6000000000000001,9.5,0.30000000000000004,0.5,0.1,0.1
1698415351431.0,16,0.0,0.0,0.0,-0.6000000000000001,9.5,0.30000000000000004,0.5,-0.1,0.1
1698415351447.0,16,0.0,0.0,0.0,-0.5,9.5,0.30000000000000004,0.6000000000000001,-0.1,0.2
1698415351465.0,16,0.0,0.0,0.0,-0.6000000000000001,9.5,0.30000000000000004,0.5,0.2,0.0
1698415351481.0,16,0.0,0.0,0.0,-0.6000000000000001,9.5,0.30000000000000004,0.5,0.1,-0.1
1698415351498.0,16,0.0,0.0,0.0,-0.6000000000000001,9.5,0.30000000000000004,0.4,-0.1,-0.1
1698415351515.0,16,0.0,0.0,0.0,-0.6000000000000001,9.600000000000001,0.30000000000000004,0.7,0.1,0.0
1698415351532.0,16,0.0,0.0,0.0,-0.6000000000000001,9.5,0.30000000000000004,0.7,0.2,0.1
1698415351550.0,16,0.0,0.0,0.0,-0.5,9.5,0.30000000000000004,0.4,-0.1,0.1
1698415351565.0,16,0.0,0.0,0.0,-0.6000000000000001,9.5,0.30000000000000004,0.4,-0.30000000000000004,0.2
1698415351582.0,16,0.0,0.0,0.0,-0.5,9.5,0.30000000000000004,0.4,-0.2,0.1
1698415351600.0,16,0.0,0.0,0.0,-0.6000000000000001,9.5,0.30000000000000004,0.4,-0.1,0.2
1698415351616.0,16,0.0,0.0,0.0,-0.6000000000000001,9.5,0.30000000000000004,0.5,-0.4,0.30000000000000004
1698415351633.0,16,0.0,0.0,0.0,-0.6000000000000001,9.5,0.30000000000000004,0.6000000000000001,-0.5,0.4
1698415351648.0,16,0.0,0.0,0.0,-0.5,9.5,0.30000000000000004,0.5,-0.6000000000000001,0.4
1698415351665.0,16,0.0,0.0,0.0,-0.5,9.5,0.30000000000000004,0.5,-0.4,0.30000000000000004
1698415351682.0,16,0.0,0.0,0.0,-0.5,9.5,0.30000000000000004,0.5,-0.1,0.2
1698415351698.0,16,0.0,0.0,0.1,-0.5,9.5,0.30000000000000004,0.6000000000000001,-0.1,0.2
1698415351715.0,16,0.0,0.0,0.0,-0.5,9.5,0.30000000000000004,0.6000000000000001,-0.1,-0.1
1698415351732.0,16,0.0,0.0,0.0,-0.5,9.5,0.30000000000000004,0.5,0.1,0.1
1698415351748.0,16,0.0,0.0,0.0,-0.5,9.5,0.30000000000000004,0.4,-0.1,0.2
1698415351765.0,16,0.0,0.0,0.0,-0.5,9.5,0.30000000000000004,0.5,0.0,0.1
1698415351781.0,16,0.0,0.0,0.0,-0.5,9.5,0.30000000000000004,0.6000000000000001,0.30000000000000004,-0.1
1698415351798.0,16,0.0,0.0,0.0,-0.6000000000000001,9.600000000000001,0.2,0.5,0.5,0.0
1698415351815.0,16,0.0,0.0,0.0,-0.6000000000000001,9.600000000000001,0.2,0.5,0.4,0.0
1698415351832.0,16,0.0,0.0,0.0,-0.5,9.600000000000001,0.30000000000000004,0.30000000000000004,0.0,0.0
1698415351848.0,16,0.0,0.0,0.0,-0.6000000000000001,9.600000000000001,0.30000000000000004,0.4,0.0,0.1
1698415351865.0,16,0.0,0.0,0.0,-0.5,9.5,0.2,0.4,0.2,-0.1
1698415351881.0,16,0.0,0.0,0.0,-0.6000000000000001,9.5,0.2,0.2,0.1,0.0
1698415351898.0,16,0.0,0.0,0.0,-0.6000000000000001,9.5,0.2,0.1,0.1,-0.1
1698415351916.0,16,0.0,0.0,0.0,-0.6000000000000001,9.5,0.30000000000000004,-0.2,0.4,0.1
1698415351931.0,16,0.0,0.0,0.0,-0.6000000000000001,9.5,0.2,-0.4,0.6000000000000001,0.1
1698415351948.0,16,0.0,0.0,0.0,-0.6000000000000001,9.5,0.30000000000000004,-0.4,0.7,0.1
1698415351965.0,16,0.0,0.0,0.0,-0.6000000000000001,9.5,0.30000000000000004,-0.4,0.4,0.2
1698415351982.0,16,0.0,0.0,0.0,-0.6000000000000001,9.5,0.30000000000000004,-0.4,0.5,0.2
1698415351998.0,16,0.0,0.0,0.0,-0.6000000000000001,9.5,0.30000000000000004,-0.6000000000000001,0.5,0.2
1698415352015.0,16,0.0,0.0,0.0,-0.5,9.5,0.30000000000000004,-0.8,0.4,0.2
1698415352032.0,16,0.0,0.0,0.0,-0.6000000000000001,9.5,0.30000000000000004,-1.0,0.4,0.1
1698415352048.0,16,0.0,0.0,0.0,-0.5,9.5,0.30000000000000004,-1.2000000000000002,0.7,0.2
1698415352065.0,16,0.0,0.0,0.1,-0.5,9.5,0.4,-1.0,0.9,0.1
1698415352081.0,16,0.0,0.0,0.0,-0.5,9.5,0.30000000000000004,-1.0,0.8,-0.1
1698415352098.0,16,0.0,0.0,0.0,-0.5,9.5,0.30000000000000004,-0.6000000000000001,0.7,-0.2
1698415352116.0,16,0.0,0.0,0.0,-0.5,9.5,0.30000000000000004,-0.4,0.7,-0.2
1698415352131.0,16,0.0,0.0,0.0,-0.5,9.5,0.30000000000000004,-0.1,0.4,-0.1
1698415352148.0,16,0.0,0.0,0.0,-0.5,9.5,0.30000000000000004,0.0,0.5,-0.1
1698415352164.0,16,0.0,0.0,0.0,-0.6000000000000001,9.5,0.30000000000000004,0.2,0.4,-0.1
1698415352181.0,16,0.0,0.0,0.0,-0.5,9.5,0.30000000000000004,0.2,0.30000000000000004,-0.2
1698415352198.0,16,0.0,0.0,0.0,-0.6000000000000001,9.5,0.30000000000000004,0.2,0.4,-0.1
1698415352216.0,16,0.0,0.0,0.0,-0.6000000000000001,9.5,0.30000000000000004,0.1,0.30000000000000004,0.1
1698415352232.0,16,0.0,0.0,0.0,-0.6000000000000001,9.5,0.30000000000000004,0.1,0.2,0.0
1698415352250.0,16,0.0,0.0,0.0,-0.6000000000000001,9.5,0.30000000000000004,0.2,0.30000000000000004,0.0
1698415352265.0,16,0.0,0.0,0.0,-0.5,9.5,0.30000000000000004,0.1,0.1,0.1
1698415352282.0,16,0.0,0.0,0.0,-0.6000000000000001,9.5,0.30000000000000004,0.0,0.1,0.2
1698415352298.0,16,0.0,0.0,0.0,-0.5,9.5,0.30000000000000004,-0.1,-0.1,0.1
1698415352315.0,16,0.0,0.0,0.0,-0.6000000000000001,9.5,0.30000000000000004,0.1,0.0,0.1
1698415352333.0,16,0.0,0.0,0.0,-0.5,9.5,0.30000000000000004,0.2,-0.30000000000000004,0.1
1698415352348.0,16,0.0,0.0,0.0,-0.5,9.5,0.30000000000000004,0.5,-0.1,0.0
1698415352365.0,16,0.0,0.0,0.0,-0.5,9.5,0.30000000000000004,0.4,-0.1,0.1
1698415352383.0,16,0.0,0.0,0.0,-0.5,9.5,0.30000000000000004,0.4,-0.6000000000000001,0.1
1698415352398.0,16,0.0,0.0,0.0,-0.5,9.5,0.30000000000000004,0.8,-0.7,0.1
1698415352415.0,16,0.0,0.0,0.0,-0.5,9.5,0.30000000000000004,0.9,-0.30000000000000004,0.1
1698415352432.0,16,0.0,0.0,0.0,-0.5,9.5,0.2,0.7,-0.5,-0.1
1698415352448.0,16,0.0,0.0,0.0,-0.5,9.5,0.30000000000000004,0.7,-0.8,-0.1
1698415352465.0,16,0.0,0.0,0.0,-0.5,9.5,0.30000000000000004,0.9,-0.7,-0.2
1698415352481.0,16,0.0,0.0,0.0,-0.5,9.5,0.30000000000000004,1.0,-0.8,-0.2
1698415352499.0,16,0.0,0.0,0.0,-0.6000000000000001,9.5,0.30000000000000004,1.0,-0.7,-0.1
1698415352516.0,16,0.0,0.0,0.0,-0.6000000000000001,9.5,0.30000000000000004,1.0,-0.7,-0.1
1698415352532.0,16,0.0,0.0,0.0,-0.5,9.5,0.30000000000000004,0.7,-0.6000000000000001,0.0
1698415352548.0,16,0.0,0.0,0.0,-0.6000000000000001,9.5,0.30000000000000004,0.8,-0.30000000000000004,-0.1
1698415352565.0,16,0.0,0.0,0.0,-0.5,9.5,0.30000000000000004,0.9,-0.30000000000000004,-0.2
1698415352583.0,16,0.0,0.0,0.0,-0.6000000000000001,9.5,0.30000000000000004,0.7,-0.30000000000000004,-0.1
1698415352599.0,16,0.0,0.0,0.0,-0.5,9.5,0.2,0.7,0.0,-0.1
1698415352614.0,16,0.0,0.0,0.0,-0.6000000000000001,9.5,0.2,0.5,-0.1,0.0
1698415352632.0,16,0.0,0.0,0.0,-0.5,9.5,0.2,0.4,-0.2,-0.1
1698415352649.0,16,0.0,0.0,0.0,-0.6000000000000001,9.5,0.2,0.4,-0.1,-0.1
1698415352665.0,16,0.0,0.0,0.0,-0.5,9.5,0.2,0.4,0.0,-0.1
1698415352683.0,16,0.0,0.0,0.0,-0.6000000000000001,9.5,0.2,0.2,0.30000000000000004,-0.1
1698415352699.0,16,0.0,0.0,0.0,-0.6000000000000001,9.5,0.2,0.0,-0.2,-0.1
1698415352715.0,16,0.0,0.0,0.0,-0.6000000000000001,9.5,0.2,-0.1,0.0,-0.1
1698415352732.0,16,0.0,0.0,0.0,-0.6000000000000001,9.5,0.2,-0.2,0.0,-0.2
1698415352748.0,16,0.0,0.0,-0.1,-0.6000000000000001,9.5,0.2,-1.0,0.30000000000000004,-0.8
1698415352765.0,16,0.0,0.0,-0.1,-0.6000000000000001,9.600000000000001,0.2,-2.1999999999999997,-0.30000000000000004,-1.2000000000000002
1698415352781.0,16,0.0,0.0,-0.1,-0.6000000000000001,9.600000000000001,0.2,-2.7,-0.4,-1.2000000000000002
1698415352798.0,16,0.0,0.1,-0.1,-0.6000000000000001,9.600000000000001,0.1,-4.5,-1.0999999999999999,-1.0999999999999999
1698415352815.0,16,0.1,0.1,-0.1,-0.5,9.600000000000001,0.2,-6.2,-1.5000000000000002,-1.2000000000000002
1698415352831.0,16,0.1,0.2,-0.1,-0.5,9.700000000000001,0.2,-7.1000000000000005,-1.7,-1.4
1698415352848.0,16,0.0,0.2,-0.2,-0.5,9.8,0.1,-9.4,-1.9,-1.7
1698415352865.0,16,0.0,0.2,-0.1,-0.6000000000000001,9.8,0.2,-11.5,-1.7,-1.6
1698415352882.0,16,0.0,0.2,-0.2,-0.6000000000000001,9.8,0.1,-12.5,-1.5000000000000002,-1.2000000000000002
1698415352898.0,16,0.0,0.2,-0.30000000000000004,-0.6000000000000001,9.8,0.1,-15.2,-1.8,-0.5
1698415352915.0,16,0.0,0.2,-0.2,-0.6000000000000001,9.8,0.30000000000000004,-17.9,-2.0,-0.8
1698415352931.0,16,0.1,0.2,-0.1,-0.5,9.700000000000001,0.30000000000000004,-19.1,-2.0,-0.9
1698415352948.0,16,0.1,0.1,-0.30000000000000004,-0.5,9.700000000000001,0.30000000000000004,-21.700000000000003,-1.0,-0.9
1698415352965.0,16,-0.1,0.2,-0.2,-0.6000000000000001,9.8,0.30000000000000004,-25.0,0.30000000000000004,-1.0
1698415352981.0,16,-0.1,0.2,-0.30000000000000004,-0.7000000000000001,9.8,0.30000000000000004,-27.0,0.5,-0.7
1698415352998.0,16,-0.1,0.30000000000000004,-0.4,-0.8,9.9,0.30000000000000004,-31.2,0.4,0.1
1698415353014.0,16,-0.1,0.30000000000000004,-0.4,-0.7000000000000001,10.0,0.4,-36.0,-0.6000000000000001,-0.30000000000000004
1698415353031.0,16,0.0,0.4,-0.5,-0.6000000000000001,10.0,0.4,-38.400000000000006,-0.5,-0.8
1698415353048.0,16,0.1,0.5,-0.5,-0.5,10.100000000000001,0.4,-43.50000000000001,0.4,-0.5
1698415353065.0,16,0.1,0.6000000000000001,-0.7000000000000001,-0.5,10.200000000000001,0.4,-49.7,0.5,0.7
1698415353081.0,16,0.1,0.6000000000000001,-0.9,-0.5,10.200000000000001,0.30000000000000004,-53.8,0.5,1.3
1698415353098.0,16,0.1,0.5,-1.0,-0.5,10.100000000000001,0.4,-63.2,1.7,2.4000000000000004
1698415353115.0,16,0.1,0.6000000000000001,-1.3,-0.5,10.200000000000001,0.30000000000000004,-72.0,4.0,2.3000000000000003
1698415353132.0,16,0.1,0.6000000000000001,-1.3,-0.5,10.200000000000001,0.4,-76.80000000000001,5.2,2.0
1698415353148.0,16,-0.1,0.6000000000000001,-1.1,-0.7000000000000001,10.100000000000001,0.8,-84.5,5.8,2.0
1698415353172.0,16,-0.1,0.5,-1.6,-0.7000000000000001,10.0,0.5,-91.60000000000001,5.8,2.7
1698415353194.0,16,-0.1,0.4,-1.6,-0.7000000000000001,9.8,1.0,-95.80000000000001,5.7,0.5
1698415353198.0,16,-0.1,0.4,-1.6,-0.7000000000000001,9.8,1.0,-95.80000000000001,5.7,0.5
1698415353215.0,16,-0.2,0.4,-1.9000000000000001,-0.8,9.700000000000001,1.0,-94.2,4.0,2.1
1698415353232.0,16,-0.2,0.4,-2.2,-0.8,9.700000000000001,0.8,-94.80000000000001,3.3000000000000003,2.9
1698415353248.0,16,-0.1,0.6000000000000001,-2.0,-0.7000000000000001,9.700000000000001,1.3,-96.10000000000001,-0.1,2.4000000000000004
1698415353265.0,16,0.2,0.8,-2.1,-0.30000000000000004,9.8,1.5,-100.60000000000001,1.5000000000000002,0.30000000000000004
1698415353282.0,16,0.4,0.8,-1.8,-0.2,9.8,1.9000000000000001,-101.2,-0.30000000000000004,-1.0
1698415353298.0,16,0.4,1.4000000000000001,-1.4000000000000001,-0.2,10.3,2.6,-93.60000000000001,3.0000000000000004,-3.7000000000000006
1698415353315.0,16,0.2,1.9000000000000001,-0.7000000000000001,-0.4,10.600000000000001,3.6,-93.4,6.8,-3.9
1698415353332.0,16,0.1,2.0,-0.1,-0.5,10.600000000000001,4.5,-105.80000000000001,2.1999999999999997,-4.800000000000001
1698415353348.0,16,0.0,1.8,0.7000000000000001,-0.7000000000000001,10.4,5.5,-109.9,1.5000000000000002,-5.6
1698415353364.0,16,0.1,1.6,1.8,-0.6000000000000001,9.9,6.9,-113.4,0.2,-5.4
1698415353381.0,16,0.1,1.7000000000000002,3.3000000000000003,-0.5,9.8,8.200000000000001,-116.9,-4.5,-5.1
1698415353398.0,16,0.1,1.8,3.4000000000000004,-0.5,9.8,9.1,-116.10000000000001,-0.8,-4.7
1698415353414.0,16,0.1,1.6,3.4000000000000004,-0.6000000000000001,9.4,9.4,-105.00000000000001,4.1000000000000005,-7.0
1698415353433.0,16,0.2,1.3,3.6,-0.5,9.1,9.700000000000001,-99.10000000000001,6.1000000000000005,-7.300000000000001
1698415353448.0,16,0.2,1.2000000000000002,3.2,-0.6000000000000001,8.8,9.600000000000001,-87.7,9.3,-7.8
1698415353465.0,16,0.0,1.1,3.1,-0.8,8.5,9.700000000000001,-77.2,9.200000000000001,-7.9
1698415353482.0,16,0.2,1.1,2.7,-0.5,8.200000000000001,9.1,-73.4,9.4,-7.699999999999999
1698415353499.0,16,0.6000000000000001,0.7000000000000001,2.0,-0.30000000000000004,7.800000000000001,8.9,-65.7,8.700000000000001,-8.1
1698415353517.0,16,0.6000000000000001,-0.1,1.9000000000000001,-0.30000000000000004,6.9,9.0,-62.1,7.300000000000001,-8.600000000000001
1698415353532.0,16,0.5,-0.30000000000000004,1.8,-0.4,6.5,9.0,-51.900000000000006,4.6000000000000005,-7.300000000000001
1698415353548.0,16,0.30000000000000004,-0.4,1.6,-0.6000000000000001,6.4,8.9,-48.300000000000004,5.1,-7.1000000000000005
1698415353565.0,16,0.4,-0.6000000000000001,1.7000000000000002,-0.6000000000000001,6.1000000000000005,9.1,-40.8,4.5,-5.7
1698415353582.0,16,0.5,-1.1,0.9,-0.5,5.5,8.4,-35.3,4.3999999999999995,-4.9
1698415353599.0,16,0.30000000000000004,-1.2000000000000002,0.8,-0.7000000000000001,5.300000000000001,8.3,-24.1,4.1000000000000005,-2.7
1698415353618.0,16,0.2,-1.5,0.5,-0.7000000000000001,5.0,8.0,-11.5,4.9,-0.8
1698415353633.0,16,0.2,-1.6,0.2,-0.8,4.800000000000001,7.7,-4.9,6.000000000000001,-0.2
1698415353649.0,16,0.1,-1.7000000000000002,0.0,-0.8,4.7,7.5,8.799999999999999,6.7,1.4
1698415353665.0,16,0.2,-1.8,-0.5,-0.8,4.7,7.0,22.8,8.0,2.7
1698415353683.0,16,0.30000000000000004,-1.8,-0.7000000000000001,-0.7000000000000001,4.9,6.6000000000000005,35.5,6.2,2.0
1698415353698.0,16,0.2,-1.7000000000000002,-1.0,-0.8,4.9,6.300000000000001,41.6,3.8,1.0
1698415353715.0,16,0.2,-1.7000000000000002,-1.2000000000000002,-0.8,5.1000000000000005,6.0,52.50000000000001,-3.1,0.4
1698415353732.0,16,0.0,-1.7000000000000002,-1.5,-0.9,5.2,5.6000000000000005,62.6,-7.6,-1.0999999999999999
1698415353749.0,16,-0.2,-1.6,-1.5,-1.2000000000000002,5.300000000000001,5.5,66.7,-9.1,-2.4000000000000004
1698415353765.0,16,-0.2,-1.7000000000000002,-1.4000000000000001,-1.2000000000000002,5.5,5.4,75.2,-12.9,-5.0
1698415353783.0,16,-0.2,-1.8,-1.4000000000000001,-1.2000000000000002,5.4,5.300000000000001,79.2,-13.9,-5.7
1698415353799.0,16,-0.30000000000000004,-1.8,-1.4000000000000001,-1.2000000000000002,5.6000000000000005,5.1000000000000005,85.5,-16.2,-7.1000000000000005
1698415353816.0,16,-0.30000000000000004,-1.6,-1.2000000000000002,-1.2000000000000002,5.9,5.0,89.0,-18.2,-9.4
1698415353832.0,16,-0.4,-1.7000000000000002,-1.2000000000000002,-1.4000000000000001,6.0,4.800000000000001,90.6,-18.5,-10.700000000000001
1698415353849.0,16,-0.30000000000000004,-1.8,-0.9,-1.3,6.0,5.0,90.8,-18.400000000000002,-10.5
1698415353864.0,16,0.0,-1.7000000000000002,-1.0,-0.9,6.2,4.6000000000000005,88.8,-10.8,-9.600000000000001
1698415353883.0,16,0.1,-1.8,-0.7000000000000001,-0.8,6.300000000000001,4.7,85.80000000000001,-1.0,-7.6
1698415353898.0,16,0.2,-1.9000000000000001,-0.8,-0.7000000000000001,6.4,4.2,83.7,11.000000000000002,-4.1000000000000005
1698415353914.0,16,0.2,-1.9000000000000001,-1.0,-0.8,6.4,4.0,82.7,17.3,-2.5
1698415353931.0,16,0.0,-1.6,-1.4000000000000001,-1.0,6.800000000000001,3.4000000000000004,80.2,23.5,-0.4
1698415353949.0,16,-0.2,-1.4000000000000001,-1.4000000000000001,-1.2000000000000002,7.1000000000000005,3.2,78.00000000000001,24.6,-0.1
1698415353964.0,16,-0.30000000000000004,-0.7000000000000001,-0.9,-1.4000000000000001,7.9,3.5,71.6,25.0,1.2000000000000002
1698415353982.0,16,-0.30000000000000004,-0.4,-0.7000000000000001,-1.2000000000000002,8.6,3.6,68.3,27.2,1.7
1698415353998.0,16,0.1,-0.1,-0.7000000000000001,-1.1,8.700000000000001,3.6,62.7,31.099999999999998,0.5
1698415354014.0,16,0.30000000000000004,-0.30000000000000004,-0.8,-0.9,8.5,3.1,57.3,37.800000000000004,2.1
1698415354031.0,16,0.4,-1.1,-0.6000000000000001,-0.8,7.7,3.0,53.9,39.2,10.9
1698415354048.0,16,0.2,-1.7000000000000002,-0.6000000000000001,-1.2000000000000002,6.800000000000001,2.3000000000000003,53.00000000000001,44.7,12.8
1698415354065.0,16,-0.1,-2.5,-1.5,-1.3,6.5,1.9000000000000001,51.6,49.1,11.2
1698415354082.0,16,-0.5,-3.3000000000000003,-1.8,-1.8,5.7,1.4000000000000001,47.7,54.6,10.3
1698415354098.0,16,-0.7000000000000001,-3.1,-1.8,-2.0,5.9,1.3,45.2,54.2,10.700000000000001
1698415354116.0,16,-1.1,-3.0,-1.5,-2.4000000000000004,6.0,1.4000000000000001,43.800000000000004,52.7,11.9
1698415354132.0,16,-1.1,-2.8000000000000003,-1.4000000000000001,-2.5,6.300000000000001,1.3,43.800000000000004,50.9,12.5
1698415354148.0,16,-1.0,-2.9000000000000004,-1.1,-2.4000000000000004,6.2,1.5,43.6,37.6,13.100000000000001
1698415354165.0,16,-1.0,-2.9000000000000004,-1.2000000000000002,-2.3000000000000003,6.2,1.3,43.300000000000004,30.799999999999997,13.4
1698415354182.0,16,-0.9,-1.8,-1.1,-2.2,7.300000000000001,1.3,39.9,19.9,14.900000000000002
1698415354198.0,16,-0.9,-0.6000000000000001,-1.0,-2.1,8.6,1.2000000000000002,42.1,8.0,16.400000000000002
1698415354214.0,16,-0.9,-0.1,-1.2000000000000002,-2.2,9.0,0.9,43.800000000000004,4.1000000000000005,17.5
1698415354231.0,16,-0.7000000000000001,-0.2,-1.4000000000000001,-1.9000000000000001,9.0,0.6000000000000001,43.900000000000006,-2.6,20.5
1698415354250.0,16,-0.8,0.7000000000000001,-1.9000000000000001,-1.9000000000000001,10.0,0.0,37.800000000000004,-6.6000000000000005,21.200000000000003
1698415354266.0,16,-1.0,1.8,-2.2,-2.1,11.100000000000001,-0.4,35.4,-7.2,20.3
1698415354282.0,16,-1.6,2.5,-2.5,-2.7,11.8,-0.8,30.000000000000004,-11.8,16.2
1698415354299.0,16,-2.0,2.7,-2.5,-3.0,12.0,-0.9,28.400000000000002,-15.8,14.3
1698415354315.0,16,-2.3000000000000003,2.8000000000000003,-2.4000000000000004,-3.3000000000000003,12.100000000000001,-0.9,29.600000000000005,-27.2,8.9
1698415354332.0,16,-1.2000000000000002,3.4000000000000004,-1.8,-2.2,12.9,-0.4,31.900000000000002,-38.300000000000004,2.1999999999999997
1698415354349.0,16,1.1,5.0,2.4000000000000004,0.1,14.5,3.8000000000000003,16.5,-32.300000000000004,-8.5
1698415354365.0,16,1.7000000000000002,5.6000000000000005,1.3,0.7000000000000001,15.100000000000001,2.6,34.800000000000004,-18.7,-9.3
1698415354382.0,16,-0.30000000000000004,0.9,-0.7000000000000001,-1.3,10.4,0.4,58.400000000000006,-29.200000000000003,-4.300000000000001
1698415354399.0,16,-2.1,0.6000000000000001,-0.1,-3.1,10.200000000000001,0.9,44.6,-60.20000000000001,-8.600000000000001
1698415354416.0,16,-2.0,1.2000000000000002,0.7000000000000001,-3.0,10.700000000000001,1.6,38.800000000000004,-60.7,-3.0000000000000004
1698415354432.0,16,0.5,0.8,1.9000000000000001,-0.5,10.4,2.7,30.299999999999997,-63.4,5.8
1698415354449.0,16,1.4000000000000001,1.0,3.6,0.4,10.600000000000001,4.5,14.0,-60.1,2.3000000000000003
1698415354466.0,16,1.0,1.4000000000000001,3.9000000000000004,0.0,11.0,4.7,12.3,-59.5,3.7000000000000006
1698415354483.0,16,0.30000000000000004,2.2,3.4000000000000004,-0.6000000000000001,11.8,4.3,11.5,-62.0,11.9
1698415354500.0,16,0.0,1.5,2.7,-0.8,11.200000000000001,3.5,11.5,-56.300000000000004,16.2
1698415354515.0,16,0.4,1.1,2.0,-0.4,10.8,2.9000000000000004,12.3,-45.3,17.0
1698415354532.0,16,0.8,1.1,1.2000000000000002,0.2,10.8,2.0,11.000000000000002,-23.0,16.3
1698415354548.0,16,0.7000000000000001,0.9,0.4,0.1,10.600000000000001,1.2000000000000002,11.000000000000002,-14.3,21.5
1698415354565.0,16,0.8,0.2,0.30000000000000004,0.2,9.9,1.1,9.600000000000001,-16.1,25.3
1698415354581.0,16,1.1,-0.9,0.30000000000000004,0.6000000000000001,8.9,1.1,4.3999999999999995,-23.900000000000002,30.9
1698415354598.0,16,1.4000000000000001,-1.9000000000000001,0.30000000000000004,1.1,7.9,1.1,1.5000000000000002,-30.799999999999997,31.8
1698415354615.0,16,1.5,-2.2,0.2,1.3,7.1000000000000005,1.0,0.9,-29.900000000000006,30.100000000000005
1698415354632.0,16,1.4000000000000001,-3.0,0.2,1.3,6.7,1.0,0.7,-22.3,26.1
1698415354648.0,16,0.9,-3.7,-0.2,0.9,5.9,0.6000000000000001,1.5000000000000002,-12.200000000000001,21.200000000000003
1698415354665.0,16,0.8,-3.9000000000000004,-0.30000000000000004,0.7000000000000001,5.7,0.5,1.0999999999999999,-6.4,19.700000000000003
1698415354681.0,16,0.2,-4.0,0.0,0.2,5.6000000000000005,0.7000000000000001,0.7,-1.2000000000000002,16.8
1698415354699.0,16,-0.2,-3.9000000000000004,-0.2,-0.2,5.7,0.6000000000000001,1.9,-1.0999999999999999,16.0
1698415354715.0,16,-0.2,-3.5,-0.2,-0.1,6.0,0.6000000000000001,0.1,-1.4,14.100000000000001
1698415354731.0,16,-0.1,-3.0,-0.1,0.1,6.5,0.7000000000000001,-1.5000000000000002,1.0,11.700000000000001
1698415354748.0,16,0.4,-2.2,-0.30000000000000004,0.5,7.300000000000001,0.4,-1.8,9.700000000000001,5.9
1698415354765.0,16,0.4,-2.0,-0.6000000000000001,0.30000000000000004,7.4,0.2,-0.9,14.4,3.7000000000000006
1698415354781.0,16,-0.2,-2.1,-0.7000000000000001,0.0,7.4,0.1,2.1,24.8,3.1
1698415354798.0,16,0.0,-1.4000000000000001,-1.6,0.2,8.1,-0.9,4.9,26.3,5.8
1698415354815.0,16,0.9,-0.5,-2.2,1.1,8.9,-1.5,5.7,24.5,7.300000000000001
1698415354832.0,16,2.6,0.7000000000000001,-2.7,2.8000000000000003,10.100000000000001,-2.0,11.5,27.6,6.000000000000001
1698415354848.0,16,2.4000000000000004,1.0,-2.4000000000000004,2.7,10.5,-1.8,26.700000000000003,37.4,-4.9
1698415354864.0,16,-0.6000000000000001,-0.6000000000000001,-2.5,-0.4,8.9,-2.0,37.0,49.6,-13.9
1698415354882.0,16,-1.7000000000000002,-0.4,-2.4000000000000004,-1.6,9.1,-2.0,34.2,46.6,-13.5
1698415354898.0,16,-2.0,1.7000000000000002,-1.6,-1.9000000000000001,11.200000000000001,-1.4000000000000001,19.8,24.200000000000003,-7.9
1698415354917.0,16,-1.3,2.5,-0.7000000000000001,-1.2000000000000002,12.0,-0.5,15.100000000000001,11.3,-2.5
1698415354932.0,16,-0.4,1.8,0.0,-0.30000000000000004,11.4,0.2,21.900000000000002,-9.9,-0.5
1698415354948.0,16,0.1,-0.2,-2.8000000000000003,0.2,9.3,-2.7,34.400000000000006,-5.0,-14.200000000000001
1698415354964.0,16,0.2,4.3,-0.6000000000000001,0.2,13.8,-0.6000000000000001,24.1,16.3,-17.9
1698415354981.0,16,0.1,5.6000000000000005,4.800000000000001,0.2,15.200000000000001,4.800000000000001,-6.7,26.3,-0.5
1698415354998.0,16,-2.4000000000000004,5.1000000000000005,-1.3,-2.4000000000000004,14.700000000000001,-1.4000000000000001,42.0,-24.200000000000003,-1.4
1698415355015.0,16,-1.2000000000000002,1.7000000000000002,0.30000000000000004,-1.2000000000000002,11.3,0.2,38.300000000000004,1.5000000000000002,-2.5
1698415355032.0,16,1.7000000000000002,-0.8,2.9000000000000004,1.8,8.8,2.7,32.7,15.100000000000001,-2.6
1698415355048.0,16,1.0,2.6,3.6,1.0,12.200000000000001,3.3000000000000003,11.2,50.5,-0.9
1698415355064.0,16,1.0,4.1000000000000005,4.9,1.0,13.8,4.6000000000000005,3.1,29.200000000000003,6.000000000000001
1698415355082.0,16,0.5,2.0,2.1,0.5,11.600000000000001,1.9000000000000001,16.5,14.800000000000002,-10.3
1698415355098.0,16,1.7000000000000002,0.9,2.6,1.7000000000000002,10.600000000000001,2.4000000000000004,8.4,28.700000000000003,-10.700000000000001
1698415355115.0,16,1.9000000000000001,1.4000000000000001,1.7000000000000002,1.9000000000000001,11.100000000000001,1.4000000000000001,7.500000000000001,19.200000000000003,-7.6
1698415355131.0,16,0.0,1.6,1.7000000000000002,0.0,11.3,1.4000000000000001,7.9,-14.700000000000001,-7.400000000000001
1698415355148.0,16,-0.7000000000000001,0.7000000000000001,1.0,-0.7000000000000001,10.4,0.7000000000000001,9.5,-35.6,-8.5
1698415355165.0,16,0.4,-0.4,0.9,0.30000000000000004,9.3,0.6000000000000001,3.8,-33.7,-16.900000000000002
1698415355182.0,16,0.4,-0.9,0.9,0.2,8.8,0.6000000000000001,1.6,-29.900000000000006,-23.900000000000002
1698415355201.0,16,-0.4,-2.0,0.9,-0.7000000000000001,7.7,0.6000000000000001,0.1,-25.1,-35.199999999999996
1698415355215.0,16,-0.9,-2.8000000000000003,0.8,-1.3,6.9,0.5,1.6,-26.700000000000003,-40.9
1698415355231.0,16,-0.9,-3.0,0.7000000000000001,-1.4000000000000001,6.7,0.4,2.0,-27.400000000000002,-41.5
1698415355248.0,16,-0.8,-3.2,0.5,-1.4000000000000001,6.4,0.2,1.2000000000000002,-27.8,-35.4
1698415355264.0,16,-0.5,-2.9000000000000004,0.30000000000000004,-1.2000000000000002,6.7,0.1,-1.7,-28.0,-27.3
1698415355281.0,16,-0.2,-2.7,0.4,-1.0,6.9,0.2,-2.6,-24.6,-22.900000000000002
1698415355298.0,16,-0.1,-2.6,0.4,-1.0,7.0,0.1,-2.1,-23.400000000000002,-20.900000000000002
1698415355315.0,16,0.0,-2.0,0.2,-0.9,7.5,-0.1,0.30000000000000004,-22.5,-17.599999999999998
1698415355331.0,16,0.1,-1.7000000000000002,0.0,-0.9,7.800000000000001,-0.30000000000000004,2.1,-23.2,-15.2
1698415355348.0,16,0.2,-1.3,-0.30000000000000004,-0.8,8.200000000000001,-0.6000000000000001,6.000000000000001,-26.500000000000004,-8.200000000000001
1698415355364.0,16,0.5,-1.4000000000000001,-0.5,-0.5,8.0,-0.8,10.600000000000001,-30.200000000000003,-0.1
1698415355381.0,16,0.4,-1.6,-0.7000000000000001,-0.6000000000000001,7.800000000000001,-1.0,12.700000000000001,-32.2,3.2
1698415355398.0,16,0.1,-1.8,-1.0,-0.8,7.7,-1.4000000000000001,15.000000000000002,-31.6,7.6
1698415355414.0,16,0.0,-1.9000000000000001,-1.0,-1.0,7.6000000000000005,-1.4000000000000001,17.9,-31.4,11.5
1698415355431.0,16,0.0,-1.8,-1.2000000000000002,-0.9,7.6000000000000005,-1.6,19.3,-32.4,12.9
1698415355448.0,16,-0.2,-1.4000000000000001,-1.1,-1.0,8.0,-1.6,18.0,-28.900000000000002,10.3
1698415355465.0,16,-0.30000000000000004,0.0,-0.9,-1.2000000000000002,9.4,-1.5,12.100000000000001,-18.0,5.1
1698415355481.0,16,-0.1,0.9,0.0,-1.0,10.4,-0.5,6.000000000000001,-10.3,2.4000000000000004
1698415355498.0,16,0.1,1.9000000000000001,0.5,-0.7000000000000001,11.3,0.0,-0.6000000000000001,11.4,-4.7
1698415355515.0,16,0.8,1.1,-2.1,-0.1,10.600000000000001,-2.7,4.0,19.3,-2.7
1698415355532.0,16,0.5,0.9,-3.6,-0.30000000000000004,10.4,-4.2,18.6,3.0000000000000004,11.4
1698415355548.0,16,-1.7000000000000002,1.6,-4.2,-2.5,11.100000000000001,-4.9,28.400000000000002,-40.7,12.100000000000001
1698415355564.0,16,-2.4000000000000004,6.1000000000000005,-0.6000000000000001,-3.2,15.600000000000001,-1.4000000000000001,12.3,-68.9,-6.9
1698415355581.0,16,-0.5,7.4,1.9000000000000001,1.1,14.600000000000001,0.4,22.3,-30.000000000000004,-22.8
1698415355599.0,16,4.3,1.8,1.1,3.3000000000000003,11.4,0.2,33.300000000000004,-8.700000000000001,-15.7
1698415355614.0,16,0.7000000000000001,0.6000000000000001,0.30000000000000004,-0.30000000000000004,10.100000000000001,-0.7000000000000001,27.8,-52.7,-20.6
1698415355632.0,16,-1.5,-0.2,1.9000000000000001,-2.5,9.3,0.9,19.700000000000003,-57.1,-20.1
1698415355648.0,16,-2.0,0.5,2.4000000000000004,-3.1,10.100000000000001,1.4000000000000001,14.800000000000002,-76.5,-2.9
1698415355664.0,16,0.2,2.4000000000000004,3.0,-0.9,11.9,2.1,-2.3000000000000003,-75.1,4.300000000000001
1698415355681.0,16,1.8,1.4000000000000001,3.8000000000000003,0.7000000000000001,11.0,2.9000000000000004,4.1000000000000005,-59.9,5.7
1698415355699.0,16,1.4000000000000001,1.5,2.5,0.30000000000000004,11.100000000000001,1.6,9.0,-47.6,5.8
1698415355714.0,16,1.3,2.5,1.8,0.2,12.100000000000001,1.0,9.8,-30.299999999999997,11.6
1698415355731.0,16,1.8,1.6,1.3,0.8,11.200000000000001,0.4,16.6,-13.700000000000001,18.5
1698415355748.0,16,1.7000000000000002,1.0,1.2000000000000002,0.7000000000000001,10.600000000000001,0.30000000000000004,16.400000000000002,-8.9,19.9
1698415355765.0,16,0.9,0.7000000000000001,1.0,0.0,10.3,0.1,12.3,-4.300000000000001,22.6
1698415355783.0,16,0.6000000000000001,0.30000000000000004,1.1,-0.4,9.4,0.1,10.700000000000001,-3.2,24.7
1698415355798.0,16,0.4,-0.8,1.2000000000000002,-0.30000000000000004,8.9,0.2,8.700000000000001,-0.9,27.2
1698415355815.0,16,0.7000000000000001,-1.6,1.2000000000000002,0.1,8.1,0.2,6.000000000000001,1.5000000000000002,29.1
1698415355832.0,16,0.9,-2.0,1.0,0.30000000000000004,7.6000000000000005,0.0,2.8,4.6000000000000005,26.200000000000003
1698415355848.0,16,0.9,-2.2,1.1,0.4,7.4,0.1,1.0999999999999999,6.8,23.0
1698415355865.0,16,1.1,-2.5,1.1,0.7000000000000001,7.1000000000000005,0.1,-1.7,14.0,16.6
1698415355884.0,16,1.0,-2.5,1.0,0.7000000000000001,7.1000000000000005,0.0,-3.8,20.7,9.700000000000001
1698415355900.0,16,1.0,-2.5,0.9,0.6000000000000001,7.1000000000000005,-0.1,-4.1000000000000005,24.400000000000002,7.300000000000001
1698415355918.0,16,0.8,-2.1,0.5,0.5,7.4,-0.5,-3.5,28.700000000000003,4.300000000000001
1698415355931.0,16,0.6000000000000001,-1.7000000000000002,0.1,0.30000000000000004,7.9,-0.9,-3.5,33.0,2.4000000000000004
1698415355948.0,16,0.6000000000000001,-1.4000000000000001,-0.1,0.30000000000000004,8.1,-1.0,-4.5,34.2,1.3
1698415355965.0,16,0.7000000000000001,-0.8,-0.1,0.4,8.700000000000001,-1.0,-6.5,35.8,-2.9
1698415355981.0,16,0.7000000000000001,-0.6000000000000001,0.0,0.4,8.9,-0.9,-4.9,35.5,-6.3
1698415356000.0,16,0.6000000000000001,-0.8,0.0,0.30000000000000004,8.4,-0.9,-2.8,35.3,-7.300000000000001
1698415356016.0,16,0.6000000000000001,-1.4000000000000001,0.0,0.30000000000000004,8.1,-0.9,3.4,36.2,-8.200000000000001
1698415356032.0,16,0.7000000000000001,-1.4000000000000001,-0.8,0.4,8.1,-1.8,9.8,44.4,-8.4
1698415356048.0,16,1.1,-0.8,-1.8,0.8,8.700000000000001,-2.8000000000000003,10.9,50.1,-7.0
1698415356064.0,16,1.2000000000000002,-0.4,-2.0,0.9,9.0,-3.1,9.4,62.4,-3.5
1698415356081.0,16,0.7000000000000001,-0.4,-1.7000000000000002,0.4,9.1,-2.8000000000000003,9.0,65.7,-4.2
1698415356098.0,16,0.2,-0.30000000000000004,-1.5,-0.6000000000000001,9.5,-2.2,8.1,60.8,-5.4
1698415356114.0,16,-0.6000000000000001,0.7000000000000001,-0.5,-0.9,10.100000000000001,-1.6,1.2000000000000002,34.800000000000004,-4.9
1698415356131.0,16,-0.9,1.1,0.5,-1.2000000000000002,10.600000000000001,-0.7000000000000001,-3.0000000000000004,-3.8,-2.3000000000000003
1698415356149.0,16,-1.0,0.30000000000000004,0.4,-1.3,9.8,-0.7000000000000001,-0.2,-15.8,-4.9
1698415356165.0,16,0.2,0.1,-1.0,-0.2,9.5,-2.1,3.7000000000000006,-8.4,-9.200000000000001
1698415356183.0,16,1.6,3.0,-1.5,1.2000000000000002,12.4,-2.7,-6.7,13.3,-2.3000000000000003
1698415356199.0,16,1.4000000000000001,3.4000000000000004,-0.5,1.0,12.9,-1.6,-9.1,16.0,4.7
1698415356216.0,16,0.30000000000000004,2.4000000000000004,1.2000000000000002,0.0,11.9,0.1,0.30000000000000004,9.200000000000001,16.700000000000003
1698415356232.0,16,0.6000000000000001,0.8,1.4000000000000001,0.4,10.3,0.30000000000000004,0.9,9.4,17.7
1698415356248.0,16,1.4000000000000001,-0.4,1.1,1.2000000000000002,9.200000000000001,0.0,2.1,42.0,6.2
1698415356265.0,16,1.1,0.1,-0.2,0.9,9.600000000000001,-1.3,-2.3000000000000003,48.2,2.3000000000000003
1698415356281.0,16,-1.8,2.8000000000000003,2.5,-2.0,12.4,1.5,-27.5,74.5,4.3999999999999995
1698415356300.0,16,-3.0,2.9000000000000004,3.4000000000000004,-3.1,12.5,2.5,-22.8,79.3,3.2
1698415356315.0,16,-2.1,1.4000000000000001,2.4000000000000004,-2.2,11.0,1.6,-16.0,80.6,-2.1
1698415356332.0,16,0.30000000000000004,0.1,1.7000000000000002,0.2,9.700000000000001,0.9,-23.1,91.7,-3.3000000000000003
1698415356349.0,16,1.0,0.30000000000000004,1.6,0.9,9.9,0.9,-25.900000000000002,87.80000000000001,-3.8
1698415356365.0,16,0.4,0.9,1.1,0.4,10.5,0.5,-25.400000000000002,64.10000000000001,-5.6
1698415356382.0,16,-0.1,1.0,1.2000000000000002,-0.1,10.700000000000001,0.6000000000000001,-24.5,55.1,-5.6
1698415356398.0,16,-0.5,1.1,1.1,-0.5,10.700000000000001,0.6000000000000001,-21.1,51.300000000000004,-9.200000000000001
1698415356415.0,16,-0.1,0.4,1.2000000000000002,-0.2,10.100000000000001,0.8,-22.3,61.900000000000006,-15.6
1698415356432.0,16,0.5,0.1,0.7000000000000001,0.30000000000000004,9.700000000000001,0.30000000000000004,-23.700000000000003,84.60000000000001,-22.1
1698415356448.0,16,0.30000000000000004,-0.30000000000000004,0.5,-0.2,8.9,0.1,-24.6,95.5,-23.6
1698415356466.0,16,-0.30000000000000004,-1.1,0.30000000000000004,-1.0,8.3,-0.1,-23.900000000000002,105.3,-19.8
1698415356482.0,16,-0.9,-1.5,0.1,-1.2000000000000002,8.1,-0.1,-24.000000000000004,104.7,-16.2
1698415356498.0,16,-1.0,-1.8,0.2,-1.3,7.9,0.1,-23.6,104.4,-12.3
1698415356515.0,16,-0.9,-1.9000000000000001,0.2,-1.3,7.7,0.2,-22.5,103.80000000000001,-6.8
1698415356532.0,16,-0.9,-1.9000000000000001,0.30000000000000004,-1.3,7.7,0.2,-21.8,107.00000000000001,-5.500000000000001
1698415356550.0,16,-1.1,-1.8,0.2,-1.5,7.7,0.2,-21.0,110.30000000000001,-5.6
1698415356565.0,16,-1.5,-1.7000000000000002,0.0,-2.0,7.9,0.0,-18.1,113.7,-5.1
1698415356582.0,16,-2.0,-1.8,-0.2,-2.5,7.800000000000001,-0.1,-12.5,113.60000000000001,0.6000000000000001
1698415356598.0,16,-2.1,-2.2,-0.4,-2.5,7.4,-0.30000000000000004,-8.1,110.2,7.0
1698415356615.0,16,-2.1,-2.1,-0.8,-2.5,7.4,-0.7000000000000001,0.6000000000000001,99.4,19.700000000000003
1698415356631.0,16,-2.0,-1.4000000000000001,-0.7000000000000001,-2.4000000000000004,8.1,-0.7000000000000001,4.0,89.7,27.900000000000002
1698415356648.0,16,-1.9000000000000001,-1.1,-0.2,-2.2,8.4,-0.2,7.8,87.3,33.1
1698415356665.0,16,-1.9000000000000001,-1.1,-0.2,-2.1,8.4,-0.2,9.8,89.0,35.3
1698415356681.0,16,-1.5,-1.1,0.1,-1.7000000000000002,8.4,0.0,12.4,91.7,40.7
1698415356698.0,16,-0.5,-1.6,-0.30000000000000004,-0.5,7.9,-0.4,16.900000000000002,92.2,51.400000000000006
1698415356715.0,16,0.5,-1.4000000000000001,-1.2000000000000002,0.2,7.800000000000001,-0.9,19.700000000000003,85.4,58.2
1698415356731.0,16,0.7000000000000001,-0.7000000000000001,-0.8,1.1,8.8,-1.0,19.500000000000004,68.7,69.2
1698415356747.0,16,0.2,1.0,-0.4,0.7000000000000001,10.5,-0.7000000000000001,20.1,59.1,66.9
1698415356764.0,16,-0.5,2.0,-0.2,0.2,11.5,-0.5,22.000000000000004,44.7,62.1
1698415356781.0,16,-1.4000000000000001,5.1000000000000005,1.0,-0.6000000000000001,14.5,0.7000000000000001,13.100000000000001,24.3,28.8
1698415356798.0,16,-1.4000000000000001,5.2,3.6,-0.6000000000000001,14.700000000000001,3.2,8.3,45.2,-15.000000000000002
1698415356814.0,16,-0.8,3.6,3.2,0.0,13.100000000000001,2.9000000000000004,15.5,57.2,-23.900000000000002
1698415356832.0,16,-1.5,0.1,1.6,-0.9,9.700000000000001,1.3,21.8,79.39999999999999,-28.900000000000002
1698415356848.0,16,-2.7,0.0,1.1,-2.1,9.600000000000001,0.8,12.000000000000002,88.00000000000001,-14.600000000000001
1698415356865.0,16,-2.0,0.7000000000000001,0.9,-0.4,10.8,0.5,8.799999999999999,90.30000000000001,-4.5
1698415356881.0,16,0.1,1.3,1.0,0.7000000000000001,10.9,0.6000000000000001,6.8,89.0,9.0
1698415356898.0,16,1.3,0.6000000000000001,1.2000000000000002,2.0,10.200000000000001,0.9,8.700000000000001,96.00000000000001,7.1000000000000005
1698415356915.0,16,1.1,0.5,0.8,2.0,10.0,0.6000000000000001,10.3,105.3,6.5
1698415356932.0,16,0.9,0.6000000000000001,1.0,1.6,10.100000000000001,0.6000000000000001,11.5,125.4,7.0
1698415356948.0,16,0.2,-0.1,0.8,0.9,9.5,0.4,12.4,143.0,3.8
1698415356964.0,16,0.0,-0.4,0.6000000000000001,0.8,9.200000000000001,0.2,12.5,151.20000000000002,3.1
1698415356981.0,16,-0.4,-0.9,0.5,0.4,8.700000000000001,0.1,12.3,162.8,4.2
1698415356998.0,16,-0.8,-0.9,0.0,0.1,8.700000000000001,-0.30000000000000004,11.000000000000002,166.5,6.9
1698415357015.0,16,-0.9,-0.9,0.0,0.1,8.6,-0.2,9.9,167.7,7.8
1698415357033.0,16,-0.6000000000000001,-1.2000000000000002,0.2,0.30000000000000004,8.3,-0.1,10.9,171.0,9.3
1698415357048.0,16,-0.6000000000000001,-1.4000000000000001,-0.2,0.4,8.1,-0.6000000000000001,12.5,179.6,7.300000000000001
1698415357065.0,16,-0.5,-0.6000000000000001,-0.4,0.5,8.9,-0.7000000000000001,9.5,192.4,5.1
1698415357081.0,16,-0.4,-0.1,-0.30000000000000004,0.6000000000000001,9.4,-0.6000000000000001,7.500000000000001,197.70000000000002,4.6000000000000005
1698415357100.0,16,-0.2,0.4,-0.30000000000000004,0.9,9.9,-0.5,5.4,204.1,5.500000000000001
1698415357115.0,16,-0.2,0.6000000000000001,-0.4,0.8,10.100000000000001,-0.6000000000000001,5.4,206.9,6.5
1698415357133.0,16,-0.9,1.0,-0.6000000000000001,0.1,10.5,-0.8,7.6,208.9,6.2
1698415357149.0,16,-2.2,0.9,-1.0,-1.1,10.4,-1.1,10.600000000000001,209.60000000000002,5.500000000000001
1698415357165.0,16,-2.7,0.7000000000000001,-1.0,-1.6,10.3,-1.1,11.5,207.60000000000002,5.2
1698415357183.0,16,-2.9000000000000004,0.8,-1.4000000000000001,-1.9000000000000001,10.3,-1.5,11.3,200.4,6.000000000000001
1698415357197.0,16,-2.8000000000000003,0.8,-1.2000000000000002,-1.7000000000000002,10.3,-1.3,9.600000000000001,194.7,7.300000000000001
1698415357214.0,16,-2.1,0.5,-0.7000000000000001,-0.9,10.0,-0.7000000000000001,7.699999999999999,174.3,12.3
1698415357231.0,16,-1.9000000000000001,0.2,-0.5,-0.7000000000000001,9.700000000000001,-0.5,7.400000000000001,167.00000000000003,12.100000000000001
1698415357248.0,16,-1.9000000000000001,-0.4,-0.4,-0.7000000000000001,9.1,-0.4,8.200000000000001,152.1,7.6
1698415357264.0,16,-2.4000000000000004,-0.6000000000000001,-0.9,-1.3,8.9,-0.8,8.4,136.0,0.0
1698415357282.0,16,-2.5,-0.7000000000000001,-1.1,-1.4000000000000001,8.8,-1.0,7.2,127.3,-3.4
1698415357298.0,16,-2.5,-0.9,-0.9,-1.4000000000000001,8.6,-0.8,6.7,108.0,-7.8
1698415357315.0,16,-2.1,-0.6000000000000001,-1.0,-1.1,8.9,-0.9,6.3,94.1,-11.4
1698415357333.0,16,-1.9000000000000001,-0.6000000000000001,-0.9,-0.9,8.9,-0.8,6.4,86.5,-13.700000000000001
1698415357348.0,16,-1.2000000000000002,-0.7000000000000001,-1.0,-0.30000000000000004,8.8,-0.9,8.5,77.9,-18.0
1698415357364.0,16,-0.7000000000000001,-0.6000000000000001,-0.9,0.2,8.9,-0.9,9.1,77.5,-23.900000000000002
1698415357381.0,16,-0.6000000000000001,-0.5,-1.0,0.2,9.0,-0.9,11.2,78.2,-27.400000000000002
1698415357398.0,16,-0.8,-0.5,-1.6,-0.2,9.0,-1.6,14.0,86.60000000000001,-35.0
1698415357414.0,16,-1.6,-0.4,-1.1,-1.0,9.200000000000001,-1.1,12.000000000000002,97.00000000000001,-40.6
1698415357434.0,16,-2.2,0.30000000000000004,-0.9,-1.4000000000000001,9.3,-0.8,11.000000000000002,101.2,-40.0
1698415357448.0,16,-3.0,1.2000000000000002,0.4,-2.7,10.700000000000001,0.4,0.9,104.9,-35.5
1698415357464.0,16,-5.0,2.9000000000000004,3.1,-4.800000000000001,12.4,3.1,-1.5000000000000002,91.7,-26.1
1698415357483.0,16,-5.2,1.1,1.2000000000000002,-5.1000000000000005,10.600000000000001,1.2000000000000002,7.6,87.80000000000001,-29.400000000000002
1698415357499.0,16,-1.3,-0.9,1.4000000000000001,-1.4000000000000001,8.6,1.4000000000000001,5.0,111.4,-30.200000000000003
1698415357515.0,16,1.8,0.0,0.5,1.7000000000000002,9.5,0.4,2.3000000000000003,146.70000000000002,-26.200000000000003
1698415357532.0,16,2.6,0.30000000000000004,0.7000000000000001,2.5,9.8,0.7000000000000001,3.2,150.3,-20.1
1698415357548.0,16,2.3000000000000003,-0.5,0.5,2.2,9.1,0.5,8.200000000000001,145.9,-6.6000000000000005
1698415357564.0,16,-0.9,-1.3,0.8,-1.0,8.200000000000001,0.8,4.5,139.9,0.6000000000000001
1698415357581.0,16,-2.0,-1.2000000000000002,0.7000000000000001,-2.2,8.4,0.6000000000000001,2.0,141.0,2.8
1698415357598.0,16,-2.0,-0.5,0.0,-2.2,9.0,-0.1,2.0,142.3,4.6000000000000005
1698415357616.0,16,-1.5,0.0,-1.2000000000000002,-1.7000000000000002,9.5,-1.3,3.8,132.6,6.3
1698415357632.0,16,-1.5,-0.1,-1.5,-1.9000000000000001,9.5,-1.7000000000000002,4.9,126.20000000000002,7.400000000000001
1698415357648.0,16,-2.0,0.2,-1.2000000000000002,-2.1,9.700000000000001,-1.4000000000000001,5.6,108.2,7.500000000000001
1698415357665.0,16,-1.6,0.8,-1.3,-1.7000000000000002,10.4,-1.4000000000000001,5.2,98.7,5.500000000000001
1698415357683.0,16,-1.8,1.3,-1.0,-1.7000000000000002,10.700000000000001,-1.5,3.2,94.9,3.9
1698415357698.0,16,-2.0,1.0,-0.9,-2.1,10.600000000000001,-1.1,-1.3,91.10000000000001,-3.0000000000000004
1698415357714.0,16,-2.2,0.5,-1.3,-2.3000000000000003,10.100000000000001,-1.5,-4.3999999999999995,85.5,-8.4
1698415357731.0,16,-2.0,0.2,-1.1,-2.2,9.700000000000001,-1.3,-7.1000000000000005,82.4,-9.600000000000001
1698415357748.0,16,-1.9000000000000001,-0.7000000000000001,-0.8,-2.2,8.9,-0.9,-10.1,81.5,-10.4
1698415357764.0,16,-1.8,-0.8,-1.0,-2.0,8.700000000000001,-1.1,-13.100000000000001,77.9,-9.600000000000001
1698415357781.0,16,-1.7000000000000002,-0.9,-0.7000000000000001,-2.1,8.700000000000001,-0.7000000000000001,-14.800000000000002,76.0,-9.3
1698415357798.0,16,-1.8,-1.0,-0.5,-2.1,8.5,-0.6000000000000001,-14.800000000000002,75.4,-8.200000000000001
1698415357817.0,16,-1.8,-1.2000000000000002,-0.9,-2.2,8.3,-1.0,-12.3,75.4,-4.9
1698415357832.0,16,-1.8,-1.4000000000000001,-1.2000000000000002,-2.1,8.1,-1.2000000000000002,-10.4,73.10000000000001,-1.0
1698415357848.0,16,-1.8,-1.5,-1.3,-2.2,8.0,-1.3,-9.5,71.9,0.9
1698415357864.0,16,-1.9000000000000001,-1.3,-1.8,-2.3000000000000003,8.1,-1.8,-8.600000000000001,66.2,5.300000000000001
1698415357882.0,16,-2.2,-1.2000000000000002,-2.1,-2.5,8.3,-2.1,-8.700000000000001,58.2,10.4
1698415357899.0,16,-2.4000000000000004,-1.0,-2.2,-2.7,8.4,-2.2,-9.0,54.6,11.8
1698415357915.0,16,-2.5,-0.9,-2.2,-2.8000000000000003,8.6,-2.2,-9.4,51.400000000000006,12.6
1698415357932.0,16,-2.7,-0.9,-2.2,-3.0,8.5,-2.2,-9.8,48.800000000000004,14.800000000000002
1698415357948.0,16,-2.4000000000000004,-1.2000000000000002,-1.4000000000000001,-2.7,8.3,-1.4000000000000001,-10.0,45.3,18.2
1698415357965.0,16,-1.6,-1.1,-0.9,-1.9000000000000001,8.4,-0.9,-7.9,42.5,17.1
1698415357981.0,16,-1.3,-0.30000000000000004,-1.0,-1.5,9.1,-0.9,-7.6,39.6,10.600000000000001
1698415358000.0,16,-1.4000000000000001,0.30000000000000004,-1.4000000000000001,-1.6,9.700000000000001,-1.3,-8.0,38.2,6.9
1698415358015.0,16,-1.6,0.9,-1.7000000000000002,-2.0,11.100000000000001,-1.7000000000000002,-8.5,37.5,3.7000000000000006
1698415358032.0,16,-1.8,2.5,-1.6,-2.0,11.9,-1.5,-10.4,36.9,-1.6
1698415358048.0,16,-1.8,3.5,-1.9000000000000001,-2.1,13.0,-1.8,-7.2,34.0,-4.2
1698415358064.0,16,-2.5,3.2,-1.6,-2.8000000000000003,12.700000000000001,-1.5,-5.2,34.50000000000001,-7.0
1698415358082.0,16,-2.7,2.8000000000000003,-1.4000000000000001,-3.1,12.3,-1.3,1.6,28.6,-9.9
1698415358098.0,16,-2.3000000000000003,3.0,-0.6000000000000001,-2.7,12.5,-0.5,1.4,21.200000000000003,-11.8
1698415358114.0,16,-1.5,2.1,-1.6,-1.9000000000000001,11.700000000000001,-1.6,12.8,13.700000000000001,-16.900000000000002
1698415358132.0,16,-1.6,1.9000000000000001,-1.2000000000000002,-2.1,11.4,-1.3,10.600000000000001,-11.3,-15.5
1698415358148.0,16,-1.4000000000000001,2.2,0.30000000000000004,-1.9000000000000001,11.8,0.30000000000000004,8.3,-24.3,-12.000000000000002
1698415358166.0,16,-0.8,2.6,1.7000000000000002,-1.3,12.200000000000001,1.6,9.5,-27.400000000000002,-6.7
1698415358181.0,16,-0.4,0.1,1.7000000000000002,-1.0,9.8,1.6,12.6,-26.1,2.8
1698415358198.0,16,-0.30000000000000004,-0.6000000000000001,1.6,-1.0,9.0,1.9000000000000001,10.3,-29.900000000000006,8.1
1698415358215.0,16,-0.5,-0.2,2.3000000000000003,-1.0,9.5,2.3000000000000003,1.8,-40.9,14.3
1698415358233.0,16,-0.5,0.30000000000000004,2.6,-1.0,9.9,2.5,-1.7,-41.7,14.3
1698415358248.0,16,-0.5,0.30000000000000004,2.7,-1.0,9.9,2.6,-1.7,-26.3,9.1
1698415358264.0,16,-0.5,0.0,1.9000000000000001,-1.0,9.600000000000001,1.9000000000000001,0.7,-8.700000000000001,7.0
1698415358281.0,16,-0.30000000000000004,0.2,1.7000000000000002,-0.8,9.8,1.7000000000000002,0.5,-6.4,8.600000000000001
1698415358300.0,16,-0.4,0.4,1.3,-0.8,10.0,1.3,1.0,-9.3,16.1
1698415358315.0,16,-0.4,0.30000000000000004,1.2000000000000002,-0.8,10.0,1.2000000000000002,1.2000000000000002,-12.9,20.1
1698415358332.0,16,-0.5,-0.1,1.0,-0.8,9.8,1.1,1.5000000000000002,-16.900000000000002,22.5
1698415358348.0,16,-0.5,-0.5,1.0,-0.8,9.1,1.0,1.4,-21.200000000000003,22.6
1698415358364.0,16,-0.4,-1.2000000000000002,0.9,-0.6000000000000001,8.5,0.9,2.1,-19.3,18.900000000000002
1698415358381.0,16,-0.2,-1.8,0.6000000000000001,-0.4,7.800000000000001,0.6000000000000001,1.0,-13.6,17.599999999999998
1698415358399.0,16,0.0,-2.0,0.5,0.0,7.6000000000000005,0.6000000000000001,-0.1,-10.600000000000001,19.200000000000003
1698415358414.0,16,0.30000000000000004,-2.0,0.30000000000000004,0.30000000000000004,7.6000000000000005,0.30000000000000004,0.2,-9.0,19.700000000000003
1698415358431.0,16,0.6000000000000001,-2.0,-0.1,0.6000000000000001,7.6000000000000005,0.0,0.6000000000000001,-6.2,19.500000000000004
1698415358447.0,16,0.7000000000000001,-2.0,-0.2,0.9,7.5,-0.2,1.0,-3.5,18.1
1698415358465.0,16,0.7000000000000001,-2.0,-0.30000000000000004,0.9,7.5,-0.30000000000000004,1.0,-1.4,16.2
1698415358481.0,16,0.4,-2.1,-0.4,0.6000000000000001,7.4,-0.4,1.9,2.4000000000000004,11.1
1698415358497.0,16,0.0,-2.3000000000000003,-0.5,0.2,7.300000000000001,-0.5,3.2,5.4,5.9
1698415358514.0,16,-0.1,-2.3000000000000003,-0.30000000000000004,0.1,7.2,-0.30000000000000004,3.8,7.699999999999999,2.3000000000000003
1698415358531.0,16,-0.1,-2.4000000000000004,-0.30000000000000004,0.1,7.1000000000000005,-0.30000000000000004,10.9,14.0,-6.3
1698415358548.0,16,-0.1,-2.6,-0.5,0.1,6.9,-0.6000000000000001,17.1,18.900000000000002,-9.9
1698415358565.0,16,-0.2,-3.0,-1.7000000000000002,0.0,6.5,-1.9000000000000001,28.400000000000002,27.0,-15.8
1698415358581.0,16,0.0,-2.5,-2.3000000000000003,0.1,6.9,-2.6,29.700000000000003,38.0,-13.8
1698415358600.0,16,0.0,-0.9,-1.8,0.1,8.5,-2.2,27.8,40.4,-5.1
1698415358614.0,16,-0.5,0.0,-1.5,-0.4,9.4,-2.0,25.400000000000002,37.800000000000004,0.6000000000000001
1698415358631.0,16,-1.2000000000000002,1.3,-1.0,-1.1,10.700000000000001,-1.5,15.299999999999999,13.700000000000001,15.100000000000001
1698415358648.0,16,-2.6,3.8000000000000003,-1.2000000000000002,-1.7000000000000002,11.600000000000001,-1.8,11.000000000000002,2.7,19.0
1698415358664.0,16,-3.5,6.0,0.1,-3.4000000000000004,15.5,-0.4,-12.4,-0.6000000000000001,10.3
1698415358681.0,16,-4.2,5.2,3.4000000000000004,-4.0,14.8,2.9000000000000004,14.3,-19.6,2.8
1698415358698.0,16,-2.0,2.3000000000000003,-0.4,-1.9000000000000001,11.8,-0.9,35.3,-36.6,8.5
1698415358714.0,16,3.2,2.0,0.2,3.4000000000000004,11.5,-0.4,16.400000000000002,-3.7000000000000006,20.2
1698415358731.0,16,3.7,1.1,0.8,3.9000000000000004,10.600000000000001,0.1,14.700000000000001,8.0,10.0
1698415358748.0,16,1.3,2.9000000000000004,1.6,1.6,12.5,0.9,6.8,50.2,9.0
1698415358765.0,16,0.2,3.3000000000000003,3.1,0.6000000000000001,12.8,2.4000000000000004,2.6,47.2,13.100000000000001
1698415358781.0,16,-1.2000000000000002,2.1,2.8000000000000003,-0.8,11.700000000000001,2.1,5.1,43.0,7.8
1698415358798.0,16,-1.0,0.7000000000000001,2.6,-0.6000000000000001,10.3,2.0,-0.5,57.400000000000006,-3.7000000000000006
1698415358814.0,16,-0.4,0.30000000000000004,2.3000000000000003,0.0,9.9,1.7000000000000002,-3.1,60.8,-7.6
1698415358831.0,16,0.2,0.4,1.6,0.5,10.0,1.0,-5.6,48.800000000000004,-9.5
1698415358848.0,16,0.0,0.4,1.2000000000000002,0.6000000000000001,10.0,0.7000000000000001,-4.800000000000001,37.4,-6.5
1698415358864.0,16,-0.30000000000000004,0.5,1.4000000000000001,0.1,10.200000000000001,0.9,-4.2,16.1,-2.1
1698415358881.0,16,-0.7000000000000001,0.6000000000000001,0.9,-0.4,10.200000000000001,0.4,-2.0,6.6000000000000005,-10.4
1698415358898.0,16,-0.9,-0.2,1.0,-0.7000000000000001,9.4,0.5,-3.5,8.5,-23.2
1698415358915.0,16,-1.0,-0.6000000000000001,0.9,-0.8,9.1,0.4,-4.800000000000001,12.100000000000001,-28.1
1698415358932.0,16,-0.9,-1.0,0.8,-0.8,8.6,0.4,-6.6000000000000005,18.400000000000002,-31.8
1698415358947.0,16,-0.9,-1.6,0.5,-0.9,8.0,0.1,-6.2,23.1,-30.000000000000004
1698415358965.0,16,-1.0,-2.0,0.4,-1.0,7.6000000000000005,0.0,-5.8,23.2,-28.0
1698415358981.0,16,-1.2000000000000002,-2.6,0.2,-1.4000000000000001,7.0,-0.2,-5.300000000000001,17.5,-22.2
1698415358998.0,16,-1.4000000000000001,-2.7,0.30000000000000004,-1.6,6.800000000000001,-0.1,-5.4,10.2,-17.400000000000002
1698415359014.0,16,-1.4000000000000001,-2.8000000000000003,0.30000000000000004,-1.7000000000000002,6.800000000000001,-0.1,-5.0,7.2,-15.2
1698415359032.0,16,-1.3,-2.7,0.1,-1.6,6.800000000000001,-0.2,-4.800000000000001,2.9,-9.0
1698415359048.0,16,-1.3,-2.3000000000000003,0.0,-1.6,7.2,-0.30000000000000004,-4.6000000000000005,0.7,-5.1
1698415359064.0,16,-1.1,-2.1,-0.2,-1.6,7.300000000000001,-0.4,-3.9,0.0,-2.4000000000000004
1698415359081.0,16,-1.0,-2.2,-0.30000000000000004,-1.3,7.300000000000001,-0.6000000000000001,-1.5000000000000002,-0.8,3.1
1698415359098.0,16,-0.9,-2.1,-0.4,-1.3,7.4,-0.7000000000000001,1.4,1.4,8.600000000000001
1698415359114.0,16,-1.5,-1.8,-0.6000000000000001,-1.8,7.6000000000000005,-1.0,4.0,1.4,11.5
1698415359131.0,16,-1.7000000000000002,-1.7000000000000002,-0.7000000000000001,-2.0,7.7,-1.0,11.4,-4.0,15.6
1698415359148.0,16,-1.9000000000000001,-1.6,-0.6000000000000001,-2.1,7.9,-1.0,15.2,-7.400000000000001,17.1
1698415359164.0,16,-1.9000000000000001,-0.8,-1.3,-2.1,8.700000000000001,-1.8,21.900000000000002,-15.299999999999999,15.5
1698415359180.0,16,-1.4000000000000001,0.0,-1.2000000000000002,-1.6,9.4,-1.8,20.7,-21.6,12.6
1698415359197.0,16,-0.6000000000000001,1.8,0.4,-0.8,11.200000000000001,-0.2,7.9,-13.4,1.2000000000000002
1698415359214.0,16,1.1,2.5,0.0,1.0,12.0,-0.6000000000000001,-3.8,15.2,-6.6000000000000005
1698415359231.0,16,2.7,3.5,-0.5,2.5,12.9,-1.1,-5.9,16.5,0.0
1698415359248.0,16,2.3000000000000003,3.7,0.1,2.2,13.200000000000001,-0.5,9.1,-3.4,8.9
1698415359264.0,16,-2.0,3.5,-1.0,-2.2,13.0,-1.7000000000000002,19.700000000000003,-14.200000000000001,-5.7
1698415359281.0,16,-3.6,3.7,-0.1,-3.8000000000000003,13.3,-0.8,15.9,-24.200000000000003,-15.2
1698415359298.0,16,-4.2,3.1,0.8,-4.5,12.700000000000001,0.1,18.2,-22.4,-22.4
1698415359314.0,16,-1.6,2.1,2.1,-2.0,11.700000000000001,1.4000000000000001,6.7,-30.200000000000003,-19.200000000000003
1698415359331.0,16,-0.5,1.2000000000000002,2.3000000000000003,-1.0,10.8,1.6,6.7,-37.300000000000004,-13.3
1698415359348.0,16,0.5,0.7000000000000001,2.3000000000000003,0.1,10.3,1.6,-3.2,-54.0,-2.3000000000000003
1698415359364.0,16,0.9,1.0,3.4000000000000004,0.5,10.600000000000001,2.7,-15.100000000000001,-58.400000000000006,-2.9
1698415359381.0,16,1.2000000000000002,1.2000000000000002,3.5,0.7000000000000001,10.8,2.9000000000000004,-13.6,-50.9,-0.7
1698415359398.0,16,0.9,1.0,2.5,0.4,10.600000000000001,2.0,-3.6,-24.9,2.5
1698415359414.0,16,0.6000000000000001,0.5,2.4000000000000004,0.1,10.100000000000001,1.8,-0.7,-15.5,4.0
1698415359431.0,16,0.30000000000000004,0.4,1.3,-0.1,10.0,0.8,3.1,-1.0999999999999999,13.4
1698415359448.0,16,0.1,0.6000000000000001,1.2000000000000002,-0.2,10.200000000000001,0.7000000000000001,1.4,4.2,24.200000000000003
1698415359464.0,16,0.30000000000000004,0.1,0.6000000000000001,0.0,9.700000000000001,0.1,1.6,3.2,28.6
1698415359481.0,16,0.30000000000000004,-0.30000000000000004,0.6000000000000001,0.1,9.3,0.1,0.30000000000000004,0.1,28.700000000000003
1698415359498.0,16,0.5,-1.0,0.7000000000000001,0.4,8.6,0.2,-2.4000000000000004,-2.5,26.700000000000003
1698415359514.0,16,0.5,-1.3,0.8,0.5,8.3,0.30000000000000004,-3.5,-0.9,24.8
1698415359531.0,16,0.4,-1.8,0.8,0.5,7.7,0.30000000000000004,-4.9,1.8,21.700000000000003
1698415359547.0,16,0.30000000000000004,-2.0,0.4,0.4,7.6000000000000005,0.0,-5.6,4.800000000000001,18.0
1698415359564.0,16,0.1,-2.2,0.30000000000000004,0.30000000000000004,7.4,-0.1,-5.500000000000001,5.7,14.500000000000002
1698415359581.0,16,0.1,-2.2,0.1,0.30000000000000004,7.300000000000001,-0.30000000000000004,-5.0,6.000000000000001,12.100000000000001
1698415359598.0,16,0.0,-2.3000000000000003,-0.1,0.2,7.2,-0.5,-6.3,5.7,6.7
1698415359614.0,16,-0.1,-2.4000000000000004,-0.1,0.1,7.1000000000000005,-0.5,-7.8,5.2,2.1
1698415359632.0,16,-0.1,-2.4000000000000004,0.0,0.1,7.1000000000000005,-0.4,-8.3,4.3999999999999995,0.4
1698415359648.0,16,0.1,-2.2,0.2,0.30000000000000004,7.300000000000001,-0.1,-6.7,4.2,-3.5
1698415359664.0,16,0.30000000000000004,-2.2,0.1,0.4,7.300000000000001,-0.30000000000000004,0.0,7.400000000000001,-8.5
1698415359681.0,16,0.2,-2.2,-0.30000000000000004,0.4,7.2,-0.6000000000000001,5.2,9.700000000000001,-11.2
1698415359698.0,16,0.2,-2.1,-1.2000000000000002,0.30000000000000004,7.4,-1.6,14.3,16.400000000000002,-15.6
1698415359714.0,16,0.1,-1.5,-1.8,0.2,8.0,-2.3000000000000003,17.599999999999998,21.8,-17.0
1698415359731.0,16,0.0,-0.5,-1.8,0.1,8.9,-2.4000000000000004,18.1,20.1,-16.1
1698415359748.0,16,0.0,0.1,-1.5,0.0,9.5,-2.1,16.2,13.200000000000001,-11.8
1698415359764.0,16,-0.6000000000000001,0.9,-0.6000000000000001,-0.6000000000000001,10.3,-1.2000000000000002,14.200000000000001,0.5,-10.2
1698415359782.0,16,-1.0,1.2000000000000002,-0.30000000000000004,-1.1,10.600000000000001,-0.9,11.4,-6.000000000000001,-10.600000000000001
1698415359797.0,16,-1.4000000000000001,1.3,-0.6000000000000001,-1.5,10.700000000000001,-1.3,12.8,-21.200000000000003,-17.3
1698415359814.0,16,-0.9,1.1,-1.6,-1.1,10.5,-2.4000000000000004,16.8,-2.1,-29.800000000000004
1698415359831.0,16,-0.30000000000000004,3.2,-1.3,-0.30000000000000004,14.100000000000001,1.1,-4.2,31.5,-14.800000000000002
1698415359847.0,16,-0.5,5.0,2.7,-0.8,14.5,1.9000000000000001,20.0,-3.1,-3.0000000000000004
1698415359864.0,16,-0.8,1.8,-1.6,-1.1,11.3,-2.5,33.300000000000004,-29.000000000000004,6.4
1698415359882.0,16,0.30000000000000004,1.6,2.6,0.0,11.100000000000001,1.6,8.9,-23.2,3.2
1698415359898.0,16,0.2,2.1,2.9000000000000004,-0.1,11.600000000000001,2.0,9.0,-27.400000000000002,4.7
1698415359914.0,16,-0.2,2.7,3.3000000000000003,-0.4,12.200000000000001,2.4000000000000004,4.1000000000000005,-28.8,17.200000000000003
1698415359932.0,16,-0.1,1.0,3.6,0.5,9.200000000000001,1.9000000000000001,7.400000000000001,-38.5,19.700000000000003
1698415359948.0,16,1.9000000000000001,-0.5,1.8,1.7000000000000002,9.0,0.9,8.200000000000001,-28.200000000000003,15.6
1698415359964.0,16,2.8000000000000003,1.1,1.1,2.7,10.600000000000001,0.2,-1.7,-31.900000000000002,12.200000000000001
1698415359981.0,16,-0.7000000000000001,2.0,1.6,-0.8,11.600000000000001,0.7000000000000001,-2.1999999999999997,-64.7,10.4
1698415360001.0,16,-2.8000000000000003,0.5,1.4000000000000001,-2.9000000000000004,10.0,0.5,1.0,-88.8,8.3
1698415360014.0,16,-2.6,0.1,1.2000000000000002,-2.7,9.700000000000001,0.4,-0.7,-96.4,6.000000000000001
1698415360031.0,16,-1.3,0.1,0.9,-2.1,9.600000000000001,0.2,-3.1,-102.9,2.9
1698415360047.0,16,-0.8,0.30000000000000004,0.7000000000000001,-1.0,9.8,-0.1,-6.7,-116.2,-4.300000000000001
1698415360064.0,16,-0.7000000000000001,0.0,0.5,-1.0,9.5,-0.30000000000000004,-6.4,-135.0,-9.5
1698415360081.0,16,-0.9,-0.30000000000000004,0.30000000000000004,-1.2000000000000002,9.3,-0.4,-5.0,-151.10000000000002,-10.2
1698415360097.0,16,-1.0,-0.4,0.4,-1.3,9.1,-0.30000000000000004,-4.5,-156.8,-9.3
1698415360114.0,16,-0.9,-0.9,0.4,-1.3,8.700000000000001,-0.30000000000000004,-3.7000000000000006,-167.6,-7.0
1698415360131.0,16,-0.8,-1.0,0.2,-1.3,8.5,-0.4,-3.6,-174.4,-3.5
1698415360148.0,16,-0.7000000000000001,-0.9,0.1,-1.2000000000000002,8.6,-0.5,-3.3000000000000003,-178.4,-2.0
1698415360164.0,16,-0.4,-0.9,-0.1,-1.0,8.6,-0.7000000000000001,-3.4,-186.0,-1.0
1698415360181.0,16,-0.30000000000000004,-0.9,-0.1,-0.8,8.700000000000001,-0.8,-4.1000000000000005,-192.10000000000002,-2.3000000000000003
1698415360198.0,16,-0.1,-0.7000000000000001,-0.4,-0.7000000000000001,8.9,-0.9,-4.2,-195.0,-2.8
1698415360214.0,16,0.1,-0.4,-0.7000000000000001,-0.5,9.1,-1.2000000000000002,-4.300000000000001,-199.8,-4.1000000000000005
1698415360231.0,16,0.1,-0.2,-0.7000000000000001,-0.6000000000000001,9.3,-1.1,-5.300000000000001,-202.9,-5.4
1698415360248.0,16,0.2,-0.2,-0.9,-0.6000000000000001,9.3,-1.2000000000000002,-4.6000000000000005,-203.10000000000002,-4.9
1698415360265.0,16,0.4,0.0,-1.3,-0.4,9.600000000000001,-1.6,-4.2,-202.70000000000002,-2.3000000000000003
1698415360281.0,16,0.4,0.2,-1.2000000000000002,-0.4,9.700000000000001,-1.4000000000000001,-4.9,-200.9,1.5000000000000002
1698415360299.0,16,0.1,0.30000000000000004,-1.3,-0.7000000000000001,9.9,-1.5,-5.0,-200.60000000000002,3.2
1698415360316.0,16,0.0,0.2,-1.5,-0.8,9.8,-1.6,-5.4,-203.9,5.7
1698415360331.0,16,-0.30000000000000004,-0.1,-1.5,-1.1,9.4,-1.6,-9.3,-208.3,7.500000000000001
1698415360348.0,16,-0.30000000000000004,-0.2,-1.4000000000000001,-1.0,9.3,-1.3,-11.5,-210.00000000000003,8.5
1698415360364.0,16,-0.1,-0.4,-1.2000000000000002,-0.8,9.200000000000001,-1.2000000000000002,-13.9,-209.5,11.6
1698415360381.0,16,0.1,-0.8,-1.1,-0.5,8.700000000000001,-0.9,-15.000000000000002,-205.60000000000002,12.100000000000001
1698415360398.0,16,0.1,-1.0,-1.3,-0.6000000000000001,8.5,-1.1,-14.600000000000001,-203.6,11.5
1698415360414.0,16,-0.5,-1.0,-1.7000000000000002,-1.1,8.5,-1.5,-15.8,-200.4,8.4
1698415360431.0,16,-1.4000000000000001,-1.0,-1.8,-2.0,8.5,-1.5,-17.8,-202.1,6.7
1698415360448.0,16,-1.8,-1.4000000000000001,-1.6,-2.3000000000000003,8.1,-1.2000000000000002,-16.8,-201.5,7.9
1698415360464.0,16,-2.1,-2.0,-2.2,-2.6,7.5,-1.7000000000000002,-13.9,-201.9,12.6
1698415360481.0,16,-0.7000000000000001,-1.8,-1.6,-1.2000000000000002,7.7,-1.0,-29.1,-203.4,16.8
1698415360498.0,16,0.0,-1.3,-1.5,-0.4,8.200000000000001,-0.8,-32.4,-199.3,18.6
1698415360514.0,16,1.7000000000000002,1.0,-0.7000000000000001,1.4000000000000001,10.5,0.1,-43.900000000000006,-201.10000000000002,15.6
1698415360531.0,16,4.5,4.0,1.0,4.4,13.5,2.0,-60.1,-194.4,15.100000000000001
1698415360547.0,16,5.5,3.6,1.3,5.5,13.9,2.8000000000000003,-55.900000000000006,-188.9,16.2
1698415360564.0,16,4.1000000000000005,1.8,0.6000000000000001,4.2,11.3,1.8,-36.9,-171.0,15.399999999999999
1698415360582.0,16,1.8,0.30000000000000004,0.30000000000000004,2.0,9.8,1.6,-34.50000000000001,-165.8,12.100000000000001
1698415360598.0,16,-0.2,0.0,-1.1,0.1,9.5,0.30000000000000004,-33.6,-142.8,18.2
1698415360614.0,16,1.1,1.0,-2.0,1.6,10.5,-0.6000000000000001,-31.7,-132.1,28.3
1698415360631.0,16,1.8,0.7000000000000001,-1.8,2.4000000000000004,10.100000000000001,-0.30000000000000004,-32.5,-134.8,16.1
1698415360648.0,16,1.4000000000000001,0.30000000000000004,-1.0,2.1,9.8,0.6000000000000001,-33.0,-133.60000000000002,-1.5000000000000002
1698415360664.0,16,1.2000000000000002,-0.2,-1.0,1.9000000000000001,9.200000000000001,0.6000000000000001,-31.900000000000002,-132.5,-8.1
1698415360681.0,16,1.3,-0.7000000000000001,-1.3,2.0,8.6,0.30000000000000004,-30.4,-130.4,-12.3
1698415360698.0,16,1.2000000000000002,-0.9,-1.5,2.0,8.5,0.30000000000000004,-32.5,-123.19999999999999,-9.600000000000001
1698415360714.0,16,1.1,-0.6000000000000001,-1.4000000000000001,2.0,8.700000000000001,0.4,-33.800000000000004,-120.80000000000001,-7.400000000000001
1698415360731.0,16,1.1,-0.6000000000000001,-1.2000000000000002,2.0,8.8,0.6000000000000001,-36.9,-124.50000000000001,-7.6
1698415360748.0,16,1.0,-0.7000000000000001,-0.9,2.0,8.6,1.1,-39.1,-128.5,-9.3
1698415360764.0,16,1.0,-0.8,-0.8,2.0,8.5,1.1,-42.400000000000006,-134.5,-12.6
1698415360781.0,16,0.9,-0.8,-0.5,2.0,8.4,1.5,-45.800000000000004,-140.0,-16.0
1698415360797.0,16,0.6000000000000001,-0.9,-0.5,1.7000000000000002,8.3,1.7000000000000002,-45.9,-144.70000000000002,-18.6
1698415360814.0,16,0.4,-1.0,-0.4,1.5,8.200000000000001,1.7000000000000002,-45.0,-146.0,-18.2
1698415360831.0,16,0.5,-0.9,-0.30000000000000004,1.7000000000000002,8.3,1.9000000000000001,-44.3,-146.9,-19.6
1698415360849.0,16,1.2000000000000002,-0.6000000000000001,-0.4,2.4000000000000004,8.5,1.9000000000000001,-43.6,-143.3,-21.8
1698415360865.0,16,1.3,-0.5,-0.1,2.6,8.6,2.2,-43.300000000000004,-141.1,-23.5
1698415360881.0,16,1.3,-0.2,-0.1,2.6,8.9,2.3000000000000003,-40.2,-131.9,-21.700000000000003
1698415360898.0,16,1.1,-0.5,0.1,2.4000000000000004,8.5,2.6,-36.5,-124.8,-21.400000000000002
1698415360915.0,16,0.6000000000000001,-0.8,-0.6000000000000001,2.2,8.200000000000001,2.2,-35.199999999999996,-119.89999999999999,-24.000000000000004
1698415360931.0,16,0.5,-0.5,-0.5,1.9000000000000001,8.5,2.1,-36.3,-105.7,-24.1
1698415360948.0,16,0.5,-0.2,-0.5,1.9000000000000001,8.9,2.1,-36.0,-99.4,-20.8
1698415360964.0,16,0.5,-0.4,-0.4,1.9000000000000001,8.6,2.2,-34.2,-86.80000000000001,-18.900000000000002
1698415360981.0,16,0.4,-0.4,-0.8,1.9000000000000001,8.6,1.9000000000000001,-31.7,-74.60000000000001,-17.8
1698415360998.0,16,0.4,-0.5,-0.8,1.9000000000000001,8.4,2.0,-30.599999999999998,-69.2,-17.599999999999998
1698415361015.0,16,-0.4,-0.2,-0.2,1.1,8.700000000000001,2.6,-31.7,-52.1,-24.200000000000003
1698415361031.0,16,-0.7000000000000001,0.0,-0.6000000000000001,0.7000000000000001,8.9,2.2,-31.3,-48.400000000000006,-25.1
1698415361048.0,16,-0.8,0.0,0.0,0.6000000000000001,8.9,2.9000000000000004,-35.6,-48.50000000000001,-27.6
1698415361064.0,16,-0.8,-0.4,-0.8,0.5,7.6000000000000005,2.0,-35.4,-42.6,-31.8
1698415361081.0,16,-1.0,-2.1,-0.7000000000000001,0.30000000000000004,6.7,2.4000000000000004,-36.4,-15.8,-41.7
1698415361098.0,16,-1.0,-1.5,-1.2000000000000002,0.2,7.300000000000001,2.0,-36.3,1.8,-42.2
1698415361116.0,16,-1.0,-0.6000000000000001,-1.3,0.1,8.200000000000001,2.0,-38.300000000000004,-3.3000000000000003,-38.1
1698415361133.0,16,-1.2000000000000002,0.6000000000000001,-0.4,-0.2,9.3,3.0,-41.6,-20.0,-31.099999999999998
1698415361148.0,16,-1.6,1.4000000000000001,-0.5,-0.7000000000000001,10.100000000000001,2.9000000000000004,-37.800000000000004,-32.800000000000004,-31.900000000000002
1698415361165.0,16,-1.6,0.6000000000000001,-0.4,-0.7000000000000001,9.4,3.1,-38.5,-34.900000000000006,-34.50000000000001
1698415361182.0,16,-1.8,-0.2,-0.7000000000000001,-1.1,8.5,2.9000000000000004,-39.1,-30.599999999999998,-47.400000000000006
1698415361199.0,16,-1.5,-0.30000000000000004,-0.7000000000000001,-0.8,8.3,3.0,-39.400000000000006,-29.200000000000003,-50.300000000000004
1698415361215.0,16,-1.4000000000000001,-0.4,-0.7000000000000001,-0.7000000000000001,8.0,2.8000000000000003,-37.300000000000004,-28.200000000000003,-51.7
1698415361232.0,16,-1.4000000000000001,-1.2000000000000002,-1.1,-1.0,7.4,2.7,-34.1,-28.3,-50.6
1698415361247.0,16,-1.4000000000000001,-1.4000000000000001,-0.7000000000000001,-1.1,7.1000000000000005,3.2,-33.900000000000006,-27.7,-50.6
1698415361265.0,16,-1.2000000000000002,-1.3,-1.0,-0.9,7.2,3.0,-33.800000000000004,-25.0,-50.5
1698415361282.0,16,-0.4,-1.4000000000000001,0.0,-0.30000000000000004,7.0,4.1000000000000005,-33.800000000000004,-19.500000000000004,-48.1
1698415361298.0,16,-0.5,-1.5,-0.6000000000000001,-0.5,6.9,3.6,-29.1,-9.700000000000001,-43.1
1698415361315.0,16,-0.4,-1.3,-0.7000000000000001,-0.4,7.0,3.5,-28.400000000000002,-11.6,-39.699999999999996
1698415361331.0,16,-0.30000000000000004,-1.2000000000000002,-0.5,-0.4,7.1000000000000005,3.8000000000000003,-28.200000000000003,-12.4,-35.7
1698415361347.0,16,-0.6000000000000001,-0.8,-0.8,-0.8,7.4,3.6,-27.8,-14.700000000000001,-33.0
1698415361364.0,16,-0.8,-0.7000000000000001,-0.7000000000000001,-1.1,7.6000000000000005,3.6,-28.1,-15.399999999999999,-32.800000000000004
1698415361382.0,16,-1.2000000000000002,-0.7000000000000001,-0.4,-1.5,7.5,4.1000000000000005,-30.299999999999997,-16.400000000000002,-33.400000000000006
1698415361398.0,16,-1.1,-0.2,0.0,-1.5,7.9,4.6000000000000005,-31.8,-19.1,-32.0
1698415361415.0,16,-0.8,-0.4,0.30000000000000004,-1.2000000000000002,7.7,4.9,-32.4,-17.200000000000003,-31.7
1698415361432.0,16,-0.7000000000000001,-0.4,0.30000000000000004,-1.1,7.6000000000000005,5.0,-33.900000000000006,-16.5,-30.9
1698415361448.0,16,-0.7000000000000001,-0.1,0.30000000000000004,-1.2000000000000002,7.9,5.1000000000000005,-35.5,-13.0,-28.8
1698415361464.0,16,-0.7000000000000001,0.30000000000000004,0.4,-1.3,8.200000000000001,5.300000000000001,-36.0,-13.9,-26.9
1698415361483.0,16,-1.0,0.0,0.6000000000000001,-1.7000000000000002,7.9,5.5,-36.3,-18.400000000000002,-22.3
1698415361499.0,16,-1.3,0.30000000000000004,0.4,-2.0,8.1,5.5,-35.3,-19.8,-18.2
1698415361517.0,16,-1.2000000000000002,0.0,0.7000000000000001,-1.9000000000000001,7.800000000000001,5.9,-33.2,-21.6,-15.8
1698415361532.0,16,-1.0,0.0,0.4,-1.7000000000000002,7.7,5.6000000000000005,-32.0,-23.8,-13.4
1698415361548.0,16,-0.6000000000000001,0.1,0.8,-1.3,7.7,6.2,-30.299999999999997,-31.099999999999998,-7.699999999999999
1698415361566.0,16,-0.5,0.1,0.8,-1.2000000000000002,7.7,6.2,-28.1,-31.8,-5.4
1698415361584.0,16,-0.4,0.0,0.7000000000000001,-1.0,7.6000000000000005,6.2,-24.000000000000004,-31.4,-2.1999999999999997
1698415361598.0,16,-0.5,-0.1,0.7000000000000001,-1.0,7.5,6.2,-20.0,-32.2,2.7
1698415361616.0,16,-0.5,-0.4,0.6000000000000001,-0.9,7.1000000000000005,6.2,-13.200000000000001,-28.500000000000004,4.9
1698415361632.0,16,-0.30000000000000004,-0.5,0.5,-0.7000000000000001,7.0,6.1000000000000005,-10.700000000000001,-26.400000000000002,6.1000000000000005
1698415361648.0,16,0.1,-0.5,0.9,-0.30000000000000004,7.0,6.5,-5.4,-25.3,9.8
1698415361674.0,16,0.4,-0.30000000000000004,1.2000000000000002,0.1,7.2,6.800000000000001,5.2,-20.6,12.9
1698415361681.0,16,0.4,-0.30000000000000004,1.2000000000000002,0.1,7.2,6.800000000000001,5.2,-20.6,12.9
1698415361698.0,16,0.4,-0.2,1.1,0.30000000000000004,7.300000000000001,6.7,14.200000000000001,-16.2,12.9
1698415361714.0,16,0.4,-0.30000000000000004,1.2000000000000002,0.30000000000000004,7.300000000000001,6.800000000000001,22.5,-11.700000000000001,12.8
1698415361731.0,16,0.30000000000000004,-0.1,1.4000000000000001,0.30000000000000004,7.5,6.9,26.9,-10.3,12.3
1698415361747.0,16,0.30000000000000004,-0.2,1.4000000000000001,0.2,7.5,6.9,36.9,-4.0,8.4
1698415361764.0,16,0.2,0.1,1.8,0.1,7.9,7.1000000000000005,41.0,-2.1999999999999997,8.200000000000001
1698415361784.0,16,0.2,0.6000000000000001,1.9000000000000001,0.2,8.4,7.2,49.4,-1.2000000000000002,8.0
1698415361798.0,16,0.0,0.8,1.8,0.1,8.700000000000001,6.9,58.3,3.0000000000000004,5.1
1698415361818.0,16,0.0,0.7000000000000001,1.4000000000000001,0.0,8.700000000000001,6.4,66.4,6.4,4.800000000000001
1698415361832.0,16,-0.2,0.4,1.4000000000000001,-0.1,8.700000000000001,6.1000000000000005,71.8,8.1,4.300000000000001
1698415361847.0,16,-0.1,0.7000000000000001,1.0,0.0,8.9,5.7,75.2,8.200000000000001,4.3999999999999995
1698415361864.0,16,0.1,0.4,0.7000000000000001,0.1,8.700000000000001,5.1000000000000005,79.00000000000001,10.700000000000001,2.7
1698415361882.0,16,-0.1,0.5,0.5,-0.1,8.9,4.9,80.0,11.000000000000002,1.3
1698415361898.0,16,-0.1,0.7000000000000001,0.30000000000000004,-0.1,9.200000000000001,4.4,81.9,10.700000000000001,2.6
1698415361914.0,16,0.1,1.5,0.8,0.1,10.200000000000001,4.7,82.0,11.5,0.5
1698415361932.0,16,-0.2,1.8,0.8,-0.30000000000000004,10.4,4.5,82.60000000000001,10.8,0.4
1698415361948.0,16,-0.2,1.9000000000000001,1.0,-0.30000000000000004,10.700000000000001,4.5,80.7,9.8,1.4
1698415361964.0,16,-0.2,1.8,0.4,-0.2,10.8,3.7,77.5,7.9,0.1
1698415361982.0,16,-0.30000000000000004,1.7000000000000002,0.30000000000000004,-0.4,10.600000000000001,3.4000000000000004,75.4,8.200000000000001,-2.1
1698415361998.0,16,-0.7000000000000001,1.1,-0.7000000000000001,-0.7000000000000001,10.200000000000001,2.3000000000000003,72.2,4.2,0.1
1698415362014.0,16,-0.7000000000000001,0.7000000000000001,-0.7000000000000001,-0.7000000000000001,9.8,2.1,65.8,0.6000000000000001,2.3000000000000003
1698415362031.0,16,-0.7000000000000001,0.7000000000000001,-0.5,-0.7000000000000001,9.8,2.1,64.0,0.4,1.0999999999999999
1698415362047.0,16,-0.4,0.30000000000000004,-0.9,-0.5,9.5,1.5,59.00000000000001,1.0,2.8
1698415362064.0,16,-0.5,-0.1,-1.0,-0.6000000000000001,9.200000000000001,1.2000000000000002,55.7,2.6,4.0
1698415362082.0,16,-0.4,-0.2,-1.2000000000000002,-0.5,9.1,0.8,53.2,4.300000000000001,7.1000000000000005
1698415362099.0,16,-0.5,-0.1,-1.3,-0.5,9.200000000000001,0.6000000000000001,52.1,4.6000000000000005,7.8
1698415362115.0,16,-0.5,0.2,-1.2000000000000002,-0.6000000000000001,9.600000000000001,0.6000000000000001,51.900000000000006,2.8,7.300000000000001
1698415362131.0,16,-0.5,0.4,-1.2000000000000002,-0.5,9.700000000000001,0.4,51.6,2.4000000000000004,6.3
1698415362148.0,16,-0.5,0.5,-1.2000000000000002,-0.5,9.9,0.30000000000000004,47.7,4.3999999999999995,3.4
1698415362165.0,16,-0.2,0.5,-1.2000000000000002,-0.2,9.9,0.2,45.0,5.4,3.4
1698415362181.0,16,-0.2,0.4,-1.1,-0.2,9.9,0.2,43.7,6.3,2.1
1698415362197.0,16,-0.30000000000000004,0.4,-1.2000000000000002,-0.30000000000000004,9.8,-0.1,40.7,8.1,0.4
1698415362214.0,16,-0.6000000000000001,0.30000000000000004,-1.4000000000000001,-0.6000000000000001,9.700000000000001,-0.4,37.300000000000004,7.400000000000001,0.1
1698415362231.0,16,-0.6000000000000001,0.30000000000000004,-1.4000000000000001,-0.6000000000000001,9.8,-0.4,36.6,6.9,0.2
1698415362249.0,16,-0.6000000000000001,0.4,-1.3,-0.6000000000000001,10.100000000000001,-0.5,36.800000000000004,6.000000000000001,0.2
1698415362264.0,16,-0.4,0.6000000000000001,-1.3,-0.5,10.100000000000001,-0.7000000000000001,35.199999999999996,0.8,0.5
1698415362281.0,16,-0.4,0.6000000000000001,-1.2000000000000002,-0.5,10.100000000000001,-0.6000000000000001,32.4,-2.8,1.2000000000000002
1698415362298.0,16,-0.4,0.6000000000000001,-1.1,-0.4,10.100000000000001,-0.6000000000000001,32.7,-3.5,1.5000000000000002
1698415362314.0,16,-0.2,1.0,-0.9,-0.2,10.5,-0.5,32.0,-5.300000000000001,1.5000000000000002
1698415362331.0,16,0.30000000000000004,0.8,-0.5,0.2,10.4,-0.2,22.4,-7.8,-0.2
1698415362348.0,16,0.30000000000000004,0.7000000000000001,-0.4,0.30000000000000004,10.3,-0.1,18.0,-5.300000000000001,-1.3
1698415362364.0,16,0.1,0.30000000000000004,-0.30000000000000004,0.1,9.8,-0.1,14.500000000000002,0.30000000000000004,-1.0999999999999999
1698415362382.0,16,-0.5,0.0,-0.6000000000000001,-0.5,9.600000000000001,-0.5,16.700000000000003,2.1,-0.30000000000000004
1698415362399.0,16,-0.6000000000000001,0.0,-0.7000000000000001,-0.6000000000000001,9.600000000000001,-0.6000000000000001,17.9,0.8,0.30000000000000004
1698415362415.0,16,-0.6000000000000001,0.0,-0.6000000000000001,-0.6000000000000001,9.600000000000001,-0.6000000000000001,18.7,-2.4000000000000004,0.4
1698415362431.0,16,-0.30000000000000004,-0.1,-0.4,-0.4,9.5,-0.5,17.3,-2.9,0.6000000000000001
1698415362448.0,16,-0.2,-0.1,-0.30000000000000004,-0.30000000000000004,9.5,-0.4,16.400000000000002,-2.3000000000000003,0.9
1698415362465.0,16,-0.2,0.0,-0.30000000000000004,-0.2,9.600000000000001,-0.4,15.000000000000002,1.4,1.8
1698415362481.0,16,-0.4,0.1,-0.2,-0.4,9.600000000000001,-0.4,14.200000000000001,2.6,1.3
1698415362498.0,16,-0.4,0.1,-0.2,-0.4,9.600000000000001,-0.30000000000000004,13.100000000000001,2.1,1.2000000000000002
1698415362514.0,16,-0.4,0.1,-0.1,-0.4,9.700000000000001,-0.30000000000000004,11.4,1.7,0.4
1698415362531.0,16,-0.30000000000000004,0.2,-0.1,-0.4,9.700000000000001,-0.30000000000000004,10.600000000000001,2.4000000000000004,0.30000000000000004
1698415362548.0,16,-0.4,0.1,-0.1,-0.4,9.700000000000001,-0.4,10.4,2.9,0.0
1698415362564.0,16,-0.4,0.1,0.0,-0.4,9.700000000000001,-0.30000000000000004,9.700000000000001,3.3000000000000003,-0.30000000000000004
1698415362582.0,16,-0.4,0.1,0.0,-0.4,9.700000000000001,-0.30000000000000004,8.200000000000001,3.5,-1.0
1698415362599.0,16,-0.30000000000000004,0.2,0.1,-0.4,9.8,-0.30000000000000004,7.300000000000001,3.2,-1.2000000000000002
1698415362616.0,16,-0.4,0.1,0.0,-0.5,9.700000000000001,-0.30000000000000004,5.7,3.0000000000000004,-0.9
1698415362631.0,16,-0.30000000000000004,0.2,0.0,-0.4,9.8,-0.4,4.800000000000001,2.1,-1.2000000000000002
1698415362648.0,16,-0.2,0.1,0.0,-0.4,9.700000000000001,-0.4,4.1000000000000005,1.0,-1.6
1698415362664.0,16,-0.2,0.0,0.0,-0.4,9.600000000000001,-0.4,2.3000000000000003,-0.4,-1.6
1698415362681.0,16,-0.1,-0.1,0.0,-0.30000000000000004,9.5,-0.4,2.1999999999999997,-1.0,-1.5000000000000002
1698415362698.0,16,-0.1,-0.1,-0.1,-0.30000000000000004,9.5,-0.5,2.3000000000000003,-1.3,-1.4
1698415362714.0,16,-0.1,-0.2,0.0,-0.30000000000000004,9.4,-0.5,1.8,-1.0999999999999999,-1.3
1698415362731.0,16,-0.1,-0.1,-0.1,-0.30000000000000004,9.4,-0.5,2.4000000000000004,-1.4,-1.0999999999999999
1698415362748.0,16,-0.2,-0.1,0.0,-0.4,9.4,-0.4,2.1999999999999997,-1.4,-0.9
1698415362764.0,16,-0.1,0.2,0.0,-0.30000000000000004,9.8,-0.4,2.1999999999999997,-1.3,-0.7
1698415362781.0,16,-0.2,-0.1,0.0,-0.4,9.4,-0.4,2.6,-1.2000000000000002,-0.9
1698415362798.0,16,-0.2,-0.1,0.1,-0.4,9.5,-0.4,2.7,-1.0,-0.9
1698415362814.0,16,-0.2,0.0,0.0,-0.5,9.600000000000001,-0.5,2.8,-2.1999999999999997,-0.9
1698415362832.0,16,-0.2,0.1,0.0,-0.5,9.600000000000001,-0.5,2.1999999999999997,-2.8,-1.5000000000000002
1698415362848.0,16,-0.2,0.0,-0.1,-0.4,9.600000000000001,-0.5,2.3000000000000003,-3.4,-1.6
1698415362865.0,16,-0.1,0.1,0.0,-0.4,9.600000000000001,-0.5,2.3000000000000003,-4.2,-1.7
1698415362881.0,16,-0.1,0.0,0.0,-0.5,9.600000000000001,-0.5,1.9,-3.2,-2.1
1698415362898.0,16,-0.1,0.0,0.0,-0.4,9.5,-0.5,2.9,-3.9,-1.9
1698415362914.0,16,-0.1,0.0,0.0,-0.4,9.5,-0.5,2.8,-3.5,-2.1
1698415362931.0,16,-0.2,-0.2,-0.1,-0.5,9.3,-0.6000000000000001,1.0,-3.3000000000000003,-1.8
1698415362947.0,16,0.0,0.2,0.0,-0.4,9.8,-0.6000000000000001,1.3,-3.8,-2.3000000000000003
1698415362964.0,16,-0.1,0.0,-0.1,-0.4,9.600000000000001,-0.6000000000000001,1.0999999999999999,-3.2,-2.4000000000000004
1698415362981.0,16,-0.1,-0.1,0.1,-0.4,9.4,-0.5,-0.4,-3.0000000000000004,-1.8
1698415362997.0,16,-0.1,0.0,0.0,-0.5,9.600000000000001,-0.5,-0.2,-3.0000000000000004,-1.7
1698415363014.0,16,0.0,0.0,0.0,-0.4,9.5,-0.5,-0.6000000000000001,-2.6,-1.5000000000000002
1698415363031.0,16,0.0,-0.1,0.0,-0.4,9.5,-0.5,-0.7,-1.7,-1.8
1698415363047.0,16,-0.1,0.0,0.0,-0.5,9.5,-0.5,-0.7,-1.4,-1.5000000000000002
1698415363064.0,16,-0.1,0.0,0.1,-0.5,9.5,-0.4,-0.8,-1.2000000000000002,-1.5000000000000002
1698415363081.0,16,-0.1,0.0,0.1,-0.5,9.5,-0.4,-0.7,-0.6000000000000001,-1.5000000000000002
1698415363098.0,16,-0.1,0.0,0.1,-0.5,9.600000000000001,-0.4,-1.3,-0.8,-1.8
1698415363114.0,16,-0.1,0.0,0.1,-0.5,9.600000000000001,-0.4,-1.5000000000000002,-0.4,-1.9
1698415363131.0,16,-0.1,0.0,0.1,-0.5,9.5,-0.4,-1.5000000000000002,-0.6000000000000001,-1.6
1698415363147.0,16,0.0,0.0,0.0,-0.5,9.600000000000001,-0.4,-1.4,-1.0,-1.8
1698415363164.0,16,0.0,0.0,0.1,-0.5,9.600000000000001,-0.4,-1.7,-0.8,-1.9
1698415363181.0,16,-0.1,0.0,0.0,-0.5,9.5,-0.4,-1.6,-0.9,-1.9
1698415363198.0,16,-0.1,0.0,0.0,-0.5,9.5,-0.4,-1.3,-0.7,-1.8
1698415363216.0,16,-0.1,0.0,0.0,-0.6000000000000001,9.5,-0.5,-1.5000000000000002,-0.8,-1.6
1698415363231.0,16,-0.1,0.0,0.0,-0.5,9.5,-0.4,-1.6,-0.9,-1.5000000000000002
1698415363247.0,16,-0.1,0.0,0.0,-0.6000000000000001,9.5,-0.5,-2.1,-0.1,-1.0
1698415363264.0,16,0.0,0.0,0.0,-0.5,9.5,-0.5,-2.3000000000000003,-0.1,-1.0
1698415363281.0,16,-0.1,0.0,0.0,-0.6000000000000001,9.5,-0.5,-2.0,0.1,-0.9
1698415363298.0,16,0.0,0.0,0.0,-0.6000000000000001,9.5,-0.4,-1.8,0.1,-0.9
1698415363314.0,16,-0.1,0.0,0.1,-0.6000000000000001,9.5,-0.4,-1.4,0.4,-1.0
1698415363331.0,16,-0.1,0.0,0.1,-0.6000000000000001,9.5,-0.30000000000000004,-0.7,0.4,-0.9
1698415363348.0,16,-0.1,0.0,0.0,-0.6000000000000001,9.5,-0.4,-0.9,0.2,-0.6000000000000001
1698415363365.0,16,-0.1,0.0,0.0,-0.6000000000000001,9.5,-0.4,-0.6000000000000001,0.30000000000000004,-0.4
1698415363383.0,16,-0.1,0.0,0.1,-0.6000000000000001,9.5,-0.30000000000000004,-0.30000000000000004,0.2,-0.30000000000000004
1698415363398.0,16,-0.1,0.0,0.1,-0.6000000000000001,9.5,-0.30000000000000004,-0.1,0.2,-0.2
1698415363415.0,16,-0.1,-0.1,0.0,-0.6000000000000001,9.5,-0.30000000000000004,-0.1,0.2,-0.2
1698415363432.0,16,-0.1,0.0,0.0,-0.6000000000000001,9.5,-0.4,-0.6000000000000001,0.9,0.1
1698415363448.0,16,0.0,0.0,0.0,-0.6000000000000001,9.5,-0.4,-0.5,1.0,0.1
1698415363464.0,16,0.0,0.0,0.0,-0.6000000000000001,9.600000000000001,-0.4,-0.5,1.0999999999999999,0.2
1698415363482.0,16,-0.1,0.0,0.0,-0.6000000000000001,9.5,-0.4,-0.5,1.0,0.4
1698415363498.0,16,0.0,-0.1,0.0,-0.6000000000000001,9.5,-0.4,0.0,0.4,0.5
1698415363516.0,16,0.0,0.0,0.1,-0.6000000000000001,9.5,-0.30000000000000004,0.1,0.2,0.4
1698415363532.0,16,0.0,-0.1,0.0,-0.6000000000000001,9.4,-0.4,0.4,0.1,0.30000000000000004
1698415363548.0,16,0.0,0.0,0.0,-0.5,9.5,-0.4,-0.1,-0.1,0.2
1698415363564.0,16,0.0,0.0,0.0,-0.6000000000000001,9.5,-0.4,0.1,-0.2,0.1
1698415363582.0,16,0.0,0.0,0.0,-0.6000000000000001,9.5,-0.4,0.4,0.1,0.4
1698415363598.0,16,0.0,0.0,0.0,-0.5,9.5,-0.4,-0.30000000000000004,-0.30000000000000004,0.4
1698415363615.0,16,0.0,0.0,0.1,-0.6000000000000001,9.5,-0.30000000000000004,-0.4,-0.2,0.4
1698415363631.0,16,0.0,0.0,0.0,-0.6000000000000001,9.5,-0.30000000000000004,-0.2,-0.30000000000000004,0.5
1698415363647.0,16,0.0,0.0,0.0,-0.5,9.5,-0.30000000000000004,-0.2,-0.4,0.7
1698415363664.0,16,0.0,0.0,0.0,-0.6000000000000001,9.5,-0.4,-0.30000000000000004,-0.6000000000000001,0.5
1698415363681.0,16,0.0,0.0,0.0,-0.5,9.5,-0.4,-0.4,-0.9,0.5
1698415363698.0,16,0.0,0.0,0.0,-0.5,9.5,-0.4,-0.5,-0.6000000000000001,0.6000000000000001
1698415363714.0,16,0.0,0.0,0.0,-0.5,9.5,-0.4,-0.5,-0.2,0.4
1698415363731.0,16,0.0,0.0,0.0,-0.5,9.5,-0.4,-0.2,0.1,0.30000000000000004
1698415363747.0,16,0.0,0.0,0.0,-0.6000000000000001,9.5,-0.4,-0.5,0.4,0.4
1698415363764.0,16,0.0,0.0,0.0,-0.5,9.5,-0.4,-0.4,0.1,0.4
1698415363782.0,16,0.0,0.0,0.0,-0.5,9.5,-0.4,-0.4,-0.1,0.2
1698415363798.0,16,0.0,0.0,0.0,-0.5,9.600000000000001,-0.4,-0.8,-0.1,0.2
1698415363815.0,16,0.0,0.0,0.0,-0.6000000000000001,9.600000000000001,-0.4,-0.9,-0.1,0.0
1698415363831.0,16,0.0,0.0,0.0,-0.5,9.600000000000001,-0.4,-0.9,-0.30000000000000004,-0.1
1698415363848.0,16,0.1,0.0,0.0,-0.5,9.5,-0.30000000000000004,-0.7,0.0,-0.2
1698415363864.0,16,0.0,0.0,0.0,-0.5,9.5,-0.30000000000000004,-0.8,0.2,-0.4
1698415363881.0,16,0.0,0.0,0.0,-0.5,9.5,-0.30000000000000004,-0.9,-0.2,-0.4
1698415363897.0,16,0.0,0.0,0.0,-0.5,9.5,-0.4,-0.4,-0.1,-0.5
1698415363914.0,16,0.0,0.0,0.0,-0.6000000000000001,9.5,-0.4,-0.7,0.1,-0.5
1698415363930.0,16,0.0,0.0,0.0,-0.6000000000000001,9.5,-0.30000000000000004,-0.1,-0.4,-0.4
1698415363947.0,16,0.0,0.0,0.1,-0.6000000000000001,9.5,-0.30000000000000004,0.2,-0.5,-0.5
1698415363964.0,16,0.0,0.0,0.0,-0.6000000000000001,9.5,-0.30000000000000004,0.7,-0.4,-0.7
1698415363981.0,16,0.0,0.0,0.1,-0.6000000000000001,9.5,-0.30000000000000004,0.9,-0.30000000000000004,-0.7
1698415363998.0,16,0.0,0.0,0.0,-0.6000000000000001,9.5,-0.30000000000000004,0.9,-0.30000000000000004,-0.4
1698415364014.0,16,0.0,0.0,0.0,-0.6000000000000001,9.5,-0.30000000000000004,1.0999999999999999,-0.6000000000000001,-0.5
1698415364031.0,16,0.0,0.0,0.0,-0.6000000000000001,9.5,-0.30000000000000004,1.0,-0.7,-0.5
1698415364048.0,16,0.0,0.0,0.1,-0.6000000000000001,9.5,-0.30000000000000004,1.0,-0.4,-0.4
1698415364064.0,16,0.0,0.0,0.0,-0.6000000000000001,9.5,-0.30000000000000004,1.2000000000000002,-0.4,-0.5
1698415364081.0,16,0.0,0.0,0.0,-0.6000000000000001,9.5,-0.30000000000000004,1.3,-0.6000000000000001,-0.4
1698415364101.0,16,0.0,0.0,0.0,-0.6000000000000001,9.5,-0.4,1.3,-0.4,-0.4
1698415364114.0,16,0.0,0.0,0.0,-0.6000000000000001,9.5,-0.4,1.4,-0.6000000000000001,-0.4
1698415364131.0,16,-0.1,0.0,0.0,-0.6000000000000001,9.5,-0.4,1.3,-0.8,-0.4
1698415364148.0,16,0.0,0.0,0.0,-0.6000000000000001,9.5,-0.4,1.2000000000000002,-0.7,-0.4
1698415364164.0,16,0.0,0.0,0.0,-0.6000000000000001,9.5,-0.4,1.0,-0.30000000000000004,-0.2
1698415364181.0,16,0.0,0.0,0.0,-0.6000000000000001,9.5,-0.4,0.9,0.0,-0.1
1698415364198.0,16,0.0,0.0,-0.1,-0.6000000000000001,9.5,-0.5,0.7,0.0,0.1
1698415364214.0,16,0.0,0.1,0.0,-0.6000000000000001,9.600000000000001,-0.4,0.5,-0.1,0.1
1698415364230.0,16,0.0,0.0,0.0,-0.6000000000000001,9.5,-0.4,0.30000000000000004,0.1,0.1
1698415364247.0,16,0.0,0.0,0.0,-0.6000000000000001,9.5,-0.4,0.2,0.1,0.0
1698415364264.0,16,0.0,0.0,0.0,-0.6000000000000001,9.5,-0.4,0.2,0.0,0.1
1698415364281.0,16,0.0,0.0,0.0,-0.6000000000000001,9.5,-0.4,0.2,-0.30000000000000004,0.0
1698415364297.0,16,0.0,0.0,0.0,-0.6000000000000001,9.5,-0.4,0.0,-0.6000000000000001,0.2
1698415364314.0,16,0.0,0.0,0.0,-0.6000000000000001,9.5,-0.4,-0.2,-0.6000000000000001,0.4
1698415364331.0,16,0.0,0.0,0.0,-0.6000000000000001,9.5,-0.4,-0.2,-0.1,0.2
1698415364348.0,16,0.0,0.0,0.0,-0.6000000000000001,9.5,-0.4,-0.2,-0.1,0.2
1698415364365.0,16,0.0,0.0,0.0,-0.6000000000000001,9.5,-0.4,-0.1,-0.30000000000000004,0.2
1698415364382.0,16,0.0,0.0,0.0,-0.6000000000000001,9.5,-0.4,-0.2,-0.30000000000000004,0.2
1698415364399.0,16,0.0,0.0,0.0,-0.6000000000000001,9.5,-0.4,-0.1,-0.1,0.1
1698415364414.0,16,0.0,0.0,0.0,-0.6000000000000001,9.600000000000001,-0.4,-0.2,0.1,0.2
1698415364430.0,16,0.0,0.0,0.0,-0.5,9.5,-0.4,-0.30000000000000004,0.2,0.1
1698415364448.0,16,0.0,0.0,0.0,-0.5,9.5,-0.4,-0.2,0.2,-0.2
1698415364464.0,16,0.0,0.0,0.0,-0.5,9.5,-0.4,-0.4,0.30000000000000004,-0.2
1698415364481.0,16,0.0,0.0,0.0,-0.6000000000000001,9.5,-0.4,-0.4,0.2,-0.2
1698415364498.0,16,0.0,0.0,0.0,-0.6000000000000001,9.5,-0.4,-0.6000000000000001,0.2,-0.1
1698415364515.0,16,0.0,0.0,0.0,-0.6000000000000001,9.5,-0.4,-0.7,-0.1,0.1
1698415364532.0,16,0.0,0.0,0.0,-0.5,9.5,-0.4,-0.6000000000000001,0.1,0.1
1698415364548.0,16,0.0,0.0,0.0,-0.6000000000000001,9.5,-0.4,-0.4,0.2,0.0
1698415364564.0,16,0.0,0.0,0.0,-0.6000000000000001,9.5,-0.4,-0.2,0.2,0.1
1698415364581.0,16,0.0,0.0,0.0,-0.5,9.5,-0.4,-0.1,0.1,-0.1
1698415364597.0,16,0.0,0.0,0.0,-0.5,9.5,-0.4,-0.30000000000000004,0.2,-0.2
1698415364614.0,16,0.0,0.0,0.0,-0.6000000000000001,9.5,-0.4,-0.2,0.2,-0.2
1698415364631.0,16,0.0,0.0,0.0,-0.6000000000000001,9.5,-0.30000000000000004,-0.2,-0.1,-0.2
1698415364648.0,16,0.0,0.0,0.0,-0.6000000000000001,9.5,-0.4,-0.2,0.1,-0.1
1698415364665.0,16,-0.1,0.0,0.0,-0.6000000000000001,9.5,-0.4,-0.4,0.4,-0.1
1698415364681.0,16,0.0,0.0,0.0,-0.6000000000000001,9.600000000000001,-0.4,-0.2,0.0,-0.2
1698415364698.0,16,0.0,0.0,0.0,-0.6000000000000001,9.5,-0.4,-0.2,-0.30000000000000004,-0.2
1698415364714.0,16,0.0,0.0,-0.1,-0.6000000000000001,9.5,-0.4,-0.2,-0.30000000000000004,0.0
1698415364731.0,16,0.0,0.0,0.0,-0.6000000000000001,9.5,-0.4,-0.2,-0.1,0.1
1698415364748.0,16,0.0,0.0,0.0,-0.6000000000000001,9.5,-0.30000000000000004,-0.2,-0.1,0.1
1698415364765.0,16,0.0,-0.1,0.0,-0.6000000000000001,9.5,-0.4,0.30000000000000004,-0.2,0.1
1698415364781.0,16,0.0,0.0,0.0,-0.5,9.5,-0.4,0.30000000000000004,0.2,0.1
1698415364797.0,16,0.0,0.0,0.0,-0.6000000000000001,9.5,-0.4,0.2,0.2,0.2
1698415364814.0,16,0.0,0.0,0.0,-0.6000000000000001,9.5,-0.4,0.30000000000000004,-0.1,0.1
1698415364831.0,16,0.0,0.0,0.0,-0.6000000000000001,9.5,-0.4,0.30000000000000004,0.30000000000000004,0.1
1698415364848.0,16,0.0,0.0,0.0,-0.6000000000000001,9.5,-0.4,0.30000000000000004,0.2,0.2
1698415364864.0,16,0.0,0.0,0.0,-0.6000000000000001,9.5,-0.4,0.30000000000000004,-0.1,0.4
1698415364881.0,16,0.0,0.0,0.0,-0.6000000000000001,9.5,-0.4,0.4,-0.2,0.2
1698415364897.0,16,0.0,0.0,0.0,-0.6000000000000001,9.5,-0.4,0.5,0.1,0.1
1698415364914.0,16,0.0,0.0,0.0,-0.6000000000000001,9.5,-0.4,0.30000000000000004,0.4,0.2
1698415364931.0,16,0.0,0.0,0.0,-0.6000000000000001,9.5,-0.4,0.5,-0.2,0.2
1698415364948.0,16,0.0,0.0,0.0,-0.6000000000000001,9.5,-0.4,0.5,-0.30000000000000004,0.2
1698415364967.0,16,0.0,0.0,0.0,-0.5,9.5,-0.4,0.4,-0.5,0.0
1698415364982.0,16,0.0,0.0,0.0,-0.6000000000000001,9.5,-0.4,0.4,-0.1,0.1
1698415364997.0,16,0.0,0.0,0.0,-0.6000000000000001,9.5,-0.4,0.5,0.30000000000000004,0.2
1698415365014.0,16,0.0,0.0,0.0,-0.6000000000000001,9.5,-0.4,0.7,0.2,0.2
1698415365031.0,16,0.0,0.0,0.0,-0.6000000000000001,9.5,-0.4,0.4,0.1,0.2
1698415365048.0,16,0.0,0.0,0.0,-0.6000000000000001,9.5,-0.4,0.30000000000000004,-0.2,0.2
1698415365064.0,16,0.0,0.0,0.0,-0.5,9.5,-0.4,0.30000000000000004,-0.1,0.1
1698415365081.0,16,0.0,0.0,0.0,-0.6000000000000001,9.5,-0.4,0.30000000000000004,-0.2,0.1
1698415365097.0,16,0.0,0.0,0.0,-0.6000000000000001,9.5,-0.4,0.2,-0.1,0.1
1698415365114.0,16,0.0,0.0,0.0,-0.6000000000000001,9.5,-0.4,0.4,-0.2,0.1
1698415365131.0,16,0.0,0.0,0.0,-0.6000000000000001,9.600000000000001,-0.4,0.2,-0.1,0.2
1698415365148.0,16,0.0,0.0,0.0,-0.6000000000000001,9.5,-0.4,0.1,0.0,0.2
1698415365165.0,16,0.0,0.0,0.0,-0.6000000000000001,9.5,-0.4,-0.1,-0.1,0.2
1698415365182.0,16,0.0,0.0,0.0,-0.6000000000000001,9.5,-0.4,-0.1,0.30000000000000004,0.0
1698415365197.0,16,0.0,0.0,0.0,-0.6000000000000001,9.5,-0.4,-0.1,0.4,0.1
1698415365214.0,16,0.0,0.0,0.0,-0.6000000000000001,9.5,-0.4,0.0,0.2,0.1
1698415365231.0,16,0.0,0.0,0.0,-0.6000000000000001,9.5,-0.4,-0.1,0.1,0.2
1698415365247.0,16,0.0,0.0,0.0,-0.5,9.5,-0.4,-0.1,0.0,0.1
1698415365264.0,16,0.0,0.0,0.0,-0.6000000000000001,9.5,-0.4,0.0,0.1,0.1
1698415365280.0,16,0.0,0.0,0.0,-0.6000000000000001,9.5,-0.4,-0.1,0.2,-0.1
1698415365298.0,16,0.0,0.0,0.0,-0.6000000000000001,9.5,-0.4,-0.30000000000000004,0.0,0.2
1698415365314.0,16,0.0,0.0,0.0,-0.5,9.5,-0.4,-0.30000000000000004,-0.2,0.2
1698415365330.0,16,0.0,0.0,0.0,-0.5,9.5,-0.4,-0.1,0.2,0.0
1698415365347.0,16,0.0,0.0,0.0,-0.6000000000000001,9.5,-0.4,-0.1,0.4,0.0
1698415365364.0,16,0.0,0.0,0.0,-0.6000000000000001,9.5,-0.4,-0.1,0.2,-0.1
1698415365381.0,16,0.0,0.0,0.0,-0.6000000000000001,9.5,-0.4,-0.2,0.0,-0.1
1698415365397.0,16,0.0,0.0,0.0,-0.6000000000000001,9.5,-0.4,-0.30000000000000004,0.2,0.1
1698415365414.0,16,0.0,0.0,0.0,-0.6000000000000001,9.5,-0.4,-0.2,0.0,0.2
1698415365431.0,16,0.0,0.0,0.0,-0.5,9.600000000000001,-0.4,-0.30000000000000004,-0.4,-0.1
1698415365448.0,16,0.0,0.0,0.0,-0.6000000000000001,9.5,-0.4,-0.1,-0.2,-0.30000000000000004
1698415365464.0,16,0.0,0.0,0.0,-0.6000000000000001,9.5,-0.4,-0.2,-0.1,-0.1
1698415365481.0,16,0.0,0.0,0.0,-0.6000000000000001,9.5,-0.4,-0.4,-0.1,0.0
1698415365497.0,16,0.0,0.0,0.0,-0.6000000000000001,9.5,-0.4,-0.2,-0.5,-0.1
1698415365515.0,16,0.0,0.0,0.0,-0.5,9.5,-0.4,-0.4,-0.6000000000000001,-0.1
1698415365531.0,16,0.0,0.0,0.0,-0.5,9.5,-0.30000000000000004,-0.6000000000000001,-0.2,-0.1
1698415365547.0,16,0.0,0.0,0.0,-0.6000000000000001,9.600000000000001,-0.4,-0.7,0.4,-0.2
1698415365564.0,16,0.0,0.0,0.0,-0.6000000000000001,9.5,-0.4,-1.2000000000000002,0.4,-0.2
1698415365581.0,16,0.0,0.0,0.0,-0.6000000000000001,9.5,-0.4,-1.5000000000000002,0.2,-0.2
1698415365597.0,16,0.0,0.0,-0.1,-0.6000000000000001,9.5,-0.5,-1.8,0.5,-0.1
1698415365614.0,16,0.0,0.0,0.0,-0.6000000000000001,9.600000000000001,-0.4,-2.4000000000000004,0.7,-0.1
1698415365631.0,16,0.0,0.0,0.0,-0.5,9.600000000000001,-0.4,-3.4,1.6,-0.1
1698415365647.0,16,0.0,0.0,0.0,-0.6000000000000001,9.5,-0.30000000000000004,-3.3000000000000003,2.6,-0.2
1698415365664.0,16,0.0,0.0,0.0,-0.6000000000000001,9.5,-0.4,-3.4,2.7,-0.2
1698415365684.0,16,0.0,0.0,0.0,-0.6000000000000001,9.5,-0.30000000000000004,-3.2,1.3,-0.30000000000000004
1698415365698.0,16,0.0,0.0,0.0,-0.6000000000000001,9.5,-0.30000000000000004,-2.4000000000000004,0.8,-0.4
1698415365714.0,16,0.0,0.0,0.1,-0.6000000000000001,9.5,-0.2,-2.4000000000000004,0.7,-0.5
1698415365732.0,16,0.0,-0.1,0.1,-0.6000000000000001,9.5,-0.2,-1.8,0.4,-0.4
1698415365747.0,16,0.0,0.0,0.0,-0.6000000000000001,9.5,-0.30000000000000004,-1.2000000000000002,0.1,-0.5
1698415365764.0,16,0.0,0.0,0.0,-0.6000000000000001,9.5,-0.30000000000000004,-0.9,0.0,-0.5
1698415365782.0,16,0.0,0.0,0.0,-0.6000000000000001,9.5,-0.30000000000000004,-0.6000000000000001,-0.30000000000000004,-0.2
1698415365798.0,16,0.0,0.0,0.0,-0.6000000000000001,9.5,-0.30000000000000004,-0.7,-0.6000000000000001,-0.4
1698415365815.0,16,0.0,0.0,0.0,-0.6000000000000001,9.5,-0.30000000000000004,-0.4,-0.1,-0.4
1698415365832.0,16,0.0,0.0,0.0,-0.6000000000000001,9.5,-0.30000000000000004,-0.4,-0.1,-0.4
1698415365848.0,16,0.0,0.0,0.0,-0.6000000000000001,9.5,-0.30000000000000004,-0.6000000000000001,-0.4,-0.2
1698415365864.0,16,0.0,0.0,0.0,-0.6000000000000001,9.5,-0.30000000000000004,-0.5,-0.1,-0.30000000000000004
1698415365881.0,16,0.0,0.0,0.0,-0.6000000000000001,9.5,-0.30000000000000004,-0.5,-0.30000000000000004,-0.2
1698415365898.0,16,0.0,0.0,0.0,-0.6000000000000001,9.5,-0.30000000000000004,-0.7,0.0,-0.30000000000000004
1698415365914.0,16,0.0,0.0,0.0,-0.6000000000000001,9.5,-0.30000000000000004,-0.5,0.0,-0.30000000000000004
1698415365931.0,16,0.0,0.0,0.0,-0.6000000000000001,9.5,-0.30000000000000004,-0.5,-0.1,-0.30000000000000004
1698415365948.0,16,0.0,0.0,0.0,-0.6000000000000001,9.5,-0.30000000000000004,-0.4,-0.30000000000000004,-0.4
1698415365964.0,16,0.0,0.0,0.0,-0.6000000000000001,9.5,-0.30000000000000004,-0.30000000000000004,-0.30000000000000004,-0.2
1698415365981.0,16,0.0,0.0,0.0,-0.6000000000000001,9.5,-0.30000000000000004,-0.2,-0.5,-0.30000000000000004
1698415365997.0,16,0.0,0.0,0.0,-0.6000000000000001,9.5,-0.30000000000000004,0.0,-0.4,-0.4
1698415366015.0,16,0.0,0.0,-0.1,-0.6000000000000001,9.5,-0.30000000000000004,0.30000000000000004,-0.30000000000000004,-0.5
1698415366031.0,16,0.0,0.0,0.0,-0.6000000000000001,9.600000000000001,-0.30000000000000004,0.0,-0.4,-0.4
1698415366048.0,16,0.0,0.0,0.0,-0.6000000000000001,9.5,-0.30000000000000004,-0.1,-0.8,-0.4
1698415366065.0,16,0.0,0.0,0.0,-0.6000000000000001,9.600000000000001,-0.30000000000000004,-0.1,-0.8,-0.4
1698415366082.0,16,0.0,0.0,0.0,-0.6000000000000001,9.5,-0.30000000000000004,-0.30000000000000004,-0.4,-0.5
1698415366100.0,16,0.0,0.0,0.0,-0.6000000000000001,9.5,-0.30000000000000004,-0.8,0.0,-0.5
1698415366115.0,16,0.0,0.0,0.0,-0.6000000000000001,9.5,-0.30000000000000004,-0.8,0.0,-0.5
1698415366131.0,16,0.0,0.0,-0.1,-0.6000000000000001,9.5,-0.4,-0.6000000000000001,0.0,-0.4
1698415366148.0,16,0.0,0.0,0.0,-0.6000000000000001,9.5,-0.30000000000000004,-1.2000000000000002,0.1,-0.4
1698415366164.0,16,0.0,0.1,0.0,-0.6000000000000001,9.600000000000001,-0.30000000000000004,-0.6000000000000001,0.0,-0.4
1698415366181.0,16,0.0,0.1,0.1,-0.6000000000000001,9.600000000000001,-0.2,-0.8,0.0,-0.30000000000000004
1698415366198.0,16,0.0,0.0,0.0,-0.6000000000000001,9.5,-0.30000000000000004,-1.2000000000000002,0.1,-0.5
1698415366214.0,16,0.0,0.0,0.0,-0.6000000000000001,9.5,-0.30000000000000004,-1.2000000000000002,0.30000000000000004,-0.30000000000000004
1698415366232.0,16,0.0,0.0,0.0,-0.6000000000000001,9.5,-0.30000000000000004,-1.3,0.4,-0.30000000000000004
1698415366248.0,16,0.0,0.0,0.0,-0.7000000000000001,9.5,-0.30000000000000004,-1.9,-0.2,-0.4
1698415366264.0,16,0.0,0.0,0.0,-0.6000000000000001,9.5,-0.2,-2.0,-0.30000000000000004,-0.5
1698415366282.0,16,0.0,0.0,0.0,-0.6000000000000001,9.600000000000001,-0.2,-2.0,-0.4,-0.7
1698415366298.0,16,0.0,0.0,0.0,-0.6000000000000001,9.600000000000001,-0.30000000000000004,-2.1,-0.4,-1.0
1698415366315.0,16,0.0,0.0,0.0,-0.6000000000000001,9.600000000000001,-0.2,-2.5,-0.4,-1.0
1698415366332.0,16,0.0,0.0,0.0,-0.6000000000000001,9.5,-0.30000000000000004,-2.5,-0.5,-0.9
1698415366347.0,16,0.0,0.0,0.0,-0.6000000000000001,9.600000000000001,-0.2,-2.6,-0.4,-0.9
1698415366364.0,16,0.0,0.0,0.0,-0.6000000000000001,9.5,-0.2,-2.6,-0.4,-0.9
1698415366382.0,16,0.0,0.0,0.0,-0.7000000000000001,9.5,-0.2,-2.7,-0.30000000000000004,-0.9
1698415366397.0,16,0.0,0.0,0.0,-0.7000000000000001,9.5,-0.2,-2.8,-0.30000000000000004,-0.7
1698415366415.0,16,0.0,0.0,-0.1,-0.7000000000000001,9.5,-0.30000000000000004,-3.1,-0.4,-0.7
1698415366431.0,16,0.0,0.0,0.0,-0.7000000000000001,9.600000000000001,-0.2,-3.2,-0.8,-0.6000000000000001
1698415366448.0,16,0.0,0.1,0.0,-0.7000000000000001,9.600000000000001,-0.2,-3.2,-1.0,-0.8
1698415366464.0,16,0.0,0.0,-0.1,-0.6000000000000001,9.600000000000001,-0.30000000000000004,-3.8,-1.2000000000000002,-0.9
1698415366482.0,16,0.0,0.1,0.0,-0.6000000000000001,9.600000000000001,-0.2,-4.0,-1.5000000000000002,-1.2000000000000002
1698415366497.0,16,0.0,0.1,-0.1,-0.6000000000000001,9.600000000000001,-0.2,-3.9,-1.4,-1.4
1698415366514.0,16,0.0,0.0,-0.1,-0.6000000000000001,9.600000000000001,-0.2,-4.5,-0.7,-1.4
1698415366531.0,16,0.0,0.0,-0.1,-0.7000000000000001,9.5,-0.2,-4.7,-0.2,-1.3
1698415366549.0,16,0.0,0.0,0.0,-0.6000000000000001,9.600000000000001,-0.2,-5.0,0.1,-1.2000000000000002
1698415366564.0,16,0.0,0.0,0.0,-0.6000000000000001,9.5,-0.1,-5.300000000000001,0.5,-1.4
1698415366581.0,16,0.0,0.0,0.0,-0.6000000000000001,9.5,-0.1,-5.4,0.7,-1.5000000000000002
1698415366598.0,16,0.0,0.0,0.0,-0.6000000000000001,9.5,-0.1,-5.4,1.0,-1.2000000000000002
1698415366615.0,16,0.0,0.0,0.0,-0.7000000000000001,9.5,0.0,-5.4,1.0999999999999999,-1.3
1698415366631.0,16,0.0,0.0,0.1,-0.7000000000000001,9.5,0.0,-5.300000000000001,0.8,-1.3
1698415366648.0,16,0.0,0.0,0.1,-0.7000000000000001,9.5,0.1,-5.300000000000001,0.6000000000000001,-1.4
1698415366665.0,16,0.1,0.0,0.1,-0.6000000000000001,9.5,0.0,-5.300000000000001,0.7,-1.6
1698415366684.0,16,-0.1,0.0,0.1,-0.8,9.5,0.1,-4.800000000000001,0.30000000000000004,-1.0
1698415366698.0,16,0.0,0.0,0.0,-0.7000000000000001,9.5,0.1,-4.5,0.6000000000000001,-1.3
1698415366715.0,16,0.0,0.0,0.1,-0.7000000000000001,9.5,0.1,-4.800000000000001,0.4,-1.8
1698415366732.0,16,0.0,0.0,0.1,-0.8,9.5,0.1,-4.6000000000000005,-0.2,-1.8
1698415366749.0,16,-0.1,-0.1,0.1,-0.8,9.5,0.1,-4.2,-1.2000000000000002,-1.8
1698415366764.0,16,0.0,-0.1,0.1,-0.8,9.5,0.1,-3.8,-1.7,-1.8
1698415366781.0,16,0.0,-0.1,0.1,-0.7000000000000001,9.5,0.2,-2.4000000000000004,-1.5000000000000002,-1.6
1698415366798.0,16,0.0,0.0,0.1,-0.8,9.5,0.1,-1.9,-1.5000000000000002,-1.5000000000000002
1698415366814.0,16,0.0,-0.1,0.0,-0.7000000000000001,9.4,0.1,-1.6,-1.7,-1.2000000000000002
1698415366831.0,16,0.1,-0.1,0.0,-0.7000000000000001,9.5,0.2,-1.4,-1.8,-1.0999999999999999
1698415366848.0,16,0.0,0.0,0.1,-0.7000000000000001,9.5,0.2,-1.0999999999999999,-1.7,-0.8
1698415366865.0,16,0.0,0.0,0.0,-0.8,9.5,0.1,-1.0999999999999999,-0.4,-0.6000000000000001
1698415366881.0,16,-0.1,0.0,0.0,-0.8,9.5,0.2,-1.3,-0.6000000000000001,-0.9
1698415366898.0,16,0.0,0.0,0.1,-0.8,9.600000000000001,0.2,-1.0,-0.9,-0.9
1698415366914.0,16,0.0,0.0,0.0,-0.8,9.5,0.1,-0.7,-1.0,-1.2000000000000002
1698415366931.0,16,0.0,0.0,0.0,-0.8,9.5,0.1,-1.0,-0.30000000000000004,-1.5000000000000002
1698415366948.0,16,0.0,0.0,0.0,-0.8,9.5,0.2,-0.7,-0.4,-1.4
1698415366964.0,16,0.0,0.0,0.0,-0.7000000000000001,9.600000000000001,0.1,-0.30000000000000004,-0.1,-1.5000000000000002
1698415366981.0,16,0.1,0.0,-0.1,-0.7000000000000001,9.5,0.1,-1.0999999999999999,0.5,-1.8
1698415366998.0,16,0.0,0.0,-0.1,-0.7000000000000001,9.5,0.1,-1.2000000000000002,0.9,-1.8
1698415367015.0,16,0.0,0.1,-0.1,-0.8,9.600000000000001,0.0,-0.7,1.3,-1.6
1698415367031.0,16,0.0,0.2,-0.2,-0.8,9.700000000000001,-0.1,-1.3,1.0,-1.6
1698415367048.0,16,0.0,0.2,-0.2,-0.8,9.700000000000001,-0.1,-2.0,1.2000000000000002,-1.7
1698415367065.0,16,0.0,0.2,-0.2,-0.7000000000000001,9.8,-0.1,-2.9,1.0,-1.6
1698415367088.0,16,0.1,0.2,-0.30000000000000004,-0.7000000000000001,9.700000000000001,-0.2,-4.1000000000000005,0.9,-2.3000000000000003
1698415367098.0,16,0.1,0.0,-0.30000000000000004,-0.6000000000000001,9.600000000000001,-0.2,-4.800000000000001,0.8,-2.9
1698415367114.0,16,0.0,0.30000000000000004,-0.4,-0.8,9.8,-0.2,-5.6,2.1999999999999997,-2.7
1698415367131.0,16,0.0,0.0,-0.4,-0.8,9.600000000000001,-0.2,-7.0,2.7,-2.8
1698415367147.0,16,-0.1,0.1,-0.30000000000000004,-0.9,9.700000000000001,-0.2,-7.6,2.1,-2.6
1698415367164.0,16,-0.1,0.1,-0.2,-0.9,9.700000000000001,-0.1,-8.700000000000001,0.8,-2.6
1698415367181.0,16,-0.1,0.1,-0.2,-0.9,9.700000000000001,-0.1,-10.0,1.0999999999999999,-1.7
1698415367198.0,16,0.0,0.1,-0.2,-0.9,9.700000000000001,-0.1,-10.700000000000001,0.6000000000000001,-1.3
1698415367214.0,16,0.0,0.1,-0.2,-0.9,9.700000000000001,0.0,-11.4,-1.2000000000000002,-1.2000000000000002
1698415367231.0,16,-0.1,0.0,-0.2,-0.9,9.600000000000001,0.0,-12.5,-1.3,-1.3
1698415367247.0,16,-0.1,0.1,-0.2,-0.9,9.700000000000001,0.1,-13.200000000000001,-1.0999999999999999,-0.9
1698415367264.0,16,0.0,0.0,-0.1,-0.9,9.600000000000001,0.2,-13.700000000000001,-2.1,-0.9
1698415367282.0,16,-0.1,0.1,-0.2,-0.9,9.700000000000001,0.1,-14.100000000000001,-2.5,-0.9
1698415367297.0,16,-0.1,0.1,-0.2,-0.9,9.700000000000001,0.2,-16.5,-2.5,-1.0
