ts,interval,accx,accy,accz,accGx,accGy,accGz,alpha,beta,gamma
1698415351024.0,0.01666666753590107,-0.5288068705968558,0.4837275195509195,-0.028508301603794098,0.6200982299804687,-5.641935627636313,-7.599944841876626,-5.5333441405101915,3.139979474436728,7.109384251394424
1698415351188.0,0.01666666753590107,0.013765344371646641,0.0473871895968914,0.09024959524571895,0.3419218515258282,-5.696852628216147,-7.851186378589272,1.8551184387197792,-6.2713503491983005,1.896084846144458
1698415351201.0,0.01666666753590107,0.08209164242707193,0.06137947459220886,0.07685761423110961,0.39399566456899043,-5.684281900456547,-7.864204265594482,-0.6572411427434123,-8.172472459855642,-0.6922634713211816
1698415351220.0,0.01666666753590107,0.2574299430239945,-0.14887421817183494,0.032878187251091,0.5541079553908668,-5.889734914940595,-7.912238520923256,-2.3784761343433054,-6.668791373038527,-5.818682123276645
1698415351233.0,0.01666666753590107,0.2689271598005667,-0.12529109801054,-0.07569032401740551,0.5662286012954079,-5.859807394188642,-8.025364549365639,-3.00921358178613,-3.796690423745818,-9.771441088896784
1698415351251.0,0.01666666753590107,0.2368919992448762,-0.10729074641764164,-0.09110825790166854,0.5463267817290499,-5.83556610237956,-8.044817437854409,-2.283928386983758,-0.6004839782878988,-11.199170899030182
1698415351267.0,0.01666666753590107,0.012350363007187842,0.2386439209461212,0.143290280559659,0.3607761530669406,-5.519381845635175,-7.787291121783852,-5.336167678229325,-5.151908384329421,-6.36702635843137
1698415351283.0,0.01666666753590107,-0.1709657115358859,0.4128589166015386,0.22138065145611763,0.23253669011220335,-5.334579404991865,-7.714267971149087,-6.616426020219332,-9.447882221308587,0.2544793481788937
1698415351301.0,0.01666666753590107,-0.20598679256718605,0.4327583798140287,0.26707272757291795,0.21039032475575803,-5.328743538445234,-7.657704956927895,-6.601052118171279,-10.882390994193223,3.925295201854342
1698415351317.0,0.01666666753590107,-0.001485087458603084,0.12029051324427127,0.08705927477180957,0.4272152126036584,-5.64462793546021,-7.834576020050048,-4.304030898878842,-7.257388474293076,2.644541884592921
1698415351333.0,0.01666666753590107,-0.0781111944887787,0.024681436792016027,0.09307868119180202,0.3537431856902316,-5.730071591728925,-7.8357737054020165,-2.732443217559812,-4.7154695416493615,-0.08442276564737076
1698415351350.0,0.01666666753590107,-0.17099508376084266,0.006737783822417259,0.10250234309732914,0.24211353328544646,-5.715856019371747,-7.850587243652344,-0.9502512422167876,-1.1708317745755263,-4.817856211741969
1698415351367.0,0.01666666753590107,-0.28008856875151394,0.04615151032209396,0.1880412764340639,0.1243487025938928,-5.662135535100102,-7.775768441772461,-1.6166747205256358,-1.9815676518149292,-3.150493270003493
1698415351383.0,0.01666666753590107,-0.42641880152896044,0.2991927899330854,0.19889292531609534,-0.0405519002167508,-5.394584084099531,-7.77621735458374,-2.362737884391715,-4.094360313058728,0.5717967568870221
1698415351400.0,0.01666666753590107,-0.3650898515475914,0.11093056422471999,0.1922901660501957,0.006135032156296074,-5.5823792768180365,-7.783849456897378,-1.681986376751473,-5.659947246305078,3.0020002616923613
1698415351416.0,0.01666666753590107,-0.2523153399566188,0.08061199832856655,0.14986381373107432,0.10280096071772277,-5.611109696739912,-7.828142187610268,-2.8365493877759693,-6.302691525978551,1.3158822608232656
1698415351433.0,0.01666666753590107,-0.10191738281622528,-0.09924597164988518,-0.006676993545889854,0.23523020351249724,-5.7876820691764355,-7.987805510821938,-4.397916117888898,-5.818555764776999,-1.4618402017352647
1698415351450.0,0.01666666753590107,-0.0581997668438591,-0.07042553535699844,-0.033357495200634,0.244358115608152,-5.750571358922124,-8.021772662353515,-3.8070962169463325,-4.439558073711173,-4.461687886622014
1698415351467.0,0.01666666753590107,-0.20407416387889532,0.031708558949828144,0.018529928424954413,0.0769136187346652,-5.635051128819584,-7.980173408508301,-4.411263588187572,-3.57587104820954,-2.989439116921885
1698415351484.0,0.01666666753590107,-0.4050857253167778,0.09365092812180519,0.04992985981702804,-0.15831667610937727,-5.566068778008222,-7.9548846534729,-5.013512530045684,-3.1947676234205735,-1.507230864194819
1698415351500.0,0.01666666753590107,-0.20324743073116988,0.012046996146440505,0.1156096619516611,0.029328879005368798,-5.641935043114423,-7.893682873535155,-3.9193350080298592,-3.341212855641171,-4.150642779366926
1698415351517.0,0.01666666753590107,-0.14314663430526853,0.02613222012221813,0.1125865147382021,0.08993210852807387,-5.622781429833173,-7.9002675126224755,-5.251534377336874,-3.346863556518887,-5.3426631881300075
1698415351534.0,0.01666666753590107,-0.16165431436579675,0.07771335427761078,0.0781827253550291,0.07257416475825011,-5.564123489159345,-7.939622202411294,-4.272211181969867,-3.9184406801354106,-1.496805861087264
1698415351556.0,0.01666666753590107,-0.13542106328820808,0.19471885450184345,0.05481120211780071,0.06928210094291716,-5.438727177208662,-7.969698776245116,-3.0015396508102086,-4.598856441289265,0.21177563144601208
1698415351567.0,0.01666666753590107,-0.011315649664588272,0.08446049045026302,-0.011464812344312666,0.16938969439081847,-5.5431742246329785,-8.040627584949135,-2.101816333804177,-3.9582658056384625,-0.7158306655263403
1698415351596.0,0.01666666753590107,0.03297668832265772,0.08903437423706054,-0.11810381685495376,0.18584983080439268,-5.540630385369062,-8.146421370807289,-0.10102012533050175,-1.825329422428415,0.4780176192525124
1698415351599.0,0.01666666753590107,0.03297668832265772,0.08903437423706054,-0.11810381685495376,0.18584983080439268,-5.540630385369062,-8.146421370807289,-0.10102012533050175,-1.825329422428415,0.4780176192525124
1698415351617.0,0.01666666753590107,-0.10812290465915575,0.21825872004330157,-0.034439445218443866,0.031274186120554805,-5.413439006695151,-8.061576849475502,1.364258569723762,-2.7999167353796635,2.0913260170126837
1698415351633.0,0.01666666753590107,-0.13671110309874637,0.20513795718550681,0.03721300158500671,-0.015113471044972538,-5.4231654509395355,-7.99259391414225,0.031217913210072185,-4.043444667890869,0.19506314572276937
1698415351650.0,0.01666666753590107,-0.08618582553868182,0.06857377001047134,0.003017301994562149,0.034266938195750114,-5.555594145745038,-8.029704039874673,-0.6288423901132628,-3.4908742531871977,-1.1695495132805622
1698415351667.0,0.01666666753590107,-0.07206055268030613,0.09263210646808147,0.05329670590162277,0.04788396013788879,-5.529407565087079,-7.980921596527099,0.3795081754113721,-2.618877021899775,-0.43348003674812197
1698415351684.0,0.01666666753590107,-0.05364359224368818,0.2157394306987524,0.14250760574936866,0.06015424364618957,-5.40146741387248,-7.895179834094643,1.5149320092057144,-1.6310463990346946,2.151912142828224
1698415351700.0,0.01666666753590107,0.0595938150181435,0.1692360381990671,0.09417465973496436,0.1607107225059066,-5.441570291680097,-7.9481509613037105,0.5333036249938286,-1.5674935165201358,3.066035633038758
1698415351717.0,0.01666666753590107,0.1446312651061453,0.13495207580327986,0.049669747576117515,0.23493096483759582,-5.472694913262129,-7.994988115802407,-0.3656115418951729,-1.8905261393771253,3.2576851916206153
1698415351733.0,0.01666666753590107,0.1300301457637921,0.14909166031479834,0.08317746490240097,0.20395598085932432,-5.456234776848555,-7.963264359283447,0.15375035966176379,-2.4191885441082244,3.455740400426887
1698415351750.0,0.01666666753590107,0.06553654860588722,0.13236147478818894,0.10468085618019103,0.12943646788669283,-5.47164745003581,-7.942764592090248,-0.20034823137669153,-1.714516860220951,2.6522525278356306
1698415351767.0,0.01666666753590107,0.05299756312484387,0.07508592838346957,0.06540624589025974,0.11192885911364574,-5.5267140882194035,-7.983615073394775,-0.8929375240656239,0.16983465474435044,2.0520394092370053
1698415351783.0,0.01666666753590107,0.013833317874209022,0.11005202782452106,0.05250643230676651,0.07436982970309909,-5.486611210411787,-8.00007579433024,-0.9965497862274247,1.6229990488102444,1.9744456855013102
1698415351800.0,0.01666666753590107,0.016225323010701686,0.08327858718931674,0.08783844245076179,0.08215098053202964,-5.509206488579511,-7.96760384979248,-1.0826703608116461,0.6988505484454242,2.257190971147508
1698415351817.0,0.01666666753590107,0.06583652706630527,0.07382803727686404,0.047803953704237935,0.13018465590549166,-5.515341630333662,-8.009951876178384,-1.4718360768638725,-0.6552522236736164,2.214433133169582
1698415351834.0,0.01666666753590107,0.06263484494816511,0.04986556240916252,-0.006351414853334426,0.1246480691329576,-5.532400901684165,-8.06890909205973,-2.3677777102255386,0.1128338179541115,2.115475218040322
1698415351851.0,0.01666666753590107,-0.008927868612064047,0.07488076120018959,-0.03312719357609749,0.052373101950413545,-5.502622434014081,-8.098986250415443,-1.7407866215424663,1.4949273456220988,2.863498112589666
1698415351867.0,0.01666666753590107,-0.009041553553030825,0.08106032661795616,-0.026384733578562736,0.05117600568691268,-5.493195264977216,-8.09449712230265,-0.6137819830759434,1.4474953103743569,3.391805987814159
1698415351884.0,0.01666666753590107,-0.02212914022700861,0.0407733244150877,0.037078561550378794,0.0356136903293198,-5.532400317162275,-8.03179838180542,-0.5952088310928276,0.7736672666749803,2.8061682794609295
1698415351901.0,0.01666666753590107,-0.05271153555796482,0.023376783934235573,0.033175708892941476,0.006434357596165501,-5.546765527123212,-8.0377844704777,-1.3194977787717295,0.8162698245709943,1.6858526907085232
1698415351917.0,0.01666666753590107,-0.04752096291123889,-0.0011643676042556762,0.04763444235622882,0.013766600180394016,-5.568762254875898,-8.02506527415812,-0.42708692632413714,1.796862901515094,0.8391137657760722
1698415351934.0,0.01666666753590107,-0.08019510635705664,0.06003215163648128,0.11003683025538921,-0.015712012326857074,-5.504268447655439,-7.964910957446694,-0.5451347932967601,0.5323737587713548,0.9158500339666663
1698415351951.0,0.01666666753590107,-0.021117679895833134,0.05356909310221672,0.0927133550107479,0.04070136885715182,-5.508757575768232,-7.983615073394775,0.3514951417063433,-0.8153268315787094,1.5293535267513731
1698415351967.0,0.01666666753590107,0.0006609663930721581,0.06070142920017242,0.11961948211491107,0.057909693289524874,-5.503670481762289,-7.955334150806069,1.384649565882306,-1.2240285962044648,1.640244102525763
1698415351984.0,0.01666666753590107,-0.011917711777542717,0.12188918061256408,0.0033919805258512494,0.03681079115939792,-5.44576014458537,-8.069357420349121,0.8873350613989209,-0.6335440148614646,2.3748480232335596
1698415352001.0,0.01666666753590107,-0.0031196983565343543,0.1230775136142969,-0.048804655179381366,0.041000644064671354,-5.446957245415449,-8.119934930419921,0.6149351644677649,1.3196572210001671,2.653687081004745
1698415352017.0,0.01666666753590107,-0.015512544232001527,0.14534779761135577,-0.047962943658232685,0.02783253493381198,-5.425858343285322,-8.118289501300454,0.36810125256934834,2.4774771650417016,2.791572165204612
1698415352034.0,0.01666666753590107,-0.042613253193348646,0.08464929102063179,-0.011585223853588103,0.0013466836349107325,-5.486312519726157,-8.082077201190591,-0.35959729352671227,1.2206300434838546,2.0270257623925376
1698415352050.0,0.01666666753590107,0.000579617385705933,0.06535714605152607,0.01068739823102951,0.04474158872524276,-5.504118810051679,-8.060828661456704,-0.6807195978502137,0.5940837708704796,0.8051896569116469
1698415352067.0,0.01666666753590107,-0.023225301433261483,0.045072482913732524,0.01452419991493225,0.021547755575901828,-5.522524235314131,-8.058284822192787,0.17781618435675992,0.9318980970301401,0.34530504264718126
1698415352084.0,0.01666666753590107,-0.06710962487519719,0.0838514186412096,0.07316109780073166,-0.019602580891456455,-5.483319183129072,-7.99992557220459,1.4420956189486387,0.734513260618735,0.558630393323059
1698415352101.0,0.01666666753590107,-0.01739950875607319,0.10416530787348746,0.13270517365932463,0.028431085348851047,-5.462818246892095,-7.940520028033852,1.093310301434645,-0.5049277108087163,0.7208161166510678
1698415352117.0,0.01666666753590107,-0.07408327697983477,0.07395897018015385,0.14441957685053347,-0.0318728689663345,-5.493643593266606,-7.9283987976074215,0.21460641135165182,-0.7688692722264578,1.3996167515096254
1698415352134.0,0.01666666753590107,-0.06378698782508727,0.1193523556113243,0.12291150939762592,-0.026785188155213836,-5.44605941979289,-7.951442988586425,-0.5473945186949765,-0.9370653485806664,1.2650275537494067
1698415352151.0,0.01666666753590107,-0.017337426138180307,0.057791679233312604,0.07834639148414134,0.016759359105455222,-5.506513011711836,-7.996783767047524,0.06773242467807769,0.12614644361584815,0.6520324831710429
1698415352167.0,0.01666666753590107,-0.028813175435038283,0.08463584701716899,0.0558440522968769,0.004489071030577179,-5.480625706261396,-8.01863027267456,1.0989287723572152,0.8357858094638364,0.7551123107427001
1698415352185.0,0.01666666753590107,-0.10459612790565005,0.10840893679261207,0.0904039090245962,-0.06913262773593887,-5.461621146062016,-7.98077195892334,2.055724296294227,1.961173774170329,0.9156775716901235
1698415352201.0,0.01666666753590107,-0.02742478753327159,0.05689210004508495,0.0746317548751831,0.008828563822899014,-5.51668778424561,-7.994090290179848,0.9004662067999762,1.3195721638006592,0.14014966543569657
1698415352217.0,0.01666666753590107,-0.01936294518299401,0.04298515524566173,0.1017979942202568,0.01780682233177358,-5.530903941124677,-7.9667060241699215,-0.20040935623367784,0.025750960429285222,0.014251269744510941
1698415352233.0,0.01666666753590107,-0.027302506010606884,0.07655541641414165,0.12857377294301986,0.006284722275694366,-5.4969362050712105,-7.940220752826333,0.17672655574073132,-1.581997423222658,0.9303658935002359
1698415352250.0,0.01666666753590107,-0.024496492696146014,0.10254033702015876,0.08598726162612438,0.0026934243520372546,-5.470899846538901,-7.982867469897866,0.4376064848630146,-1.989093239619814,1.483994880803553
1698415352267.0,0.01666666753590107,-0.013254787333891726,0.09816752876341342,0.056768765926361084,0.007182552464830223,-5.474490564507246,-8.012645353046059,-0.9992228447921327,-2.0640206282582656,0.5450223086188664
1698415352284.0,0.01666666753590107,-0.03998953535994514,0.029181086298823353,-0.06643909606933593,-0.02214641444715089,-5.539881612828373,-8.138340940204262,-1.1558766485009602,0.6012881263409621,-0.9746127127172248
1698415352301.0,0.01666666753590107,-0.08457393336263484,0.09415712407827377,-0.05113222134411335,-0.06239893100017216,-5.473741791966557,-8.123826092639565,-0.22127585095233127,1.5357821221425303,-1.0779605184920993
1698415352317.0,0.01666666753590107,-0.09723340798476711,0.09405424822568893,-0.032790508967638014,-0.07152683167938376,-5.474789839714766,-8.104822116962074,1.0494224940359052,1.249896443582007,-0.1649404506780661
1698415352335.0,0.01666666753590107,-0.025629140854731666,0.08549860132634639,-0.004568623089790344,0.00239414457794046,-5.4884068616569035,-8.073098360443115,2.3986939211733667,1.4015620747626096,0.49459939756659926
1698415352350.0,0.01666666753590107,-0.03891175919375382,0.08147007646262645,0.09505261161327362,-0.008379753759608137,-5.495290775951743,-7.971495012012124,1.208434633999091,1.9217164116654,0.5945582555743839
1698415352368.0,0.01666666753590107,-0.015423167181806637,0.03590717968344688,0.16306407156586647,0.01780681776519632,-5.541378573387861,-7.903110042572021,0.02294634068177518,1.412407774834355,0.06932404551767579
1698415352384.0,0.01666666753590107,0.011712124469154513,0.000533083963394165,0.28814824882745743,0.04354449017845327,-5.575047034233808,-7.7792106911808245,0.17755052735064344,-1.792980792745588,-0.6178518686867719
1698415352401.0,0.01666666753590107,0.02351322869628202,0.008200257590413092,0.19493162046968937,0.04923071912132436,-5.566966603630781,-7.872734193530678,0.7405998663037155,-3.0656706448049857,-1.2585988516365438
1698415352418.0,0.01666666753590107,-0.019372843239211943,0.04705576568543911,0.13899930536746977,0.00359125225788448,-5.528509739464521,-7.928399382129311,0.026693633256452763,-1.289024142737777,-1.8908499330324662
1698415352434.0,0.01666666753590107,0.03668153418996371,0.08248948263823985,-0.020781506744027137,0.06224919064842397,-5.490203097423911,-8.090157047271727,-1.4325413582385544,0.9275066055589394,-1.1221567516205477
1698415352451.0,0.01666666753590107,0.05320131466917228,0.15766075121760367,-0.009411971467733383,0.08140280392967397,-5.4132887845695015,-8.079982274737954,-1.5047916328874782,0.6478389604640666,0.05038593198121383
1698415352468.0,0.01666666753590107,0.041664683764241636,0.16540040555894372,0.01298223116993904,0.06943179562889272,-5.404759441155195,-8.058134600067138,-0.41472740553630816,-0.463037253494529,0.9699118350209635
1698415352484.0,0.01666666753590107,0.07547979567241854,0.07747779195606708,-0.012166823133826256,0.09771330273948842,-5.496188017052412,-8.080880100360512,1.395422268307297,-1.76052063888022,1.3075754701320608
1698415352501.0,0.01666666753590107,0.013001598024112172,0.09592588731646537,-0.009209726893901824,0.029927465953025964,-5.480625706261396,-8.07594205943644,1.1566069451336227,-1.0867383787926235,1.5392649850107079
1698415352518.0,0.01666666753590107,-0.0038423729081638156,0.07624503529071808,-0.001034019222855568,0.009876031615794636,-5.500826782768964,-8.067412716022133,0.02519827539546954,-0.11476874918099529,1.3864481467898409
1698415352534.0,0.01666666753590107,-0.02345564872357063,0.026065000104904174,0.022277298259735106,-0.006883380005299113,-5.547364077538251,-8.046613089099527,-1.2897725820604224,1.489868309881235,0.2185025140048284
1698415352551.0,0.01666666753590107,-0.05112301512435078,0.028904022923111915,0.04916179805397987,-0.03022684619182255,-5.540031834954023,-8.022820710101723,-0.9667382516561406,1.4580027026387754,-0.22238239495872622
1698415352567.0,0.01666666753590107,-0.02780840285626473,-0.015629530808329583,0.09482932425141334,-0.003591355005872901,-5.583426740044355,-7.977928844451903,0.38272578147982994,0.42628080391951695,-0.2893141133587521
1698415352584.0,0.01666666753590107,-0.01462220322957728,0.03642331251204014,0.09929448696672916,0.008379653294908349,-5.533148505181074,-7.972243200030922,1.2840716152592833,-1.476082746980328,0.3524124414479613
1698415352601.0,0.01666666753590107,-0.020646744765702166,0.043728082567453384,0.11100187589526175,-0.0025438883546215945,-5.527761551445722,-7.9592247285038225,0.9981371648792181,-1.9021387416266162,1.2223465553996433
1698415352617.0,0.01666666753590107,-0.010625470876763575,0.05281798247396945,0.11484043114483355,0.001645963409007527,-5.520279671257734,-7.95428668757975,0.31048345759798684,-1.5739643737067823,1.2682182125871548
1698415352634.0,0.01666666753590107,0.01758030411649961,0.016467150676250458,0.0858773715108633,0.024390880322136217,-5.555893420952558,-7.983765295520424,-0.7885752217555909,-0.7443946767178923,0.3132718556462181
1698415352651.0,0.01666666753590107,0.03391875951231923,0.014054828837513923,0.07963760033845901,0.039803552938569915,-5.556940884178877,-7.990947900500893,-1.2964879386750143,-0.280843638251305,-0.6116579543266282
1698415352667.0,0.01666666753590107,0.03843735118161421,0.030873861691355704,0.13852233550548554,0.04683652316938969,-5.537188720482588,-7.934085026550292,-1.2530230693962863,0.712334515805793,-1.655016627761737
1698415352684.0,0.01666666753590107,0.05657965482873842,0.05567512547075748,0.1389981363236904,0.06853397114797845,-5.50995467659831,-7.93528212738037,-1.051033458184676,0.8942851524053791,-0.8647360465086115
1698415352701.0,0.01666666753590107,0.025352723649702966,0.12588263416290282,0.18474983367323874,0.03860645267931395,-5.438278264397383,-7.890540483856201,-0.8821491869107358,-0.2912617311284107,0.3076271845448786
1698415352718.0,0.01666666753590107,0.04428466157086659,0.08925707707703114,0.11696575273573398,0.05252274640403921,-5.474041651695966,-7.958925453296303,0.3070953102436903,-1.1827426639926764,1.8246775662495016
1698415352734.0,0.01666666753590107,0.038345841539837416,0.06413257269263267,0.18096388539373873,0.042347393629541326,-5.500976420372724,-7.893683458057046,0.9369627890214104,-0.02646220723746569,2.438462484172354
1698415352751.0,0.01666666753590107,0.02510269897796679,0.09492401679754256,0.26021862389445305,0.02708435947310063,-5.47134875935018,-7.813627340045571,-0.45053661993123056,1.267852904188265,2.455420349777615
1698415352768.0,0.01666666753590107,0.006354068034724332,0.031442016968131065,0.35583880626261233,0.009876032472027873,-5.531352853935957,-7.7204025283813476,-2.7881933559995713,2.7942209979421078,1.9027760836535432
1698415352787.0,0.01666666753590107,-0.0253058363176533,-0.10331132139265536,0.5812152493566274,-0.013617072174488567,-5.6554024274528025,-7.502381124225258,-4.617479805834951,3.9038646295597803,-0.2803657918136685
1698415352800.0,0.01666666753590107,-0.08343480066433548,-0.19034838433265686,0.7884726829141377,-0.06165074298137333,-5.7312681080371135,-7.302763976287841,-6.057146225316592,3.705118931317103,-1.3229073238280353
1698415352817.0,0.01666666753590107,-0.03348872036486864,-0.2085106484889984,1.0268377869188785,-0.0031424421945936043,-5.729024128502607,-7.078308155170083,-8.283586831047057,-1.0168202935801416,-2.0692450826430906
1698415352834.0,0.01666666753590107,0.053002088602911675,-0.300609086471796,1.1469985363036392,0.0827495446468005,-5.801299091118574,-6.9716159591674804,-10.516435434879464,-2.0750208613599823,-1.5578811992021064
1698415352851.0,0.01666666753590107,0.007234652544825803,-0.3095283059865236,1.1421341451376676,0.03516478436790639,-5.786634605950117,-6.992416170611977,-12.401693150528981,-1.5460508846728211,-2.000298591840043
1698415352867.0,0.01666666753590107,0.08846106786113232,-0.3752724055290222,1.1761112335413693,0.11656764537979615,-5.814167925041914,-6.98403646480143,-15.123635379126721,-1.283550706613364,-2.3887666681015762
1698415352884.0,0.01666666753590107,0.11066018631812184,-0.45225452292263507,1.197151098960638,0.13931256115128052,-5.857862105339765,-6.985083928027748,-16.43263771846508,-0.819170093647311,-2.017010570635183
1698415352901.0,0.01666666753590107,0.14214242569878696,-0.4990694655895233,1.3039865028262139,0.17298101743065053,-5.868486375206708,-6.902035057941078,-18.563282786652,1.4124583609228956,-1.8145417789646143
1698415352917.0,0.01666666753590107,0.17918997105639428,-0.5595195503771305,1.347145845595002,0.22849656614223493,-5.865044125798344,-6.900238822174072,-27.329874982592973,6.814281232548968,-2.797965862597979
1698415352934.0,0.01666666753590107,0.08239915573997422,-0.6500111376851797,1.4402981765449046,0.1484404526973376,-5.892129116600752,-6.847417332568765,-31.04829143845044,4.607787767402702,-2.4347553990003297
1698415352951.0,0.01666666753590107,0.08221757949483581,-0.7326701316714287,1.7939707446843385,0.15038573241306002,-5.888239123424888,-6.547842265319824,-28.021759485136922,-7.5115748180287465,-3.288182199708134
1698415352967.0,0.01666666753590107,0.11852226146273315,-0.8533458448410034,1.9503893868863582,0.16669623578945175,-5.951236554607749,-6.426935666003823,-24.90372861015462,-13.713288400431006,-3.6480445899520073
1698415352984.0,0.01666666753590107,0.05605237955162301,-0.8984411241084337,2.002464442038536,0.08005606549583608,-5.942257713860273,-6.407631830596923,-24.67266501808038,-12.183885248086444,-2.992847381317721
1698415353001.0,0.01666666753590107,-0.2310174446556717,-0.8087626067489385,2.0763398255884646,-0.22834704498619537,-5.773018168529868,-6.380996337127685,-31.212263789854937,-3.9040823418395747,-3.6978913105147604
1698415353017.0,0.01666666753590107,0.04886246804753318,-0.7565081033766269,2.2187258507847787,0.04893144621493165,-5.646723446434736,-6.28163755275309,-35.51066234398946,-3.5021504686200653,-4.29127509371702
1698415353034.0,0.01666666753590107,0.04686665458781644,-0.8093500512480736,2.394113981872797,0.0480336221442958,-5.614551361626386,-6.15459464263916,-41.165027618195346,-1.1967061319771213,-5.166901503331246
1698415353050.0,0.01666666753590107,0.19910086897835133,-0.7677306313976645,2.4468045385748147,0.20350708003531034,-5.471947017504275,-6.157886669921875,-49.405418625383945,-1.228036636586793,-5.588422359090352
1698415353067.0,0.01666666753590107,0.213738539205119,-0.8426400341704487,2.444334349068999,0.22685054565101162,-5.3829123510062695,-6.247969091907144,-58.54138062145004,0.9610580955876287,-5.341815817786102
1698415353084.0,0.01666666753590107,0.35143260719291863,-0.9767264330551028,2.445572950953245,0.3719990349977161,-5.380218874138594,-6.316801805114745,-61.037739631008826,1.3104503394424014,-2.714127211526776
1698415353101.0,0.01666666753590107,0.5170733243137597,-1.167229131166637,2.361212998268008,0.5481224877730942,-5.388448942345381,-6.490381425476074,-57.2651495297494,4.319639161792789,-0.6858559001060633
1698415353118.0,0.01666666753590107,0.6504982636149972,-1.451414613842964,2.1696540691018105,0.6979097474029288,-5.543024879290163,-6.742520787811279,-54.33906233837009,7.705122742313044,-3.543048787596456
1698415353134.0,0.01666666753590107,0.6571018265984953,-1.625373296649754,2.1482857023805377,0.7279868372599827,-5.593752026964724,-6.819284878540039,-51.4391620922686,8.288828147461395,-5.279419478397097
1698415353151.0,0.01666666753590107,0.3840592673683539,-1.5382298507258294,2.4380448935359715,0.49200836809687315,-5.340565201403201,-6.600814561572671,-56.17083711149747,11.943480518548567,-4.54170440652236
1698415353167.0,0.01666666753590107,0.29284716549972073,-1.6338289903059602,2.174871511489153,0.43125550097040827,-5.2958235578790305,-6.921337724304199,-61.71185881152158,9.167693347402677,-2.680155771585837
1698415353184.0,0.01666666753590107,0.34102957886122165,-1.912546562965214,1.9843267278015613,0.4905119737929664,-5.425409722734988,-7.170334696960449,-62.4763413947536,-1.6482662664276488,0.740765178225971
1698415353201.0,0.01666666753590107,0.5777109310301021,-1.966812990681827,1.467511762163043,0.6883329042296856,-5.28953877852112,-7.758410479736328,-54.5097726713908,-19.867963323793035,5.045008239855906
1698415353217.0,0.01666666753590107,0.7456943022869527,-2.2391744723126292,0.43151743984222407,0.7960719743701397,-5.444413698412478,-8.83639977722168,-43.01965961938017,-24.94326516016524,3.856196312455438
1698415353234.0,0.01666666753590107,0.6457634901780634,-2.3551079593911766,-0.15498714809417724,0.6504746381421151,-5.455187898144126,-9.458742571258544,-48.77223959875626,-5.86079664281212,-0.8842067280373492
1698415353251.0,0.01666666753590107,-0.036619743833015674,-1.708834254668653,-1.3478180457681417,-0.00823012757229153,-4.618414125658571,-10.71285532836914,-67.10647882178105,19.562407981083343,1.8452823259847262
1698415353267.0,0.01666666753590107,-0.4306565852291882,-1.739448004119098,-1.7480565502494572,-0.3494038687111344,-4.485386588177085,-11.162067414855956,-62.86611980011871,22.238629777150663,8.221637015275041
1698415353284.0,0.01666666753590107,-0.28702260579839345,-1.7186550991982221,-1.765365996968746,-0.16894091857685706,-4.330810651232302,-11.2169838309139,-46.20546133885463,16.588198691906705,16.46471228680746
1698415353301.0,0.01666666753590107,-0.2975300078200176,-1.736456713348627,-1.819300416252017,-0.14200614076694473,-4.234294689068198,-11.301230386352538,-23.763199716883793,17.527336042405118,28.745981518306298
1698415353317.0,0.01666666753590107,-0.10923134082509205,-1.3161577098742128,-1.9483985053300856,0.051774556101951745,-3.7768522421136494,-11.439944445037842,-7.318009818271524,3.545401360878702,29.918055640258828
1698415353334.0,0.01666666753590107,-0.5338463260687888,-0.8345847380086779,-2.2227765874803067,-0.3769371969360858,-3.2993586485162374,-11.713332347106933,7.887771392229294,11.054796921675392,33.63258571847856
1698415353351.0,0.01666666753590107,-0.5264314467024058,-0.13063128999471663,-2.6638778482258316,-0.3523966116531752,-2.605639009746909,-12.151471250915527,-10.031513348149714,13.349973563005102,23.098178348345503
1698415353367.0,0.01666666753590107,0.6424927248790859,1.2946369290702044,-3.32032632548213,0.8417114115508273,-1.1261720213741064,-12.821398802947998,-32.54648660270357,16.712936729171357,17.215172491673442
1698415353384.0,0.01666666753590107,0.5272883192600683,1.4509753456428647,-3.2313521569997072,0.7529763673202134,-0.8765763521723449,-12.75510934448242,-41.910098803806186,12.84487851256172,20.071721527112853
1698415353401.0,0.01666666753590107,-0.29350889907777306,1.716921553403884,-3.294378229755163,-0.06165076581425964,-0.46971185368001456,-12.85132632369995,-43.062570282840774,1.2137007098491708,33.89830739794874
1698415353417.0,0.01666666753590107,-1.2687345721811056,1.5851782105140386,-3.256590058630705,-1.0782887005570343,-0.5033801683954894,-12.836362563323974,-35.70801382986781,-16.484724741075595,44.26961497334377
1698415353434.0,0.01666666753590107,-1.536653833580762,1.169176904233545,-2.8914707983255385,-1.4308348676155787,-0.8571236098140478,-12.485911295318603,-12.861260721285996,-30.161924129479548,48.05544539630927
1698415353451.0,0.01666666753590107,-1.1660197553768754,0.6023043607451022,-2.153166460159421,-1.2048819854736328,-1.4531301855891943,-11.741913129425049,27.537167808808274,-40.0213363473388,16.146744782828563
1698415353467.0,0.01666666753590107,0.6049884487299249,2.109987535907328,-3.387119641816616,0.4601356406944338,-0.025138386779278515,-12.957419384765624,29.329590447032626,-44.85036888299703,-29.239787119825298
1698415353484.0,0.01666666753590107,0.9864503930814563,2.615350256422162,-4.627664476823806,0.7860463690826669,0.4478660787053406,-14.189685051727293,-9.009352486968856,-10.0425517876221,-43.83353813068972
1698415353501.0,0.01666666753590107,-0.8691315891243517,1.9911514592550694,-6.471327765437961,-0.9292495193481445,-0.06269727919250727,-16.060304736328124,-52.68329812505935,70.52164170867913,-13.06000044311315
1698415353517.0,0.01666666753590107,-1.9119120644539593,0.6583689239248633,-6.231169348275661,-1.7351977079971692,-1.26428752964437,-15.84587405014038,-48.306526565293524,111.16699779896864,-10.533145492683898
1698415353534.0,0.01666666753590107,-1.486292158217728,0.12062997433170676,-5.512120330199599,-1.021875342205912,-1.696291145568341,-15.137788909149169,-34.61156356240566,104.52230973662425,-20.345999726065763
1698415353551.0,0.01666666753590107,-0.7774790682781487,-0.712691465742886,-4.651373853713274,-0.04848280281387269,-2.447023003631085,-14.27587572697103,-10.420001701535345,39.01051616150111,-23.76125311297034
1698415353567.0,0.01666666753590107,-0.16653540093824265,-0.7545746510960161,-3.6354479214310644,0.603039397021383,-2.4827865370601416,-13.257891693115234,8.970181352078834,-12.034969194933595,-22.98981739716325
1698415353587.0,0.01666666753590107,-0.4552906757481396,-0.6498011481963097,-3.6583407212406396,0.2651577607970685,-2.413803455596417,-13.278092769622802,20.828902638122127,-29.423017189594642,-21.187284371419988
1698415353600.0,0.01666666753590107,-1.0600151032470166,-0.47125148433744907,-4.1744536760896445,-0.39713827344365416,-2.2777830199092626,-13.790451924896239,1.4510206484814356,-8.693343539734462,-25.64921643730483
1698415353616.0,0.01666666753590107,-1.097179151123762,-0.5495673345528542,-4.370625067487358,-0.41389775812998414,-2.322674301037192,-13.991415226745605,-23.27210911555988,14.109329235491378,-26.961913908984165
1698415353634.0,0.01666666753590107,-1.2792813928976654,-0.5707074454762041,-4.099824843823909,-0.5331590744569897,-2.260724186950177,-13.730895574077962,-36.496866528058426,23.992887025840275,-26.219624317912814
1698415353651.0,0.01666666753590107,-1.6388596779495477,-0.2788420758217573,-3.40488618465364,-0.8023569044250994,-1.8432352724604308,-13.0497457862854,-30.811246308210563,18.83523530619252,-25.178712026139333
1698415353667.0,0.01666666753590107,-2.169870926722884,0.007212415596842765,-2.799977925020456,-1.2886793358400463,-1.4891928480952976,-12.451643699535726,-17.93528958115164,8.685421374070893,-25.89071485088356
1698415353684.0,0.01666666753590107,-2.0489605280146,0.033705870246887204,-2.496342184203863,-1.1499651310242711,-1.4303854159481824,-12.151321613311767,-2.088539299831319,-3.3824134104883337,-29.093054165885913
1698415353701.0,0.01666666753590107,-1.3342321496166287,0.005751257003098726,-1.4625760593265293,-0.45998621315322813,-1.4835066191524267,-11.115979032897949,21.525776593854772,-17.590008150681864,-25.80644397690394
1698415353717.0,0.01666666753590107,-0.8212620228379964,0.379002824229002,-0.24407529834508895,0.01735781590566039,-1.1721107657283545,-9.890895970916748,29.70207481341927,-16.762691242180313,-19.184037699179438
1698415353734.0,0.01666666753590107,-0.5751765537142753,0.5177231665246188,0.3045212914794683,0.23104031407460568,-1.1010329039424658,-9.3339448097229,25.411312410776823,-13.874995690351996,-11.67412603221359
1698415353751.0,0.01666666753590107,0.03955437707938254,0.43347704947739835,1.1799684934914112,0.8131305927000939,-1.2511194205135105,-8.449885846710204,16.04438756792675,-9.275921963669761,-9.044691031960856
1698415353767.0,0.01666666753590107,0.4229053865805268,0.24565643005669116,1.5583809506118296,1.1777973599974065,-1.4745283629268406,-8.066663943481444,15.083938319670606,-10.29661348040542,-12.889203878954165
1698415353784.0,0.01666666753590107,0.5240742891170084,0.14417042439505456,1.6181290246099234,1.2443861667357385,-1.616085536083579,-8.002319773864746,21.422888331744993,-27.72659115260753,-12.432225803666231
1698415353801.0,0.01666666753590107,0.5796311950355768,0.20344503566250205,1.6317635822087526,1.1945567716185004,-1.6404763193659484,-7.98032304611206,27.907043042931974,-34.34302784499744,-18.60593731801873
1698415353817.0,0.01666666753590107,1.5465883676178753,0.5456101213596761,1.4863719454556703,2.0825064219268037,-1.369632402691245,-8.116493265533446,32.44256527448182,-38.51301201254655,-19.50590182607983
1698415353834.0,0.01666666753590107,1.3667597698643803,0.8103102745823562,1.5948568700939416,1.7990926908079534,-1.1978484335750341,-7.994239343261718,43.742249237337916,-49.26228518113716,-10.787813364756056
1698415353851.0,0.01666666753590107,1.7070174145050345,1.233828386233747,1.9179495910525322,1.985990149235446,-0.9314933527521788,-7.642590974426269,47.62118196887986,-42.35029425052975,-2.16846510628175
1698415353867.0,0.01666666753590107,1.7364681115254759,1.2514656036026774,2.254035064575076,1.9262847453352994,-1.0236699705377221,-7.283160865673422,39.71963664641559,-27.258130675551158,4.850936525439633
1698415353884.0,0.01666666753590107,1.9253123749054968,1.0257475074641407,2.6502824535936114,2.0644002444724086,-1.3353652452997862,-6.866869636535644,29.252617630181167,-11.770684416510061,6.127694822366831
1698415353900.0,0.01666666753590107,2.0983422524295747,0.687350834389776,3.363284592720866,2.2079028252090325,-1.7530039435237645,-6.134243928527832,19.823802735714317,-6.842568887883399,0.7035904862860015
1698415353917.0,0.01666666753590107,1.8468413341283798,0.6210752583190798,3.991494817486405,1.9324199510215314,-1.865082216478884,-5.494393534851074,17.96291769634434,-14.643015457800434,-1.9826888700558691
1698415353934.0,0.01666666753590107,1.8823041310451925,0.6921478594079613,4.109152644139528,1.9207481950953835,-1.8379981024593113,-5.365406504932046,14.782499873483141,-17.458124027998085,2.7321834569279395
1698415353951.0,0.01666666753590107,1.261402329596877,0.9448600531950593,3.497730472567677,1.2436380654819077,-1.6150380728572606,-5.9688943763732905,8.751295987294727,-11.581249973653403,26.634952753415657
1698415353967.0,0.01666666753590107,1.6785327860377728,0.5416118455037474,3.319870982930064,1.6156371484286849,-2.0519795835748313,-6.1373863182067865,20.164936533810604,-6.834138726900311,30.891975729105532
1698415353984.0,0.01666666753590107,2.0506234927907583,0.2614323835983872,3.248390970084071,1.9680337007163557,-2.3965946927726267,-6.190806942749023,30.95485103551008,6.321363555622073,22.01342307228971
1698415354001.0,0.01666666753590107,2.128100115703046,-0.07095657349377871,3.3665567462593313,2.0739771150451154,-2.8257556326165796,-6.045060501208901,24.45053531344052,16.96364223775126,12.990919056073995
1698415354018.0,0.01666666753590107,1.459971429786086,-0.042296588459610936,4.035867627698183,1.4285901208960916,-2.837577003313601,-5.363909544372558,8.120533993859574,8.448062908902841,14.498640626671996
1698415354034.0,0.01666666753590107,1.5086604957617817,-0.32509470843076704,4.200518676194548,1.4715362067899782,-3.115603671099245,-5.200654918670654,-8.63877032826606,-2.5427080329362624,13.763756668208229
1698415354051.0,0.01666666753590107,1.5079808429345487,-0.47639235435724253,4.01246687836647,1.4510358436584472,-3.244142372728884,-5.3953334411621094,-8.327964277631922,-5.0564867996429355,11.289086070585169
1698415354067.0,0.01666666753590107,1.3761267331466078,-0.8043684634432197,3.103242494437098,1.30424134980354,-3.5642174994319675,-6.306776085662841,3.3259668061966443,-0.7987810184794709,7.547310367766253
1698415354084.0,0.01666666753590107,1.1371673895757646,-0.924006065736711,2.840135163363814,1.0724526787467765,-3.7256761816278097,-6.557568709564209,20.35782449106635,8.304171313658182,9.29076823360443
1698415354101.0,0.01666666753590107,1.1649406549032777,-0.920852277880907,2.7925428065836426,1.1125555702541257,-3.7793960813775658,-6.5880947807312005,25.427382138346573,7.492923278952734,13.413470416624126
1698415354117.0,0.01666666753590107,1.3327528708443044,-1.157430498468876,2.9904525660812853,1.2800000168952625,-4.082112953783572,-6.369773516845703,28.557555382125866,0.7956421196690269,17.210848981928823
1698415354135.0,0.01666666753590107,1.3282827396929264,-1.26815735681504,2.557595986589789,1.2481271981612778,-4.291755528911948,-6.770951932525635,32.93791791384783,-3.73255793564716,17.94129160988479
1698415354151.0,0.01666666753590107,1.1748244816664606,-1.2857926744878292,2.313193355986476,1.0748468895400873,-4.393508807207644,-6.987478129687905,36.22449224433666,-0.42979018713158124,15.839749977751293
1698415354168.0,0.01666666753590107,1.1274527818996458,-1.578733126027882,1.5373732338964938,1.024568618144188,-4.7756835394710295,-7.732972087097168,37.493367222301195,7.9694092282838715,12.390743503515804
1698415354184.0,0.01666666753590107,1.0768947071816772,-1.2996838371962307,1.1476999625712632,0.9997288215858395,-4.617217024828493,-8.080431187549234,37.22561356155294,14.799442157719358,15.191913365164753
1698415354201.0,0.01666666753590107,1.0306379098542033,-1.1007578863933682,1.038741575202346,0.9689034204124006,-4.5072333860650655,-8.157045056152343,37.12756278092282,9.809972747325766,19.04205684935509
1698415354217.0,0.01666666753590107,0.9381327177014201,-1.288064418812096,0.8988660715222359,0.874931041783886,-4.781219546288251,-8.264335218048096,34.63320843188543,3.2705131406555457,17.886677417281366
1698415354234.0,0.01666666753590107,0.542917923133634,-1.4541156894952059,0.5391752660065889,0.4626794342925772,-5.045330501446127,-8.585907013049722,26.973960655132778,-0.9881842985980401,10.779063038655623
1698415354251.0,0.01666666753590107,0.3481343693651259,-1.6218991907984017,0.31791444153785703,0.2609679352912586,-5.270834370312095,-8.784176253509521,21.72391184394038,1.1055033630418816,3.2240738307149828
1698415354267.0,0.01666666753590107,0.05633203674321994,-1.747452739137411,-0.04952186353802681,-0.025288782434863967,-5.440074207903445,-9.134028971099854,14.395434760765811,3.1128205078626414,-3.257055106669682
1698415354284.0,0.01666666753590107,-0.11972794745806604,-1.7713859879106282,-0.4449462457358837,-0.18240826638261787,-5.491698888939618,-9.51829892207682,3.927738702029914,4.452152515653854,-3.990891911756321
1698415354301.0,0.01666666753590107,-0.1449603326637298,-1.7202055435106158,-0.5905342818439007,-0.19737202675859442,-5.44576014458537,-9.661800799560547,0.8432799143655155,1.8292589156352879,-0.4204707675350691
1698415354318.0,0.01666666753590107,-0.10942833383507095,-1.8871105084136128,-0.9427145655989646,-0.16819269859201738,-5.607668324114382,-10.015993007659912,-4.909394406998479,-3.3735625525410553,4.970065696735233
1698415354334.0,0.01666666753590107,-0.5295137402245774,-1.4437164605557917,-1.4743939228922127,-0.6024410155697026,-5.147233125084639,-10.554538743591309,-8.971649842750386,-2.0784726682117776,8.502109342031506
1698415354351.0,0.01666666753590107,-0.7368459560513496,-1.3224118018329143,-1.584772113931179,-0.8189666419098153,-5.003880592943728,-10.67379991378784,-8.866825222010908,1.6458935227430098,9.456595835142231
1698415354368.0,0.01666666753590107,-1.1212917019866406,-1.090493097488582,-1.6356909847855567,-1.2047323935356455,-4.749047753740847,-10.733954230499267,-5.229262838000754,1.7523673140019287,4.776002520055423
1698415354384.0,0.01666666753590107,-1.4489151982426642,-0.7611018609076738,-1.5021230568170547,-1.5408184881126974,-4.414757639202476,-10.602273139190673,2.083976520022339,-8.383664470313375,-0.44203690307639926
1698415354401.0,0.01666666753590107,-1.4500631992340087,-0.514730560579896,-1.4573188694506882,-1.5746364952308591,-4.189552753283083,-10.548553239440917,16.257655102118523,-20.81629240136699,-4.676353475159522
1698415354417.0,0.01666666753590107,-1.4693851548194885,0.035032150414586065,-1.2462912697046995,-1.6698060386215337,-3.7204391577571627,-10.303147569274902,31.443858429137148,-30.861444783515573,-7.329794455910735
1698415354434.0,0.01666666753590107,-1.3984708130322396,0.5485302465900779,-0.745944623786211,-1.6708534653152338,-3.27855902159363,-9.770886612701416,26.612131383851352,-36.54729722979522,-8.385015993995392
1698415354451.0,0.01666666753590107,-1.338222680557519,0.7365899354636669,-0.6007043782025575,-1.6910545600891111,-3.1359543852105736,-9.603442134094237,9.818835771547503,-40.42014426278668,-13.078307911409723
1698415354467.0,0.01666666753590107,-1.3954799606531858,1.0230269964590668,-1.1908406006395815,-1.8426374892303719,-2.8449089536368843,-10.191368279266356,-12.943269095103046,-33.86391739547772,-25.22164488771474
1698415354484.0,0.01666666753590107,-1.485134220354259,1.71685915569216,-1.806771189546585,-1.9713256823332979,-2.1134803464591503,-10.82134259109497,-21.164756699989994,-23.59803549746913,-29.27116842396692
1698415354501.0,0.01666666753590107,-1.2753075208306313,1.9701316137105225,-1.8766034351855516,-1.7827823746612295,-1.8122601423516869,-10.91022791225016,-22.13008441086082,-19.152782753537462,-25.875527925264034
1698415354517.0,0.01666666753590107,-0.7906213853806257,2.0764351026564833,-1.326502286016941,-1.337460865872167,-1.649155446514487,-10.38140862056315,-16.480211693581513,-23.500210113081625,-12.952646944833475
1698415354533.0,0.01666666753590107,-0.6335492477059363,1.7282535331487654,-0.5564502259343862,-1.2330137819152325,-1.9690803510919213,-9.619603579822183,-9.479235350919884,-28.370312576219135,-6.137613537702158
1698415354551.0,0.01666666753590107,-0.5110547946766019,1.2939011621415615,-0.11440028616189955,-1.1722609147887677,-2.3921058569207787,-9.177873373523354,-1.4599828171678444,-27.748946361760982,-6.499503426912468
1698415354567.0,0.01666666753590107,-0.3872622646607458,0.4537237186923623,0.9214438140332698,-1.1142015975952149,-3.2421973761409517,-8.13295340194702,3.9336664524558387,-21.781603036764892,-12.177700511792997
1698415354584.0,0.01666666753590107,-0.0015424802016466856,0.010298106652498244,2.112284999194741,-0.7638998941283672,-3.6970953993096947,-6.934505833435058,2.6708233853020724,-19.39581112949027,-13.932571623734265
1698415354601.0,0.01666666753590107,0.1905011637415737,-0.11185469333231449,2.534664023813605,-0.6021416444640606,-3.825783446282148,-6.506842146411538,0.35636688085356066,-18.046578975940534,-14.651025562149567
1698415354617.0,0.01666666753590107,0.5483689916137605,-0.19826602558940648,2.954428482019901,-0.28057050704956055,-3.912573840984702,-6.083666418457031,-2.732715571352966,-17.02801677067863,-16.101117411625587
1698415354634.0,0.01666666753590107,0.7832770139671862,-0.10695406180918215,2.9204566543132064,-0.06778583450317383,-3.8184514959588647,-6.1167363288879395,-1.7595558746599556,-14.581559123195952,-15.496242688918427
1698415354651.0,0.01666666753590107,0.8539017982233316,-0.030342823554575443,2.8129320991396902,-0.011821224566549063,-3.7481218221917745,-6.220286135211587,4.944963897761791,-10.10725416962963,-14.400635949818776
1698415354667.0,0.01666666753590107,0.8644712691631168,0.12418109094202517,2.555612119296193,-0.0037408670287579298,-3.6351454313531515,-6.460155214038491,18.86883812936169,-3.544479498784162,-14.75166498447512
1698415354684.0,0.01666666753590107,0.8298778754919767,0.2186301837041974,2.47918938935101,-0.027832448168843983,-3.5995316816583274,-6.512826481518149,27.837139471871478,-0.5746551910546724,-14.606543955179859
1698415354701.0,0.01666666753590107,0.8515690444268286,0.3600917875319719,2.6175930669128893,0.006584054565429687,-3.5312966420829293,-6.3441854866027825,30.83113240397906,-0.18830385978603517,-12.748778604713287
1698415354717.0,0.01666666753590107,0.89444737829715,0.49755496937334537,2.7731939629912374,0.07062902203984558,-3.4893984052911398,-6.148460085406899,27.62126792805864,4.694354438717091,-9.91342450004207
1698415354734.0,0.01666666753590107,0.7351211780853569,0.4044733655720949,2.707283859232068,-0.05790967958979308,-3.641280280846357,-6.190657305145264,20.6568057766999,14.00856345466618,-8.781177211139887
1698415354751.0,0.01666666753590107,0.5381824555769562,0.39475393559038635,2.6143898869574067,-0.20470424194335937,-3.690511344744265,-6.269815597534179,12.20658111292475,20.670090494635577,-8.506293686671786
1698415354767.0,0.01666666753590107,0.3122772393684834,-0.019083762915432453,2.5070541323542592,-0.3520972085814923,-4.137029954363405,-6.368277140808105,9.660013382777196,19.725620473942676,-9.637259461330945
1698415354784.0,0.01666666753590107,0.33807723186165095,-0.7430024328544735,2.388582066708803,-0.27922369555048643,-4.88776181242615,-6.477662813678384,11.572307548482565,11.073338323951038,-10.673439285783253
1698415354801.0,0.01666666753590107,0.3575918604750186,-0.9823106629282236,2.315860529369116,-0.23044190979003906,-5.151722837719321,-6.540809297943115,6.764507082746147,4.5939463890496715,-12.298519728021354
1698415354817.0,0.01666666753590107,0.13369440389238296,-1.4796347461551427,1.5829887376457452,-0.41838674011230464,-5.649716198509931,-7.275679570007323,-9.198421514704918,8.19017545641067,-13.969314626374349
1698415354834.0,0.01666666753590107,-0.22893957893569022,-1.6007316073462365,0.27685996209383007,-0.7351695472717285,-5.737553764177859,-8.600122585406899,-20.114910520782136,19.85223852077637,-12.351455401636244
1698415354851.0,0.01666666753590107,-0.44038383319117125,-1.6294310476079583,-0.38533611890375613,-0.8723872664520517,-5.718549788500368,-9.288305340576171,-20.10960004870245,34.663083679315065,-6.557039232933363
1698415354868.0,0.01666666753590107,-0.8189298535633832,-1.944527801376581,-1.1528040077120065,-1.126920830447413,-5.995379355455935,-10.078392472949623,-2.681138251609261,39.77267648041532,2.331607376258678
1698415354884.0,0.01666666753590107,-0.7982436238873749,-2.5140686872914433,-1.1655267111629246,-1.0296563514709471,-6.577918254631757,-10.087519782257079,13.395312358715648,29.842793785794456,8.248978262522602
1698415354901.0,0.01666666753590107,-0.7552227397412061,-2.6960888037398454,-0.9401765715539455,-0.9449615225418471,-6.799980750872194,-9.844807588958739,19.33294436082218,15.420367824976047,10.72562193104215
1698415354917.0,0.01666666753590107,-0.8227038922093808,-2.8752453474506736,-0.87065938321352,-0.9907506658249534,-7.029524835039675,-9.752331549835205,11.921833941521504,12.034564506225271,8.642180300209189
1698415354934.0,0.01666666753590107,-0.541564901089482,-2.836392469704151,-0.907478417044878,-0.6866870184524916,-7.007827382494509,-9.781510882568359,2.3804060896706574,12.38215966327639,5.522947738819786
1698415354951.0,0.01666666753590107,-0.2873949279758148,-2.8249665280655023,-0.8972101210087537,-0.4183867949112318,-6.985830654741823,-9.776423788562417,-12.256792394834452,2.8575624647575135,0.9532828857129212
1698415354967.0,0.01666666753590107,-0.44181503503806885,-1.9307529585242271,-1.9883254420489072,-0.5650316557289566,-6.0230620198905465,-10.899454004779457,-29.986289230067253,5.552368351782793,-3.1039209848175267
1698415354984.0,0.01666666753590107,-0.8656411166600883,-0.8000321878045797,-3.788291627755761,-0.9496002973915543,-4.82416583082825,-12.730868637195229,-25.496840039563725,24.426624528703595,-6.525142249509403
1698415355001.0,0.01666666753590107,-0.9032816960074007,-0.3419911904349923,-4.101926784539223,-0.9026141118589938,-4.332905577684938,-13.059771505737304,-0.6731838714832798,39.668256548384164,-6.643329708473188
1698415355017.0,0.01666666753590107,-0.3083448683556169,0.10672025305330753,-2.97985109256804,-0.18076228927387855,-3.935617447441816,-11.91369709854126,29.035967444802946,30.9335510905834,-2.808011790206598
1698415355034.0,0.01666666753590107,0.34910927881188686,-0.15678163029551506,-1.2264520122468472,0.5172970865996555,-4.269758508898318,-10.127323384857178,28.826786071282136,-0.3762310453115147,-3.1015754551678616
1698415355051.0,0.01666666753590107,0.41189160593934354,-0.09230506647080182,-0.6618155572474003,0.5463267817290499,-4.254944386126101,-9.540145427703857,12.024378132851844,-32.49833718414956,-10.854487110112782
1698415355067.0,0.01666666753590107,-0.2807468134645372,0.471367219671607,-1.2099632342606783,-0.23567930812002158,-3.6830291722953317,-10.093056373596191,-14.981898708565202,-34.01273697220854,-24.347703400391392
1698415355084.0,0.01666666753590107,-0.6594363339606673,1.5078160077616571,-2.7700346221774814,-0.6388030263485619,-2.599952488543093,-11.674875482940672,-23.301668466740402,-11.781154242734043,-30.21808535992998
1698415355100.0,0.01666666753590107,-0.5933569380491972,1.8399606347039341,-3.191986945816874,-0.5443817120758816,-2.215533484484255,-12.120645904541014,-20.11542961515906,6.631398221766823,-27.477705889441435
1698415355117.0,0.01666666753590107,-0.12870665120822378,2.4372595883771777,-2.648057178759575,-0.026336318726418537,-1.5717925131097434,-11.597213566589355,-9.489587356380685,3.058276538141624,-15.842731355324004
1698415355134.0,0.01666666753590107,0.14369340886729767,2.3737203054025766,-1.4454665190935134,0.24959542260658926,-1.6216215429008005,-10.400711286926269,-3.398278872713216,-10.571194769002748,-8.131503277666614
1698415355151.0,0.01666666753590107,0.08887050717854872,2.3785139694198967,-1.0048843137860297,0.165499089293601,-1.6150377805963159,-9.961226229205726,1.4833015098810909,-18.06837069448746,-3.896566999318445
1698415355167.0,0.01666666753590107,-0.272342028011661,2.3601690421730277,-0.07132803715467452,-0.2475006811003317,-1.6475088483512401,-9.021651130676268,6.237917426984735,-15.10100696240647,1.8308864216484548
1698415355184.0,0.01666666753590107,-0.5189053985791281,2.3162468983381985,0.9760182847857475,-0.5261258856012835,-1.7097580915153026,-7.9661074737548825,9.336427194432318,-7.895594520149897,6.9068930481656405
1698415355199.0,0.01666666753590107,-0.5322651212919504,2.118044293373823,1.5059803167670964,-0.5590461698448751,-1.9364593534722923,-7.423222831836342,15.376299444451126,-1.4080812768819753,11.594556889703881
1698415355217.0,0.01666666753590107,-0.4433557982066646,1.665166962377727,2.6186802776277065,-0.4918588811901631,-2.4515119856134056,-6.28193682796061,24.410891187950472,-1.2402040849846416,15.83967313812313
1698415355233.0,0.01666666753590107,-0.28861038644649084,1.1958335866212844,3.7083600129067897,-0.36332017956052437,-2.9819772909417748,-5.163544792938232,27.34312725713009,-7.082260289539834,15.921720785527908
1698415355250.0,0.01666666753590107,-0.20405615329816937,1.0217597530022262,4.0493613155215975,-0.32022454511113463,-3.2137656469047067,-4.7946880996704095,21.578008757985152,-15.255140426311561,11.619074707503287
1698415355266.0,0.01666666753590107,-0.05225886902017519,0.5628957488119601,4.136514698317646,-0.23732529436191543,-3.71909212706238,-4.683956272888183,9.607519963911063,-21.669826990997635,3.5196805760117265
1698415355283.0,0.01666666753590107,0.20516709194844587,0.2676195478007197,3.5589427738994357,-0.0330699469635263,-4.032283339470625,-5.251531703948975,6.970714335770239,-23.022943814637813,-1.2661214512336667
1698415355300.0,0.01666666753590107,0.39152755742240697,0.23805910679548978,3.2200486726969477,0.10684119428554549,-4.078222083824873,-5.581033707427978,6.955293476171644,-19.29069451816377,-3.6967182255248106
1698415355317.0,0.01666666753590107,0.7284343937978148,0.19361556943506,2.7347037810772656,0.3995324385711923,-4.13732893730998,-6.057629475402831,1.471993064493077,-14.754969088486114,-5.019398445562943
1698415355333.0,0.01666666753590107,0.9490797167167067,0.13556816187500953,2.435779286691546,0.5931633882384747,-4.193742606188357,-6.356306717029214,-3.166159802968798,-14.635126589309069,-6.880482414192493
1698415355349.0,0.01666666753590107,1.0256905165798962,0.07787263649255037,2.2580039682060478,0.644040173516795,-4.240429538561403,-6.538415096282959,-6.670106184453754,-15.691449495397391,-8.901439766950887
1698415355367.0,0.01666666753590107,1.228361645260453,-0.1429237853348255,1.6028285796254873,0.812831500155665,-4.440793997734785,-7.202057868957519,-7.054800794642267,-15.01296923909959,-9.655128089973346
1698415355383.0,0.01666666753590107,1.1440279960602522,-0.15848697290867567,0.8143003671318292,0.7082347055297344,-4.444086317278445,-7.995586666217446,-3.725326899750232,-10.179117151208274,-6.693584105952026
1698415355400.0,0.01666666753590107,1.0671443706050514,-0.47849575637727976,0.39242403133809567,0.616656528561376,-4.767901799553632,-8.41487064743042,6.459036263627435,-3.960900977997618,-1.5346553543728896
1698415355417.0,0.01666666753590107,1.0221134618107228,-0.6642232029110193,0.2907061166167259,0.565630142211914,-4.976197343987226,-8.505252344623207,12.614923118680316,-1.947219697695993,1.1505955248903652
1698415355433.0,0.01666666753590107,0.9914151758819818,-1.2210951613888144,0.32250936811268327,0.5283703788757323,-5.564722624096274,-8.457517364501953,14.213601464681732,-1.686645312817362,2.80562485253509
1698415355450.0,0.01666666753590107,0.8716028015434741,-1.5942907606437802,0.05621931535005569,0.3995324385711923,-5.974729366137087,-8.705018545642494,9.728542378267226,-0.6012836440293192,2.873374352686093
1698415355467.0,0.01666666753590107,0.77423628696464,-1.7495739690750836,-0.15580430969595907,0.30181908331606533,-6.148159348894655,-8.907927136340737,6.200828219131096,2.115053667302485,1.3400827949913845
1698415355483.0,0.01666666753590107,0.7152377892248332,-1.985532011938095,-0.5743775122910738,0.24989472521357237,-6.393864294268191,-9.321973801422118,1.7204606189027432,3.6117758585724165,-0.3208137985525138
1698415355500.0,0.01666666753590107,0.5920308040119707,-1.8929411142632364,-1.15792617303133,0.1423053611755371,-6.293307824541628,-9.910348859405516,-7.875646098905229,5.82605488559885,-0.0378481059034505
1698415355517.0,0.01666666753590107,0.4886970150591805,-1.7716130746647714,-1.6859160281568764,0.05461772537231445,-6.150702603636682,-10.449792420959472,-9.53654746824546,8.526371027737037,2.454762944070001
1698415355533.0,0.01666666753590107,0.3338837987598032,-1.818744535934925,-2.5466642582088705,-0.08649053497314453,-6.181528534533083,-11.31933653640747,-4.722002190703656,4.739963026899851,4.4861655770600475
1698415355550.0,0.01666666753590107,-0.2482579543245956,-1.5562769640699028,-3.3621628952145572,-0.7001543845245615,-5.9049982427850365,-12.140249015155433,-6.4480426472714765,-21.98602035333962,4.99223307568651
1698415355567.0,0.01666666753590107,-0.8518202427089214,-1.011599593515694,-4.231835020956397,-1.3717279501983894,-5.341762009972333,-13.015329137420654,-8.431858285096986,-30.65765584434449,2.6848173756943705
1698415355583.0,0.01666666753590107,-2.0331332826770843,-0.18752602038830518,-5.765026000732183,-2.61656317587588,-4.502594620348513,-14.551957690429687,-3.524643135330564,-21.476787062032855,0.1176798104898091
1698415355600.0,0.01666666753590107,-2.8083120381236073,0.7147451834022999,-5.945724513188004,-3.419967397396825,-3.6233237683951853,-14.719402169036865,22.945846346834003,4.208727134955538,2.6412522947339134
1698415355617.0,0.01666666753590107,-2.8610353280514476,0.9869684256061911,-5.111314839485288,-3.4561796975066885,-3.4367256765067578,-13.843273999023436,51.80425277887871,8.854223522992234,1.8546708478857317
1698415355633.0,0.01666666753590107,-2.1553993337780235,1.2019000470533967,-2.320933010327816,-2.748543578924611,-3.364301368547976,-10.979360485187172,71.00269193192312,-9.51951041513451,-1.162571621269748
1698415355650.0,0.01666666753590107,-1.6899942373812198,1.6529226900935172,-0.21846856340169904,-2.361281314263865,-3.126975836724043,-8.754997505298256,64.63032351178715,-45.866420993738956,-5.371451581707965
1698415355667.0,0.01666666753590107,-1.5885510479480027,1.9289160984858869,0.13948328949213026,-2.3705589187622067,-2.968360268999636,-8.320749179187416,38.1073192664153,-59.229747576571434,-8.260880720924996
1698415355683.0,0.01666666753590107,-1.4657038359582424,2.0418857673227784,-0.12481471267044543,-2.395698109259084,-2.9114976873099803,-8.537274791827798,-1.1365484938102934,-50.59118727662235,-16.82948536962116
1698415355700.0,0.01666666753590107,-1.3919753135330974,2.291355033665895,-1.1877911499410867,-2.381183115563914,-2.642299638146162,-9.605088732257485,-20.100865944301297,-26.14015165182513,-23.133034511227372
1698415355717.0,0.01666666753590107,-1.3570748266741632,2.3855992515057323,-1.4730109441012142,-2.3466168290954084,-2.502538408495486,-9.916783860889076,-24.77435287444353,-3.43696399695511,-23.714201647325417
1698415355733.0,0.01666666753590107,-1.0962561910599469,2.3580922358989715,-0.8025777806341647,-2.045396405792236,-2.477848203875124,-9.280973682513833,-14.297260182956988,1.6197093522295312,-17.468376141942276
1698415355750.0,0.01666666753590107,-0.5280550293162465,1.8194257961973548,0.5914566573858261,-1.4665981544494628,-2.999634235924482,-7.89772308883667,-4.684238501669479,-9.447139438236348,-11.701027586033332
1698415355767.0,0.01666666753590107,-0.2849955569501966,1.4851409423559903,1.2217664847791194,-1.244386385931447,-3.3331767469659446,-7.26550421295166,1.2197852344608886,-19.567715038068442,-8.316233427732426
1698415355783.0,0.01666666753590107,0.093891385814175,0.9392351990506053,2.182103800830245,-0.9023147506713867,-3.8866862432733176,-6.2966013131290675,3.196292463152779,-20.657594663549038,-6.616855468363396
1698415355800.0,0.01666666753590107,0.3755126440256834,0.7868141020521521,2.7631056996971366,-0.6600514701843261,-4.043506452013552,-5.708375308227539,-3.2319554421303542,-12.350782628002998,-6.2151861305401095
1698415355817.0,0.01666666753590107,0.5392094605371356,0.6892381094411015,2.8837083476305008,-0.5080195916991681,-4.127004234911501,-5.594351454162597,-10.766779797207,-6.224284796288212,-7.289521953017047
1698415355834.0,0.01666666753590107,0.8782260190755128,0.5021051800236106,2.6609727744340894,-0.1662472316466272,-4.282327775353193,-5.835418218341469,-10.323566260643934,-1.3349475599525926,-6.472805924994181
1698415355851.0,0.01666666753590107,1.1143199632778764,0.7038938267812133,2.2992361423045398,0.07257416475825011,-4.065802162712812,-6.205770703124999,-3.9684180280660404,-3.0255605723474974,-4.966870021977313
1698415355867.0,0.01666666753590107,1.2074646954432129,0.7110293777495622,2.1121499746382235,0.1623568000793457,-4.059068470543623,-6.392219157409667,3.3802104610375934,-4.03663411551472,-2.4359333931887455
1698415355884.0,0.01666666753590107,1.3482584830120206,0.8356888998582959,1.796871726822853,0.29224231320805844,-3.9556688863456246,-6.694188426318764,9.623627257521246,-2.7585887548157975,2.33218538101719
1698415355901.0,0.01666666753590107,1.3815706777662038,0.770426446352899,1.6330752493292093,0.3202246181763708,-4.040812390623986,-6.846070009613037,8.26713205156285,2.5111352700544667,4.056000690019467
1698415355917.0,0.01666666753590107,1.3628040179759264,0.6475225357398391,1.5048346538633108,0.3113958534240722,-4.1745887006461615,-6.969371395111083,2.202320433006799,11.165340972071109,3.7979984049718754
1698415355934.0,0.01666666753590107,1.2752660197764634,0.47278263942748305,1.166093112874031,0.263661457824707,-4.343828830498457,-7.31608172302246,-4.083680458517767,19.107104155915707,4.624301457268501
1698415355951.0,0.01666666753590107,1.07332042889148,0.4089350211560726,0.8854331739753484,0.09816226806640624,-4.396351921679079,-7.607426722064614,-4.098557464303702,20.617175311588195,9.052249490051121
1698415355967.0,0.01666666753590107,0.9192201466344296,0.34486674587130545,0.741052760091424,-0.024690277685597537,-4.451268629997968,-7.760505990710854,-1.184211154664229,21.106481525991445,14.473736049410839
1698415355984.0,0.01666666753590107,0.6365281173862517,0.06765490159988403,0.5478764588564634,-0.27084406280517576,-4.725704287554324,-7.959224143981933,2.7559928560443696,23.67934036180167,19.60780995604371
1698415356001.0,0.01666666753590107,0.21800459915176032,-0.19104191955476998,0.36845161959826944,-0.6575075578551739,-4.987420164269208,-8.14028564453125,4.541926387670386,29.448654304644286,23.72899242197308
1698415356018.0,0.01666666753590107,0.10892748077400027,-0.35321751784831285,0.3554331480711698,-0.7282860713683068,-5.156959569329023,-8.15300484085083,7.452385252455063,33.799515541793674,28.40038419158741
1698415356034.0,0.01666666753590107,0.08306837850473821,-0.679660426017642,0.6415735642075538,-0.706139852142334,-5.500976420372724,-7.8615107887268065,10.167002103167965,34.327212541974276,36.41956586212681
1698415356051.0,0.01666666753590107,0.05947795181982219,-1.0360489751175046,0.8509154028236865,-0.7052420265197753,-5.874472171618044,-7.644685900878906,12.545069066491303,32.609700003472035,42.61951640194956
1698415356069.0,0.01666666753590107,0.07504932270012796,-1.171307632651925,0.8758446768969297,-0.6766612442016601,-6.032040568377077,-7.608174910083413,15.587347167162642,30.332917915350816,46.80141924960034
1698415356084.0,0.01666666753590107,0.09192235076352953,-1.3451754223048686,0.9504670794218778,-0.6591535714965313,-6.2427297299489375,-7.512406259155273,17.34770548232837,24.012195970623903,48.75485335222399
1698415356101.0,0.01666666753590107,0.08228753032535314,-1.0692080251365899,0.8282014667123556,-0.687435078607127,-5.9940329092830416,-7.617153166308999,15.454629761400124,15.060561997236238,48.52225467513379
1698415356117.0,0.01666666753590107,0.03222980634495616,-0.8948439763993025,0.6267617795228958,-0.7778162643432617,-5.837062478417158,-7.804648499298096,8.710512073986935,5.725403510442249,48.168454291221714
1698415356134.0,0.01666666753590107,-0.3497036645084619,-0.52251873023808,-0.3126654349684715,-1.2324153045654296,-5.45892883823812,-8.74018338252604,-2.999145242619296,1.794725692635115,45.7178370585345
1698415356151.0,0.01666666753590107,-0.567904663015157,-0.41184886277616023,-1.636757152712345,-1.501014803314209,-5.325301873558759,-10.072257331195473,-7.649673559083588,3.9265920840229978,42.413654500365375
1698415356167.0,0.01666666753590107,-0.46963798472620544,-0.3729270114466548,-2.095615603944659,-1.4454991061888633,-5.256767851036787,-10.543465560913086,-9.912717575462974,5.572875567878933,41.036739590109576
1698415356184.0,0.01666666753590107,-0.44401685593128204,-0.008448387132585049,-2.6662638665795324,-1.4661491685729473,-4.8412242253959175,-11.137975760650635,-14.989937841218307,12.521136083639579,43.639844211111914
1698415356201.0,0.01666666753590107,-0.44649384050406515,0.22648937277197836,-2.816467872050404,-1.4875473459105937,-4.560205097796023,-11.312004878345132,-14.57317506598976,20.896121944838807,45.09020756060744
1698415356217.0,0.01666666753590107,-0.36051739253289994,0.2026245130598545,-2.6028110928446053,-1.4022539117675275,-4.547934814287722,-11.118523456683754,-5.265764222698949,29.8750356937715,47.32700230623282
1698415356234.0,0.01666666753590107,0.14301979305520654,0.2647299638390541,-1.4522545717984436,-0.8804674413267523,-4.478801949089766,-9.974094478607178,11.835370576818313,36.3263645158074,51.073712820727074
1698415356251.0,0.01666666753590107,1.2096787912961096,-0.01485094765126705,0.284331320887804,0.2008138834413141,-4.775383679741621,-8.229768931579589,13.8034639729481,34.1388188491924,54.669875720630486
1698415356268.0,0.01666666753590107,1.6824691025733947,-0.03826601776927709,0.8496832306802272,0.666635597814992,-4.803964754320681,-7.660697709003091,2.820954998683772,22.04715396150582,59.02312069380021
1698415356284.0,0.01666666753590107,2.545412212321162,0.15173866769224403,1.0372095433294772,1.4646530117310583,-4.567836615587771,-7.490858444213867,-17.712470027405608,6.4969689998435705,67.26755517297745
1698415356301.0,0.01666666753590107,2.6943203327625986,0.5420046442136168,-0.00026420389413833614,1.539771161883697,-4.110394460894168,-8.555530579486488,-22.211215105369526,6.056842281898526,73.15618227533645
1698415356319.0,0.01666666753590107,2.9112866749078035,0.654710401417315,-0.6560615237653256,1.6867152157105505,-3.9306796987786887,-9.23772841502726,-15.3376525265799,13.036529351804047,76.76899034624718
1698415356334.0,0.01666666753590107,3.0882290497004985,0.8664227685570717,-1.5227023189872502,1.7908631340578198,-3.6611823744073506,-10.12433121730387,-0.40041813254470504,21.76532498842546,83.59917268607076
1698415356351.0,0.01666666753590107,3.271060482531786,1.1371306377619503,-1.58156250423491,1.9189526306152342,-3.366246657396853,-10.187477701568604,4.963549696267041,19.03043186738773,89.81970600095734
1698415356367.0,0.01666666753590107,3.4107840105205773,1.0353270905837415,-1.466868203562498,1.985691148022562,-3.4476492215812202,-10.071658196258545,5.454573276359727,11.744235362722833,91.80371203030596
1698415356384.0,0.01666666753590107,3.294344327485561,0.9697697457849979,-1.5761580148428678,1.7594393833987414,-3.47024479200989,-10.184335311889647,-3.988359619121539,11.23415000531711,88.66800633329896
1698415356401.0,0.01666666753590107,2.987967179006338,1.1138856635138392,-2.350382976695895,1.3878890671327708,-3.2740696012198924,-10.973374396514892,-9.922294354452978,21.550233793725297,85.90024975706972
1698415356417.0,0.01666666753590107,2.8626585453391074,1.298651863799989,-2.6724352486908436,1.232415742956847,-3.029861031883955,-11.319785449218749,-10.567008716815176,37.64675961068134,84.36122372195825
1698415356434.0,0.01666666753590107,2.8202847999900578,1.6260551414340734,-2.953537086138129,1.2096708271853625,-2.633321674181521,-11.63881282043457,-1.4026006904032746,59.256474106793696,87.7127087552243
1698415356451.0,0.01666666753590107,2.820095999419689,1.881219989070296,-2.191794004717469,1.256956163842976,-2.350356673210859,-10.899304367175697,9.900743400074296,69.75697471033952,93.31564270498
1698415356467.0,0.01666666753590107,2.8296161074370145,1.8812886703923344,-1.535071386694908,1.3229462009705601,-2.345269286943972,-10.254964260864257,18.93723735125749,72.38556618222975,99.1054096492922
1698415356484.0,0.01666666753590107,2.8772391516163944,1.7950003799930214,-0.20606442438066006,1.4336781738832591,-2.4509134351983666,-8.927229802703858,27.24700088229862,66.94034130040966,104.64538291527872
1698415356501.0,0.01666666753590107,2.9156095065429803,1.6609633732080458,0.7530161696076393,1.4981721272341906,-2.6086311773002144,-7.96087015762329,27.29228845159039,59.31969433775133,106.02189825946807
1698415356517.0,0.01666666753590107,2.872908721196651,1.643985642661154,1.0512596959918736,1.4640546074464917,-2.6439459440484643,-7.655011480060219,22.93517588380315,53.224109088446376,107.46765806146301
1698415356534.0,0.01666666753590107,2.781423446676135,1.7249296494230626,0.9680459907323121,1.3628995873048901,-2.570772863548994,-7.7328224494934075,19.36839645770913,49.56070297616419,112.22984353571432
1698415356551.0,0.01666666753590107,2.5535581093758344,1.9635352841854095,0.4332838649928569,1.119439059857279,-2.3359914632499215,-8.263138117218016,21.664021330203123,49.916859775339915,116.40235145816175
1698415356568.0,0.01666666753590107,2.412417846456915,2.0232322125181557,0.12960136242508888,0.9591773323610424,-2.2836185941949485,-8.560019707599281,23.98557701588107,49.93165738017675,119.34644985838239
1698415356584.0,0.01666666753590107,2.102809022580087,1.96356187993139,-0.3018301526993513,0.6160584530703723,-2.362028698565066,-8.97646115886271,29.04495597375068,45.42778283014615,119.3903816351239
1698415356601.0,0.01666666753590107,1.8794171774320303,1.9490633989796042,-0.8074538622379303,0.3514990234926343,-2.399587737108767,-9.463381336975097,32.70201342519935,36.90145619863872,118.34783522059149
1698415356618.0,0.01666666753590107,1.7372566315546631,1.9679656678482889,-1.0721440785884857,0.15023659256622193,-2.4120073659598824,-9.701604402160644,37.51135794057501,29.515566252848316,116.17591702679748
1698415356634.0,0.01666666753590107,1.5000198009274899,1.889564623567462,-1.614737044084072,-0.1782179476864636,-2.5492253408685324,-10.196755233001708,44.627889131162206,27.98102082183238,110.68163772635836
1698415356651.0,0.01666666753590107,1.2059057755634188,1.730691573950648,-1.873536448830366,-0.5277715361997485,-2.7636557347953317,-10.415525994220376,48.018360884210686,36.26585586995026,105.52813705417867
1698415356668.0,0.01666666753590107,1.0789354922942818,1.5340695161759852,-1.4837491957366467,-0.6904274653561413,-3.045124067467451,-9.973196652984619,50.90703912950583,47.330502778182456,99.4898878278614
1698415356684.0,0.01666666753590107,1.0586723103359341,1.501678527919948,-1.133174009090662,-0.7221504912227392,-3.1456805371940133,-9.58309141998291,51.467483471662064,47.533632604098635,96.06108505319081
1698415356701.0,0.01666666753590107,1.1313106994368136,1.2066972182020543,-0.48978199728429317,-0.6660365359432995,-3.509599481798708,-8.897901416888832,50.87697263677944,40.96803471724842,90.88113105835566
1698415356717.0,0.01666666753590107,1.3001169679164886,0.984868530717492,-0.41574820830225945,-0.5352531241267919,-3.822042798449099,-8.764125399127602,48.0268986206732,33.16039083549349,83.23506896179572
1698415356734.0,0.01666666753590107,1.4387626375406979,0.9989388493850827,-0.600524345460534,-0.42736441181600093,-3.86573697874695,-8.908525686755777,40.25521568489838,33.682640759811,80.11072869956762
1698415356751.0,0.01666666753590107,1.7543918907508254,0.8554024851098656,-1.1259048948705195,-0.14065876301229,-4.044404277636111,-9.406669269672035,28.079237234549872,33.39596064487264,81.00721834888847
1698415356767.0,0.01666666753590107,1.8891170259304344,0.8269520511731505,-1.3967752611607311,-0.0475843196041882,-4.072536147142946,-9.668086163440346,8.060203786694498,24.63577345882585,84.86801692818402
1698415356784.0,0.01666666753590107,1.196092675948888,1.6647519518360494,-3.3748996271908283,-0.8313857958368956,-3.148523943926394,-11.675025120544433,-23.26470860559417,20.87097318831482,89.15980727429655
1698415356801.0,0.01666666753590107,0.20899448648318647,2.403546996128559,-5.664038153851032,-1.8628380908139048,-2.308758003887534,-14.011017752838134,-20.63679673752635,43.964773385402346,92.28116274385737
1698415356817.0,0.01666666753590107,-0.1700380022317171,3.2579666076809164,-5.688495718759298,-2.2194242083124816,-1.379957105089724,-14.082545111957192,23.17806936351985,78.41740869110556,107.65008558400487
1698415356834.0,0.01666666753590107,0.06179945356994867,3.563349776686728,-4.570586498817801,-1.9499268839411437,-1.1026783330619334,-12.958167572784424,57.1995284872985,81.61080899603166,126.22350778647976
1698415356851.0,0.01666666753590107,1.0022232778832316,3.247058844697475,-1.413329505598545,-1.0139436724238098,-1.4965247984185814,-9.756222712054848,75.99482938496125,64.64733751300966,143.39170735968372
1698415356867.0,0.01666666753590107,1.4746451211743057,2.7202769040569663,0.9988614002346992,-0.6432913279108703,-2.13592627928406,-7.2535332046508785,71.54022781960313,41.208822791153466,155.23819236182894
1698415356884.0,0.01666666753590107,1.5864228037476538,2.360139523817599,1.5801368553459643,-0.6467328466668725,-2.5396485342279074,-6.615927375030517,50.14765869758382,39.53163910460557,156.7452599418139
1698415356901.0,0.01666666753590107,1.5541912438370287,1.6779817280262708,1.5425176110476255,-0.7824544455379248,-3.2091271734490987,-6.632238458362221,25.132335041674946,50.07421708853326,153.31138233659001
1698415356917.0,0.01666666753590107,1.4741976696677506,1.3636696948945521,0.7963198892831802,-0.9487018233150243,-3.434930317522585,-7.4057152321964494,3.0141799830863754,67.53077700321141,147.00897554412248
1698415356934.0,0.01666666753590107,1.478754602319747,1.2660399262696505,0.4371902247816324,-0.9677057989925145,-3.441514372088015,-7.810484950366615,-0.547034332937964,77.24391388980567,142.09301519089752
1698415356951.0,0.01666666753590107,1.5811282044708728,1.3804033875524997,-0.13127192598581314,-0.8547292620234191,-3.2176568091243505,-8.443601651874184,8.417820538805318,84.95463738723812,136.08544034414274
1698415356967.0,0.01666666753590107,1.8356801809057592,1.561767085918784,-0.3407482046365738,-0.5728121626704931,-2.9792841063350437,-8.692298764801025,17.196826603562787,88.12717146424984,135.744408998884
1698415356984.0,0.01666666753590107,2.0158869643218815,1.704044974565506,-0.2550719086557627,-0.36391792169138787,-2.791638258959353,-8.639327053070067,19.272966762173006,86.52597021712376,140.52521356881277
1698415357001.0,0.01666666753590107,2.0468077338948847,1.8778548965513706,-0.12839607828855515,-0.3082530253536999,-2.557006788524985,-8.551938692474364,22.086530002070944,84.61581902327048,149.28954838723305
1698415357017.0,0.01666666753590107,1.799557604905963,1.6977786076471209,-0.17611293823122978,-0.543632537676394,-2.700209683062136,-8.622268366241455,28.635523699048854,84.79905933832357,152.01581839444364
1698415357034.0,0.01666666753590107,1.5354020799539982,1.5586509997248648,-0.1458352888673544,-0.791582193236798,-2.8149823096677657,-8.609100257110596,32.66561534711235,87.77515034461655,151.97340291969786
1698415357050.0,0.01666666753590107,1.0952207105323672,1.187575753624737,0.017694062122702598,-1.2071259650081396,-3.1669296614497897,-8.462156714740395,32.22733576845097,89.85184204100226,150.02313802484912
1698415357067.0,0.01666666753590107,0.8585382989175617,0.6972776235118507,0.13486147491037845,-1.4006070944085716,-3.627214638353884,-8.371924655151366,25.58888196127152,89.43406669022924,143.93644226674894
1698415357084.0,0.01666666753590107,0.7050222462892531,0.5232210332885384,0.07907938193380833,-1.5143319655269383,-3.768024208013713,-8.454973525238037,18.3311622228037,88.67320410725733,136.97945746498405
1698415357100.0,0.01666666753590107,0.6247074773415923,0.3536836740553379,-0.2552583711385727,-1.5307921019405126,-3.8757626981988547,-8.83639977722168,7.954303411160742,85.89509979443552,128.35327005271645
1698415357117.0,0.01666666753590107,0.5014237736307084,0.5481558603197336,-0.9568032967060803,-1.6027676432184874,-3.62003232563436,-9.580547580718994,0.5143056672608497,83.84105017514842,125.10544680048369
1698415357134.0,0.01666666753590107,0.37702407150194045,0.6626771425127983,-1.3605939407110212,-1.6713015196099876,-3.4347809721797704,-10.031555902972817,-2.7776618446296464,84.88839821266734,123.70790813402904
1698415357150.0,0.01666666753590107,0.37399420228675007,0.7607759899541735,-1.9600117862343787,-1.5858585939936338,-3.244741507665813,-10.694151212421058,0.4469871627186453,89.32311026716239,124.9580103370598
1698415357167.0,0.01666666753590107,0.45606224464252587,0.7941144881933927,-1.747109624788165,-1.4255970126278699,-3.154360394994914,-10.524311947631835,5.0365255717935735,93.76791734125072,128.04162218126712
1698415357184.0,0.01666666753590107,0.48323827472925185,0.7068459545850754,-1.3630185375094412,-1.314266635430604,-3.1946126181453463,-10.178798720550537,7.66130537124012,94.09093064747897,130.0428539477025
1698415357201.0,0.01666666753590107,0.5589839821957051,0.380657021176815,-0.41218262477517126,-1.1321575255244969,-3.465157405743003,-9.273340995678305,6.6837187514695895,87.80047668605896,128.7416755900584
1698415357217.0,0.01666666753590107,0.5373690933674573,0.1876134064108133,0.1302969434738159,-1.0850216803401709,-3.6159921103328463,-8.761880250549316,4.879914883653881,81.5187585365874,126.77530510914676
1698415357234.0,0.01666666753590107,0.5117889541700482,0.11080196940898894,0.28322774356007574,-1.0531488707393408,-3.653252165929973,-8.636035025787352,6.596076325360925,74.84690681191388,124.52589158902977
1698415357251.0,0.01666666753590107,0.4097054210066795,0.1893488519012928,0.36328912226855753,-1.0968430510371923,-3.5401258452266453,-8.58051947479248,13.70964534828245,66.3196341992064,122.28751565461154
1698415357267.0,0.01666666753590107,0.37681992723196744,0.27699732473790645,0.30508944675624367,-1.1004343535274266,-3.444058503612876,-8.647108208465575,19.563405188702166,60.616603827164184,121.8740296626373
1698415357283.0,0.01666666753590107,0.29951880701705813,0.3250046920597553,0.31120237667858597,-1.1592422240659594,-3.3987186019346116,-8.642918355560303,21.824260983226207,56.31471504636379,120.25772003706714
1698415357301.0,0.01666666753590107,0.01746872893422842,0.2589154323413968,0.1348597213447094,-1.4254472288936375,-3.472938853399455,-8.818443264770508,21.49327001604739,51.36355872834573,114.29137221214259
1698415357317.0,0.01666666753590107,-0.4377263774849474,0.19517068992257117,-0.06871230169832707,-1.8746594615109264,-3.544166060528159,-9.019855479431152,19.922107940891017,45.69768117029379,106.01194667384736
1698415357334.0,0.01666666753590107,-0.5925295473143458,0.15780191325396298,-0.2687590732246637,-2.0263919917233286,-3.5869627074643966,-9.21812530441284,17.62285111530587,42.41880446299957,97.80678578239768
1698415357350.0,0.01666666753590107,-0.7900666741073131,0.25617694728821516,-0.7839484834879636,-2.212391533196717,-3.496880870001018,-9.731682145038247,18.06873781715535,44.771367499962075,89.8090577360413
1698415357368.0,0.01666666753590107,-0.7800245880424976,0.44060733974874017,-0.9966565836668014,-2.1763288706906136,-3.3234508872434496,-9.943867682647705,18.724362552942996,51.480044189545715,85.87625530251546
1698415357384.0,0.01666666753590107,-0.761385061763227,0.4737921087309718,-0.908819310259819,-2.111835209600627,-3.3023519851133227,-9.857975698089598,17.03371314844642,58.974749294098174,82.20192088756124
1698415357401.0,0.01666666753590107,-0.7040842347867786,0.39025633191019293,-0.37179040863215923,-1.9639931109555064,-3.3955759199947115,-9.330054232025146,13.017663515542825,66.1465093943141,79.46104793590517
1698415357417.0,0.01666666753590107,-0.506998578088358,0.09157353732585906,0.42978667052686215,-1.6889592683102934,-3.6967967086240647,-8.538022395324706,10.707956500527558,66.62936278749898,79.31287381205091
1698415357434.0,0.01666666753590107,-0.3686114863350987,-0.17097879021316767,0.8778069168806075,-1.4806637969419358,-3.9574654143735764,-8.099733853912353,7.362934533763637,57.705809429336526,78.4469424290767
1698415357450.0,0.01666666753590107,-0.14308599015921353,-0.47276101211756466,1.1566022309511899,-1.2069764735348523,-4.24282432474345,-7.83367819442749,0.7013137921365659,39.22655162985402,76.43248058621899
1698415357467.0,0.01666666753590107,-0.1083119792241603,-0.2990636105954647,0.489758031886816,-1.1607386731687932,-4.04455449976176,-8.512135089874267,-3.36725914171078,34.9073824704535,74.18082676405425
1698415357484.0,0.01666666753590107,0.013528028484433888,-0.2471703417509794,0.1207294891834259,-1.0226230918332935,-3.9658451201841234,-8.894159892272949,-1.027317013673982,41.21225154611681,72.93460410847206
1698415357501.0,0.01666666753590107,0.39604770172797144,-0.3482958435371518,-0.1122200195133686,-0.5816409274227917,-4.058021591839194,-9.137320413860678,12.145512391555666,55.54204306631692,72.77802885193869
1698415357517.0,0.01666666753590107,0.7541182856306433,-0.28330197784006594,0.767946027714014,-0.15996216002777217,-4.008491544994712,-8.257451303753257,14.593399256122169,57.21896037548719,75.06585535594782
1698415357534.0,0.01666666753590107,1.0555567355986684,-0.4955266784161329,1.2308780119955538,0.19198541094996033,-4.232499330084026,-7.794622779846191,9.68145932299739,46.93551293848061,76.2679140083567
1698415357551.0,0.01666666753590107,1.4008512784279883,-1.0306593910336495,1.8007336629480122,0.5518637749269605,-4.75967260812968,-7.229441550445556,-0.4521896324320794,24.520281790150104,72.61008816062642
1698415357568.0,0.01666666753590107,1.362454620016366,-1.2043445175960659,1.2634253598570824,0.48826779332906006,-4.912153326360881,-7.773074964904785,-3.5371504923613264,12.709110573561146,66.76679985397797
1698415357584.0,0.01666666753590107,1.2824214444890618,-1.1224831037282943,0.7391910578727722,0.3734956781800836,-4.807407003729045,-8.303240410503745,-3.2622951424235507,11.175307071843804,59.45438566818398
1698415357601.0,0.01666666753590107,1.1361055324979126,-0.9352125194057822,-0.3552987080365419,0.20769721321426332,-4.596567620031536,-9.405321946716308,0.4515172323248034,23.623045942662426,54.498280878112254
1698415357617.0,0.01666666753590107,1.0555421225514263,-0.6100123047739267,-0.6301362243920564,0.1415574654176831,-4.2637735892698165,-9.68469535293579,3.95181255753327,31.47354584636461,54.48061117872943
1698415357634.0,0.01666666753590107,1.0526771615743638,-0.5442021542578935,-0.4446855489730835,0.162057817132771,-4.193593553106487,-9.503334577178954,2.7809076785892834,31.899401310925732,56.30370478142173
1698415357651.0,0.01666666753590107,1.128155011884868,-0.7304416419669986,-0.003605331015586853,0.2563294344361871,-4.3610383239746096,-9.07163009033203,-4.786632001951255,24.405041130926357,54.79915754124049
1698415357668.0,0.01666666753590107,1.0487092077914624,-0.9591793781876563,0.006265490135550498,0.18016404025293886,-4.556763725170493,-9.075220808300376,-13.228908459966627,20.66480734331257,49.64015856677894
1698415357684.0,0.01666666753590107,0.9074152156155556,-0.9951806658953428,-0.1093441718161106,0.045041137927398084,-4.542698374938965,-9.211091752514243,-19.39045455363369,22.587051387091353,45.21270358827704
1698415357701.0,0.01666666753590107,0.6305364757560193,-0.7478773454144597,-0.22652152147591112,-0.2021601834837347,-4.2166377440854905,-9.361328491210937,-20.48392173597583,30.86900580292678,44.31368676896328
1698415357717.0,0.01666666753590107,0.5086423997726292,-0.5902037347152829,-0.04031505925357341,-0.28401202580556273,-4.007444374029338,-9.198073865509032,-14.21025808708301,36.18817271342512,45.5554595563012
1698415357734.0,0.01666666753590107,0.4061413718495518,-0.5692427797511219,0.33242636649310586,-0.3389289533201605,-3.95207875289917,-8.84208600616455,-7.287363613239323,37.37281438345047,48.743703068403946
1698415357751.0,0.01666666753590107,0.3277068636905402,-0.5596805861577391,1.3458482069998978,-0.3694550244871527,-3.9158661605283616,-7.842207537841796,-1.3767523730978903,28.006393267051685,51.010523325620696
1698415357768.0,0.01666666753590107,0.35387729693129655,-0.7941486827239393,1.9977759919613598,-0.3332427243772894,-4.143913868658244,-7.193378303417563,3.544924314853859,17.748473662068037,50.82186325546119
1698415357785.0,0.01666666753590107,0.3458472082760185,-0.7932812522396445,2.1020622958660122,-0.3534438008848578,-4.144662056677043,-7.087585102081299,4.871096682548572,9.985540198620004,50.74591155189065
1698415357801.0,0.01666666753590107,0.363161404235661,-0.8364598842307924,2.1300170552402733,-0.3676594463072717,-4.186111672918498,-7.057807218933105,1.5372175290852907,9.036438455896189,51.39581429670112
1698415357817.0,0.01666666753590107,0.3719815472900867,-0.9722434424221515,1.9145318915635345,-0.3793311063352972,-4.314500736944377,-7.274332247051596,1.2059034085813665,11.622071453001631,51.41044456190328
1698415357834.0,0.01666666753590107,0.34954723183773456,-1.007536289599538,1.8635452161699533,-0.4158427547179162,-4.344428549957275,-7.326107442474365,2.7418121026669535,13.821368460083642,52.20662946816792
1698415357851.0,0.01666666753590107,0.3912100524384528,-1.1298960103332996,1.8423393465340137,-0.39249921546615657,-4.463240807342529,-7.347056707000732,3.457145284961794,11.897920595463644,51.41584382644218
1698415357867.0,0.01666666753590107,0.4335042297452688,-1.453415724532306,1.9006009813666342,-0.3702032855711877,-4.783913899938762,-7.288099491119384,2.6823499698567037,7.594622234373285,48.92994183650268
1698415357884.0,0.01666666753590107,0.47306496350020166,-1.5934727222591638,1.8520804038256407,-0.3600279285155237,-4.920982237243652,-7.335085698699951,3.6079795540543587,1.9019329821778697,45.50295247705673
1698415357901.0,0.01666666753590107,0.5625675397709011,-1.7885457970261573,1.6328940475434064,-0.32770605997294183,-5.118503581945598,-7.548019424328207,5.684669969779586,-5.755029882854003,39.23029798861378
1698415357917.0,0.01666666753590107,0.5985978343773632,-2.011209181769192,1.139953293967247,-0.3375822879515588,-5.346401944732666,-8.034491858673094,5.4391716266681716,-5.687697024242372,33.082543754428265
1698415357934.0,0.01666666753590107,0.5833720620643347,-2.0617554199188945,0.7778682867914438,-0.3863641467772424,-5.400420827428996,-8.391826456451415,3.8429248280112804,0.39256600300055555,27.489214758192904
1698415357951.0,0.01666666753590107,0.6267438785400241,-2.145540495325625,0.2426005496174097,-0.35658626362904905,-5.4893058563232415,-8.923788137817382,5.79244523224051,8.288283439875087,23.117955161087277
1698415357967.0,0.01666666753590107,0.7904890642378479,-2.1358990990161892,0.023742110115289688,-0.1907876525327563,-5.493195849499106,-9.137918964275718,9.878244756948273,9.085876218882387,20.95830227949531
1698415357985.0,0.01666666753590107,0.8922967030692845,-2.2539202060237526,0.031028175470232962,-0.08634075123891234,-5.636100053350627,-9.121758687591552,7.91115283730554,6.4502005601623775,19.126158676152752
1698415358001.0,0.01666666753590107,0.9173930773377418,-2.3606769916951653,-0.0008937339693307876,-0.06628931233510374,-5.7463829673215745,-9.151835845947264,-2.130283281604321,2.8174327555061613,17.21118878384003
1698415358017.0,0.01666666753590107,0.8675258344281465,-2.4272981663331388,-0.5168237334668636,-0.12853848243393004,-5.787383963012695,-9.675866734313963,-16.11095800667228,-1.0685426481220037,14.324841340599145
1698415358034.0,0.01666666753590107,0.5184362101648002,-2.3416724314957857,-1.7073954540371894,-0.49500097404159604,-5.623081874084472,-10.893019003295898,-28.024132975873503,0.6870348547898311,9.855472906255452
1698415358050.0,0.01666666753590107,0.255693766881153,-2.164068962445855,-2.3761796812534333,-0.7565675054136664,-5.3764791030883785,-11.586290021514891,-25.803262816298005,7.929067569724838,10.914488614424052
1698415358067.0,0.01666666753590107,-0.20875081392042338,-1.5741317697122692,-3.2270763793766495,-1.2036847385130822,-4.73064320526123,-12.458377976226807,-17.414011251243558,14.536565252038493,15.59609834703672
1698415358085.0,0.01666666753590107,-0.48408247046843167,-1.3940399909779428,-3.1247213357955217,-1.448641349737346,-4.509328897039592,-12.37323359516561,-4.558607844057672,15.989945837599873,21.442916153938764
1698415358101.0,0.01666666753590107,-0.6632731356445699,-1.4025000685483215,-2.839215710431337,-1.6129435117308049,-4.509029621832073,-12.09221417530477,1.1215538807045884,9.85298159475569,20.65406516329543
1698415358118.0,0.01666666753590107,-0.9542726091846823,-1.31858756736964,-2.4162878197580575,-1.90743038899526,-4.424783943176269,-11.669039616394043,1.3503503835829118,-0.9521317853943625,15.546775843492766
1698415358134.0,0.01666666753590107,-1.2294020942240953,-0.9836734757140279,-2.45552268255949,-2.217629141589254,-4.081664333233237,-11.707346258434653,-3.676897443440257,-10.688183102880371,8.776326923055532
1698415358151.0,0.01666666753590107,-1.3326692842140793,-0.7133876313135028,-2.649839970523119,-2.352452622576803,-3.8031896294191476,-11.90097790222168,-0.1496356375942939,-9.320096212126819,5.322138469674119
1698415358167.0,0.01666666753590107,-1.4470635790266095,-0.1953308489203453,-2.868157142755389,-2.481889149829,-3.2971146689817306,-12.113612937164305,11.204384040914194,-0.2984137396022074,1.4307505680155417
1698415358184.0,0.01666666753590107,-1.519391440873593,0.45567105336785313,-2.423596096944809,-2.536506802136078,-2.7075425101682544,-11.650184693798423,25.77979087121526,9.10245052667707,-3.210116766032885
1698415358201.0,0.01666666753590107,-1.5122668496906757,0.7627469977661967,-1.8557097002387046,-2.5023892823483793,-2.471414371435344,-11.060612534984946,31.21804212989277,9.07124595368022,-5.8456775921974735
1698415358217.0,0.01666666753590107,-1.2956582349419592,0.9839072844699025,-0.5675087955653667,-2.2643160739623007,-2.329857490539551,-9.746345461162925,32.75886108966136,2.5992176030343628,-8.816794086340565
1698415358234.0,0.01666666753590107,-1.172168487264961,1.1826163776516914,0.48050446585118767,-2.140565775652975,-2.231994497680664,-8.661323780822753,26.492751629990575,-10.676587149216983,-13.548168577245947
1698415358251.0,0.01666666753590107,-1.1551241942878812,1.2677552057549357,0.7802110505253076,-2.142510918371379,-2.203413423101604,-8.33825560978353,17.283218251279692,-15.726011960144948,-17.401505174873265
1698415358267.0,0.01666666753590107,-1.1227397819031029,1.2581044570952653,1.0353589470267295,-2.1341313586913047,-2.2533923827573656,-8.065017929840087,3.910025887077955,-13.501066738955894,-21.74969580805718
1698415358284.0,0.01666666753590107,-0.8171247769027948,1.1422083794176578,0.9957043975085019,-1.8344072383604944,-2.3734017409726977,-8.10242733078003,-5.124886021538735,-8.223371883324225,-21.76220871461664
1698415358301.0,0.01666666753590107,-0.7089423423424362,1.1206304615989326,0.8990735767930745,-1.7199343984190374,-2.3811828963682053,-8.205078142437339,-10.651139571916808,-3.2121222803279297,-20.207281999117388
1698415358317.0,0.01666666753590107,-0.5606700355865061,1.021385366731882,0.683888272845745,-1.5508439061705022,-2.452410395757854,-8.43327607269287,-10.499078216651167,1.0655138861119262,-19.955592943297003
1698415358334.0,0.01666666753590107,-0.4396090494263917,0.7442787364006042,0.8667676364719867,-1.4049472425047307,-2.713228739111125,-8.259246954998373,-7.289426330368667,4.224181718613161,-19.4859781642709
1698415358351.0,0.01666666753590107,-0.37395080153644084,0.6234568927586078,1.0805904198944567,-1.3111244649473577,-2.8268033881038424,-8.05110104816854,-2.611616744255463,4.668259700993056,-18.521149057209485
1698415358367.0,0.01666666753590107,-0.15765307936780154,0.4607151850149035,1.7912714225977657,-1.0604814786497503,-2.994996346990764,-7.34181880634725,1.5848113544389975,3.4163867714199774,-16.527176074314518
1698415358384.0,0.01666666753590107,0.013729323210194705,0.2115183058723807,2.498197456681728,-0.8698432445250451,-3.252223387853801,-6.6337342498779295,1.6928892796575172,0.29567440685820917,-15.527403719459317
1698415358401.0,0.01666666753590107,0.08749664327576756,0.1342819214567542,2.7965234006524082,-0.7864950992308557,-3.3355718254089353,-6.334010129547119,0.3425035978704182,-3.997074086728829,-15.316108402390388
1698415358417.0,0.01666666753590107,0.23971710313558578,0.0483525274977088,3.002644523656368,-0.6347625690184533,-3.4267008338376876,-6.125864222717285,0.4399416091463656,-6.64822183146621,-15.597928837734283
1698415358434.0,0.01666666753590107,0.2938117544818669,0.07395254043936729,2.898264111727476,-0.5795462932310999,-3.4070983077451586,-6.228066706085205,1.271943440449162,-3.8522634041539803,-16.32246335205819
1698415358451.0,0.01666666753590107,0.30960553594119844,0.10852584117054939,2.791850148144364,-0.5488705113951117,-3.379415643310547,-6.33326194152832,1.3591880080386736,4.0132731610059835,-17.60410736867606
1698415358467.0,0.01666666753590107,0.26259865089878437,0.1056561309531331,2.5607044739991425,-0.5412389936033636,-3.3924341148376462,-6.565499502563476,1.5557722715741593,16.57347280405616,-16.147796631960745
1698415358484.0,0.01666666753590107,0.172501396670565,0.18552695552557705,2.516926122549176,-0.5716155732970685,-3.3189617591306564,-6.611887159729004,1.0144971754886911,21.447557267479787,-12.44833395105006
1698415358501.0,0.01666666753590107,0.1811553163126111,0.09185001617968082,2.500885088330507,-0.504128940936178,-3.4165254767820237,-6.631040773010254,0.8802434040497435,19.29962157540898,-7.897057888179573
1698415358518.0,0.01666666753590107,0.2452057636797428,-0.3497974802717566,2.3756179557174444,-0.38277277122177183,-3.8654385803222655,-6.757634185791015,2.3621980860038727,11.723833587672004,-4.3823531049782005
1698415358534.0,0.01666666753590107,0.10931056180745363,-0.6900789441794156,1.9953712689071892,-0.49365430867299437,-4.209754122051597,-7.13801297454834,0.3279075102945274,7.265378941848344,-2.617215151497346
1698415358550.0,0.01666666753590107,0.062205659750662744,-0.8652548938214778,1.703753882664442,-0.5225344027312472,-4.384830410711467,-7.4308537651062005,0.19284513517130028,7.834355044051563,0.1791367720843128
1698415358567.0,0.01666666753590107,-0.07697758734896779,-1.1456205259487031,0.8959405394643545,-0.6274303264342248,-4.676324755096435,-8.236502623748779,7.864951730212281,15.740862498947848,3.1061655557335217
1698415358584.0,0.01666666753590107,-0.1218474968953058,-1.4603598445817827,0.29312311463057994,-0.6308719547880813,-5.017498199407756,-8.831461151775716,14.691993036791303,22.016054402667457,5.739847652989535
1698415358601.0,0.01666666753590107,-0.14292769432496277,-1.5966858390867709,0.20433073245584962,-0.6033386722289026,-5.196015568432212,-8.9062799536556,21.442670267128644,23.65298778443647,9.00864129352153
1698415358618.0,0.01666666753590107,-0.08190978305414319,-1.8888155587658284,0.2801502358108759,-0.4899134051116183,-5.5641246582031245,-8.802581678771972,25.70292904493781,16.52769516869144,11.494565481575833
1698415358634.0,0.01666666753590107,0.22700283871944993,-2.4857044703334568,0.25796120035648346,-0.16819259356074034,-6.2138508414670826,-8.80377877960205,17.699786366116893,0.2057493101845849,8.476911066636037
1698415358650.0,0.01666666753590107,0.22386468682419508,-2.5413003930881617,-0.10516250221729279,-0.20724793507680295,-6.2856765990108245,-9.158568953594564,-5.608218381739164,-26.562960852016428,-1.6733083012458543
1698415358667.0,0.01666666753590107,-0.4776038490388542,-1.7712088777780532,-2.3477812697649,-0.9982323450835421,-5.449651599065959,-11.423484308624268,-32.500242806928,-27.277856261874152,-11.216582758771837
1698415358684.0,0.01666666753590107,-0.9707576608438044,-1.0520862099438906,-4.585400621590018,-1.5164273303709923,-4.657620054626465,-13.688847991943359,-27.288738460769277,-3.266016955190973,-15.244246274585391
1698415358701.0,0.01666666753590107,-0.7623420702271163,-0.9105030255630612,-5.057074130731821,-1.2684778940062968,-4.477007174627483,-14.178162371715903,-6.348073010371408,24.466490635341668,-11.991602616345892
1698415358717.0,0.01666666753590107,-0.2004614532744512,-0.6879556684151291,-4.179382364663481,-0.5924152002196759,-4.264821052496135,-13.302034786224365,7.549987801920898,35.44688545261447,-2.6477339308128442
1698415358734.0,0.01666666753590107,0.5016415080346167,-0.8317632508471607,-2.5839146691948174,0.18345581180732695,-4.426130389349162,-11.70255843963623,6.596756356070164,25.316850894555547,2.3936173830727543
1698415358751.0,0.01666666753590107,0.6327825011171401,-0.8021881967946887,-1.9013415706008672,0.3555390013321303,-4.4092210478633636,-11.016319804272054,4.379282081172634,12.468917579887538,4.32457610790224
1698415358767.0,0.01666666753590107,0.7588219332769512,-0.41162966706752774,-1.1595873842418194,0.4982933118515648,-4.032732836803794,-10.269478523907065,5.674750827557435,4.843904845689105,8.548426562340655
1698415358783.0,0.01666666753590107,1.006233974829316,0.024537936668097973,-0.7541776146024465,0.7448961376465857,-3.614047113744914,-9.85707728794515,9.524116523956037,3.6857476610573006,14.67003910125159
1698415358800.0,0.01666666753590107,1.1102848625428974,0.23026479965746402,-0.5463473495930433,0.8400655805725604,-3.434183006286621,-9.638606970977783,12.964459757003011,3.1497225258443393,21.079563750472424
1698415358817.0,0.01666666753590107,1.0392307469587772,0.5244534976929426,-0.10586977370381355,0.7431004316025414,-3.181295163671672,-9.18056626586914,13.692165186649095,-0.40944105256212987,26.98918343924544
1698415358834.0,0.01666666753590107,0.9551555294990539,0.5039382406696676,0.24943887120485303,0.6236896055359393,-3.228580938720703,-8.813056311035156,10.068806181017983,-7.323946960207557,28.154061956907363
1698415358851.0,0.01666666753590107,0.9226732096977531,0.5040487153068185,0.3579530219376087,0.5357027310578152,-3.242646581213176,-8.696488617706299,3.9307439852647192,-16.292755444263218,27.338527124724084
1698415358867.0,0.01666666753590107,0.7115393000330775,0.6343979734897613,0.2891846061378717,0.23089093219917267,-3.1070752044677734,-8.762927713775634,-4.795891177144854,-19.604886635078945,24.039972642431053
1698415358884.0,0.01666666753590107,0.2520114251065999,0.8662547185137868,-0.08156652257442473,-0.2913443049224093,-2.855234825079143,-9.138368461608886,-9.465782439575898,-14.405866167175713,20.625695972577784
1698415358901.0,0.01666666753590107,0.08849453173931687,0.9574074000790714,-0.17889000172913072,-0.4958988727293908,-2.73567437967509,-9.24476079788208,-11.932695649849117,-4.40044841052368,17.125828494687795
1698415358917.0,0.01666666753590107,-0.08524371324982494,1.0223638563752173,0.05124211145937443,-0.6835445009093731,-2.634519359533489,-9.028384822845458,-7.671407221022569,7.2822110892841945,14.47137792659989
1698415358934.0,0.01666666753590107,0.04963675862196833,1.0755018645837902,0.7843576488107442,-0.5395931260924786,-2.569726569366455,-8.300547518157959,-0.0766128578780711,11.263676913099076,15.264315077914182
1698415358951.0,0.01666666753590107,0.1308773371776566,1.0710241346478462,1.2472586534321308,-0.4481645501952618,-2.580500184576213,-7.835773120880127,7.162409571242171,9.981384028510051,17.662160561526584
1698415358967.0,0.01666666753590107,0.24086459267027674,1.0456351341083645,2.0808499964892864,-0.33728304927665737,-2.633921101379394,-6.99091921005249,11.837989954365012,5.742097346547407,20.16629915655002
1698415358984.0,0.01666666753590107,0.38606129137314854,0.7807622546672821,2.7065520378261803,-0.20305811870414764,-2.924816310827434,-6.353911930847167,12.724571560521117,2.042374905004849,21.400734613172055
1698415359001.0,0.01666666753590107,0.46823871238753195,0.6540495994210243,2.9651421837359666,-0.14080883900746702,-3.079242317907512,-6.082618370708823,13.51592240040067,-0.937573877508715,21.727991174422172
1698415359017.0,0.01666666753590107,0.5897722844954579,0.4905728554010391,3.2448505209982392,-0.05506656511835754,-3.281701995794475,-5.78424157333374,13.907526173821475,-3.6869305644441823,21.45610866432064
1698415359034.0,0.01666666753590107,0.6397334892988205,0.2703378668487072,3.3173382495820523,-0.036960341998189684,-3.530100710296631,-5.697601400756835,12.739170236098373,-5.846773837559261,20.450831176994413
1698415359050.0,0.01666666753590107,0.6244619781479239,0.19948358468562363,3.2540725228518244,-0.08798676488026975,-3.624072540935874,-5.748327963909507,9.554543309161152,-8.106047162629977,17.766822965273274
1698415359067.0,0.01666666753590107,0.6417686483882368,-0.05111088629513979,2.856709866067767,-0.12120638598017394,-3.895665376281738,-6.132597914886475,6.686928513492672,-11.368009760218312,11.665688187267685
1698415359084.0,0.01666666753590107,0.772447284656018,-0.28992198050171136,2.2703736204355955,-0.027982012707367537,-4.146906328472495,-6.710348703002929,5.329643993798316,-12.482328656322858,7.111489230319257
1698415359101.0,0.01666666753590107,0.8370584346458315,-0.29490678317695856,1.850841217419505,0.001496449102833867,-4.161720743505657,-7.1224506637573235,4.3737129156781345,-12.670648924571157,4.3620085327616716
1698415359117.0,0.01666666753590107,0.9824114929541945,-0.4232043695271015,1.0880132633715867,0.10205306495986878,-4.305672118322551,-7.874229400524497,6.6387961704115925,-13.465285939215136,1.9292123308360776
1698415359134.0,0.01666666753590107,0.9251635652087629,-0.4385004305973649,0.48387891072034833,0.009427315167337656,-4.338742321014404,-8.467094171142577,8.636425012059807,-15.9042525767256,0.8669309384705656
1698415359151.0,0.01666666753590107,0.8341577447682619,-0.4924506319716572,0.14523556940853594,-0.12240341374501586,-4.4134111930295825,-8.792406321716308,9.045285258418648,-18.426747305143444,0.4799339142015241
1698415359167.0,0.01666666753590107,0.5332377657163888,-0.6361185136720537,-0.6512818882733583,-0.48063583714589475,-4.584147698919475,-9.57067149887085,7.223841146410912,-17.986679924466817,-2.2380781808591084
1698415359184.0,0.01666666753590107,-0.012768003897368907,-0.6696160018652677,-1.328206751847267,-1.0594340154234319,-4.6299368056699635,-10.238354486846923,1.7743636180588376,-13.361557563837444,-6.836756396899718
1698415359201.0,0.01666666753590107,-0.16858429629206656,-0.7989011379480362,-1.6599235087662934,-1.2258310308042912,-4.756679856054484,-10.569951416778563,-7.310590525285598,-5.338821633608698,-15.918245926787664
1698415359218.0,0.01666666753590107,-0.43485389078855513,-1.0348092041894792,-2.5644939294099807,-1.4600139537535608,-4.9533033751338715,-11.495609633636475,-23.437812919918972,6.390199909624754,-29.404394678822605
1698415359234.0,0.01666666753590107,-0.7240791942629963,-0.5369754178747534,-3.3279940836310384,-1.6885105746947229,-4.398148157446086,-12.290783860015868,-31.88796757425513,17.667267835478462,-32.81451688611321
1698415359251.0,0.01666666753590107,-0.7336701024942099,-0.443438763782382,-3.5481191820681093,-1.6174326398435979,-4.234893531744182,-12.548908726501464,-32.74178903183091,22.395131609150457,-29.724897890530865
1698415359267.0,0.01666666753590107,-0.6153480397786945,-0.32690117333084345,-3.8300124621540306,-1.4098853564940392,-4.041861022894084,-12.87092884979248,-18.166798843069223,10.628220018383184,-19.197809068093477
1698415359284.0,0.01666666753590107,-0.8117374578412622,-0.04132745116651058,-3.6093396667063233,-1.587505192156881,-3.7340564719602463,-12.660986707195638,-3.2894344722037734,-6.2180172439510795,-9.509209636092486
1698415359301.0,0.01666666753590107,-1.0778262889433652,0.20217589250952003,-3.4395740516752005,-1.8781014186583458,-3.4994250015258785,-12.485462382507324,9.746158289910335,-16.34300343843971,0.13805767987854214
1698415359317.0,0.01666666753590107,-1.5925168828390537,0.39784108795076606,-2.831691160145402,-2.4533083675108847,-3.357568260900676,-11.84980184173584,24.505250251334196,-17.675047420943105,5.317382523577674
1698415359334.0,0.01666666753590107,-1.8711697196990251,0.2998915858522057,-1.7095622766822576,-2.7738320416990665,-3.5218703498288986,-10.695647003936767,32.22087440949613,-13.181883461304736,5.268310175712071
1698415359351.0,0.01666666753590107,-1.9879142308995126,0.33422727843523026,-0.3103600806355476,-2.9346924657408144,-3.5883094458982345,-9.248352100372314,30.460034565993926,-14.030209177919597,-0.11765702540562477
1698415359367.0,0.01666666753590107,-1.9013396709047257,0.3846665490791201,0.247266203340888,-2.8824689420286562,-3.5992326987117527,-8.659827404785156,20.011597079396523,-19.766157646666702,-9.202331798004751
1698415359384.0,0.01666666753590107,-1.7296658841647208,0.5857321422591805,0.7261334233790636,-2.747645534106344,-3.429842931255698,-8.162581647491455,3.197022866507147,-24.804059074691207,-20.386185144047534
1698415359401.0,0.01666666753590107,-1.3213926879182458,0.8590513630062341,0.3347428267419338,-2.3829785476133227,-3.1420901114866138,-8.55537977283895,-16.614317335292835,-26.298917691534783,-30.6023278969728
1698415359417.0,0.01666666753590107,-1.0681949025712907,1.0864730481922626,0.03389116368591785,-2.156427288586274,-2.8785779990047216,-8.869170412445067,-20.852864649277823,-24.01200984796902,-30.793463910706436
1698415359434.0,0.01666666753590107,-0.5988583850096911,1.4996744946211575,-0.4333347183972597,-1.7078137525144963,-2.4283187415525314,-9.350255308532715,-17.113850050430887,-18.612564309060936,-25.561503147983526
1698415359450.0,0.01666666753590107,-0.3949750309951603,1.49373925935328,-0.44330958444476126,-1.5143322577878833,-2.411409984588623,-9.368960009002684,-7.803197428605257,-10.060913897432034,-20.287027872771873
1698415359466.0,0.01666666753590107,0.006880407163500786,1.2429179938793182,0.2081920840591192,-1.0998361684385687,-2.6651950683042407,-8.717737157440185,3.5941232346625185,1.594530500184514,-17.782293343743355
1698415359484.0,0.01666666753590107,0.33284020799100394,0.8266027993440628,1.4079232626408338,-0.7453446120664476,-3.097797088512778,-7.5143509634822605,5.341986999402176,6.870409592714017,-16.999241183705365
1698415359501.0,0.01666666753590107,0.5130222222920506,0.5673337312594056,2.5278449914485215,-0.521337265368551,-3.379265713445842,-6.3898249557495115,4.523928839207402,5.058461151199892,-16.431288756104003
1698415359517.0,0.01666666753590107,0.5455217854890972,0.47258857816010713,2.9022558117121457,-0.4674677280150354,-3.4862566001340745,-6.012438919067383,2.143971621031261,-1.4520454970220549,-15.835807251052904
1698415359534.0,0.01666666753590107,0.6488376369263976,0.1671095475643873,3.2196891917347905,-0.35838184180893,-3.7978017989009616,-5.692962635040283,-1.1801042899823475,-7.80258185780631,-17.42890447872877
1698415359551.0,0.01666666753590107,0.48329577707014976,0.11163578988462686,2.8395734378278252,-0.5267242191039025,-3.846584242248535,-6.075735625457764,-6.980648845918023,-9.440339131143954,-19.880419881291843
1698415359567.0,0.01666666753590107,0.36181473886705934,0.08234627477526664,2.4943472109943627,-0.6459853893004357,-3.8649893752500413,-6.426037255859375,-6.028866253944978,-5.96840072365697,-20.429095807508137
1698415359585.0,0.01666666753590107,0.16128164512850343,0.14854805495738982,1.9787474663645028,-0.8333315961424261,-3.7966049903318284,-6.944082640075683,-0.11452909225044983,-0.6773697102274399,-20.237538029593253
1698415359601.0,0.01666666753590107,-0.12104798054806887,0.1636705130264163,1.7738246132344007,-1.0824782064024359,-3.7992984671995043,-7.144746666717529,6.205451403425548,3.8016534099514785,-20.162358137398922
1698415359618.0,0.01666666753590107,-0.2935474775224924,0.1356435651987791,1.7557435976207256,-1.2225390765868127,-3.8480806182861325,-7.15701695022583,6.832461061685427,5.243178921547833,-21.16186752997108
1698415359634.0,0.01666666753590107,-0.6072168288365006,0.05138794967085123,1.815810820570588,-1.4915874881468711,-3.9586625152036548,-7.089680028533935,5.64349758946275,2.9898651499713647,-23.590795496948918
1698415359650.0,0.01666666753590107,-0.8315564031634479,-0.030047347739338873,1.745662348589301,-1.68641557517685,-4.059668190002441,-7.153874560546875,6.418644659310095,0.2855113521774946,-25.902925521572246
1698415359667.0,0.01666666753590107,-0.9285143369413912,-0.059789867313206194,1.6330512839317322,-1.7549496707640588,-4.110993595831096,-7.25936907119751,6.5450428594298815,-0.04473563130989434,-28.642481954265804
1698415359683.0,0.01666666753590107,-1.1224262589745222,-0.109932785359025,1.2621674687504767,-1.9023427104674278,-4.18491457208842,-7.623586998748779,3.546670068517032,4.021089031850594,-29.064872805370438
1698415359701.0,0.01666666753590107,-1.255869683780521,-0.18868483503460884,0.7771300356447696,-1.9928734607420862,-4.278288436834514,-8.105569720458984,4.856652113114464,6.2673657875912445,-27.903204476618427
1698415359717.0,0.01666666753590107,-1.3249411741800605,-0.22813158702105282,0.5414221681505441,-2.0190600414000452,-4.338891374096274,-8.334964167022704,8.955797827460433,5.069885069473561,-26.506669847971768
1698415359734.0,0.01666666753590107,-1.3181792788296938,-0.453461268363893,0.19327157830297945,-1.9779097734313458,-4.59387414316386,-8.671948050689696,12.109108337053145,0.5454419917268519,-24.59456522001587
1698415359751.0,0.01666666753590107,-1.3402173615060746,-0.7392541862368583,-0.1615419765651226,-1.9783586131773887,-4.9209819449827075,-9.008931934356688,10.570152311380674,-8.6786321660359,-22.671482770516466
1698415359767.0,0.01666666753590107,-1.4104229705020785,-0.8511109253957867,-0.46665421967506404,-2.048239301067963,-5.05969600366801,-9.301323812103272,9.398896958354902,-12.552779496290603,-23.757018395684934
1698415359784.0,0.01666666753590107,-1.6021180932685732,-0.956490577495098,-1.0829033730119466,-2.2355855809751897,-5.200504696545004,-9.900921690368651,10.037003966468758,-6.915449994535197,-28.182709477833686
1698415359800.0,0.01666666753590107,-1.4875089866615832,-1.3347303083971143,-1.0805085868299007,-2.0991160863462834,-5.603628401073813,-9.888052271923423,5.342805341442108,-5.94439602381896,-33.88740300093881
1698415359817.0,0.01666666753590107,-1.4532868374556303,-1.2863567381113767,-1.1798843223392963,-2.0486882138792426,-5.556343210546672,-9.988010775756836,-10.264470610171339,-16.108842355576872,-39.39997013288065
1698415359834.0,0.01666666753590107,-1.6469887699998915,-0.9402145654767751,-2.2490490928560494,-2.228402975994721,-5.1642926886960865,-11.080215645599365,-21.735362656083907,-13.226237856001152,-50.187120115513565
1698415359851.0,0.01666666753590107,-1.392002201540023,-0.6308975641533732,-3.140534406477213,-1.93017519516889,-4.818779461614787,-11.991658290100096,-14.289507064475377,0.3411797684710522,-55.198976324685525
1698415359867.0,0.01666666753590107,-1.2328599795930086,-0.38809067830890415,-3.205335672211647,-1.6979376706663518,-4.56828611292094,-12.064232527923583,1.4893940386207423,8.676455897011605,-54.31029699668058
1698415359884.0,0.01666666753590107,-0.6818330208163708,0.15941373236477374,-2.360603341937065,-1.0600326389037071,-4.055328407232463,-11.207257971191405,14.044655028014175,-5.679854259527904,-49.463813327692975
1698415359901.0,0.01666666753590107,-0.557163379172422,0.18275223011523484,-1.789144931963086,-0.919672530044429,-4.071788543646037,-10.61738653717041,15.676598956594491,-28.12837190789165,-49.9358135502867
1698415359917.0,0.01666666753590107,-0.7818341947477311,0.4342947956010699,-1.7913146772176025,-1.1689687413755803,-3.8593028540462253,-10.599579077801108,13.048732338529922,-41.55894511819749,-55.52151151767187
1698415359934.0,0.01666666753590107,-1.4169883203670381,1.066572708196938,-2.195901440036297,-1.836502164813131,-3.261800194494426,-10.985644095501303,3.093474210481992,-36.179269561842005,-66.30833023613003
1698415359951.0,0.01666666753590107,-1.6808577218540013,1.5026245765984056,-2.5690806726783513,-2.096123334271088,-2.8318910666316746,-11.355997749328612,-3.8398111155234007,-30.140685656255393,-73.90220285724192
1698415359967.0,0.01666666753590107,-1.8413677250228822,1.815264292603731,-2.7321652025103567,-2.2358849292479452,-2.5172031859248873,-11.521048026275635,-4.034511207343315,-28.05826001606147,-78.86450604398543
1698415359983.0,0.01666666753590107,-2.1044263946488497,2.5532629258215427,-2.7659616736501453,-2.465129628610052,-1.7881690726682542,-11.551873372650146,4.129743681167157,-29.341543278080145,-81.07961152390143
1698415360001.0,0.01666666753590107,-1.9602410649456083,2.781078286500275,-2.248579721778631,-2.2981340628141536,-1.5879542510986326,-11.021707342529297,13.25697114594527,-31.25150322663666,-80.83452384591386
1698415360017.0,0.01666666753590107,-1.8897988707147537,2.8871698862612245,-1.7657810075104237,-2.2107457752836868,-1.5251058729976414,-10.517877530670166,17.276355618711122,-34.792744575424,-79.6363993824669
1698415360034.0,0.01666666753590107,-1.8572578064635394,2.8949922504499552,-0.734018039149046,-2.1725881132597102,-1.574486574499309,-9.457246195220947,13.326374405649062,-42.914843536377155,-80.23045508552877
1698415360050.0,0.01666666753590107,-1.93039771534577,2.661715994016826,0.14926467879414557,-2.258480134350434,-1.8385966528743505,-8.557624921417236,7.540028532337374,-52.82977494690486,-83.49230071612757
1698415360067.0,0.01666666753590107,-1.9497657020300625,2.5834485129877924,0.4181009089082479,-2.306813116897456,-1.9358613875791428,-8.277802602386474,2.6693632189235705,-61.839911198080976,-89.42352087815075
1698415360084.0,0.01666666753590107,-2.003031428271532,2.515887427151203,0.4758370585620403,-2.4073694039609284,-2.0216037345334885,-8.208520391845703,1.9131026893483678,-66.37057375003637,-100.3667748342643
1698415360100.0,0.01666666753590107,-1.821714637786895,2.578810624054074,0.5828840593516826,-2.2530932171477005,-1.975515060314536,-8.091354148101805,2.9370893454717337,-66.35148337130617,-107.35385344951226
1698415360117.0,0.01666666753590107,-1.619653165437281,2.6927269260913134,0.7002209834873676,-2.0696374053403734,-1.8807947493955492,-7.962965084075927,2.4289219905623156,-66.486864550845,-112.59019748613503
1698415360134.0,0.01666666753590107,-1.216801994239539,2.754516442789137,0.9437328027307986,-1.6858168786313383,-1.8390455656856297,-7.707833554187417,-1.7194506046792275,-67.62632451951072,-116.45174738623928
1698415360150.0,0.01666666753590107,-0.8910241258502006,2.6012647401854396,1.079342465659976,-1.3715779107358306,-1.9975117880672215,-7.568819051250815,-7.082330725865649,-68.29422822787876,-119.70133282727791
1698415360167.0,0.01666666753590107,-0.7402278535746037,2.4519936316505073,1.0497919615268707,-1.2303200858518482,-2.1380214979976415,-7.602488096618652,-14.747631757770227,-69.45296982057143,-123.57323046397474
1698415360184.0,0.01666666753590107,-0.6120527245603501,2.176273194980621,0.777211284187436,-1.1124055444912984,-2.3728031905576583,-7.896077659717202,-26.584921617745312,-70.75274115924651,-130.1276302556807
1698415360201.0,0.01666666753590107,-0.4763879704430699,1.9859262719526887,0.3467559206187725,-0.9793777512814849,-2.514210433849692,-8.351873216247558,-31.15718855948254,-69.66064172228566,-135.03199294769502
1698415360217.0,0.01666666753590107,-0.4030170292839408,1.9129320551514624,0.20642741247415541,-0.902164820806682,-2.533364047130942,-8.520065882873535,-31.788451718048044,-67.30304483590484,-138.77645291485774
1698415360234.0,0.01666666753590107,-0.22768632747158407,1.8267150764226912,-0.018791794231534004,-0.7088328906185924,-2.54742998188436,-8.782679877471923,-31.56699649458872,-62.08764215927734,-141.49053786458902
1698415360251.0,0.01666666753590107,-0.08199936103373766,1.6657593753129243,0.06371873119473458,-0.5395927607662976,-2.6524755797237156,-8.729110199847817,-32.73181695564269,-58.48917748562363,-143.50340827337013
1698415360267.0,0.01666666753590107,-0.02474734163507819,1.492358910910785,0.15614040978252886,-0.4510074454709887,-2.765900883373618,-8.667458922576904,-33.83852958233279,-55.78805623493703,-146.22573043124044
1698415360284.0,0.01666666753590107,0.10745280511155723,1.237530163361132,0.2612041278004646,-0.2753328621244058,-2.936338114055991,-8.604611128997803,-34.48517091181457,-58.051942925905266,-149.63455490258875
1698415360301.0,0.01666666753590107,0.2493636140115559,1.1624322522789239,0.3122831576526165,-0.11013298410624266,-2.946663108715415,-8.584709327697754,-33.86039984805517,-62.4572305254559,-151.2729123787997
1698415360317.0,0.01666666753590107,0.24381679353937505,1.1500491560459136,0.3370072645425796,-0.10519483358431607,-2.897432629339397,-8.588599905395506,-30.607665689809163,-67.34591110313585,-151.9406453324385
1698415360334.0,0.01666666753590107,0.17669395298957824,1.1383856062591076,0.28484453110694885,-0.17836776795331388,-2.839073671612143,-8.671948050689696,-27.099496116983026,-73.42648018155053,-154.30491531363842
1698415360351.0,0.01666666753590107,0.04539586964920163,1.2545870966240762,0.062143444702029225,-0.3230671481259167,-2.6738740493223068,-8.915707707214356,-27.720536189908312,-74.8861735694523,-157.58697147399127
1698415360367.0,0.01666666753590107,-0.039732108266465366,1.3041063298135995,-0.09940086995065212,-0.41988260469324884,-2.572419461712241,-9.099313047027588,-30.014012967908336,-73.69633412546857,-162.53805265992847
1698415360384.0,0.01666666753590107,-0.22597236316055058,1.5582318975299596,-0.4640338080435991,-0.6145612733151763,-2.240373911230266,-9.496750522613524,-33.64258853051805,-74.10100234322431,-169.40526145524268
1698415360400.0,0.01666666753590107,-0.37454423738494513,1.882192048972845,-0.7620780124634504,-0.7742245965268463,-1.8544582388728856,-9.820117968860268,-32.9160578934092,-78.75812584766248,-173.53274477068138
1698415360417.0,0.01666666753590107,-0.41619872854873535,2.0886925266832113,-0.8681646437883377,-0.841411880614981,-1.595734821972251,-9.946411521911621,-26.110218347787548,-85.52067565432459,-176.08860155810015
1698415360434.0,0.01666666753590107,-0.47983796476647256,2.5792402476429936,-1.004960301631689,-0.953191207156144,-1.0730506720393895,-10.09380456161499,-11.220399126970582,-84.98203327599904,-176.8186121765911
1698415360451.0,0.01666666753590107,-0.3773505269773304,2.697557414987683,-0.48235213954448697,-0.8773249420499428,-0.9614210196346044,-9.567080196380614,-3.245123833406727,-80.44236170452841,-177.21763182790326
1698415360468.0,0.01666666753590107,-0.3236982856363058,2.707475582411885,-0.07220715807676314,-0.84201043103002,-0.9701000006526708,-9.148394181060791,-2.1086853696750945,-78.98710110939798,-178.90541255294843
1698415360484.0,0.01666666753590107,-0.16938742936849593,2.4200918882161377,0.7130529925316572,-0.7047926022518426,-1.2728165807977319,-8.355913431549071,-11.451623228490316,-80.75958984052966,-185.86790248718432
1698415360501.0,0.01666666753590107,-0.04136423951294273,2.173366075362265,1.0869026717811823,-0.593013421841152,-1.501163856396079,-7.988553114318847,-27.811440885119303,-87.29299363072701,-191.17509607606763
1698415360518.0,0.01666666753590107,-0.020536299811303615,2.125860520082712,0.8981891951739788,-0.6082763843594119,-1.4863494413629172,-8.199991048431396,-49.2894488434663,-98.31894068712192,-194.97496253777751
1698415360534.0,0.01666666753590107,-0.1989559806149453,2.2276512077793478,-0.47853228899538514,-0.8662515036433934,-1.2216408125728369,-9.634267480468749,-80.372120039104,-101.43475004307668,-202.72021947165354
1698415360551.0,0.01666666753590107,-0.6653849401667714,2.79376942576915,-2.9214018262088297,-1.3703808099057524,-0.48153322437703605,-12.138003866577147,-92.78238934590958,-76.17417649218744,-204.87951547586138
1698415360567.0,0.01666666753590107,-0.7675311633028089,2.830696888411045,-3.6833804699510333,-1.4422067866452037,-0.26261341007649897,-12.964901264953612,-85.09058547247807,-38.29788495935324,-198.53707011447923
1698415360584.0,0.01666666753590107,-0.2977714518930763,2.681271173836291,-3.4463381389826533,-0.8506893389828503,-0.22355799549520014,-12.796558960723877,-55.63182590295674,-16.03393737849663,-180.1561704541395
1698415360601.0,0.01666666753590107,0.772383864030987,1.9630480851903556,-1.7019640766382216,0.2941878943178803,-0.8506891928523779,-11.084106223297118,-39.138356812196236,-31.637299631715663,-163.24227248411344
1698415360618.0,0.01666666753590107,1.0453021027617155,1.6073840509727597,-1.0598451535075901,0.5671268470430746,-1.1390408552974463,-10.461913066864014,-32.62620174050679,-59.419339967552645,-145.2279490765283
1698415360634.0,0.01666666753590107,1.2078739338312297,1.2603703562006354,-0.32055823404490946,0.6166570400180295,-1.3988117354243992,-9.741258951678871,-37.20674857906536,-80.71487942222275,-119.82942619497233
1698415360651.0,0.01666666753590107,0.9838266204491257,1.0933084471702574,-0.6056324822545052,0.27278979004547,-1.4860504584163428,-10.040234883990884,-42.382344913210034,-77.03768998819548,-104.83577443839282
