ts,interval,accx,accy,accz,accGx,accGy,accGz,alpha,beta,gamma
1698924422006.0,16,0.0,0.0,0.0,0.0,9.4,1.4000000000000001,1.2000000000000002,0.2,0.30000000000000004
1698924422022.0,16,0.0,0.1,0.0,-0.1,9.5,1.3,1.4,0.7,-0.2
1698924422039.0,16,0.0,0.0,0.0,-0.1,9.4,1.4000000000000001,0.7,-0.2,-0.5
1698924422055.0,16,0.0,0.0,0.0,-0.1,9.4,1.3,0.7,0.4,-0.30000000000000004
1698924422072.0,16,0.0,0.0,0.0,-0.1,9.4,1.4000000000000001,0.1,0.30000000000000004,-0.6000000000000001
1698924422090.0,16,0.0,0.0,0.0,0.0,9.4,1.4000000000000001,0.4,0.5,-0.30000000000000004
1698924422106.0,16,0.0,0.0,0.0,0.0,9.4,1.3,0.4,0.6000000000000001,-0.2
1698924422123.0,16,0.0,0.0,0.0,0.0,9.4,1.3,0.5,0.2,-0.1
1698924422139.0,16,0.0,0.0,0.0,0.0,9.4,1.3,0.7,0.1,-0.30000000000000004
1698924422156.0,16,0.0,0.0,0.0,0.0,9.4,1.3,0.7,0.0,0.0
1698924422173.0,16,0.0,0.0,0.0,0.0,9.4,1.4000000000000001,0.8,-0.4,0.30000000000000004
1698924422189.0,16,0.0,0.0,0.0,0.0,9.4,1.3,0.9,-0.5,0.30000000000000004
1698924422206.0,16,0.0,0.0,0.0,0.0,9.4,1.3,0.6000000000000001,-0.9,0.2
1698924422224.0,16,0.0,0.0,0.0,0.0,9.4,1.4000000000000001,0.2,-0.6000000000000001,0.30000000000000004
1698924422239.0,16,0.0,0.0,0.0,0.0,9.4,1.3,0.2,-0.4,0.30000000000000004
1698924422255.0,16,0.0,0.0,0.1,0.0,9.4,1.4000000000000001,0.0,0.0,0.30000000000000004
1698924422272.0,16,0.0,0.0,0.0,0.0,9.4,1.3,0.2,-0.1,0.4
1698924422289.0,16,0.0,0.0,0.0,0.0,9.4,1.4000000000000001,-0.4,0.30000000000000004,0.0
1698924422306.0,16,0.0,0.0,0.0,0.0,9.4,1.4000000000000001,-0.4,0.9,-0.2
1698924422323.0,16,0.1,0.0,0.0,0.0,9.4,1.3,-0.6000000000000001,1.0999999999999999,-1.0
1698924422339.0,16,0.0,0.0,0.0,0.0,9.4,1.3,-0.4,1.2000000000000002,0.0
1698924422355.0,16,0.0,0.0,0.0,0.0,9.4,1.3,-0.30000000000000004,0.8,0.8
1698924422372.0,16,0.0,0.0,0.0,-0.1,9.4,1.3,-0.2,0.5,0.7
1698924422389.0,16,0.0,0.0,0.0,0.0,9.5,1.3,-0.1,-0.5,0.1
1698924422405.0,16,0.0,0.0,0.0,0.0,9.4,1.3,0.1,0.2,0.1
1698924422422.0,16,0.0,0.0,0.0,0.0,9.4,1.4000000000000001,0.2,0.4,0.1
1698924422439.0,16,0.0,0.0,0.0,0.0,9.4,1.3,0.30000000000000004,0.4,0.1
1698924422456.0,16,0.0,0.0,0.0,-0.1,9.4,1.3,0.30000000000000004,0.4,0.30000000000000004
1698924422473.0,16,0.0,-0.1,0.0,0.0,9.4,1.3,0.30000000000000004,0.4,0.30000000000000004
1698924422489.0,16,0.0,-0.1,0.0,0.0,9.3,1.4000000000000001,0.0,0.4,0.30000000000000004
1698924422506.0,16,0.0,0.0,0.0,0.0,9.4,1.4000000000000001,0.30000000000000004,0.5,0.30000000000000004
1698924422523.0,16,0.0,0.0,0.0,0.0,9.4,1.3,0.2,0.4,0.4
1698924422539.0,16,0.0,-0.1,0.0,0.0,9.3,1.3,0.30000000000000004,0.2,0.30000000000000004
1698924422556.0,16,0.0,0.0,0.0,0.0,9.4,1.3,0.4,0.0,0.1
1698924422573.0,16,0.0,0.0,0.0,0.0,9.4,1.3,0.7,0.0,0.0
1698924422590.0,16,0.0,0.0,0.0,0.0,9.4,1.4000000000000001,1.3,0.1,0.1
1698924422606.0,16,0.0,0.0,0.0,0.0,9.4,1.3,1.4,0.0,0.0
1698924422622.0,16,0.0,0.0,0.1,-0.1,9.4,1.4000000000000001,1.5000000000000002,0.1,0.0
1698924422639.0,16,0.0,0.0,0.1,0.0,9.4,1.4000000000000001,1.4,0.1,0.0
1698924422655.0,16,0.0,0.0,0.0,0.0,9.4,1.4000000000000001,1.4,0.1,-0.30000000000000004
1698924422672.0,16,0.0,0.0,0.0,0.0,9.4,1.3,1.4,0.1,-0.30000000000000004
1698924422689.0,16,0.0,0.0,0.0,0.0,9.4,1.3,1.2000000000000002,-0.4,-0.1
1698924422705.0,16,0.0,0.0,0.0,0.0,9.4,1.3,1.4,-0.6000000000000001,-0.2
1698924422724.0,16,0.0,0.1,0.0,0.0,9.5,1.3,1.6,-0.9,-0.4
1698924422740.0,16,0.0,0.1,-0.1,0.0,9.5,1.2000000000000002,1.3,-0.8,-0.5
1698924422756.0,16,0.0,0.0,-0.1,0.0,9.5,1.2000000000000002,0.9,-0.7,-0.6000000000000001
1698924422773.0,16,0.0,0.1,0.0,0.0,9.5,1.3,0.4,-1.0,-0.8
1698924422790.0,16,0.0,0.1,-0.1,0.0,9.5,1.3,0.1,-0.9,-0.8
1698924422806.0,16,0.0,0.0,-0.1,0.0,9.4,1.2000000000000002,0.0,-0.5,-1.0
1698924422823.0,16,0.0,0.0,-0.1,0.0,9.4,1.2000000000000002,0.0,-0.5,-0.9
1698924422840.0,16,0.0,0.0,0.0,0.0,9.4,1.2000000000000002,0.0,-0.8,-1.0
1698924422856.0,16,0.0,0.0,0.0,0.0,9.4,1.3,0.7,-0.2,-0.6000000000000001
1698924422874.0,16,0.0,0.0,0.0,-0.1,9.5,1.3,1.2000000000000002,0.0,-0.6000000000000001
1698924422890.0,16,0.0,0.0,0.0,0.0,9.4,1.3,1.2000000000000002,-0.30000000000000004,-0.8
1698924422906.0,16,0.0,0.0,0.1,0.0,9.4,1.3,1.0,-0.4,-1.0
1698924422922.0,16,0.0,0.0,0.1,0.0,9.4,1.3,0.9,-0.30000000000000004,-0.8
1698924422939.0,16,0.0,0.0,0.1,0.0,9.4,1.3,0.0,0.2,-1.0
1698924422956.0,16,0.0,0.0,0.0,-0.1,9.4,1.3,-0.8,0.1,-0.8
1698924422972.0,16,0.0,0.0,0.1,-0.1,9.4,1.4000000000000001,-1.3,0.2,-0.8
1698924422989.0,16,0.0,0.0,0.0,-0.1,9.5,1.3,-1.0999999999999999,0.7,-0.7
1698924423006.0,16,0.0,0.0,0.0,-0.1,9.4,1.3,-1.0999999999999999,0.6000000000000001,-0.6000000000000001
1698924423023.0,16,0.0,0.0,0.0,-0.1,9.4,1.2000000000000002,-0.9,0.4,-0.6000000000000001
1698924423040.0,16,0.0,0.0,0.0,-0.1,9.4,1.3,-0.7,0.1,-0.5
1698924423056.0,16,0.0,0.0,0.0,-0.1,9.4,1.3,-0.30000000000000004,0.2,-0.2
1698924423073.0,16,0.0,0.0,0.0,-0.1,9.4,1.3,0.1,0.2,0.0
1698924423090.0,16,0.0,0.0,0.0,-0.1,9.4,1.3,0.5,-0.1,0.1
1698924423106.0,16,0.0,0.0,0.0,-0.1,9.4,1.3,0.30000000000000004,-0.2,-0.1
1698924423122.0,16,0.0,0.0,0.0,-0.1,9.4,1.3,0.1,-0.2,-0.2
1698924423139.0,16,0.0,0.0,0.0,-0.1,9.4,1.3,0.0,-0.1,-0.2
1698924423155.0,16,0.0,0.0,0.0,-0.1,9.4,1.3,-0.2,-0.1,0.0
1698924423172.0,16,0.0,0.0,0.0,-0.1,9.4,1.3,-0.4,-0.1,0.2
1698924423190.0,16,0.0,0.0,0.0,-0.1,9.4,1.3,-0.8,-0.5,0.1
1698924423206.0,16,0.0,0.0,0.0,-0.1,9.4,1.3,-0.8,-0.5,0.0
1698924423222.0,16,0.0,0.0,0.0,-0.1,9.4,1.3,-0.9,-0.2,0.1
1698924423240.0,16,0.0,0.0,0.0,-0.1,9.4,1.3,-0.30000000000000004,0.0,0.1
1698924423256.0,16,0.0,0.0,0.0,-0.1,9.4,1.3,0.0,-0.1,0.1
1698924423273.0,16,0.0,0.0,0.0,-0.1,9.4,1.3,-0.2,-0.1,0.1
1698924423289.0,16,0.0,0.0,0.0,-0.1,9.4,1.3,-0.2,0.2,0.1
1698924423305.0,16,0.0,0.0,0.0,-0.1,9.4,1.3,-0.30000000000000004,0.0,0.2
1698924423322.0,16,0.0,0.0,0.0,-0.1,9.4,1.3,-0.30000000000000004,-0.2,0.1
1698924423339.0,16,0.0,0.0,0.0,-0.1,9.4,1.3,-0.30000000000000004,-0.1,0.1
1698924423356.0,16,0.0,0.0,0.0,-0.1,9.4,1.3,-0.4,-0.1,-0.1
1698924423373.0,16,0.0,0.0,0.1,-0.1,9.4,1.4000000000000001,-0.4,0.1,-0.1
1698924423390.0,16,0.0,0.0,0.0,0.0,9.4,1.3,-0.4,0.2,-0.1
1698924423406.0,16,0.0,0.0,0.0,-0.1,9.4,1.3,-0.2,0.2,0.1
1698924423423.0,16,0.0,-0.1,0.0,-0.1,9.4,1.3,-0.1,0.1,0.1
1698924423440.0,16,0.0,0.0,0.0,-0.1,9.4,1.3,-0.30000000000000004,-0.4,0.0
1698924423456.0,16,0.0,0.0,0.0,-0.1,9.4,1.3,0.0,-0.1,0.0
1698924423474.0,16,0.0,0.0,0.0,-0.1,9.4,1.3,0.2,-0.4,0.0
1698924423490.0,16,0.0,0.0,0.0,-0.1,9.4,1.3,0.2,-0.4,0.1
1698924423506.0,16,0.0,0.0,0.0,0.0,9.4,1.3,0.5,-0.1,0.1
1698924423525.0,16,0.0,-0.1,0.0,-0.1,9.3,1.3,0.4,-0.2,0.0
1698924423539.0,16,0.0,0.0,0.0,-0.1,9.4,1.3,0.4,-0.30000000000000004,0.1
1698924423556.0,16,0.0,0.0,0.0,-0.1,9.4,1.3,0.2,-0.5,0.1
1698924423572.0,16,-0.1,0.0,0.0,-0.1,9.4,1.3,0.4,-0.6000000000000001,0.1
1698924423589.0,16,-0.1,0.1,0.0,-0.1,9.5,1.4000000000000001,0.30000000000000004,-0.6000000000000001,0.1
1698924423606.0,16,0.0,0.0,0.0,-0.1,9.4,1.3,0.2,-1.0999999999999999,0.0
1698924423622.0,16,0.1,0.0,0.0,0.0,9.4,1.4000000000000001,0.30000000000000004,-0.9,-0.2
1698924423639.0,16,0.0,0.0,0.0,0.0,9.4,1.3,0.2,-0.1,0.0
1698924423656.0,16,0.0,0.0,0.0,-0.1,9.4,1.3,0.0,-0.1,0.0
1698924423674.0,16,0.0,0.0,0.0,-0.1,9.4,1.3,0.2,-0.5,-0.1
1698924423691.0,16,0.1,0.0,0.0,0.0,9.4,1.3,0.9,-0.5,-0.30000000000000004
1698924423706.0,16,0.1,0.0,0.0,0.0,9.4,1.3,1.0,-0.5,-0.4
1698924423722.0,16,0.0,-0.1,0.0,-0.1,9.4,1.3,1.0999999999999999,0.2,-0.5
1698924423739.0,16,0.0,0.0,0.0,-0.1,9.4,1.3,1.3,0.2,-0.1
1698924423757.0,16,0.0,0.0,0.0,-0.1,9.4,1.3,1.0999999999999999,0.0,0.1
1698924423772.0,16,0.0,0.0,0.0,-0.1,9.5,1.3,0.8,0.4,0.2
1698924423791.0,16,0.0,0.0,0.0,-0.1,9.4,1.3,0.5,0.4,0.30000000000000004
1698924423806.0,16,0.0,0.0,0.0,-0.1,9.4,1.3,0.30000000000000004,0.4,0.2
1698924423822.0,16,0.0,0.0,0.0,-0.1,9.5,1.3,0.5,-0.1,0.1
1698924423839.0,16,0.0,0.0,0.0,-0.1,9.5,1.3,0.7,0.0,-0.2
1698924423856.0,16,0.0,0.0,0.0,-0.1,9.4,1.3,0.8,-0.1,-0.2
1698924423872.0,16,0.0,0.0,0.0,0.0,9.4,1.3,1.0,-0.1,0.0
1698924423889.0,16,0.0,0.0,0.0,-0.1,9.4,1.3,1.0,-0.1,0.0
1698924423906.0,16,0.0,0.0,0.0,-0.1,9.4,1.3,0.8,-0.2,0.0
1698924423924.0,16,0.0,0.0,0.0,0.0,9.4,1.3,0.30000000000000004,-0.2,0.1
1698924423939.0,16,0.0,0.1,0.0,-0.1,9.5,1.3,0.2,-0.2,0.1
1698924423956.0,16,0.0,0.0,0.0,-0.1,9.5,1.3,0.1,0.1,0.2
1698924423972.0,16,0.0,0.0,-0.1,-0.1,9.4,1.2000000000000002,-0.2,0.2,0.2
1698924423989.0,16,0.0,0.0,0.0,0.0,9.4,1.2000000000000002,-0.4,-0.4,0.1
1698924424006.0,16,0.0,0.0,0.0,0.0,9.4,1.2000000000000002,-0.30000000000000004,-0.4,0.1
1698924424023.0,16,0.0,0.0,0.0,0.0,9.4,1.2000000000000002,-0.5,-0.7,0.1
1698924424039.0,16,0.0,0.0,0.0,-0.1,9.5,1.3,-0.5,-0.30000000000000004,0.5
1698924424056.0,16,0.0,0.0,0.0,-0.1,9.5,1.3,0.0,0.5,0.5
1698924424072.0,16,0.0,0.0,0.0,-0.1,9.5,1.3,0.4,-0.6000000000000001,0.30000000000000004
1698924424089.0,16,0.0,0.0,0.0,-0.1,9.4,1.3,0.5,-0.2,0.1
1698924424106.0,16,0.0,0.0,0.0,-0.1,9.4,1.3,0.2,-0.1,0.1
1698924424122.0,16,0.0,0.0,0.0,-0.1,9.4,1.3,-0.2,0.2,0.1
1698924424139.0,16,0.0,0.0,0.0,-0.1,9.4,1.3,-0.7,-0.6000000000000001,0.1
1698924424156.0,16,0.0,0.0,0.0,-0.1,9.4,1.3,-0.7,-0.6000000000000001,0.2
1698924424173.0,16,0.0,0.0,0.0,-0.1,9.4,1.3,-0.4,-0.6000000000000001,0.2
1698924424189.0,16,0.0,0.0,0.0,0.0,9.4,1.3,-0.1,-0.7,0.1
1698924424206.0,16,0.0,0.0,0.0,0.0,9.4,1.3,0.0,-0.7,0.0
1698924424222.0,16,0.0,0.0,0.0,0.0,9.5,1.3,0.30000000000000004,-0.6000000000000001,-0.2
1698924424240.0,16,0.0,0.0,0.0,0.0,9.4,1.3,0.2,-0.4,0.0
1698924424256.0,16,0.0,0.0,0.0,0.0,9.4,1.3,0.0,0.2,0.0
1698924424272.0,16,0.0,0.0,0.0,0.0,9.4,1.3,-0.1,0.2,-0.1
1698924424289.0,16,0.0,0.0,0.0,0.0,9.4,1.3,0.0,0.5,-0.2
1698924424305.0,16,0.0,0.0,0.0,0.0,9.4,1.3,-0.1,0.5,0.0
1698924424322.0,16,0.0,0.0,0.0,-0.1,9.4,1.3,-0.1,0.4,0.0
1698924424338.0,16,0.0,0.0,0.0,-0.1,9.5,1.3,0.0,0.5,-0.30000000000000004
1698924424355.0,16,0.0,0.0,0.0,0.0,9.4,1.3,0.30000000000000004,0.9,0.0
1698924424372.0,16,0.0,0.0,0.0,0.0,9.4,1.3,0.2,0.9,0.0
1698924424389.0,16,0.0,-0.1,0.0,0.0,9.4,1.3,0.30000000000000004,0.4,0.1
1698924424409.0,16,0.0,-0.1,0.0,-0.1,9.3,1.3,0.30000000000000004,0.2,0.2
1698924424423.0,16,0.0,0.0,0.0,-0.1,9.4,1.3,0.30000000000000004,-0.7,0.4
1698924424439.0,16,0.0,0.0,0.0,-0.1,9.5,1.3,0.2,-0.7,0.2
1698924424456.0,16,0.0,0.0,0.0,-0.1,9.4,1.3,0.0,-0.5,0.5
1698924424474.0,16,0.0,0.1,0.0,-0.1,9.5,1.3,0.1,-0.4,0.5
1698924424489.0,16,0.0,0.0,0.0,0.0,9.4,1.3,0.5,-0.7,0.0
1698924424506.0,16,0.0,-0.1,0.0,0.0,9.4,1.3,0.8,-0.7,0.0
1698924424523.0,16,0.0,0.0,0.0,0.0,9.4,1.3,0.7,-0.30000000000000004,-0.1
1698924424539.0,16,0.0,0.0,0.0,0.0,9.4,1.3,0.7,-0.2,0.0
1698924424556.0,16,0.0,0.1,0.0,0.0,9.5,1.3,0.2,0.30000000000000004,-0.2
1698924424572.0,16,0.0,0.0,0.0,-0.1,9.5,1.2000000000000002,0.0,0.4,-0.30000000000000004
1698924424589.0,16,0.0,0.0,0.0,-0.1,9.5,1.3,-0.2,0.2,-0.2
1698924424605.0,16,0.0,0.0,0.0,-0.1,9.4,1.3,0.0,0.0,-0.1
1698924424622.0,16,0.0,0.0,-0.1,0.0,9.4,1.2000000000000002,-0.1,-0.1,-0.2
1698924424639.0,16,0.0,0.0,0.0,0.0,9.4,1.2000000000000002,-0.1,0.0,-0.1
1698924424655.0,16,0.0,0.0,0.0,-0.1,9.4,1.3,0.4,0.30000000000000004,0.1
1698924424673.0,16,0.0,0.0,0.0,0.0,9.4,1.3,0.7,0.30000000000000004,0.30000000000000004
1698924424689.0,16,0.0,0.0,0.0,-0.1,9.4,1.3,0.6000000000000001,0.2,0.30000000000000004
1698924424706.0,16,0.0,0.0,0.0,-0.1,9.4,1.3,0.7,0.1,0.4
1698924424722.0,16,0.0,0.0,0.0,-0.1,9.5,1.2000000000000002,0.8,0.1,0.1
1698924424740.0,16,0.0,0.0,0.0,-0.1,9.4,1.3,0.2,0.5,0.0
1698924424756.0,16,0.0,0.0,0.0,-0.1,9.4,1.3,-0.1,0.5,0.30000000000000004
1698924424773.0,16,0.0,0.0,0.0,-0.1,9.4,1.3,-0.2,0.4,0.2
1698924424790.0,16,0.0,0.0,0.0,-0.1,9.4,1.3,-0.30000000000000004,-0.1,0.30000000000000004
1698924424806.0,16,0.0,0.0,0.0,-0.1,9.3,1.2000000000000002,-0.4,-0.4,0.6000000000000001
1698924424822.0,16,0.0,0.0,0.0,0.0,9.4,1.3,-0.6000000000000001,-0.5,1.0
1698924424839.0,16,0.0,0.1,0.0,0.0,9.5,1.3,-0.30000000000000004,-0.8,0.6000000000000001
1698924424856.0,16,0.0,0.0,0.0,0.0,9.5,1.2000000000000002,0.0,-0.6000000000000001,-0.1
1698924424873.0,16,0.0,0.0,0.0,0.0,9.4,1.3,0.2,-0.6000000000000001,0.1
1698924424889.0,16,0.0,0.0,0.0,0.0,9.4,1.3,0.2,-0.30000000000000004,0.30000000000000004
1698924424905.0,16,0.0,0.0,0.0,-0.1,9.4,1.3,0.5,-0.6000000000000001,0.4
1698924424922.0,16,0.0,0.0,0.0,0.0,9.4,1.3,0.7,-0.7,0.1
1698924424939.0,16,0.0,0.0,0.0,0.0,9.4,1.3,0.5,-0.5,0.0
1698924424956.0,16,0.0,0.0,0.0,0.0,9.4,1.3,0.30000000000000004,-0.1,0.1
1698924424975.0,16,0.0,0.0,0.0,-0.1,9.4,1.2000000000000002,-0.4,0.30000000000000004,0.0
1698924424990.0,16,0.0,0.0,0.0,-0.1,9.4,1.3,-0.4,0.0,-0.1
1698924425006.0,16,0.0,0.0,0.0,0.0,9.5,1.3,-0.1,-0.1,0.0
1698924425023.0,16,0.0,0.0,0.0,0.0,9.4,1.2000000000000002,-0.1,-0.1,0.1
1698924425040.0,16,0.0,0.0,0.0,0.0,9.4,1.2000000000000002,0.2,0.1,0.30000000000000004
1698924425055.0,16,0.0,0.0,0.0,0.0,9.4,1.3,0.30000000000000004,0.30000000000000004,0.30000000000000004
1698924425072.0,16,0.0,0.0,0.0,-0.1,9.5,1.2000000000000002,0.5,0.0,0.1
1698924425092.0,16,0.0,0.0,0.0,0.0,9.4,1.3,0.5,-0.4,0.0
1698924425106.0,16,0.0,0.0,0.0,0.0,9.4,1.3,0.4,-0.30000000000000004,0.0
1698924425122.0,16,0.0,0.0,0.0,0.0,9.4,1.3,-0.1,-0.1,0.0
1698924425139.0,16,0.0,0.0,0.0,-0.1,9.4,1.2000000000000002,-0.30000000000000004,-0.30000000000000004,0.0
1698924425156.0,16,0.0,0.0,0.0,0.0,9.4,1.2000000000000002,-0.30000000000000004,0.1,0.1
1698924425172.0,16,0.0,0.0,0.0,0.0,9.4,1.2000000000000002,-0.30000000000000004,0.30000000000000004,0.1
1698924425190.0,16,0.0,0.0,0.0,0.0,9.4,1.3,-0.1,0.1,0.0
1698924425206.0,16,0.0,0.0,0.0,0.0,9.4,1.3,0.0,-0.1,0.0
1698924425222.0,16,0.0,0.0,0.0,0.0,9.4,1.3,0.30000000000000004,0.30000000000000004,0.0
1698924425240.0,16,0.0,0.0,0.0,-0.1,9.4,1.3,0.2,0.2,0.1
1698924425256.0,16,0.0,0.0,0.0,0.0,9.4,1.3,0.0,0.0,0.1
1698924425273.0,16,0.0,0.0,0.0,0.0,9.5,1.3,-0.1,-0.2,0.0
1698924425290.0,16,0.0,0.0,0.0,0.0,9.5,1.2000000000000002,-0.4,0.2,0.0
1698924425306.0,16,0.0,0.0,0.0,-0.1,9.4,1.2000000000000002,-0.6000000000000001,0.2,0.2
1698924425322.0,16,0.0,0.0,0.0,-0.1,9.4,1.2000000000000002,-0.5,0.1,0.30000000000000004
1698924425339.0,16,0.0,0.0,0.0,-0.1,9.4,1.3,-0.1,-0.2,0.1
1698924425355.0,16,0.0,0.0,0.0,0.0,9.4,1.2000000000000002,0.1,-0.1,0.1
1698924425374.0,16,0.0,0.0,0.0,0.0,9.4,1.3,-0.1,-0.4,0.2
1698924425390.0,16,0.0,0.0,0.0,0.0,9.4,1.3,-0.1,-0.30000000000000004,0.30000000000000004
1698924425406.0,16,0.0,0.0,0.0,0.0,9.4,1.3,-0.1,-0.30000000000000004,0.1
1698924425422.0,16,0.0,0.0,0.0,0.0,9.4,1.3,-0.2,-0.1,0.1
1698924425440.0,16,0.0,0.0,0.0,0.0,9.4,1.2000000000000002,-0.4,-0.2,0.1
1698924425455.0,16,0.0,0.0,0.0,0.0,9.4,1.3,-0.8,0.0,0.0
1698924425472.0,16,0.0,0.0,0.0,0.0,9.4,1.2000000000000002,-0.7,0.4,0.2
1698924425489.0,16,0.0,0.0,0.0,0.0,9.4,1.3,-0.8,0.5,0.30000000000000004
1698924425506.0,16,-0.1,0.0,0.0,-0.1,9.4,1.3,-0.4,-0.1,0.30000000000000004
1698924425522.0,16,-0.1,0.0,0.0,-0.1,9.5,1.3,-0.5,-0.6000000000000001,0.2
1698924425539.0,16,0.0,0.0,0.0,0.0,9.4,1.3,-0.6000000000000001,-0.7,0.30000000000000004
1698924425555.0,16,0.0,0.0,0.1,0.0,9.4,1.3,-0.8,-0.5,0.4
1698924425572.0,16,0.0,0.0,0.0,0.0,9.4,1.3,-0.7,-0.30000000000000004,0.30000000000000004
1698924425590.0,16,0.0,0.0,0.1,0.0,9.4,1.3,-0.7,-0.1,0.30000000000000004
1698924425606.0,16,-0.1,0.0,0.0,-0.1,9.4,1.3,-0.7,0.1,0.8
1698924425622.0,16,0.0,0.0,0.0,-0.1,9.5,1.3,-1.2000000000000002,0.1,0.8
1698924425639.0,16,0.0,0.1,0.0,0.0,9.5,1.3,-1.5000000000000002,0.6000000000000001,0.6000000000000001
1698924425656.0,16,0.1,0.0,0.1,0.1,9.4,1.4000000000000001,-1.5000000000000002,4.0,0.8
1698924425672.0,16,0.1,-0.1,0.1,0.1,9.3,1.4000000000000001,-0.8,4.2,1.3
1698924425689.0,16,0.1,0.0,0.1,0.1,9.4,1.4000000000000001,-0.30000000000000004,4.300000000000001,1.3
1698924425706.0,16,0.1,0.0,0.0,0.1,9.4,1.3,-0.5,5.6,1.0999999999999999
1698924425722.0,16,0.1,-0.1,-0.1,0.1,9.3,1.3,-1.3,5.8,0.5
1698924425739.0,16,0.1,-0.1,-0.1,0.1,9.3,1.2000000000000002,-1.7,5.4,0.4
1698924425756.0,16,0.0,-0.1,0.0,0.0,9.3,1.3,-1.9,4.2,1.2000000000000002
1698924425773.0,16,-0.1,-0.1,0.0,-0.1,9.3,1.3,-1.0,2.6,2.1
1698924425789.0,16,-0.2,0.0,0.1,-0.2,9.4,1.4000000000000001,-0.30000000000000004,1.6,2.0
1698924425807.0,16,-0.2,0.0,0.1,-0.2,9.3,1.4000000000000001,2.1,0.0,1.4
1698924425822.0,16,-0.1,-0.1,0.1,-0.1,9.3,1.4000000000000001,4.1000000000000005,-2.0,-0.1
1698924425839.0,16,-0.1,-0.1,0.1,-0.1,9.3,1.4000000000000001,5.0,-3.2,-1.0999999999999999
1698924425855.0,16,-0.1,-0.1,0.2,-0.1,9.3,1.5,5.4,-5.2,-0.8
1698924425872.0,16,-0.1,0.1,0.1,-0.1,9.5,1.4000000000000001,4.6000000000000005,-4.800000000000001,-0.6000000000000001
1698924425889.0,16,0.0,0.1,0.1,0.0,9.5,1.4000000000000001,2.7,-4.800000000000001,-0.6000000000000001
1698924425905.0,16,0.0,0.1,0.0,0.0,9.5,1.3,1.6,-4.3999999999999995,-0.7
1698924425923.0,16,0.0,0.0,-0.1,0.0,9.4,1.3,0.1,-4.300000000000001,-0.7
1698924425939.0,16,0.1,0.1,-0.1,0.0,9.5,1.1,-2.6,-4.2,-0.7
1698924425956.0,16,0.1,0.1,-0.1,0.0,9.5,1.2000000000000002,-4.5,-3.4,-0.6000000000000001
1698924425973.0,16,0.1,0.1,-0.2,0.0,9.5,1.1,-4.300000000000001,-2.6,-0.30000000000000004
1698924425990.0,16,0.0,0.1,-0.2,0.0,9.5,1.1,-2.7,-2.5,0.0
1698924426006.0,16,0.0,0.1,-0.2,0.0,9.5,1.1,-1.7,-2.4000000000000004,0.1
1698924426024.0,16,0.0,0.0,-0.2,0.0,9.4,1.1,-0.4,-2.1,0.30000000000000004
1698924426039.0,16,0.0,0.0,-0.1,0.0,9.4,1.1,1.9,-1.5000000000000002,0.8
1698924426056.0,16,0.0,0.1,-0.1,0.0,9.5,1.2000000000000002,3.9,-1.3,1.0999999999999999
1698924426072.0,16,0.0,0.1,0.0,0.0,9.600000000000001,1.2000000000000002,4.9,-2.0,1.0999999999999999
1698924426090.0,16,0.0,0.1,0.0,0.0,9.5,1.2000000000000002,5.0,-2.3000000000000003,1.2000000000000002
1698924426106.0,16,-0.1,0.0,0.0,-0.1,9.5,1.2000000000000002,4.6000000000000005,-2.1999999999999997,1.2000000000000002
1698924426122.0,16,0.0,0.0,0.0,-0.1,9.5,1.3,3.5,-2.4000000000000004,0.7
1698924426139.0,16,0.0,0.0,0.1,0.0,9.5,1.3,2.8,-2.1,0.30000000000000004
1698924426156.0,16,0.1,0.0,0.1,0.1,9.5,1.3,1.3,-1.0999999999999999,-0.1
1698924426172.0,16,0.0,0.0,0.1,0.0,9.5,1.3,-0.2,-1.2000000000000002,-0.4
1698924426189.0,16,0.0,-0.1,0.0,0.1,9.3,1.2000000000000002,-1.5000000000000002,-0.1,0.9
1698924426206.0,16,0.0,-0.1,0.0,0.1,9.4,1.2000000000000002,-2.3000000000000003,0.5,0.9
1698924426222.0,16,0.0,0.0,0.0,0.0,9.4,1.2000000000000002,-2.1999999999999997,1.2000000000000002,1.0999999999999999
1698924426240.0,16,0.0,0.0,0.0,0.0,9.4,1.2000000000000002,-1.9,1.0999999999999999,1.2000000000000002
1698924426255.0,16,0.0,-0.1,0.0,0.0,9.4,1.2000000000000002,-0.1,0.7,0.8
1698924426272.0,16,0.0,0.0,0.0,0.0,9.4,1.2000000000000002,0.5,-0.1,0.7
1698924426289.0,16,0.0,0.0,0.0,0.1,9.4,1.2000000000000002,1.6,0.30000000000000004,1.0999999999999999
1698924426305.0,16,0.0,0.0,0.0,0.1,9.4,1.2000000000000002,1.8,0.5,1.0999999999999999
1698924426322.0,16,0.0,0.0,0.1,0.1,9.4,1.3,2.5,0.2,0.30000000000000004
1698924426339.0,16,0.0,0.0,0.1,0.0,9.4,1.3,2.8,0.4,0.5
1698924426356.0,16,0.0,-0.1,0.1,0.0,9.4,1.3,2.7,0.6000000000000001,0.6000000000000001
1698924426372.0,16,0.1,-0.1,0.0,0.1,9.3,1.3,1.6,0.5,0.5
1698924426390.0,16,0.1,-0.1,0.1,0.1,9.3,1.3,0.30000000000000004,1.0,0.6000000000000001
1698924426406.0,16,0.0,0.0,0.0,0.1,9.4,1.2000000000000002,-0.2,1.0,0.6000000000000001
1698924426423.0,16,0.0,0.0,0.0,0.0,9.4,1.2000000000000002,-1.0999999999999999,0.7,0.5
1698924426439.0,16,0.0,0.0,-0.1,0.0,9.4,1.2000000000000002,-1.2000000000000002,0.7,0.30000000000000004
1698924426456.0,16,0.0,0.0,-0.1,0.0,9.4,1.1,-1.2000000000000002,0.5,0.30000000000000004
1698924426472.0,16,0.0,0.1,0.0,0.0,9.5,1.2000000000000002,-0.8,-0.1,0.30000000000000004
1698924426488.0,16,0.0,0.0,-0.1,0.0,9.5,1.2000000000000002,0.1,-0.30000000000000004,0.2
1698924426505.0,16,0.0,0.0,-0.1,0.1,9.4,1.1,0.4,-0.2,0.1
1698924426522.0,16,0.0,0.0,-0.1,0.1,9.4,1.2000000000000002,0.8,-0.4,-0.2
1698924426538.0,16,0.0,0.0,0.0,0.0,9.5,1.2000000000000002,1.0999999999999999,-0.4,-0.2
1698924426556.0,16,0.0,0.1,0.0,0.0,9.5,1.2000000000000002,1.2000000000000002,-0.30000000000000004,-0.2
1698924426573.0,16,0.0,0.0,0.0,0.0,9.4,1.2000000000000002,1.0999999999999999,-0.4,-0.2
1698924426590.0,16,0.0,0.0,0.0,0.0,9.4,1.2000000000000002,0.6000000000000001,-0.5,0.0
1698924426606.0,16,0.0,0.0,0.0,0.0,9.4,1.2000000000000002,0.0,-0.2,0.0
1698924426623.0,16,0.0,0.0,0.0,0.0,9.4,1.2000000000000002,-0.30000000000000004,-0.4,0.1
1698924426639.0,16,0.0,0.0,0.0,0.0,9.5,1.2000000000000002,-0.7,-0.4,0.1
1698924426655.0,16,0.0,0.0,0.0,0.0,9.5,1.2000000000000002,-1.0999999999999999,-0.4,0.1
1698924426672.0,16,0.0,0.0,0.0,0.0,9.4,1.2000000000000002,-0.8,-0.2,0.30000000000000004
1698924426689.0,16,0.0,0.0,0.0,0.1,9.4,1.2000000000000002,-0.6000000000000001,-0.1,0.30000000000000004
1698924426706.0,16,0.0,0.0,0.0,0.1,9.4,1.2000000000000002,-0.4,-0.1,0.1
1698924426724.0,16,0.0,0.0,0.0,0.1,9.4,1.2000000000000002,0.1,-0.1,0.0
1698924426739.0,16,0.0,0.0,0.0,0.1,9.4,1.2000000000000002,0.5,-0.4,-0.2
1698924426756.0,16,0.0,0.0,0.0,0.0,9.4,1.2000000000000002,1.0,-0.1,0.0
1698924426773.0,16,0.0,0.0,0.0,0.1,9.4,1.2000000000000002,1.0,-0.1,-0.1
1698924426790.0,16,0.0,0.0,0.1,0.1,9.4,1.3,0.8,0.2,-0.30000000000000004
1698924426806.0,16,0.0,0.0,0.1,0.0,9.5,1.3,0.8,0.5,-0.2
1698924426823.0,16,0.0,0.0,0.0,0.1,9.4,1.2000000000000002,0.8,0.7,0.30000000000000004
1698924426839.0,16,0.0,-0.1,0.0,0.1,9.4,1.2000000000000002,0.5,0.9,0.0
1698924426855.0,16,0.0,-0.1,-0.1,0.1,9.4,1.2000000000000002,0.2,1.3,0.1
1698924426872.0,16,0.0,0.0,0.0,0.0,9.4,1.2000000000000002,-0.30000000000000004,1.2000000000000002,0.2
1698924426889.0,16,0.0,0.0,0.0,0.0,9.4,1.2000000000000002,-0.6000000000000001,0.8,0.0
1698924426906.0,16,0.0,0.0,0.0,0.0,9.5,1.2000000000000002,-0.6000000000000001,0.4,0.0
1698924426922.0,16,0.0,0.1,0.0,0.1,9.5,1.2000000000000002,-0.4,-0.1,0.0
1698924426939.0,16,0.0,0.1,0.0,0.0,9.5,1.2000000000000002,0.4,-0.1,-1.2000000000000002
1698924426955.0,16,0.0,-0.1,0.0,0.0,9.3,1.2000000000000002,1.2000000000000002,0.7,0.1
1698924426972.0,16,0.0,-0.1,0.0,0.0,9.4,1.2000000000000002,1.3,1.0,0.5
1698924426990.0,16,-0.1,-0.1,0.0,0.0,9.4,1.2000000000000002,1.8,-0.2,0.7
1698924427006.0,16,0.0,-0.1,0.0,0.0,9.4,1.2000000000000002,1.6,-0.2,0.6000000000000001
1698924427024.0,16,0.0,0.0,0.0,0.0,9.4,1.2000000000000002,1.0999999999999999,0.2,0.2
1698924427039.0,16,0.0,0.0,0.0,0.0,9.5,1.2000000000000002,1.0999999999999999,0.0,0.30000000000000004
1698924427055.0,16,0.0,0.0,0.0,0.1,9.4,1.2000000000000002,0.6000000000000001,-0.4,0.30000000000000004
1698924427073.0,16,0.0,0.0,0.0,0.1,9.4,1.2000000000000002,0.4,-0.30000000000000004,0.4
1698924427089.0,16,0.0,0.0,0.0,0.1,9.4,1.1,0.0,-0.1,0.2
1698924427106.0,16,0.0,0.0,0.0,0.0,9.4,1.2000000000000002,-0.30000000000000004,-0.1,0.30000000000000004
1698924427123.0,16,0.0,0.0,0.0,0.1,9.4,1.1,-0.4,-0.2,0.30000000000000004
1698924427139.0,16,0.0,0.0,-0.1,0.1,9.4,1.1,0.0,-0.30000000000000004,0.1
1698924427156.0,16,0.0,0.0,0.0,0.1,9.4,1.2000000000000002,0.6000000000000001,-0.1,0.1
1698924427172.0,16,0.1,0.0,0.0,0.1,9.4,1.2000000000000002,1.0,0.0,0.30000000000000004
1698924427189.0,16,0.0,0.0,0.0,0.1,9.5,1.1,1.6,0.6000000000000001,0.30000000000000004
1698924427206.0,16,0.0,0.1,0.0,0.1,9.5,1.2000000000000002,1.7,0.9,0.30000000000000004
1698924427222.0,16,0.0,0.0,0.0,0.1,9.4,1.1,1.6,0.6000000000000001,0.0
1698924427239.0,16,0.0,0.0,0.0,0.1,9.5,1.2000000000000002,1.3,0.4,0.1
1698924427256.0,16,0.0,0.0,0.0,0.1,9.5,1.1,1.0,0.2,0.1
1698924427273.0,16,0.0,0.0,0.0,0.0,9.4,1.1,0.1,0.8,0.30000000000000004
1698924427290.0,16,-0.1,0.0,0.0,0.0,9.4,1.2000000000000002,-0.30000000000000004,0.9,0.2
1698924427306.0,16,0.0,0.0,0.0,0.0,9.5,1.1,-0.30000000000000004,0.1,0.0
1698924427322.0,16,0.0,0.0,0.0,0.0,9.5,1.1,-0.4,-0.2,-0.2
1698924427339.0,16,0.0,0.0,0.0,0.0,9.5,1.1,-0.4,0.0,0.0
1698924427355.0,16,0.0,0.0,0.0,0.0,9.5,1.2000000000000002,-0.1,0.4,0.1
1698924427372.0,16,0.0,0.0,0.0,0.0,9.4,1.2000000000000002,0.1,-0.1,0.1
1698924427389.0,16,0.0,0.0,0.0,0.0,9.5,1.1,0.5,-0.9,0.0
1698924427407.0,16,0.0,0.0,0.0,0.0,9.4,1.2000000000000002,0.6000000000000001,-0.4,0.30000000000000004
1698924427422.0,16,0.0,0.0,0.0,0.1,9.5,1.2000000000000002,0.6000000000000001,-0.30000000000000004,0.5
1698924427439.0,16,0.0,-0.1,0.0,0.1,9.4,1.2000000000000002,0.4,0.2,1.0999999999999999
1698924427456.0,16,0.0,0.0,0.0,0.0,9.4,1.2000000000000002,0.5,0.5,1.0999999999999999
1698924427472.0,16,0.0,0.1,0.0,0.0,9.600000000000001,1.2000000000000002,1.4,0.0,-2.0
1698924427489.0,16,-0.1,-0.2,0.0,-0.1,9.3,1.1,1.8,-0.2,-2.3000000000000003
1698924427505.0,16,0.0,-0.1,0.0,0.1,9.3,1.1,1.0999999999999999,1.6,-0.30000000000000004
1698924427523.0,16,0.0,-0.1,0.0,0.1,9.4,1.1,1.2000000000000002,0.9,0.1
1698924427539.0,16,0.0,0.1,0.0,0.0,9.5,1.1,1.0999999999999999,-0.30000000000000004,0.5
1698924427556.0,16,0.0,0.0,0.0,0.0,9.5,1.1,0.7,-0.2,0.6000000000000001
1698924427572.0,16,0.0,-0.1,0.0,0.1,9.4,1.1,0.2,-0.1,0.2
1698924427589.0,16,0.0,-0.1,0.0,0.1,9.3,1.1,0.2,0.0,-0.1
1698924427606.0,16,0.1,0.0,0.0,0.1,9.4,1.1,0.30000000000000004,-0.2,0.4
1698924427622.0,16,0.0,-0.1,0.0,0.1,9.3,1.1,0.8,0.0,1.0
1698924427640.0,16,0.0,-0.1,0.0,0.1,9.3,1.1,1.0999999999999999,0.30000000000000004,1.0999999999999999
1698924427655.0,16,0.0,0.0,0.0,0.1,9.4,1.2000000000000002,1.6,-0.1,0.7
1698924427672.0,16,0.0,0.0,0.0,0.1,9.4,1.1,2.1999999999999997,-0.1,0.6000000000000001
1698924427689.0,16,0.1,0.0,0.0,0.1,9.4,1.1,2.7,-0.2,0.2
1698924427706.0,16,0.1,0.0,0.0,0.1,9.4,1.1,2.1999999999999997,0.30000000000000004,0.30000000000000004
1698924427724.0,16,0.0,0.0,0.0,0.1,9.4,1.1,1.8,0.6000000000000001,0.2
1698924427739.0,16,0.0,0.0,0.0,0.1,9.4,1.1,0.9,0.9,0.30000000000000004
1698924427756.0,16,0.0,0.0,0.0,0.1,9.5,1.1,-0.1,0.5,0.1
1698924427772.0,16,0.0,0.0,0.0,0.1,9.5,1.1,-0.9,0.5,-0.2
1698924427789.0,16,0.0,0.0,0.0,0.1,9.5,1.1,-1.2000000000000002,0.9,0.0
1698924427805.0,16,0.0,0.1,0.0,0.0,9.5,1.1,-1.2000000000000002,0.7,0.1
1698924427822.0,16,-0.1,0.1,-0.1,0.0,9.5,1.0,-0.6000000000000001,0.0,-0.30000000000000004
1698924427839.0,16,-0.1,0.0,-0.1,0.0,9.5,1.0,-0.30000000000000004,0.0,-0.5
1698924427856.0,16,0.0,0.0,-0.1,0.1,9.5,1.0,0.8,-0.5,-0.8
1698924427872.0,16,0.0,0.1,0.0,0.0,9.5,1.0,1.3,-0.6000000000000001,-0.6000000000000001
1698924427889.0,16,0.0,0.0,0.0,0.1,9.5,1.0,1.8,-0.7,-0.4
1698924427908.0,16,0.0,0.0,0.0,0.0,9.5,1.1,2.1,-0.7,-0.30000000000000004
1698924427922.0,16,0.0,0.0,0.0,0.1,9.4,1.1,1.9,-1.0,-0.4
1698924427939.0,16,0.0,0.0,0.0,0.0,9.4,1.1,1.7,-1.0999999999999999,-0.5
1698924427956.0,16,0.0,0.0,0.0,0.0,9.5,1.0,1.0,-0.7,-0.5
1698924427974.0,16,0.0,0.0,0.0,0.1,9.4,1.1,0.2,-1.0,-0.7
1698924427989.0,16,0.0,0.0,0.0,0.1,9.4,1.1,0.2,-0.8,-0.7
1698924428006.0,16,0.0,0.1,-0.1,0.1,9.5,1.0,0.0,-1.4,-0.7
1698924428022.0,16,0.1,0.1,0.1,0.1,9.5,1.1,-1.3,-2.1999999999999997,-1.0999999999999999
1698924428039.0,16,0.1,0.2,-0.1,0.1,9.600000000000001,1.1,-1.4,-1.2000000000000002,-1.2000000000000002
1698924428057.0,16,0.0,0.30000000000000004,0.0,0.1,9.700000000000001,1.1,-2.1999999999999997,-1.3,-1.3
1698924428072.0,16,0.0,0.30000000000000004,-0.1,0.1,9.700000000000001,1.0,-2.6,-0.1,-1.0
1698924428088.0,16,0.0,0.2,-0.1,0.1,9.700000000000001,1.0,-5.0,-0.2,-1.3
1698924428105.0,16,0.0,0.2,0.0,0.1,9.700000000000001,1.1,-5.6,0.4,-1.6
1698924428122.0,16,0.0,0.2,-0.2,0.0,9.700000000000001,0.9,-7.8,0.0,-1.7
1698924428138.0,16,-0.1,0.2,-0.2,0.0,9.700000000000001,1.0,-9.8,-0.5,-1.3
1698924428155.0,16,0.0,0.1,-0.30000000000000004,0.0,9.700000000000001,0.8,-10.9,-0.7,-1.6
1698924428172.0,16,0.0,0.2,-0.30000000000000004,0.0,9.700000000000001,0.8,-14.500000000000002,-1.5000000000000002,-3.3000000000000003
1698924428188.0,16,0.0,0.4,-0.30000000000000004,0.1,9.9,0.9,-16.1,-1.2000000000000002,-3.3000000000000003
1698924428205.0,16,0.0,0.5,-0.30000000000000004,0.0,10.0,0.9,-16.700000000000003,-1.3,-2.9
1698924428222.0,16,0.1,0.4,-0.30000000000000004,0.1,9.9,0.9,-17.200000000000003,-1.3,-2.5
1698924428238.0,16,0.0,0.30000000000000004,-0.4,0.0,9.9,0.9,-18.8,-1.8,-3.3000000000000003
1698924428255.0,16,0.0,0.4,-0.30000000000000004,0.0,9.9,1.1,-19.6,-1.6,-3.6
1698924428272.0,16,-0.1,0.5,-0.30000000000000004,-0.1,10.100000000000001,1.1,-20.3,-3.1,-5.300000000000001
1698924428288.0,16,0.0,0.5,-0.30000000000000004,0.0,10.100000000000001,1.2000000000000002,-21.700000000000003,-1.2000000000000002,-6.000000000000001
1698924428305.0,16,0.0,0.5,-0.30000000000000004,0.0,10.100000000000001,1.2000000000000002,-23.3,-1.9,-6.3
1698924428322.0,16,0.1,0.4,-0.2,0.1,9.9,1.4000000000000001,-26.700000000000003,-1.2000000000000002,-7.6
1698924428338.0,16,0.1,0.4,-0.30000000000000004,0.0,9.9,1.4000000000000001,-32.0,-2.0,-9.1
1698924428355.0,16,0.1,0.6000000000000001,-0.4,-0.1,10.200000000000001,1.3,-39.1,-3.2,-10.8
1698924428373.0,16,0.0,0.7000000000000001,-0.5,-0.1,10.3,1.3,-43.400000000000006,-3.7000000000000006,-11.700000000000001
1698924428388.0,16,0.1,1.0,-0.6000000000000001,-0.1,10.5,1.4000000000000001,-52.6,-4.1000000000000005,-12.3
1698924428406.0,16,0.1,1.1,-0.5,-0.1,10.600000000000001,1.6,-56.800000000000004,-4.5,-12.200000000000001
1698924428422.0,16,0.1,1.2000000000000002,-1.0,-0.1,10.600000000000001,1.3,-63.4,-3.4,-12.5
1698924428439.0,16,0.0,0.9,-1.1,-0.30000000000000004,10.3,1.5,-72.0,-3.5,-12.8
1698924428455.0,16,-0.1,0.8,-1.3,-0.4,10.200000000000001,1.4000000000000001,-75.4,-2.9,-13.200000000000001
1698924428472.0,16,-0.1,1.0,-1.7000000000000002,-0.4,10.200000000000001,1.2000000000000002,-82.4,-4.6000000000000005,-15.399999999999999
1698924428488.0,16,0.1,1.0,-1.8,-0.30000000000000004,10.200000000000001,1.3,-90.30000000000001,-0.1,-16.3
1698924428505.0,16,0.30000000000000004,1.0,-2.0,-0.2,10.100000000000001,1.4000000000000001,-93.80000000000001,3.4,-13.6
1698924428524.0,16,0.30000000000000004,1.1,-1.9000000000000001,-0.2,10.200000000000001,1.6,-94.7,4.7,-11.3
1698924428539.0,16,0.1,1.1,-1.7000000000000002,-0.4,10.100000000000001,2.1,-93.4,7.1000000000000005,-6.4
1698924428555.0,16,0.1,1.3,-1.4000000000000001,-0.4,10.200000000000001,2.6,-89.7,3.1,-6.2
1698924428572.0,16,0.1,1.4000000000000001,-0.9,-0.4,10.100000000000001,3.3000000000000003,-79.3,-1.6,-8.5
1698924428588.0,16,0.4,1.0,-0.2,-0.2,9.700000000000001,4.2,-70.2,-0.1,-9.5
1698924428605.0,16,0.5,1.0,0.1,-0.1,9.700000000000001,4.7,-65.3,0.2,-9.4
1698924428622.0,16,0.5,1.2000000000000002,0.8,-0.1,9.700000000000001,5.5,-56.800000000000004,4.5,-9.3
1698924428639.0,16,0.5,1.1,1.3,-0.1,9.600000000000001,6.2,-56.5,8.200000000000001,-8.799999999999999
1698924428655.0,16,0.4,0.8,1.6,-0.30000000000000004,9.200000000000001,6.6000000000000005,-62.50000000000001,9.9,-8.600000000000001
1698924428672.0,16,0.0,0.2,1.7000000000000002,-0.6000000000000001,8.5,6.9,-81.0,11.700000000000001,-8.0
1698924428689.0,16,0.0,0.2,1.5,-0.7000000000000001,8.3,7.0,-95.4,20.8,-13.0
1698924428705.0,16,0.0,0.2,1.0,-0.9,8.1,6.800000000000001,-88.9,20.8,-15.100000000000001
1698924428722.0,16,-0.2,0.0,0.9,-1.0,7.800000000000001,6.800000000000001,-80.5,20.2,-13.100000000000001
1698924428738.0,16,0.1,-0.7000000000000001,0.6000000000000001,-0.9,7.0,6.6000000000000005,-57.9,23.400000000000002,-6.4
1698924428755.0,16,0.1,-1.4000000000000001,0.5,-0.9,6.300000000000001,6.6000000000000005,-46.2,22.900000000000002,-3.9
1698924428772.0,16,-0.1,-2.4000000000000004,0.30000000000000004,-1.1,5.2,6.5,-26.9,17.0,1.4
1698924428789.0,16,-0.1,-2.4000000000000004,0.5,-1.1,5.1000000000000005,6.7,-18.3,14.0,3.7000000000000006
1698924428805.0,16,-0.1,-2.0,0.7000000000000001,-1.1,5.5,6.9,-17.0,10.9,3.2
1698924428822.0,16,-0.2,-0.9,1.0,-1.2000000000000002,6.5,7.300000000000001,-16.5,5.9,4.7
1698924428839.0,16,-0.2,-0.4,1.0,-1.3,7.0,7.300000000000001,-13.6,5.300000000000001,9.1
1698924428855.0,16,-0.2,-0.1,1.0,-1.2000000000000002,7.2,7.4,-10.4,3.5,10.0
1698924428872.0,16,-0.4,0.2,1.2000000000000002,-1.4000000000000001,7.6000000000000005,7.5,-3.3000000000000003,0.5,10.4
1698924428889.0,16,-0.5,0.30000000000000004,1.4000000000000001,-1.5,7.7,7.800000000000001,0.30000000000000004,1.0,10.4
1698924428906.0,16,-0.4,0.4,1.7000000000000002,-1.4000000000000001,7.7,8.1,0.2,2.1,8.1
1698924428922.0,16,-0.4,0.4,1.6,-1.4000000000000001,7.7,8.0,-0.6000000000000001,1.9,6.9
1698924428939.0,16,-0.30000000000000004,0.1,1.6,-1.3,7.5,8.0,-2.1999999999999997,2.7,5.8
1698924428955.0,16,-0.30000000000000004,-0.1,1.4000000000000001,-1.2000000000000002,7.4,7.9,-1.6,3.4,5.1
1698924428972.0,16,-0.2,-0.1,1.3,-1.1,7.300000000000001,7.7,3.4,3.4,4.2
1698924428989.0,16,0.0,-0.1,1.2000000000000002,-1.0,7.300000000000001,7.6000000000000005,7.9,2.3000000000000003,3.8
1698924429005.0,16,-0.2,-0.1,1.1,-1.2000000000000002,7.4,7.5,11.6,2.5,5.8
1698924429022.0,16,-0.30000000000000004,-0.1,1.0,-1.3,7.300000000000001,7.4,12.5,3.1,7.0
1698924429039.0,16,-0.4,-0.4,0.7000000000000001,-1.3,7.1000000000000005,7.1000000000000005,13.9,2.1,8.4
1698924429055.0,16,-0.4,-0.6000000000000001,0.5,-1.3,6.9,6.800000000000001,15.7,-0.4,7.8
1698924429072.0,16,-0.30000000000000004,-0.6000000000000001,0.4,-1.2000000000000002,6.9,6.7,16.900000000000002,-1.2000000000000002,7.6
1698924429089.0,16,-0.30000000000000004,-0.5,0.4,-1.2000000000000002,7.1000000000000005,6.7,20.7,-1.2000000000000002,7.6
1698924429105.0,16,-0.1,-0.5,0.4,-1.0,7.2,6.6000000000000005,25.1,-3.2,7.699999999999999
1698924429122.0,16,-0.1,-0.5,0.4,-0.9,7.1000000000000005,6.5,25.900000000000002,-4.300000000000001,7.500000000000001
1698924429139.0,16,-0.1,-0.8,0.30000000000000004,-0.9,6.9,6.5,26.700000000000003,-4.1000000000000005,8.1
1698924429155.0,16,-0.1,-1.1,0.2,-0.9,6.6000000000000005,6.300000000000001,28.400000000000002,-3.1,9.1
1698924429172.0,16,-0.2,-1.2000000000000002,0.1,-0.9,6.6000000000000005,6.1000000000000005,29.600000000000005,-3.1,9.4
1698924429188.0,16,-0.2,-1.2000000000000002,-0.1,-0.9,6.6000000000000005,5.800000000000001,33.1,-2.7,9.5
1698924429207.0,16,-0.2,-1.3,-0.1,-0.9,6.6000000000000005,5.7,35.7,-3.4,8.3
1698924429222.0,16,-0.2,-1.4000000000000001,-0.2,-0.9,6.5,5.6000000000000005,37.800000000000004,-3.4,8.200000000000001
1698924429239.0,16,-0.2,-1.6,-0.5,-0.8,6.4,5.1000000000000005,40.9,-6.2,7.9
1698924429255.0,16,-0.30000000000000004,-1.8,-0.5,-0.9,6.300000000000001,5.0,42.400000000000006,-6.000000000000001,8.1
1698924429272.0,16,-0.30000000000000004,-1.9000000000000001,-0.5,-0.9,6.2,4.9,44.2,-5.1,8.600000000000001
1698924429289.0,16,-0.30000000000000004,-2.0,-0.7000000000000001,-0.9,6.2,4.7,48.400000000000006,-5.7,9.0
1698924429305.0,16,-0.30000000000000004,-2.2,-0.6000000000000001,-0.8,6.0,4.6000000000000005,52.2,-5.8,8.4
1698924429322.0,16,-0.2,-2.3000000000000003,-0.6000000000000001,-0.8,6.0,4.5,55.0,-5.500000000000001,8.0
1698924429339.0,16,-0.1,-2.3000000000000003,-0.6000000000000001,-0.6000000000000001,6.1000000000000005,4.3,60.7,-7.400000000000001,6.7
1698924429355.0,16,0.0,-2.3000000000000003,-0.7000000000000001,-0.5,6.2,4.0,64.7,-8.1,6.7
1698924429372.0,16,0.0,-2.3000000000000003,-0.9,-0.4,6.2,3.6,64.7,-9.700000000000001,7.6
1698924429389.0,16,0.0,-2.3000000000000003,-0.8,-0.4,6.300000000000001,3.7,64.0,-8.9,8.1
1698924429406.0,16,0.0,-2.3000000000000003,-0.7000000000000001,-0.4,6.4,3.5,65.60000000000001,-4.6000000000000005,9.4
1698924429422.0,16,0.1,-2.4000000000000004,-0.8,-0.30000000000000004,6.300000000000001,3.3000000000000003,65.8,-4.800000000000001,9.8
1698924429439.0,16,0.1,-2.4000000000000004,-0.5,-0.2,6.4,3.4000000000000004,65.5,-6.5,10.2
1698924429455.0,16,0.1,-2.3000000000000003,-0.4,-0.2,6.5,3.3000000000000003,66.4,-7.2,11.000000000000002
1698924429472.0,16,0.0,-2.2,-0.4,-0.2,6.6000000000000005,3.2,65.4,-9.5,11.5
1698924429489.0,16,-0.1,-2.2,-0.4,-0.30000000000000004,6.800000000000001,3.0,64.2,-9.5,11.700000000000001
1698924429505.0,16,-0.2,-2.1,-0.4,-0.4,6.9,2.9000000000000004,61.7,-7.300000000000001,12.000000000000002
1698924429522.0,16,-0.1,-1.7000000000000002,-0.1,-0.30000000000000004,7.300000000000001,2.9000000000000004,59.9,-8.9,11.700000000000001
1698924429539.0,16,-0.1,-1.4000000000000001,-0.1,-0.2,7.6000000000000005,2.8000000000000003,59.400000000000006,-9.700000000000001,11.5
1698924429555.0,16,-0.2,-1.0,0.0,-0.2,8.200000000000001,2.8000000000000003,57.9,-9.3,12.000000000000002
1698924429572.0,16,-0.2,-0.6000000000000001,0.2,-0.2,8.6,2.8000000000000003,56.0,-7.9,12.000000000000002
1698924429589.0,16,-0.2,-0.4,0.2,-0.2,8.8,2.7,55.300000000000004,-8.5,11.2
1698924429605.0,16,-0.1,-0.30000000000000004,0.2,0.0,9.0,2.5,52.400000000000006,-11.2,8.0
1698924429622.0,16,0.0,-0.2,0.1,0.0,9.0,2.3000000000000003,46.2,-10.600000000000001,4.1000000000000005
1698924429639.0,16,-0.1,-0.2,0.0,0.0,9.1,2.1,42.2,-8.5,3.6
1698924429655.0,16,-0.2,-0.2,0.0,-0.1,9.1,2.0,38.400000000000006,-6.2,4.2
1698924429672.0,16,-0.2,-0.1,0.0,0.0,9.200000000000001,1.8,30.100000000000005,-8.200000000000001,6.3
1698924429688.0,16,-0.2,-0.1,0.0,-0.1,9.200000000000001,1.9000000000000001,28.700000000000003,-9.3,6.7
1698924429707.0,16,-0.2,0.2,0.1,-0.1,9.5,1.8,26.700000000000003,-10.1,6.4
1698924429722.0,16,-0.2,0.4,0.0,0.0,9.700000000000001,1.7000000000000002,25.400000000000002,-10.1,4.300000000000001
1698924429738.0,16,-0.2,0.4,0.1,0.0,9.8,1.7000000000000002,24.6,-10.5,2.8
1698924429755.0,16,0.1,0.6000000000000001,0.2,0.2,10.0,1.7000000000000002,23.5,-8.799999999999999,-0.2
1698924429772.0,16,0.2,0.6000000000000001,0.2,0.4,10.0,1.7000000000000002,22.6,-5.9,-2.1
1698924429790.0,16,0.2,0.5,0.2,0.30000000000000004,10.0,1.7000000000000002,22.000000000000004,-4.2,-1.9
1698924429805.0,16,0.1,0.5,0.4,0.30000000000000004,9.9,1.8,21.6,-0.7,1.2000000000000002
1698924429822.0,16,0.0,0.4,0.4,0.2,9.8,1.7000000000000002,22.3,-0.6000000000000001,5.300000000000001
1698924429838.0,16,0.0,0.4,0.4,0.2,9.8,1.7000000000000002,22.1,-4.800000000000001,7.699999999999999
1698924429855.0,16,-0.1,0.4,0.4,0.1,9.8,1.6,21.0,-6.3,7.8
1698924429872.0,16,-0.1,0.30000000000000004,0.4,0.1,9.8,1.6,17.400000000000002,-6.5,5.8
1698924429888.0,16,0.0,0.30000000000000004,0.5,0.2,9.8,1.5,15.399999999999999,-5.9,3.9
1698924429905.0,16,0.0,0.30000000000000004,0.5,0.30000000000000004,9.8,1.7000000000000002,12.200000000000001,-4.5,0.1
1698924429922.0,16,0.1,0.1,0.7000000000000001,0.4,9.700000000000001,1.8,11.700000000000001,-2.1,-1.6
1698924429938.0,16,0.2,0.1,0.7000000000000001,0.4,9.600000000000001,1.8,12.000000000000002,-1.8,-1.0999999999999999
1698924429955.0,16,0.1,0.0,0.5,0.4,9.600000000000001,1.6,10.600000000000001,-1.6,1.2000000000000002
1698924429972.0,16,0.0,0.1,0.2,0.30000000000000004,9.700000000000001,1.3,5.2,0.7,1.6
1698924429988.0,16,0.0,0.2,0.1,0.30000000000000004,9.700000000000001,1.2000000000000002,1.6,0.6000000000000001,0.7
1698924430007.0,16,-0.1,0.30000000000000004,0.0,0.2,9.9,1.2000000000000002,-5.500000000000001,0.0,-1.3
1698924430022.0,16,-0.2,0.30000000000000004,0.1,0.1,9.8,1.3,-11.700000000000001,2.4000000000000004,-1.2000000000000002
1698924430039.0,16,-0.30000000000000004,0.2,0.2,0.0,9.8,1.3,-13.6,4.7,0.0
1698924430055.0,16,-0.4,0.0,0.1,-0.1,9.600000000000001,1.4000000000000001,-14.3,7.9,3.4
1698924430072.0,16,-0.5,-0.30000000000000004,-0.1,-0.2,9.3,1.1,-14.800000000000002,9.9,5.4
1698924430088.0,16,-0.5,-0.4,-0.2,-0.2,9.200000000000001,1.1,-15.399999999999999,10.5,5.1
1698924430105.0,16,-0.4,-0.5,-0.30000000000000004,-0.1,9.0,1.0,-16.1,9.0,3.2
1698924430122.0,16,-0.5,-0.5,-0.4,-0.2,9.0,1.0,-15.6,3.4,1.6
1698924430139.0,16,-0.5,-0.5,-0.30000000000000004,-0.2,9.1,1.1,-15.000000000000002,1.5000000000000002,1.4
1698924430155.0,16,-0.7000000000000001,-0.2,-0.2,-0.4,9.3,1.3,-12.000000000000002,0.2,1.2000000000000002
1698924430172.0,16,-0.8,0.1,0.1,-0.5,9.600000000000001,1.6,-6.2,1.0,0.0
1698924430189.0,16,-0.7000000000000001,0.2,0.2,-0.30000000000000004,9.9,1.7000000000000002,2.1999999999999997,2.9,-2.8
1698924430205.0,16,-0.5,0.5,0.2,-0.2,10.0,1.7000000000000002,6.6000000000000005,2.3000000000000003,-3.8
1698924430222.0,16,-0.1,0.1,-0.1,0.1,9.600000000000001,1.4000000000000001,11.9,-2.4000000000000004,-4.1000000000000005
1698924430238.0,16,0.1,-0.4,-0.30000000000000004,0.2,9.4,1.2000000000000002,11.700000000000001,-5.6,-4.5
1698924430256.0,16,0.30000000000000004,-0.5,-0.4,0.5,9.0,1.0,6.5,-12.5,-6.1000000000000005
1698924430272.0,16,0.7000000000000001,-0.6000000000000001,-0.7000000000000001,0.9,8.9,0.7000000000000001,-3.5,-18.7,-10.4
1698924430288.0,16,0.8,-0.4,-1.1,0.9,9.1,0.4,-18.8,-19.8,-15.399999999999999
1698924430306.0,16,0.7000000000000001,-0.1,-1.1,0.9,9.4,0.30000000000000004,-27.7,-18.8,-16.6
1698924430322.0,16,0.4,0.8,-1.1,0.5,10.3,0.4,-44.00000000000001,-13.4,-16.1
1698924430339.0,16,0.4,1.6,-1.1,0.5,11.0,0.7000000000000001,-53.7,-8.1,-12.100000000000001
1698924430355.0,16,0.6000000000000001,1.5,-1.2000000000000002,0.6000000000000001,11.0,0.6000000000000001,-55.4,-7.699999999999999,-9.9
1698924430372.0,16,1.0,0.8,-1.0,1.0,10.200000000000001,1.0,-53.1,-13.5,-6.1000000000000005
1698924430388.0,16,1.1,-0.2,-1.1,1.1,9.200000000000001,1.0,-42.300000000000004,-13.5,-0.7
1698924430405.0,16,1.1,-0.5,-1.3,1.2000000000000002,8.9,0.9,-37.6,-9.9,1.8
1698924430422.0,16,0.9,-0.6000000000000001,-1.4000000000000001,1.0,8.8,0.9,-29.1,-3.9,4.7
1698924430439.0,16,0.8,-0.30000000000000004,-1.1,0.9,9.0,1.2000000000000002,-16.6,-7.6,4.800000000000001
1698924430456.0,16,0.7000000000000001,-0.30000000000000004,-1.1,0.9,9.0,1.3,-9.0,-8.9,4.5
1698924430472.0,16,0.6000000000000001,-0.30000000000000004,-1.3,0.8,9.0,1.0,3.1,-4.7,4.0
1698924430489.0,16,0.7000000000000001,-0.5,-1.3,0.9,8.9,1.0,8.5,3.2,2.0
1698924430505.0,16,0.7000000000000001,-0.4,-1.2000000000000002,0.9,8.9,1.1,10.3,5.7,0.7
1698924430524.0,16,0.9,-0.2,-1.1,1.1,9.1,1.2000000000000002,13.700000000000001,8.0,-2.4000000000000004
1698924430540.0,16,0.9,-0.1,-1.1,1.1,9.200000000000001,1.1,14.600000000000001,9.3,-2.7
1698924430556.0,16,0.7000000000000001,0.0,-1.2000000000000002,0.9,9.3,0.9,11.3,15.100000000000001,-2.5
1698924430572.0,16,0.5,0.0,-1.1,0.6000000000000001,9.3,1.0,4.300000000000001,20.6,-4.1000000000000005
1698924430589.0,16,0.4,0.0,-1.2000000000000002,0.5,9.3,1.0,-2.7,22.3,-8.1
1698924430606.0,16,0.30000000000000004,0.0,-1.2000000000000002,0.4,9.3,1.0,-6.5,21.400000000000002,-9.700000000000001
1698924430626.0,16,0.30000000000000004,-0.1,-1.3,0.4,9.200000000000001,0.9,-14.900000000000002,16.400000000000002,-9.5
1698924430638.0,16,0.2,-0.1,-1.3,0.30000000000000004,9.3,0.9,-23.8,13.0,-5.500000000000001
1698924430655.0,16,0.2,0.1,-1.2000000000000002,0.2,9.4,1.0,-26.8,11.8,-3.8
1698924430672.0,16,0.2,0.2,-1.4000000000000001,0.2,9.5,0.9,-28.900000000000002,7.400000000000001,-2.7
1698924430689.0,16,0.4,0.2,-1.5,0.30000000000000004,9.5,1.0,-28.8,3.7000000000000006,-2.6
1698924430705.0,16,0.4,0.2,-1.5,0.4,9.4,1.0,-28.200000000000003,3.8,-2.5
1698924430722.0,16,0.7000000000000001,0.30000000000000004,-1.5,0.7000000000000001,9.5,1.0,-25.8,5.9,-2.8
1698924430738.0,16,0.8,0.30000000000000004,-1.6,0.8,9.5,0.9,-23.2,7.8,-2.7
1698924430756.0,16,0.9,0.30000000000000004,-1.6,0.9,9.600000000000001,1.0,-21.700000000000003,10.2,-1.6
1698924430772.0,16,1.1,0.30000000000000004,-1.5,1.0,9.5,1.1,-17.0,13.0,2.0
1698924430790.0,16,1.0,0.0,-1.4000000000000001,1.0,9.200000000000001,1.2000000000000002,-8.600000000000001,9.8,8.700000000000001
1698924430805.0,16,0.9,-0.2,-1.4000000000000001,0.9,9.0,1.3,-4.1000000000000005,7.6,11.700000000000001
1698924430822.0,16,0.9,-0.5,-1.1,0.9,8.700000000000001,1.5,5.4,7.8,13.5
1698924430839.0,16,0.7000000000000001,-0.30000000000000004,-0.9,0.8,8.9,1.7000000000000002,16.5,14.3,10.600000000000001
1698924430856.0,16,0.7000000000000001,0.0,-0.8,0.8,9.200000000000001,1.8,22.000000000000004,17.0,9.0
1698924430874.0,16,0.30000000000000004,1.2000000000000002,0.2,0.4,10.5,2.6,35.4,14.700000000000001,9.5
1698924430889.0,16,-0.6000000000000001,3.6,1.4000000000000001,-0.4,12.9,3.7,60.599999999999994,-10.0,22.5
1698924430907.0,16,-1.1,4.4,1.8,-0.9,13.8,3.9000000000000004,76.1,-30.7,32.9
1698924430922.0,16,-1.6,2.8000000000000003,1.4000000000000001,-1.2000000000000002,12.200000000000001,3.3000000000000003,88.8,-44.2,44.4
1698924430939.0,16,-0.7000000000000001,0.0,0.5,-0.2,9.5,2.1,62.7,-22.5,22.5
1698924430955.0,16,0.2,-0.7000000000000001,0.1,1.3,8.8,1.6,39.400000000000006,-15.000000000000002,0.8
1698924430972.0,16,1.0,-0.1,0.8,1.4000000000000001,9.4,2.3000000000000003,-9.5,-12.200000000000001,-36.7
1698924430989.0,16,1.2000000000000002,0.5,1.3,1.5,9.9,3.0,-30.100000000000005,5.6,-38.7
1698924431006.0,16,0.9,0.30000000000000004,0.9,0.9,9.3,2.5,-28.0,9.1,-20.1
1698924431023.0,16,0.6000000000000001,-0.9,0.7000000000000001,0.8,8.5,2.6,-22.7,4.9,-8.0
1698924431039.0,16,-0.1,-2.1,0.5,0.5,7.800000000000001,2.5,-15.6,4.5,1.6
1698924431056.0,16,-0.4,-2.5,0.5,-0.2,7.0,2.4000000000000004,-1.2000000000000002,11.700000000000001,7.8
1698924431073.0,16,-1.0,-2.6,1.1,-0.8,6.800000000000001,2.9000000000000004,16.900000000000002,9.200000000000001,3.0000000000000004
1698924431089.0,16,-1.3,-2.4000000000000004,1.3,-1.1,7.4,3.3000000000000003,39.00000000000001,-3.0000000000000004,-0.5
1698924431106.0,16,-1.2000000000000002,-1.2000000000000002,1.7000000000000002,-1.0,8.200000000000001,3.3000000000000003,53.6,-7.1000000000000005,-0.1
1698924431122.0,16,-1.1,-0.9,1.7000000000000002,-0.9,8.6,3.2,55.5,-5.1,0.30000000000000004
1698924431139.0,16,-0.8,-0.5,1.4000000000000001,-0.6000000000000001,9.0,2.7,45.4,0.30000000000000004,-1.0999999999999999
1698924431156.0,16,-0.5,-0.1,1.1,-0.5,9.200000000000001,2.5,33.800000000000004,1.4,-2.7
1698924431173.0,16,-0.4,0.0,0.9,-0.2,9.5,2.2,6.000000000000001,-3.1,-4.6000000000000005
1698924431189.0,16,-0.30000000000000004,0.1,0.6000000000000001,-0.1,9.600000000000001,1.9000000000000001,-16.700000000000003,-8.700000000000001,-3.0000000000000004
1698924431206.0,16,-0.4,0.1,0.5,-0.2,9.5,1.9000000000000001,-24.200000000000003,-9.200000000000001,-0.30000000000000004
1698924431223.0,16,-0.7000000000000001,0.1,0.4,-0.5,9.600000000000001,1.9000000000000001,-30.9,-7.1000000000000005,7.2
1698924431239.0,16,-0.9,0.30000000000000004,0.30000000000000004,-0.7000000000000001,9.700000000000001,1.9000000000000001,-27.900000000000002,-6.2,11.1
1698924431257.0,16,-1.0,0.30000000000000004,0.2,-0.8,9.700000000000001,1.8,-18.900000000000002,-7.6,8.9
1698924431274.0,16,-1.0,0.2,0.1,-0.8,9.700000000000001,1.8,-13.3,-8.200000000000001,6.1000000000000005
1698924431288.0,16,-0.8,0.1,0.0,-0.5,9.5,1.7000000000000002,-1.7,-6.6000000000000005,-1.7
1698924431305.0,16,-0.5,-0.2,0.0,-0.30000000000000004,9.200000000000001,1.6,8.1,-0.8,-10.5
1698924431322.0,16,-0.30000000000000004,-0.30000000000000004,0.0,-0.1,9.1,1.6,12.6,1.5000000000000002,-13.4
1698924431339.0,16,-0.2,-0.4,0.0,0.0,9.0,1.6,19.1,2.9,-13.9
1698924431356.0,16,-0.1,-0.4,0.0,0.0,9.1,1.5,21.6,4.3999999999999995,-9.3
1698924431372.0,16,-0.1,-0.30000000000000004,0.0,0.0,9.1,1.4000000000000001,20.900000000000002,4.3999999999999995,-6.7
1698924431388.0,16,-0.4,-0.30000000000000004,-0.30000000000000004,-0.30000000000000004,9.200000000000001,1.2000000000000002,14.500000000000002,3.7000000000000006,-2.6
1698924431405.0,16,-0.6000000000000001,-0.30000000000000004,-0.5,-0.5,9.200000000000001,0.9,1.4,2.7,0.0
1698924431422.0,16,-0.6000000000000001,-0.30000000000000004,-0.5,-0.5,9.200000000000001,0.9,-5.9,1.3,0.7
1698924431439.0,16,-0.5,-0.30000000000000004,-0.5,-0.4,9.1,0.9,-19.1,-0.5,1.0999999999999999
1698924431455.0,16,-0.30000000000000004,-0.4,-0.7000000000000001,-0.2,9.1,0.9,-27.900000000000002,-1.9,1.0999999999999999
1698924431472.0,16,-0.2,-0.4,-0.8,-0.1,9.0,0.8,-31.099999999999998,-2.1,1.7
1698924431489.0,16,0.0,-0.7000000000000001,-1.0,0.1,8.700000000000001,0.7000000000000001,-34.7,-5.8,3.3000000000000003
1698924431507.0,16,0.0,-1.0,-1.2000000000000002,0.1,8.4,0.6000000000000001,-36.6,-11.8,6.2
1698924431523.0,16,-0.1,-1.1,-1.1,0.0,8.200000000000001,0.7000000000000001,-36.7,-13.5,8.3
1698924431539.0,16,-0.4,-1.1,-1.0,-0.2,8.200000000000001,0.9,-34.1,-14.0,12.4
1698924431556.0,16,-0.5,-0.6000000000000001,-1.1,-0.30000000000000004,8.700000000000001,1.0,-26.8,-14.200000000000001,13.6
1698924431572.0,16,-0.5,-0.1,-1.2000000000000002,-0.30000000000000004,8.9,0.9,-19.3,-14.800000000000002,11.6
1698924431588.0,16,-0.4,0.2,-1.2000000000000002,-0.1,9.4,0.9,-16.2,-13.4,9.9
1698924431607.0,16,0.2,0.4,-1.0,0.5,9.700000000000001,1.2000000000000002,-9.200000000000001,-6.5,5.0
1698924431622.0,16,0.9,0.30000000000000004,-0.7000000000000001,1.2000000000000002,9.5,1.4000000000000001,2.1,-2.7,0.8
1698924431639.0,16,0.9,0.2,-0.8,1.3,9.4,1.3,7.699999999999999,-0.9,0.0
1698924431655.0,16,0.6000000000000001,0.30000000000000004,-1.2000000000000002,1.0,9.600000000000001,0.9,13.6,7.1000000000000005,3.4
1698924431672.0,16,0.30000000000000004,0.8,-1.3,0.8,9.8,0.7000000000000001,13.3,8.5,5.7
1698924431689.0,16,0.0,0.9,-1.2000000000000002,0.4,10.200000000000001,0.8,9.0,3.4,8.9
1698924431705.0,16,-0.6000000000000001,1.0,-1.1,-0.2,10.3,0.8,2.3000000000000003,0.1,9.8
1698924431722.0,16,-0.7000000000000001,1.2000000000000002,-0.8,-0.30000000000000004,10.5,1.2000000000000002,-0.9,1.8,8.3
1698924431739.0,16,-0.6000000000000001,1.4000000000000001,-0.6000000000000001,-0.2,10.8,1.4000000000000001,-0.30000000000000004,9.5,-2.5
1698924431755.0,16,-0.5,1.3,-1.3,-0.1,10.700000000000001,0.6000000000000001,-3.6,14.500000000000002,-13.700000000000001
1698924431772.0,16,-0.1,1.4000000000000001,-0.8,0.0,10.700000000000001,0.9,-7.300000000000001,15.100000000000001,-17.599999999999998
1698924431790.0,16,0.0,1.5,-0.7000000000000001,0.30000000000000004,10.9,1.3,-8.0,22.1,-23.700000000000003
1698924431805.0,16,0.30000000000000004,1.8,-0.7000000000000001,0.4,11.100000000000001,1.3,-5.1,25.0,-20.6
1698924431823.0,16,0.1,2.1,-0.30000000000000004,0.4,11.3,1.5,-2.8,24.5,-15.9
1698924431839.0,16,0.0,2.2,0.0,0.0,11.600000000000001,2.1,5.0,27.7,-5.7
1698924431855.0,16,-0.1,2.5,1.0,-0.1,12.0,2.9000000000000004,21.5,28.6,-0.8
1698924431874.0,16,-0.30000000000000004,2.1,1.0,-0.30000000000000004,11.600000000000001,2.8000000000000003,43.1,23.1,-4.1000000000000005
1698924431889.0,16,-0.30000000000000004,1.4000000000000001,0.7000000000000001,-0.30000000000000004,10.9,2.5,48.300000000000004,18.400000000000002,-5.300000000000001
1698924431906.0,16,-0.7000000000000001,-0.2,1.0,-0.7000000000000001,9.3,2.6,47.800000000000004,10.9,-5.1
1698924431922.0,16,-0.8,-1.4000000000000001,1.1,-0.8,8.200000000000001,2.6,39.1,11.1,-3.6
1698924431939.0,16,-0.8,-1.7000000000000002,1.2000000000000002,-0.9,7.800000000000001,2.6,32.6,10.4,-3.1
1698924431955.0,16,-1.1,-2.1,1.1,-1.2000000000000002,7.4,2.5,17.400000000000002,9.200000000000001,-3.9
1698924431972.0,16,-1.1,-2.1,1.4000000000000001,-1.2000000000000002,7.4,2.8000000000000003,4.300000000000001,4.300000000000001,-6.6000000000000005
1698924431989.0,16,-0.9,-1.9000000000000001,1.6,-1.1,7.6000000000000005,3.0,0.7,2.4000000000000004,-8.600000000000001
1698924432006.0,16,-0.30000000000000004,-1.5,1.9000000000000001,-0.5,8.0,3.3000000000000003,0.4,-3.7000000000000006,-12.5
1698924432022.0,16,0.2,-1.0,1.9000000000000001,0.0,8.4,3.2,6.2,-7.2,-13.6
1698924432040.0,16,0.30000000000000004,-1.0,1.6,0.1,8.5,3.0,8.700000000000001,-7.400000000000001,-12.700000000000001
1698924432056.0,16,0.5,-1.0,1.2000000000000002,0.2,8.4,2.6,9.1,-9.1,-7.8
1698924432072.0,16,0.5,-1.0,1.3,0.2,8.4,2.6,7.500000000000001,-9.8,-4.7
1698924432089.0,16,0.5,-0.7000000000000001,1.4000000000000001,0.2,8.700000000000001,2.7,5.7,-10.1,1.0999999999999999
1698924432106.0,16,0.30000000000000004,0.1,1.5,0.0,9.5,2.8000000000000003,7.0,-11.700000000000001,3.4
1698924432123.0,16,0.30000000000000004,0.7000000000000001,1.2000000000000002,0.1,10.200000000000001,2.5,6.9,-8.3,0.6000000000000001
1698924432138.0,16,0.30000000000000004,0.7000000000000001,1.0,0.1,10.100000000000001,2.4000000000000004,5.2,-7.300000000000001,-1.2000000000000002
1698924432156.0,16,0.4,0.0,0.9,0.2,9.5,2.2,-0.6000000000000001,-6.5,-1.6
1698924432172.0,16,0.6000000000000001,-0.4,0.9,0.30000000000000004,9.1,2.2,-4.3999999999999995,-5.9,0.9
1698924432189.0,16,0.6000000000000001,-0.4,0.8,0.30000000000000004,9.1,2.2,-5.0,-5.7,2.1999999999999997
1698924432206.0,16,0.4,-0.30000000000000004,0.7000000000000001,0.2,9.1,2.1,-5.300000000000001,-6.5,3.7000000000000006
1698924432222.0,16,0.30000000000000004,-0.4,0.7000000000000001,0.1,9.1,2.1,-5.1,-5.9,4.3999999999999995
1698924432238.0,16,0.4,-0.6000000000000001,0.6000000000000001,0.2,8.9,2.0,-4.7,-3.5,5.500000000000001
1698924432256.0,16,0.4,-0.7000000000000001,0.5,0.30000000000000004,8.700000000000001,1.9000000000000001,-4.5,-2.1999999999999997,5.1
1698924432272.0,16,0.4,-0.7000000000000001,0.2,0.30000000000000004,8.8,1.6,-6.2,-0.6000000000000001,4.6000000000000005
1698924432289.0,16,0.4,-0.6000000000000001,0.1,0.30000000000000004,8.8,1.6,-8.200000000000001,0.6000000000000001,4.9
1698924432306.0,16,0.4,-0.6000000000000001,-0.1,0.30000000000000004,8.8,1.4000000000000001,-12.5,2.1,5.2
1698924432322.0,16,0.30000000000000004,-0.7000000000000001,-0.2,0.2,8.700000000000001,1.3,-14.500000000000002,1.8,5.300000000000001
1698924432338.0,16,0.2,-0.6000000000000001,-0.4,0.2,8.700000000000001,1.3,-16.6,0.1,5.2
1698924432356.0,16,0.1,-0.5,-0.5,0.1,8.9,1.2000000000000002,-16.5,-1.2000000000000002,4.800000000000001
1698924432372.0,16,0.2,-0.4,-0.8,0.2,9.0,0.9,-16.6,-0.8,3.3000000000000003
1698924432388.0,16,0.2,-0.5,-1.0,0.1,8.9,0.7000000000000001,-18.3,1.3,-0.2
1698924432405.0,16,0.1,-0.6000000000000001,-1.1,0.1,8.8,0.7000000000000001,-19.0,3.9,-1.7
1698924432422.0,16,0.2,-0.7000000000000001,-1.2000000000000002,0.2,8.6,0.6000000000000001,-19.9,8.1,-3.9
1698924432439.0,16,0.30000000000000004,-0.8,-1.2000000000000002,0.2,8.5,0.6000000000000001,-19.700000000000003,8.700000000000001,-4.9
1698924432456.0,16,0.4,-0.7000000000000001,-1.2000000000000002,0.30000000000000004,8.6,0.7000000000000001,-17.400000000000002,9.200000000000001,-7.500000000000001
1698924432472.0,16,0.4,-0.5,-1.2000000000000002,0.30000000000000004,8.8,0.8,-13.100000000000001,10.1,-10.0
1698924432491.0,16,0.30000000000000004,0.0,-1.1,0.1,9.3,0.8,-7.9,10.2,-11.3
1698924432505.0,16,0.2,0.2,-1.0,0.1,9.5,0.9,-5.1,11.1,-11.700000000000001
1698924432522.0,16,0.2,0.4,-0.9,-0.1,9.600000000000001,1.0,1.0999999999999999,10.700000000000001,-11.3
1698924432540.0,16,0.1,0.4,-0.8,-0.1,9.700000000000001,1.1,4.7,8.1,-9.9
1698924432555.0,16,0.0,0.4,-0.6000000000000001,-0.30000000000000004,9.700000000000001,1.2000000000000002,12.5,0.0,-4.9
1698924432572.0,16,0.1,0.5,-0.8,-0.2,9.8,1.0,17.5,-2.8,-2.1999999999999997
1698924432588.0,16,0.30000000000000004,0.5,-1.2000000000000002,0.0,9.8,0.5,13.6,-3.8,-4.7
1698924432605.0,16,0.4,0.5,-1.3,0.1,9.9,0.5,8.799999999999999,-5.4,-5.300000000000001
1698924432622.0,16,0.8,0.4,-1.2000000000000002,0.5,9.700000000000001,0.5,-2.5,-9.200000000000001,-4.6000000000000005
1698924432639.0,16,0.9,0.30000000000000004,-1.3,0.6000000000000001,9.700000000000001,0.5,-8.4,-7.6,-3.6
1698924432656.0,16,0.5,1.0,-0.7000000000000001,0.2,10.3,1.1,-18.2,-1.3,1.5000000000000002
1698924432672.0,16,0.0,2.3000000000000003,-0.1,-0.2,11.600000000000001,1.7000000000000002,-13.200000000000001,-2.8,17.7
1698924432689.0,16,0.2,2.4000000000000004,-0.4,0.0,11.8,1.5,-7.0,-12.000000000000002,26.6
1698924432705.0,16,0.30000000000000004,1.5,0.1,0.2,11.200000000000001,1.6,0.6000000000000001,-31.2,29.400000000000002
1698924432722.0,16,0.5,1.3,0.1,0.5,10.700000000000001,1.9000000000000001,8.200000000000001,-28.6,18.2
1698924432740.0,16,0.30000000000000004,1.3,-0.4,0.5,10.600000000000001,1.6,10.8,-24.200000000000003,10.600000000000001
1698924432755.0,16,0.2,1.4000000000000001,-0.4,0.30000000000000004,10.8,1.4000000000000001,8.600000000000001,-17.0,2.5
1698924432773.0,16,0.4,1.8,0.2,0.5,11.200000000000001,2.0,6.6000000000000005,-18.7,2.8
1698924432789.0,16,0.30000000000000004,1.8,0.9,0.4,11.200000000000001,2.6,13.4,-27.1,8.5
1698924432806.0,16,-0.1,1.2000000000000002,0.9,0.2,11.100000000000001,2.7,18.3,-27.6,11.6
1698924432822.0,16,-0.30000000000000004,0.6000000000000001,0.7000000000000001,-0.1,10.100000000000001,2.3000000000000003,23.8,-24.400000000000002,10.2
1698924432839.0,16,-0.2,0.0,0.5,0.0,9.5,2.1,20.1,-19.700000000000003,0.8
1698924432855.0,16,0.30000000000000004,-0.7000000000000001,0.6000000000000001,0.5,8.8,2.1,16.3,-19.500000000000004,-5.7
1698924432872.0,16,0.4,-0.6000000000000001,1.1,0.7000000000000001,8.8,2.6,11.2,-21.900000000000002,-10.700000000000001
1698924432888.0,16,0.2,-0.9,0.9,0.5,8.700000000000001,2.5,7.6,-11.8,-4.3999999999999995
1698924432905.0,16,0.0,-1.0,1.0,0.2,8.5,2.5,5.4,-10.0,-1.9
1698924432922.0,16,-0.4,-1.2000000000000002,1.6,-0.2,8.3,3.0,6.1000000000000005,-7.0,-1.9
1698924432938.0,16,-0.5,-1.1,2.1,-0.30000000000000004,8.4,3.5,14.0,-2.3000000000000003,-3.0000000000000004
1698924432956.0,16,-0.6000000000000001,-1.0,2.2,-0.4,8.5,3.6,19.1,-1.0,-2.7
1698924432972.0,16,-0.6000000000000001,-0.9,2.2,-0.5,8.6,3.6,27.3,0.6000000000000001,-0.5
1698924432989.0,16,-0.5,-1.1,2.1,-0.4,8.3,3.4000000000000004,28.1,-0.4,-0.2
1698924433005.0,16,-0.5,-1.1,2.2,-0.4,8.3,3.4000000000000004,25.900000000000002,-0.1,-0.8
1698924433022.0,16,-0.5,-1.0,2.0,-0.30000000000000004,8.5,3.2,16.0,1.0999999999999999,-2.5
1698924433039.0,16,-0.2,-0.7000000000000001,1.8,-0.2,8.6,3.0,8.3,0.0,-2.8
1698924433055.0,16,-0.2,-0.6000000000000001,1.8,0.0,8.9,3.0,-8.3,-3.9,-2.1
1698924433074.0,16,0.0,-0.5,1.3,0.1,9.0,2.6,-19.1,-4.2,-0.5
1698924433089.0,16,0.0,-0.5,1.1,0.1,9.0,2.4000000000000004,-23.2,-3.4,0.9
1698924433105.0,16,-0.30000000000000004,-0.5,0.8,0.0,8.9,2.4000000000000004,-26.500000000000004,0.9,4.9
1698924433123.0,16,-0.30000000000000004,-0.30000000000000004,0.8,-0.2,9.1,2.3000000000000003,-24.5,1.3,4.9
1698924433138.0,16,-0.30000000000000004,-0.2,0.8,-0.2,9.200000000000001,2.3000000000000003,-16.400000000000002,1.5000000000000002,2.5
1698924433155.0,16,-0.30000000000000004,-0.2,0.7000000000000001,-0.1,9.200000000000001,2.3000000000000003,-11.5,2.9,0.30000000000000004
1698924433172.0,16,-0.30000000000000004,-0.4,0.4,-0.1,9.1,2.0,-2.3000000000000003,8.799999999999999,-4.0
1698924433188.0,16,-0.1,-0.4,0.30000000000000004,0.0,9.0,1.9000000000000001,3.9,14.200000000000001,-5.9
1698924433205.0,16,0.1,-0.4,0.1,0.2,9.0,1.7000000000000002,7.6,14.0,-5.500000000000001
1698924433223.0,16,0.1,-0.4,0.1,0.2,9.0,1.7000000000000002,8.600000000000001,11.000000000000002,-4.0
1698924433238.0,16,-0.2,-0.4,0.1,-0.1,9.0,1.7000000000000002,8.5,8.200000000000001,0.9
1698924433255.0,16,-0.5,-0.30000000000000004,0.1,-0.5,9.1,1.6,7.2,12.000000000000002,2.6
1698924433272.0,16,-0.6000000000000001,-0.2,0.1,-0.6000000000000001,9.200000000000001,1.6,6.3,12.3,1.7
1698924433289.0,16,-0.8,-0.1,-0.1,-0.7000000000000001,9.3,1.5,3.8,8.0,-0.2
1698924433305.0,16,-0.8,-0.2,-0.1,-0.7000000000000001,9.200000000000001,1.4000000000000001,2.5,5.1,0.30000000000000004
1698924433322.0,16,-0.5,-0.30000000000000004,-0.2,-0.4,9.1,1.4000000000000001,-0.1,2.1,2.4000000000000004
1698924433339.0,16,-0.30000000000000004,-0.5,-0.30000000000000004,-0.2,8.9,1.2000000000000002,-2.5,3.8,2.9
1698924433355.0,16,-0.30000000000000004,-0.5,-0.5,-0.2,8.9,1.1,-5.300000000000001,4.0,4.1000000000000005
1698924433372.0,16,-0.4,-0.4,-0.5,-0.30000000000000004,9.0,1.0,-6.7,1.8,5.1
1698924433389.0,16,-0.6000000000000001,-0.4,-0.4,-0.5,9.0,1.1,-8.600000000000001,-4.5,8.0
1698924433405.0,16,-0.7000000000000001,-0.4,-0.30000000000000004,-0.5,9.0,1.3,-7.2,-8.5,9.4
1698924433422.0,16,-0.7000000000000001,-0.4,-0.30000000000000004,-0.5,9.0,1.3,-5.6,-8.799999999999999,9.0
1698924433439.0,16,-0.7000000000000001,-0.5,-0.5,-0.5,8.9,1.0,-3.7000000000000006,-9.4,7.699999999999999
1698924433456.0,16,-0.6000000000000001,-0.4,-0.6000000000000001,-0.4,8.9,1.0,-3.6,-10.4,6.8
1698924433473.0,16,-0.5,-0.4,-0.5,-0.30000000000000004,9.0,1.1,-3.3000000000000003,-12.200000000000001,5.300000000000001
1698924433489.0,16,-0.30000000000000004,-0.30000000000000004,-0.5,-0.1,9.0,1.0,-3.2,-11.2,4.1000000000000005
1698924433506.0,16,-0.1,-0.2,-0.5,0.1,9.1,1.1,-3.4,-10.4,3.4
1698924433522.0,16,0.4,0.0,-0.4,0.6000000000000001,9.3,1.2000000000000002,-2.6,-7.8,0.9
1698924433538.0,16,0.4,0.2,-0.5,0.6000000000000001,9.5,1.1,-1.8,-3.2,-0.4
1698924433555.0,16,0.2,0.6000000000000001,-0.7000000000000001,0.4,9.9,0.9,-4.0,-0.7,2.6
1698924433572.0,16,0.0,0.8,-0.8,0.30000000000000004,10.100000000000001,0.8,-5.9,-2.3000000000000003,4.3999999999999995
1698924433588.0,16,-0.2,0.8,-0.9,0.0,10.100000000000001,0.7000000000000001,-11.1,-4.9,5.4
1698924433606.0,16,-0.4,0.8,-1.0,-0.1,10.100000000000001,0.7000000000000001,-14.4,-4.2,4.2
1698924433622.0,16,-0.6000000000000001,0.8,-1.1,-0.30000000000000004,10.100000000000001,0.6000000000000001,-24.000000000000004,-1.3,-1.5000000000000002
1698924433639.0,16,-0.7000000000000001,0.8,-1.2000000000000002,-0.4,10.100000000000001,0.6000000000000001,-26.200000000000003,-2.1,-3.0000000000000004
1698924433656.0,16,-0.6000000000000001,0.6000000000000001,-1.3,-0.4,9.8,0.5,-29.1,-6.000000000000001,-4.3999999999999995
1698924433672.0,16,-0.4,0.30000000000000004,-1.4000000000000001,-0.2,9.600000000000001,0.4,-30.000000000000004,-8.4,-4.9
1698924433689.0,16,0.0,0.0,-1.6,0.2,9.200000000000001,0.30000000000000004,-33.0,-12.3,-5.9
1698924433705.0,16,0.1,0.5,-1.1,0.30000000000000004,9.8,1.0,-34.0,-11.5,-5.0
1698924433725.0,16,0.2,1.1,-0.5,0.4,10.3,1.6,-29.400000000000002,-8.200000000000001,-6.1000000000000005
1698924433739.0,16,0.0,1.3,-0.7000000000000001,0.2,10.600000000000001,1.4000000000000001,-10.9,2.1999999999999997,-10.700000000000001
1698924433755.0,16,-0.2,0.5,-1.6,-0.1,9.700000000000001,0.6000000000000001,-3.1,2.1,-9.9
1698924433772.0,16,-0.4,0.30000000000000004,-1.1,-0.30000000000000004,9.5,1.0,-2.5,-0.9,-7.8
1698924433790.0,16,-0.1,0.5,-0.4,0.0,9.8,1.7000000000000002,7.0,6.7,-5.6
1698924433805.0,16,0.0,0.6000000000000001,-1.2000000000000002,0.1,9.9,0.9,14.0,15.9,-7.400000000000001
1698924433822.0,16,-0.1,0.6000000000000001,-1.4000000000000001,-0.1,9.9,0.7000000000000001,13.3,14.0,-7.1000000000000005
1698924433839.0,16,0.0,0.5,-0.7000000000000001,0.0,9.8,1.3,10.700000000000001,7.400000000000001,-4.7
1698924433855.0,16,0.1,0.8,0.1,0.1,10.100000000000001,2.0,17.599999999999998,14.600000000000001,-6.000000000000001
1698924433872.0,16,-0.1,2.0,0.9,0.0,10.5,2.2,23.6,19.700000000000003,-7.699999999999999
1698924433888.0,16,0.0,3.2,1.7000000000000002,-0.1,12.600000000000001,3.5,43.6,21.5,-12.700000000000001
1698924433905.0,16,0.30000000000000004,4.0,1.4000000000000001,0.1,13.4,3.0,73.30000000000001,21.900000000000002,-23.900000000000002
1698924433922.0,16,-0.1,1.2000000000000002,0.6000000000000001,-0.30000000000000004,10.700000000000001,1.9000000000000001,76.80000000000001,-2.4000000000000004,-20.3
1698924433939.0,16,-0.5,-0.30000000000000004,1.0,-0.8,9.200000000000001,2.2,69.3,-11.000000000000002,-11.8
1698924433955.0,16,-0.7000000000000001,-1.9000000000000001,1.3,-1.0,7.6000000000000005,2.4000000000000004,45.1,13.3,4.3999999999999995
1698924433973.0,16,-0.8,-2.0,0.9,-1.0,7.5,1.9000000000000001,30.599999999999998,21.1,6.5
1698924433989.0,16,-0.7000000000000001,-1.9000000000000001,0.7000000000000001,-0.9,7.6000000000000005,1.7000000000000002,1.0999999999999999,-2.6,0.5
1698924434006.0,16,-0.4,-1.7000000000000002,1.7000000000000002,-0.7000000000000001,7.800000000000001,2.8000000000000003,-19.700000000000003,-23.900000000000002,-9.0
1698924434022.0,16,-0.1,-1.5,2.4000000000000004,-0.4,8.0,3.6,-21.400000000000002,-25.3,-12.6
1698924434039.0,16,0.2,-1.2000000000000002,2.3000000000000003,-0.2,8.3,3.5,-17.200000000000003,-21.1,-13.3
1698924434055.0,16,0.5,-0.6000000000000001,1.7000000000000002,0.2,8.9,3.0,-8.799999999999999,-13.5,-17.3
1698924434072.0,16,0.7000000000000001,-0.5,1.6,0.30000000000000004,8.9,2.9000000000000004,-3.9,-9.600000000000001,-18.400000000000002
1698924434089.0,16,1.3,-0.7000000000000001,1.5,0.8,8.700000000000001,2.8000000000000003,-1.8,-9.200000000000001,-16.2
1698924434105.0,16,1.5,-0.5,1.6,1.0,8.9,2.9000000000000004,3.3000000000000003,-13.5,-6.9
1698924434122.0,16,0.9,0.0,1.3,0.5,9.4,2.7,4.7,-16.3,4.800000000000001
1698924434139.0,16,0.5,0.2,1.2000000000000002,0.1,9.700000000000001,2.5,2.4000000000000004,-10.9,7.9
1698924434156.0,16,0.30000000000000004,0.2,0.8,-0.1,9.600000000000001,2.2,-5.7,-4.0,3.0000000000000004
1698924434172.0,16,0.5,-0.2,0.9,0.1,9.200000000000001,2.3000000000000003,-11.9,-4.300000000000001,-3.0000000000000004
1698924434189.0,16,0.5,-0.2,0.8,0.2,9.200000000000001,2.2,-13.8,-3.3000000000000003,-3.8
1698924434206.0,16,0.7000000000000001,-0.30000000000000004,0.5,0.30000000000000004,9.1,1.9000000000000001,-17.200000000000003,0.7,-4.0
1698924434222.0,16,0.7000000000000001,-0.5,0.5,0.30000000000000004,8.9,2.0,-18.0,1.0999999999999999,-1.3
1698924434239.0,16,0.7000000000000001,-0.6000000000000001,0.4,0.30000000000000004,8.8,2.0,-16.900000000000002,0.5,1.7
1698924434255.0,16,0.6000000000000001,-0.5,0.5,0.2,8.9,2.1,-14.0,-2.3000000000000003,8.0
1698924434272.0,16,0.4,-0.2,0.6000000000000001,0.0,9.200000000000001,2.3000000000000003,-9.600000000000001,-1.6,8.4
1698924434289.0,16,0.4,0.0,0.5,0.1,9.4,2.2,-7.500000000000001,0.5,5.6
1698924434305.0,16,0.6000000000000001,0.1,0.1,0.30000000000000004,9.4,1.8,-7.699999999999999,3.4,-2.0
1698924434322.0,16,0.7000000000000001,-0.1,-0.2,0.4,9.4,1.6,-14.800000000000002,6.7,-4.300000000000001
1698924434339.0,16,0.8,-0.30000000000000004,-0.30000000000000004,0.4,9.1,1.4000000000000001,-19.0,8.600000000000001,-3.7000000000000006
1698924434356.0,16,0.6000000000000001,-0.5,-0.5,0.30000000000000004,8.8,1.3,-25.400000000000002,8.3,0.5
1698924434372.0,16,0.2,-0.5,-0.8,-0.1,8.700000000000001,1.1,-29.500000000000004,10.600000000000001,5.6
1698924434388.0,16,0.1,-0.4,-0.9,-0.2,8.9,1.1,-31.3,11.000000000000002,6.1000000000000005
1698924434407.0,16,0.1,-0.2,-0.9,-0.2,9.0,1.1,-30.5,9.5,5.0
1698924434422.0,16,0.2,-0.1,-0.9,-0.2,9.1,1.2000000000000002,-28.500000000000004,8.200000000000001,3.1
1698924434439.0,16,0.2,-0.2,-1.0,-0.1,9.1,1.2000000000000002,-22.5,10.9,-2.0
1698924434455.0,16,0.6000000000000001,-0.4,-1.0,0.2,8.8,1.2000000000000002,-15.2,18.3,-8.1
1698924434472.0,16,0.8,-0.6000000000000001,-1.1,0.4,8.6,1.1,-7.400000000000001,27.5,-11.700000000000001
1698924434489.0,16,0.7000000000000001,-0.7000000000000001,-1.4000000000000001,0.30000000000000004,8.5,0.8,-3.1,35.7,-10.1
1698924434505.0,16,0.8,-0.6000000000000001,-1.4000000000000001,0.30000000000000004,8.5,0.8,-2.4000000000000004,38.0,-8.0
1698924434521.0,16,0.7000000000000001,-0.4,-1.3,0.2,8.700000000000001,0.9,0.2,38.6,-3.5
1698924434538.0,16,0.4,-0.2,-1.2000000000000002,-0.1,9.0,0.9,4.9,34.300000000000004,-0.2
1698924434556.0,16,0.30000000000000004,0.0,-1.2000000000000002,-0.30000000000000004,9.1,0.9,7.300000000000001,31.6,1.0999999999999999
1698924434572.0,16,0.1,0.30000000000000004,-1.1,-0.5,9.5,1.0,10.700000000000001,27.3,2.5
1698924434588.0,16,0.2,0.4,-1.1,-0.30000000000000004,9.600000000000001,1.0,13.8,26.500000000000004,1.2000000000000002
1698924434605.0,16,0.4,0.4,-1.2000000000000002,-0.2,9.600000000000001,0.8,14.100000000000001,26.700000000000003,-0.9
1698924434622.0,16,0.8,0.30000000000000004,-1.3,0.2,9.5,0.7000000000000001,10.5,29.300000000000004,-5.300000000000001
1698924434639.0,16,0.9,0.6000000000000001,-1.0,0.30000000000000004,9.600000000000001,0.8,4.9,34.6,-6.000000000000001
1698924434656.0,16,0.7000000000000001,1.1,-0.6000000000000001,0.1,10.3,1.3,3.6,37.4,-2.9
1698924434672.0,16,0.5,1.6,-0.30000000000000004,-0.1,10.8,1.6,7.6,30.599999999999998,13.6
1698924434688.0,16,-0.4,1.0,0.1,-1.0,10.3,1.9000000000000001,13.200000000000001,12.000000000000002,33.900000000000006
1698924434705.0,16,-0.7000000000000001,1.1,0.7000000000000001,-1.2000000000000002,10.3,2.5,16.0,14.800000000000002,41.800000000000004
1698924434722.0,16,-1.1,1.9000000000000001,1.1,-1.5,11.200000000000001,2.8000000000000003,28.0,22.6,44.8
1698924434738.0,16,-1.1,2.7,1.2000000000000002,-1.5,11.700000000000001,2.8000000000000003,37.900000000000006,12.6,34.800000000000004
1698924434756.0,16,-0.8,2.7,1.2000000000000002,-1.1,12.0,2.8000000000000003,38.800000000000004,8.9,26.3
1698924434772.0,16,0.5,1.7000000000000002,0.9,0.30000000000000004,11.100000000000001,2.3000000000000003,31.8,3.9,6.7
1698924434789.0,16,1.1,0.7000000000000001,0.5,0.9,10.100000000000001,1.9000000000000001,9.700000000000001,-1.6,-4.2
1698924434805.0,16,1.2000000000000002,0.5,0.2,1.0,9.9,1.6,-5.300000000000001,5.9,-2.8
1698924434822.0,16,1.0,0.5,0.2,0.8,9.9,1.7000000000000002,-34.7,28.0,6.7
1698924434838.0,16,0.30000000000000004,0.7000000000000001,0.8,0.2,10.200000000000001,2.5,-40.0,34.300000000000004,16.2
1698924434855.0,16,0.1,0.6000000000000001,0.4,0.0,10.0,2.1,-34.50000000000001,31.0,18.2
1698924434872.0,16,-0.30000000000000004,-0.1,0.2,-0.4,9.3,2.0,-23.2,18.900000000000002,17.1
1698924434888.0,16,-0.4,-0.5,0.6000000000000001,-0.5,8.9,2.4000000000000004,-8.600000000000001,28.3,12.3
1698924434905.0,16,-0.4,-0.5,0.7000000000000001,-0.5,8.9,2.5,0.8,36.0,9.8
1698924434922.0,16,-0.2,-0.4,1.2000000000000002,-0.30000000000000004,8.9,3.0,21.8,40.6,8.0
1698924434939.0,16,-0.30000000000000004,-0.5,1.7000000000000002,-0.4,8.9,3.4000000000000004,41.4,47.5,9.1
1698924434955.0,16,-0.30000000000000004,-0.5,1.9000000000000001,-0.4,8.9,3.5,48.1,51.300000000000004,8.9
1698924434972.0,16,-0.30000000000000004,-0.5,2.3000000000000003,-0.4,8.9,3.8000000000000003,53.400000000000006,60.1,7.2
1698924434988.0,16,-0.30000000000000004,-0.6000000000000001,2.4000000000000004,-0.4,8.8,3.8000000000000003,50.5,65.89999999999999,6.000000000000001
1698924435005.0,16,-0.2,-0.8,2.1,-0.4,8.6,3.4000000000000004,29.300000000000004,77.0,4.5
1698924435022.0,16,0.0,-1.3,1.8,-0.1,8.200000000000001,3.1,-3.5,75.60000000000001,4.1000000000000005
1698924435039.0,16,0.0,-1.5,1.6,0.0,8.0,3.1,-18.8,72.7,5.500000000000001
1698924435055.0,16,-0.1,-1.3,1.5,-0.2,8.1,2.9000000000000004,-37.900000000000006,71.9,11.1
1698924435072.0,16,-0.30000000000000004,-0.9,0.9,-0.4,8.5,2.5,-43.7,77.80000000000001,17.5
1698924435091.0,16,-0.4,-0.5,0.7000000000000001,-0.5,8.8,2.4000000000000004,-40.4,78.00000000000001,22.7
1698924435105.0,16,-0.5,-0.4,0.7000000000000001,-0.6000000000000001,8.9,2.4000000000000004,-35.1,77.7,24.9
1698924435122.0,16,-0.7000000000000001,-0.30000000000000004,0.30000000000000004,-0.8,9.0,2.2,-21.900000000000002,77.1,27.0
1698924435138.0,16,-0.9,-0.2,0.4,-1.0,9.1,2.4000000000000004,-8.700000000000001,80.0,25.400000000000002
1698924435155.0,16,-0.9,0.0,0.5,-1.0,9.3,2.4000000000000004,-1.5000000000000002,83.30000000000001,23.8
1698924435172.0,16,-0.7000000000000001,0.4,0.5,-0.7000000000000001,9.700000000000001,2.4000000000000004,10.700000000000001,86.1,19.3
1698924435189.0,16,-0.5,0.1,0.30000000000000004,-0.6000000000000001,9.700000000000001,2.4000000000000004,16.1,88.9,15.8
1698924435205.0,16,-0.4,-0.1,0.30000000000000004,-0.5,9.3,2.1,14.200000000000001,90.5,16.400000000000002
1698924435222.0,16,-0.5,-0.30000000000000004,0.30000000000000004,-0.5,9.0,2.1,4.3999999999999995,97.00000000000001,20.0
1698924435238.0,16,-0.7000000000000001,-0.4,0.1,-0.7000000000000001,9.0,1.9000000000000001,-9.4,97.8,23.2
1698924435257.0,16,-1.0,-0.4,-0.1,-0.8,9.0,1.9000000000000001,-15.6,95.7,24.8
1698924435276.0,16,-1.2000000000000002,-0.30000000000000004,-0.2,-1.3,9.0,1.7000000000000002,-23.400000000000002,93.1,27.400000000000002
1698924435289.0,16,-1.4000000000000001,0.0,-0.1,-1.4000000000000001,9.200000000000001,1.9000000000000001,-25.5,91.2,28.3
1698924435306.0,16,-1.5,0.1,0.0,-1.5,9.3,2.1,-19.500000000000004,85.9,27.6
1698924435322.0,16,-1.4000000000000001,-0.1,-0.1,-1.4000000000000001,9.200000000000001,2.0,-15.299999999999999,84.3,26.9
1698924435339.0,16,-1.3,-0.6000000000000001,-0.2,-1.3,8.6,1.9000000000000001,-8.700000000000001,83.8,26.8
1698924435355.0,16,-1.2000000000000002,-0.7000000000000001,-0.1,-1.2000000000000002,8.5,2.0,-5.9,84.3,26.8
1698924435372.0,16,-1.1,-0.5,-0.1,-1.0,8.700000000000001,2.0,-0.30000000000000004,82.9,27.400000000000002
1698924435389.0,16,-1.0,-0.4,-0.2,-0.9,8.9,1.9000000000000001,1.9,78.60000000000001,27.900000000000002
1698924435405.0,16,-1.0,-0.4,-0.1,-0.9,8.9,2.1,1.7,77.9,29.400000000000002
1698924435422.0,16,-1.0,-0.2,-0.1,-0.9,9.0,2.0,1.9,81.5,33.6
1698924435439.0,16,-1.1,-0.2,0.0,-0.9,9.0,2.1,-0.6000000000000001,81.8,32.9
1698924435455.0,16,-0.9,0.0,0.4,-0.7000000000000001,9.200000000000001,2.5,1.4,82.2,32.7
1698924435472.0,16,-0.7000000000000001,0.1,0.30000000000000004,-0.5,9.3,2.4000000000000004,3.5,82.2,33.2
1698924435489.0,16,-0.2,-0.1,0.0,0.0,9.200000000000001,2.2,3.6,80.30000000000001,34.1
1698924435506.0,16,0.0,-0.4,-0.30000000000000004,0.30000000000000004,8.8,1.9000000000000001,-2.3000000000000003,75.4,35.7
1698924435522.0,16,0.0,-0.6000000000000001,-0.4,0.30000000000000004,8.700000000000001,1.7000000000000002,-7.0,75.7,36.2
1698924435538.0,16,0.0,-0.2,-0.6000000000000001,0.4,9.0,1.6,-16.2,75.1,36.0
1698924435555.0,16,-0.2,0.2,-0.8,0.4,9.3,1.5,-21.8,72.0,36.800000000000004
1698924435572.0,16,-0.30000000000000004,0.30000000000000004,-0.7000000000000001,0.2,9.5,1.6,-22.900000000000002,72.2,38.5
1698924435589.0,16,-0.5,0.5,-0.9,0.1,9.700000000000001,1.5,-19.500000000000004,75.0,40.9
1698924435605.0,16,-0.4,0.5,-0.8,0.2,9.600000000000001,1.6,-16.400000000000002,75.3,39.9
1698924435622.0,16,-0.30000000000000004,0.8,-0.6000000000000001,0.4,9.9,1.8,-6.000000000000001,77.60000000000001,34.1
1698924435639.0,16,0.30000000000000004,1.5,-0.2,0.9,10.700000000000001,2.2,11.8,85.4,25.700000000000003
1698924435656.0,16,0.8,1.9000000000000001,-0.1,1.4000000000000001,11.100000000000001,2.3000000000000003,28.500000000000004,85.3,15.8
1698924435672.0,16,0.9,1.8,0.0,1.5,11.0,2.3000000000000003,35.5,87.3,12.4
1698924435690.0,16,0.7000000000000001,0.8,0.0,1.3,10.100000000000001,2.2,39.8,92.50000000000001,12.4
1698924435705.0,16,0.7000000000000001,0.5,0.0,1.3,9.700000000000001,2.1,37.0,98.2,14.200000000000001
1698924435722.0,16,0.2,0.1,-0.5,0.8,9.4,1.6,21.8,104.2,14.200000000000001
1698924435738.0,16,-0.6000000000000001,-0.1,-0.5,0.0,9.1,1.7000000000000002,-1.4,102.2,14.200000000000001
1698924435756.0,16,-1.4000000000000001,-0.5,-0.2,-0.9,8.8,2.0,-17.0,92.2,19.500000000000004
1698924435771.0,16,-1.8,-0.7000000000000001,-0.1,-1.3,8.5,2.1,-19.700000000000003,85.0,22.6
1698924435789.0,16,-2.0,-1.2000000000000002,0.2,-1.5,8.0,2.5,-15.9,72.30000000000001,24.3
1698924435805.0,16,-1.9000000000000001,-1.5,0.7000000000000001,-1.4000000000000001,7.7,3.0,-1.5000000000000002,69.9,16.700000000000003
1698924435822.0,16,-1.8,-1.2000000000000002,0.8,-1.3,7.9,3.1,8.200000000000001,73.50000000000001,10.8
1698924435838.0,16,-1.2000000000000002,-0.4,1.0,-0.8,8.8,3.3000000000000003,29.900000000000006,79.9,2.3000000000000003
1698924435855.0,16,-0.30000000000000004,-0.1,1.3,0.1,9.200000000000001,3.4000000000000004,48.300000000000004,68.1,1.4
1698924435871.0,16,0.2,-0.1,1.6,0.30000000000000004,9.200000000000001,3.6,55.5,63.0,10.5
1698924435889.0,16,0.30000000000000004,-0.1,1.4000000000000001,0.7000000000000001,9.200000000000001,3.4000000000000004,52.800000000000004,67.1,14.800000000000002
1698924435906.0,16,0.5,-0.30000000000000004,1.0,0.7000000000000001,9.1,3.0,45.3,69.7,16.900000000000002
1698924435922.0,16,0.6000000000000001,-0.6000000000000001,1.3,0.9,8.700000000000001,3.1,9.9,73.30000000000001,13.8
1698924435939.0,16,0.6000000000000001,-0.5,1.3,1.0,8.8,3.1,2.5,78.10000000000001,13.0
1698924435955.0,16,0.7000000000000001,-0.4,1.1,1.1,9.0,2.9000000000000004,-3.7000000000000006,88.9,11.700000000000001
1698924435973.0,16,0.9,-0.2,0.7000000000000001,1.3,9.1,2.5,-4.2,91.2,12.4
1698924435989.0,16,0.8,-0.4,0.7000000000000001,1.2000000000000002,8.9,2.5,0.7,93.80000000000001,17.7
1698924436005.0,16,0.6000000000000001,-0.1,0.5,1.0,9.200000000000001,2.3000000000000003,11.700000000000001,95.80000000000001,25.3
1698924436022.0,16,0.5,0.2,0.4,0.9,9.5,2.2,16.900000000000002,95.60000000000001,27.2
1698924436039.0,16,0.6000000000000001,0.5,0.4,1.0,9.9,2.1,24.6,102.2,26.0
1698924436056.0,16,0.7000000000000001,0.6000000000000001,0.5,1.1,9.9,2.2,30.5,105.2,24.7
1698924436073.0,16,0.6000000000000001,0.4,0.6000000000000001,1.0,9.8,2.2,32.800000000000004,110.9,25.5
1698924436089.0,16,0.5,0.2,0.6000000000000001,1.0,9.600000000000001,2.2,31.6,113.4,25.8
1698924436105.0,16,0.4,0.30000000000000004,0.6000000000000001,0.9,9.600000000000001,2.1,25.900000000000002,118.69999999999999,27.1
1698924436122.0,16,0.30000000000000004,0.30000000000000004,0.5,0.8,9.700000000000001,1.9000000000000001,21.0,119.4,28.500000000000004
1698924436138.0,16,0.2,0.1,0.2,0.7000000000000001,9.5,1.6,6.8,117.60000000000001,33.0
1698924436155.0,16,-0.30000000000000004,0.1,0.30000000000000004,0.30000000000000004,9.5,1.8,-5.300000000000001,117.20000000000002,38.300000000000004
1698924436172.0,16,-0.6000000000000001,0.2,0.0,0.1,9.600000000000001,1.6,-10.1,121.30000000000001,37.4
1698924436188.0,16,-0.5,0.2,-0.1,0.2,9.5,1.5,-11.1,120.40000000000002,34.7
1698924436205.0,16,-0.30000000000000004,-0.2,-0.1,0.4,9.1,1.6,-9.700000000000001,120.7,31.0
1698924436222.0,16,-0.2,-0.30000000000000004,-0.2,0.5,9.0,1.5,-7.300000000000001,123.00000000000001,31.2
1698924436239.0,16,-0.1,-0.30000000000000004,-0.30000000000000004,0.7000000000000001,9.0,1.4000000000000001,-1.0999999999999999,124.10000000000002,32.5
1698924436255.0,16,-0.30000000000000004,-0.2,-0.2,0.5,9.1,1.5,6.7,119.1,35.4
1698924436271.0,16,-0.7000000000000001,0.1,-0.30000000000000004,0.2,9.4,1.4000000000000001,14.600000000000001,119.8,36.2
1698924436288.0,16,-0.8,0.1,-0.2,0.1,9.5,1.5,17.8,120.10000000000001,32.6
1698924436305.0,16,-0.8,0.0,-0.2,0.1,9.4,1.5,18.7,119.89999999999999,29.900000000000006
1698924436322.0,16,-0.8,0.1,-0.30000000000000004,0.1,9.4,1.4000000000000001,16.8,116.5,26.400000000000002
1698924436338.0,16,-0.8,0.2,-0.30000000000000004,0.1,9.5,1.4000000000000001,14.500000000000002,113.2,25.6
1698924436355.0,16,-0.7000000000000001,0.30000000000000004,-0.2,0.2,9.700000000000001,1.5,8.600000000000001,107.2,26.400000000000002
1698924436372.0,16,-0.9,0.4,-0.30000000000000004,0.1,9.700000000000001,1.4000000000000001,3.2,103.3,26.8
1698924436388.0,16,-0.9,0.4,-0.30000000000000004,0.0,9.700000000000001,1.4000000000000001,1.0,101.8,26.1
1698924436406.0,16,-1.1,0.30000000000000004,-0.30000000000000004,-0.1,9.600000000000001,1.4000000000000001,-0.7,99.30000000000001,23.6
1698924436422.0,16,-1.0,0.2,-0.30000000000000004,0.0,9.5,1.5,0.8,96.4,19.700000000000003
1698924436439.0,16,-0.8,0.2,-0.2,0.1,9.5,1.5,2.5,95.80000000000001,17.7
1698924436455.0,16,-0.6000000000000001,0.0,-0.5,0.2,9.4,1.3,5.0,93.60000000000001,14.3
1698924436472.0,16,-0.5,-0.1,-0.4,0.4,9.3,1.3,5.6,89.10000000000001,13.9
1698924436488.0,16,-0.5,0.1,0.0,0.4,9.4,1.8,9.1,80.4,16.900000000000002
1698924436505.0,16,-0.7000000000000001,0.30000000000000004,-0.2,0.30000000000000004,9.5,1.7000000000000002,11.8,75.60000000000001,20.5
1698924436522.0,16,-0.9,0.4,-0.2,-0.1,9.700000000000001,1.5,9.0,70.39999999999999,20.3
1698924436538.0,16,-1.0,0.4,-0.1,-0.2,9.700000000000001,1.6,6.9,69.10000000000001,18.3
1698924436556.0,16,-0.9,0.30000000000000004,-0.2,0.0,9.600000000000001,1.6,1.9,70.5,10.8
1698924436572.0,16,-0.5,-0.2,-0.30000000000000004,0.30000000000000004,9.1,1.5,-2.1,67.5,3.6
1698924436588.0,16,-0.2,-0.7000000000000001,-0.2,0.5,8.8,1.6,-4.1000000000000005,65.3,3.4
1698924436605.0,16,-0.2,-0.8,-0.2,0.6000000000000001,8.5,1.6,-5.300000000000001,67.3,4.1000000000000005
1698924436622.0,16,-0.2,-0.8,-0.5,0.5,8.5,1.3,-4.800000000000001,68.80000000000001,3.0000000000000004
1698924436639.0,16,-0.30000000000000004,-0.7000000000000001,-0.5,0.4,8.6,1.4000000000000001,-3.6,67.80000000000001,2.0
1698924436655.0,16,-0.6000000000000001,-0.2,-0.2,0.1,9.1,1.6,1.9,65.60000000000001,0.4
1698924436672.0,16,-1.2000000000000002,0.6000000000000001,0.30000000000000004,-0.2,9.5,2.0,14.200000000000001,64.8,2.0
1698924436688.0,16,-1.8,0.9,0.1,-0.9,10.200000000000001,2.0,26.3,60.300000000000004,5.6
1698924436705.0,16,-2.0,0.7000000000000001,0.2,-1.4000000000000001,10.100000000000001,1.9000000000000001,29.200000000000003,57.699999999999996,5.9
1698924436722.0,16,-2.1,0.6000000000000001,0.30000000000000004,-1.5,9.9,2.0,30.4,57.400000000000006,5.1
1698924436738.0,16,-1.6,0.6000000000000001,0.5,-1.1,10.0,2.0,29.800000000000004,46.900000000000006,2.1
1698924436756.0,16,-1.4000000000000001,0.6000000000000001,0.4,-0.9,10.0,1.9000000000000001,27.900000000000002,35.199999999999996,5.6
1698924436772.0,16,-1.4000000000000001,0.0,0.1,-0.9,9.4,1.5,17.200000000000003,20.4,15.6
1698924436788.0,16,-1.4000000000000001,-0.8,-0.1,-0.8,8.6,1.4000000000000001,2.4000000000000004,12.6,16.6
1698924436805.0,16,-1.4000000000000001,-1.0,0.1,-0.8,8.3,1.6,-2.9,8.9,14.100000000000001
1698924436822.0,16,-1.3,-1.0,0.1,-0.7000000000000001,8.4,1.6,-5.1,7.6,7.699999999999999
1698924436839.0,16,-1.2000000000000002,-0.9,-0.1,-0.6000000000000001,8.5,1.4000000000000001,-3.0000000000000004,6.5,2.9
1698924436856.0,16,-1.2000000000000002,-0.8,0.0,-0.6000000000000001,8.5,1.5,-0.9,6.7,1.6
1698924436872.0,16,-1.0,-0.7000000000000001,0.0,-0.4,8.700000000000001,1.5,7.500000000000001,8.700000000000001,-0.6000000000000001
1698924436889.0,16,-1.0,-0.5,-0.2,-0.4,8.8,1.2000000000000002,15.399999999999999,10.600000000000001,-0.8
1698924436906.0,16,-0.9,-0.5,-0.1,-0.30000000000000004,8.9,1.3,18.400000000000002,11.4,-0.2
1698924436922.0,16,-1.0,-0.1,0.4,-0.5,9.200000000000001,1.7000000000000002,26.0,12.5,2.1999999999999997
1698924436939.0,16,-1.2000000000000002,0.0,0.6000000000000001,-0.6000000000000001,9.4,1.8,31.0,10.3,4.2
1698924436955.0,16,-1.6,0.5,1.2000000000000002,-1.0,9.9,2.3000000000000003,41.300000000000004,2.6,6.1000000000000005
1698924436972.0,16,-1.6,0.8,1.7000000000000002,-1.1,10.200000000000001,2.7,49.9,4.300000000000001,1.0
1698924436989.0,16,-1.0,0.1,1.2000000000000002,-0.5,9.600000000000001,2.1,47.300000000000004,7.400000000000001,-10.2
1698924437005.0,16,-0.5,-0.30000000000000004,1.1,0.0,9.1,1.9000000000000001,39.699999999999996,2.0,-13.200000000000001
1698924437022.0,16,0.2,-1.0,0.9,0.6000000000000001,8.4,1.7000000000000002,17.1,0.9,-13.5
1698924437039.0,16,0.5,-1.1,0.4,0.8,8.3,1.4000000000000001,-10.0,6.1000000000000005,-8.700000000000001
1698924437056.0,16,0.5,-0.8,0.2,0.9,8.6,1.0,-22.4,7.300000000000001,-6.5
1698924437072.0,16,0.2,-0.30000000000000004,-0.4,0.6000000000000001,9.1,0.5,-41.800000000000004,12.4,-2.4000000000000004
1698924437089.0,16,0.1,0.4,-0.6000000000000001,0.5,9.8,0.5,-55.300000000000004,19.700000000000003,2.4000000000000004
1698924437105.0,16,0.0,0.8,-0.4,0.4,10.200000000000001,0.8,-58.60000000000001,22.900000000000002,4.7
1698924437122.0,16,0.0,1.4000000000000001,-0.1,0.4,10.8,1.3,-52.300000000000004,28.6,9.600000000000001
1698924437139.0,16,-0.2,1.4000000000000001,-0.6000000000000001,0.30000000000000004,10.9,1.1,-39.50000000000001,27.3,13.4
1698924437156.0,16,-0.2,1.4000000000000001,-0.7000000000000001,0.2,10.8,0.9,-34.2,23.3,14.900000000000002
1698924437172.0,16,-0.4,1.3,-0.4,0.1,10.700000000000001,1.2000000000000002,-21.3,19.0,15.000000000000002
1698924437189.0,16,-0.7000000000000001,1.0,-0.4,-0.2,10.3,1.3,-6.1000000000000005,21.400000000000002,10.5
1698924437205.0,16,-0.8,0.7000000000000001,-0.4,-0.30000000000000004,10.100000000000001,1.3,0.9,23.6,6.5
1698924437222.0,16,-0.9,0.1,-0.5,-0.5,9.4,1.1,11.4,23.6,0.6000000000000001
1698924437239.0,16,-0.9,-0.4,-0.30000000000000004,-0.5,8.9,1.3,19.0,16.5,0.6000000000000001
1698924437255.0,16,-1.0,-0.6000000000000001,-0.30000000000000004,-0.5,8.8,1.3,21.8,13.5,2.1999999999999997
1698924437272.0,16,-1.1,-0.7000000000000001,-0.30000000000000004,-0.7000000000000001,8.700000000000001,1.2000000000000002,23.400000000000002,11.000000000000002,5.500000000000001
1698924437289.0,16,-1.1,-0.6000000000000001,-0.4,-0.6000000000000001,8.8,1.0,18.8,9.3,7.500000000000001
1698924437305.0,16,-1.1,-0.4,-0.4,-0.6000000000000001,9.0,1.0,14.500000000000002,8.799999999999999,8.200000000000001
1698924437322.0,16,-1.1,-0.2,-0.2,-0.6000000000000001,9.200000000000001,1.2000000000000002,3.6,9.200000000000001,9.5
1698924437339.0,16,-1.0,-0.1,0.2,-0.5,9.3,1.5,-6.1000000000000005,11.9,9.200000000000001
1698924437355.0,16,-0.8,-0.2,0.1,-0.2,9.200000000000001,1.5,-9.5,10.4,8.600000000000001
1698924437372.0,16,-0.9,-0.5,-0.2,-0.30000000000000004,8.9,1.3,-16.5,-2.7,10.2
1698924437388.0,16,-1.0,-0.8,-0.2,-0.4,8.6,1.3,-24.1,-4.800000000000001,12.000000000000002
1698924437405.0,16,-1.1,-0.8,-0.30000000000000004,-0.5,8.5,1.2000000000000002,-26.6,-4.1000000000000005,10.4
1698924437422.0,16,-1.0,-0.6000000000000001,-0.4,-0.4,8.700000000000001,1.3,-28.1,-5.500000000000001,4.3999999999999995
1698924437438.0,16,-0.9,-0.1,-0.30000000000000004,-0.30000000000000004,9.200000000000001,1.4000000000000001,-23.900000000000002,-4.2,-1.8
1698924437455.0,16,-0.7000000000000001,0.1,-0.5,-0.2,9.4,1.3,-20.3,-2.1,-3.3000000000000003
1698924437472.0,16,-0.6000000000000001,0.1,-0.9,0.0,9.4,0.9,-15.8,-2.6,-2.5
1698924437488.0,16,-0.7000000000000001,0.1,-0.8,-0.1,9.4,1.1,-11.9,-5.6,0.9
1698924437506.0,16,-0.7000000000000001,0.2,-0.7000000000000001,-0.1,9.4,1.1,-5.1,-8.9,2.6
1698924437522.0,16,-0.8,0.4,-0.7000000000000001,-0.2,9.700000000000001,1.1,-1.7,-10.1,2.3000000000000003
1698924437538.0,16,-1.1,0.7000000000000001,-0.8,-0.5,10.0,1.1,3.8,-11.4,0.30000000000000004
1698924437556.0,16,-1.2000000000000002,0.8,-0.7000000000000001,-0.6000000000000001,10.100000000000001,1.1,6.3,-10.9,-1.3
1698924437572.0,16,-1.1,1.0,-0.6000000000000001,-0.5,10.3,1.2000000000000002,11.2,-10.1,-5.300000000000001
1698924437588.0,16,-0.7000000000000001,1.0,-0.6000000000000001,-0.2,10.3,1.2000000000000002,15.7,-13.5,-9.1
1698924437606.0,16,-0.6000000000000001,0.8,-0.6000000000000001,0.0,10.200000000000001,1.1,16.400000000000002,-16.0,-9.600000000000001
1698924437622.0,16,-0.4,0.6000000000000001,-0.4,0.1,9.9,1.3,15.000000000000002,-17.8,-6.4
1698924437639.0,16,-0.5,0.6000000000000001,-0.30000000000000004,0.0,9.9,1.3,13.200000000000001,-11.8,-3.0000000000000004
1698924437655.0,16,-0.6000000000000001,0.6000000000000001,-0.5,-0.1,10.0,1.1,8.200000000000001,-10.2,-4.300000000000001
1698924437672.0,16,-0.6000000000000001,0.6000000000000001,-0.30000000000000004,-0.1,10.0,1.2000000000000002,4.800000000000001,-11.2,-6.6000000000000005
1698924437688.0,16,-0.5,0.6000000000000001,-0.30000000000000004,-0.1,10.0,1.2000000000000002,-0.5,-10.600000000000001,-10.600000000000001
1698924437705.0,16,-0.6000000000000001,0.5,-0.5,-0.2,9.9,1.1,-6.3,-4.6000000000000005,-12.700000000000001
1698924437722.0,16,-0.6000000000000001,0.5,-0.7000000000000001,-0.2,9.9,0.9,-10.3,-1.3,-12.9
1698924437738.0,16,-0.5,0.6000000000000001,-0.6000000000000001,-0.2,9.9,1.0,-17.5,0.7,-12.4
1698924437755.0,16,-0.5,0.5,-0.9,-0.2,9.8,0.8,-21.1,0.1,-10.3
1698924437771.0,16,-0.6000000000000001,0.4,-0.9,-0.30000000000000004,9.8,0.8,-22.5,-0.5,-8.5
1698924437788.0,16,-0.6000000000000001,0.2,-0.9,-0.4,9.600000000000001,0.8,-23.8,-1.6,-5.300000000000001
1698924437805.0,16,-0.6000000000000001,0.2,-0.9,-0.30000000000000004,9.5,0.9,-22.4,0.8,-5.8
1698924437822.0,16,-0.6000000000000001,0.30000000000000004,-0.6000000000000001,-0.30000000000000004,9.700000000000001,1.3,-20.7,3.5,-7.1000000000000005
1698924437838.0,16,-0.1,1.7000000000000002,0.9,0.1,11.100000000000001,2.8000000000000003,-4.3999999999999995,17.9,-14.100000000000001
1698924437855.0,16,0.2,2.0,0.8,0.4,11.4,2.7,24.3,36.2,-26.200000000000003
1698924437872.0,16,0.30000000000000004,1.3,-0.8,0.30000000000000004,10.600000000000001,1.0,31.0,34.1,-27.3
1698924437889.0,16,0.4,0.30000000000000004,-0.4,0.4,9.8,1.3,32.0,28.200000000000003,-18.6
1698924437905.0,16,0.4,0.1,0.0,0.30000000000000004,9.5,1.6,32.1,32.0,-12.3
1698924437922.0,16,-0.2,0.0,0.2,-0.30000000000000004,9.4,1.7000000000000002,33.300000000000004,46.2,-2.0
1698924437938.0,16,-0.7000000000000001,0.0,-0.2,-0.9,9.5,1.2000000000000002,30.599999999999998,52.6,5.0
1698924437955.0,16,-0.9,-0.1,-0.1,-1.0,9.3,1.3,24.200000000000003,36.3,8.3
1698924437972.0,16,-0.9,-0.2,0.4,-1.1,9.200000000000001,1.7000000000000002,22.000000000000004,26.6,8.200000000000001
1698924437989.0,16,-0.8,-0.7000000000000001,1.3,-1.0,8.8,2.5,22.900000000000002,19.3,5.2
1698924438015.0,16,-1.1,-1.3,2.2,-1.2000000000000002,8.200000000000001,3.3000000000000003,35.7,3.8,3.3000000000000003
1698924438021.0,16,-1.2000000000000002,-1.2000000000000002,2.7,-1.4000000000000001,8.3,3.7,41.300000000000004,-2.4000000000000004,5.9
1698924438039.0,16,-1.4000000000000001,-1.0,3.0,-1.5,8.5,4.0,46.800000000000004,-4.300000000000001,7.300000000000001
1698924438055.0,16,-1.2000000000000002,-0.5,3.1,-1.3,9.0,3.9000000000000004,52.400000000000006,-2.1,2.9
1698924438072.0,16,-0.6000000000000001,-0.4,2.5,-1.0,9.200000000000001,3.6,42.900000000000006,-9.1,-10.0
1698924438089.0,16,-0.4,-0.7000000000000001,2.3000000000000003,-0.5,8.8,3.0,30.9,-13.6,-15.5
1698924438105.0,16,0.1,-1.1,1.9000000000000001,-0.1,8.4,2.6,-2.9,-13.100000000000001,-17.1
1698924438122.0,16,0.7000000000000001,-1.0,1.7000000000000002,0.2,8.3,2.5,-19.9,-10.700000000000001,-13.8
1698924438140.0,16,0.7000000000000001,-0.8,1.6,0.5,8.700000000000001,2.4000000000000004,-42.800000000000004,-10.9,-5.500000000000001
1698924438155.0,16,0.4,-0.4,1.2000000000000002,0.2,9.1,2.2,-52.300000000000004,-16.3,2.5
1698924438172.0,16,-0.1,0.0,1.2000000000000002,-0.30000000000000004,9.5,2.4000000000000004,-52.0,-17.0,8.799999999999999
1698924438189.0,16,-0.2,0.4,1.4000000000000001,-0.5,9.8,2.7,-47.6,-14.600000000000001,8.9
1698924438206.0,16,-0.30000000000000004,0.7000000000000001,1.2000000000000002,-0.5,10.200000000000001,2.6,-31.5,-14.900000000000002,1.8
1698924438222.0,16,-0.30000000000000004,0.7000000000000001,0.8,-0.5,10.100000000000001,2.3000000000000003,-23.0,-17.8,-2.0
1698924438239.0,16,-0.1,0.2,0.4,-0.30000000000000004,9.600000000000001,1.9000000000000001,-11.700000000000001,-19.200000000000003,-5.500000000000001
1698924438255.0,16,0.30000000000000004,-0.30000000000000004,0.30000000000000004,0.1,9.1,1.9000000000000001,-5.6,-13.700000000000001,-2.7
1698924438272.0,16,0.5,-0.5,0.6000000000000001,0.2,8.9,2.0,-2.1999999999999997,-13.200000000000001,0.1
1698924438290.0,16,0.5,-0.5,0.6000000000000001,0.4,8.9,2.1,5.300000000000001,-15.9,6.7
1698924438305.0,16,0.5,-0.5,0.5,0.30000000000000004,8.9,2.0,9.1,-14.500000000000002,10.4
1698924438321.0,16,0.30000000000000004,-0.6000000000000001,0.4,0.2,8.8,1.8,6.9,-14.3,9.1
1698924438338.0,16,0.2,-0.6000000000000001,0.4,0.1,8.8,1.9000000000000001,3.8,-14.100000000000001,8.0
1698924438355.0,16,0.2,-0.5,0.4,0.2,8.9,1.9000000000000001,-4.1000000000000005,-9.9,5.500000000000001
1698924438371.0,16,0.4,-0.30000000000000004,0.2,0.4,9.0,1.7000000000000002,-13.0,-6.000000000000001,1.8
1698924438390.0,16,0.5,-0.30000000000000004,0.1,0.5,9.1,1.7000000000000002,-16.900000000000002,-3.7000000000000006,0.6000000000000001
1698924438405.0,16,0.5,-0.2,-0.1,0.5,9.1,1.5,-22.900000000000002,0.2,-0.30000000000000004
1698924438421.0,16,0.30000000000000004,-0.2,-0.2,0.30000000000000004,9.1,1.5,-26.0,4.800000000000001,1.0
1698924438438.0,16,0.2,-0.30000000000000004,-0.5,0.2,9.1,1.3,-26.400000000000002,7.1000000000000005,1.5000000000000002
1698924438455.0,16,0.2,-0.4,-0.7000000000000001,0.2,8.9,1.1,-27.1,9.9,-0.5
1698924438472.0,16,0.30000000000000004,-0.5,-0.6000000000000001,0.30000000000000004,8.8,1.3,-25.3,12.100000000000001,-4.1000000000000005
1698924438488.0,16,0.30000000000000004,-0.5,-0.5,0.30000000000000004,8.700000000000001,1.5,-22.3,14.600000000000001,-5.2
1698924438505.0,16,0.30000000000000004,-0.7000000000000001,-0.8,0.30000000000000004,8.5,1.2000000000000002,-15.6,20.7,-5.8
1698924438521.0,16,0.30000000000000004,-0.7000000000000001,-1.1,0.2,8.5,1.0,-12.4,19.400000000000002,-5.0
1698924438539.0,16,0.30000000000000004,-0.5,-0.9,0.2,8.700000000000001,1.1,-11.000000000000002,16.400000000000002,-4.300000000000001
1698924438556.0,16,0.0,0.0,-0.6000000000000001,-0.1,9.3,1.5,-5.0,13.3,-1.9
1698924438572.0,16,-0.5,0.4,-0.8,-0.4,9.5,1.4000000000000001,-1.2000000000000002,14.800000000000002,-0.4
1698924438589.0,16,-0.6000000000000001,0.6000000000000001,-0.8,-0.7000000000000001,9.8,1.2000000000000002,3.8,14.0,-0.7
1698924438606.0,16,-0.4,0.6000000000000001,-0.6000000000000001,-0.6000000000000001,9.8,1.4000000000000001,6.8,8.1,-4.7
1698924438622.0,16,-0.2,0.4,-0.6000000000000001,-0.4,9.700000000000001,1.4000000000000001,7.9,6.5,-6.1000000000000005
1698924438638.0,16,0.0,0.1,-0.7000000000000001,-0.2,9.3,1.3,6.7,5.7,-5.1
1698924438655.0,16,0.2,0.0,-0.8,0.0,9.200000000000001,1.2000000000000002,0.5,9.200000000000001,-2.1
1698924438672.0,16,0.6000000000000001,-0.2,-0.8,0.30000000000000004,9.1,1.1,-7.699999999999999,9.0,0.9
1698924438688.0,16,0.7000000000000001,-0.2,-0.8,0.4,9.0,1.2000000000000002,-11.3,6.1000000000000005,1.6
1698924438705.0,16,0.2,0.5,0.0,0.0,9.700000000000001,2.0,-14.700000000000001,6.4,6.6000000000000005
1698924438721.0,16,-0.2,1.3,-0.2,-0.30000000000000004,10.600000000000001,1.9000000000000001,-6.4,2.0,19.700000000000003
1698924438738.0,16,-0.4,0.8,-0.7000000000000001,-0.5,10.0,1.3,-5.300000000000001,-10.8,25.400000000000002
1698924438755.0,16,-0.30000000000000004,0.7000000000000001,-0.2,-0.30000000000000004,10.0,1.8,-5.7,-14.100000000000001,23.3
1698924438772.0,16,-0.30000000000000004,1.2000000000000002,0.0,-0.30000000000000004,10.4,2.1,2.1,-17.1,13.6
1698924438788.0,16,-0.4,1.4000000000000001,-0.4,-0.30000000000000004,10.700000000000001,1.6,4.6000000000000005,-15.5,9.4
1698924438805.0,16,-0.2,1.9000000000000001,-0.2,-0.2,11.200000000000001,1.9000000000000001,3.6,-10.3,4.300000000000001
1698924438822.0,16,-0.2,2.5,1.0,-0.1,11.9,3.0,13.200000000000001,-8.4,1.6
1698924438838.0,16,-0.2,2.7,1.0,-0.1,12.100000000000001,3.1,23.2,-9.9,2.6
1698924438855.0,16,-0.2,2.3000000000000003,1.0,-0.1,11.700000000000001,2.8000000000000003,38.0,-17.5,7.8
1698924438872.0,16,-0.30000000000000004,0.9,1.1,-0.1,10.3,2.8000000000000003,40.6,-11.5,8.0
1698924438888.0,16,0.30000000000000004,0.1,0.7000000000000001,0.5,9.5,2.3000000000000003,32.6,-1.4,-3.3000000000000003
1698924438905.0,16,0.5,0.1,0.7000000000000001,0.7000000000000001,9.5,2.3000000000000003,24.5,2.1,-9.1
1698924438924.0,16,0.7000000000000001,-0.1,1.4000000000000001,0.8,9.3,2.9000000000000004,9.9,4.9,-8.200000000000001
1698924438938.0,16,0.5,-0.8,1.0,0.6000000000000001,8.6,2.6,2.8,8.1,-1.0
1698924438955.0,16,0.30000000000000004,-1.2000000000000002,1.1,0.4,8.200000000000001,2.7,0.7,4.300000000000001,1.2000000000000002
1698924438971.0,16,-0.4,-1.8,1.7000000000000002,-0.30000000000000004,7.7,3.3000000000000003,3.6,4.6000000000000005,5.4
1698924438988.0,16,-1.2000000000000002,-1.4000000000000001,1.9000000000000001,-1.1,8.0,3.4000000000000004,14.100000000000001,12.100000000000001,10.8
1698924439005.0,16,-1.5,-1.1,2.0,-1.4000000000000001,8.3,3.5,19.500000000000004,12.9,11.3
1698924439022.0,16,-1.5,-0.9,2.2,-1.3,8.5,3.7,29.000000000000004,10.600000000000001,8.700000000000001
1698924439038.0,16,-1.2000000000000002,-0.9,2.2,-1.1,8.5,3.6,32.0,11.9,4.3999999999999995
1698924439056.0,16,-1.0,-1.0,2.1,-0.9,8.5,3.4000000000000004,30.100000000000005,12.9,3.1
1698924439072.0,16,-0.9,-0.8,1.9000000000000001,-0.7000000000000001,8.700000000000001,3.1,19.6,11.4,3.0000000000000004
1698924439089.0,16,-0.9,-0.6000000000000001,1.8,-0.7000000000000001,8.9,3.0,6.2,6.3,6.7
1698924439105.0,16,-0.9,-0.6000000000000001,1.6,-0.7000000000000001,8.9,2.9000000000000004,-0.2,4.3999999999999995,8.799999999999999
1698924439122.0,16,-1.1,-0.6000000000000001,1.4000000000000001,-0.9,8.8,2.7,-10.8,1.6,9.3
1698924439139.0,16,-1.2000000000000002,-0.6000000000000001,1.3,-0.9,8.8,2.7,-14.900000000000002,4.1000000000000005,5.500000000000001
1698924439155.0,16,-1.2000000000000002,-0.6000000000000001,1.1,-1.0,8.9,2.5,-14.600000000000001,6.5,3.2
1698924439172.0,16,-0.9,-0.4,0.8,-0.7000000000000001,9.0,2.2,-12.8,5.1,-1.3
1698924439189.0,16,-0.5,-0.4,0.8,-0.5,9.0,2.2,-10.8,2.9,-3.0000000000000004
1698924439205.0,16,-0.5,-0.4,0.8,-0.30000000000000004,9.0,2.3000000000000003,-4.3999999999999995,2.9,-4.3999999999999995
1698924439222.0,16,-0.5,-0.5,0.4,-0.30000000000000004,8.9,1.9000000000000001,0.9,7.8,-2.0
1698924439239.0,16,-0.5,-0.5,0.30000000000000004,-0.4,8.9,1.8,2.1,9.3,-0.30000000000000004
1698924439256.0,16,-0.6000000000000001,-0.4,0.30000000000000004,-0.5,8.9,1.8,2.8,9.3,0.0
1698924439272.0,16,-0.6000000000000001,-0.30000000000000004,0.30000000000000004,-0.5,9.1,1.8,4.0,10.3,0.1
1698924439289.0,16,-0.7000000000000001,-0.2,0.1,-0.5,9.200000000000001,1.5,3.0000000000000004,8.700000000000001,0.6000000000000001
1698924439305.0,16,-0.6000000000000001,-0.2,0.0,-0.5,9.200000000000001,1.5,1.0,7.9,0.9
1698924439322.0,16,-0.5,-0.2,-0.1,-0.4,9.200000000000001,1.4000000000000001,-4.1000000000000005,6.7,0.30000000000000004
1698924439338.0,16,-0.5,0.0,-0.30000000000000004,-0.4,9.4,1.2000000000000002,-8.9,4.300000000000001,0.5
1698924439355.0,16,-0.5,0.0,-0.30000000000000004,-0.4,9.4,1.2000000000000002,-11.4,3.5,1.0999999999999999
1698924439372.0,16,-0.5,-0.1,-0.4,-0.4,9.3,1.2000000000000002,-15.100000000000001,4.1000000000000005,3.3000000000000003
1698924439388.0,16,-0.30000000000000004,-0.2,-0.5,-0.2,9.1,1.1,-16.400000000000002,4.2,4.800000000000001
1698924439405.0,16,-0.2,-0.30000000000000004,-0.6000000000000001,-0.1,9.0,1.0,-17.0,4.2,5.6
1698924439422.0,16,-0.30000000000000004,-0.5,-0.9,-0.2,8.9,0.8,-19.1,4.2,8.3
1698924439438.0,16,-0.5,-0.5,-0.9,-0.30000000000000004,8.8,0.8,-20.3,4.0,10.3
1698924439455.0,16,-0.6000000000000001,-0.6000000000000001,-1.0,-0.4,8.700000000000001,0.8,-20.3,0.4,14.200000000000001
1698924439472.0,16,-0.8,-0.6000000000000001,-1.1,-0.6000000000000001,8.700000000000001,0.7000000000000001,-19.9,-4.6000000000000005,16.700000000000003
1698924439489.0,16,-0.9,-0.5,-1.2000000000000002,-0.6000000000000001,8.8,0.7000000000000001,-17.7,-12.200000000000001,17.599999999999998
1698924439505.0,16,-1.0,-0.30000000000000004,-1.1,-0.6000000000000001,8.9,0.8,-14.800000000000002,-19.400000000000002,17.400000000000002
1698924439522.0,16,-0.9,-0.30000000000000004,-1.0,-0.5,9.0,0.9,-12.4,-21.900000000000002,17.1
1698924439538.0,16,-0.7000000000000001,-0.1,-0.8,-0.2,9.200000000000001,1.1,-5.300000000000001,-22.8,13.9
1698924439555.0,16,-0.4,0.2,-0.7000000000000001,0.1,9.5,1.2000000000000002,2.6,-16.1,8.4
1698924439572.0,16,-0.2,0.4,-0.7000000000000001,0.30000000000000004,9.600000000000001,1.2000000000000002,6.5,-11.5,5.4
1698924439589.0,16,0.2,0.5,-0.8,0.7000000000000001,9.8,1.0,11.5,-5.9,1.7
1698924439605.0,16,0.30000000000000004,0.5,-0.9,0.8,9.8,1.0,11.4,-5.6,3.3000000000000003
1698924439622.0,16,0.2,0.5,-0.9,0.8,9.8,0.9,10.0,-4.7,4.3999999999999995
1698924439638.0,16,-0.4,0.30000000000000004,-1.4000000000000001,0.2,9.5,0.4,2.5,-1.2000000000000002,5.0
1698924439655.0,16,-0.7000000000000001,0.2,-1.5,-0.2,9.5,0.30000000000000004,-3.8,1.4,4.7
1698924439672.0,16,-1.0,0.4,-1.2000000000000002,-0.5,9.700000000000001,0.6000000000000001,-14.700000000000001,2.1,2.3000000000000003
1698924439688.0,16,-0.8,1.2000000000000002,0.2,-0.30000000000000004,10.4,2.0,-11.700000000000001,-3.2,-3.5
1698924439705.0,16,-0.7000000000000001,1.4000000000000001,0.5,-0.1,10.700000000000001,2.4000000000000004,-2.9,1.0,-9.600000000000001
1698924439724.0,16,-0.6000000000000001,0.7000000000000001,-0.9,-0.2,10.0,0.9,10.700000000000001,26.700000000000003,-24.8
1698924439739.0,16,-0.2,0.5,-0.6000000000000001,0.1,9.8,1.2000000000000002,10.8,22.4,-27.1
1698924439755.0,16,0.1,0.5,0.30000000000000004,0.4,9.8,2.0,14.100000000000001,15.2,-28.200000000000003
1698924439772.0,16,0.0,1.0,1.4000000000000001,0.2,10.4,3.1,32.1,18.1,-25.0
1698924439788.0,16,-0.5,2.0,0.4,-0.4,11.4,1.9000000000000001,46.2,31.7,-13.8
1698924439805.0,16,-0.5,2.4000000000000004,-0.1,-0.5,11.8,1.4000000000000001,45.0,31.900000000000002,-10.4
1698924439822.0,16,0.0,2.2,-0.30000000000000004,0.0,11.700000000000001,1.1,31.8,30.599999999999998,-11.6
1698924439838.0,16,0.1,1.0,0.1,0.0,10.4,1.4000000000000001,12.9,37.4,-11.9
1698924439855.0,16,0.0,1.4000000000000001,1.3,-0.1,10.4,2.1,3.6,48.50000000000001,-7.8
1698924439872.0,16,0.1,1.2000000000000002,0.7000000000000001,0.0,10.700000000000001,2.0,5.4,47.800000000000004,-9.3
1698924439889.0,16,-0.1,0.30000000000000004,0.0,-0.2,9.8,1.3,2.1999999999999997,17.3,-8.3
1698924439905.0,16,-0.9,-0.5,1.4000000000000001,-1.1,9.0,2.7,-0.1,11.8,-0.5
1698924439922.0,16,-1.3,-0.8,1.8,-1.4000000000000001,8.700000000000001,3.1,4.6000000000000005,21.5,3.1
1698924439938.0,16,-1.7000000000000002,-1.2000000000000002,1.4000000000000001,-1.8,8.3,2.6,17.5,28.1,3.7000000000000006
1698924439955.0,16,-1.3,-1.1,1.8,-1.5,8.3,3.0,28.1,7.699999999999999,-2.3000000000000003
1698924439972.0,16,-0.6000000000000001,-0.9,2.8000000000000003,-0.8,8.6,3.9000000000000004,41.1,-14.800000000000002,-9.4
1698924439989.0,16,-0.2,-0.9,3.1,-0.5,8.6,4.1000000000000005,47.1,-22.000000000000004,-10.0
1698924440006.0,16,0.0,-0.9,3.1,-0.30000000000000004,8.6,4.0,50.300000000000004,-25.400000000000002,-8.9
1698924440022.0,16,0.4,-0.8,2.6,0.1,8.700000000000001,3.4000000000000004,42.0,-24.200000000000003,-6.3
1698924440038.0,16,0.7000000000000001,-0.6000000000000001,2.2,0.4,8.9,2.9000000000000004,13.3,-21.1,-5.6
1698924440055.0,16,0.7000000000000001,-0.1,2.0,0.4,9.200000000000001,2.9000000000000004,-4.0,-20.0,-5.2
1698924440073.0,16,0.6000000000000001,0.1,1.9000000000000001,0.30000000000000004,9.600000000000001,2.8000000000000003,-31.5,-18.0,-4.7
1698924440089.0,16,0.5,0.1,1.4000000000000001,0.2,9.600000000000001,2.4000000000000004,-45.1,-13.700000000000001,-4.3999999999999995
1698924440106.0,16,0.5,-0.4,0.8,0.2,9.4,2.2,-49.4,-11.4,-2.1999999999999997
1698924440122.0,16,0.6000000000000001,-0.9,0.6000000000000001,0.30000000000000004,8.8,2.0,-49.0,-10.9,-0.8
1698924440139.0,16,0.6000000000000001,-1.0,0.6000000000000001,0.30000000000000004,8.4,2.0,-42.5,-6.8,1.7
1698924440156.0,16,0.5,-1.1,0.4,0.30000000000000004,8.3,2.0,-37.1,-4.800000000000001,2.8
1698924440173.0,16,0.4,-1.0,0.4,0.2,8.4,2.0,-23.0,-5.7,5.500000000000001
1698924440189.0,16,0.30000000000000004,-0.7000000000000001,0.7000000000000001,0.1,8.700000000000001,2.4000000000000004,-4.0,-10.700000000000001,7.0
1698924440205.0,16,0.4,-0.5,0.7000000000000001,0.2,8.9,2.3000000000000003,16.900000000000002,-10.9,6.6000000000000005
1698924440222.0,16,0.4,-0.5,0.7000000000000001,0.2,8.9,2.2,25.2,-9.700000000000001,6.1000000000000005
1698924440239.0,16,0.4,-0.4,0.7000000000000001,0.30000000000000004,9.0,2.1,34.800000000000004,-7.1000000000000005,5.4
1698924440255.0,16,0.5,-0.4,0.9,0.4,9.0,2.3000000000000003,37.300000000000004,-2.7,4.800000000000001
1698924440272.0,16,0.6000000000000001,-0.30000000000000004,0.6000000000000001,0.5,9.1,1.8,31.900000000000002,1.7,4.7
1698924440288.0,16,0.7000000000000001,-0.30000000000000004,0.4,0.6000000000000001,9.200000000000001,1.6,25.400000000000002,1.0,4.7
1698924440305.0,16,0.7000000000000001,-0.2,0.4,0.6000000000000001,9.200000000000001,1.6,7.400000000000001,0.8,4.800000000000001
1698924440322.0,16,0.7000000000000001,-0.2,0.4,0.6000000000000001,9.200000000000001,1.6,-1.7,3.7000000000000006,5.1
1698924440339.0,16,0.6000000000000001,-0.4,0.30000000000000004,0.6000000000000001,9.1,1.5,-16.2,7.8,5.0
1698924440355.0,16,0.30000000000000004,-0.6000000000000001,0.0,0.30000000000000004,8.8,1.3,-26.0,7.300000000000001,6.1000000000000005
1698924440373.0,16,0.2,-0.7000000000000001,-0.1,0.2,8.700000000000001,1.3,-29.200000000000003,7.9,6.8
1698924440388.0,16,0.1,-0.8,-0.2,0.1,8.6,1.3,-31.900000000000002,11.000000000000002,7.0
1698924440405.0,16,0.2,-0.6000000000000001,-0.30000000000000004,0.2,8.700000000000001,1.3,-30.000000000000004,15.000000000000002,2.7
1698924440422.0,16,0.2,-0.5,-0.4,0.30000000000000004,8.9,1.2000000000000002,-27.900000000000002,17.1,-0.8
1698924440439.0,16,0.30000000000000004,-0.1,-0.7000000000000001,0.30000000000000004,9.200000000000001,1.0,-23.5,20.0,-7.0
1698924440455.0,16,0.4,0.1,-0.7000000000000001,0.30000000000000004,9.4,1.0,-18.6,20.0,-9.200000000000001
1698924440472.0,16,0.30000000000000004,0.1,-0.7000000000000001,0.2,9.4,1.1,-15.5,19.0,-9.1
1698924440489.0,16,0.0,0.0,-0.5,-0.1,9.3,1.3,-7.300000000000001,18.1,-6.8
1698924440505.0,16,-0.2,0.0,-0.5,-0.30000000000000004,9.3,1.3,2.6,22.5,-5.300000000000001
1698924440521.0,16,-0.2,0.0,-0.7000000000000001,-0.4,9.3,1.1,10.1,22.8,-7.300000000000001
1698924440539.0,16,-0.2,0.0,-0.6000000000000001,-0.4,9.3,1.1,12.4,19.0,-8.200000000000001
1698924440555.0,16,-0.1,0.1,-0.4,-0.30000000000000004,9.4,1.2000000000000002,16.2,7.400000000000001,-7.500000000000001
1698924440571.0,16,0.0,0.2,-0.6000000000000001,-0.2,9.5,1.0,15.399999999999999,0.8,-4.7
1698924440588.0,16,0.1,0.2,-0.8,-0.2,9.600000000000001,0.8,11.9,1.7,-3.9
1698924440605.0,16,0.30000000000000004,0.4,-1.3,0.0,9.8,0.30000000000000004,-1.2000000000000002,5.7,-3.8
1698924440622.0,16,0.6000000000000001,0.5,-1.2000000000000002,0.30000000000000004,9.8,0.4,-15.5,6.2,-3.6
1698924440640.0,16,0.7000000000000001,0.5,-1.1,0.4,9.8,0.6000000000000001,-20.0,6.000000000000001,-3.5
1698924440655.0,16,0.6000000000000001,0.4,-1.0,0.4,9.700000000000001,0.7000000000000001,-24.7,12.100000000000001,-1.4
1698924440672.0,16,0.6000000000000001,0.4,-1.0,0.4,9.700000000000001,0.7000000000000001,-26.0,17.3,0.30000000000000004
1698924440688.0,16,0.5,0.30000000000000004,-1.1,0.2,9.600000000000001,0.7000000000000001,-26.0,20.8,3.6
1698924440705.0,16,0.30000000000000004,0.30000000000000004,-0.8,0.1,9.5,1.1,-22.8,16.5,5.500000000000001
1698924440722.0,16,0.0,0.7000000000000001,-0.2,-0.30000000000000004,10.0,1.7000000000000002,-18.5,16.2,7.699999999999999
1698924440739.0,16,-0.6000000000000001,1.6,0.0,-0.8,10.9,2.0,1.0,14.0,20.8
1698924440756.0,16,-0.8,1.3,-1.0,-0.9,10.600000000000001,0.8,12.9,-0.9,25.3
1698924440772.0,16,-0.30000000000000004,1.1,-0.5,-0.4,10.5,1.3,13.700000000000001,-10.8,15.299999999999999
1698924440789.0,16,-0.2,1.2000000000000002,-0.30000000000000004,-0.2,10.5,1.5,14.900000000000002,-13.3,7.500000000000001
1698924440805.0,16,0.1,1.0,-0.4,0.0,10.3,1.3,14.700000000000001,-9.0,-1.6
1698924440821.0,16,-0.1,0.9,-0.4,-0.2,10.3,1.3,6.5,-0.5,-0.2
1698924440838.0,16,-0.4,2.2,1.4000000000000001,-0.4,11.600000000000001,3.1,9.4,-11.000000000000002,12.700000000000001
1698924440854.0,16,-0.4,2.8000000000000003,1.6,-0.4,12.200000000000001,3.3000000000000003,19.6,-18.900000000000002,19.9
1698924440871.0,16,-0.6000000000000001,2.3000000000000003,1.1,-0.5,11.700000000000001,2.7,32.800000000000004,-27.2,25.0
1698924440888.0,16,-0.30000000000000004,1.3,0.9,0.30000000000000004,9.700000000000001,2.0,27.900000000000002,-27.2,13.200000000000001
1698924440905.0,16,0.5,-0.6000000000000001,0.2,0.7000000000000001,8.8,1.7000000000000002,18.8,-24.5,0.6000000000000001
1698924440921.0,16,0.8,-1.4000000000000001,0.4,1.0,8.1,1.8,-6.1000000000000005,-11.000000000000002,-15.6
1698924440939.0,16,0.9,-1.3,0.7000000000000001,1.0,8.200000000000001,2.2,-15.6,-2.4000000000000004,-16.400000000000002
1698924440955.0,16,0.6000000000000001,-1.0,1.2000000000000002,0.7000000000000001,8.5,2.7,-19.400000000000002,2.5,-6.5
1698924440972.0,16,0.0,-0.9,1.6,0.1,8.5,3.2,-7.0,-1.8,8.600000000000001
1698924440990.0,16,-0.5,-1.0,1.5,-0.2,8.5,3.2,0.9,1.5000000000000002,12.200000000000001
1698924441005.0,16,-0.6000000000000001,-1.2000000000000002,1.7000000000000002,-0.5,8.200000000000001,3.3000000000000003,13.5,5.500000000000001,8.700000000000001
1698924441022.0,16,-0.6000000000000001,-1.1,2.0,-0.5,8.3,3.6,22.900000000000002,4.9,2.7
1698924441040.0,16,-0.6000000000000001,-0.8,2.1,-0.4,8.4,3.6,25.5,4.300000000000001,1.4
1698924441056.0,16,-0.5,-0.7000000000000001,2.1,-0.4,8.700000000000001,3.5,23.3,3.2,1.0999999999999999
1698924441072.0,16,-0.4,-0.7000000000000001,1.9000000000000001,-0.30000000000000004,8.700000000000001,3.3000000000000003,11.3,2.5,1.6
1698924441090.0,16,-0.5,-0.6000000000000001,1.7000000000000002,-0.4,8.8,3.2,-6.4,1.3,2.8
1698924441105.0,16,-0.6000000000000001,-0.5,1.6,-0.4,8.9,3.1,-14.500000000000002,1.2000000000000002,3.7000000000000006
1698924441122.0,16,-0.6000000000000001,-0.5,1.3,-0.4,8.9,2.8000000000000003,-26.8,-0.4,5.500000000000001
1698924441139.0,16,-0.5,-0.4,1.1,-0.30000000000000004,9.0,2.7,-29.400000000000002,-2.3000000000000003,6.3
1698924441155.0,16,-0.4,-0.2,0.7000000000000001,-0.2,9.1,2.4000000000000004,-28.700000000000003,-6.7,5.8
1698924441172.0,16,-0.4,-0.2,0.6000000000000001,-0.2,9.200000000000001,2.3000000000000003,-24.3,-8.799999999999999,4.3999999999999995
1698924441189.0,16,-0.5,-0.1,0.4,-0.30000000000000004,9.200000000000001,2.2,-20.900000000000002,-9.200000000000001,3.8
1698924441205.0,16,-0.6000000000000001,0.1,0.5,-0.4,9.4,2.3000000000000003,-11.1,-8.1,2.3000000000000003
1698924441222.0,16,-0.7000000000000001,0.1,0.4,-0.5,9.4,2.3000000000000003,0.4,-7.500000000000001,-0.5
1698924441239.0,16,-0.7000000000000001,0.0,0.4,-0.5,9.3,2.3000000000000003,5.500000000000001,-8.5,-2.7
1698924441255.0,16,-0.8,-0.30000000000000004,0.4,-0.6000000000000001,9.0,2.2,11.9,-11.700000000000001,-5.7
1698924441272.0,16,-0.7000000000000001,-0.4,0.5,-0.5,8.9,2.3000000000000003,12.9,-15.100000000000001,-7.0
1698924441289.0,16,-0.6000000000000001,-0.4,0.5,-0.5,8.9,2.3000000000000003,12.100000000000001,-15.9,-7.2
1698924441305.0,16,-0.6000000000000001,-0.4,0.4,-0.5,8.9,2.1,6.4,-17.200000000000003,-6.7
1698924441321.0,16,-0.6000000000000001,-0.5,0.4,-0.5,8.9,2.1,-1.4,-18.8,-6.3
1698924441339.0,16,-0.5,-0.30000000000000004,0.30000000000000004,-0.4,8.9,2.1,-4.6000000000000005,-18.400000000000002,-6.4
1698924441355.0,16,-0.4,-0.30000000000000004,0.2,-0.30000000000000004,9.0,2.0,-8.3,-18.400000000000002,-6.8
1698924441372.0,16,-0.4,-0.30000000000000004,0.0,-0.30000000000000004,9.1,1.8,-9.5,-19.9,-6.8
1698924441388.0,16,-0.4,-0.1,0.0,-0.30000000000000004,9.3,1.9000000000000001,-9.3,-24.400000000000002,-3.8
1698924441405.0,16,-0.4,-0.1,0.0,-0.30000000000000004,9.3,1.9000000000000001,-7.500000000000001,-26.400000000000002,-3.3000000000000003
1698924441422.0,16,-0.30000000000000004,-0.30000000000000004,-0.30000000000000004,-0.2,9.0,1.6,-3.9,-32.0,-3.4
1698924441439.0,16,-0.4,-0.6000000000000001,-0.2,-0.30000000000000004,8.700000000000001,1.7000000000000002,-1.5000000000000002,-34.1,-4.7
1698924441455.0,16,-0.4,-0.5,-0.2,-0.30000000000000004,8.8,1.7000000000000002,0.1,-32.7,-5.6
1698924441472.0,16,-0.30000000000000004,-0.30000000000000004,-0.30000000000000004,-0.2,9.0,1.6,3.0000000000000004,-31.4,-8.0
1698924441489.0,16,-0.2,-0.2,-0.4,-0.1,9.1,1.5,4.2,-35.7,-7.9
1698924441505.0,16,-0.30000000000000004,-0.2,-0.30000000000000004,-0.2,9.1,1.6,4.7,-37.300000000000004,-6.5
1698924441522.0,16,-0.30000000000000004,-0.30000000000000004,-0.30000000000000004,-0.2,9.0,1.5,5.8,-36.800000000000004,-3.9
1698924441538.0,16,-0.30000000000000004,-0.5,-0.5,-0.1,8.8,1.3,5.500000000000001,-41.2,-3.1
1698924441555.0,16,-0.2,-0.5,-0.5,-0.1,8.8,1.3,4.7,-43.6,-2.7
1698924441571.0,16,-0.1,-0.5,-0.30000000000000004,0.0,8.8,1.4000000000000001,3.8,-44.9,-2.5
1698924441589.0,16,-0.1,-0.30000000000000004,-0.30000000000000004,0.1,9.0,1.5,4.7,-42.1,-3.2
1698924441605.0,16,0.0,-0.2,-0.4,0.2,9.1,1.4000000000000001,5.4,-40.2,-3.5
1698924441622.0,16,0.1,-0.2,-0.30000000000000004,0.30000000000000004,9.1,1.4000000000000001,6.5,-38.1,-4.0
1698924441638.0,16,0.2,-0.2,-0.2,0.4,9.1,1.5,8.5,-35.9,-3.1
1698924441655.0,16,0.2,-0.2,-0.30000000000000004,0.5,9.1,1.4000000000000001,9.0,-34.50000000000001,-2.4000000000000004
1698924441672.0,16,0.1,-0.1,-0.1,0.4,9.3,1.5,8.799999999999999,-31.900000000000002,-0.8
1698924441690.0,16,-0.1,0.30000000000000004,0.1,0.30000000000000004,9.4,1.6,8.600000000000001,-30.299999999999997,-0.7
1698924441705.0,16,-0.2,0.5,-0.30000000000000004,0.0,9.8,1.3,6.000000000000001,-27.6,-2.8
1698924441722.0,16,-0.30000000000000004,0.4,-0.5,-0.1,9.700000000000001,1.0,2.4000000000000004,-28.700000000000003,-3.2
1698924441739.0,16,-0.6000000000000001,0.1,-0.6000000000000001,-0.30000000000000004,9.4,1.0,-8.799999999999999,-29.700000000000003,-2.3000000000000003
1698924441755.0,16,-0.5,0.0,-0.6000000000000001,-0.30000000000000004,9.4,1.0,-13.200000000000001,-29.400000000000002,-2.7
1698924441772.0,16,-0.30000000000000004,-0.1,-0.9,0.0,9.200000000000001,0.8,-18.6,-33.2,-3.6
1698924441805.0,16,-0.1,0.0,-1.2000000000000002,0.1,9.3,0.5,-25.8,-36.0,-1.2000000000000002
1698924441822.0,16,-0.30000000000000004,0.30000000000000004,-1.1,0.0,9.600000000000001,0.7000000000000001,-28.0,-38.800000000000004,2.5
1698924441838.0,16,-0.4,0.9,-0.5,-0.1,10.200000000000001,1.4000000000000001,-23.5,-40.8,4.5
1698924441854.0,16,-0.2,1.6,-0.1,0.1,10.9,1.9000000000000001,-8.700000000000001,-37.2,-1.0
1698924441871.0,16,-0.30000000000000004,1.6,-0.2,0.1,10.9,1.7000000000000002,-0.4,-31.099999999999998,-6.3
1698924441888.0,16,-0.30000000000000004,1.0,-0.7000000000000001,0.0,10.3,1.2000000000000002,9.0,-21.6,-13.200000000000001
1698924441904.0,16,0.0,0.9,-0.30000000000000004,0.30000000000000004,10.200000000000001,1.6,15.100000000000001,-23.400000000000002,-14.700000000000001
1698924441922.0,16,0.0,0.8,-0.4,0.30000000000000004,10.100000000000001,1.4000000000000001,18.2,-23.900000000000002,-14.600000000000001
1698924441938.0,16,-0.30000000000000004,0.2,-0.9,0.0,9.5,0.9,15.399999999999999,-29.1,-9.3
1698924441955.0,16,-0.30000000000000004,0.4,-0.4,-0.1,9.8,1.4000000000000001,11.700000000000001,-31.5,-5.500000000000001
1698924441972.0,16,-0.4,1.4000000000000001,0.5,-0.2,10.8,2.2,13.8,-27.5,-7.1000000000000005
1698924441988.0,16,-0.4,1.8,0.2,-0.2,11.100000000000001,1.9000000000000001,18.8,-30.7,-12.4
1698924442006.0,16,-0.30000000000000004,1.5,0.30000000000000004,-0.1,10.9,1.9000000000000001,16.2,-37.900000000000006,-16.3
1698924442022.0,16,-0.2,0.6000000000000001,0.1,0.0,10.0,1.7000000000000002,12.4,-38.300000000000004,-17.400000000000002
1698924442039.0,16,-0.2,-0.30000000000000004,-0.6000000000000001,-0.1,9.200000000000001,0.9,-2.3000000000000003,-34.1,-17.7
1698924442055.0,16,-0.4,-0.2,-0.7000000000000001,-0.2,9.1,0.7000000000000001,-20.7,-38.5,-15.399999999999999
1698924442073.0,16,-0.5,0.0,-0.6000000000000001,-0.4,9.4,1.0,-26.3,-43.300000000000004,-14.3
1698924442089.0,16,-0.7000000000000001,0.30000000000000004,-0.30000000000000004,-0.6000000000000001,9.700000000000001,1.4000000000000001,-27.7,-52.400000000000006,-13.4
1698924442105.0,16,-0.9,0.2,-0.1,-0.9,9.5,1.7000000000000002,-19.8,-57.6,-13.9
1698924442122.0,16,-0.9,0.0,-0.1,-0.8,9.4,1.8,-13.9,-57.400000000000006,-15.6
1698924442138.0,16,-0.6000000000000001,-0.4,-0.30000000000000004,-0.6000000000000001,9.0,1.5,-1.5000000000000002,-59.9,-22.6
1698924442155.0,16,-0.5,-0.5,-0.2,-0.5,8.9,1.6,8.1,-73.30000000000001,-24.6
1698924442171.0,16,-0.5,-0.30000000000000004,0.0,-0.5,9.0,1.8,12.100000000000001,-77.3,-23.0
1698924442188.0,16,-0.7000000000000001,0.0,0.1,-0.7000000000000001,9.3,1.8,18.7,-80.7,-20.1
1698924442205.0,16,-0.7000000000000001,0.1,0.0,-0.8,9.5,1.7000000000000002,20.2,-86.2,-20.6
1698924442221.0,16,-0.7000000000000001,0.1,0.0,-0.8,9.5,1.7000000000000002,18.8,-90.30000000000001,-21.8
1698924442239.0,16,-0.5,0.2,0.2,-0.6000000000000001,9.600000000000001,1.8,12.9,-101.60000000000001,-24.3
1698924442255.0,16,-0.2,0.30000000000000004,0.2,-0.30000000000000004,9.700000000000001,1.8,4.300000000000001,-112.0,-25.2
1698924442272.0,16,0.0,0.30000000000000004,0.1,-0.1,9.700000000000001,1.7000000000000002,-1.0,-115.2,-25.5
1698924442288.0,16,0.2,0.30000000000000004,-0.1,0.0,9.700000000000001,1.6,-12.8,-119.89999999999999,-25.400000000000002
1698924442305.0,16,0.30000000000000004,0.2,0.0,0.1,9.5,1.7000000000000002,-22.2,-124.8,-24.5
1698924442322.0,16,0.30000000000000004,0.1,0.1,0.1,9.4,1.8,-24.400000000000002,-126.4,-23.8
1698924442338.0,16,0.1,-0.30000000000000004,0.0,-0.1,9.0,1.8,-25.1,-126.8,-22.7
1698924442355.0,16,0.1,-0.7000000000000001,-0.4,-0.1,8.700000000000001,1.6,-24.5,-129.5,-24.400000000000002
1698924442372.0,16,0.1,-0.7000000000000001,-0.4,0.0,8.6,1.5,-23.8,-133.3,-26.3
1698924442389.0,16,0.30000000000000004,-0.7000000000000001,-0.4,0.1,8.6,1.6,-21.0,-140.0,-28.900000000000002
1698924442405.0,16,0.30000000000000004,-0.6000000000000001,-0.4,0.1,8.700000000000001,1.6,-18.900000000000002,-141.5,-29.800000000000004
1698924442422.0,16,0.5,-0.30000000000000004,-0.6000000000000001,0.30000000000000004,9.0,1.5,-15.2,-142.60000000000002,-32.0
1698924442438.0,16,0.6000000000000001,0.0,-0.7000000000000001,0.4,9.200000000000001,1.5,-12.5,-142.0,-34.6
1698924442455.0,16,0.7000000000000001,0.1,-0.7000000000000001,0.5,9.3,1.5,-11.1,-141.4,-35.199999999999996
1698924442472.0,16,0.7000000000000001,0.2,-0.7000000000000001,0.6000000000000001,9.5,1.5,-8.1,-140.3,-34.800000000000004
1698924442488.0,16,0.8,0.30000000000000004,-0.8,0.6000000000000001,9.5,1.4000000000000001,-5.6,-141.9,-31.7
1698924442505.0,16,0.6000000000000001,0.2,-0.9,0.5,9.4,1.3,-5.0,-142.3,-28.200000000000003
1698924442522.0,16,0.6000000000000001,0.1,-0.9,0.5,9.4,1.4000000000000001,-5.500000000000001,-140.7,-28.1
1698924442538.0,16,0.5,0.1,-0.7000000000000001,0.4,9.4,1.5,-5.0,-141.70000000000002,-28.200000000000003
1698924442554.0,16,0.6000000000000001,-0.1,-0.7000000000000001,0.5,9.200000000000001,1.5,-4.5,-141.0,-27.6
1698924442571.0,16,0.6000000000000001,-0.30000000000000004,-0.8,0.5,8.9,1.5,-5.6,-138.10000000000002,-27.0
1698924442588.0,16,0.5,-0.30000000000000004,-0.8,0.6000000000000001,8.9,1.5,-6.6000000000000005,-137.5,-26.9
1698924442605.0,16,0.5,-0.2,-0.8,0.5,9.0,1.5,-8.700000000000001,-136.9,-26.0
1698924442622.0,16,0.4,0.0,-0.9,0.4,9.200000000000001,1.5,-10.700000000000001,-135.5,-25.1
1698924442639.0,16,0.30000000000000004,0.2,-0.8,0.4,9.4,1.5,-11.700000000000001,-134.70000000000002,-25.2
1698924442655.0,16,0.1,0.30000000000000004,-0.7000000000000001,0.30000000000000004,9.5,1.6,-11.8,-134.1,-26.0
1698924442672.0,16,0.1,0.4,-0.7000000000000001,0.2,9.600000000000001,1.7000000000000002,-11.2,-133.8,-26.3
1698924442688.0,16,-0.1,0.30000000000000004,-0.6000000000000001,0.1,9.5,1.8,-9.8,-131.9,-26.6
1698924442705.0,16,-0.2,0.4,-0.5,0.0,9.600000000000001,1.9000000000000001,-7.6,-132.0,-26.9
1698924442721.0,16,-0.30000000000000004,0.6000000000000001,-0.2,-0.1,9.700000000000001,2.1,-6.2,-133.0,-26.9
1698924442740.0,16,-0.4,0.6000000000000001,-0.2,-0.2,9.700000000000001,2.2,-3.7000000000000006,-137.3,-26.3
1698924442755.0,16,-0.7000000000000001,0.4,-0.2,-0.4,9.600000000000001,2.3000000000000003,-4.1000000000000005,-143.0,-26.400000000000002
1698924442772.0,16,-1.0,0.2,-0.2,-0.6000000000000001,9.5,2.2,-6.4,-143.6,-27.6
1698924442789.0,16,-0.9,0.2,-0.30000000000000004,-0.7000000000000001,9.4,2.1,-15.7,-140.6,-31.8
1698924442805.0,16,-0.7000000000000001,0.1,-0.5,-0.5,9.3,2.0,-28.8,-135.1,-38.6
1698924442821.0,16,0.0,0.30000000000000004,-0.4,-0.2,9.3,2.2,-38.2,-131.5,-42.5
1698924442838.0,16,0.2,0.5,-0.4,0.5,9.600000000000001,2.2,-40.1,-130.0,-42.5
1698924442855.0,16,0.30000000000000004,0.6000000000000001,-0.7000000000000001,0.6000000000000001,9.700000000000001,2.1,-41.800000000000004,-121.30000000000001,-39.2
1698924442872.0,16,0.4,0.6000000000000001,-0.6000000000000001,0.6000000000000001,9.600000000000001,2.3000000000000003,-39.2,-108.6,-34.900000000000006
1698924442888.0,16,0.5,0.5,-0.7000000000000001,0.7000000000000001,9.600000000000001,2.3000000000000003,-35.8,-101.8,-34.0
1698924442905.0,16,0.5,0.5,-0.6000000000000001,0.7000000000000001,9.5,2.5,-26.400000000000002,-89.5,-31.4
1698924442921.0,16,0.5,0.4,-0.2,0.7000000000000001,9.5,2.7,-12.3,-81.5,-25.1
1698924442939.0,16,0.4,0.30000000000000004,-0.30000000000000004,0.7000000000000001,9.4,2.8000000000000003,-4.2,-78.00000000000001,-21.400000000000002
1698924442955.0,16,0.1,0.2,-0.4,0.4,9.200000000000001,2.7,7.9,-77.7,-14.100000000000001
1698924442972.0,16,-0.2,0.2,0.1,0.30000000000000004,9.200000000000001,2.9000000000000004,12.000000000000002,-81.10000000000001,-9.8
1698924442989.0,16,-0.30000000000000004,0.30000000000000004,0.2,0.0,9.4,3.2,17.7,-85.60000000000001,-2.6
1698924443007.0,16,-0.4,0.30000000000000004,-0.1,0.0,9.3,2.8000000000000003,13.5,-81.0,-1.0
1698924443022.0,16,-0.4,-0.5,-0.7000000000000001,0.1,8.5,2.2,-5.1,-71.30000000000001,-5.4
1698924443039.0,16,-0.30000000000000004,-1.1,-0.8,0.1,8.1,2.1,-16.3,-65.3,-9.9
1698924443056.0,16,-0.1,-1.2000000000000002,-0.8,0.4,7.800000000000001,2.2,-32.1,-55.300000000000004,-21.8
1698924443073.0,16,0.4,-0.7000000000000001,-0.5,0.9,8.3,2.6,-34.0,-48.50000000000001,-30.000000000000004
1698924443088.0,16,0.4,0.30000000000000004,-0.2,0.9,8.8,2.9000000000000004,-19.6,-42.400000000000006,-29.700000000000003
1698924443107.0,16,0.30000000000000004,0.5,-0.30000000000000004,0.8,9.4,2.8000000000000003,-9.600000000000001,-42.7,-26.0
1698924443122.0,16,0.1,0.4,-0.5,0.6000000000000001,9.3,2.7,-0.5,-43.7,-20.8
1698924443138.0,16,-0.2,-0.30000000000000004,-0.7000000000000001,0.2,8.6,2.4000000000000004,9.200000000000001,-44.7,-12.200000000000001
