msFromStart,interval,accx,accy,accz,accGx,accGy,accGz,rotRate_alpha,rotRate_beta,rotRate_gamma
3,0.01666666753590107,0.12028247606828808,-0.35302374884188176,-0.3504021681666374,0.939724151611328,-5.635950123485922,-8.571690856170655,6.3884731524252105,1.6219891413084346,0.9424963094661786
183,0.01666666753590107,0.003005100100114941,-0.2030661193475127,0.24170740016996858,0.867598826599121,-4.6255976074218745,-8.468291271972657,0.7381838469673823,-3.115968371296371,0.22239989731847437
199,0.01666666753590107,0.007869856592267752,-0.1105181840315461,0.3112812871336937,0.8674490428648889,-4.535515185436606,-8.397961013683677,1.7519014737561927,-1.4631059211658326,-0.736676029347249
215,0.01666666753590107,0.021475334227085113,-0.12469167081266641,0.3317944983303547,0.8803179498534649,-4.554220178167522,-8.37521668243408,2.3075952059012637,-0.21396327967218634,-1.1917912772607682
233,0.01666666753590107,0.08845935082808136,-0.20602467689216136,0.3372738065242767,0.9507972612243145,-4.641159625951945,-8.366537701416014,0.9599039003396023,0.8168524183628553,-0.8601422106832489
249,0.01666666753590107,0.19125234743505715,-0.20354864216744897,0.22825930505394934,1.0546457582335917,-4.639513320049644,-8.475024379619956,0.16158538705256179,-0.5960818146461199,-0.6573695289554674
265,0.01666666753590107,0.1860604778803885,0.1090107020780444,0.017569558960199357,1.0720037933349609,-4.604049500219523,-8.536526019287109,1.5527575968292449,0.24097446336419182,-1.259989542184582
282,0.01666666753590107,0.08545103585757315,0.17718027520179747,0.04809387656152248,0.9834181857787072,-4.504689839062094,-8.521861534118651,3.77076857518515,2.0679057252355335,-1.4216310915348112
299,0.01666666753590107,0.1355078099898994,0.13172756079882383,0.0017208324432373045,1.0467149652343242,-4.556315104620158,-8.563461372485756,3.984117217873315,1.249790575649872,-0.7026065121586965
316,0.01666666753590107,0.18078626380451024,0.10162819061130285,0.041214638441801066,1.105672254180908,-4.6028521071285,-8.513481828308105,3.2241158790670603,0.9667844621547439,0.2902928848029003
332,0.01666666753590107,0.3663948331989348,-0.08028057441711425,0.18566461043059826,1.3247416330199688,-4.788851940862834,-8.36309603652954,-0.038760803271506675,-0.6757838790403804,2.5434339539789876
350,0.01666666753590107,0.37593897967897355,-0.13881196610182522,0.27277883026003835,1.3506289384704082,-4.81997627018392,-8.289175644794106,-1.236669035202337,-1.4206362317935164,3.3000889269787588
366,0.01666666753590107,0.35108101727627217,-0.16623656412214038,0.3452718195408582,1.322048156152293,-4.834341772405803,-8.224232340240478,1.1747521964374077,-0.3756575762254981,3.278767424267506
384,0.01666666753590107,0.2632342453885823,-0.18264233999997376,0.38557401931285856,1.2419920381408185,-4.840775897106528,-8.188468368420004,4.109788429733318,1.6574442264031477,2.648559316485358
400,0.01666666753590107,0.10876542208008468,-0.3162897629454732,0.4418950414717197,1.1170446390014142,-4.988917417089641,-8.12083275604248,6.888429339291803,2.506000888789321,2.750747484205211
416,0.01666666753590107,-0.03182897045910358,-0.37370793269127606,0.5204366632670164,0.9986812944274395,-5.073761938421428,-8.02461577682495,7.666339220658419,1.5567449332006513,2.3117957722408216
433,0.01666666753590107,-0.2899578555326909,-0.35621377705484625,0.5466244129687547,0.7686882243834435,-5.0917184508726,-7.975385005187988,3.2623070952545983,-3.0250258966015324,0.9583482180344262
450,0.01666666753590107,-0.41140820633657277,-0.564949466471374,0.4500041136473417,0.6512227784972637,-5.320963259832561,-8.060079888916015,-0.7412126623383126,-9.376241220877969,1.0146383683054399
466,0.01666666753590107,-0.5064365602914244,-0.6172822957769036,0.41345863606035704,0.5376478372436017,-5.376927723638713,-8.096890739440918,-2.9371975612813963,-12.48647628869635,0.6252428804206661
484,0.01666666753590107,-0.5860686076719314,-0.7349532741725444,0.4978045602202415,0.428861299310252,-5.498583387756347,-8.013841869354248,-5.324033420281975,-12.541435405852857,-1.2871335677198588
500,0.01666666753590107,-0.45709743290916083,-0.8878495874673128,0.23807635019123552,0.5258265396118164,-5.665578661291301,-8.269422896575927,-4.124647079385857,-12.894187355727336,-2.0271391008440776
516,0.01666666753590107,-0.5266749731346965,-0.9953121833205223,0.24807050546109674,0.4297590518675744,-5.78139758207947,-8.257751163482666,-0.17625687351358718,-8.72643666003682,-3.390397261297844
533,0.01666666753590107,-0.6781682146985083,-1.0122942977815865,0.19623861141502857,0.2500442897520959,-5.832873210033774,-8.29321527557373,3.5677463247483985,-3.6498375146091355,-4.458360303835748
550,0.01666666753590107,-0.4954880999714136,-1.0272028208389878,0.09099427613317966,0.4041710946898907,-5.8862944190979,-8.379556172943115,2.7733391886586745,-2.261674350007387,-3.655878816930012
566,0.01666666753590107,-0.4426585731901228,-1.1267886919677257,0.09144786511957645,0.44143085802607235,-6.0100444251462815,-8.366836976623535,4.536744408524461,-1.080954489226092,-2.2967907004079495
583,0.01666666753590107,-0.4446721049696207,-1.049524835023284,0.10346505064964294,0.414346524810791,-5.98834726486206,-8.32508808517456,10.459249676053531,0.47015313667091874,-4.153806437613111
600,0.01666666753590107,-0.320427081945911,-1.0821318041175603,0.11762450890541076,0.5175964714050293,-6.074837215313315,-8.28124426727295,14.908451976872762,2.5176079415101116,-5.921216923096876
616,0.01666666753590107,-0.25642142356857656,-1.1540572226434946,0.2089116305053234,0.5862800584655254,-6.189758895000815,-8.163778748321533,17.745205416550185,6.109262276231082,-7.027249092190904
633,0.01666666753590107,-0.1844403293326497,-1.0245938073843717,0.657084437072277,0.6808510240416974,-6.120626322063804,-7.6767089326053854,15.33385835649596,13.071392344875084,-6.2535376427297305
650,0.01666666753590107,0.002211903895810246,-1.1594652191668748,0.7556441800236702,0.8854057014465332,-6.297049056896567,-7.550713485717773,12.468944046870572,11.602199871385125,-1.207990244816217
668,0.01666666753590107,0.13860606826618313,-1.3251526249736547,0.6294307064712047,1.0344446817260236,-6.496067069897055,-7.65486125793457,13.33002343421314,9.98825605258873,1.360634620760541
684,0.01666666753590107,0.007504968802630901,-1.190912496832013,0.8108680545955896,0.923712854943797,-6.418105878338217,-7.435791806030273,17.95523714862266,11.80538775390925,-8.231201841433998
701,0.01666666753590107,0.060473465663194656,-1.2488637505412101,1.0701531970322131,1.0151414308410138,-6.5218053222656245,-7.142951015472412,19.88080578697995,12.269941362760374,-15.45681712948182
717,0.01666666753590107,0.19622034510597586,-1.4628876094937324,1.0523264484405517,1.1982978578429668,-6.7748425102233885,-7.129932543945312,20.505636614894595,10.055799793290987,-18.229843196655732
734,0.01666666753590107,0.26718985114656385,-1.5649135672509669,1.2499749266535043,1.3320738025389611,-6.930165758404136,-6.889464330181479,22.024906327831793,10.331559289520143,-20.52193003115966
750,0.01666666753590107,0.08154759867824614,-1.4383102175980806,1.5310089595615863,1.2011409723144024,-6.844573633575439,-6.573879208374023,22.36898052236577,13.359031247618185,-20.6704951833439
766,0.01666666753590107,0.1019620256755501,-1.411042855966091,1.6096657321691512,1.2764086870055644,-6.8586389838069675,-6.459705716705322,21.602954316381332,13.80228832663721,-13.57453908385772
783,0.01666666753590107,0.2592948601130396,-1.5259282952964306,1.368938575208187,1.4800654657226056,-7.029525711822509,-6.655431702423095,20.349821216906385,10.093476824300069,-2.138858584107272
801,0.01666666753590107,0.21012655925303697,-1.3915847067803144,1.3215046238601207,1.447893453979492,-6.938246773529053,-6.6705451004028316,21.41572346330565,5.986391015043961,3.1440240136424333
818,0.01666666753590107,0.2665530876129866,-1.4030840059161185,1.154634730270505,1.5005658905029295,-6.9994479689449065,-6.803273654937744,24.20359323909329,-1.8879605495701393,7.142566164155991
834,0.01666666753590107,0.29348982905112203,-1.3181833704829216,1.0685948616743086,1.4887443736754358,-6.983436745342612,-6.846368700298666,21.41994622776001,-13.034858516778334,12.15318952418276
850,0.01666666753590107,0.3694033673651516,-1.197343406662345,0.664197483947873,1.5123871150694788,-6.905476138305664,-7.227645899200439,16.498448298665444,-16.591591588376907,14.30591488640904
867,0.01666666753590107,0.4928163965441286,-1.2992162196844816,0.42670039494931694,1.5695486797057092,-7.058853513115644,-7.436988906860351,17.627994247750888,-5.607506761405014,24.176595208851523
883,0.01666666753590107,0.5434328503858298,-1.1607809779405593,0.22099603605270385,1.5673041156493126,-6.967126246532797,-7.615356346020102,19.035815764000994,-1.5653015594050905,35.624279125738035
900,0.01666666753590107,0.3692760877236724,-0.42902562302649017,-0.4158399782389402,1.3290810504637658,-6.28238457172811,-8.225279803466796,16.509402214546853,-5.451806622859049,39.77866655631742
917,0.01666666753590107,0.6292317498330027,-0.3433481580018997,-1.1510825907468796,1.4802151763916014,-6.245723943328857,-8.936208058929443,11.794110257815912,-13.531550726995306,39.06185186330292
933,0.01666666753590107,0.7698295033730566,-0.45886429645121096,-1.1493430536031721,1.5327379753112793,-6.399251540264487,-8.914660243988036,19.44545977456709,-15.902862633229503,36.90844689725423
950,0.01666666753590107,0.6954848218109458,-0.30669512838721275,-1.0394283884227276,1.36873508852534,-6.307075360870361,-8.766818291473388,33.76232857685754,-18.546586389225904,31.44827414643556
967,0.01666666753590107,0.4155236788313836,0.3240390618979931,-0.49101475394964217,0.992097276394628,-5.787383378490805,-8.138789853015542,40.17318852806111,-10.313455019351377,21.762490459919906
983,0.01666666753590107,0.4635295483158901,0.5647229642391205,-0.6155868900358676,0.9962871292999014,-5.616796510204672,-8.21001735240519,25.772776266937655,-1.6448975957846574,19.441448745977002
1000,0.01666666753590107,0.5647773613074794,0.9691314478814601,-1.323335346418619,1.063474413388036,-5.253027495464682,-8.88682764968872,14.35485319181218,2.1941831163843752,25.258328126199586
1017,0.01666666753590107,0.4874649525135755,1.3371487677156924,-1.6263456488132475,0.9424175919463857,-4.917689625439047,-9.165602505493164,16.87879762788136,0.13838096660578061,31.66941859628765
1036,0.01666666753590107,0.07338317958619445,1.9839771837115288,-2.127068726828694,0.4498106003692373,-4.332456957134604,-9.619154667010903,25.4154634582449,-1.4617471404078233,37.07844689060126
1050,0.01666666753590107,-0.2966395252536982,2.6105396412700412,-2.471712769860029,0.01601122360229492,-3.759793847545981,-9.920973129272461,25.735990575615258,1.5047211965616625,39.53392380288294
1066,0.01666666753590107,-0.19180813642060382,3.0225211905151603,-2.983948006492853,0.038606465237401424,-3.413084104156494,-10.379911660003662,20.98335712091821,3.484712995669023,39.279936388406846
1083,0.01666666753590107,-0.08139660936761647,3.064006462591886,-3.184832982409,0.09561841053618117,-3.4084447539180514,-10.550049615478516,15.844631855460559,4.159428110186855,32.98620052109065
1100,0.01666666753590107,0.12115171491717919,3.4650603751093145,-3.3174230052560567,0.25034370195693334,-3.0451246519893407,-10.650307394519448,12.227046067225402,9.986377750566977,23.27691415364098
1117,0.01666666753590107,0.4852714245246723,3.461575455603003,-2.5856670658200978,0.6039373505081049,-3.067271017345786,-9.90211879119873,5.443690223690958,13.597187137371836,16.512525318544842
1133,0.01666666753590107,0.7007347051631659,3.3522172552615404,-2.481356796517968,0.8143278305274899,-3.1748604544490573,-9.799466810497641,-8.624306548924912,5.51227129937341,13.47573271355067
1150,0.01666666753590107,0.930692484698072,3.602452829802036,-2.6937147680848836,1.0199299072265624,-2.8784283614009616,-10.053103133392334,-26.21449826094072,-2.8975438308378294,6.776148286412787
1166,0.01666666753590107,0.7391552559070289,3.8043583809375763,-2.591512869238853,0.8195652014580089,-2.620304079437256,-10.000131421661376,-31.20030754371283,1.1308481673393889,1.8338904242227911
1184,0.01666666753590107,0.7500427067548037,3.688399759417772,-2.6275159105122086,0.8358756546020507,-2.6741730322688815,-10.089465071105957,-31.59753427036785,3.4653022383780816,-1.4673793784304392
1201,0.01666666753590107,0.6704317021623254,3.197567960819602,-2.891354478469491,0.7718307875923346,-3.0928590475887057,-10.414029033660889,-22.06905154798488,1.498589180790872,-7.268273234509137
1216,0.01666666753590107,0.32938948301523924,2.84383518692553,-2.508696638864279,0.45280341637651433,-3.408744029125571,-10.062530302429199,-16.48404513725318,5.597465956438271,-11.837059341090598
1233,0.01666666753590107,0.20508038177937268,2.4798639276117087,-2.1544471476197242,0.3684077621902339,-3.7379473419189453,-9.73617068862915,-18.98003702414408,12.553667420882704,-14.450330698672497
1250,0.01666666753590107,0.2588764155052602,1.9380524678826332,-1.7393150253891945,0.49515081257475535,-4.211998686107993,-9.374197325134277,-31.173072164397407,16.392891140137483,-15.037423023875528
1266,0.01666666753590107,0.44229978634770956,1.5059049134433269,-1.5919705010026692,0.7342716851165517,-4.571277988213301,-9.28306802444458,-39.536690029496796,14.622861277107019,-16.649337422714783
1283,0.01666666753590107,0.4951420630127191,1.349790807145834,-1.5584043314874172,0.8438064476013183,-4.639064407238364,-9.316137934875488,-45.36507827847085,14.129905180366043,-18.93814235132252
1300,0.01666666753590107,0.6327806014209986,1.0205004005908966,-1.6098568708270786,1.0619780373504384,-4.837633507427573,-9.462782202038168,-46.52413064477075,12.591388848121392,-20.92268625806828
1317,0.01666666753590107,0.6789234900452196,0.8528548464536666,-1.786405277866125,1.1616366449218243,-4.9084126785278315,-9.707589906311034,-44.81471871062415,10.122684420738336,-19.230867183676338
1333,0.01666666753590107,0.5186538349708542,0.7705600096046924,-1.7053437822043895,1.048809928219579,-4.892999420818686,-9.693673609161376,-46.610197858502076,9.449164589325257,-17.73857842550798
1350,0.01666666753590107,0.26647731896303595,0.951695744433999,-1.7217676782608031,0.86191259765625,-4.573074808502197,-9.802160871887207,-49.69672277839041,13.064276141533577,-18.056503240804563
1367,0.01666666753590107,0.24258052974268793,0.8084779445886612,-1.7873621401995419,0.8946832328796386,-4.603749932751059,-9.939228916931151,-53.59041554872874,14.323361750870191,-20.595928300627577
1383,0.01666666753590107,0.17257891888618468,0.6307780294269323,-1.719746401566267,0.8840588899474591,-4.655225268444418,-9.949104998779296,-60.5763535223853,11.920471318782086,-23.217098771984595
1400,0.01666666753590107,0.05372742546908557,0.4765665418803692,-1.7662760975509881,0.838868406677246,-4.617965505108237,-10.108918544116616,-65.8063113321341,9.194115934206872,-25.832219403284274
1417,0.01666666753590107,0.05524667092561721,0.4138537728577852,-1.554732364976406,0.8987234481811522,-4.5313259170532225,-9.981126861461997,-63.92764731035459,11.551735872476131,-28.735982121361403
1434,0.01666666753590107,0.1132252510331571,0.2906175615504384,-1.4371581249535084,1.0203787469726056,-4.51381831741333,-9.938031816101073,-56.76019705950495,11.62182983505974,-30.041429347236768
1450,0.01666666753590107,0.21772190975286065,0.15010025283545256,-1.1181535500913857,1.2098198802672326,-4.486733618871868,-9.702202368053793,-49.96139943891757,10.738207408361545,-31.98455327930828
1466,0.01666666753590107,0.33799145327433944,-0.10413754308372736,-1.0057856465399264,1.3848959497313946,-4.620359706768393,-9.647435589599608,-49.85828407301789,3.3400660241908433,-31.529269944708155
1484,0.01666666753590107,0.333375337781012,-0.21875410234481096,-0.9080237759679556,1.4169183969359844,-4.608089715521038,-9.610325463867188,-55.029761803093045,-2.5102345388576714,-31.815157757702796
1500,0.01666666753590107,0.27272541957236823,-0.31082623684257266,-0.6200508837074041,1.3884873252868652,-4.506036869756877,-9.413552599444985,-63.944538368172026,-8.623371666782266,-33.78958786183506
1516,0.01666666753590107,0.19863800070695578,-0.48337125345915555,-0.49619127980470656,1.329679673944041,-4.511872736303508,-9.36536870651245,-70.88517852725305,-10.92738742667162,-37.88274264650528
1534,0.01666666753590107,0.17805625431872904,-0.5350023642361164,-0.41923371233046053,1.3235445321898907,-4.3818373663753265,-9.366864498028159,-74.43927429205836,-12.498341181058308,-43.081107416248194
1550,0.01666666753590107,0.1785859042160213,-0.44054304234087466,-0.3230576496452093,1.3413514070373027,-4.03153602823466,-9.374197325134277,-75.93908821114478,-14.402819902805888,-49.2737325781861
1567,0.01666666753590107,0.32205263732112943,-0.40097675562798973,-0.4231628684729337,1.4929342996459454,-3.7973531783506274,-9.548076220703125,-74.35484632372783,-18.575442230921915,-51.34603929312465
1583,0.01666666753590107,0.45692748316973447,-0.4290338063329458,-0.6904775881081819,1.6195277124267071,-3.6388869559690353,-9.883713365936279,-66.76867132581056,-25.001304692637422,-51.200095226034406
1600,0.01666666753590107,0.5877399749502539,-0.5141097983330488,-0.9765303259611129,1.7146971553526817,-3.526059910473227,-10.240897741588949,-42.624201911720185,-28.565568901569584,-44.79770812449623
1617,0.01666666753590107,0.3643909460306167,-0.4084215186759829,-0.8062310424447059,1.455375188037008,-3.3303342170163988,-10.103680058941244,-21.59508764600477,-27.4882363335943,-39.37973911255907
1633,0.01666666753590107,0.17690445393510162,-0.3205456668242812,-0.5939765312522649,1.234061318206787,-3.1995509513303637,-9.908702845764159,-6.322734716097953,-23.87530190418392,-36.670332842409245
1650,0.01666666753590107,-0.21743717452734707,-0.26413959673047066,0.2091255655169487,0.8122328401427715,-3.1220389648437497,-9.115174633026122,-0.7776478262180696,-14.204887850848088,-35.39417005260031
1667,0.01666666753590107,-0.41170536265224217,-0.3470835451379418,0.9602484687238931,0.6175543176513165,-3.1881784934446213,-8.369231178283691,-5.662628095554309,-7.888386963028242,-35.75475964454738
1683,0.01666666753590107,-0.47062239265367384,-0.38100773431062696,1.331004273611307,0.575206948852539,-3.186981684875488,-8.007257814788819,-15.527717908161138,-0.3678174261928226,-37.10484557174336
1700,0.01666666753590107,-0.4156811344154179,-0.3673457041829824,1.8045850776791572,0.6703763187132775,-3.0931586150571704,-7.55280782764852,-23.540595314096617,0.4755949298095677,-34.72010209850633
1717,0.01666666753590107,-0.12007628597170114,-0.37862171595692634,1.637559116744995,0.982221084948629,-3.03913914783895,-7.736712442669272,-21.197608202350462,-5.195989998345861,-28.014278720448466
1733,0.01666666753590107,-0.032803222318738695,-0.4388420836418867,1.7529583508163689,1.0670656793456523,-3.047519145910442,-7.6361565574645995,-14.752110654318463,-10.224636946931824,-20.20288847993378
1750,0.01666666753590107,-0.05200462026447057,-0.2826017206162214,1.9339339266479014,1.0172363572936505,-2.8479028747558592,-7.470657367706298,-8.612171864090739,-17.295391355927947,-12.044884068287514
1767,0.01666666753590107,-0.15671287590824068,-0.05507219114154577,2.143285117614269,0.8701425927978008,-2.5947160491943357,-7.272986093139648,-10.681911281675008,-22.202755916082463,-8.013289778606618
1783,0.01666666753590107,-0.19824023356102405,-0.06175093825310468,2.286111287793517,0.7733270631652325,-2.5637407729551196,-7.146093405151367,-18.803449313342572,-26.513667376776446,-5.098537286154942
1800,0.01666666753590107,-0.19330606509447096,-0.04998100548237562,2.652176304516196,0.6854897166930138,-2.4688706783019003,-6.810755535125732,-29.945413962979313,-31.170323013256475,-2.482506532148358
1816,0.01666666753590107,-0.33237156756594777,-0.05918050324320793,2.9336177491813897,0.4670188882689923,-2.3946504268370568,-6.557269434356689,-36.351222989291664,-35.40390307216757,-3.8977592942154353
1834,0.01666666753590107,-0.37525669650323684,-0.010455927562713623,2.7990748387008906,0.3365348977904767,-2.249950717870891,-6.721870798492431,-38.08205781177001,-37.31921788903338,-9.613461374715328
1850,0.01666666753590107,-0.25964681535586714,-0.1352811616271734,2.8536066393554207,0.3510497453551739,-2.2471077495299276,-6.70346537322998,-35.528898949073394,-26.77547877294679,-15.160839419535781
1866,0.01666666753590107,-0.07619151500519365,0.17001666718274355,2.461595864993334,0.4873695658477023,-1.849670127813518,-7.118260226330161,-29.069688088735298,-17.28909562906049,-14.134984279787593
1883,0.01666666753590107,-0.07043149017374963,0.12049626494944095,2.1172072580277916,0.45848950832206753,-1.8420387561522422,-7.47649264973104,-13.350300558311616,-15.688000249866535,-8.03070932231109
1900,0.01666666753590107,-0.12010317397862671,0.19762553572878241,1.7794652494698762,0.36317042779233305,-1.7518072810851038,-7.819312984466552,4.273065382502942,-13.62746621973615,-2.0428764970220215
1916,0.01666666753590107,-0.1772736160410568,0.3449035707503557,1.7019868729919194,0.2721907647063955,-1.6168340163633226,-7.895926853069662,4.5676971182956665,-14.276849870169697,0.1359870786831837
1934,0.01666666753590107,-0.15427757505271583,0.42043563546612855,1.7031015562355518,0.2537853394439444,-1.5397706504270434,-7.896974316295981,-6.727128872513251,-19.09752993824664,2.175009708167092
1950,0.01666666753590107,0.046781917180120945,0.24853359292820096,1.2721101860940456,0.36706100549008697,-1.6524479121886193,-8.343194235229491,-28.908294133742483,-31.826147532077346,5.802436091448946
1966,0.01666666753590107,0.21734553245482965,0.12655571111887692,0.7992027512431145,0.44592002267148345,-1.6802803603574632,-8.836848105511068,-45.36053620267279,-37.76832331752923,6.0841135197070955
1984,0.01666666753590107,0.21276415948132052,0.22306626645550132,0.6260235283762217,0.3467103187782224,-1.4555248256407678,-9.034968877410888,-54.15586641954659,-33.765572916713296,4.722867490294132
2000,0.01666666753590107,0.1712795997906476,0.16284122259542344,0.19111060087680815,0.20964226916769985,-1.3555669063292444,-9.497199435424804,-36.03764900449638,-20.735781546525466,7.065924611479279
2017,0.01666666753590107,0.036442327739764004,0.3361807505905628,-0.22770634734630582,0.033219540613979914,-1.120186955615133,-9.925611894989013,-12.399956574932505,-10.82994282533034,6.816001159559342
2034,0.01666666753590107,-0.10916812112946063,0.6882213336139917,-0.42106735749840735,-0.13646949234561762,-0.7650967757627367,-10.11939200733602,8.797684924590161,-7.596199154297913,3.9352331270967102
2050,0.01666666753590107,-0.1780145158025436,1.114478222579509,-0.9148574213802814,-0.23208791886481922,-0.3938461730957031,-10.60466734085083,21.486736940106272,-7.639834671584185,-0.8745781356591883
2066,0.01666666753590107,-0.03489779257834889,0.7660948468893766,-0.9451946919769049,-0.1092354507446289,-0.7968200938902795,-10.626215155792236,20.82252665653192,-9.02401348802229,-2.672603503354507
2083,0.01666666753590107,0.06896921733515336,0.6954628291748464,-1.0471434928447008,-0.027832594299316404,-0.9121906863890588,-10.720636483764649,14.871256474200164,-9.67408186492013,-5.148635016169693
2100,0.01666666753590107,0.2377074438136071,0.5928856672756374,-0.9879916311740875,0.12868833923339842,-1.0598830012999474,-10.653748474884033,14.148952870413915,2.431030811468557,-9.832704470657214
2116,0.01666666753590107,0.2901418703300878,0.50391062201038,-0.5040560218304395,0.21054011762314476,-1.1902172080442308,-10.162936550030112,19.40612642268428,16.222274722217858,-14.753679890280273
2134,0.01666666753590107,0.4530955037914216,0.39384646535664797,-0.25037644431591033,0.4535516046093715,-1.377713417816162,-9.89568437423706,26.5423541712905,23.28228951251778,-18.58354966546672
2150,0.01666666753590107,0.4750708964951336,0.33735417828410863,-0.24073183313608168,0.5409399101920891,-1.5037078417904675,-9.872789236339926,28.83532380774465,20.845619526115733,-17.53520783542356
2167,0.01666666753590107,0.38202319496348497,0.20666472836136818,-0.21247429142296312,0.5009866791213863,-1.7040728854857383,-9.830442378997802,27.24549994822851,15.588387063463776,-14.296587409323742
2183,0.01666666753590107,0.22983393395952878,0.33511224457621575,-0.027368483918905256,0.40132803501738235,-1.659331095831096,-9.62753378829956,24.317802539752368,11.61910373580726,-9.768245414138864
2200,0.01666666753590107,0.18321851418642326,0.38147885895371436,0.1068739823102951,0.3880102882827632,-1.6722000758849083,-9.480140748596192,23.76202150925197,12.174988072918856,-8.253649258141245
2216,0.01666666753590107,0.1559132134305313,0.2513673550494015,0.4113882595270872,0.398335264675878,-1.8608929480955003,-9.16201120300293,24.427686623119534,14.5981752658993,-6.524583881544755
2234,0.01666666753590107,0.01792319470345974,0.30667715433910486,0.7586661581933498,0.3203740731170401,-1.8858825740538536,-8.794950160980225,24.466994361792956,18.914456962828204,-5.729375265444612
2250,0.01666666753590107,-0.07395012928657234,0.4277145404279232,0.9306599706679582,0.28296463564448054,-1.82273535913676,-8.607603296551108,22.244054654898946,21.676848425464406,-6.88410924464177
2267,0.01666666753590107,-0.06231354057192802,0.4912554308377206,1.1601333276867867,0.3537432587554678,-1.808370295306295,-8.3639938621521,18.143506190452186,22.43193437594578,-6.925713207536788
2283,0.01666666753590107,-0.06618168724216521,0.6794549665734172,1.0873422322422266,0.42063126763608305,-1.6698057280942797,-8.42130506439209,13.713179117404286,16.32867199401373,-4.26155651375147
2300,0.01666666753590107,-0.09385098073855042,0.7075301374569535,0.952065162268281,0.4278138726165518,-1.6751928279601036,-8.546402101135254,14.00046626540513,10.329704893160484,-3.175701150352483
2317,0.01666666753590107,-0.07932842479143291,0.9456872977994382,0.8678764744967221,0.4652232370238751,-1.4713862655088306,-8.620621768078207,13.966270923325462,7.073067708690642,-2.861934639599968
2333,0.01666666753590107,0.025350349029526112,0.9112165806598961,0.6718804396659135,0.5931633882384747,-1.5400700717650353,-8.806472256469727,6.40802158071661,4.787773070429471,-2.967781867724244
2350,0.01666666753590107,0.09503851002268493,0.9195362268462777,0.5252946246922016,0.6730699051788076,-1.537227103424072,-8.95102218170166,-1.4922826750311289,3.072729004981959,-1.6176750230739252
2366,0.01666666753590107,-0.028260902713984248,0.641518180758506,0.530129789763689,0.5612906151702627,-1.8007389236450195,-8.949226530456542,-9.330090486429839,5.484152264334114,-2.1519951723153223
2383,0.01666666753590107,-0.10752630873918533,0.7974436326161026,0.3940045785278082,0.5009866243224591,-1.5988775039121508,-9.095871382141112,-15.92559008769272,7.473371008679926,-1.101174197046857
2400,0.01666666753590107,-0.060155997211858624,0.8563402043513954,0.2654781518578529,0.5681739084105938,-1.502511033221334,-9.23249051437378,-12.791197494553652,8.434837101348759,1.35295791502027
2416,0.01666666753590107,0.11129676718860863,0.8799886448338627,-0.022967034089565276,0.7600093894958496,-1.4555248256407678,-9.52533130493164,-5.676435749848313,9.519523221739204,4.439810790710464
2434,0.01666666753590107,0.2994268178846687,0.8483186643287539,-0.21227847658991814,0.9744400756835937,-1.485302708788961,-9.713276135253906,3.9645670820346224,9.572942131237873,8.26697495721194
2450,0.01666666753590107,0.37687026917971667,0.8541761581853031,-0.11400573388636112,1.0727518352232872,-1.4935326308652759,-9.610025604137778,6.368568700523324,11.591256200787472,7.6277870716619285
2467,0.01666666753590107,0.42333983247503637,0.7309506144024431,0.14682546894848345,1.1505634622436016,-1.6283561118528247,-9.343969944652914,2.4106802628365043,12.935438283219627,4.521307754113409
2483,0.01666666753590107,0.5329219777654857,0.5455705200016499,0.38184476965665815,1.2879307824950665,-1.8040308047972617,-9.109189128875732,-2.276726592834214,13.190486084564366,0.7922951135323091
2500,0.01666666753590107,0.5413010990541428,0.44542014685794706,0.30044600486457346,1.3260883714538068,-1.8864811244688926,-9.192537274169922,-5.542451343994758,10.782146869065883,-2.1047569436852793
2516,0.01666666753590107,0.5925264055091888,0.37560207587480543,0.05235971731245517,1.401954709625244,-1.9256860305234789,-9.446023374938964,-4.221299805670239,6.348691142491294,-2.5446981793056747
2533,0.01666666753590107,0.48966728486344213,0.31934900438562036,-0.08145838602483273,1.3226466335020959,-1.9481316710874437,-9.585933949932455,-2.592570121424648,2.03470396223669,-0.9350701862910822
2550,0.01666666753590107,0.31357480489835143,0.24720906632617115,-0.08553951785862446,1.159990704345703,-2.0009538913451133,-9.593416414642334,-2.5046634523724682,1.7101589860870714,-1.034667150994562
2566,0.01666666753590107,-0.05206906380280852,0.3527624675571918,-0.16085633238852023,0.8295908752441405,-1.8628383830748498,-9.673173257446289,-3.2076909816604724,1.3509578435322198,-1.4300835573544077
2583,0.01666666753590107,-0.31744594724327324,0.23060309170112012,-0.06965747359395026,0.5991488923888653,-1.960102679388225,-9.584437573894858,-1.542362795964426,1.88886747062587,-3.2701837974715042
2600,0.01666666753590107,-0.3877805163811892,0.14919482842832804,0.0794727651655674,0.5472247169494628,-2.0346223521910605,-9.435099829864502,0.25572089514310226,3.455733356794305,-6.3849449328320755
2617,0.01666666753590107,-0.4826506840996444,-0.08216653429418802,0.4317611854702234,0.48078562088012694,-2.2566845561705526,-9.082104722595215,-1.3544789127710672,3.0827081248027595,-10.121682090477638
2633,0.01666666753590107,-0.5552420922536403,-0.3557062659241259,0.6127139649480581,0.42227731781005856,-2.5191489131651816,-8.902240322875976,-2.503557388613749,2.13811259938386,-11.958351547918976
2650,0.01666666753590107,-0.625935265570879,-0.5011826583512127,0.6497112779557704,0.36182365282587703,-2.651877467700094,-8.867075485992432,-3.1413406030722646,1.0737072316298855,-12.42159376044946
2666,0.01666666753590107,-0.7603236430767923,-0.731323831629008,0.5334603954911231,0.22969372177124023,-2.8622679385863243,-8.987533757019042,-4.543709067043759,-2.2760945868925764,-10.760521636379977
2683,0.01666666753590107,-0.7760826454836874,-1.0240672992922366,0.30187516088485716,0.2035069949828088,-3.138798084203899,-9.223810948833822,-6.9235151672845126,-5.084077775682025,-7.767525911891219
2700,0.01666666753590107,-0.7538422451682388,-1.1330493597976863,0.2461374915719032,0.21068967302851377,-3.223193838854879,-9.286509689331055,-13.133988467297312,-7.890216599952159,-5.969274134097086
2716,0.01666666753590107,-0.8734251215998082,-1.2058024613194167,0.06479717408120632,0.06239880770258605,-3.2405516547605395,-9.482684587860106,-21.457008541743793,-8.400041556395774,-5.422447908485395
2733,0.01666666753590107,-0.9582821370869874,-1.190711129041016,-0.2286234621912241,-0.045190629400685425,-3.1768061816893516,-9.788543849945068,-22.693001281496592,-7.179597742288508,-4.90134502906162
2750,0.01666666753590107,-0.9535529166080057,-1.1005645557783543,-0.3461889343857765,-0.05820902786254883,-3.040635962267965,-9.917232189178467,-17.76938428621203,-5.225457141972588,-4.767186453384229
2766,0.01666666753590107,-0.7841461980171501,-0.9591304244793951,-0.3660696928977966,0.09801255739741027,-2.8664577914915976,-9.944915145874022,-6.275235019288745,-0.7116180396340291,-5.565446883382898
2783,0.01666666753590107,-0.50231363514252,-0.8670200037978589,0.023634558087587354,0.38651378438100215,-2.767996248217672,-9.555856791576742,2.316857796189447,3.3951542746113463,-6.247042132829049
2800,0.01666666753590107,-0.403153661275655,-0.8722093891344964,0.2582458625167608,0.4926069185119122,-2.796277755328268,-9.315988297271728,8.05306453146454,5.370810824586453,-7.1491905938772575
2816,0.01666666753590107,-0.24746815565377472,-0.7646786964811384,0.7120850242823362,0.6549636455260217,-2.73717090184316,-8.851662812805175,8.869786962789755,5.18386812011638,-7.410476065481511
2833,0.01666666753590107,-0.12190795837827026,-0.7941033822774887,0.8078601049512625,0.7791629297118634,-2.795978480120748,-8.749909242248535,6.1798002011107425,2.860396993263069,-7.312148662190007
2850,0.01666666753590107,-0.10593860115632414,-0.8052852860271931,0.8665326586723328,0.7987654558043926,-2.821117743682861,-8.687959274291991,3.5611366226225303,0.9827338076403699,-7.274464800991754
2866,0.01666666753590107,-0.17302271713092923,-0.8790699225537478,0.985707904151082,0.7315781717162579,-2.905962118884176,-8.566453540039062,1.3359134981116205,-0.4106857744970854,-8.281148453513362
2883,0.01666666753590107,-0.26095994378104803,-0.8828969334959983,0.927532778558135,0.6449379991393536,-2.915389287921041,-8.623315829467773,0.290899250854724,0.20779399134565166,-8.718322395302845
2900,0.01666666753590107,-0.319094152841717,-0.8745461615189909,0.8885831624388695,0.593612301049754,-2.907009582110494,-8.661623056030272,-0.9695054387653478,2.126874803765073,-9.331093670464185
2916,0.01666666753590107,-0.4469350814655423,-0.8168658337056637,0.7509259193301201,0.48437685030512506,-2.8520925815306604,-8.796895449829101,-0.6913488663026346,6.155752385703597,-7.47296034355608
2933,0.01666666753590107,-0.6539266306284814,-0.7896547323055565,0.6649369041383266,0.30211817586049433,-2.826504405157268,-8.88009337299764,-1.831958761348147,10.797002530510662,-5.334014034206655
2950,0.01666666753590107,-0.6901080241434275,-0.8136059551268815,0.5543418554782867,0.2973298456054181,-2.8474538158141076,-8.988132307434082,-1.6671636923137816,12.216879330645837,-1.7877038312815186
2966,0.01666666753590107,-0.5475925273485481,-0.8542796185597776,0.20946341916918754,0.4739022180419415,-2.8942902396604415,-9.32810894317627,2.278596357119505,9.096137724336685,0.8382178904168899
2983,0.01666666753590107,-0.27362872508764263,-1.1157375749908387,0.06743570589125156,0.7650969218932092,-3.17156886555776,-9.464877128490805,4.613073480046646,7.746063749971747,1.5337379745899924
3000,0.01666666753590107,-0.21307788333930075,-1.2291392055042087,0.15476795238554478,0.8421602878294885,-3.299658508245647,-9.37255072697103,3.3425251057354592,8.014407368309561,0.9817267816246161
3017,0.01666666753590107,-0.19194588265717027,-1.3356949156455695,0.30422435435950756,0.8797193994384258,-3.4192190997801717,-9.218424579620361,-1.6185524889388603,7.673622763634592,0.2717018302536396
3033,0.01666666753590107,-0.3548880814090371,-1.3762788549683986,0.37668461041450496,0.720654626641795,-3.4651578441344197,-9.144353965759278,-5.264319637689492,8.749169237141915,-0.7854118303136701
3050,0.01666666753590107,-0.4224545010078698,-1.3510893225237726,0.33331483976542947,0.6691792909484356,-3.4362779327392574,-9.186701407623291,-5.113260185797728,11.16339095306307,-2.3944846036539347
3067,0.01666666753590107,-0.3952024100102484,-1.2930856079749762,0.0353705885887146,0.7243955667357891,-3.3894412166319787,-9.478943647766112,-4.448372859721897,9.277729402478876,-3.972631401010292
3084,0.01666666753590107,-0.30149441793896253,-1.1007035258576274,-0.46447687563598156,0.8381202186584472,-3.2203507243834433,-9.97125136413574,-5.4861325923065944,5.743042473973808,-6.031175711658088
3100,0.01666666753590107,-0.2738734936289489,-1.0711771332524715,-0.6528752949446439,0.8818142528258264,-3.1895252318784593,-10.15799850910604,-4.111639837885215,3.849408385080915,-8.441683512218049
3117,0.01666666753590107,-0.24981340360566973,-0.8829242598943412,-1.01866617090106,0.9207201028686016,-3.0048725749693808,-10.52116955795288,-0.24640163562914874,1.0234686289635029,-13.664430349750612
3134,0.01666666753590107,-0.18419300350807605,-0.787287126391381,-1.458149475055933,0.9895534005980938,-2.917484214373678,-10.958410636138915,5.1695072204996055,-2.5217280396835102,-16.755999364340994
3151,0.01666666753590107,-0.16658099364563822,-0.707917090947926,-1.577344009757042,1.006163247680664,-2.8576291728697716,-11.073332315826415,13.876053515899702,-5.42804780983116,-19.8358785101669
3167,0.01666666753590107,-0.2875150654904544,-0.4787742810577154,-1.5709697985500097,0.8837595416747033,-2.691381795092672,-11.052682326507568,28.359860679241724,-2.9915564755645887,-23.08213081889056
3184,0.01666666753590107,-0.44102030446380375,-0.4003999786533415,-1.145233280196786,0.7429506296020001,-2.6856955661498008,-10.608109005737305,35.458787057243214,2.1390873954444674,-23.252484274527138
3200,0.01666666753590107,-0.5089128142118454,-0.32902693331316113,-0.9439058212101459,0.6980593484740704,-2.696469473620504,-10.383652600097655,36.00178368116464,5.064697540798937,-21.042544125170956
3217,0.01666666753590107,-0.5440209524720907,-0.2644774503827095,-0.5480512309014797,0.6998550727844238,-2.7296891677856445,-9.957933617401123,26.6183844220365,7.737823980511773,-14.12115485426561
3233,0.01666666753590107,-0.4133925850868225,-0.21467326277196405,-0.42253158483207226,0.8545803550720215,-2.725499314880371,-9.817124632263184,12.84430477667144,5.5462032522832105,-7.6262502790986755
3249,0.01666666753590107,-0.3110736357323825,-0.12395721905827521,-0.5605769504755735,0.9677062373839318,-2.6446950088500976,-9.951050287628174,-3.268706769063489,0.5603917817161289,-2.6311241914118426
3266,0.01666666753590107,-0.26994594492167234,0.45849692444354295,-0.9236416163384914,1.004966146850586,-2.025045691680908,-10.324545746612548,-16.355996165788365,-2.749498413360745,-0.0758293738152898
3283,0.01666666753590107,-0.2932502481415868,1.2330752297788858,-1.5492594865232705,0.9717464526854455,-1.2092213298521934,-10.96230121383667,-15.490539480961466,-5.147585301471627,-0.4652611737604558
3300,0.01666666753590107,-0.29419045160114765,1.4853326655358075,-1.8102537709653377,0.9569323299132287,-0.9247600989744067,-11.233444551849365,-9.888017050103269,-6.880982298662374,-2.431774021427619
3317,0.01666666753590107,-0.0795949302405119,1.956034260905534,-2.1703286073625088,1.1430815089903772,-0.4324523826047778,-11.602750157928465,-2.627619237150568,-12.511506370683508,-4.244240703545019
3334,0.01666666753590107,0.2964716213408857,2.069317087344825,-2.2225229049801825,1.4844048831664025,-0.3170817901059985,-11.659911138042807,2.9161733852424505,-16.698793114947552,-3.215538869016817
3351,0.01666666753590107,0.43117688277624544,2.072796600023657,-1.9550696536570786,1.580023385034129,-0.3306989581786096,-11.392958237457275,12.42707157216381,-14.979694265010579,-1.857851581604842
3366,0.01666666753590107,0.41290509383082385,2.206087318485975,-1.1021423264890908,1.526303485284373,-0.2614166015073657,-10.52775361251831,27.10490904190026,-6.816148435513321,-1.5894400882621504
3383,0.01666666753590107,0.3810889097880572,2.112512085948884,-0.021689269238710403,1.4850035066466778,-0.43035745615214105,-9.428366137695312,34.554627105484435,-1.6689381541158097,-1.8543570860707344
3400,0.01666666753590107,0.2777517233017832,2.1607348495870826,0.7736708351016044,1.3798082712035626,-0.4936541625425219,-8.602366564941406,33.893208661733325,0.5028532009308837,-3.5111686662020096
3416,0.01666666753590107,0.2353030130203813,2.1273738472551105,1.2497434559851883,1.3453915492735802,-0.6051341773435474,-8.102875659069419,31.22540507381804,4.065329020878412,-3.714403292833266
3434,0.01666666753590107,0.1273128861617297,2.0881308011472224,1.8074363754570484,1.2554594224791973,-0.7158660041257738,-7.521833428192139,28.76892412372837,8.547034057523618,-3.739931551743012
3451,0.01666666753590107,0.15797763514705002,2.0264488364771007,1.8618571169525384,1.3112741756163537,-0.842309487041831,-7.444619840130209,25.271860438492673,9.970033961656783,-3.1013421615190233
3466,0.01666666753590107,0.3005311989299953,2.013178728276491,1.765422111070156,1.4903904603820293,-0.9258078544616699,-7.51450118560791,18.92433683146263,11.2970167739852,-0.8256738211193383
3483,0.01666666753590107,0.5150741133205592,1.8203280057340858,1.571577116793394,1.7304092498779295,-1.1577458480283618,-7.692569934082031,13.70396006957206,9.693777569165508,1.7369697197351928
3500,0.01666666753590107,0.6643903761714697,1.579275854602456,1.196399403810501,1.9000981464110314,-1.4312833877012132,-8.054543297576904,5.557024406362626,5.515393122710929,6.242005295202987
3516,0.01666666753590107,0.6533953732959926,1.5257015008032322,1.0570061306893825,1.8920175696775317,-1.4926348052427172,-8.19101220768392,-0.9344036025167712,1.8698263973237554,8.047580743334667
3533,0.01666666753590107,0.6828853794135152,1.4344523731261491,0.8588859433114528,1.9156606033325194,-1.574336936895549,-8.393024141803384,-9.215607978203963,-0.548691667667897,9.714054693263984
3550,0.01666666753590107,0.74552216059044,1.4039908916279673,0.5520540368020534,1.9645920266967265,-1.5610194824218748,-8.715791868591308,-20.312634251970252,-0.20161707241715363,11.72569310667354
3566,0.01666666753590107,0.7396186356350779,1.3735025221228598,0.3933586818397045,1.951723265838623,-1.5384239119932055,-8.892214603424073,-25.989516952322376,2.224131148017354,13.302934050191224
3584,0.01666666753590107,0.6292286080278456,1.3923866708129644,-0.016692776125669478,1.8379986139159648,-1.458816999053955,-9.32152488861084,-26.58965493884013,3.65068616561351,14.80008419550134
3600,0.01666666753590107,0.5599645176656544,1.318935650154948,-0.2927981204599142,1.7672201004028318,-1.4612109084531664,-9.619303720092773,-19.947106433253264,4.4401834629070525,14.763846626859836
3616,0.01666666753590107,0.5582981188233942,1.299375794160366,-0.3441086209803819,1.7649754632811991,-1.446097802734375,-9.680954412841796,-11.879010362972817,3.221851244470378,13.46325993435258
3633,0.01666666753590107,0.4930167414218187,1.144651388655603,-0.24150047942101954,1.6962918031554668,-1.5851108443662523,-9.58339069519043,-4.405301259928974,1.2193029590724622,10.97368159509232
3650,0.01666666753590107,0.27110388278514147,0.9707777537837624,0.1828729338854551,1.4664483707152307,-1.7573434340327978,-9.160514826965331,0.340963310171301,-1.0784303074409491,5.098297802647169
3667,0.01666666753590107,0.17184731667600572,0.8005205558434129,0.4078904805392027,1.361103570733592,-1.9298758834287524,-8.935609508514403,0.4503747231035601,-1.7430514695825603,2.4284980919469517
3683,0.01666666753590107,0.12041903499476611,0.4794122867003083,0.755220986175537,1.3025952676635235,-2.250399922943115,-8.589348093414307,-1.4053228409526421,-0.753763188299064,2.187424430757236
3700,0.01666666753590107,0.06078326226472854,0.28383944571763275,1.0507833106517792,1.2419921112060546,-2.440140112249553,-8.295610061755776,-3.8655118367096897,1.5470585510188097,3.783460347323503
3716,0.01666666753590107,0.06684088180325926,0.22137129910588263,1.1582073280602694,1.2508205836974085,-2.4911668273925778,-8.19116242980957,-6.6935367215146595,3.4942778218279797,6.124664779696284
3734,0.01666666753590107,0.07215477030239999,-0.01896656627655029,1.1872808623313904,1.2627916650634259,-2.7087396109983324,-8.167818963623047,-10.258127925753335,4.624496117659846,9.240188975253192
3750,0.01666666753590107,0.08623319921121,-0.18446371020823715,1.0509738647878168,1.2844891176085917,-2.834584835760295,-8.314463815307617,-15.305193760096708,5.947240797608271,13.005326486354491
3766,0.01666666753590107,0.14300912553071976,-0.2879334370329976,0.9535825810939073,1.3474865487914531,-2.9037177009582518,-8.42070651397705,-15.963627411180521,6.116030566811742,15.003150842167695
3783,0.01666666753590107,0.293043765784055,-0.25554858625680205,0.6809113028615713,1.5011642947874961,-2.8259061470031734,-8.705466873931885,-16.058321153833578,3.782623649150177,15.080395159038662
3800,0.01666666753590107,0.38187151153311133,-0.27760347393751145,0.48708033711016174,1.5887022929869592,-2.8140841917842625,-8.908674739837647,-15.73729543265381,1.621365886546671,12.526944305755029
3816,0.01666666753590107,0.44488194832801814,-0.34491613797098397,0.3759855222344398,1.645115742669627,-2.848501425170898,-9.029432286071776,-14.377123023601008,-1.53053376209561,10.592014893140238
3833,0.01666666753590107,0.5303395600568502,-0.31859570180028673,0.1426186649084091,1.710806650720164,-2.7883468161985276,-9.274239405822753,-9.2073203974198,-6.786653971129913,9.816995035566185
3850,0.01666666753590107,0.48856465738378463,-0.3351654360681772,0.12856149798333644,1.6424222658019512,-2.7940333374023436,-9.294440482330321,-1.8107902975629848,-8.736956005132285,11.202707229472956
3866,0.01666666753590107,0.42887467024847864,-0.3475336269930005,0.21271160731017588,1.5538368043761699,-2.814982601928711,-9.21154124984741,5.67945768166922,-7.71493601660306,12.708454021627178
3884,0.01666666753590107,0.22511720763593912,-0.5726224853172898,0.5023153156429528,1.322048156152293,-3.075651015417278,-8.915857344818114,12.174316153059257,-1.9161177909801053,16.373776855745202
3900,0.01666666753590107,0.16068784395381808,-0.8583981597945094,0.6367974358469247,1.2440868915282188,-3.3987186019346116,-8.772952848705648,13.955130031015525,0.48050380811039706,20.589746979428714
3917,0.01666666753590107,0.2525507926803082,-0.961712696057558,0.5868617308109998,1.3215991702757774,-3.544166352789104,-8.813055726513266,15.317696421372416,-0.3113946742023753,24.89745508140196
3933,0.01666666753590107,0.4709047167263925,-1.0607064465120435,0.31088965746760366,1.5038578447204083,-3.707271633148193,-9.075221392822264,17.721654924291983,-7.21998550462444,26.9475107475719
3950,0.01666666753590107,0.7333376556694507,-1.0018751950979232,0.34988661985993386,1.7342997545104473,-3.705924894714355,-9.023297144317626,23.264196341406418,-4.506775245993738,22.194320632457497
3967,0.01666666753590107,0.7421087719503789,-1.0484259338706732,0.15709084237515925,1.7160438207212834,-3.814710848125815,-9.200766757854819,22.92995761927726,-6.265530601138627,19.482687720638246
3983,0.01666666753590107,0.8369798895169049,-0.9162921303585171,-0.04428805453777313,1.767070389733836,-3.7557542167663573,-9.38467195739746,18.23239939495261,-8.598410740460455,21.27968146296463
4000,0.01666666753590107,0.7886220282569527,-0.7918973966658115,-0.2773661580502987,1.6778864509582518,-3.6816836029052733,-9.606285248565673,19.545306894948922,-9.674295308331693,25.696209846341812
4016,0.01666666753590107,0.7389696702070534,-0.5341173980951309,-0.24233225407004355,1.5885526553831995,-3.482964280590415,-9.55645592651367,24.36408902421025,-5.925936156926531,26.89440261168047
4034,0.01666666753590107,0.7705307104449719,-0.5447606649234891,-0.26050211701095105,1.5785270089965313,-3.5889082885742187,-9.547627307891846,28.612241291715574,-4.01999193271516,25.126551578995237
4049,0.01666666753590107,0.861059707153961,-0.8642053847685456,-0.3544540739059448,1.6388309633117168,-3.9809588104248044,-9.620051908111572,26.715451655426133,-4.148730326399322,23.96865351466507
4066,0.01666666753590107,0.8175251013319939,-1.0522115898892284,-0.3114502139598131,1.567304188714549,-4.231900779668987,-9.55795171802938,21.41023369876025,-2.896034572474668,22.365379305125884
4084,0.01666666753590107,0.7104734974324702,-1.006424528965354,-0.48235856928527354,1.4386158494811505,-4.249259033966064,-9.708637369537353,14.246129386830273,4.808105262928129,18.122848283307484
4100,0.01666666753590107,0.6623590164743364,-0.7931891900420188,-0.7645587233632802,1.3953706550598144,-4.065803039495647,-9.979930345153807,8.403752056662384,10.81313799865117,14.731954766077754
4117,0.01666666753590107,0.620405396233499,-0.8164221815913915,-0.8775140714138746,1.373673056384176,-4.106653813061118,-10.084975358471274,4.716779657309535,14.475667285398659,13.35848141739
4133,0.01666666753590107,0.6631135611686855,-0.8131111573472618,-1.3374620714485645,1.4393640374999492,-4.124610617773235,-10.535385130310058,7.1231129316261494,9.733312411628834,14.928165610364712
4150,0.01666666753590107,0.6056541095644236,-0.5862924064904451,-1.398616505113244,1.3883376146178692,-3.921402751867473,-10.587459016418457,9.985829627886083,5.5917260362145225,14.83526991501066
4167,0.01666666753590107,0.5092801862195134,-0.504036440347135,-1.3143886543750762,1.290325057220459,-3.8654385803222655,-10.493785876464843,8.225189567417093,3.6493658046695816,13.597284467567508
4184,0.01666666753590107,0.37267179457657035,-0.1535544849425554,-1.0578490112543106,1.147121797357127,-3.5265091155454513,-10.233566083526611,-4.506747071463412,2.098205938497591,12.623059581529095
4200,0.01666666753590107,0.10150580634064972,0.4123091737642884,-0.9654787705928086,0.8741828080993145,-2.9355896337762473,-10.150516628918052,-18.31943478799879,5.907985139127269,12.229291491915042
4217,0.01666666753590107,-0.04081614064350724,0.6999570718541741,-1.1359610094606876,0.745644179534912,-2.5905259040281177,-10.340556970214843,-30.808934289176516,13.375943649776783,9.098004927301037
4233,0.01666666753590107,0.01958981274142861,1.1483040659442543,-1.771017154598236,0.8557773828368633,-2.030282715551555,-11.010484522247314,-38.24566474805391,23.15297354096193,4.948520718772074
4250,0.01666666753590107,-0.08389284663014114,1.7275281414836645,-2.002026050621271,0.8156745050292462,-1.363647483062744,-11.265167723846435,-32.22929261764818,30.783327909978137,-2.637996642377345
4266,0.01666666753590107,-0.23672025940716265,1.9392571674972772,-1.8808552474111317,0.7498340324401855,-1.0871168990537523,-11.156530823516846,-18.79189263326691,35.05635914153523,-11.672985390622198
4283,0.01666666753590107,-0.554209242074564,2.202840883910656,-1.4466636199235916,0.5614402162414044,-0.792929662322998,-10.717643731689453,2.3783446532017827,34.81969308679429,-19.74840086237196
4300,0.01666666753590107,-0.8656560950335115,2.2448569018632174,-0.5966109714090824,0.3498526445250958,-0.7612061980649828,-9.85169091873169,11.129509799685222,33.093437906154435,-22.785213957933642
4317,0.01666666753590107,-0.9944697411470115,2.272918628743291,-0.20331600245535372,0.3140891841612756,-0.7555196768611669,-9.438391272625326,12.78285014961425,28.958776061898046,-22.85312823639837
4333,0.01666666753590107,-1.1076552446916699,2.272198497775197,0.5074152691304683,0.30780440480336546,-0.7793126403808593,-8.704269773101807,7.801626485096154,23.548002654251494,-19.28467712150499
4350,0.01666666753590107,-1.1036752351447938,2.240288571034372,1.1947644960850476,0.3796303084775805,-0.8176192824214696,-8.004115425109863,3.2127737096200195,21.871230486601092,-15.05759598758916
4366,0.01666666753590107,-1.1273916262969375,2.199039738062024,1.4837527028679847,0.41823695637807246,-0.8544304252073168,-7.706336593627929,-2.915324093907842,21.22337850608892,-10.480968823840525
4383,0.01666666753590107,-1.0359097127772867,1.8792799609184263,1.70981888179183,0.5783491924010217,-1.1394900603696703,-7.4799354836612935,-17.03964687528787,15.345075234660412,-5.217449598944395
4399,0.01666666753590107,-0.7046320779278874,1.8870593627482652,1.3987497761040926,0.9413700191222131,-1.073350239507854,-7.804349224090576,-29.16182734063877,8.176931719610016,-4.632155747927192
4416,0.01666666753590107,-0.585611730749905,1.7915782965898512,1.2521230445981024,1.0760437163755296,-1.0862187811702488,-7.97433695743978,-36.8265700045787,1.6948689672997632,-5.635616404934201
4432,0.01666666753590107,-0.38900136341303587,1.5889502763986587,0.9209668441712856,1.2722189071655272,-1.1602896872922777,-8.34469061126709,-39.21287076094649,-5.374612678633211,-7.620921877772419
4450,0.01666666753590107,-0.3149595372550189,1.3758248275905847,0.48390813681483263,1.3359645263671873,-1.2773065856933592,-8.811559934997558,-36.795970757097045,-7.548670429184733,-10.025127975049397
4466,0.01666666753590107,-0.3328422538176179,1.3555202907085417,0.26992928604781624,1.3067850475035607,-1.2069766196653247,-9.05292538986206,-33.629402850325334,-7.689734326113006,-11.842006959370625
4483,0.01666666753590107,-0.3178742556579411,1.3159560498222709,-0.12526304095983504,1.310376349993795,-1.1335044100888072,-9.48043943928182,-32.211861974886304,-6.089584501232276,-11.92088283767958
4500,0.01666666753590107,-0.3089431995749473,1.4471030342541633,-0.5290349802643061,1.3127706977844238,-0.9178769153319298,-9.907057416644692,-32.73384210673161,-4.930117200940298,-11.141606918478962
4516,0.01666666753590107,-0.23249022062197328,1.4491688807427883,-0.7282955698490142,1.3829507339477538,-0.832882756396383,-10.127921935272216,-30.86976395392465,-5.241253235088712,-8.71113276742776
4533,0.01666666753590107,-0.04774857025519013,1.2731718239761889,-0.9722311674624681,1.5518915885925293,-0.9138367000304162,-10.397119984436035,-22.881405219562225,-8.305138639199386,-5.73059317355099
4550,0.01666666753590107,0.014118541723489761,1.0744289746552704,-0.8045768454968929,1.5940892467223107,-1.0667663310728968,-10.243293112292886,-11.416012329705161,-10.096597366977118,-4.390199711674076
4566,0.01666666753590107,-0.0414409945435822,0.9073910310223698,-0.5936357549905776,1.5141829124450683,-1.218797990362346,-10.039785386657714,0.11431100644468543,-10.660585723538935,-4.26067413868807
4584,0.01666666753590107,-0.19098390575721857,0.6958508055791258,0.08166589129567146,1.3368622058592736,-1.4392143268309532,-9.367014720153808,5.119827839571518,-8.127901206653078,-4.33257084432574
4600,0.01666666753590107,-0.2964947830207646,0.6005256606347859,0.6148854637682437,1.2164039348326623,-1.5429130401059985,-8.834304266247154,2.9378146261842244,-6.051019545631091,-3.887923394923794
4616,0.01666666753590107,-0.2718614231541753,0.5692769742816687,0.7431009247928857,1.2288240020751953,-1.574935779571533,-8.70786107559204,-0.9785892701963473,-5.241832947394517,-2.2279167803648336
4633,0.01666666753590107,-0.26536475461125375,0.5232718866929411,0.7973638453781604,1.2199952373228966,-1.6120457591734825,-8.658031753540039,-3.064038016149941,-4.790795856024024,-0.48881764243418346
4650,0.01666666753590107,-0.18883505716025828,0.4612374553233385,0.8075637523531913,1.284937957354635,-1.6674118186950682,-8.6511478392452,-1.9862945696074013,-4.5431609443628655,0.39104988776779787
4667,0.01666666753590107,-0.1363901457823813,0.4170246579788625,0.8005909907311201,1.3254898941040039,-1.706915999957174,-8.661024505615234,-1.123623534744808,-3.767739813175073,1.3037695606604827
4683,0.01666666753590107,-0.07118088376894594,0.19033610937297343,0.7840548664718866,1.3745708820067346,-1.9289779116757213,-8.681075359997152,-1.4439649563471066,-3.7129155922546726,1.2280005646502388
4700,0.01666666753590107,-0.1439490367293358,-0.009404372683167458,0.8235042488068341,1.2942154887877404,-2.121412016241252,-8.6444147315979,-3.167920711114192,-1.0785244359854484,0.6593176269728019
4716,0.01666666753590107,-0.18144246269091963,-0.13763123188465834,0.8129647346138954,1.2572550006590784,-2.238129493304342,-8.657433203124999,-5.874190216887692,1.7218240954158068,0.7147040578392585
4734,0.01666666753590107,-0.2803435664258897,-0.3457797690629959,0.42332828816771506,1.16043947102651,-2.4209866450987754,-9.052326839447021,-8.763441771186303,-0.6192041394207286,0.320642777018999
4750,0.01666666753590107,-0.3050277796968818,-0.42988735442236065,0.11082301219701766,1.13006318359375,-2.483235888262838,-9.370456385040283,-7.757735689489652,-3.3498560331489986,0.3975928354666998
4767,0.01666666753590107,-0.3360637000821531,-0.5649424522086978,0.08090075214207172,1.0898105220519005,-2.6066867652341723,-9.40427448348999,-1.1470457475126625,-4.246041739051787,-0.4159874420360433
4783,0.01666666753590107,-0.394339655701071,-0.6450125987455249,0.08928747221529483,1.0203788200378416,-2.6993125880919395,-9.394847314453125,8.061122447137864,-3.266687380946692,-2.5363916020578814
4800,0.01666666753590107,-0.472485263916105,-0.8037856951192021,0.2698211494982242,0.9383772670470177,-2.8844143039427697,-9.209147048187255,12.248198309311285,-1.3803872076751007,-5.021465431560518
4817,0.01666666753590107,-0.5668618759639561,-0.90644425169155,0.435975003772974,0.8460507193967699,-3.031956835119426,-9.032723728832602,14.615805691694396,0.972422996758001,-6.471559842357476
4833,0.01666666753590107,-0.6566428307846188,-0.968931395264715,0.5472942750543356,0.7647976466856896,-3.129819974108785,-8.91211640472412,14.700544433632158,3.7093813962460143,-7.79471006478787
4850,0.01666666753590107,-0.7010561191372573,-1.015228889928758,0.636795097759366,0.7318775199890136,-3.2113724681578573,-8.812757035827635,12.19704873016435,5.292007943924254,-8.04999009256439
4867,0.01666666753590107,-0.7556209452785551,-1.1289425090007483,0.6164098968565463,0.6947673942565917,-3.3541265960142015,-8.8236805809021,3.425737086950313,6.768364005193088,-5.576653089376773
4883,0.01666666753590107,-0.7639090272828936,-1.0958902803570032,0.541545502269268,0.7020994907103478,-3.3268926982603966,-8.894758442687987,-0.7512886854679623,7.6040274048603935,-2.5114556486152226
4900,0.01666666753590107,-0.7570731899134814,-1.065497334050387,0.1940548376351595,0.7154170913144946,-3.3087864020749924,-9.23832579639852,0.16108083350805352,6.574979151675224,1.0810981366420738
4917,0.01666666753590107,-0.7053194756701588,-0.9619450435087085,-0.10284019674956799,0.7701846004210412,-3.234566296740621,-9.527725506591796,2.854469242837144,8.49296371873286,2.2370062680462395
4933,0.01666666753590107,-0.6122559920474887,-0.8155901146814226,-0.31801439478099347,0.8761281700134277,-3.1094691138669845,-9.73572177581787,5.906705759318361,8.569814445952904,0.5757971666673869
4950,0.01666666753590107,-0.4431294055722654,-0.8524690620064735,-0.7749070988982916,1.0631751747131346,-3.186682263537496,-10.179846183776855,12.11317742225118,5.014883263634742,-3.6253683619075647
4967,0.01666666753590107,-0.32907311054244637,-0.7790303163081407,-1.0920534786731004,1.1806405475340782,-3.15076909250468,-10.487052184295655,16.009953169226133,-1.080834960915617,-6.717088921320156
4983,0.01666666753590107,-0.3011471388712525,-0.7427683318376541,-1.1764730525910854,1.2006919864378869,-3.1548093078061936,-10.562468952068686,17.82436560148334,-6.397150053992065,-7.074446980016162
5000,0.01666666753590107,-0.2711116277001798,-0.7150912203609943,-1.2670844668865202,1.2117651691161095,-3.1821929892942307,-10.641777466583251,16.29186922721841,-6.172289127457844,-6.878936230119132
5017,0.01666666753590107,-0.09557020574659109,-0.4565548504650593,-1.4412228901743889,1.3739724777221678,-2.9568390502929685,-10.80922194519043,12.611788915624928,-7.055246037598787,-8.099230633838303
5033,0.01666666753590107,-0.012474135517328977,-0.21311025123894214,-1.6365262665659188,1.4443020053587854,-2.7382179266780615,-10.99986025238037,11.248352529922505,-7.914281917719053,-11.852095148774735
5050,0.01666666753590107,0.022721096504479645,0.1848877808392048,-1.6504717898100614,1.4667476459227502,-2.372953120422363,-11.00689321975708,14.01977435641511,-7.224015316234747,-17.856013283002593
5067,0.01666666753590107,0.01777764875292778,0.5087444719076156,-1.6303203976631164,1.4568715640746057,-2.080859933361411,-10.978760765728353,18.252944603976008,-7.544906994952055,-21.224742836375633
5083,0.01666666753590107,0.02787920992001891,0.6732566964551806,-1.6381740337729453,1.4631564895629883,-1.956212101690471,-10.976067873382569,21.1277199992156,-7.902841350859281,-22.43754196125436
5100,0.01666666753590107,-0.0441825483366847,0.8430980070710181,-1.4000140969514845,1.3868411655150352,-1.8403925963804124,-10.723180323028563,18.151330172146437,-8.361650770618425,-23.068116978260985
5117,0.01666666753590107,-0.1327104343563318,0.8133218774884938,-1.1617378402739762,1.2918214332580567,-1.898751261846721,-10.477625015258788,12.382713762372807,-9.849600651116532,-22.57424478239758
5133,0.01666666753590107,-0.14395985038429499,0.7740048893615603,-0.9461527233541012,1.2719196319580077,-1.952471161596477,-10.259154113769531,6.384133420981313,-10.615602951438877,-22.528979411220615
5150,0.01666666753590107,-0.12179711841493844,0.9649825115084647,-0.5933224512577057,1.2767078891478478,-1.758241844177246,-9.909899946594237,-0.7805922780805798,-14.48099483295127,-25.13710763635749
5166,0.01666666753590107,-0.013142244037240743,1.4101473684310912,-0.4868377605259418,1.3645451625548302,-1.2972078024715183,-9.811138543590904,-3.6781448067374303,-17.780160617175017,-28.077109630623415
5183,0.01666666753590107,0.017630933758616445,1.6694667053982615,-0.40491877125203607,1.3696329872131348,-1.0164882423400878,-9.739163440704345,-4.511416359534762,-20.88201760420273,-32.60641809757585
5200,0.01666666753590107,0.04500906228870153,2.0205206154718995,-0.3493348311960697,1.358559804534912,-0.6404489440917969,-9.696217448425292,0.6077912134827547,-21.484903034314126,-35.90364069298073
5217,0.01666666753590107,0.2566059863552451,1.9831436554968356,-0.013024901267886161,1.5465044887267052,-0.6754638511106371,-9.363872330474853,7.481272683775985,-17.525158919607176,-35.21421164344339
5233,0.01666666753590107,0.3899542802236974,1.9807807257577776,0.1766694030702114,1.667112251226604,-0.6893798559993505,-9.172634888347982,11.048858925965712,-12.14494890094914,-32.03668128305382
5250,0.01666666753590107,0.6421848279736936,1.9766917028784752,0.43050037175416944,1.917007195635885,-0.7173626724243164,-8.91226604232788,11.595279182208609,-6.078256205606986,-26.104296573777148
5267,0.01666666753590107,0.6797391903422773,1.866930766955018,0.7394476629823445,1.9608510135374961,-0.8460504271358251,-8.596979611206054,10.550082654278238,-2.343576002118656,-20.704729799011297
5283,0.01666666753590107,0.6810097947999835,1.8699229345083235,0.8412094168454408,1.9716250671386717,-0.8590691909238696,-8.489240536499024,7.111370982669251,-0.4951624612863022,-14.936465997753569
5300,0.01666666753590107,0.6814246592111886,1.9468626740649342,0.8386246610492467,1.9837455669127404,-0.7894874129146338,-8.488042851147055,1.3776243961558305,1.1991675613992645,-6.697661728886525
5316,0.01666666753590107,0.6317533041998744,2.1178309428840874,0.6437286964148282,1.9415479087829588,-0.6187514915466308,-8.681824132537841,0.48777657219428544,3.1597432671303944,-2.0445823367672324
5333,0.01666666753590107,0.57292965157032,2.315495203188062,0.5471919837236404,1.8956090182982384,-0.4210799247190356,-8.776544151195884,0.26222387556318905,6.852256657447416,-0.5517204830388275
5350,0.01666666753590107,0.5070500890798867,2.4901401146933435,0.36073066995739933,1.8607436027526854,-0.2466024787351489,-8.958504061889649,0.20222889461618543,11.569337269967255,0.7515815298286267
5367,0.01666666753590107,0.5731083691380918,2.4737428143829105,0.1840641894966364,1.9559128264829515,-0.26455899118632076,-9.13043708408773,0.8785594422542181,13.151093822299964,2.16747494229551
5383,0.01666666753590107,0.5765916812092066,2.506292208071053,0.13621756569445131,1.990179837743938,-0.23448154056966303,-9.172934748077392,0.33505407596132925,13.223075478415435,2.677268309114214
5400,0.01666666753590107,0.6054423665098846,2.5967823340743776,0.09532675237953663,2.056768717547506,-0.14065905527323483,-9.208997410583496,-2.025840938014952,10.724195275279264,2.219550225518391
5417,0.01666666753590107,0.6339250952810048,2.509843178550899,0.02439326750040054,2.1039045627318322,-0.2145803237915039,-9.280823460388183,-4.806082246273336,5.820615066811758,2.6472297774747324
5433,0.01666666753590107,0.603583148509264,2.4215868029490113,-0.04033668656349182,2.0774187068663537,-0.2856578933164477,-9.349956617847084,-7.076467862236839,-0.476739893630044,4.082504812206879
5450,0.01666666753590107,0.4161103196129203,2.170393489292264,-0.17970657880902288,1.873462652941793,-0.5066726340696215,-9.50064110031128,-7.364996397119334,-5.112780365008534,5.426938757864678
5467,0.01666666753590107,0.12543182165548206,1.8093091835916042,-0.22324293819665908,1.5671546241760252,-0.8379705810546875,-9.555109188079834,-8.045889417741442,-4.220064822090936,5.77332838652729
5483,0.01666666753590107,0.050178573881089684,1.6080498214051127,-0.2598386846661567,1.4787186542235313,-1.0116995467588306,-9.60149626072347,-8.918589518183142,-3.2350145131048738,7.32959979551939
5500,0.01666666753590107,-0.058716685123741626,1.3712033052697776,-0.409435956415534,1.3564645858213304,-1.2012903907224535,-9.766247262462972,-6.340997788164921,-1.0863038080066814,8.582794366696866
5517,0.01666666753590107,-0.13665391128510235,1.2395587465792894,-0.27220658333003517,1.2746129626952112,-1.304390699712932,-9.637409870147705,-3.4745272626258297,1.2369993388817306,8.57141185644504
5533,0.01666666753590107,-0.10701046817153692,1.1590548848003148,-0.1852969461619854,1.3028944698058067,-1.3747206657409667,-9.553463174438477,-1.5754218720426396,1.9524356143443555,8.36395254436872
5550,0.01666666753590107,0.0007379588857293128,0.9627136897936462,-0.029584990924596783,1.4047976779662072,-1.5601213645383716,-9.401581006622314,-0.6850265123695828,-0.5525438943597842,8.371100337335138
5567,0.01666666753590107,0.1299301559880376,0.7464920285359025,0.12359949166178702,1.5219640678405761,-1.7664716201230883,-9.252841228485106,-2.069593849177584,-2.8501512826212263,9.202734779165782
5583,0.01666666753590107,0.22462167920395731,0.5725628640845417,0.18443652994036674,1.598428737231344,-1.9316715346738695,-9.197026402282715,-4.236266457689029,-5.124743014452989,11.333886988898575
5600,0.01666666753590107,0.3812343826733529,0.41613720761984585,0.1541167950004339,1.7244235995970665,-2.067392841283977,-9.2372783331722,-5.065847147013614,-4.512261168557727,13.106363767199197
5617,0.01666666753590107,0.44258813830241556,0.35220161880403755,0.10655249527096748,1.7681177798949181,-2.1169228881284594,-9.291148455047606,-1.5342823620111834,-0.6724382069249849,14.066019005964328
5633,0.01666666753590107,0.4794892974592745,0.35844606615155933,0.06613397564291953,1.7989431262694298,-2.1122841224119067,-9.331999520874023,3.2008138349399156,3.3499196392856443,14.95976206546519
5650,0.01666666753590107,0.4825622751638293,0.3566758416086435,-0.024985388174653053,1.807472615814209,-2.130390564727783,-9.418041143035888,8.099690817833633,6.762207016543145,14.445846679482383
5667,0.01666666753590107,0.4074611492112279,0.33295740462988616,0.04463876767158508,1.7447743137083946,-2.1737848852962256,-9.341426105388999,9.618123832597508,6.56808450259492,12.45555175345547
5683,0.01666666753590107,0.3094797906696796,0.2578428346738219,0.011156769308447837,1.6561888522826134,-2.2732944763183593,-9.367014720153808,10.1421214315689,4.432380398667136,10.439505306710316
5700,0.01666666753590107,0.14654840557277202,0.15509791499227285,0.12429682627618312,1.5050548724852502,-2.408267302648723,-9.243413474926353,14.016219242952118,1.9540547960644716,8.949756525139557
5717,0.01666666753590107,0.09651479312032461,0.1337397774040699,0.19654957706034182,1.457320476885885,-2.4691698073789476,-9.159916276550293,20.91885793703849,0.8730224533540121,9.383419749695653
5733,0.01666666753590107,0.04219838878214359,0.150108728402853,0.3201946614295244,1.3997099994383753,-2.5143603637143968,-9.019406566619873,26.394205660645632,1.537015184731129,9.175565140421117
5750,0.01666666753590107,-0.06540317715033889,0.25903876646012064,0.5843927103489637,1.2913723743163048,-2.497151747021079,-8.728660117992758,24.392632384751735,0.8496618190103933,9.31553108444031
5767,0.01666666753590107,-0.08460764383599162,0.2272849070638418,0.6675321813285351,1.2678791243955492,-2.5861864135190844,-8.629002058410643,20.976007837371277,1.9905920392558087,8.837060965155285
5784,0.01666666753590107,-0.02420928923562169,0.219964354917407,1.0261603260487318,1.3332710494995117,-2.645143629400432,-8.253860585784912,19.60652246538516,6.7796269871344395,8.400986683822175
5800,0.01666666753590107,-0.10858385496810077,0.008237374730408191,1.0106611436218023,1.2645873893737791,-2.9239184852048754,-8.246079430389404,20.054996101382784,7.181978063214258,9.179269664272203
5817,0.01666666753590107,0.08812076652348041,-0.0587023643374443,0.9206260679095983,1.4688425723753868,-3.043329293005168,-8.318204755401611,20.473218829546422,5.010132440180175,9.556485644206374
5833,0.01666666753590107,0.1345835347518325,-0.07108458378762006,0.8389028934687376,1.512536898803711,-3.108421650640666,-8.383147475433349,20.359888915742985,-1.6424739458463606,10.51374604789377
5850,0.01666666753590107,0.23302681171670556,-0.23396716130673884,0.6729419314175844,1.5831657016478478,-3.3424548629209396,-8.5294930519104,20.52651479564003,-6.930844814037583,10.495368570158204
5867,0.01666666753590107,0.40666240004897114,-0.11276099452227353,0.8259194932550191,1.7302596122741698,-3.2710777259275314,-8.36339531173706,18.113887075116427,-8.719876263339023,9.208380784288444
5884,0.01666666753590107,0.44091435987129807,-0.17658143252581357,0.7971978411614894,1.734299681445211,-3.3762732536315916,-8.382100012207031,14.052130670060754,-10.902544321112991,6.557135709355389
5900,0.01666666753590107,0.6278294087544083,-0.20413433310091494,0.5777309143722057,1.8767546802245079,-3.442562419836223,-8.594136496734619,9.315315933481456,-12.346579500342502,3.525653789884314
5917,0.01666666753590107,0.7306060387484729,-0.4224205256730318,0.545809004932642,1.9505260919433085,-3.680037297002971,-8.623166191864014,6.043769726713945,-10.037828711811036,1.782752157576671
5933,0.01666666753590107,0.7568106665197759,-0.43504269135892387,0.5597615424394607,1.9545663803100586,-3.7020340247556565,-8.608800981903075,1.5078692734388037,-7.763730034259985,1.446494260774127
5950,0.01666666753590107,0.8087324308063835,-0.5477931644871831,0.34961481718122955,1.9774607875548302,-3.814112589971721,-8.82293180836141,-1.913110800198007,-8.613829892511758,3.9089211039797056
5967,0.01666666753590107,0.7807492490552366,-0.7345470314592123,0.2404296353191137,1.9253869014464318,-3.9962215537473558,-8.936806609344481,-3.1041660178540007,-7.924270215606549,4.999374892237404
5984,0.01666666753590107,0.7633790120594203,-0.8717471784502268,0.1522521701723337,1.8851345321655273,-4.122515691320598,-9.031676850128173,-4.843340928195755,-3.7006980913768124,4.019803675626162
6000,0.01666666753590107,0.817109944659844,-0.9937418652638792,0.013960136291384696,1.935412620898336,-4.237736353954673,-9.172784525951743,-5.795135472999848,-1.9282432977475819,3.0151831671207208
6017,0.01666666753590107,0.8954168809164315,-1.1327718580305575,-0.1917752022653818,2.0202572152953593,-4.371063751165568,-9.379733916473388,-5.743513330139716,0.048896523855327924,1.0928565207416623
6033,0.01666666753590107,0.8859128472510724,-1.3809563452601432,-0.1421136379957199,2.026242646380514,-4.61302775644511,-9.330352922710777,-2.381934557940859,4.381784064842974,-0.73936077393874
6050,0.01666666753590107,0.8221836677275598,-1.4656731485590337,-0.0975152023345232,1.9809024524413048,-4.700116549572348,-9.2826191116333,1.112862998594276,6.865674564071906,-0.5290704018123016
6067,0.01666666753590107,0.7173249707624316,-1.2133403094783424,-0.32009237009882924,1.8996492335997521,-4.457255010931194,-9.498845449066161,1.2284178465198443,8.131925041847863,0.0865454603753638
6084,0.01666666753590107,0.736686308510229,-0.7345180976256728,-0.867755478465557,1.9412486335754393,-3.9782650412961837,-10.043675964355469,-3.511529812454374,3.6385344053064106,2.3392800265741296
6100,0.01666666753590107,0.6929425169169903,-0.6699021253302693,-1.0284878922134637,1.8987514810424297,-3.904343772777915,-10.207529140472412,-5.16224502186459,-1.2644579800056512,3.547995765546249
6117,0.01666666753590107,0.49478185139819975,-0.5700038272514939,-0.9537854101896286,1.6941968767028301,-3.7978020911619064,-10.136002365875244,-2.4353801478659745,-2.1769112755207054,3.6757546674147488
6133,0.01666666753590107,0.3660331602796912,-0.3393842228069901,-0.6433218691796064,1.565209189196676,-3.572896772710979,-9.823559049224853,3.557170203705457,4.480389798343156,2.1572454533529464
6150,0.01666666753590107,0.33039939071014524,-0.19255875385850668,-0.48427054038643835,1.5466541993957013,-3.4362776404783126,-9.65865840988159,3.4329043032671835,9.657196783518213,0.25924457906374127
6167,0.01666666753590107,0.35657355027794835,-0.1223193887233734,-0.26833061867952346,1.6102501079283653,-3.371634487915039,-9.43569838027954,-0.3554646021920314,11.7898422433583,-1.9596154238225083
6183,0.01666666753590107,0.4275602266490459,-0.05744067383855581,-0.2386532732963562,1.710357810974121,-3.301155176544189,-9.40397520828247,-3.7296405910979185,9.671785213811713,-3.1348015507156233
6200,0.01666666753590107,0.3718139356382191,-0.04720072711408138,-0.27990649018287656,1.6765395663939415,-3.282450183813274,-9.445125549316407,-1.375785154278393,6.6846553411595275,-1.8846549514552646
6217,0.01666666753590107,0.26105522084906696,-0.12404226699322461,-0.20854805788993835,1.590647581835836,-3.3623566642209886,-9.369109646606445,0.8702197279167797,9.310473329359917,-2.7865686247507546
6233,0.01666666753590107,0.13622224186956883,0.3337555692702532,-0.2699795549303293,1.497124225616455,-2.8892028533935545,-9.431358889770507,-14.924064081768119,12.361641775009673,-6.377895323834976
6250,0.01666666753590107,0.193238845077157,0.7176812368541956,-0.8916589166224003,1.5860088161192833,-2.4358009140014647,-10.072406384277343,-41.19063741248831,7.681725929311166,-6.728328851373059
6267,0.01666666753590107,0.21821064311787486,1.3460241480886936,-2.499993692448735,1.6217723495483398,-1.6359876296445726,-11.736226900482176,-58.035871490788224,-4.194842214146548,-4.8545983606084055
6283,0.01666666753590107,-0.28374007699638604,1.7344579407468437,-2.660155028310418,1.1088144977293908,-1.1215335479184985,-11.937788752746581,-41.54272341891871,-7.259387158398951,-2.9631036150296084
6300,0.01666666753590107,-0.6576119680777192,1.838064445693791,-2.3017110079854723,0.7217020168028772,-0.9548372573301196,-11.60050559387207,-8.348030519639773,-4.601107415507607,-6.53178033960901
6317,0.01666666753590107,-1.2995287927649914,2.031349468000233,-1.2073738022893667,0.09142828363627195,-0.7957724845334887,-10.494084567150473,28.894500566713642,4.762720363440687,-14.951109923334077
6333,0.01666666753590107,-1.4677859029293059,1.9262588619753718,0.04689736025333404,-0.04563946914672851,-0.9784799987241625,-9.211092337036133,38.346406623217014,9.88275780444236,-18.2308523571056
6350,0.01666666753590107,-1.5180689600981772,1.8770432879075407,0.4928337860703468,-0.055365913391113276,-1.1115078284665942,-8.732102367401122,36.004696756845654,10.937108493407841,-20.326745422795497
6367,0.01666666753590107,-1.5572798575021325,1.9731375175282357,0.8987766396731137,-0.037559184674173594,-1.1046247909545899,-8.287529046630858,26.806142907225563,9.894851508141514,-22.530012477332576
6383,0.01666666753590107,-1.4891639142617583,1.9847268330350516,1.1381301701933144,0.07257423782348632,-1.1400886107847095,-8.02521432723999,20.194524913295098,9.605469199612767,-21.8067927744239
6400,0.01666666753590107,-1.403939453701675,2.0427140348404644,1.2185434310793877,0.19826967885121702,-1.1134531173154711,-7.927052059173583,13.022562468725017,10.589894973176596,-19.934234941762373
6417,0.01666666753590107,-1.4044213919997215,2.088212049689889,1.2374305023789405,0.254084651184082,-1.0794853812620042,-7.894131786346435,0.8025290847865154,11.655755384667195,-18.063686892264126
6433,0.01666666753590107,-1.0940206870928406,2.119601167427003,1.1196160238593815,0.6067804832458495,-1.029207438659668,-8.010699479675292,-10.321103123674499,11.207477262834564,-15.727611931958023
6450,0.01666666753590107,-0.9099633657284081,2.0436992464855313,0.94787063318789,0.8265979770384728,-1.064821188354492,-8.189516416168212,-17.045913573851355,9.348764223620654,-12.13073613105999
6467,0.01666666753590107,-0.5972070376060903,1.8265017259329557,0.37228316058516503,1.167771567480266,-1.2184987151548266,-8.781033279308676,-17.461308603698605,1.78462779155578,-9.44535761263662
6483,0.01666666753590107,-0.461193616181612,1.8505603546515106,-0.01414776781797409,1.3099274371825158,-1.1516107062742114,-9.18041662826538,-14.690297442329847,-2.6805056053373884,-8.323440131080435
6500,0.01666666753590107,-0.3747990889288485,1.8049094873279332,-0.11521510967612265,1.392527248327434,-1.160140049688518,-9.294290260204672,-13.894845927627346,-5.484086523763352,-8.010170943476862
6517,0.01666666753590107,-0.20963906799703835,1.7079548414856194,-0.2342389639854431,1.540967897387594,-1.1984472762510179,-9.435248882946372,-20.813614967212345,-9.631715055272187,-6.329433424126443
6534,0.01666666753590107,-0.0776534407839179,1.552360082887113,-0.3835381295710802,1.6503529857359827,-1.2957117186948657,-9.607033436584473,-24.9321814706896,-11.98262433268191,-3.3811210106313205
6550,0.01666666753590107,-0.030506635814160108,1.4075783947259186,-0.2578209151029587,1.670404424639791,-1.380406602422893,-9.504681315612793,-23.21217079049843,-10.84055693930054,-0.2045555745445665
6566,0.01666666753590107,0.028279753544926643,1.2271432093814014,0.1639776792794466,1.698835715484619,-1.5001169776916503,-9.106495652008055,-14.203358742247651,-7.480232787474851,3.2581276598127853
6583,0.01666666753590107,0.07170300794690847,0.8642585762605071,0.49851241622865194,1.7248726585388183,-1.8365020186826586,-8.782829515075683,-9.407506411803702,-4.460167742644863,4.011972863742742
6600,0.01666666753590107,0.09690803022161125,0.7285624040916562,0.7065162842392921,1.7404348231993614,-1.9538179000303149,-8.581865628704428,-7.528619555102513,-1.0112321316220134,3.9996862071995354
6616,0.01666666753590107,0.2181570132344961,0.28058775044530626,1.1960948679059744,1.8637363548278807,-2.3735513785764573,-8.100033129119872,-12.916147267682572,4.315917562468779,4.638321274313599
6633,0.01666666753590107,0.34307445562705396,0.05378536620140075,1.2195908943057059,1.9969136760435997,-2.560299108068645,-8.086416107177733,-22.046938810546962,5.171727885753506,6.5202091453813615
6650,0.01666666753590107,0.3526555000513792,0.005683598594367504,1.017478422421217,2.0141220004759726,-2.546682086126506,-8.304288458251953,-30.750870851042237,5.677301476325612,9.763764810043336
6666,0.01666666753590107,0.30409269080385565,0.03414806105643511,0.4211211335122585,1.9731211509153246,-2.4133551273070273,-8.927378855785728,-36.71885450627301,4.5938426555516525,14.34427835142971
6683,0.01666666753590107,0.3659907824426889,0.04912395026162267,-0.27586042966246604,2.033275613757223,-2.3168387267515063,-9.645639938354492,-34.62353005383152,1.9647382791434294,18.446421665047666
6700,0.01666666753590107,0.34819764385968444,0.02366246900781989,-0.4837725277364254,2.0054430194579065,-2.274491431017965,-9.872191270446777,-27.558476291471422,-0.10383354961873877,20.738761216550884
6717,0.01666666753590107,0.2290130460307002,-0.0028442835152149197,-0.6313982071518898,1.8692728000365197,-2.237381305285543,-10.038139373016357,-18.84331883507523,-0.7387223646947554,20.551921391805184
6733,0.01666666753590107,0.10493088541850447,-0.21867022345364093,-0.5584446146219968,1.73010997467041,-2.421435411779582,-9.975291579437256,-13.701786361868704,-1.757532110953222,19.698228000276337
6750,0.01666666753590107,0.026443039637058973,-0.38754605003818865,-0.45270402025580403,1.6379332107543945,-2.5710731616698204,-9.87638112335205,-8.56681087026539,-0.4139729897981391,18.2158430164045
6767,0.01666666753590107,-0.2432075755998492,-0.5581218124084174,-0.08814473192095756,1.359607121630758,-2.7329809028074146,-9.515305585479735,-2.536981559647441,3.046264369825687,15.047729779333077
6783,0.01666666753590107,-0.3556049975067377,-0.5818341119073331,0.1920551882505417,1.2481271068297326,-2.7582698039732874,-9.234585440826416,-1.436105756489949,4.2544398835231405,13.835190201642808
6800,0.01666666753590107,-0.36382571336328984,-0.6459966413468122,0.31221944476664065,1.2440870376586914,-2.8232125240050254,-9.113528619384764,-2.6340180571858123,5.5619908076628715,14.294129394996183
6817,0.01666666753590107,-0.30416853251904247,-0.6170427879326045,0.4787345335692167,1.314715694372356,-2.7979236228391526,-8.944287905010581,0.5661500047124199,8.675558580909394,17.729748698458447
6833,0.01666666753590107,-0.19087503855526447,-0.6000820085205137,0.7085457442402839,1.4434041797362267,-2.79478137929067,-8.708609263610839,3.98363312821589,12.31846644171873,19.89955124115705
6850,0.01666666753590107,-0.08365195054635405,-0.6181288296036422,0.7905261083126067,1.5708955642700195,-2.8329388221189378,-8.6183777885437,4.9914672407258225,13.770431470574625,22.02617162037554
6867,0.01666666753590107,0.09208134071752429,-0.8072296980932354,0.8567746502459048,1.7718587199889122,-3.046920741625875,-8.5417633354187,1.7788237315868558,12.566217893482602,23.99674949781592
6883,0.01666666753590107,0.163478059194237,-0.8909799944475293,0.9084025461524724,1.8599951224729419,-3.139995185033977,-8.4849004614681,-2.5324098152151753,12.667307254519729,24.718963455369312
6900,0.01666666753590107,0.11567132901102303,-0.9380800376661121,0.8700526494920253,1.828272096606344,-3.1875799430295824,-8.520215520477294,-5.948209830696766,12.569084011613068,26.31473470210524
6917,0.01666666753590107,0.00813785987868905,-0.9505775540590286,0.6380635102599859,1.7405846069335937,-3.1913211753845214,-8.750657430267333,-9.04103431943396,12.391805597931741,26.3087309658248
6933,0.01666666753590107,-0.06769084969609976,-0.8249772439688444,0.28132921646237374,1.678784130450338,-3.052906099645793,-9.107842390441894,-10.67681339923324,11.043654321818162,26.696127342716874
6950,0.01666666753590107,-0.11575944568589329,-0.7617505340747535,0.09042261372506619,1.639130165454,-2.9765910678587852,-9.300276348876952,-9.544011157460993,8.650595093266645,26.537438142635384
6967,0.01666666753590107,-0.2097029270134866,-0.6952230290696024,-0.1269254212141037,1.5490484741210937,-2.899677339526266,-9.519345800781249,-6.290374987357725,5.8184302600510005,25.836974922493898
6983,0.01666666753590107,-0.32298458440899847,-0.7305370651654899,-0.2773866163164377,1.4318820842467248,-2.933944350787252,-9.670779055786133,-4.557312242549485,3.1391700970200813,26.264114462618984
7000,0.01666666753590107,-0.3560710075832903,-0.7789516981139779,-0.30948329780101774,1.3881879039488731,-2.9815291087828575,-9.70504606704712,-6.2920974756890375,0.7683636781453183,27.061409274623742
7017,0.01666666753590107,-0.3303311477795243,-0.8005188022777437,-0.4916524673312902,1.388337541552633,-2.9966425067625937,-9.893439810180663,-7.510577610409925,-3.026306343627498,29.710851606502736
7033,0.01666666753590107,-0.23550649970322846,-0.6525625757336616,-0.6634136400938033,1.4564226512633263,-2.8437128757201133,-10.071209283447265,-6.937706165945683,-5.126054837660454,29.862539862684965
7050,0.01666666753590107,-0.15378902435079217,-0.5548962744906545,-0.8156944518387317,1.5074490741454063,-2.74360531880483,-10.229525868225098,-5.950576064357352,-5.049196426477593,28.85144988437505
7067,0.01666666753590107,-0.04084273638948798,-0.12127397132366895,-0.950863969784975,1.5896001186095177,-2.303072067205608,-10.371681007274985,-8.113705512236853,-1.2238490902953403,25.91363696573812
7083,0.01666666753590107,0.2135521497875452,0.46408042366430163,-1.0934838037371635,1.8309655734740196,-1.7048210735045373,-10.519523544311523,-11.427548519213314,2.0703402607878196,23.795593596569873
7101,0.01666666753590107,0.3995870548352599,0.8133499345391988,-1.170578149333596,2.0117277988158166,-1.329529963275045,-10.603470240020751,-17.686935365193513,3.8457008730220674,21.547723699205317
7117,0.01666666753590107,0.9262951995871961,1.4473216454409061,-1.5889298181325195,2.5360579623900352,-0.6302735870361328,-11.036820740509032,-28.485718867530256,2.788802096609349,18.69546914520655
7133,0.01666666753590107,1.3657738275669515,1.8098928286984561,-2.2444161723583935,2.9658171603880823,-0.20021496770009398,-11.708543943786621,-30.993940208130066,-3.2104582754913853,17.851621471366276
7150,0.01666666753590107,1.4322671380415557,1.835288843500614,-2.355139231312275,3.008014964648336,-0.1104324054442346,-11.836783370208739,-25.796664853559772,-9.286447285180751,16.87104877826798
7167,0.01666666753590107,1.3349737617641686,1.6854177232459187,-2.1875953839838504,2.85867663609609,-0.20410554539784787,-11.689091055297851,-13.82297013944401,-14.871398200625443,16.460400729893887
7183,0.01666666753590107,1.075082762388885,1.3011077325195073,-1.4187778341323136,2.551021868896484,-0.5668270969115198,-10.932074417877196,-9.566210979810826,-17.040572365920404,17.001157051767553
7200,0.01666666753590107,0.8257872451774776,0.9118218530766665,-0.5544260266304015,2.230497975512594,-0.9320923415586352,-10.083179707226156,-11.14224724871365,-18.70291917404374,18.802271105710744
7217,0.01666666753590107,0.7805358985655009,0.794653855767101,-0.19884382547736168,2.1279963630676266,-1.0242693977355957,-9.740659816741942,-14.694434829419583,-19.759785080171078,21.556486831910444
7233,0.01666666753590107,0.7294707511082291,0.7443171687148511,0.18885317733883858,2.0156183765135705,-1.0393823573239147,-9.368061598858237,-19.855566530449458,-19.913218449686244,25.889190011151353
7250,0.01666666753590107,0.6313783334076404,0.9041596478857099,0.4032195661187172,1.8424877420287578,-0.8215102985106408,-9.17413184890747,-21.09503071384792,-13.188044291936086,34.146287661049804
7266,0.01666666753590107,0.5870685054294764,1.050737864074856,0.40182606593370435,1.7595884364806114,-0.6399998851500451,-9.18655177001953,-14.902410674551886,-4.292547643336757,40.1384331104695
7283,0.01666666753590107,0.7202640929542482,1.494597045226395,0.3543628884911537,1.8748095375061034,-0.1831562808714807,-9.23847601852417,-5.771841966609166,4.900231708226907,45.53787864937759
7300,0.01666666753590107,0.9686736211113631,1.8839590586453676,0.48095337866246696,2.1253028131347147,0.19228446696177123,-9.109189128875732,0.7119384181947851,12.340192419694894,52.217509959515745
7317,0.01666666753590107,1.1634587457824497,2.1850068287953732,0.5024824889034033,2.3286603166442363,0.4762966388978064,-9.083601098632812,-0.8988964372296369,14.18858162797833,57.26619454869241
7333,0.01666666753590107,1.4520546653121709,2.56098913615942,0.7193278350174427,2.6277858134947714,0.8420109424866735,-8.863633821105957,-5.37809650199674,15.340370941869566,62.19593480856789
7350,0.01666666753590107,1.7869900920167565,3.0785698254734277,0.813640441918373,2.9767408515930174,1.359457776287943,-8.767566479492187,-9.326239967285245,16.044763228331103,67.31327645928152
7366,0.01666666753590107,1.940152655032277,3.0933921315521,0.8545990597724914,3.1379006239075213,1.372925160626322,-8.725368675231934,-6.2411139555163,15.311048939762701,71.89261776945159
7384,0.01666666753590107,2.242397087620944,3.041986353963613,1.1171809056669473,3.4455553180418907,1.309329325158894,-8.459910981640219,-2.782541801348209,15.385084775271054,75.520076596132
7400,0.01666666753590107,2.1436837615430355,2.9971269292786715,1.3635276560753584,3.3473931230407206,1.244536096600443,-8.20986771480143,-6.039997327857983,12.556078477659717,78.29771645609026
7417,0.01666666753590107,2.015405756676197,2.9319138678729533,1.451064485231042,3.2118213809691367,1.1800421432495116,-8.123376595306397,-14.611492427233532,10.002545662106042,78.97444476886595
7433,0.01666666753590107,1.8390537489920853,2.703548472096026,1.3563725236237048,3.014000614929199,0.9892543445862829,-8.227524367523193,-27.07350895473842,5.7609495224302885,80.11078334108097
7450,0.01666666753590107,1.6652277526542543,2.4823218421578406,1.148683128389716,2.816179629693553,0.8186677685610949,-8.447042732238769,-32.079496323866046,3.7865979654734776,81.14109688680989
7467,0.01666666753590107,1.5253988645948469,2.3851367485605177,1.0726882684677839,2.651727830096334,0.7800609745301306,-8.53592746887207,-33.650371531077276,4.861663764417961,82.63156027692256
7483,0.01666666753590107,1.1172177305459976,2.2124635755196214,0.9952794500946998,2.2219687051635235,0.6892309490479529,-8.629151696014404,-35.13692463789012,10.276925460122857,85.41279964657342
7500,0.01666666753590107,0.8089149477664381,2.020114665019512,0.8001917622804642,1.9128174157958477,0.5632360866822302,-8.834604125976561,-37.42437206640031,15.569055920565347,87.85106106705207
7517,0.01666666753590107,0.812791643069312,1.8315121014408766,0.6085206049114465,1.9235913232665507,0.44816476939097044,-9.036315031322836,-41.550082947749395,15.292253966714119,90.43162947888796
7534,0.01666666753590107,0.9212997293874621,1.667487222018838,-0.015131518158316612,2.0310311227660627,0.3944448696412146,-9.675268183898925,-44.471590497290215,9.418932464511487,92.15224292327338
7550,0.01666666753590107,0.9540107433781028,1.6073429883100092,-0.19646306782066822,2.054374662017822,0.42018246442265805,-9.868599967956543,-44.48217387540915,6.890291846501102,93.28957870310722
7566,0.01666666753590107,0.9808515501610934,1.5150363144040107,-0.2648059516847133,2.0666447993956507,0.4129999325074255,-9.948656085968016,-43.85664124555729,3.354178902563382,95.21969453990444
7583,0.01666666753590107,0.9739810798697173,1.2570695610895752,-0.4474269566357135,2.0317793838500977,0.2584242147583514,-10.145579172515868,-37.48491827829789,1.7384141980229448,96.85894677089667
7601,0.01666666753590107,0.8718312765371053,1.213525602917373,-0.19649170939326285,1.910123938928172,0.27308862686157226,-9.902567704010009,-29.139550678660775,1.9203294563770643,96.08083796027047
7617,0.01666666753590107,0.9195094849698245,1.104409248507768,-0.09810206231176853,1.938255881500244,0.20290866376347838,-9.809942027282714,-22.366116965556245,0.40080627938863217,95.23265823894913
7633,0.01666666753590107,0.9252151492655277,1.0324091573104262,0.21630232527852059,1.9204489335875956,0.1601123090881854,-9.50064110031128,-20.84205587491628,-2.160314129280986,92.97748003917266
7650,0.01666666753590107,0.8329523145012557,1.015743853713572,0.43134851301610466,1.7859247278075665,0.18585005000010132,-9.293542656707762,-22.460698010087995,-6.500024655723505,91.21545515784945
7667,0.01666666753590107,0.7741120029978453,0.961517246550694,0.5221376219660043,1.6909049224853514,0.16654672604985535,-9.209147048187255,-21.921760226080846,-6.545750210895801,89.89061019473124
7683,0.01666666753590107,0.5602569247409701,0.913466843804717,0.7125719310164451,1.4472949035644531,0.1506851400513202,-9.024045332336426,-19.600928540454923,-1.8161054653977242,89.0591234557414
7700,0.01666666753590107,0.5709598858673125,0.7682005869969725,0.7483101838737726,1.440261863122508,0.038905923108011484,-8.992471213421226,-16.725926041425428,3.549623911889651,87.57608448125653
7716,0.01666666753590107,0.6217543996896594,0.7131657321911304,0.6451601905226707,1.4835072036743162,0.006584127630665898,-9.09796630859375,-16.70831439865055,2.7751622088368335,85.96670749769393
7733,0.01666666753590107,0.8059334477376192,0.6667010642666369,0.5076145910948515,1.650203421197459,-0.004788184124603867,-9.239522897228598,-19.224433145478187,-1.503864861594472,83.85134327022763
7750,0.01666666753590107,0.9550460777752101,0.6205944890648126,0.4506435805946588,1.7753005310058592,-0.016160788140818477,-9.300874899291992,-22.190803085034943,-5.9887452958735,83.72767586511537
7766,0.01666666753590107,1.0334870887402445,0.5317610076947138,0.38687750312685965,1.820790289483592,-0.06299735811762511,-9.370007472229004,-24.432435312139983,-8.952561171567494,84.7929736397731
7783,0.01666666753590107,1.1648186359588055,0.4848742784332484,0.1852665510237217,1.904288072381541,-0.05132562502436339,-9.578751929473876,-23.22861105583065,-8.806378047856295,87.60179331329246
7799,0.01666666753590107,1.3190475860968232,0.5968500043293461,-0.061549570462107656,2.0241479391235857,0.09906013022158294,-9.830143103790283,-19.848347020496757,-8.123394989348162,90.18170602696802
7816,0.01666666753590107,1.370559162147343,0.6380122915294021,-0.06120820967853069,2.045246622058004,0.17028762961123137,-9.833435131072997,-16.862586173886335,-6.57453049362412,92.14565179072432
7833,0.01666666753590107,1.5621920333325863,0.8335627745497971,0.023977087914943695,2.207154728521779,0.39444472351074217,-9.751583361816406,-12.286391873376349,-3.1268973142986263,90.00198325933746
7850,0.01666666753590107,1.6426535172745584,0.6084848394783213,0.0791501090824604,2.2698527383666485,0.1828571883270517,-9.698162737274169,-9.969857230512009,-3.3791306508184964,86.99245847705728
7866,0.01666666753590107,1.7843292022444306,0.5041047928756103,0.13190320962667465,2.3910591608794403,0.08858553449101746,-9.6471357298702,-8.6332831250416,-5.589245396885338,83.76671722641117
7883,0.01666666753590107,1.8634417557954788,0.2738059082854539,0.10568681835234164,2.434903051846288,-0.13242920626215635,-9.675866734313963,-7.169207317013626,-7.600158956469227,81.47249083514974
7900,0.01666666753590107,1.6872814712911843,0.19799794923774897,0.1529401524364948,2.2301989195007828,-0.20126254052426665,-9.630526540374754,-8.013644948443458,-7.746657976429538,83.40411614375353
7917,0.01666666753590107,1.6242368399657308,0.10051401882432401,0.07999708130061627,2.1390695092132312,-0.2861070618560538,-9.705494979858399,-11.125206780508114,-7.473469192649246,87.76577249488612
7934,0.01666666753590107,1.4224809264339506,0.0238542652528733,-0.041706221351027487,1.8994997421264648,-0.33578674630429595,-9.830143103790283,-13.367766205792986,-8.035056737717802,92.1648787732379
7950,0.01666666753590107,1.1664188376970588,-0.012421966938674448,-0.06778057380616664,1.6144400704314932,-0.3485059791564941,-9.858424610900878,-13.904990466092107,-7.958944524701765,94.12512940465322
7966,0.01666666753590107,1.0654583172142504,0.012605214551091194,-0.07662965069413184,1.4860510064056143,-0.297479556274414,-9.869348155975342,-15.011895191852606,-7.308306680781874,94.43614206850975
7983,0.01666666753590107,0.8632818401828408,0.24797541105616835,-0.10282324561476706,1.2491746796539052,-0.013916242350731044,-9.898377266582846,-22.047640612484184,-8.141128721754454,94.61125445845053
8000,0.01666666753590107,0.6610271833486855,0.3071011884374544,-0.19303484693765638,1.0191817557403817,0.10235213923798873,-9.991003527832031,-29.84220980462042,-9.499115470272852,96.70335506160379
8017,0.01666666753590107,0.6480654104448854,0.3877427051214501,-0.3258849820256233,0.974290474612452,0.26007018273393623,-10.126275921630858,-37.04236300121608,-12.228539317332695,98.03573372337651
8034,0.01666666753590107,0.6013436624867842,0.7981886788297444,-0.7893056266069411,0.881664779618848,0.7963713533245863,-10.59194814453125,-40.71504109529656,-12.227509666315315,98.38519352207103
8050,0.01666666753590107,0.6997808385044336,0.8819573145583272,-0.7640186251372099,0.954388618513476,0.9709984655960462,-10.56695866470337,-34.43565204033198,-8.4031450235999,99.78102464123319
8066,0.01666666753590107,0.7925681355342269,0.7821355888471007,-0.7490098565757274,1.035492218017578,0.9389759453262202,-10.551395769390464,-23.201122959515935,-3.4970818279256815,101.31718882708242
8083,0.01666666753590107,0.7763376431580632,0.7064522060271352,-0.5474515114426612,1.0238205214569345,0.9065046218429692,-10.34893667602539,-7.8413004926638195,1.3850185028191926,102.45714056936838
8100,0.01666666753590107,0.6152550277329981,0.7046602811090648,-0.5152554612368345,0.8717887343033216,0.9068038970504887,-10.316465316009522,0.2687915826978323,0.9920587234047299,100.92432317621245
8116,0.01666666753590107,0.5485492070188746,0.6673877313565463,-0.3753898944288492,0.8111854317153804,0.8562263321807607,-10.17670320957601,4.653396355585463,-0.37819440453277603,98.29678355345439
8134,0.01666666753590107,0.4359917357120663,0.5118981136329471,0.041917233753204344,0.7055413199936039,0.6661866119384765,-9.759813430023193,10.44582067037164,1.919438970464024,94.53681222668656
8150,0.01666666753590107,0.310884579433687,0.33591011695563794,0.6759931356817483,0.5969044013977051,0.4519055450881831,-9.125798902893067,14.136119798737107,8.615084085998102,91.74225398815419
8166,0.01666666753590107,0.23717457904592154,0.3654552873264998,0.8449819211214781,0.5551555099487304,0.43574470214843747,-8.956259497833251,15.337898413390022,14.166573050925257,90.44063166821402
8183,0.01666666753590107,0.22281967128328978,0.5104914982380345,0.7884539782136678,0.5934627365112304,0.5264250831769896,-9.011176498413086,9.157823724052008,14.631610749433806,92.27251572436813
8200,0.01666666753590107,0.3974167981240898,0.6725927526537329,0.542435144585371,0.8026561065673827,0.6631938684256136,-9.255833980560302,3.1081262469121387,12.152576514704752,96.2650071810507
8216,0.01666666753590107,0.5240706358551979,0.7087780186261982,0.4458551772743463,0.9582791779449209,0.6868366035406128,-9.351152549633383,-1.5253826255226568,10.905114179788209,100.02262209255488
8233,0.01666666753590107,0.7902828010760248,1.0168964578147976,0.04500467837452888,1.2594997108459471,0.9935936638486688,-9.750385676464438,-6.567377578015823,9.893934555245439,102.56878001135223
8250,0.01666666753590107,0.9541428453251719,1.5510466622009873,-0.4909375970602035,1.4526818572998046,1.533635765542864,-10.28489178161621,-8.20877491529426,12.698412789773613,101.73718398933566
8266,0.01666666753590107,0.8144105495080352,1.6423381677150726,-0.9394815750271082,1.3431471313476562,1.629852768734924,-10.73185930404663,-5.751088009929259,11.190952473911365,99.47304458136814
8283,0.01666666753590107,0.6662848116159439,1.9734902764886617,-1.5127765527784824,1.2351087083678691,1.9457377251556143,-11.302876399993895,5.370748072223453,13.472426048218738,94.78135348954054
8300,0.01666666753590107,0.7182610825687646,2.0449587450273334,-1.5763392166286705,1.3248913436889647,1.9708769613182637,-11.363927957805991,20.317097780592853,16.980283993663996,91.52618095376084
8317,0.01666666753590107,0.751756963326782,2.0438789869666096,-1.4137795874536037,1.406443837738037,1.8831892981155773,-11.197232251739502,35.348882483308536,22.596526567017456,87.69491611243642
8333,0.01666666753590107,0.5971561111364513,2.1277353740438816,-0.7050473807305098,1.3391069160461424,1.8083704779693857,-10.478373203277588,41.97096603459475,32.32884262480111,80.0547689596977
8350,0.01666666753590107,0.5077969619244337,2.0579680103346703,-0.15428922895789146,1.326686994934082,1.6247651381561532,-9.917082551574707,33.663663079202124,32.764724807063814,78.50296364064914
8367,0.01666666753590107,0.44911264470033346,1.9250002402164041,-0.08073474792540072,1.3373111917357892,1.4033014845917,-9.833135271343588,21.830295455357913,29.177984153120438,81.7882778012361
8383,0.01666666753590107,0.1916631932582706,1.6385497352175413,0.2218745724529028,1.1608885299682616,1.033696603305079,-9.517999062347412,12.08666945808236,29.421869717814083,87.3913483547752
8400,0.01666666753590107,0.24898747417554257,1.7210495931193233,0.3439811952084303,1.2789525993347166,1.0646716238159686,-9.386317971038817,10.84770217094602,29.162636718055417,92.00971053567355
8417,0.01666666753590107,0.3643623775232583,1.6193730333216487,0.21631226215064525,1.449838742828369,0.9080009796142577,-9.504082765197753,12.057306474840475,27.32693970879716,97.07790897530894
8433,0.01666666753590107,0.5683895969878882,1.5092381495192646,0.0655389323592186,1.713949040399119,0.7103297781128436,-9.6411508102417,16.500939610165208,25.51818096562543,103.80048851494814
8450,0.01666666753590107,0.4874159988053143,1.4355290624469519,0.5764554876089095,1.678335290704295,0.5600934778075665,-9.118167385101318,17.77870237178722,27.8028775354474,106.30645077047997
8467,0.01666666753590107,0.3646126259572804,1.344438047941029,0.7379471952915191,1.604114966174215,0.39579146194458004,-8.943689354595541,12.091158599914351,30.194978829967823,109.7421452060231
8483,0.01666666753590107,0.35192499381974335,1.048448437963426,1.0960820035368204,1.650053710528463,0.03307012962661683,-8.571091721233724,-3.4497279129665714,27.224568833517008,116.5520965255251
8500,0.01666666753590107,0.23872400044500827,0.7442205034073441,1.2343863123774528,1.5679026660643518,-0.2874536906920373,-8.426841071209312,-15.553228664711135,22.05096862215727,119.7941960792334
8517,0.01666666753590107,0.18408143289238213,0.7109130578935146,1.2297604061424732,1.5301941360473632,-0.3112462158203125,-8.430133683013915,-24.759715779052193,16.97320621013657,119.76014075603172
8533,0.01666666753590107,0.20581980196982622,0.6296872385155409,1.0275742844998836,1.5589245559692382,-0.35449141024164854,-8.635286837768554,-29.79569963146722,12.994636386529773,119.25831309733253
8551,0.01666666753590107,0.2707439634315669,0.6303273630499839,0.6770207251638174,1.6304513305664061,-0.32172084808349605,-8.988132307434082,-29.0727855795239,16.694611331628213,120.51066926278939
8568,0.01666666753590107,0.1017541550785303,0.7455182150676846,0.18218787423074245,1.4870985061645507,-0.17178404218144713,-9.482684587860106,-25.745916548026578,21.93846857633799,123.17609594487351
8583,0.01666666753590107,-0.07687982606291771,0.7134325664337724,-0.012285481077432632,1.3371614810667931,-0.1909374362669885,-9.674220136150717,-20.370805265583957,23.658661964089458,124.2132465099616
8600,0.01666666753590107,-0.17006079858541487,0.6483897470284253,-0.08194587728083133,1.274313833618164,-0.25842406862787903,-9.739163440704345,-14.624971805560552,22.978501481255833,123.6280632226316
8617,0.01666666753590107,-0.22831132750213146,0.6638716129943728,-0.06060907474160194,1.2409446479797364,-0.2576758806090802,-9.712677000316978,-11.190483752179572,19.098308579812024,121.08892673830101
8633,0.01666666753590107,-0.2313023260116577,0.6467704021982849,0.13229250120520591,1.2548609451293944,-0.2973298456054181,-9.515006310272216,-13.162343143862975,14.736853719259946,116.7963577506231
8650,0.01666666753590107,-0.20835750375390052,0.48489904754832386,0.5039730197221041,1.2852372325621544,-0.46447504900507625,-9.1416604888916,-18.290848738774994,14.334548746957026,114.03276075959839
8666,0.01666666753590107,-0.29835780041366816,0.42393867515102024,0.7247650576353073,1.2099695178709924,-0.5119100963316857,-8.919897560119628,-25.2091268585134,16.67485330190666,112.30876637157381
8683,0.01666666753590107,-0.33203152195662256,0.3890983209814876,0.7115554474502801,1.1936591651916504,-0.5217862512450665,-8.932766394042968,-30.011243326199896,18.679419908204313,111.923017777819
8699,0.01666666753590107,-0.46799905841276046,0.176442608577013,0.5083645326793194,1.0775402385435997,-0.7001543479919433,-9.13597425994873,-32.35742013628845,17.192726782513486,112.1290367737541
8717,0.01666666753590107,-0.5074412803545594,0.05097440043389797,0.1359580379754305,1.0586859004698692,-0.7791629297118634,-9.509170443725585,-30.974518565225136,15.147793758221056,110.43502008599671
8733,0.01666666753590107,-0.5089565072230995,0.04604264312013984,-0.0323246450215578,1.068711766052246,-0.7504325097899883,-9.67841057357788,-31.779319755127737,11.303782930131744,107.36773239390573
8749,0.01666666753590107,-0.5095103417135775,0.052346930896118284,-0.5420125352591276,1.0666166934691368,-0.7047929675780237,-10.191517332348226,-34.0947231479108,4.262087134072616,103.6916016391998
8767,0.01666666753590107,-0.6226189806297421,-0.009318740226328372,-0.688975951373577,0.9317933586120605,-0.7082347785949706,-10.346392836761474,-32.79654324331232,-1.5629705439074122,98.34910963268587
8783,0.01666666753590107,-0.6671281305722891,-0.05824775243774056,-0.7824474312752485,0.8626606395445764,-0.7187094108581542,-10.446500393676757,-28.029059249812374,-3.8375609950787046,95.19496242491982
8800,0.01666666753590107,-0.7819384588398038,-0.13691533870026468,-0.6158966866374015,0.7248444064818322,-0.7685387329101562,-10.28549033203125,-18.853337015040346,3.453891980482752,89.74212188217517
8816,0.01666666753590107,-1.0347326318219303,-0.3627797845069319,-0.26037352219522,0.4730041732236743,-0.9877577493529767,-9.930250076183675,-14.50163737217034,8.028644897634454,87.32625665198498
8833,0.01666666753590107,-1.147498448649794,-0.5013262315403669,-0.11238368564248084,0.37005364796742796,-1.1257236930847168,-9.78076269454956,-13.513069942648544,10.845197199067918,85.04330007285407
8850,0.01666666753590107,-1.3513942968197166,-0.5908711125828325,0.15607494333088398,0.18555048253163695,-1.2093711135864258,-9.509619356536865,-17.308440432337257,10.387291071826509,82.08970087949794
8867,0.01666666753590107,-1.2936083166748285,-0.5900831040102988,0.019365794727206228,0.25303718795776364,-1.19261173849795,-9.64578957595825,-21.08544795844239,7.4254683307096885,79.67690240424508
8883,0.01666666753590107,-1.214945114326477,-0.5361123713046312,-0.11875497424006462,0.33488895721435546,-1.1156980101654306,-9.784802909851074,-21.140422443524532,4.570135495829361,76.06291954079711
8900,0.01666666753590107,-1.1667979001425206,-0.4751480899171903,-0.27722821088433264,0.38935689885243774,-1.0324994659423827,-9.943567822918295,-15.458341969214025,9.063713108799341,67.96900194035943
8916,0.01666666753590107,-1.277769819290936,-0.509448491991125,-0.1384364107877016,0.29613281784057616,-1.0570399964263661,-9.802460147094726,-13.708586668961098,11.447654888582539,62.599359931894696
8933,0.01666666753590107,-1.3399050806865096,-0.6725850808039308,-0.14366671265661715,0.25453341786488887,-1.2134113288879393,-9.804704711151123,-11.55919358527614,11.967257260823027,58.25583090281931
8950,0.01666666753590107,-1.3907710523098706,-0.6878515504535287,0.1082815110206604,0.23567907979115843,-1.227626864712499,-9.547477670288085,-7.8116233207201144,12.973887979378567,53.75628327762792
8967,0.01666666753590107,-1.1270058418497442,-0.7846724138483404,0.29537177034020423,0.5228336414061486,-1.3302782608916983,-9.356090590557455,-5.975148950556943,10.955114579607287,52.35735466767717
8983,0.01666666753590107,-1.0100091094538568,-0.852522253498435,0.2836690575867891,0.6561608924865723,-1.4071920257568358,-9.364470880889892,-5.062762889716531,8.391577244466836,51.42832941224496
9000,0.01666666753590107,-0.8957438478484749,-0.7637652348980307,0.3784527891308069,0.7875427085876464,-1.328033769900538,-9.266158975219726,-7.0632296749648855,8.321979324371698,48.66597210055461
9017,0.01666666753590107,-0.7675833318814634,-0.8348945346102118,0.28150223494172094,0.9335888637267052,-1.3964181548187509,-9.360130805858969,-12.448132460469544,11.05476789337142,46.45621124366414
9033,0.01666666753590107,-0.6910561186484993,-0.7786497925579547,0.12146832485198975,1.032050407000631,-1.3204022155761719,-9.517400511932372,-19.428235745027614,11.467688687191833,44.9390691346534
9050,0.01666666753590107,-0.431974535959959,-0.6837939456257969,-0.3700865273237228,1.3204022155761719,-1.1773486298492177,-10.006266563415526,-24.457266464867566,10.784493039045783,43.99944001053475
9066,0.01666666753590107,-0.17103329687938093,-0.32645244318265465,-0.9231851047426461,1.6011220679685472,-0.777516952603124,-10.557830186352133,-24.731141682659445,8.900253875356244,44.834744825270626
9083,0.01666666753590107,-0.06123217507600784,-0.31669786882232875,-1.145876254275441,1.7274163516722618,-0.7305307450225577,-10.779144786834717,-20.88574005730039,8.108634950551766,44.56485673040674
9102,0.01666666753590107,0.1584893109962344,-0.008055113498680292,-1.2824796044170856,1.967135646764934,-0.39279867333676666,-10.913219495281577,-12.016194712452522,7.161230509836698,38.2594924660286
9117,0.01666666753590107,0.383129110378772,0.01700732196755707,-1.3303560388356446,2.2014684265136717,-0.3630208267211914,-10.959458099365234,-4.883596782503341,2.6946773940915185,30.476625095487886
9133,0.01666666753590107,0.4486540142126381,-0.015572649521939456,-1.2754244252085685,2.2655130286619065,-0.405966782467626,-10.90439087665975,3.758087048330552,-1.2526755835222618,21.053328993870405
9150,0.01666666753590107,0.26411621585488315,-0.06334507557675242,-0.7624024221122264,2.0735279830381272,-0.49889173440244045,-10.390834620556234,17.204935745654883,-1.7217076620347993,8.689353001711881
9167,0.01666666753590107,-0.09035875470861791,-0.30556868164055045,-0.28594109417200086,1.7129013579770922,-0.7959223778655752,-9.912892114147544,23.174693542522572,-2.5359623673572282,2.9250097290377433
9183,0.01666666753590107,-0.21688202486261723,-0.36000622814036903,-0.17700667220056057,1.5800233119688927,-0.9136872085571288,-9.801711959075927,26.741314166718386,-2.1941376529377123,0.042819896649837985
9200,0.01666666753590107,-0.5159153864502907,-0.5136111280959099,0.09327800315618515,1.274762600298971,-1.1596914291381835,-9.526827680969237,29.093129297966783,-1.0218216995998834,-0.2735527314774337
9217,0.01666666753590107,-0.6412193439424038,-0.7224930941153317,0.4000882823556661,1.1516108524046837,-1.4462472942076623,-9.214084504589438,31.96545948548351,2.0748274816291064,1.3877784328524065
9233,0.01666666753590107,-0.6308934725001454,-0.7983827400971204,0.38038521849811074,1.1674725845336913,-1.6026187362670898,-9.22635537261963,30.615216463936616,2.7644505512275495,1.9546791180432932
9250,0.01666666753590107,-0.4450464912399649,-0.7051896387454122,0.40433132675290107,1.3599063968382774,-1.6066589515686034,-9.192537274169922,27.37789121245816,0.9330552804859285,2.1739480406379776
9267,0.01666666753590107,-0.30387992483600973,-0.734411787706986,0.3539484624713659,1.5007152358457445,-1.705120421777293,-9.236231454467774,27.127308647283318,-0.35458537541895097,2.631415541668626
9283,0.01666666753590107,-0.28474063234105706,-0.6535027791932225,0.4591664942681789,1.5203179080687463,-1.6958429634094236,-9.123404701232909,28.676357985001776,1.7596287655850043,3.3193487797777252
9300,0.01666666753590107,-0.19343276021406053,-0.45831053502596913,0.7522130365312099,1.6231187957212327,-1.5979798244200647,-8.81709594181478,26.970371390723933,5.9280099731132765,4.596003129763492
9317,0.01666666753590107,0.06002762159183621,-0.1286199501723051,0.8579951319515705,1.8915688029967248,-1.3329718473572283,-8.700528833007812,22.501132729974472,7.047898888485968,6.215479401787596
9333,0.01666666753590107,0.19535992888435721,0.03139043291136622,0.8180074049562215,2.042403361456096,-1.2289733474180102,-8.730306716156006,20.12374024783167,7.328705040738118,8.661545594053468
9350,0.01666666753590107,0.4502672946281731,0.22934914611726998,0.8644646202266216,2.3205798129759727,-1.1082159473143518,-8.668805076488852,23.333772063386753,9.817054799721422,10.72183886001561
9367,0.01666666753590107,0.5968992868311703,0.22838512339070438,0.9736743520081043,2.491765085546672,-1.1774981578551231,-8.544905140575766,26.961169418364634,13.15974767197837,10.799716676932094
9383,0.01666666753590107,0.6492940754570067,0.19432137961685655,1.0779086334645747,2.5746644641600547,-1.2859854205809533,-8.423250353240967,28.19020731799507,14.283432464982296,10.742889503037588
9400,0.01666666753590107,0.6889687909804284,0.012416560111194849,1.297239951175451,2.6539723941527305,-1.5653588268004357,-8.180089247131347,25.192655857329914,12.695918063179267,10.830511438578744
9417,0.01666666753590107,0.6463542226128279,-0.23095102835595607,1.4741256273448466,2.6340705928526815,-1.8697218589782714,-7.988104201507568,18.937010247467587,9.824351149302288,11.868246838614523
9433,0.01666666753590107,0.5847361169591546,-0.32740634637400506,1.6097908198535442,2.588730545043945,-2.0108301193237303,-7.841160074615478,11.750846985839404,7.975808261762527,13.970133395301104
9450,0.01666666753590107,0.5521208184279501,-0.6647397741310298,1.6038012240499258,2.568678813879192,-2.3823799971982837,-7.838316375622153,1.8555103208234087,5.592562307501026,18.644019037736136
9467,0.01666666753590107,0.6259582080550491,-0.9216787918329238,1.3754817132413386,2.644994284057617,-2.645293413134664,-8.065017929840087,-5.743332757013533,4.156889841136549,21.792408396031853
9483,0.01666666753590107,0.651655397760868,-1.0869754447564481,1.3279273503839968,2.6696844886779783,-2.799270507403463,-8.114847251892089,-13.083076237224038,3.1086361632223625,24.462778427527766
9500,0.01666666753590107,0.5574672940224409,-1.422182381878793,1.1577537390738726,2.563890702819824,-3.098396223449707,-8.29396346359253,-19.84508902026266,-1.3198181573324854,27.14001109159225
9517,0.01666666753590107,0.3660198624067008,-1.4474818044386804,0.87849256105721,2.351704434558004,-3.0822352161131796,-8.584858965301514,-25.623012416554076,-6.22713597337987,26.929012887752215
9534,0.01666666753590107,0.29719752446264025,-1.4009727128505707,0.7064163309961558,2.2512974563047288,-2.979134907122701,-8.773102486309408,-30.680000808214185,-9.914636858619748,26.031829974230604
9550,0.01666666753590107,0.1763447011604905,-1.4087193814545869,0.4023445368498563,2.0807107341490685,-2.902370962524414,-9.100959060668945,-29.73025617393474,-11.34643831527212,25.464152461743335
9567,0.01666666753590107,-0.02620397018417716,-1.366800540266186,0.10308978759646414,1.8403927425108848,-2.806004345703125,-9.416095854187011,-23.549798994003208,-11.530365064336808,24.85029604027761
9584,0.01666666753590107,-0.09378419911265373,-1.4275738656587897,-0.014765022933483123,1.737292579650879,-2.833388027191162,-9.545831656646728,-13.202008613694177,-8.993707084901295,25.013925174676313
9600,0.01666666753590107,-0.355306014560163,-1.3814357993401587,0.09433774134218692,1.4386157764159142,-2.7781717514038085,-9.445125549316407,-3.137469379916748,-6.896926948392945,23.256686548413988
9617,0.01666666753590107,-0.5671506297774612,-1.5262360460713504,0.26668343599438665,1.2051812606811523,-2.929305731201172,-9.27588541946411,-0.9006529697850937,-3.398681640430835,22.288181092031813
9634,0.01666666753590107,-0.6505600037395953,-1.5274769860431552,0.332058702224493,1.1097123233519495,-2.9417256523132322,-9.211092337036133,2.2689943918069364,0.4093480179151149,20.577954657826687
9650,0.01666666753590107,-0.7289329909697174,-1.5457864035852253,0.5405266806155443,1.0322001907348632,-2.99275192906484,-8.997559476470947,9.974133782706083,5.348343344198519,18.56451051315531
9667,0.01666666753590107,-0.6109167062677443,-1.3387395440384744,0.593672579869628,1.1587934573851526,-2.8229133949279785,-8.937105884552002,12.776468191608519,5.400396215863186,15.279464437493269
9685,0.01666666753590107,-0.46657998539507384,-1.2204204769976437,0.48468671997189516,1.3067851936340331,-2.7404630752563475,-9.0397572807312,10.057973500994343,1.8197476637726335,11.355118631933559
9700,0.01666666753590107,-0.06412205129861831,-1.0674901153028011,0.3711719844728708,1.701379554748535,-2.6129716907225546,-9.150638745117186,1.6768324654141693,-3.7778348327683515,4.362467009209708
9717,0.01666666753590107,0.1413777249366045,-0.9436297807477414,0.35052959393858907,1.8942622798644004,-2.486827336883545,-9.173982211303711,-3.9296281031090685,-5.3151426484167335,0.3184150414520906
9734,0.01666666753590107,0.19482816009521484,-0.8481037064038217,0.3237970698356628,1.9378068225584923,-2.379986087799072,-9.204358644866943,-4.281453708577364,-2.649788963979372,-0.4988610087218641
9750,0.01666666753590107,0.20303104803413152,-0.7569128847852349,0.0980728362172842,1.9366097217284142,-2.28406823765859,-9.432555990600585,1.6812965276453016,-1.9537090177377399,2.6680428579796422
9766,0.01666666753590107,0.24666224609836934,-0.7134218258440495,0.2048860282510519,1.974767164556682,-2.2626700603209433,-9.323170902252198,6.030309131407143,-0.15231484599729753,3.7937231334382706
9783,0.01666666753590107,0.27482217265591025,-0.7646629143901169,0.32298575345277786,1.999906428118795,-2.347065814971924,-9.20016879196167,6.08472738295875,-0.8968616811872078,4.828763170072833
9800,0.01666666753590107,0.29729996192380787,-0.8274636539570986,0.39430502277910706,2.018611128588766,-2.428618309020996,-9.126397453308105,3.9817684865724763,-1.303524207458891,4.431949669862602
9817,0.01666666753590107,0.34379619403034445,-0.9458062480039894,0.4058621895819902,2.063502555847168,-2.567033092498779,-9.111732968139648,1.9452082069854242,-1.4620325142490829,3.6243323075878386
9833,0.01666666753590107,0.25011136363893743,-1.0899207044281065,0.40199090110659597,1.9692307193480432,-2.7343277873717247,-9.111732968139648,0.19957639332005364,-1.300738450772878,2.167850389256449
9850,0.01666666753590107,0.21232231573164462,-1.189002133166045,0.45522973934113975,1.9334674781799315,-2.8435632381163534,-9.056367054748534,-0.01267326926261321,0.7840532629990722,0.424375154460657
9867,0.01666666753590107,0.14614698516502975,-1.373160138425976,0.5896002158641814,1.878699969073385,-3.0424317596435544,-8.917353720855713,-1.5178459386603709,3.1256516585487453,-1.5132773958792787
9883,0.01666666753590107,0.15988997157439588,-1.5416376133427023,0.4235568362265825,1.9012951011106372,-3.2047882674619554,-9.082852910614013,-7.466486177996554,-0.46231239966886145,-2.6393210587460927
9900,0.01666666753590107,0.23537644358277318,-1.5838501767806707,0.3965378963977098,1.9752162234984336,-3.225887315722555,-9.113827894592285,-11.70404567587283,-2.862161743389871,-3.4531852693470673
9917,0.01666666753590107,0.305797595025599,-1.6835222648881374,0.12013327685594558,2.0398596683226526,-3.300406842394918,-9.395595502471924,-14.367787862552893,-4.537393276495613,-5.575698143553441
9933,0.01666666753590107,0.4212739859864115,-1.7478718413323162,-0.1337006144374609,2.144306715746969,-3.324348712866008,-9.658208912548423,-14.968494462319052,-4.035962195655119,-6.938103597578014
9950,0.01666666753590107,0.4185242488868534,-1.7141249084226786,-0.19446224939227102,2.1381715739928184,-3.2606033859252928,-9.724498955535887,-12.847626809929004,-1.7911863739845788,-9.65073115569515
9967,0.01666666753590107,0.4723037698693573,-1.6283165104947983,-0.3911842604100704,2.19323806604594,-3.1637875640317796,-9.922768195995689,-8.07199952339111,-0.5349303305942024,-10.38180130728111
9983,0.01666666753590107,0.5242218808941542,-1.5558952712759375,-0.34201778618097306,2.2541407169066368,-3.0816368118286133,-9.873538008880615,-1.7812834534617066,2.123779233967176,-11.120708247166014
10000,0.01666666753590107,0.5337389201715588,-1.4875642239801585,-0.3217728705316782,2.2746412147521973,-3.0117560508728025,-9.851541281127929,0.6899689012860275,2.949279525592914,-10.118892811975334
10017,0.01666666753590107,0.611707125993073,-1.4419284080952406,-0.34150165335237975,2.364722906085104,-2.9698573756895956,-9.868450330352783,1.0675586739946987,1.1283350846116473,-9.013570128781339
10034,0.01666666753590107,0.6629064212240279,-1.345236943233758,-0.2496411157786846,2.421734979248047,-2.874987134905904,-9.775226103210448,0.5354999576988108,1.1645288973537797,-7.701192822219348
10050,0.01666666753590107,0.7141421029426157,-1.3300827748522162,-0.15029051471054553,2.479195819091797,-2.86017315826416,-9.674669633483886,1.1576548455626907,1.8185190834956775,-6.144731875477781
10067,0.01666666753590107,0.8053048675104976,-1.3508955535173415,0.04623158982098102,2.5837923579894007,-2.8856114047728476,-9.474903432464599,1.7075706645567539,4.299101209845385,-5.196404505451116
10083,0.01666666753590107,0.9627753568530082,-1.3794636224843562,0.17223522001504898,2.7560252399168905,-2.9164367511473595,-9.345766180419922,-0.25851889814485385,5.240696147784533,-5.084429530424281
10100,0.01666666753590107,1.0632831651322543,-1.4348502864025532,0.1572679525077343,2.870498152923584,-2.965667815045267,-9.35908392715454,-3.877162431886439,3.8501904417408817,-3.554433645725809
10116,0.01666666753590107,1.222826515226066,-1.4413868485644459,-0.04192307897210121,3.03734393498525,-2.9608791194640096,-9.558700490570068,-5.674540799240457,0.9036726604501798,-2.2319237535301037
10134,0.01666666753590107,1.2630595952846109,-1.3375216926813125,-0.2556996851652861,3.0799906520567832,-2.8405704860411585,-9.77462755279541,-3.8191971777214793,-0.9969258735185986,-0.9754203825865788
10150,0.01666666753590107,1.261884414025396,-1.380583420294523,-0.33741233821213246,3.0759504367552695,-2.880523726245016,-9.85737714767456,0.6903311681163027,-1.3245455020117805,-0.11669538279525457
10167,0.01666666753590107,1.0935497085802257,-1.389687494856864,-0.1709270600259304,2.9152396503172815,-2.9016226283751427,-9.687537882885337,3.713968295160501,6.120413840711597,1.2550910158892135
10183,0.01666666753590107,1.1431532590523361,-1.214388503357023,-0.148592478621006,2.986916062518209,-2.7350761215209958,-9.65955623550415,-0.4782481914978532,9.731026859577819,3.426721914851264
10200,0.01666666753590107,1.1780804877877236,-0.9874702376484871,-0.4137240089982748,3.0433294391356407,-2.499546533203125,-9.921870954895018,-9.218224794429725,7.146204947436316,5.07461284103968
10217,0.01666666753590107,1.3011039331272243,-0.5273147323429584,-0.870465321946144,3.1809958884641527,-1.9984101982116698,-10.382156224060058,-17.354907916808145,3.2931821116239948,7.548191462169185
10233,0.01666666753590107,1.138190960469842,-0.3765834881275892,-0.978402549573779,3.024923867742717,-1.809717033740133,-10.494533479961753,-16.946566764826226,3.9424133634616862,10.197727709149266
