timestamp,interval,accx,accy,accz,accGx,accGy,accGz,alpha,beta,gamma
1698924422.006,16,0.0,0.0,0.0,0.0,9.4,1.4000000000000001,1.2000000000000002,0.2,0.30000000000000004
1698924422.022,16,0.0,0.1,0.0,-0.1,9.5,1.3,1.4,0.7,-0.2
1698924422.039,16,0.0,0.0,0.0,-0.1,9.4,1.4000000000000001,0.7,-0.2,-0.5
1698924422.055,16,0.0,0.0,0.0,-0.1,9.4,1.3,0.7,0.4,-0.30000000000000004
1698924422.072,16,0.0,0.0,0.0,-0.1,9.4,1.4000000000000001,0.1,0.30000000000000004,-0.6000000000000001
1698924422.09,16,0.0,0.0,0.0,0.0,9.4,1.4000000000000001,0.4,0.5,-0.30000000000000004
1698924422.106,16,0.0,0.0,0.0,0.0,9.4,1.3,0.4,0.6000000000000001,-0.2
1698924422.123,16,0.0,0.0,0.0,0.0,9.4,1.3,0.5,0.2,-0.1
1698924422.139,16,0.0,0.0,0.0,0.0,9.4,1.3,0.7,0.1,-0.30000000000000004
1698924422.156,16,0.0,0.0,0.0,0.0,9.4,1.3,0.7,0.0,0.0
1698924422.173,16,0.0,0.0,0.0,0.0,9.4,1.4000000000000001,0.8,-0.4,0.30000000000000004
1698924422.189,16,0.0,0.0,0.0,0.0,9.4,1.3,0.9,-0.5,0.30000000000000004
1698924422.206,16,0.0,0.0,0.0,0.0,9.4,1.3,0.6000000000000001,-0.9,0.2
1698924422.224,16,0.0,0.0,0.0,0.0,9.4,1.4000000000000001,0.2,-0.6000000000000001,0.30000000000000004
1698924422.239,16,0.0,0.0,0.0,0.0,9.4,1.3,0.2,-0.4,0.30000000000000004
1698924422.255,16,0.0,0.0,0.1,0.0,9.4,1.4000000000000001,0.0,0.0,0.30000000000000004
1698924422.272,16,0.0,0.0,0.0,0.0,9.4,1.3,0.2,-0.1,0.4
1698924422.289,16,0.0,0.0,0.0,0.0,9.4,1.4000000000000001,-0.4,0.30000000000000004,0.0
1698924422.306,16,0.0,0.0,0.0,0.0,9.4,1.4000000000000001,-0.4,0.9,-0.2
1698924422.323,16,0.1,0.0,0.0,0.0,9.4,1.3,-0.6000000000000001,1.0999999999999999,-1.0
1698924422.339,16,0.0,0.0,0.0,0.0,9.4,1.3,-0.4,1.2000000000000002,0.0
1698924422.355,16,0.0,0.0,0.0,0.0,9.4,1.3,-0.30000000000000004,0.8,0.8
1698924422.372,16,0.0,0.0,0.0,-0.1,9.4,1.3,-0.2,0.5,0.7
1698924422.389,16,0.0,0.0,0.0,0.0,9.5,1.3,-0.1,-0.5,0.1
1698924422.405,16,0.0,0.0,0.0,0.0,9.4,1.3,0.1,0.2,0.1
1698924422.422,16,0.0,0.0,0.0,0.0,9.4,1.4000000000000001,0.2,0.4,0.1
1698924422.439,16,0.0,0.0,0.0,0.0,9.4,1.3,0.30000000000000004,0.4,0.1
1698924422.456,16,0.0,0.0,0.0,-0.1,9.4,1.3,0.30000000000000004,0.4,0.30000000000000004
1698924422.473,16,0.0,-0.1,0.0,0.0,9.4,1.3,0.30000000000000004,0.4,0.30000000000000004
1698924422.489,16,0.0,-0.1,0.0,0.0,9.3,1.4000000000000001,0.0,0.4,0.30000000000000004
1698924422.506,16,0.0,0.0,0.0,0.0,9.4,1.4000000000000001,0.30000000000000004,0.5,0.30000000000000004
1698924422.523,16,0.0,0.0,0.0,0.0,9.4,1.3,0.2,0.4,0.4
1698924422.539,16,0.0,-0.1,0.0,0.0,9.3,1.3,0.30000000000000004,0.2,0.30000000000000004
1698924422.556,16,0.0,0.0,0.0,0.0,9.4,1.3,0.4,0.0,0.1
1698924422.573,16,0.0,0.0,0.0,0.0,9.4,1.3,0.7,0.0,0.0
1698924422.59,16,0.0,0.0,0.0,0.0,9.4,1.4000000000000001,1.3,0.1,0.1
1698924422.606,16,0.0,0.0,0.0,0.0,9.4,1.3,1.4,0.0,0.0
1698924422.622,16,0.0,0.0,0.1,-0.1,9.4,1.4000000000000001,1.5000000000000002,0.1,0.0
1698924422.639,16,0.0,0.0,0.1,0.0,9.4,1.4000000000000001,1.4,0.1,0.0
1698924422.655,16,0.0,0.0,0.0,0.0,9.4,1.4000000000000001,1.4,0.1,-0.30000000000000004
1698924422.672,16,0.0,0.0,0.0,0.0,9.4,1.3,1.4,0.1,-0.30000000000000004
1698924422.689,16,0.0,0.0,0.0,0.0,9.4,1.3,1.2000000000000002,-0.4,-0.1
1698924422.705,16,0.0,0.0,0.0,0.0,9.4,1.3,1.4,-0.6000000000000001,-0.2
1698924422.724,16,0.0,0.1,0.0,0.0,9.5,1.3,1.6,-0.9,-0.4
1698924422.74,16,0.0,0.1,-0.1,0.0,9.5,1.2000000000000002,1.3,-0.8,-0.5
1698924422.756,16,0.0,0.0,-0.1,0.0,9.5,1.2000000000000002,0.9,-0.7,-0.6000000000000001
1698924422.773,16,0.0,0.1,0.0,0.0,9.5,1.3,0.4,-1.0,-0.8
1698924422.79,16,0.0,0.1,-0.1,0.0,9.5,1.3,0.1,-0.9,-0.8
1698924422.806,16,0.0,0.0,-0.1,0.0,9.4,1.2000000000000002,0.0,-0.5,-1.0
1698924422.823,16,0.0,0.0,-0.1,0.0,9.4,1.2000000000000002,0.0,-0.5,-0.9
1698924422.84,16,0.0,0.0,0.0,0.0,9.4,1.2000000000000002,0.0,-0.8,-1.0
1698924422.856,16,0.0,0.0,0.0,0.0,9.4,1.3,0.7,-0.2,-0.6000000000000001
1698924422.874,16,0.0,0.0,0.0,-0.1,9.5,1.3,1.2000000000000002,0.0,-0.6000000000000001
1698924422.89,16,0.0,0.0,0.0,0.0,9.4,1.3,1.2000000000000002,-0.30000000000000004,-0.8
1698924422.906,16,0.0,0.0,0.1,0.0,9.4,1.3,1.0,-0.4,-1.0
1698924422.922,16,0.0,0.0,0.1,0.0,9.4,1.3,0.9,-0.30000000000000004,-0.8
1698924422.939,16,0.0,0.0,0.1,0.0,9.4,1.3,0.0,0.2,-1.0
1698924422.956,16,0.0,0.0,0.0,-0.1,9.4,1.3,-0.8,0.1,-0.8
1698924422.972,16,0.0,0.0,0.1,-0.1,9.4,1.4000000000000001,-1.3,0.2,-0.8
1698924422.989,16,0.0,0.0,0.0,-0.1,9.5,1.3,-1.0999999999999999,0.7,-0.7
1698924423.006,16,0.0,0.0,0.0,-0.1,9.4,1.3,-1.0999999999999999,0.6000000000000001,-0.6000000000000001
1698924423.023,16,0.0,0.0,0.0,-0.1,9.4,1.2000000000000002,-0.9,0.4,-0.6000000000000001
1698924423.04,16,0.0,0.0,0.0,-0.1,9.4,1.3,-0.7,0.1,-0.5
1698924423.056,16,0.0,0.0,0.0,-0.1,9.4,1.3,-0.30000000000000004,0.2,-0.2
1698924423.073,16,0.0,0.0,0.0,-0.1,9.4,1.3,0.1,0.2,0.0
1698924423.09,16,0.0,0.0,0.0,-0.1,9.4,1.3,0.5,-0.1,0.1
1698924423.106,16,0.0,0.0,0.0,-0.1,9.4,1.3,0.30000000000000004,-0.2,-0.1
1698924423.122,16,0.0,0.0,0.0,-0.1,9.4,1.3,0.1,-0.2,-0.2
1698924423.139,16,0.0,0.0,0.0,-0.1,9.4,1.3,0.0,-0.1,-0.2
1698924423.155,16,0.0,0.0,0.0,-0.1,9.4,1.3,-0.2,-0.1,0.0
1698924423.172,16,0.0,0.0,0.0,-0.1,9.4,1.3,-0.4,-0.1,0.2
1698924423.19,16,0.0,0.0,0.0,-0.1,9.4,1.3,-0.8,-0.5,0.1
1698924423.206,16,0.0,0.0,0.0,-0.1,9.4,1.3,-0.8,-0.5,0.0
1698924423.222,16,0.0,0.0,0.0,-0.1,9.4,1.3,-0.9,-0.2,0.1
1698924423.24,16,0.0,0.0,0.0,-0.1,9.4,1.3,-0.30000000000000004,0.0,0.1
1698924423.256,16,0.0,0.0,0.0,-0.1,9.4,1.3,0.0,-0.1,0.1
1698924423.273,16,0.0,0.0,0.0,-0.1,9.4,1.3,-0.2,-0.1,0.1
1698924423.289,16,0.0,0.0,0.0,-0.1,9.4,1.3,-0.2,0.2,0.1
1698924423.305,16,0.0,0.0,0.0,-0.1,9.4,1.3,-0.30000000000000004,0.0,0.2
1698924423.322,16,0.0,0.0,0.0,-0.1,9.4,1.3,-0.30000000000000004,-0.2,0.1
1698924423.339,16,0.0,0.0,0.0,-0.1,9.4,1.3,-0.30000000000000004,-0.1,0.1
1698924423.356,16,0.0,0.0,0.0,-0.1,9.4,1.3,-0.4,-0.1,-0.1
1698924423.373,16,0.0,0.0,0.1,-0.1,9.4,1.4000000000000001,-0.4,0.1,-0.1
1698924423.39,16,0.0,0.0,0.0,0.0,9.4,1.3,-0.4,0.2,-0.1
1698924423.406,16,0.0,0.0,0.0,-0.1,9.4,1.3,-0.2,0.2,0.1
1698924423.423,16,0.0,-0.1,0.0,-0.1,9.4,1.3,-0.1,0.1,0.1
1698924423.44,16,0.0,0.0,0.0,-0.1,9.4,1.3,-0.30000000000000004,-0.4,0.0
1698924423.456,16,0.0,0.0,0.0,-0.1,9.4,1.3,0.0,-0.1,0.0
1698924423.474,16,0.0,0.0,0.0,-0.1,9.4,1.3,0.2,-0.4,0.0
1698924423.49,16,0.0,0.0,0.0,-0.1,9.4,1.3,0.2,-0.4,0.1
1698924423.506,16,0.0,0.0,0.0,0.0,9.4,1.3,0.5,-0.1,0.1
1698924423.525,16,0.0,-0.1,0.0,-0.1,9.3,1.3,0.4,-0.2,0.0
1698924423.539,16,0.0,0.0,0.0,-0.1,9.4,1.3,0.4,-0.30000000000000004,0.1
1698924423.556,16,0.0,0.0,0.0,-0.1,9.4,1.3,0.2,-0.5,0.1
1698924423.572,16,-0.1,0.0,0.0,-0.1,9.4,1.3,0.4,-0.6000000000000001,0.1
1698924423.589,16,-0.1,0.1,0.0,-0.1,9.5,1.4000000000000001,0.30000000000000004,-0.6000000000000001,0.1
1698924423.606,16,0.0,0.0,0.0,-0.1,9.4,1.3,0.2,-1.0999999999999999,0.0
1698924423.622,16,0.1,0.0,0.0,0.0,9.4,1.4000000000000001,0.30000000000000004,-0.9,-0.2
1698924423.639,16,0.0,0.0,0.0,0.0,9.4,1.3,0.2,-0.1,0.0
1698924423.656,16,0.0,0.0,0.0,-0.1,9.4,1.3,0.0,-0.1,0.0
1698924423.674,16,0.0,0.0,0.0,-0.1,9.4,1.3,0.2,-0.5,-0.1
1698924423.691,16,0.1,0.0,0.0,0.0,9.4,1.3,0.9,-0.5,-0.30000000000000004
1698924423.706,16,0.1,0.0,0.0,0.0,9.4,1.3,1.0,-0.5,-0.4
1698924423.722,16,0.0,-0.1,0.0,-0.1,9.4,1.3,1.0999999999999999,0.2,-0.5
1698924423.739,16,0.0,0.0,0.0,-0.1,9.4,1.3,1.3,0.2,-0.1
1698924423.757,16,0.0,0.0,0.0,-0.1,9.4,1.3,1.0999999999999999,0.0,0.1
1698924423.772,16,0.0,0.0,0.0,-0.1,9.5,1.3,0.8,0.4,0.2
1698924423.791,16,0.0,0.0,0.0,-0.1,9.4,1.3,0.5,0.4,0.30000000000000004
1698924423.806,16,0.0,0.0,0.0,-0.1,9.4,1.3,0.30000000000000004,0.4,0.2
1698924423.822,16,0.0,0.0,0.0,-0.1,9.5,1.3,0.5,-0.1,0.1
1698924423.839,16,0.0,0.0,0.0,-0.1,9.5,1.3,0.7,0.0,-0.2
1698924423.856,16,0.0,0.0,0.0,-0.1,9.4,1.3,0.8,-0.1,-0.2
1698924423.872,16,0.0,0.0,0.0,0.0,9.4,1.3,1.0,-0.1,0.0
1698924423.889,16,0.0,0.0,0.0,-0.1,9.4,1.3,1.0,-0.1,0.0
1698924423.906,16,0.0,0.0,0.0,-0.1,9.4,1.3,0.8,-0.2,0.0
1698924423.924,16,0.0,0.0,0.0,0.0,9.4,1.3,0.30000000000000004,-0.2,0.1
1698924423.939,16,0.0,0.1,0.0,-0.1,9.5,1.3,0.2,-0.2,0.1
1698924423.956,16,0.0,0.0,0.0,-0.1,9.5,1.3,0.1,0.1,0.2
1698924423.972,16,0.0,0.0,-0.1,-0.1,9.4,1.2000000000000002,-0.2,0.2,0.2
1698924423.989,16,0.0,0.0,0.0,0.0,9.4,1.2000000000000002,-0.4,-0.4,0.1
1698924424.006,16,0.0,0.0,0.0,0.0,9.4,1.2000000000000002,-0.30000000000000004,-0.4,0.1
1698924424.023,16,0.0,0.0,0.0,0.0,9.4,1.2000000000000002,-0.5,-0.7,0.1
1698924424.039,16,0.0,0.0,0.0,-0.1,9.5,1.3,-0.5,-0.30000000000000004,0.5
1698924424.056,16,0.0,0.0,0.0,-0.1,9.5,1.3,0.0,0.5,0.5
1698924424.072,16,0.0,0.0,0.0,-0.1,9.5,1.3,0.4,-0.6000000000000001,0.30000000000000004
1698924424.089,16,0.0,0.0,0.0,-0.1,9.4,1.3,0.5,-0.2,0.1
1698924424.106,16,0.0,0.0,0.0,-0.1,9.4,1.3,0.2,-0.1,0.1
1698924424.122,16,0.0,0.0,0.0,-0.1,9.4,1.3,-0.2,0.2,0.1
1698924424.139,16,0.0,0.0,0.0,-0.1,9.4,1.3,-0.7,-0.6000000000000001,0.1
1698924424.156,16,0.0,0.0,0.0,-0.1,9.4,1.3,-0.7,-0.6000000000000001,0.2
1698924424.173,16,0.0,0.0,0.0,-0.1,9.4,1.3,-0.4,-0.6000000000000001,0.2
1698924424.189,16,0.0,0.0,0.0,0.0,9.4,1.3,-0.1,-0.7,0.1
1698924424.206,16,0.0,0.0,0.0,0.0,9.4,1.3,0.0,-0.7,0.0
1698924424.222,16,0.0,0.0,0.0,0.0,9.5,1.3,0.30000000000000004,-0.6000000000000001,-0.2
1698924424.24,16,0.0,0.0,0.0,0.0,9.4,1.3,0.2,-0.4,0.0
1698924424.256,16,0.0,0.0,0.0,0.0,9.4,1.3,0.0,0.2,0.0
1698924424.272,16,0.0,0.0,0.0,0.0,9.4,1.3,-0.1,0.2,-0.1
1698924424.289,16,0.0,0.0,0.0,0.0,9.4,1.3,0.0,0.5,-0.2
1698924424.305,16,0.0,0.0,0.0,0.0,9.4,1.3,-0.1,0.5,0.0
1698924424.322,16,0.0,0.0,0.0,-0.1,9.4,1.3,-0.1,0.4,0.0
1698924424.338,16,0.0,0.0,0.0,-0.1,9.5,1.3,0.0,0.5,-0.30000000000000004
1698924424.355,16,0.0,0.0,0.0,0.0,9.4,1.3,0.30000000000000004,0.9,0.0
1698924424.372,16,0.0,0.0,0.0,0.0,9.4,1.3,0.2,0.9,0.0
1698924424.389,16,0.0,-0.1,0.0,0.0,9.4,1.3,0.30000000000000004,0.4,0.1
1698924424.409,16,0.0,-0.1,0.0,-0.1,9.3,1.3,0.30000000000000004,0.2,0.2
1698924424.423,16,0.0,0.0,0.0,-0.1,9.4,1.3,0.30000000000000004,-0.7,0.4
1698924424.439,16,0.0,0.0,0.0,-0.1,9.5,1.3,0.2,-0.7,0.2
1698924424.456,16,0.0,0.0,0.0,-0.1,9.4,1.3,0.0,-0.5,0.5
1698924424.474,16,0.0,0.1,0.0,-0.1,9.5,1.3,0.1,-0.4,0.5
1698924424.489,16,0.0,0.0,0.0,0.0,9.4,1.3,0.5,-0.7,0.0
1698924424.506,16,0.0,-0.1,0.0,0.0,9.4,1.3,0.8,-0.7,0.0
1698924424.523,16,0.0,0.0,0.0,0.0,9.4,1.3,0.7,-0.30000000000000004,-0.1
1698924424.539,16,0.0,0.0,0.0,0.0,9.4,1.3,0.7,-0.2,0.0
1698924424.556,16,0.0,0.1,0.0,0.0,9.5,1.3,0.2,0.30000000000000004,-0.2
1698924424.572,16,0.0,0.0,0.0,-0.1,9.5,1.2000000000000002,0.0,0.4,-0.30000000000000004
1698924424.589,16,0.0,0.0,0.0,-0.1,9.5,1.3,-0.2,0.2,-0.2
1698924424.605,16,0.0,0.0,0.0,-0.1,9.4,1.3,0.0,0.0,-0.1
1698924424.622,16,0.0,0.0,-0.1,0.0,9.4,1.2000000000000002,-0.1,-0.1,-0.2
1698924424.639,16,0.0,0.0,0.0,0.0,9.4,1.2000000000000002,-0.1,0.0,-0.1
1698924424.655,16,0.0,0.0,0.0,-0.1,9.4,1.3,0.4,0.30000000000000004,0.1
1698924424.673,16,0.0,0.0,0.0,0.0,9.4,1.3,0.7,0.30000000000000004,0.30000000000000004
1698924424.689,16,0.0,0.0,0.0,-0.1,9.4,1.3,0.6000000000000001,0.2,0.30000000000000004
1698924424.706,16,0.0,0.0,0.0,-0.1,9.4,1.3,0.7,0.1,0.4
1698924424.722,16,0.0,0.0,0.0,-0.1,9.5,1.2000000000000002,0.8,0.1,0.1
1698924424.74,16,0.0,0.0,0.0,-0.1,9.4,1.3,0.2,0.5,0.0
1698924424.756,16,0.0,0.0,0.0,-0.1,9.4,1.3,-0.1,0.5,0.30000000000000004
1698924424.773,16,0.0,0.0,0.0,-0.1,9.4,1.3,-0.2,0.4,0.2
1698924424.79,16,0.0,0.0,0.0,-0.1,9.4,1.3,-0.30000000000000004,-0.1,0.30000000000000004
1698924424.806,16,0.0,0.0,0.0,-0.1,9.3,1.2000000000000002,-0.4,-0.4,0.6000000000000001
1698924424.822,16,0.0,0.0,0.0,0.0,9.4,1.3,-0.6000000000000001,-0.5,1.0
1698924424.839,16,0.0,0.1,0.0,0.0,9.5,1.3,-0.30000000000000004,-0.8,0.6000000000000001
1698924424.856,16,0.0,0.0,0.0,0.0,9.5,1.2000000000000002,0.0,-0.6000000000000001,-0.1
1698924424.873,16,0.0,0.0,0.0,0.0,9.4,1.3,0.2,-0.6000000000000001,0.1
1698924424.889,16,0.0,0.0,0.0,0.0,9.4,1.3,0.2,-0.30000000000000004,0.30000000000000004
1698924424.905,16,0.0,0.0,0.0,-0.1,9.4,1.3,0.5,-0.6000000000000001,0.4
1698924424.922,16,0.0,0.0,0.0,0.0,9.4,1.3,0.7,-0.7,0.1
1698924424.939,16,0.0,0.0,0.0,0.0,9.4,1.3,0.5,-0.5,0.0
1698924424.956,16,0.0,0.0,0.0,0.0,9.4,1.3,0.30000000000000004,-0.1,0.1
1698924424.975,16,0.0,0.0,0.0,-0.1,9.4,1.2000000000000002,-0.4,0.30000000000000004,0.0
1698924424.99,16,0.0,0.0,0.0,-0.1,9.4,1.3,-0.4,0.0,-0.1
1698924425.006,16,0.0,0.0,0.0,0.0,9.5,1.3,-0.1,-0.1,0.0
1698924425.023,16,0.0,0.0,0.0,0.0,9.4,1.2000000000000002,-0.1,-0.1,0.1
1698924425.04,16,0.0,0.0,0.0,0.0,9.4,1.2000000000000002,0.2,0.1,0.30000000000000004
1698924425.055,16,0.0,0.0,0.0,0.0,9.4,1.3,0.30000000000000004,0.30000000000000004,0.30000000000000004
1698924425.072,16,0.0,0.0,0.0,-0.1,9.5,1.2000000000000002,0.5,0.0,0.1
1698924425.092,16,0.0,0.0,0.0,0.0,9.4,1.3,0.5,-0.4,0.0
1698924425.106,16,0.0,0.0,0.0,0.0,9.4,1.3,0.4,-0.30000000000000004,0.0
1698924425.122,16,0.0,0.0,0.0,0.0,9.4,1.3,-0.1,-0.1,0.0
1698924425.139,16,0.0,0.0,0.0,-0.1,9.4,1.2000000000000002,-0.30000000000000004,-0.30000000000000004,0.0
1698924425.156,16,0.0,0.0,0.0,0.0,9.4,1.2000000000000002,-0.30000000000000004,0.1,0.1
1698924425.172,16,0.0,0.0,0.0,0.0,9.4,1.2000000000000002,-0.30000000000000004,0.30000000000000004,0.1
1698924425.19,16,0.0,0.0,0.0,0.0,9.4,1.3,-0.1,0.1,0.0
1698924425.206,16,0.0,0.0,0.0,0.0,9.4,1.3,0.0,-0.1,0.0
1698924425.222,16,0.0,0.0,0.0,0.0,9.4,1.3,0.30000000000000004,0.30000000000000004,0.0
1698924425.24,16,0.0,0.0,0.0,-0.1,9.4,1.3,0.2,0.2,0.1
1698924425.256,16,0.0,0.0,0.0,0.0,9.4,1.3,0.0,0.0,0.1
1698924425.273,16,0.0,0.0,0.0,0.0,9.5,1.3,-0.1,-0.2,0.0
1698924425.29,16,0.0,0.0,0.0,0.0,9.5,1.2000000000000002,-0.4,0.2,0.0
1698924425.306,16,0.0,0.0,0.0,-0.1,9.4,1.2000000000000002,-0.6000000000000001,0.2,0.2
1698924425.322,16,0.0,0.0,0.0,-0.1,9.4,1.2000000000000002,-0.5,0.1,0.30000000000000004
1698924425.339,16,0.0,0.0,0.0,-0.1,9.4,1.3,-0.1,-0.2,0.1
1698924425.355,16,0.0,0.0,0.0,0.0,9.4,1.2000000000000002,0.1,-0.1,0.1
1698924425.374,16,0.0,0.0,0.0,0.0,9.4,1.3,-0.1,-0.4,0.2
1698924425.39,16,0.0,0.0,0.0,0.0,9.4,1.3,-0.1,-0.30000000000000004,0.30000000000000004
1698924425.406,16,0.0,0.0,0.0,0.0,9.4,1.3,-0.1,-0.30000000000000004,0.1
1698924425.422,16,0.0,0.0,0.0,0.0,9.4,1.3,-0.2,-0.1,0.1
1698924425.44,16,0.0,0.0,0.0,0.0,9.4,1.2000000000000002,-0.4,-0.2,0.1
1698924425.455,16,0.0,0.0,0.0,0.0,9.4,1.3,-0.8,0.0,0.0
1698924425.472,16,0.0,0.0,0.0,0.0,9.4,1.2000000000000002,-0.7,0.4,0.2
1698924425.489,16,0.0,0.0,0.0,0.0,9.4,1.3,-0.8,0.5,0.30000000000000004
1698924425.506,16,-0.1,0.0,0.0,-0.1,9.4,1.3,-0.4,-0.1,0.30000000000000004
1698924425.522,16,-0.1,0.0,0.0,-0.1,9.5,1.3,-0.5,-0.6000000000000001,0.2
1698924425.539,16,0.0,0.0,0.0,0.0,9.4,1.3,-0.6000000000000001,-0.7,0.30000000000000004
1698924425.555,16,0.0,0.0,0.1,0.0,9.4,1.3,-0.8,-0.5,0.4
1698924425.572,16,0.0,0.0,0.0,0.0,9.4,1.3,-0.7,-0.30000000000000004,0.30000000000000004
1698924425.59,16,0.0,0.0,0.1,0.0,9.4,1.3,-0.7,-0.1,0.30000000000000004
1698924425.606,16,-0.1,0.0,0.0,-0.1,9.4,1.3,-0.7,0.1,0.8
1698924425.622,16,0.0,0.0,0.0,-0.1,9.5,1.3,-1.2000000000000002,0.1,0.8
1698924425.639,16,0.0,0.1,0.0,0.0,9.5,1.3,-1.5000000000000002,0.6000000000000001,0.6000000000000001
1698924425.656,16,0.1,0.0,0.1,0.1,9.4,1.4000000000000001,-1.5000000000000002,4.0,0.8
1698924425.672,16,0.1,-0.1,0.1,0.1,9.3,1.4000000000000001,-0.8,4.2,1.3
1698924425.689,16,0.1,0.0,0.1,0.1,9.4,1.4000000000000001,-0.30000000000000004,4.300000000000001,1.3
1698924425.706,16,0.1,0.0,0.0,0.1,9.4,1.3,-0.5,5.6,1.0999999999999999
1698924425.722,16,0.1,-0.1,-0.1,0.1,9.3,1.3,-1.3,5.8,0.5
1698924425.739,16,0.1,-0.1,-0.1,0.1,9.3,1.2000000000000002,-1.7,5.4,0.4
1698924425.756,16,0.0,-0.1,0.0,0.0,9.3,1.3,-1.9,4.2,1.2000000000000002
1698924425.773,16,-0.1,-0.1,0.0,-0.1,9.3,1.3,-1.0,2.6,2.1
1698924425.789,16,-0.2,0.0,0.1,-0.2,9.4,1.4000000000000001,-0.30000000000000004,1.6,2.0
1698924425.807,16,-0.2,0.0,0.1,-0.2,9.3,1.4000000000000001,2.1,0.0,1.4
1698924425.822,16,-0.1,-0.1,0.1,-0.1,9.3,1.4000000000000001,4.1000000000000005,-2.0,-0.1
1698924425.839,16,-0.1,-0.1,0.1,-0.1,9.3,1.4000000000000001,5.0,-3.2,-1.0999999999999999
1698924425.855,16,-0.1,-0.1,0.2,-0.1,9.3,1.5,5.4,-5.2,-0.8
1698924425.872,16,-0.1,0.1,0.1,-0.1,9.5,1.4000000000000001,4.6000000000000005,-4.800000000000001,-0.6000000000000001
1698924425.889,16,0.0,0.1,0.1,0.0,9.5,1.4000000000000001,2.7,-4.800000000000001,-0.6000000000000001
1698924425.905,16,0.0,0.1,0.0,0.0,9.5,1.3,1.6,-4.3999999999999995,-0.7
1698924425.923,16,0.0,0.0,-0.1,0.0,9.4,1.3,0.1,-4.300000000000001,-0.7
1698924425.939,16,0.1,0.1,-0.1,0.0,9.5,1.1,-2.6,-4.2,-0.7
1698924425.956,16,0.1,0.1,-0.1,0.0,9.5,1.2000000000000002,-4.5,-3.4,-0.6000000000000001
1698924425.973,16,0.1,0.1,-0.2,0.0,9.5,1.1,-4.300000000000001,-2.6,-0.30000000000000004
1698924425.99,16,0.0,0.1,-0.2,0.0,9.5,1.1,-2.7,-2.5,0.0
1698924426.006,16,0.0,0.1,-0.2,0.0,9.5,1.1,-1.7,-2.4000000000000004,0.1
1698924426.024,16,0.0,0.0,-0.2,0.0,9.4,1.1,-0.4,-2.1,0.30000000000000004
1698924426.039,16,0.0,0.0,-0.1,0.0,9.4,1.1,1.9,-1.5000000000000002,0.8
1698924426.056,16,0.0,0.1,-0.1,0.0,9.5,1.2000000000000002,3.9,-1.3,1.0999999999999999
1698924426.072,16,0.0,0.1,0.0,0.0,9.600000000000001,1.2000000000000002,4.9,-2.0,1.0999999999999999
1698924426.09,16,0.0,0.1,0.0,0.0,9.5,1.2000000000000002,5.0,-2.3000000000000003,1.2000000000000002
1698924426.106,16,-0.1,0.0,0.0,-0.1,9.5,1.2000000000000002,4.6000000000000005,-2.1999999999999997,1.2000000000000002
1698924426.122,16,0.0,0.0,0.0,-0.1,9.5,1.3,3.5,-2.4000000000000004,0.7
1698924426.139,16,0.0,0.0,0.1,0.0,9.5,1.3,2.8,-2.1,0.30000000000000004
1698924426.156,16,0.1,0.0,0.1,0.1,9.5,1.3,1.3,-1.0999999999999999,-0.1
1698924426.172,16,0.0,0.0,0.1,0.0,9.5,1.3,-0.2,-1.2000000000000002,-0.4
1698924426.189,16,0.0,-0.1,0.0,0.1,9.3,1.2000000000000002,-1.5000000000000002,-0.1,0.9
1698924426.206,16,0.0,-0.1,0.0,0.1,9.4,1.2000000000000002,-2.3000000000000003,0.5,0.9
1698924426.222,16,0.0,0.0,0.0,0.0,9.4,1.2000000000000002,-2.1999999999999997,1.2000000000000002,1.0999999999999999
1698924426.24,16,0.0,0.0,0.0,0.0,9.4,1.2000000000000002,-1.9,1.0999999999999999,1.2000000000000002
1698924426.255,16,0.0,-0.1,0.0,0.0,9.4,1.2000000000000002,-0.1,0.7,0.8
1698924426.272,16,0.0,0.0,0.0,0.0,9.4,1.2000000000000002,0.5,-0.1,0.7
1698924426.289,16,0.0,0.0,0.0,0.1,9.4,1.2000000000000002,1.6,0.30000000000000004,1.0999999999999999
1698924426.305,16,0.0,0.0,0.0,0.1,9.4,1.2000000000000002,1.8,0.5,1.0999999999999999
1698924426.322,16,0.0,0.0,0.1,0.1,9.4,1.3,2.5,0.2,0.30000000000000004
1698924426.339,16,0.0,0.0,0.1,0.0,9.4,1.3,2.8,0.4,0.5
1698924426.356,16,0.0,-0.1,0.1,0.0,9.4,1.3,2.7,0.6000000000000001,0.6000000000000001
1698924426.372,16,0.1,-0.1,0.0,0.1,9.3,1.3,1.6,0.5,0.5
1698924426.39,16,0.1,-0.1,0.1,0.1,9.3,1.3,0.30000000000000004,1.0,0.6000000000000001
1698924426.406,16,0.0,0.0,0.0,0.1,9.4,1.2000000000000002,-0.2,1.0,0.6000000000000001
1698924426.423,16,0.0,0.0,0.0,0.0,9.4,1.2000000000000002,-1.0999999999999999,0.7,0.5
1698924426.439,16,0.0,0.0,-0.1,0.0,9.4,1.2000000000000002,-1.2000000000000002,0.7,0.30000000000000004
1698924426.456,16,0.0,0.0,-0.1,0.0,9.4,1.1,-1.2000000000000002,0.5,0.30000000000000004
1698924426.472,16,0.0,0.1,0.0,0.0,9.5,1.2000000000000002,-0.8,-0.1,0.30000000000000004
1698924426.488,16,0.0,0.0,-0.1,0.0,9.5,1.2000000000000002,0.1,-0.30000000000000004,0.2
1698924426.505,16,0.0,0.0,-0.1,0.1,9.4,1.1,0.4,-0.2,0.1
1698924426.522,16,0.0,0.0,-0.1,0.1,9.4,1.2000000000000002,0.8,-0.4,-0.2
1698924426.538,16,0.0,0.0,0.0,0.0,9.5,1.2000000000000002,1.0999999999999999,-0.4,-0.2
1698924426.556,16,0.0,0.1,0.0,0.0,9.5,1.2000000000000002,1.2000000000000002,-0.30000000000000004,-0.2
1698924426.573,16,0.0,0.0,0.0,0.0,9.4,1.2000000000000002,1.0999999999999999,-0.4,-0.2
1698924426.59,16,0.0,0.0,0.0,0.0,9.4,1.2000000000000002,0.6000000000000001,-0.5,0.0
1698924426.606,16,0.0,0.0,0.0,0.0,9.4,1.2000000000000002,0.0,-0.2,0.0
1698924426.623,16,0.0,0.0,0.0,0.0,9.4,1.2000000000000002,-0.30000000000000004,-0.4,0.1
1698924426.639,16,0.0,0.0,0.0,0.0,9.5,1.2000000000000002,-0.7,-0.4,0.1
1698924426.655,16,0.0,0.0,0.0,0.0,9.5,1.2000000000000002,-1.0999999999999999,-0.4,0.1
1698924426.672,16,0.0,0.0,0.0,0.0,9.4,1.2000000000000002,-0.8,-0.2,0.30000000000000004
1698924426.689,16,0.0,0.0,0.0,0.1,9.4,1.2000000000000002,-0.6000000000000001,-0.1,0.30000000000000004
1698924426.706,16,0.0,0.0,0.0,0.1,9.4,1.2000000000000002,-0.4,-0.1,0.1
1698924426.724,16,0.0,0.0,0.0,0.1,9.4,1.2000000000000002,0.1,-0.1,0.0
1698924426.739,16,0.0,0.0,0.0,0.1,9.4,1.2000000000000002,0.5,-0.4,-0.2
1698924426.756,16,0.0,0.0,0.0,0.0,9.4,1.2000000000000002,1.0,-0.1,0.0
1698924426.773,16,0.0,0.0,0.0,0.1,9.4,1.2000000000000002,1.0,-0.1,-0.1
1698924426.79,16,0.0,0.0,0.1,0.1,9.4,1.3,0.8,0.2,-0.30000000000000004
1698924426.806,16,0.0,0.0,0.1,0.0,9.5,1.3,0.8,0.5,-0.2
1698924426.823,16,0.0,0.0,0.0,0.1,9.4,1.2000000000000002,0.8,0.7,0.30000000000000004
1698924426.839,16,0.0,-0.1,0.0,0.1,9.4,1.2000000000000002,0.5,0.9,0.0
1698924426.855,16,0.0,-0.1,-0.1,0.1,9.4,1.2000000000000002,0.2,1.3,0.1
1698924426.872,16,0.0,0.0,0.0,0.0,9.4,1.2000000000000002,-0.30000000000000004,1.2000000000000002,0.2
1698924426.889,16,0.0,0.0,0.0,0.0,9.4,1.2000000000000002,-0.6000000000000001,0.8,0.0
1698924426.906,16,0.0,0.0,0.0,0.0,9.5,1.2000000000000002,-0.6000000000000001,0.4,0.0
1698924426.922,16,0.0,0.1,0.0,0.1,9.5,1.2000000000000002,-0.4,-0.1,0.0
1698924426.939,16,0.0,0.1,0.0,0.0,9.5,1.2000000000000002,0.4,-0.1,-1.2000000000000002
1698924426.955,16,0.0,-0.1,0.0,0.0,9.3,1.2000000000000002,1.2000000000000002,0.7,0.1
1698924426.972,16,0.0,-0.1,0.0,0.0,9.4,1.2000000000000002,1.3,1.0,0.5
1698924426.99,16,-0.1,-0.1,0.0,0.0,9.4,1.2000000000000002,1.8,-0.2,0.7
1698924427.006,16,0.0,-0.1,0.0,0.0,9.4,1.2000000000000002,1.6,-0.2,0.6000000000000001
1698924427.024,16,0.0,0.0,0.0,0.0,9.4,1.2000000000000002,1.0999999999999999,0.2,0.2
1698924427.039,16,0.0,0.0,0.0,0.0,9.5,1.2000000000000002,1.0999999999999999,0.0,0.30000000000000004
1698924427.055,16,0.0,0.0,0.0,0.1,9.4,1.2000000000000002,0.6000000000000001,-0.4,0.30000000000000004
1698924427.073,16,0.0,0.0,0.0,0.1,9.4,1.2000000000000002,0.4,-0.30000000000000004,0.4
1698924427.089,16,0.0,0.0,0.0,0.1,9.4,1.1,0.0,-0.1,0.2
1698924427.106,16,0.0,0.0,0.0,0.0,9.4,1.2000000000000002,-0.30000000000000004,-0.1,0.30000000000000004
1698924427.123,16,0.0,0.0,0.0,0.1,9.4,1.1,-0.4,-0.2,0.30000000000000004
1698924427.139,16,0.0,0.0,-0.1,0.1,9.4,1.1,0.0,-0.30000000000000004,0.1
1698924427.156,16,0.0,0.0,0.0,0.1,9.4,1.2000000000000002,0.6000000000000001,-0.1,0.1
1698924427.172,16,0.1,0.0,0.0,0.1,9.4,1.2000000000000002,1.0,0.0,0.30000000000000004
1698924427.189,16,0.0,0.0,0.0,0.1,9.5,1.1,1.6,0.6000000000000001,0.30000000000000004
1698924427.206,16,0.0,0.1,0.0,0.1,9.5,1.2000000000000002,1.7,0.9,0.30000000000000004
1698924427.222,16,0.0,0.0,0.0,0.1,9.4,1.1,1.6,0.6000000000000001,0.0
1698924427.239,16,0.0,0.0,0.0,0.1,9.5,1.2000000000000002,1.3,0.4,0.1
1698924427.256,16,0.0,0.0,0.0,0.1,9.5,1.1,1.0,0.2,0.1
1698924427.273,16,0.0,0.0,0.0,0.0,9.4,1.1,0.1,0.8,0.30000000000000004
1698924427.29,16,-0.1,0.0,0.0,0.0,9.4,1.2000000000000002,-0.30000000000000004,0.9,0.2
1698924427.306,16,0.0,0.0,0.0,0.0,9.5,1.1,-0.30000000000000004,0.1,0.0
1698924427.322,16,0.0,0.0,0.0,0.0,9.5,1.1,-0.4,-0.2,-0.2
1698924427.339,16,0.0,0.0,0.0,0.0,9.5,1.1,-0.4,0.0,0.0
1698924427.355,16,0.0,0.0,0.0,0.0,9.5,1.2000000000000002,-0.1,0.4,0.1
1698924427.372,16,0.0,0.0,0.0,0.0,9.4,1.2000000000000002,0.1,-0.1,0.1
1698924427.389,16,0.0,0.0,0.0,0.0,9.5,1.1,0.5,-0.9,0.0
1698924427.407,16,0.0,0.0,0.0,0.0,9.4,1.2000000000000002,0.6000000000000001,-0.4,0.30000000000000004
1698924427.422,16,0.0,0.0,0.0,0.1,9.5,1.2000000000000002,0.6000000000000001,-0.30000000000000004,0.5
1698924427.439,16,0.0,-0.1,0.0,0.1,9.4,1.2000000000000002,0.4,0.2,1.0999999999999999
1698924427.456,16,0.0,0.0,0.0,0.0,9.4,1.2000000000000002,0.5,0.5,1.0999999999999999
1698924427.472,16,0.0,0.1,0.0,0.0,9.600000000000001,1.2000000000000002,1.4,0.0,-2.0
1698924427.489,16,-0.1,-0.2,0.0,-0.1,9.3,1.1,1.8,-0.2,-2.3000000000000003
1698924427.505,16,0.0,-0.1,0.0,0.1,9.3,1.1,1.0999999999999999,1.6,-0.30000000000000004
1698924427.523,16,0.0,-0.1,0.0,0.1,9.4,1.1,1.2000000000000002,0.9,0.1
1698924427.539,16,0.0,0.1,0.0,0.0,9.5,1.1,1.0999999999999999,-0.30000000000000004,0.5
1698924427.556,16,0.0,0.0,0.0,0.0,9.5,1.1,0.7,-0.2,0.6000000000000001
1698924427.572,16,0.0,-0.1,0.0,0.1,9.4,1.1,0.2,-0.1,0.2
1698924427.589,16,0.0,-0.1,0.0,0.1,9.3,1.1,0.2,0.0,-0.1
1698924427.606,16,0.1,0.0,0.0,0.1,9.4,1.1,0.30000000000000004,-0.2,0.4
1698924427.622,16,0.0,-0.1,0.0,0.1,9.3,1.1,0.8,0.0,1.0
1698924427.64,16,0.0,-0.1,0.0,0.1,9.3,1.1,1.0999999999999999,0.30000000000000004,1.0999999999999999
1698924427.655,16,0.0,0.0,0.0,0.1,9.4,1.2000000000000002,1.6,-0.1,0.7
1698924427.672,16,0.0,0.0,0.0,0.1,9.4,1.1,2.1999999999999997,-0.1,0.6000000000000001
1698924427.689,16,0.1,0.0,0.0,0.1,9.4,1.1,2.7,-0.2,0.2
1698924427.706,16,0.1,0.0,0.0,0.1,9.4,1.1,2.1999999999999997,0.30000000000000004,0.30000000000000004
1698924427.724,16,0.0,0.0,0.0,0.1,9.4,1.1,1.8,0.6000000000000001,0.2
1698924427.739,16,0.0,0.0,0.0,0.1,9.4,1.1,0.9,0.9,0.30000000000000004
1698924427.756,16,0.0,0.0,0.0,0.1,9.5,1.1,-0.1,0.5,0.1
1698924427.772,16,0.0,0.0,0.0,0.1,9.5,1.1,-0.9,0.5,-0.2
1698924427.789,16,0.0,0.0,0.0,0.1,9.5,1.1,-1.2000000000000002,0.9,0.0
1698924427.805,16,0.0,0.1,0.0,0.0,9.5,1.1,-1.2000000000000002,0.7,0.1
1698924427.822,16,-0.1,0.1,-0.1,0.0,9.5,1.0,-0.6000000000000001,0.0,-0.30000000000000004
1698924427.839,16,-0.1,0.0,-0.1,0.0,9.5,1.0,-0.30000000000000004,0.0,-0.5
1698924427.856,16,0.0,0.0,-0.1,0.1,9.5,1.0,0.8,-0.5,-0.8
1698924427.872,16,0.0,0.1,0.0,0.0,9.5,1.0,1.3,-0.6000000000000001,-0.6000000000000001
1698924427.889,16,0.0,0.0,0.0,0.1,9.5,1.0,1.8,-0.7,-0.4
1698924427.908,16,0.0,0.0,0.0,0.0,9.5,1.1,2.1,-0.7,-0.30000000000000004
1698924427.922,16,0.0,0.0,0.0,0.1,9.4,1.1,1.9,-1.0,-0.4
1698924427.939,16,0.0,0.0,0.0,0.0,9.4,1.1,1.7,-1.0999999999999999,-0.5
1698924427.956,16,0.0,0.0,0.0,0.0,9.5,1.0,1.0,-0.7,-0.5
1698924427.974,16,0.0,0.0,0.0,0.1,9.4,1.1,0.2,-1.0,-0.7
1698924427.989,16,0.0,0.0,0.0,0.1,9.4,1.1,0.2,-0.8,-0.7
1698924428.006,16,0.0,0.1,-0.1,0.1,9.5,1.0,0.0,-1.4,-0.7
1698924428.022,16,0.1,0.1,0.1,0.1,9.5,1.1,-1.3,-2.1999999999999997,-1.0999999999999999
1698924428.039,16,0.1,0.2,-0.1,0.1,9.600000000000001,1.1,-1.4,-1.2000000000000002,-1.2000000000000002
1698924428.057,16,0.0,0.30000000000000004,0.0,0.1,9.700000000000001,1.1,-2.1999999999999997,-1.3,-1.3
1698924428.072,16,0.0,0.30000000000000004,-0.1,0.1,9.700000000000001,1.0,-2.6,-0.1,-1.0
1698924428.088,16,0.0,0.2,-0.1,0.1,9.700000000000001,1.0,-5.0,-0.2,-1.3
1698924428.105,16,0.0,0.2,0.0,0.1,9.700000000000001,1.1,-5.6,0.4,-1.6
1698924428.122,16,0.0,0.2,-0.2,0.0,9.700000000000001,0.9,-7.8,0.0,-1.7
1698924428.138,16,-0.1,0.2,-0.2,0.0,9.700000000000001,1.0,-9.8,-0.5,-1.3
1698924428.155,16,0.0,0.1,-0.30000000000000004,0.0,9.700000000000001,0.8,-10.9,-0.7,-1.6
1698924428.172,16,0.0,0.2,-0.30000000000000004,0.0,9.700000000000001,0.8,-14.500000000000002,-1.5000000000000002,-3.3000000000000003
1698924428.188,16,0.0,0.4,-0.30000000000000004,0.1,9.9,0.9,-16.1,-1.2000000000000002,-3.3000000000000003
1698924428.205,16,0.0,0.5,-0.30000000000000004,0.0,10.0,0.9,-16.700000000000003,-1.3,-2.9
1698924428.222,16,0.1,0.4,-0.30000000000000004,0.1,9.9,0.9,-17.200000000000003,-1.3,-2.5
1698924428.238,16,0.0,0.30000000000000004,-0.4,0.0,9.9,0.9,-18.8,-1.8,-3.3000000000000003
1698924428.255,16,0.0,0.4,-0.30000000000000004,0.0,9.9,1.1,-19.6,-1.6,-3.6
1698924428.272,16,-0.1,0.5,-0.30000000000000004,-0.1,10.100000000000001,1.1,-20.3,-3.1,-5.300000000000001
1698924428.288,16,0.0,0.5,-0.30000000000000004,0.0,10.100000000000001,1.2000000000000002,-21.700000000000003,-1.2000000000000002,-6.000000000000001
1698924428.305,16,0.0,0.5,-0.30000000000000004,0.0,10.100000000000001,1.2000000000000002,-23.3,-1.9,-6.3
1698924428.322,16,0.1,0.4,-0.2,0.1,9.9,1.4000000000000001,-26.700000000000003,-1.2000000000000002,-7.6
1698924428.338,16,0.1,0.4,-0.30000000000000004,0.0,9.9,1.4000000000000001,-32.0,-2.0,-9.1
1698924428.355,16,0.1,0.6000000000000001,-0.4,-0.1,10.200000000000001,1.3,-39.1,-3.2,-10.8
1698924428.373,16,0.0,0.7000000000000001,-0.5,-0.1,10.3,1.3,-43.400000000000006,-3.7000000000000006,-11.700000000000001
1698924428.388,16,0.1,1.0,-0.6000000000000001,-0.1,10.5,1.4000000000000001,-52.6,-4.1000000000000005,-12.3
1698924428.406,16,0.1,1.1,-0.5,-0.1,10.600000000000001,1.6,-56.800000000000004,-4.5,-12.200000000000001
1698924428.422,16,0.1,1.2000000000000002,-1.0,-0.1,10.600000000000001,1.3,-63.4,-3.4,-12.5
1698924428.439,16,0.0,0.9,-1.1,-0.30000000000000004,10.3,1.5,-72.0,-3.5,-12.8
1698924428.455,16,-0.1,0.8,-1.3,-0.4,10.200000000000001,1.4000000000000001,-75.4,-2.9,-13.200000000000001
1698924428.472,16,-0.1,1.0,-1.7000000000000002,-0.4,10.200000000000001,1.2000000000000002,-82.4,-4.6000000000000005,-15.399999999999999
1698924428.488,16,0.1,1.0,-1.8,-0.30000000000000004,10.200000000000001,1.3,-90.30000000000001,-0.1,-16.3
1698924428.505,16,0.30000000000000004,1.0,-2.0,-0.2,10.100000000000001,1.4000000000000001,-93.80000000000001,3.4,-13.6
1698924428.524,16,0.30000000000000004,1.1,-1.9000000000000001,-0.2,10.200000000000001,1.6,-94.7,4.7,-11.3
1698924428.539,16,0.1,1.1,-1.7000000000000002,-0.4,10.100000000000001,2.1,-93.4,7.1000000000000005,-6.4
1698924428.555,16,0.1,1.3,-1.4000000000000001,-0.4,10.200000000000001,2.6,-89.7,3.1,-6.2
1698924428.572,16,0.1,1.4000000000000001,-0.9,-0.4,10.100000000000001,3.3000000000000003,-79.3,-1.6,-8.5
1698924428.588,16,0.4,1.0,-0.2,-0.2,9.700000000000001,4.2,-70.2,-0.1,-9.5
1698924428.605,16,0.5,1.0,0.1,-0.1,9.700000000000001,4.7,-65.3,0.2,-9.4
1698924428.622,16,0.5,1.2000000000000002,0.8,-0.1,9.700000000000001,5.5,-56.800000000000004,4.5,-9.3
1698924428.639,16,0.5,1.1,1.3,-0.1,9.600000000000001,6.2,-56.5,8.200000000000001,-8.799999999999999
1698924428.655,16,0.4,0.8,1.6,-0.30000000000000004,9.200000000000001,6.6000000000000005,-62.50000000000001,9.9,-8.600000000000001
1698924428.672,16,0.0,0.2,1.7000000000000002,-0.6000000000000001,8.5,6.9,-81.0,11.700000000000001,-8.0
1698924428.689,16,0.0,0.2,1.5,-0.7000000000000001,8.3,7.0,-95.4,20.8,-13.0
1698924428.705,16,0.0,0.2,1.0,-0.9,8.1,6.800000000000001,-88.9,20.8,-15.100000000000001
1698924428.722,16,-0.2,0.0,0.9,-1.0,7.800000000000001,6.800000000000001,-80.5,20.2,-13.100000000000001
1698924428.738,16,0.1,-0.7000000000000001,0.6000000000000001,-0.9,7.0,6.6000000000000005,-57.9,23.400000000000002,-6.4
1698924428.755,16,0.1,-1.4000000000000001,0.5,-0.9,6.300000000000001,6.6000000000000005,-46.2,22.900000000000002,-3.9
1698924428.772,16,-0.1,-2.4000000000000004,0.30000000000000004,-1.1,5.2,6.5,-26.9,17.0,1.4
1698924428.789,16,-0.1,-2.4000000000000004,0.5,-1.1,5.1000000000000005,6.7,-18.3,14.0,3.7000000000000006
1698924428.805,16,-0.1,-2.0,0.7000000000000001,-1.1,5.5,6.9,-17.0,10.9,3.2
1698924428.822,16,-0.2,-0.9,1.0,-1.2000000000000002,6.5,7.300000000000001,-16.5,5.9,4.7
1698924428.839,16,-0.2,-0.4,1.0,-1.3,7.0,7.300000000000001,-13.6,5.300000000000001,9.1
1698924428.855,16,-0.2,-0.1,1.0,-1.2000000000000002,7.2,7.4,-10.4,3.5,10.0
1698924428.872,16,-0.4,0.2,1.2000000000000002,-1.4000000000000001,7.6000000000000005,7.5,-3.3000000000000003,0.5,10.4
1698924428.889,16,-0.5,0.30000000000000004,1.4000000000000001,-1.5,7.7,7.800000000000001,0.30000000000000004,1.0,10.4
1698924428.906,16,-0.4,0.4,1.7000000000000002,-1.4000000000000001,7.7,8.1,0.2,2.1,8.1
1698924428.922,16,-0.4,0.4,1.6,-1.4000000000000001,7.7,8.0,-0.6000000000000001,1.9,6.9
1698924428.939,16,-0.30000000000000004,0.1,1.6,-1.3,7.5,8.0,-2.1999999999999997,2.7,5.8
1698924428.955,16,-0.30000000000000004,-0.1,1.4000000000000001,-1.2000000000000002,7.4,7.9,-1.6,3.4,5.1
1698924428.972,16,-0.2,-0.1,1.3,-1.1,7.300000000000001,7.7,3.4,3.4,4.2
1698924428.989,16,0.0,-0.1,1.2000000000000002,-1.0,7.300000000000001,7.6000000000000005,7.9,2.3000000000000003,3.8
1698924429.005,16,-0.2,-0.1,1.1,-1.2000000000000002,7.4,7.5,11.6,2.5,5.8
1698924429.022,16,-0.30000000000000004,-0.1,1.0,-1.3,7.300000000000001,7.4,12.5,3.1,7.0
1698924429.039,16,-0.4,-0.4,0.7000000000000001,-1.3,7.1000000000000005,7.1000000000000005,13.9,2.1,8.4
1698924429.055,16,-0.4,-0.6000000000000001,0.5,-1.3,6.9,6.800000000000001,15.7,-0.4,7.8
1698924429.072,16,-0.30000000000000004,-0.6000000000000001,0.4,-1.2000000000000002,6.9,6.7,16.900000000000002,-1.2000000000000002,7.6
1698924429.089,16,-0.30000000000000004,-0.5,0.4,-1.2000000000000002,7.1000000000000005,6.7,20.7,-1.2000000000000002,7.6
1698924429.105,16,-0.1,-0.5,0.4,-1.0,7.2,6.6000000000000005,25.1,-3.2,7.699999999999999
1698924429.122,16,-0.1,-0.5,0.4,-0.9,7.1000000000000005,6.5,25.900000000000002,-4.300000000000001,7.500000000000001
1698924429.139,16,-0.1,-0.8,0.30000000000000004,-0.9,6.9,6.5,26.700000000000003,-4.1000000000000005,8.1
1698924429.155,16,-0.1,-1.1,0.2,-0.9,6.6000000000000005,6.300000000000001,28.400000000000002,-3.1,9.1
1698924429.172,16,-0.2,-1.2000000000000002,0.1,-0.9,6.6000000000000005,6.1000000000000005,29.600000000000005,-3.1,9.4
1698924429.188,16,-0.2,-1.2000000000000002,-0.1,-0.9,6.6000000000000005,5.800000000000001,33.1,-2.7,9.5
1698924429.207,16,-0.2,-1.3,-0.1,-0.9,6.6000000000000005,5.7,35.7,-3.4,8.3
1698924429.222,16,-0.2,-1.4000000000000001,-0.2,-0.9,6.5,5.6000000000000005,37.800000000000004,-3.4,8.200000000000001
1698924429.239,16,-0.2,-1.6,-0.5,-0.8,6.4,5.1000000000000005,40.9,-6.2,7.9
1698924429.255,16,-0.30000000000000004,-1.8,-0.5,-0.9,6.300000000000001,5.0,42.400000000000006,-6.000000000000001,8.1
1698924429.272,16,-0.30000000000000004,-1.9000000000000001,-0.5,-0.9,6.2,4.9,44.2,-5.1,8.600000000000001
1698924429.289,16,-0.30000000000000004,-2.0,-0.7000000000000001,-0.9,6.2,4.7,48.400000000000006,-5.7,9.0
1698924429.305,16,-0.30000000000000004,-2.2,-0.6000000000000001,-0.8,6.0,4.6000000000000005,52.2,-5.8,8.4
1698924429.322,16,-0.2,-2.3000000000000003,-0.6000000000000001,-0.8,6.0,4.5,55.0,-5.500000000000001,8.0
1698924429.339,16,-0.1,-2.3000000000000003,-0.6000000000000001,-0.6000000000000001,6.1000000000000005,4.3,60.7,-7.400000000000001,6.7
1698924429.355,16,0.0,-2.3000000000000003,-0.7000000000000001,-0.5,6.2,4.0,64.7,-8.1,6.7
1698924429.372,16,0.0,-2.3000000000000003,-0.9,-0.4,6.2,3.6,64.7,-9.700000000000001,7.6
1698924429.389,16,0.0,-2.3000000000000003,-0.8,-0.4,6.300000000000001,3.7,64.0,-8.9,8.1
1698924429.406,16,0.0,-2.3000000000000003,-0.7000000000000001,-0.4,6.4,3.5,65.60000000000001,-4.6000000000000005,9.4
1698924429.422,16,0.1,-2.4000000000000004,-0.8,-0.30000000000000004,6.300000000000001,3.3000000000000003,65.8,-4.800000000000001,9.8
1698924429.439,16,0.1,-2.4000000000000004,-0.5,-0.2,6.4,3.4000000000000004,65.5,-6.5,10.2
1698924429.455,16,0.1,-2.3000000000000003,-0.4,-0.2,6.5,3.3000000000000003,66.4,-7.2,11.000000000000002
1698924429.472,16,0.0,-2.2,-0.4,-0.2,6.6000000000000005,3.2,65.4,-9.5,11.5
1698924429.489,16,-0.1,-2.2,-0.4,-0.30000000000000004,6.800000000000001,3.0,64.2,-9.5,11.700000000000001
1698924429.505,16,-0.2,-2.1,-0.4,-0.4,6.9,2.9000000000000004,61.7,-7.300000000000001,12.000000000000002
1698924429.522,16,-0.1,-1.7000000000000002,-0.1,-0.30000000000000004,7.300000000000001,2.9000000000000004,59.9,-8.9,11.700000000000001
1698924429.539,16,-0.1,-1.4000000000000001,-0.1,-0.2,7.6000000000000005,2.8000000000000003,59.400000000000006,-9.700000000000001,11.5
1698924429.555,16,-0.2,-1.0,0.0,-0.2,8.200000000000001,2.8000000000000003,57.9,-9.3,12.000000000000002
1698924429.572,16,-0.2,-0.6000000000000001,0.2,-0.2,8.6,2.8000000000000003,56.0,-7.9,12.000000000000002
1698924429.589,16,-0.2,-0.4,0.2,-0.2,8.8,2.7,55.300000000000004,-8.5,11.2
1698924429.605,16,-0.1,-0.30000000000000004,0.2,0.0,9.0,2.5,52.400000000000006,-11.2,8.0
1698924429.622,16,0.0,-0.2,0.1,0.0,9.0,2.3000000000000003,46.2,-10.600000000000001,4.1000000000000005
1698924429.639,16,-0.1,-0.2,0.0,0.0,9.1,2.1,42.2,-8.5,3.6
1698924429.655,16,-0.2,-0.2,0.0,-0.1,9.1,2.0,38.400000000000006,-6.2,4.2
1698924429.672,16,-0.2,-0.1,0.0,0.0,9.200000000000001,1.8,30.100000000000005,-8.200000000000001,6.3
1698924429.688,16,-0.2,-0.1,0.0,-0.1,9.200000000000001,1.9000000000000001,28.700000000000003,-9.3,6.7
1698924429.707,16,-0.2,0.2,0.1,-0.1,9.5,1.8,26.700000000000003,-10.1,6.4
1698924429.722,16,-0.2,0.4,0.0,0.0,9.700000000000001,1.7000000000000002,25.400000000000002,-10.1,4.300000000000001
1698924429.738,16,-0.2,0.4,0.1,0.0,9.8,1.7000000000000002,24.6,-10.5,2.8
1698924429.755,16,0.1,0.6000000000000001,0.2,0.2,10.0,1.7000000000000002,23.5,-8.799999999999999,-0.2
1698924429.772,16,0.2,0.6000000000000001,0.2,0.4,10.0,1.7000000000000002,22.6,-5.9,-2.1
1698924429.79,16,0.2,0.5,0.2,0.30000000000000004,10.0,1.7000000000000002,22.000000000000004,-4.2,-1.9
1698924429.805,16,0.1,0.5,0.4,0.30000000000000004,9.9,1.8,21.6,-0.7,1.2000000000000002
1698924429.822,16,0.0,0.4,0.4,0.2,9.8,1.7000000000000002,22.3,-0.6000000000000001,5.300000000000001
1698924429.838,16,0.0,0.4,0.4,0.2,9.8,1.7000000000000002,22.1,-4.800000000000001,7.699999999999999
1698924429.855,16,-0.1,0.4,0.4,0.1,9.8,1.6,21.0,-6.3,7.8
1698924429.872,16,-0.1,0.30000000000000004,0.4,0.1,9.8,1.6,17.400000000000002,-6.5,5.8
1698924429.888,16,0.0,0.30000000000000004,0.5,0.2,9.8,1.5,15.399999999999999,-5.9,3.9
1698924429.905,16,0.0,0.30000000000000004,0.5,0.30000000000000004,9.8,1.7000000000000002,12.200000000000001,-4.5,0.1
1698924429.922,16,0.1,0.1,0.7000000000000001,0.4,9.700000000000001,1.8,11.700000000000001,-2.1,-1.6
1698924429.938,16,0.2,0.1,0.7000000000000001,0.4,9.600000000000001,1.8,12.000000000000002,-1.8,-1.0999999999999999
1698924429.955,16,0.1,0.0,0.5,0.4,9.600000000000001,1.6,10.600000000000001,-1.6,1.2000000000000002
1698924429.972,16,0.0,0.1,0.2,0.30000000000000004,9.700000000000001,1.3,5.2,0.7,1.6
1698924429.988,16,0.0,0.2,0.1,0.30000000000000004,9.700000000000001,1.2000000000000002,1.6,0.6000000000000001,0.7
1698924430.007,16,-0.1,0.30000000000000004,0.0,0.2,9.9,1.2000000000000002,-5.500000000000001,0.0,-1.3
1698924430.022,16,-0.2,0.30000000000000004,0.1,0.1,9.8,1.3,-11.700000000000001,2.4000000000000004,-1.2000000000000002
1698924430.039,16,-0.30000000000000004,0.2,0.2,0.0,9.8,1.3,-13.6,4.7,0.0
1698924430.055,16,-0.4,0.0,0.1,-0.1,9.600000000000001,1.4000000000000001,-14.3,7.9,3.4
1698924430.072,16,-0.5,-0.30000000000000004,-0.1,-0.2,9.3,1.1,-14.800000000000002,9.9,5.4
1698924430.088,16,-0.5,-0.4,-0.2,-0.2,9.200000000000001,1.1,-15.399999999999999,10.5,5.1
1698924430.105,16,-0.4,-0.5,-0.30000000000000004,-0.1,9.0,1.0,-16.1,9.0,3.2
1698924430.122,16,-0.5,-0.5,-0.4,-0.2,9.0,1.0,-15.6,3.4,1.6
1698924430.139,16,-0.5,-0.5,-0.30000000000000004,-0.2,9.1,1.1,-15.000000000000002,1.5000000000000002,1.4
1698924430.155,16,-0.7000000000000001,-0.2,-0.2,-0.4,9.3,1.3,-12.000000000000002,0.2,1.2000000000000002
1698924430.172,16,-0.8,0.1,0.1,-0.5,9.600000000000001,1.6,-6.2,1.0,0.0
1698924430.189,16,-0.7000000000000001,0.2,0.2,-0.30000000000000004,9.9,1.7000000000000002,2.1999999999999997,2.9,-2.8
1698924430.205,16,-0.5,0.5,0.2,-0.2,10.0,1.7000000000000002,6.6000000000000005,2.3000000000000003,-3.8
1698924430.222,16,-0.1,0.1,-0.1,0.1,9.600000000000001,1.4000000000000001,11.9,-2.4000000000000004,-4.1000000000000005
1698924430.238,16,0.1,-0.4,-0.30000000000000004,0.2,9.4,1.2000000000000002,11.700000000000001,-5.6,-4.5
1698924430.256,16,0.30000000000000004,-0.5,-0.4,0.5,9.0,1.0,6.5,-12.5,-6.1000000000000005
1698924430.272,16,0.7000000000000001,-0.6000000000000001,-0.7000000000000001,0.9,8.9,0.7000000000000001,-3.5,-18.7,-10.4
1698924430.288,16,0.8,-0.4,-1.1,0.9,9.1,0.4,-18.8,-19.8,-15.399999999999999
1698924430.306,16,0.7000000000000001,-0.1,-1.1,0.9,9.4,0.30000000000000004,-27.7,-18.8,-16.6
1698924430.322,16,0.4,0.8,-1.1,0.5,10.3,0.4,-44.00000000000001,-13.4,-16.1
1698924430.339,16,0.4,1.6,-1.1,0.5,11.0,0.7000000000000001,-53.7,-8.1,-12.100000000000001
1698924430.355,16,0.6000000000000001,1.5,-1.2000000000000002,0.6000000000000001,11.0,0.6000000000000001,-55.4,-7.699999999999999,-9.9
1698924430.372,16,1.0,0.8,-1.0,1.0,10.200000000000001,1.0,-53.1,-13.5,-6.1000000000000005
1698924430.388,16,1.1,-0.2,-1.1,1.1,9.200000000000001,1.0,-42.300000000000004,-13.5,-0.7
1698924430.405,16,1.1,-0.5,-1.3,1.2000000000000002,8.9,0.9,-37.6,-9.9,1.8
1698924430.422,16,0.9,-0.6000000000000001,-1.4000000000000001,1.0,8.8,0.9,-29.1,-3.9,4.7
1698924430.439,16,0.8,-0.30000000000000004,-1.1,0.9,9.0,1.2000000000000002,-16.6,-7.6,4.800000000000001
1698924430.456,16,0.7000000000000001,-0.30000000000000004,-1.1,0.9,9.0,1.3,-9.0,-8.9,4.5
1698924430.472,16,0.6000000000000001,-0.30000000000000004,-1.3,0.8,9.0,1.0,3.1,-4.7,4.0
1698924430.489,16,0.7000000000000001,-0.5,-1.3,0.9,8.9,1.0,8.5,3.2,2.0
1698924430.505,16,0.7000000000000001,-0.4,-1.2000000000000002,0.9,8.9,1.1,10.3,5.7,0.7
1698924430.524,16,0.9,-0.2,-1.1,1.1,9.1,1.2000000000000002,13.700000000000001,8.0,-2.4000000000000004
1698924430.54,16,0.9,-0.1,-1.1,1.1,9.200000000000001,1.1,14.600000000000001,9.3,-2.7
1698924430.556,16,0.7000000000000001,0.0,-1.2000000000000002,0.9,9.3,0.9,11.3,15.100000000000001,-2.5
1698924430.572,16,0.5,0.0,-1.1,0.6000000000000001,9.3,1.0,4.300000000000001,20.6,-4.1000000000000005
1698924430.589,16,0.4,0.0,-1.2000000000000002,0.5,9.3,1.0,-2.7,22.3,-8.1
1698924430.606,16,0.30000000000000004,0.0,-1.2000000000000002,0.4,9.3,1.0,-6.5,21.400000000000002,-9.700000000000001
1698924430.626,16,0.30000000000000004,-0.1,-1.3,0.4,9.200000000000001,0.9,-14.900000000000002,16.400000000000002,-9.5
1698924430.638,16,0.2,-0.1,-1.3,0.30000000000000004,9.3,0.9,-23.8,13.0,-5.500000000000001
1698924430.655,16,0.2,0.1,-1.2000000000000002,0.2,9.4,1.0,-26.8,11.8,-3.8
1698924430.672,16,0.2,0.2,-1.4000000000000001,0.2,9.5,0.9,-28.900000000000002,7.400000000000001,-2.7
1698924430.689,16,0.4,0.2,-1.5,0.30000000000000004,9.5,1.0,-28.8,3.7000000000000006,-2.6
1698924430.705,16,0.4,0.2,-1.5,0.4,9.4,1.0,-28.200000000000003,3.8,-2.5
1698924430.722,16,0.7000000000000001,0.30000000000000004,-1.5,0.7000000000000001,9.5,1.0,-25.8,5.9,-2.8
1698924430.738,16,0.8,0.30000000000000004,-1.6,0.8,9.5,0.9,-23.2,7.8,-2.7
1698924430.756,16,0.9,0.30000000000000004,-1.6,0.9,9.600000000000001,1.0,-21.700000000000003,10.2,-1.6
1698924430.772,16,1.1,0.30000000000000004,-1.5,1.0,9.5,1.1,-17.0,13.0,2.0
1698924430.79,16,1.0,0.0,-1.4000000000000001,1.0,9.200000000000001,1.2000000000000002,-8.600000000000001,9.8,8.700000000000001
1698924430.805,16,0.9,-0.2,-1.4000000000000001,0.9,9.0,1.3,-4.1000000000000005,7.6,11.700000000000001
1698924430.822,16,0.9,-0.5,-1.1,0.9,8.700000000000001,1.5,5.4,7.8,13.5
1698924430.839,16,0.7000000000000001,-0.30000000000000004,-0.9,0.8,8.9,1.7000000000000002,16.5,14.3,10.600000000000001
1698924430.856,16,0.7000000000000001,0.0,-0.8,0.8,9.200000000000001,1.8,22.000000000000004,17.0,9.0
1698924430.874,16,0.30000000000000004,1.2000000000000002,0.2,0.4,10.5,2.6,35.4,14.700000000000001,9.5
1698924430.889,16,-0.6000000000000001,3.6,1.4000000000000001,-0.4,12.9,3.7,60.599999999999994,-10.0,22.5
1698924430.907,16,-1.1,4.4,1.8,-0.9,13.8,3.9000000000000004,76.1,-30.7,32.9
1698924430.922,16,-1.6,2.8000000000000003,1.4000000000000001,-1.2000000000000002,12.200000000000001,3.3000000000000003,88.8,-44.2,44.4
1698924430.939,16,-0.7000000000000001,0.0,0.5,-0.2,9.5,2.1,62.7,-22.5,22.5
1698924430.955,16,0.2,-0.7000000000000001,0.1,1.3,8.8,1.6,39.400000000000006,-15.000000000000002,0.8
1698924430.972,16,1.0,-0.1,0.8,1.4000000000000001,9.4,2.3000000000000003,-9.5,-12.200000000000001,-36.7
1698924430.989,16,1.2000000000000002,0.5,1.3,1.5,9.9,3.0,-30.100000000000005,5.6,-38.7
1698924431.006,16,0.9,0.30000000000000004,0.9,0.9,9.3,2.5,-28.0,9.1,-20.1
1698924431.023,16,0.6000000000000001,-0.9,0.7000000000000001,0.8,8.5,2.6,-22.7,4.9,-8.0
1698924431.039,16,-0.1,-2.1,0.5,0.5,7.800000000000001,2.5,-15.6,4.5,1.6
1698924431.056,16,-0.4,-2.5,0.5,-0.2,7.0,2.4000000000000004,-1.2000000000000002,11.700000000000001,7.8
1698924431.073,16,-1.0,-2.6,1.1,-0.8,6.800000000000001,2.9000000000000004,16.900000000000002,9.200000000000001,3.0000000000000004
1698924431.089,16,-1.3,-2.4000000000000004,1.3,-1.1,7.4,3.3000000000000003,39.00000000000001,-3.0000000000000004,-0.5
1698924431.106,16,-1.2000000000000002,-1.2000000000000002,1.7000000000000002,-1.0,8.200000000000001,3.3000000000000003,53.6,-7.1000000000000005,-0.1
1698924431.122,16,-1.1,-0.9,1.7000000000000002,-0.9,8.6,3.2,55.5,-5.1,0.30000000000000004
1698924431.139,16,-0.8,-0.5,1.4000000000000001,-0.6000000000000001,9.0,2.7,45.4,0.30000000000000004,-1.0999999999999999
1698924431.156,16,-0.5,-0.1,1.1,-0.5,9.200000000000001,2.5,33.800000000000004,1.4,-2.7
1698924431.173,16,-0.4,0.0,0.9,-0.2,9.5,2.2,6.000000000000001,-3.1,-4.6000000000000005
1698924431.189,16,-0.30000000000000004,0.1,0.6000000000000001,-0.1,9.600000000000001,1.9000000000000001,-16.700000000000003,-8.700000000000001,-3.0000000000000004
1698924431.206,16,-0.4,0.1,0.5,-0.2,9.5,1.9000000000000001,-24.200000000000003,-9.200000000000001,-0.30000000000000004
1698924431.223,16,-0.7000000000000001,0.1,0.4,-0.5,9.600000000000001,1.9000000000000001,-30.9,-7.1000000000000005,7.2
1698924431.239,16,-0.9,0.30000000000000004,0.30000000000000004,-0.7000000000000001,9.700000000000001,1.9000000000000001,-27.900000000000002,-6.2,11.1
1698924431.257,16,-1.0,0.30000000000000004,0.2,-0.8,9.700000000000001,1.8,-18.900000000000002,-7.6,8.9
1698924431.274,16,-1.0,0.2,0.1,-0.8,9.700000000000001,1.8,-13.3,-8.200000000000001,6.1000000000000005
1698924431.288,16,-0.8,0.1,0.0,-0.5,9.5,1.7000000000000002,-1.7,-6.6000000000000005,-1.7
1698924431.305,16,-0.5,-0.2,0.0,-0.30000000000000004,9.200000000000001,1.6,8.1,-0.8,-10.5
1698924431.322,16,-0.30000000000000004,-0.30000000000000004,0.0,-0.1,9.1,1.6,12.6,1.5000000000000002,-13.4
1698924431.339,16,-0.2,-0.4,0.0,0.0,9.0,1.6,19.1,2.9,-13.9
1698924431.356,16,-0.1,-0.4,0.0,0.0,9.1,1.5,21.6,4.3999999999999995,-9.3
1698924431.372,16,-0.1,-0.30000000000000004,0.0,0.0,9.1,1.4000000000000001,20.900000000000002,4.3999999999999995,-6.7
1698924431.388,16,-0.4,-0.30000000000000004,-0.30000000000000004,-0.30000000000000004,9.200000000000001,1.2000000000000002,14.500000000000002,3.7000000000000006,-2.6
1698924431.405,16,-0.6000000000000001,-0.30000000000000004,-0.5,-0.5,9.200000000000001,0.9,1.4,2.7,0.0
1698924431.422,16,-0.6000000000000001,-0.30000000000000004,-0.5,-0.5,9.200000000000001,0.9,-5.9,1.3,0.7
1698924431.439,16,-0.5,-0.30000000000000004,-0.5,-0.4,9.1,0.9,-19.1,-0.5,1.0999999999999999
1698924431.455,16,-0.30000000000000004,-0.4,-0.7000000000000001,-0.2,9.1,0.9,-27.900000000000002,-1.9,1.0999999999999999
1698924431.472,16,-0.2,-0.4,-0.8,-0.1,9.0,0.8,-31.099999999999998,-2.1,1.7
1698924431.489,16,0.0,-0.7000000000000001,-1.0,0.1,8.700000000000001,0.7000000000000001,-34.7,-5.8,3.3000000000000003
1698924431.507,16,0.0,-1.0,-1.2000000000000002,0.1,8.4,0.6000000000000001,-36.6,-11.8,6.2
1698924431.523,16,-0.1,-1.1,-1.1,0.0,8.200000000000001,0.7000000000000001,-36.7,-13.5,8.3
1698924431.539,16,-0.4,-1.1,-1.0,-0.2,8.200000000000001,0.9,-34.1,-14.0,12.4
1698924431.556,16,-0.5,-0.6000000000000001,-1.1,-0.30000000000000004,8.700000000000001,1.0,-26.8,-14.200000000000001,13.6
1698924431.572,16,-0.5,-0.1,-1.2000000000000002,-0.30000000000000004,8.9,0.9,-19.3,-14.800000000000002,11.6
1698924431.588,16,-0.4,0.2,-1.2000000000000002,-0.1,9.4,0.9,-16.2,-13.4,9.9
1698924431.607,16,0.2,0.4,-1.0,0.5,9.700000000000001,1.2000000000000002,-9.200000000000001,-6.5,5.0
1698924431.622,16,0.9,0.30000000000000004,-0.7000000000000001,1.2000000000000002,9.5,1.4000000000000001,2.1,-2.7,0.8
1698924431.639,16,0.9,0.2,-0.8,1.3,9.4,1.3,7.699999999999999,-0.9,0.0
1698924431.655,16,0.6000000000000001,0.30000000000000004,-1.2000000000000002,1.0,9.600000000000001,0.9,13.6,7.1000000000000005,3.4
1698924431.672,16,0.30000000000000004,0.8,-1.3,0.8,9.8,0.7000000000000001,13.3,8.5,5.7
1698924431.689,16,0.0,0.9,-1.2000000000000002,0.4,10.200000000000001,0.8,9.0,3.4,8.9
1698924431.705,16,-0.6000000000000001,1.0,-1.1,-0.2,10.3,0.8,2.3000000000000003,0.1,9.8
1698924431.722,16,-0.7000000000000001,1.2000000000000002,-0.8,-0.30000000000000004,10.5,1.2000000000000002,-0.9,1.8,8.3
1698924431.739,16,-0.6000000000000001,1.4000000000000001,-0.6000000000000001,-0.2,10.8,1.4000000000000001,-0.30000000000000004,9.5,-2.5
1698924431.755,16,-0.5,1.3,-1.3,-0.1,10.700000000000001,0.6000000000000001,-3.6,14.500000000000002,-13.700000000000001
1698924431.772,16,-0.1,1.4000000000000001,-0.8,0.0,10.700000000000001,0.9,-7.300000000000001,15.100000000000001,-17.599999999999998
1698924431.79,16,0.0,1.5,-0.7000000000000001,0.30000000000000004,10.9,1.3,-8.0,22.1,-23.700000000000003
1698924431.805,16,0.30000000000000004,1.8,-0.7000000000000001,0.4,11.100000000000001,1.3,-5.1,25.0,-20.6
1698924431.823,16,0.1,2.1,-0.30000000000000004,0.4,11.3,1.5,-2.8,24.5,-15.9
1698924431.839,16,0.0,2.2,0.0,0.0,11.600000000000001,2.1,5.0,27.7,-5.7
1698924431.855,16,-0.1,2.5,1.0,-0.1,12.0,2.9000000000000004,21.5,28.6,-0.8
1698924431.874,16,-0.30000000000000004,2.1,1.0,-0.30000000000000004,11.600000000000001,2.8000000000000003,43.1,23.1,-4.1000000000000005
1698924431.889,16,-0.30000000000000004,1.4000000000000001,0.7000000000000001,-0.30000000000000004,10.9,2.5,48.300000000000004,18.400000000000002,-5.300000000000001
1698924431.906,16,-0.7000000000000001,-0.2,1.0,-0.7000000000000001,9.3,2.6,47.800000000000004,10.9,-5.1
1698924431.922,16,-0.8,-1.4000000000000001,1.1,-0.8,8.200000000000001,2.6,39.1,11.1,-3.6
1698924431.939,16,-0.8,-1.7000000000000002,1.2000000000000002,-0.9,7.800000000000001,2.6,32.6,10.4,-3.1
1698924431.955,16,-1.1,-2.1,1.1,-1.2000000000000002,7.4,2.5,17.400000000000002,9.200000000000001,-3.9
1698924431.972,16,-1.1,-2.1,1.4000000000000001,-1.2000000000000002,7.4,2.8000000000000003,4.300000000000001,4.300000000000001,-6.6000000000000005
1698924431.989,16,-0.9,-1.9000000000000001,1.6,-1.1,7.6000000000000005,3.0,0.7,2.4000000000000004,-8.600000000000001
1698924432.006,16,-0.30000000000000004,-1.5,1.9000000000000001,-0.5,8.0,3.3000000000000003,0.4,-3.7000000000000006,-12.5
1698924432.022,16,0.2,-1.0,1.9000000000000001,0.0,8.4,3.2,6.2,-7.2,-13.6
1698924432.04,16,0.30000000000000004,-1.0,1.6,0.1,8.5,3.0,8.700000000000001,-7.400000000000001,-12.700000000000001
1698924432.056,16,0.5,-1.0,1.2000000000000002,0.2,8.4,2.6,9.1,-9.1,-7.8
1698924432.072,16,0.5,-1.0,1.3,0.2,8.4,2.6,7.500000000000001,-9.8,-4.7
1698924432.089,16,0.5,-0.7000000000000001,1.4000000000000001,0.2,8.700000000000001,2.7,5.7,-10.1,1.0999999999999999
1698924432.106,16,0.30000000000000004,0.1,1.5,0.0,9.5,2.8000000000000003,7.0,-11.700000000000001,3.4
1698924432.123,16,0.30000000000000004,0.7000000000000001,1.2000000000000002,0.1,10.200000000000001,2.5,6.9,-8.3,0.6000000000000001
1698924432.138,16,0.30000000000000004,0.7000000000000001,1.0,0.1,10.100000000000001,2.4000000000000004,5.2,-7.300000000000001,-1.2000000000000002
1698924432.156,16,0.4,0.0,0.9,0.2,9.5,2.2,-0.6000000000000001,-6.5,-1.6
1698924432.172,16,0.6000000000000001,-0.4,0.9,0.30000000000000004,9.1,2.2,-4.3999999999999995,-5.9,0.9
1698924432.189,16,0.6000000000000001,-0.4,0.8,0.30000000000000004,9.1,2.2,-5.0,-5.7,2.1999999999999997
1698924432.206,16,0.4,-0.30000000000000004,0.7000000000000001,0.2,9.1,2.1,-5.300000000000001,-6.5,3.7000000000000006
1698924432.222,16,0.30000000000000004,-0.4,0.7000000000000001,0.1,9.1,2.1,-5.1,-5.9,4.3999999999999995
1698924432.238,16,0.4,-0.6000000000000001,0.6000000000000001,0.2,8.9,2.0,-4.7,-3.5,5.500000000000001
1698924432.256,16,0.4,-0.7000000000000001,0.5,0.30000000000000004,8.700000000000001,1.9000000000000001,-4.5,-2.1999999999999997,5.1
1698924432.272,16,0.4,-0.7000000000000001,0.2,0.30000000000000004,8.8,1.6,-6.2,-0.6000000000000001,4.6000000000000005
1698924432.289,16,0.4,-0.6000000000000001,0.1,0.30000000000000004,8.8,1.6,-8.200000000000001,0.6000000000000001,4.9
1698924432.306,16,0.4,-0.6000000000000001,-0.1,0.30000000000000004,8.8,1.4000000000000001,-12.5,2.1,5.2
1698924432.322,16,0.30000000000000004,-0.7000000000000001,-0.2,0.2,8.700000000000001,1.3,-14.500000000000002,1.8,5.300000000000001
1698924432.338,16,0.2,-0.6000000000000001,-0.4,0.2,8.700000000000001,1.3,-16.6,0.1,5.2
1698924432.356,16,0.1,-0.5,-0.5,0.1,8.9,1.2000000000000002,-16.5,-1.2000000000000002,4.800000000000001
1698924432.372,16,0.2,-0.4,-0.8,0.2,9.0,0.9,-16.6,-0.8,3.3000000000000003
1698924432.388,16,0.2,-0.5,-1.0,0.1,8.9,0.7000000000000001,-18.3,1.3,-0.2
1698924432.405,16,0.1,-0.6000000000000001,-1.1,0.1,8.8,0.7000000000000001,-19.0,3.9,-1.7
1698924432.422,16,0.2,-0.7000000000000001,-1.2000000000000002,0.2,8.6,0.6000000000000001,-19.9,8.1,-3.9
1698924432.439,16,0.30000000000000004,-0.8,-1.2000000000000002,0.2,8.5,0.6000000000000001,-19.700000000000003,8.700000000000001,-4.9
1698924432.456,16,0.4,-0.7000000000000001,-1.2000000000000002,0.30000000000000004,8.6,0.7000000000000001,-17.400000000000002,9.200000000000001,-7.500000000000001
1698924432.472,16,0.4,-0.5,-1.2000000000000002,0.30000000000000004,8.8,0.8,-13.100000000000001,10.1,-10.0
1698924432.491,16,0.30000000000000004,0.0,-1.1,0.1,9.3,0.8,-7.9,10.2,-11.3
1698924432.505,16,0.2,0.2,-1.0,0.1,9.5,0.9,-5.1,11.1,-11.700000000000001
1698924432.522,16,0.2,0.4,-0.9,-0.1,9.600000000000001,1.0,1.0999999999999999,10.700000000000001,-11.3
1698924432.54,16,0.1,0.4,-0.8,-0.1,9.700000000000001,1.1,4.7,8.1,-9.9
1698924432.555,16,0.0,0.4,-0.6000000000000001,-0.30000000000000004,9.700000000000001,1.2000000000000002,12.5,0.0,-4.9
1698924432.572,16,0.1,0.5,-0.8,-0.2,9.8,1.0,17.5,-2.8,-2.1999999999999997
1698924432.588,16,0.30000000000000004,0.5,-1.2000000000000002,0.0,9.8,0.5,13.6,-3.8,-4.7
1698924432.605,16,0.4,0.5,-1.3,0.1,9.9,0.5,8.799999999999999,-5.4,-5.300000000000001
1698924432.622,16,0.8,0.4,-1.2000000000000002,0.5,9.700000000000001,0.5,-2.5,-9.200000000000001,-4.6000000000000005
1698924432.639,16,0.9,0.30000000000000004,-1.3,0.6000000000000001,9.700000000000001,0.5,-8.4,-7.6,-3.6
1698924432.656,16,0.5,1.0,-0.7000000000000001,0.2,10.3,1.1,-18.2,-1.3,1.5000000000000002
1698924432.672,16,0.0,2.3000000000000003,-0.1,-0.2,11.600000000000001,1.7000000000000002,-13.200000000000001,-2.8,17.7
1698924432.689,16,0.2,2.4000000000000004,-0.4,0.0,11.8,1.5,-7.0,-12.000000000000002,26.6
1698924432.705,16,0.30000000000000004,1.5,0.1,0.2,11.200000000000001,1.6,0.6000000000000001,-31.2,29.400000000000002
1698924432.722,16,0.5,1.3,0.1,0.5,10.700000000000001,1.9000000000000001,8.200000000000001,-28.6,18.2
1698924432.74,16,0.30000000000000004,1.3,-0.4,0.5,10.600000000000001,1.6,10.8,-24.200000000000003,10.600000000000001
1698924432.755,16,0.2,1.4000000000000001,-0.4,0.30000000000000004,10.8,1.4000000000000001,8.600000000000001,-17.0,2.5
1698924432.773,16,0.4,1.8,0.2,0.5,11.200000000000001,2.0,6.6000000000000005,-18.7,2.8
1698924432.789,16,0.30000000000000004,1.8,0.9,0.4,11.200000000000001,2.6,13.4,-27.1,8.5
1698924432.806,16,-0.1,1.2000000000000002,0.9,0.2,11.100000000000001,2.7,18.3,-27.6,11.6
1698924432.822,16,-0.30000000000000004,0.6000000000000001,0.7000000000000001,-0.1,10.100000000000001,2.3000000000000003,23.8,-24.400000000000002,10.2
1698924432.839,16,-0.2,0.0,0.5,0.0,9.5,2.1,20.1,-19.700000000000003,0.8
1698924432.855,16,0.30000000000000004,-0.7000000000000001,0.6000000000000001,0.5,8.8,2.1,16.3,-19.500000000000004,-5.7
1698924432.872,16,0.4,-0.6000000000000001,1.1,0.7000000000000001,8.8,2.6,11.2,-21.900000000000002,-10.700000000000001
1698924432.888,16,0.2,-0.9,0.9,0.5,8.700000000000001,2.5,7.6,-11.8,-4.3999999999999995
1698924432.905,16,0.0,-1.0,1.0,0.2,8.5,2.5,5.4,-10.0,-1.9
1698924432.922,16,-0.4,-1.2000000000000002,1.6,-0.2,8.3,3.0,6.1000000000000005,-7.0,-1.9
1698924432.938,16,-0.5,-1.1,2.1,-0.30000000000000004,8.4,3.5,14.0,-2.3000000000000003,-3.0000000000000004
1698924432.956,16,-0.6000000000000001,-1.0,2.2,-0.4,8.5,3.6,19.1,-1.0,-2.7
1698924432.972,16,-0.6000000000000001,-0.9,2.2,-0.5,8.6,3.6,27.3,0.6000000000000001,-0.5
1698924432.989,16,-0.5,-1.1,2.1,-0.4,8.3,3.4000000000000004,28.1,-0.4,-0.2
1698924433.005,16,-0.5,-1.1,2.2,-0.4,8.3,3.4000000000000004,25.900000000000002,-0.1,-0.8
1698924433.022,16,-0.5,-1.0,2.0,-0.30000000000000004,8.5,3.2,16.0,1.0999999999999999,-2.5
1698924433.039,16,-0.2,-0.7000000000000001,1.8,-0.2,8.6,3.0,8.3,0.0,-2.8
1698924433.055,16,-0.2,-0.6000000000000001,1.8,0.0,8.9,3.0,-8.3,-3.9,-2.1
1698924433.074,16,0.0,-0.5,1.3,0.1,9.0,2.6,-19.1,-4.2,-0.5
1698924433.089,16,0.0,-0.5,1.1,0.1,9.0,2.4000000000000004,-23.2,-3.4,0.9
1698924433.105,16,-0.30000000000000004,-0.5,0.8,0.0,8.9,2.4000000000000004,-26.500000000000004,0.9,4.9
1698924433.123,16,-0.30000000000000004,-0.30000000000000004,0.8,-0.2,9.1,2.3000000000000003,-24.5,1.3,4.9
1698924433.138,16,-0.30000000000000004,-0.2,0.8,-0.2,9.200000000000001,2.3000000000000003,-16.400000000000002,1.5000000000000002,2.5
1698924433.155,16,-0.30000000000000004,-0.2,0.7000000000000001,-0.1,9.200000000000001,2.3000000000000003,-11.5,2.9,0.30000000000000004
1698924433.172,16,-0.30000000000000004,-0.4,0.4,-0.1,9.1,2.0,-2.3000000000000003,8.799999999999999,-4.0
1698924433.188,16,-0.1,-0.4,0.30000000000000004,0.0,9.0,1.9000000000000001,3.9,14.200000000000001,-5.9
1698924433.205,16,0.1,-0.4,0.1,0.2,9.0,1.7000000000000002,7.6,14.0,-5.500000000000001
1698924433.223,16,0.1,-0.4,0.1,0.2,9.0,1.7000000000000002,8.600000000000001,11.000000000000002,-4.0
1698924433.238,16,-0.2,-0.4,0.1,-0.1,9.0,1.7000000000000002,8.5,8.200000000000001,0.9
1698924433.255,16,-0.5,-0.30000000000000004,0.1,-0.5,9.1,1.6,7.2,12.000000000000002,2.6
1698924433.272,16,-0.6000000000000001,-0.2,0.1,-0.6000000000000001,9.200000000000001,1.6,6.3,12.3,1.7
1698924433.289,16,-0.8,-0.1,-0.1,-0.7000000000000001,9.3,1.5,3.8,8.0,-0.2
1698924433.305,16,-0.8,-0.2,-0.1,-0.7000000000000001,9.200000000000001,1.4000000000000001,2.5,5.1,0.30000000000000004
1698924433.322,16,-0.5,-0.30000000000000004,-0.2,-0.4,9.1,1.4000000000000001,-0.1,2.1,2.4000000000000004
1698924433.339,16,-0.30000000000000004,-0.5,-0.30000000000000004,-0.2,8.9,1.2000000000000002,-2.5,3.8,2.9
1698924433.355,16,-0.30000000000000004,-0.5,-0.5,-0.2,8.9,1.1,-5.300000000000001,4.0,4.1000000000000005
1698924433.372,16,-0.4,-0.4,-0.5,-0.30000000000000004,9.0,1.0,-6.7,1.8,5.1
1698924433.389,16,-0.6000000000000001,-0.4,-0.4,-0.5,9.0,1.1,-8.600000000000001,-4.5,8.0
1698924433.405,16,-0.7000000000000001,-0.4,-0.30000000000000004,-0.5,9.0,1.3,-7.2,-8.5,9.4
1698924433.422,16,-0.7000000000000001,-0.4,-0.30000000000000004,-0.5,9.0,1.3,-5.6,-8.799999999999999,9.0
1698924433.439,16,-0.7000000000000001,-0.5,-0.5,-0.5,8.9,1.0,-3.7000000000000006,-9.4,7.699999999999999
1698924433.456,16,-0.6000000000000001,-0.4,-0.6000000000000001,-0.4,8.9,1.0,-3.6,-10.4,6.8
1698924433.473,16,-0.5,-0.4,-0.5,-0.30000000000000004,9.0,1.1,-3.3000000000000003,-12.200000000000001,5.300000000000001
1698924433.489,16,-0.30000000000000004,-0.30000000000000004,-0.5,-0.1,9.0,1.0,-3.2,-11.2,4.1000000000000005
1698924433.506,16,-0.1,-0.2,-0.5,0.1,9.1,1.1,-3.4,-10.4,3.4
1698924433.522,16,0.4,0.0,-0.4,0.6000000000000001,9.3,1.2000000000000002,-2.6,-7.8,0.9
1698924433.538,16,0.4,0.2,-0.5,0.6000000000000001,9.5,1.1,-1.8,-3.2,-0.4
1698924433.555,16,0.2,0.6000000000000001,-0.7000000000000001,0.4,9.9,0.9,-4.0,-0.7,2.6
1698924433.572,16,0.0,0.8,-0.8,0.30000000000000004,10.100000000000001,0.8,-5.9,-2.3000000000000003,4.3999999999999995
1698924433.588,16,-0.2,0.8,-0.9,0.0,10.100000000000001,0.7000000000000001,-11.1,-4.9,5.4
1698924433.606,16,-0.4,0.8,-1.0,-0.1,10.100000000000001,0.7000000000000001,-14.4,-4.2,4.2
1698924433.622,16,-0.6000000000000001,0.8,-1.1,-0.30000000000000004,10.100000000000001,0.6000000000000001,-24.000000000000004,-1.3,-1.5000000000000002
1698924433.639,16,-0.7000000000000001,0.8,-1.2000000000000002,-0.4,10.100000000000001,0.6000000000000001,-26.200000000000003,-2.1,-3.0000000000000004
1698924433.656,16,-0.6000000000000001,0.6000000000000001,-1.3,-0.4,9.8,0.5,-29.1,-6.000000000000001,-4.3999999999999995
1698924433.672,16,-0.4,0.30000000000000004,-1.4000000000000001,-0.2,9.600000000000001,0.4,-30.000000000000004,-8.4,-4.9
1698924433.689,16,0.0,0.0,-1.6,0.2,9.200000000000001,0.30000000000000004,-33.0,-12.3,-5.9
1698924433.705,16,0.1,0.5,-1.1,0.30000000000000004,9.8,1.0,-34.0,-11.5,-5.0
1698924433.725,16,0.2,1.1,-0.5,0.4,10.3,1.6,-29.400000000000002,-8.200000000000001,-6.1000000000000005
1698924433.739,16,0.0,1.3,-0.7000000000000001,0.2,10.600000000000001,1.4000000000000001,-10.9,2.1999999999999997,-10.700000000000001
1698924433.755,16,-0.2,0.5,-1.6,-0.1,9.700000000000001,0.6000000000000001,-3.1,2.1,-9.9
1698924433.772,16,-0.4,0.30000000000000004,-1.1,-0.30000000000000004,9.5,1.0,-2.5,-0.9,-7.8
1698924433.79,16,-0.1,0.5,-0.4,0.0,9.8,1.7000000000000002,7.0,6.7,-5.6
1698924433.805,16,0.0,0.6000000000000001,-1.2000000000000002,0.1,9.9,0.9,14.0,15.9,-7.400000000000001
1698924433.822,16,-0.1,0.6000000000000001,-1.4000000000000001,-0.1,9.9,0.7000000000000001,13.3,14.0,-7.1000000000000005
1698924433.839,16,0.0,0.5,-0.7000000000000001,0.0,9.8,1.3,10.700000000000001,7.400000000000001,-4.7
1698924433.855,16,0.1,0.8,0.1,0.1,10.100000000000001,2.0,17.599999999999998,14.600000000000001,-6.000000000000001
1698924433.872,16,-0.1,2.0,0.9,0.0,10.5,2.2,23.6,19.700000000000003,-7.699999999999999
1698924433.888,16,0.0,3.2,1.7000000000000002,-0.1,12.600000000000001,3.5,43.6,21.5,-12.700000000000001
1698924433.905,16,0.30000000000000004,4.0,1.4000000000000001,0.1,13.4,3.0,73.30000000000001,21.900000000000002,-23.900000000000002
1698924433.922,16,-0.1,1.2000000000000002,0.6000000000000001,-0.30000000000000004,10.700000000000001,1.9000000000000001,76.80000000000001,-2.4000000000000004,-20.3
1698924433.939,16,-0.5,-0.30000000000000004,1.0,-0.8,9.200000000000001,2.2,69.3,-11.000000000000002,-11.8
1698924433.955,16,-0.7000000000000001,-1.9000000000000001,1.3,-1.0,7.6000000000000005,2.4000000000000004,45.1,13.3,4.3999999999999995
1698924433.973,16,-0.8,-2.0,0.9,-1.0,7.5,1.9000000000000001,30.599999999999998,21.1,6.5
1698924433.989,16,-0.7000000000000001,-1.9000000000000001,0.7000000000000001,-0.9,7.6000000000000005,1.7000000000000002,1.0999999999999999,-2.6,0.5
1698924434.006,16,-0.4,-1.7000000000000002,1.7000000000000002,-0.7000000000000001,7.800000000000001,2.8000000000000003,-19.700000000000003,-23.900000000000002,-9.0
1698924434.022,16,-0.1,-1.5,2.4000000000000004,-0.4,8.0,3.6,-21.400000000000002,-25.3,-12.6
1698924434.039,16,0.2,-1.2000000000000002,2.3000000000000003,-0.2,8.3,3.5,-17.200000000000003,-21.1,-13.3
1698924434.055,16,0.5,-0.6000000000000001,1.7000000000000002,0.2,8.9,3.0,-8.799999999999999,-13.5,-17.3
1698924434.072,16,0.7000000000000001,-0.5,1.6,0.30000000000000004,8.9,2.9000000000000004,-3.9,-9.600000000000001,-18.400000000000002
1698924434.089,16,1.3,-0.7000000000000001,1.5,0.8,8.700000000000001,2.8000000000000003,-1.8,-9.200000000000001,-16.2
1698924434.105,16,1.5,-0.5,1.6,1.0,8.9,2.9000000000000004,3.3000000000000003,-13.5,-6.9
1698924434.122,16,0.9,0.0,1.3,0.5,9.4,2.7,4.7,-16.3,4.800000000000001
1698924434.139,16,0.5,0.2,1.2000000000000002,0.1,9.700000000000001,2.5,2.4000000000000004,-10.9,7.9
1698924434.156,16,0.30000000000000004,0.2,0.8,-0.1,9.600000000000001,2.2,-5.7,-4.0,3.0000000000000004
1698924434.172,16,0.5,-0.2,0.9,0.1,9.200000000000001,2.3000000000000003,-11.9,-4.300000000000001,-3.0000000000000004
1698924434.189,16,0.5,-0.2,0.8,0.2,9.200000000000001,2.2,-13.8,-3.3000000000000003,-3.8
1698924434.206,16,0.7000000000000001,-0.30000000000000004,0.5,0.30000000000000004,9.1,1.9000000000000001,-17.200000000000003,0.7,-4.0
1698924434.222,16,0.7000000000000001,-0.5,0.5,0.30000000000000004,8.9,2.0,-18.0,1.0999999999999999,-1.3
1698924434.239,16,0.7000000000000001,-0.6000000000000001,0.4,0.30000000000000004,8.8,2.0,-16.900000000000002,0.5,1.7
1698924434.255,16,0.6000000000000001,-0.5,0.5,0.2,8.9,2.1,-14.0,-2.3000000000000003,8.0
1698924434.272,16,0.4,-0.2,0.6000000000000001,0.0,9.200000000000001,2.3000000000000003,-9.600000000000001,-1.6,8.4
1698924434.289,16,0.4,0.0,0.5,0.1,9.4,2.2,-7.500000000000001,0.5,5.6
1698924434.305,16,0.6000000000000001,0.1,0.1,0.30000000000000004,9.4,1.8,-7.699999999999999,3.4,-2.0
1698924434.322,16,0.7000000000000001,-0.1,-0.2,0.4,9.4,1.6,-14.800000000000002,6.7,-4.300000000000001
1698924434.339,16,0.8,-0.30000000000000004,-0.30000000000000004,0.4,9.1,1.4000000000000001,-19.0,8.600000000000001,-3.7000000000000006
1698924434.356,16,0.6000000000000001,-0.5,-0.5,0.30000000000000004,8.8,1.3,-25.400000000000002,8.3,0.5
1698924434.372,16,0.2,-0.5,-0.8,-0.1,8.700000000000001,1.1,-29.500000000000004,10.600000000000001,5.6
1698924434.388,16,0.1,-0.4,-0.9,-0.2,8.9,1.1,-31.3,11.000000000000002,6.1000000000000005
1698924434.407,16,0.1,-0.2,-0.9,-0.2,9.0,1.1,-30.5,9.5,5.0
1698924434.422,16,0.2,-0.1,-0.9,-0.2,9.1,1.2000000000000002,-28.500000000000004,8.200000000000001,3.1
1698924434.439,16,0.2,-0.2,-1.0,-0.1,9.1,1.2000000000000002,-22.5,10.9,-2.0
1698924434.455,16,0.6000000000000001,-0.4,-1.0,0.2,8.8,1.2000000000000002,-15.2,18.3,-8.1
1698924434.472,16,0.8,-0.6000000000000001,-1.1,0.4,8.6,1.1,-7.400000000000001,27.5,-11.700000000000001
1698924434.489,16,0.7000000000000001,-0.7000000000000001,-1.4000000000000001,0.30000000000000004,8.5,0.8,-3.1,35.7,-10.1
1698924434.505,16,0.8,-0.6000000000000001,-1.4000000000000001,0.30000000000000004,8.5,0.8,-2.4000000000000004,38.0,-8.0
1698924434.521,16,0.7000000000000001,-0.4,-1.3,0.2,8.700000000000001,0.9,0.2,38.6,-3.5
1698924434.538,16,0.4,-0.2,-1.2000000000000002,-0.1,9.0,0.9,4.9,34.300000000000004,-0.2
1698924434.556,16,0.30000000000000004,0.0,-1.2000000000000002,-0.30000000000000004,9.1,0.9,7.300000000000001,31.6,1.0999999999999999
1698924434.572,16,0.1,0.30000000000000004,-1.1,-0.5,9.5,1.0,10.700000000000001,27.3,2.5
1698924434.588,16,0.2,0.4,-1.1,-0.30000000000000004,9.600000000000001,1.0,13.8,26.500000000000004,1.2000000000000002
1698924434.605,16,0.4,0.4,-1.2000000000000002,-0.2,9.600000000000001,0.8,14.100000000000001,26.700000000000003,-0.9
1698924434.622,16,0.8,0.30000000000000004,-1.3,0.2,9.5,0.7000000000000001,10.5,29.300000000000004,-5.300000000000001
1698924434.639,16,0.9,0.6000000000000001,-1.0,0.30000000000000004,9.600000000000001,0.8,4.9,34.6,-6.000000000000001
1698924434.656,16,0.7000000000000001,1.1,-0.6000000000000001,0.1,10.3,1.3,3.6,37.4,-2.9
1698924434.672,16,0.5,1.6,-0.30000000000000004,-0.1,10.8,1.6,7.6,30.599999999999998,13.6
1698924434.688,16,-0.4,1.0,0.1,-1.0,10.3,1.9000000000000001,13.200000000000001,12.000000000000002,33.900000000000006
1698924434.705,16,-0.7000000000000001,1.1,0.7000000000000001,-1.2000000000000002,10.3,2.5,16.0,14.800000000000002,41.800000000000004
1698924434.722,16,-1.1,1.9000000000000001,1.1,-1.5,11.200000000000001,2.8000000000000003,28.0,22.6,44.8
1698924434.738,16,-1.1,2.7,1.2000000000000002,-1.5,11.700000000000001,2.8000000000000003,37.900000000000006,12.6,34.800000000000004
1698924434.756,16,-0.8,2.7,1.2000000000000002,-1.1,12.0,2.8000000000000003,38.800000000000004,8.9,26.3
1698924434.772,16,0.5,1.7000000000000002,0.9,0.30000000000000004,11.100000000000001,2.3000000000000003,31.8,3.9,6.7
1698924434.789,16,1.1,0.7000000000000001,0.5,0.9,10.100000000000001,1.9000000000000001,9.700000000000001,-1.6,-4.2
1698924434.805,16,1.2000000000000002,0.5,0.2,1.0,9.9,1.6,-5.300000000000001,5.9,-2.8
1698924434.822,16,1.0,0.5,0.2,0.8,9.9,1.7000000000000002,-34.7,28.0,6.7
1698924434.838,16,0.30000000000000004,0.7000000000000001,0.8,0.2,10.200000000000001,2.5,-40.0,34.300000000000004,16.2
1698924434.855,16,0.1,0.6000000000000001,0.4,0.0,10.0,2.1,-34.50000000000001,31.0,18.2
1698924434.872,16,-0.30000000000000004,-0.1,0.2,-0.4,9.3,2.0,-23.2,18.900000000000002,17.1
1698924434.888,16,-0.4,-0.5,0.6000000000000001,-0.5,8.9,2.4000000000000004,-8.600000000000001,28.3,12.3
1698924434.905,16,-0.4,-0.5,0.7000000000000001,-0.5,8.9,2.5,0.8,36.0,9.8
1698924434.922,16,-0.2,-0.4,1.2000000000000002,-0.30000000000000004,8.9,3.0,21.8,40.6,8.0
1698924434.939,16,-0.30000000000000004,-0.5,1.7000000000000002,-0.4,8.9,3.4000000000000004,41.4,47.5,9.1
1698924434.955,16,-0.30000000000000004,-0.5,1.9000000000000001,-0.4,8.9,3.5,48.1,51.300000000000004,8.9
1698924434.972,16,-0.30000000000000004,-0.5,2.3000000000000003,-0.4,8.9,3.8000000000000003,53.400000000000006,60.1,7.2
1698924434.988,16,-0.30000000000000004,-0.6000000000000001,2.4000000000000004,-0.4,8.8,3.8000000000000003,50.5,65.89999999999999,6.000000000000001
1698924435.005,16,-0.2,-0.8,2.1,-0.4,8.6,3.4000000000000004,29.300000000000004,77.0,4.5
1698924435.022,16,0.0,-1.3,1.8,-0.1,8.200000000000001,3.1,-3.5,75.60000000000001,4.1000000000000005
1698924435.039,16,0.0,-1.5,1.6,0.0,8.0,3.1,-18.8,72.7,5.500000000000001
1698924435.055,16,-0.1,-1.3,1.5,-0.2,8.1,2.9000000000000004,-37.900000000000006,71.9,11.1
1698924435.072,16,-0.30000000000000004,-0.9,0.9,-0.4,8.5,2.5,-43.7,77.80000000000001,17.5
1698924435.091,16,-0.4,-0.5,0.7000000000000001,-0.5,8.8,2.4000000000000004,-40.4,78.00000000000001,22.7
1698924435.105,16,-0.5,-0.4,0.7000000000000001,-0.6000000000000001,8.9,2.4000000000000004,-35.1,77.7,24.9
1698924435.122,16,-0.7000000000000001,-0.30000000000000004,0.30000000000000004,-0.8,9.0,2.2,-21.900000000000002,77.1,27.0
1698924435.138,16,-0.9,-0.2,0.4,-1.0,9.1,2.4000000000000004,-8.700000000000001,80.0,25.400000000000002
1698924435.155,16,-0.9,0.0,0.5,-1.0,9.3,2.4000000000000004,-1.5000000000000002,83.30000000000001,23.8
1698924435.172,16,-0.7000000000000001,0.4,0.5,-0.7000000000000001,9.700000000000001,2.4000000000000004,10.700000000000001,86.1,19.3
1698924435.189,16,-0.5,0.1,0.30000000000000004,-0.6000000000000001,9.700000000000001,2.4000000000000004,16.1,88.9,15.8
1698924435.205,16,-0.4,-0.1,0.30000000000000004,-0.5,9.3,2.1,14.200000000000001,90.5,16.400000000000002
1698924435.222,16,-0.5,-0.30000000000000004,0.30000000000000004,-0.5,9.0,2.1,4.3999999999999995,97.00000000000001,20.0
1698924435.238,16,-0.7000000000000001,-0.4,0.1,-0.7000000000000001,9.0,1.9000000000000001,-9.4,97.8,23.2
1698924435.257,16,-1.0,-0.4,-0.1,-0.8,9.0,1.9000000000000001,-15.6,95.7,24.8
1698924435.276,16,-1.2000000000000002,-0.30000000000000004,-0.2,-1.3,9.0,1.7000000000000002,-23.400000000000002,93.1,27.400000000000002
1698924435.289,16,-1.4000000000000001,0.0,-0.1,-1.4000000000000001,9.200000000000001,1.9000000000000001,-25.5,91.2,28.3
1698924435.306,16,-1.5,0.1,0.0,-1.5,9.3,2.1,-19.500000000000004,85.9,27.6
1698924435.322,16,-1.4000000000000001,-0.1,-0.1,-1.4000000000000001,9.200000000000001,2.0,-15.299999999999999,84.3,26.9
1698924435.339,16,-1.3,-0.6000000000000001,-0.2,-1.3,8.6,1.9000000000000001,-8.700000000000001,83.8,26.8
1698924435.355,16,-1.2000000000000002,-0.7000000000000001,-0.1,-1.2000000000000002,8.5,2.0,-5.9,84.3,26.8
1698924435.372,16,-1.1,-0.5,-0.1,-1.0,8.700000000000001,2.0,-0.30000000000000004,82.9,27.400000000000002
1698924435.389,16,-1.0,-0.4,-0.2,-0.9,8.9,1.9000000000000001,1.9,78.60000000000001,27.900000000000002
1698924435.405,16,-1.0,-0.4,-0.1,-0.9,8.9,2.1,1.7,77.9,29.400000000000002
1698924435.422,16,-1.0,-0.2,-0.1,-0.9,9.0,2.0,1.9,81.5,33.6
1698924435.439,16,-1.1,-0.2,0.0,-0.9,9.0,2.1,-0.6000000000000001,81.8,32.9
1698924435.455,16,-0.9,0.0,0.4,-0.7000000000000001,9.200000000000001,2.5,1.4,82.2,32.7
1698924435.472,16,-0.7000000000000001,0.1,0.30000000000000004,-0.5,9.3,2.4000000000000004,3.5,82.2,33.2
1698924435.489,16,-0.2,-0.1,0.0,0.0,9.200000000000001,2.2,3.6,80.30000000000001,34.1
1698924435.506,16,0.0,-0.4,-0.30000000000000004,0.30000000000000004,8.8,1.9000000000000001,-2.3000000000000003,75.4,35.7
1698924435.522,16,0.0,-0.6000000000000001,-0.4,0.30000000000000004,8.700000000000001,1.7000000000000002,-7.0,75.7,36.2
1698924435.538,16,0.0,-0.2,-0.6000000000000001,0.4,9.0,1.6,-16.2,75.1,36.0
1698924435.555,16,-0.2,0.2,-0.8,0.4,9.3,1.5,-21.8,72.0,36.800000000000004
1698924435.572,16,-0.30000000000000004,0.30000000000000004,-0.7000000000000001,0.2,9.5,1.6,-22.900000000000002,72.2,38.5
1698924435.589,16,-0.5,0.5,-0.9,0.1,9.700000000000001,1.5,-19.500000000000004,75.0,40.9
1698924435.605,16,-0.4,0.5,-0.8,0.2,9.600000000000001,1.6,-16.400000000000002,75.3,39.9
1698924435.622,16,-0.30000000000000004,0.8,-0.6000000000000001,0.4,9.9,1.8,-6.000000000000001,77.60000000000001,34.1
1698924435.639,16,0.30000000000000004,1.5,-0.2,0.9,10.700000000000001,2.2,11.8,85.4,25.700000000000003
1698924435.656,16,0.8,1.9000000000000001,-0.1,1.4000000000000001,11.100000000000001,2.3000000000000003,28.500000000000004,85.3,15.8
1698924435.672,16,0.9,1.8,0.0,1.5,11.0,2.3000000000000003,35.5,87.3,12.4
1698924435.69,16,0.7000000000000001,0.8,0.0,1.3,10.100000000000001,2.2,39.8,92.50000000000001,12.4
1698924435.705,16,0.7000000000000001,0.5,0.0,1.3,9.700000000000001,2.1,37.0,98.2,14.200000000000001
1698924435.722,16,0.2,0.1,-0.5,0.8,9.4,1.6,21.8,104.2,14.200000000000001
1698924435.738,16,-0.6000000000000001,-0.1,-0.5,0.0,9.1,1.7000000000000002,-1.4,102.2,14.200000000000001
1698924435.756,16,-1.4000000000000001,-0.5,-0.2,-0.9,8.8,2.0,-17.0,92.2,19.500000000000004
1698924435.771,16,-1.8,-0.7000000000000001,-0.1,-1.3,8.5,2.1,-19.700000000000003,85.0,22.6
1698924435.789,16,-2.0,-1.2000000000000002,0.2,-1.5,8.0,2.5,-15.9,72.30000000000001,24.3
1698924435.805,16,-1.9000000000000001,-1.5,0.7000000000000001,-1.4000000000000001,7.7,3.0,-1.5000000000000002,69.9,16.700000000000003
1698924435.822,16,-1.8,-1.2000000000000002,0.8,-1.3,7.9,3.1,8.200000000000001,73.50000000000001,10.8
1698924435.838,16,-1.2000000000000002,-0.4,1.0,-0.8,8.8,3.3000000000000003,29.900000000000006,79.9,2.3000000000000003
1698924435.855,16,-0.30000000000000004,-0.1,1.3,0.1,9.200000000000001,3.4000000000000004,48.300000000000004,68.1,1.4
1698924435.871,16,0.2,-0.1,1.6,0.30000000000000004,9.200000000000001,3.6,55.5,63.0,10.5
1698924435.889,16,0.30000000000000004,-0.1,1.4000000000000001,0.7000000000000001,9.200000000000001,3.4000000000000004,52.800000000000004,67.1,14.800000000000002
1698924435.906,16,0.5,-0.30000000000000004,1.0,0.7000000000000001,9.1,3.0,45.3,69.7,16.900000000000002
1698924435.922,16,0.6000000000000001,-0.6000000000000001,1.3,0.9,8.700000000000001,3.1,9.9,73.30000000000001,13.8
1698924435.939,16,0.6000000000000001,-0.5,1.3,1.0,8.8,3.1,2.5,78.10000000000001,13.0
1698924435.955,16,0.7000000000000001,-0.4,1.1,1.1,9.0,2.9000000000000004,-3.7000000000000006,88.9,11.700000000000001
1698924435.973,16,0.9,-0.2,0.7000000000000001,1.3,9.1,2.5,-4.2,91.2,12.4
1698924435.989,16,0.8,-0.4,0.7000000000000001,1.2000000000000002,8.9,2.5,0.7,93.80000000000001,17.7
1698924436.005,16,0.6000000000000001,-0.1,0.5,1.0,9.200000000000001,2.3000000000000003,11.700000000000001,95.80000000000001,25.3
1698924436.022,16,0.5,0.2,0.4,0.9,9.5,2.2,16.900000000000002,95.60000000000001,27.2
1698924436.039,16,0.6000000000000001,0.5,0.4,1.0,9.9,2.1,24.6,102.2,26.0
1698924436.056,16,0.7000000000000001,0.6000000000000001,0.5,1.1,9.9,2.2,30.5,105.2,24.7
1698924436.073,16,0.6000000000000001,0.4,0.6000000000000001,1.0,9.8,2.2,32.800000000000004,110.9,25.5
1698924436.089,16,0.5,0.2,0.6000000000000001,1.0,9.600000000000001,2.2,31.6,113.4,25.8
1698924436.105,16,0.4,0.30000000000000004,0.6000000000000001,0.9,9.600000000000001,2.1,25.900000000000002,118.69999999999999,27.1
1698924436.122,16,0.30000000000000004,0.30000000000000004,0.5,0.8,9.700000000000001,1.9000000000000001,21.0,119.4,28.500000000000004
1698924436.138,16,0.2,0.1,0.2,0.7000000000000001,9.5,1.6,6.8,117.60000000000001,33.0
1698924436.155,16,-0.30000000000000004,0.1,0.30000000000000004,0.30000000000000004,9.5,1.8,-5.300000000000001,117.20000000000002,38.300000000000004
1698924436.172,16,-0.6000000000000001,0.2,0.0,0.1,9.600000000000001,1.6,-10.1,121.30000000000001,37.4
1698924436.188,16,-0.5,0.2,-0.1,0.2,9.5,1.5,-11.1,120.40000000000002,34.7
1698924436.205,16,-0.30000000000000004,-0.2,-0.1,0.4,9.1,1.6,-9.700000000000001,120.7,31.0
1698924436.222,16,-0.2,-0.30000000000000004,-0.2,0.5,9.0,1.5,-7.300000000000001,123.00000000000001,31.2
1698924436.239,16,-0.1,-0.30000000000000004,-0.30000000000000004,0.7000000000000001,9.0,1.4000000000000001,-1.0999999999999999,124.10000000000002,32.5
1698924436.255,16,-0.30000000000000004,-0.2,-0.2,0.5,9.1,1.5,6.7,119.1,35.4
1698924436.271,16,-0.7000000000000001,0.1,-0.30000000000000004,0.2,9.4,1.4000000000000001,14.600000000000001,119.8,36.2
1698924436.288,16,-0.8,0.1,-0.2,0.1,9.5,1.5,17.8,120.10000000000001,32.6
1698924436.305,16,-0.8,0.0,-0.2,0.1,9.4,1.5,18.7,119.89999999999999,29.900000000000006
1698924436.322,16,-0.8,0.1,-0.30000000000000004,0.1,9.4,1.4000000000000001,16.8,116.5,26.400000000000002
1698924436.338,16,-0.8,0.2,-0.30000000000000004,0.1,9.5,1.4000000000000001,14.500000000000002,113.2,25.6
1698924436.355,16,-0.7000000000000001,0.30000000000000004,-0.2,0.2,9.700000000000001,1.5,8.600000000000001,107.2,26.400000000000002
1698924436.372,16,-0.9,0.4,-0.30000000000000004,0.1,9.700000000000001,1.4000000000000001,3.2,103.3,26.8
1698924436.388,16,-0.9,0.4,-0.30000000000000004,0.0,9.700000000000001,1.4000000000000001,1.0,101.8,26.1
1698924436.406,16,-1.1,0.30000000000000004,-0.30000000000000004,-0.1,9.600000000000001,1.4000000000000001,-0.7,99.30000000000001,23.6
1698924436.422,16,-1.0,0.2,-0.30000000000000004,0.0,9.5,1.5,0.8,96.4,19.700000000000003
1698924436.439,16,-0.8,0.2,-0.2,0.1,9.5,1.5,2.5,95.80000000000001,17.7
1698924436.455,16,-0.6000000000000001,0.0,-0.5,0.2,9.4,1.3,5.0,93.60000000000001,14.3
1698924436.472,16,-0.5,-0.1,-0.4,0.4,9.3,1.3,5.6,89.10000000000001,13.9
1698924436.488,16,-0.5,0.1,0.0,0.4,9.4,1.8,9.1,80.4,16.900000000000002
1698924436.505,16,-0.7000000000000001,0.30000000000000004,-0.2,0.30000000000000004,9.5,1.7000000000000002,11.8,75.60000000000001,20.5
1698924436.522,16,-0.9,0.4,-0.2,-0.1,9.700000000000001,1.5,9.0,70.39999999999999,20.3
1698924436.538,16,-1.0,0.4,-0.1,-0.2,9.700000000000001,1.6,6.9,69.10000000000001,18.3
1698924436.556,16,-0.9,0.30000000000000004,-0.2,0.0,9.600000000000001,1.6,1.9,70.5,10.8
1698924436.572,16,-0.5,-0.2,-0.30000000000000004,0.30000000000000004,9.1,1.5,-2.1,67.5,3.6
1698924436.588,16,-0.2,-0.7000000000000001,-0.2,0.5,8.8,1.6,-4.1000000000000005,65.3,3.4
1698924436.605,16,-0.2,-0.8,-0.2,0.6000000000000001,8.5,1.6,-5.300000000000001,67.3,4.1000000000000005
1698924436.622,16,-0.2,-0.8,-0.5,0.5,8.5,1.3,-4.800000000000001,68.80000000000001,3.0000000000000004
1698924436.639,16,-0.30000000000000004,-0.7000000000000001,-0.5,0.4,8.6,1.4000000000000001,-3.6,67.80000000000001,2.0
1698924436.655,16,-0.6000000000000001,-0.2,-0.2,0.1,9.1,1.6,1.9,65.60000000000001,0.4
1698924436.672,16,-1.2000000000000002,0.6000000000000001,0.30000000000000004,-0.2,9.5,2.0,14.200000000000001,64.8,2.0
1698924436.688,16,-1.8,0.9,0.1,-0.9,10.200000000000001,2.0,26.3,60.300000000000004,5.6
1698924436.705,16,-2.0,0.7000000000000001,0.2,-1.4000000000000001,10.100000000000001,1.9000000000000001,29.200000000000003,57.699999999999996,5.9
1698924436.722,16,-2.1,0.6000000000000001,0.30000000000000004,-1.5,9.9,2.0,30.4,57.400000000000006,5.1
1698924436.738,16,-1.6,0.6000000000000001,0.5,-1.1,10.0,2.0,29.800000000000004,46.900000000000006,2.1
1698924436.756,16,-1.4000000000000001,0.6000000000000001,0.4,-0.9,10.0,1.9000000000000001,27.900000000000002,35.199999999999996,5.6
1698924436.772,16,-1.4000000000000001,0.0,0.1,-0.9,9.4,1.5,17.200000000000003,20.4,15.6
1698924436.788,16,-1.4000000000000001,-0.8,-0.1,-0.8,8.6,1.4000000000000001,2.4000000000000004,12.6,16.6
1698924436.805,16,-1.4000000000000001,-1.0,0.1,-0.8,8.3,1.6,-2.9,8.9,14.100000000000001
1698924436.822,16,-1.3,-1.0,0.1,-0.7000000000000001,8.4,1.6,-5.1,7.6,7.699999999999999
1698924436.839,16,-1.2000000000000002,-0.9,-0.1,-0.6000000000000001,8.5,1.4000000000000001,-3.0000000000000004,6.5,2.9
1698924436.856,16,-1.2000000000000002,-0.8,0.0,-0.6000000000000001,8.5,1.5,-0.9,6.7,1.6
1698924436.872,16,-1.0,-0.7000000000000001,0.0,-0.4,8.700000000000001,1.5,7.500000000000001,8.700000000000001,-0.6000000000000001
1698924436.889,16,-1.0,-0.5,-0.2,-0.4,8.8,1.2000000000000002,15.399999999999999,10.600000000000001,-0.8
1698924436.906,16,-0.9,-0.5,-0.1,-0.30000000000000004,8.9,1.3,18.400000000000002,11.4,-0.2
1698924436.922,16,-1.0,-0.1,0.4,-0.5,9.200000000000001,1.7000000000000002,26.0,12.5,2.1999999999999997
1698924436.939,16,-1.2000000000000002,0.0,0.6000000000000001,-0.6000000000000001,9.4,1.8,31.0,10.3,4.2
1698924436.955,16,-1.6,0.5,1.2000000000000002,-1.0,9.9,2.3000000000000003,41.300000000000004,2.6,6.1000000000000005
1698924436.972,16,-1.6,0.8,1.7000000000000002,-1.1,10.200000000000001,2.7,49.9,4.300000000000001,1.0
1698924436.989,16,-1.0,0.1,1.2000000000000002,-0.5,9.600000000000001,2.1,47.300000000000004,7.400000000000001,-10.2
1698924437.005,16,-0.5,-0.30000000000000004,1.1,0.0,9.1,1.9000000000000001,39.699999999999996,2.0,-13.200000000000001
1698924437.022,16,0.2,-1.0,0.9,0.6000000000000001,8.4,1.7000000000000002,17.1,0.9,-13.5
1698924437.039,16,0.5,-1.1,0.4,0.8,8.3,1.4000000000000001,-10.0,6.1000000000000005,-8.700000000000001
1698924437.056,16,0.5,-0.8,0.2,0.9,8.6,1.0,-22.4,7.300000000000001,-6.5
1698924437.072,16,0.2,-0.30000000000000004,-0.4,0.6000000000000001,9.1,0.5,-41.800000000000004,12.4,-2.4000000000000004
1698924437.089,16,0.1,0.4,-0.6000000000000001,0.5,9.8,0.5,-55.300000000000004,19.700000000000003,2.4000000000000004
1698924437.105,16,0.0,0.8,-0.4,0.4,10.200000000000001,0.8,-58.60000000000001,22.900000000000002,4.7
1698924437.122,16,0.0,1.4000000000000001,-0.1,0.4,10.8,1.3,-52.300000000000004,28.6,9.600000000000001
1698924437.139,16,-0.2,1.4000000000000001,-0.6000000000000001,0.30000000000000004,10.9,1.1,-39.50000000000001,27.3,13.4
1698924437.156,16,-0.2,1.4000000000000001,-0.7000000000000001,0.2,10.8,0.9,-34.2,23.3,14.900000000000002
1698924437.172,16,-0.4,1.3,-0.4,0.1,10.700000000000001,1.2000000000000002,-21.3,19.0,15.000000000000002
1698924437.189,16,-0.7000000000000001,1.0,-0.4,-0.2,10.3,1.3,-6.1000000000000005,21.400000000000002,10.5
1698924437.205,16,-0.8,0.7000000000000001,-0.4,-0.30000000000000004,10.100000000000001,1.3,0.9,23.6,6.5
1698924437.222,16,-0.9,0.1,-0.5,-0.5,9.4,1.1,11.4,23.6,0.6000000000000001
1698924437.239,16,-0.9,-0.4,-0.30000000000000004,-0.5,8.9,1.3,19.0,16.5,0.6000000000000001
1698924437.255,16,-1.0,-0.6000000000000001,-0.30000000000000004,-0.5,8.8,1.3,21.8,13.5,2.1999999999999997
1698924437.272,16,-1.1,-0.7000000000000001,-0.30000000000000004,-0.7000000000000001,8.700000000000001,1.2000000000000002,23.400000000000002,11.000000000000002,5.500000000000001
1698924437.289,16,-1.1,-0.6000000000000001,-0.4,-0.6000000000000001,8.8,1.0,18.8,9.3,7.500000000000001
1698924437.305,16,-1.1,-0.4,-0.4,-0.6000000000000001,9.0,1.0,14.500000000000002,8.799999999999999,8.200000000000001
1698924437.322,16,-1.1,-0.2,-0.2,-0.6000000000000001,9.200000000000001,1.2000000000000002,3.6,9.200000000000001,9.5
1698924437.339,16,-1.0,-0.1,0.2,-0.5,9.3,1.5,-6.1000000000000005,11.9,9.200000000000001
1698924437.355,16,-0.8,-0.2,0.1,-0.2,9.200000000000001,1.5,-9.5,10.4,8.600000000000001
1698924437.372,16,-0.9,-0.5,-0.2,-0.30000000000000004,8.9,1.3,-16.5,-2.7,10.2
1698924437.388,16,-1.0,-0.8,-0.2,-0.4,8.6,1.3,-24.1,-4.800000000000001,12.000000000000002
1698924437.405,16,-1.1,-0.8,-0.30000000000000004,-0.5,8.5,1.2000000000000002,-26.6,-4.1000000000000005,10.4
1698924437.422,16,-1.0,-0.6000000000000001,-0.4,-0.4,8.700000000000001,1.3,-28.1,-5.500000000000001,4.3999999999999995
1698924437.438,16,-0.9,-0.1,-0.30000000000000004,-0.30000000000000004,9.200000000000001,1.4000000000000001,-23.900000000000002,-4.2,-1.8
1698924437.455,16,-0.7000000000000001,0.1,-0.5,-0.2,9.4,1.3,-20.3,-2.1,-3.3000000000000003
1698924437.472,16,-0.6000000000000001,0.1,-0.9,0.0,9.4,0.9,-15.8,-2.6,-2.5
1698924437.488,16,-0.7000000000000001,0.1,-0.8,-0.1,9.4,1.1,-11.9,-5.6,0.9
1698924437.506,16,-0.7000000000000001,0.2,-0.7000000000000001,-0.1,9.4,1.1,-5.1,-8.9,2.6
1698924437.522,16,-0.8,0.4,-0.7000000000000001,-0.2,9.700000000000001,1.1,-1.7,-10.1,2.3000000000000003
1698924437.538,16,-1.1,0.7000000000000001,-0.8,-0.5,10.0,1.1,3.8,-11.4,0.30000000000000004
1698924437.556,16,-1.2000000000000002,0.8,-0.7000000000000001,-0.6000000000000001,10.100000000000001,1.1,6.3,-10.9,-1.3
1698924437.572,16,-1.1,1.0,-0.6000000000000001,-0.5,10.3,1.2000000000000002,11.2,-10.1,-5.300000000000001
1698924437.588,16,-0.7000000000000001,1.0,-0.6000000000000001,-0.2,10.3,1.2000000000000002,15.7,-13.5,-9.1
1698924437.606,16,-0.6000000000000001,0.8,-0.6000000000000001,0.0,10.200000000000001,1.1,16.400000000000002,-16.0,-9.600000000000001
1698924437.622,16,-0.4,0.6000000000000001,-0.4,0.1,9.9,1.3,15.000000000000002,-17.8,-6.4
1698924437.639,16,-0.5,0.6000000000000001,-0.30000000000000004,0.0,9.9,1.3,13.200000000000001,-11.8,-3.0000000000000004
1698924437.655,16,-0.6000000000000001,0.6000000000000001,-0.5,-0.1,10.0,1.1,8.200000000000001,-10.2,-4.300000000000001
1698924437.672,16,-0.6000000000000001,0.6000000000000001,-0.30000000000000004,-0.1,10.0,1.2000000000000002,4.800000000000001,-11.2,-6.6000000000000005
1698924437.688,16,-0.5,0.6000000000000001,-0.30000000000000004,-0.1,10.0,1.2000000000000002,-0.5,-10.600000000000001,-10.600000000000001
1698924437.705,16,-0.6000000000000001,0.5,-0.5,-0.2,9.9,1.1,-6.3,-4.6000000000000005,-12.700000000000001
1698924437.722,16,-0.6000000000000001,0.5,-0.7000000000000001,-0.2,9.9,0.9,-10.3,-1.3,-12.9
1698924437.738,16,-0.5,0.6000000000000001,-0.6000000000000001,-0.2,9.9,1.0,-17.5,0.7,-12.4
1698924437.755,16,-0.5,0.5,-0.9,-0.2,9.8,0.8,-21.1,0.1,-10.3
1698924437.771,16,-0.6000000000000001,0.4,-0.9,-0.30000000000000004,9.8,0.8,-22.5,-0.5,-8.5
1698924437.788,16,-0.6000000000000001,0.2,-0.9,-0.4,9.600000000000001,0.8,-23.8,-1.6,-5.300000000000001
1698924437.805,16,-0.6000000000000001,0.2,-0.9,-0.30000000000000004,9.5,0.9,-22.4,0.8,-5.8
1698924437.822,16,-0.6000000000000001,0.30000000000000004,-0.6000000000000001,-0.30000000000000004,9.700000000000001,1.3,-20.7,3.5,-7.1000000000000005
1698924437.838,16,-0.1,1.7000000000000002,0.9,0.1,11.100000000000001,2.8000000000000003,-4.3999999999999995,17.9,-14.100000000000001
1698924437.855,16,0.2,2.0,0.8,0.4,11.4,2.7,24.3,36.2,-26.200000000000003
1698924437.872,16,0.30000000000000004,1.3,-0.8,0.30000000000000004,10.600000000000001,1.0,31.0,34.1,-27.3
1698924437.889,16,0.4,0.30000000000000004,-0.4,0.4,9.8,1.3,32.0,28.200000000000003,-18.6
1698924437.905,16,0.4,0.1,0.0,0.30000000000000004,9.5,1.6,32.1,32.0,-12.3
1698924437.922,16,-0.2,0.0,0.2,-0.30000000000000004,9.4,1.7000000000000002,33.300000000000004,46.2,-2.0
1698924437.938,16,-0.7000000000000001,0.0,-0.2,-0.9,9.5,1.2000000000000002,30.599999999999998,52.6,5.0
1698924437.955,16,-0.9,-0.1,-0.1,-1.0,9.3,1.3,24.200000000000003,36.3,8.3
1698924437.972,16,-0.9,-0.2,0.4,-1.1,9.200000000000001,1.7000000000000002,22.000000000000004,26.6,8.200000000000001
1698924437.989,16,-0.8,-0.7000000000000001,1.3,-1.0,8.8,2.5,22.900000000000002,19.3,5.2
1698924438.015,16,-1.1,-1.3,2.2,-1.2000000000000002,8.200000000000001,3.3000000000000003,35.7,3.8,3.3000000000000003
1698924438.021,16,-1.2000000000000002,-1.2000000000000002,2.7,-1.4000000000000001,8.3,3.7,41.300000000000004,-2.4000000000000004,5.9
1698924438.039,16,-1.4000000000000001,-1.0,3.0,-1.5,8.5,4.0,46.800000000000004,-4.300000000000001,7.300000000000001
1698924438.055,16,-1.2000000000000002,-0.5,3.1,-1.3,9.0,3.9000000000000004,52.400000000000006,-2.1,2.9
1698924438.072,16,-0.6000000000000001,-0.4,2.5,-1.0,9.200000000000001,3.6,42.900000000000006,-9.1,-10.0
1698924438.089,16,-0.4,-0.7000000000000001,2.3000000000000003,-0.5,8.8,3.0,30.9,-13.6,-15.5
1698924438.105,16,0.1,-1.1,1.9000000000000001,-0.1,8.4,2.6,-2.9,-13.100000000000001,-17.1
1698924438.122,16,0.7000000000000001,-1.0,1.7000000000000002,0.2,8.3,2.5,-19.9,-10.700000000000001,-13.8
1698924438.14,16,0.7000000000000001,-0.8,1.6,0.5,8.700000000000001,2.4000000000000004,-42.800000000000004,-10.9,-5.500000000000001
1698924438.155,16,0.4,-0.4,1.2000000000000002,0.2,9.1,2.2,-52.300000000000004,-16.3,2.5
1698924438.172,16,-0.1,0.0,1.2000000000000002,-0.30000000000000004,9.5,2.4000000000000004,-52.0,-17.0,8.799999999999999
1698924438.189,16,-0.2,0.4,1.4000000000000001,-0.5,9.8,2.7,-47.6,-14.600000000000001,8.9
1698924438.206,16,-0.30000000000000004,0.7000000000000001,1.2000000000000002,-0.5,10.200000000000001,2.6,-31.5,-14.900000000000002,1.8
1698924438.222,16,-0.30000000000000004,0.7000000000000001,0.8,-0.5,10.100000000000001,2.3000000000000003,-23.0,-17.8,-2.0
1698924438.239,16,-0.1,0.2,0.4,-0.30000000000000004,9.600000000000001,1.9000000000000001,-11.700000000000001,-19.200000000000003,-5.500000000000001
1698924438.255,16,0.30000000000000004,-0.30000000000000004,0.30000000000000004,0.1,9.1,1.9000000000000001,-5.6,-13.700000000000001,-2.7
1698924438.272,16,0.5,-0.5,0.6000000000000001,0.2,8.9,2.0,-2.1999999999999997,-13.200000000000001,0.1
1698924438.29,16,0.5,-0.5,0.6000000000000001,0.4,8.9,2.1,5.300000000000001,-15.9,6.7
1698924438.305,16,0.5,-0.5,0.5,0.30000000000000004,8.9,2.0,9.1,-14.500000000000002,10.4
1698924438.321,16,0.30000000000000004,-0.6000000000000001,0.4,0.2,8.8,1.8,6.9,-14.3,9.1
1698924438.338,16,0.2,-0.6000000000000001,0.4,0.1,8.8,1.9000000000000001,3.8,-14.100000000000001,8.0
1698924438.355,16,0.2,-0.5,0.4,0.2,8.9,1.9000000000000001,-4.1000000000000005,-9.9,5.500000000000001
1698924438.371,16,0.4,-0.30000000000000004,0.2,0.4,9.0,1.7000000000000002,-13.0,-6.000000000000001,1.8
1698924438.39,16,0.5,-0.30000000000000004,0.1,0.5,9.1,1.7000000000000002,-16.900000000000002,-3.7000000000000006,0.6000000000000001
1698924438.405,16,0.5,-0.2,-0.1,0.5,9.1,1.5,-22.900000000000002,0.2,-0.30000000000000004
1698924438.421,16,0.30000000000000004,-0.2,-0.2,0.30000000000000004,9.1,1.5,-26.0,4.800000000000001,1.0
1698924438.438,16,0.2,-0.30000000000000004,-0.5,0.2,9.1,1.3,-26.400000000000002,7.1000000000000005,1.5000000000000002
1698924438.455,16,0.2,-0.4,-0.7000000000000001,0.2,8.9,1.1,-27.1,9.9,-0.5
1698924438.472,16,0.30000000000000004,-0.5,-0.6000000000000001,0.30000000000000004,8.8,1.3,-25.3,12.100000000000001,-4.1000000000000005
1698924438.488,16,0.30000000000000004,-0.5,-0.5,0.30000000000000004,8.700000000000001,1.5,-22.3,14.600000000000001,-5.2
1698924438.505,16,0.30000000000000004,-0.7000000000000001,-0.8,0.30000000000000004,8.5,1.2000000000000002,-15.6,20.7,-5.8
1698924438.521,16,0.30000000000000004,-0.7000000000000001,-1.1,0.2,8.5,1.0,-12.4,19.400000000000002,-5.0
1698924438.539,16,0.30000000000000004,-0.5,-0.9,0.2,8.700000000000001,1.1,-11.000000000000002,16.400000000000002,-4.300000000000001
1698924438.556,16,0.0,0.0,-0.6000000000000001,-0.1,9.3,1.5,-5.0,13.3,-1.9
1698924438.572,16,-0.5,0.4,-0.8,-0.4,9.5,1.4000000000000001,-1.2000000000000002,14.800000000000002,-0.4
1698924438.589,16,-0.6000000000000001,0.6000000000000001,-0.8,-0.7000000000000001,9.8,1.2000000000000002,3.8,14.0,-0.7
1698924438.606,16,-0.4,0.6000000000000001,-0.6000000000000001,-0.6000000000000001,9.8,1.4000000000000001,6.8,8.1,-4.7
1698924438.622,16,-0.2,0.4,-0.6000000000000001,-0.4,9.700000000000001,1.4000000000000001,7.9,6.5,-6.1000000000000005
1698924438.638,16,0.0,0.1,-0.7000000000000001,-0.2,9.3,1.3,6.7,5.7,-5.1
1698924438.655,16,0.2,0.0,-0.8,0.0,9.200000000000001,1.2000000000000002,0.5,9.200000000000001,-2.1
1698924438.672,16,0.6000000000000001,-0.2,-0.8,0.30000000000000004,9.1,1.1,-7.699999999999999,9.0,0.9
1698924438.688,16,0.7000000000000001,-0.2,-0.8,0.4,9.0,1.2000000000000002,-11.3,6.1000000000000005,1.6
1698924438.705,16,0.2,0.5,0.0,0.0,9.700000000000001,2.0,-14.700000000000001,6.4,6.6000000000000005
1698924438.721,16,-0.2,1.3,-0.2,-0.30000000000000004,10.600000000000001,1.9000000000000001,-6.4,2.0,19.700000000000003
1698924438.738,16,-0.4,0.8,-0.7000000000000001,-0.5,10.0,1.3,-5.300000000000001,-10.8,25.400000000000002
1698924438.755,16,-0.30000000000000004,0.7000000000000001,-0.2,-0.30000000000000004,10.0,1.8,-5.7,-14.100000000000001,23.3
1698924438.772,16,-0.30000000000000004,1.2000000000000002,0.0,-0.30000000000000004,10.4,2.1,2.1,-17.1,13.6
1698924438.788,16,-0.4,1.4000000000000001,-0.4,-0.30000000000000004,10.700000000000001,1.6,4.6000000000000005,-15.5,9.4
1698924438.805,16,-0.2,1.9000000000000001,-0.2,-0.2,11.200000000000001,1.9000000000000001,3.6,-10.3,4.300000000000001
1698924438.822,16,-0.2,2.5,1.0,-0.1,11.9,3.0,13.200000000000001,-8.4,1.6
1698924438.838,16,-0.2,2.7,1.0,-0.1,12.100000000000001,3.1,23.2,-9.9,2.6
1698924438.855,16,-0.2,2.3000000000000003,1.0,-0.1,11.700000000000001,2.8000000000000003,38.0,-17.5,7.8
1698924438.872,16,-0.30000000000000004,0.9,1.1,-0.1,10.3,2.8000000000000003,40.6,-11.5,8.0
1698924438.888,16,0.30000000000000004,0.1,0.7000000000000001,0.5,9.5,2.3000000000000003,32.6,-1.4,-3.3000000000000003
1698924438.905,16,0.5,0.1,0.7000000000000001,0.7000000000000001,9.5,2.3000000000000003,24.5,2.1,-9.1
1698924438.924,16,0.7000000000000001,-0.1,1.4000000000000001,0.8,9.3,2.9000000000000004,9.9,4.9,-8.200000000000001
1698924438.938,16,0.5,-0.8,1.0,0.6000000000000001,8.6,2.6,2.8,8.1,-1.0
1698924438.955,16,0.30000000000000004,-1.2000000000000002,1.1,0.4,8.200000000000001,2.7,0.7,4.300000000000001,1.2000000000000002
1698924438.971,16,-0.4,-1.8,1.7000000000000002,-0.30000000000000004,7.7,3.3000000000000003,3.6,4.6000000000000005,5.4
1698924438.988,16,-1.2000000000000002,-1.4000000000000001,1.9000000000000001,-1.1,8.0,3.4000000000000004,14.100000000000001,12.100000000000001,10.8
1698924439.005,16,-1.5,-1.1,2.0,-1.4000000000000001,8.3,3.5,19.500000000000004,12.9,11.3
1698924439.022,16,-1.5,-0.9,2.2,-1.3,8.5,3.7,29.000000000000004,10.600000000000001,8.700000000000001
1698924439.038,16,-1.2000000000000002,-0.9,2.2,-1.1,8.5,3.6,32.0,11.9,4.3999999999999995
1698924439.056,16,-1.0,-1.0,2.1,-0.9,8.5,3.4000000000000004,30.100000000000005,12.9,3.1
1698924439.072,16,-0.9,-0.8,1.9000000000000001,-0.7000000000000001,8.700000000000001,3.1,19.6,11.4,3.0000000000000004
1698924439.089,16,-0.9,-0.6000000000000001,1.8,-0.7000000000000001,8.9,3.0,6.2,6.3,6.7
1698924439.105,16,-0.9,-0.6000000000000001,1.6,-0.7000000000000001,8.9,2.9000000000000004,-0.2,4.3999999999999995,8.799999999999999
1698924439.122,16,-1.1,-0.6000000000000001,1.4000000000000001,-0.9,8.8,2.7,-10.8,1.6,9.3
1698924439.139,16,-1.2000000000000002,-0.6000000000000001,1.3,-0.9,8.8,2.7,-14.900000000000002,4.1000000000000005,5.500000000000001
1698924439.155,16,-1.2000000000000002,-0.6000000000000001,1.1,-1.0,8.9,2.5,-14.600000000000001,6.5,3.2
1698924439.172,16,-0.9,-0.4,0.8,-0.7000000000000001,9.0,2.2,-12.8,5.1,-1.3
1698924439.189,16,-0.5,-0.4,0.8,-0.5,9.0,2.2,-10.8,2.9,-3.0000000000000004
1698924439.205,16,-0.5,-0.4,0.8,-0.30000000000000004,9.0,2.3000000000000003,-4.3999999999999995,2.9,-4.3999999999999995
1698924439.222,16,-0.5,-0.5,0.4,-0.30000000000000004,8.9,1.9000000000000001,0.9,7.8,-2.0
1698924439.239,16,-0.5,-0.5,0.30000000000000004,-0.4,8.9,1.8,2.1,9.3,-0.30000000000000004
1698924439.256,16,-0.6000000000000001,-0.4,0.30000000000000004,-0.5,8.9,1.8,2.8,9.3,0.0
1698924439.272,16,-0.6000000000000001,-0.30000000000000004,0.30000000000000004,-0.5,9.1,1.8,4.0,10.3,0.1
1698924439.289,16,-0.7000000000000001,-0.2,0.1,-0.5,9.200000000000001,1.5,3.0000000000000004,8.700000000000001,0.6000000000000001
1698924439.305,16,-0.6000000000000001,-0.2,0.0,-0.5,9.200000000000001,1.5,1.0,7.9,0.9
1698924439.322,16,-0.5,-0.2,-0.1,-0.4,9.200000000000001,1.4000000000000001,-4.1000000000000005,6.7,0.30000000000000004
1698924439.338,16,-0.5,0.0,-0.30000000000000004,-0.4,9.4,1.2000000000000002,-8.9,4.300000000000001,0.5
1698924439.355,16,-0.5,0.0,-0.30000000000000004,-0.4,9.4,1.2000000000000002,-11.4,3.5,1.0999999999999999
1698924439.372,16,-0.5,-0.1,-0.4,-0.4,9.3,1.2000000000000002,-15.100000000000001,4.1000000000000005,3.3000000000000003
1698924439.388,16,-0.30000000000000004,-0.2,-0.5,-0.2,9.1,1.1,-16.400000000000002,4.2,4.800000000000001
1698924439.405,16,-0.2,-0.30000000000000004,-0.6000000000000001,-0.1,9.0,1.0,-17.0,4.2,5.6
1698924439.422,16,-0.30000000000000004,-0.5,-0.9,-0.2,8.9,0.8,-19.1,4.2,8.3
1698924439.438,16,-0.5,-0.5,-0.9,-0.30000000000000004,8.8,0.8,-20.3,4.0,10.3
1698924439.455,16,-0.6000000000000001,-0.6000000000000001,-1.0,-0.4,8.700000000000001,0.8,-20.3,0.4,14.200000000000001
1698924439.472,16,-0.8,-0.6000000000000001,-1.1,-0.6000000000000001,8.700000000000001,0.7000000000000001,-19.9,-4.6000000000000005,16.700000000000003
1698924439.489,16,-0.9,-0.5,-1.2000000000000002,-0.6000000000000001,8.8,0.7000000000000001,-17.7,-12.200000000000001,17.599999999999998
1698924439.505,16,-1.0,-0.30000000000000004,-1.1,-0.6000000000000001,8.9,0.8,-14.800000000000002,-19.400000000000002,17.400000000000002
1698924439.522,16,-0.9,-0.30000000000000004,-1.0,-0.5,9.0,0.9,-12.4,-21.900000000000002,17.1
1698924439.538,16,-0.7000000000000001,-0.1,-0.8,-0.2,9.200000000000001,1.1,-5.300000000000001,-22.8,13.9
1698924439.555,16,-0.4,0.2,-0.7000000000000001,0.1,9.5,1.2000000000000002,2.6,-16.1,8.4
1698924439.572,16,-0.2,0.4,-0.7000000000000001,0.30000000000000004,9.600000000000001,1.2000000000000002,6.5,-11.5,5.4
1698924439.589,16,0.2,0.5,-0.8,0.7000000000000001,9.8,1.0,11.5,-5.9,1.7
1698924439.605,16,0.30000000000000004,0.5,-0.9,0.8,9.8,1.0,11.4,-5.6,3.3000000000000003
1698924439.622,16,0.2,0.5,-0.9,0.8,9.8,0.9,10.0,-4.7,4.3999999999999995
1698924439.638,16,-0.4,0.30000000000000004,-1.4000000000000001,0.2,9.5,0.4,2.5,-1.2000000000000002,5.0
1698924439.655,16,-0.7000000000000001,0.2,-1.5,-0.2,9.5,0.30000000000000004,-3.8,1.4,4.7
1698924439.672,16,-1.0,0.4,-1.2000000000000002,-0.5,9.700000000000001,0.6000000000000001,-14.700000000000001,2.1,2.3000000000000003
1698924439.688,16,-0.8,1.2000000000000002,0.2,-0.30000000000000004,10.4,2.0,-11.700000000000001,-3.2,-3.5
1698924439.705,16,-0.7000000000000001,1.4000000000000001,0.5,-0.1,10.700000000000001,2.4000000000000004,-2.9,1.0,-9.600000000000001
1698924439.724,16,-0.6000000000000001,0.7000000000000001,-0.9,-0.2,10.0,0.9,10.700000000000001,26.700000000000003,-24.8
1698924439.739,16,-0.2,0.5,-0.6000000000000001,0.1,9.8,1.2000000000000002,10.8,22.4,-27.1
1698924439.755,16,0.1,0.5,0.30000000000000004,0.4,9.8,2.0,14.100000000000001,15.2,-28.200000000000003
1698924439.772,16,0.0,1.0,1.4000000000000001,0.2,10.4,3.1,32.1,18.1,-25.0
1698924439.788,16,-0.5,2.0,0.4,-0.4,11.4,1.9000000000000001,46.2,31.7,-13.8
1698924439.805,16,-0.5,2.4000000000000004,-0.1,-0.5,11.8,1.4000000000000001,45.0,31.900000000000002,-10.4
1698924439.822,16,0.0,2.2,-0.30000000000000004,0.0,11.700000000000001,1.1,31.8,30.599999999999998,-11.6
1698924439.838,16,0.1,1.0,0.1,0.0,10.4,1.4000000000000001,12.9,37.4,-11.9
1698924439.855,16,0.0,1.4000000000000001,1.3,-0.1,10.4,2.1,3.6,48.50000000000001,-7.8
1698924439.872,16,0.1,1.2000000000000002,0.7000000000000001,0.0,10.700000000000001,2.0,5.4,47.800000000000004,-9.3
1698924439.889,16,-0.1,0.30000000000000004,0.0,-0.2,9.8,1.3,2.1999999999999997,17.3,-8.3
1698924439.905,16,-0.9,-0.5,1.4000000000000001,-1.1,9.0,2.7,-0.1,11.8,-0.5
1698924439.922,16,-1.3,-0.8,1.8,-1.4000000000000001,8.700000000000001,3.1,4.6000000000000005,21.5,3.1
1698924439.938,16,-1.7000000000000002,-1.2000000000000002,1.4000000000000001,-1.8,8.3,2.6,17.5,28.1,3.7000000000000006
1698924439.955,16,-1.3,-1.1,1.8,-1.5,8.3,3.0,28.1,7.699999999999999,-2.3000000000000003
1698924439.972,16,-0.6000000000000001,-0.9,2.8000000000000003,-0.8,8.6,3.9000000000000004,41.1,-14.800000000000002,-9.4
1698924439.989,16,-0.2,-0.9,3.1,-0.5,8.6,4.1000000000000005,47.1,-22.000000000000004,-10.0
1698924440.006,16,0.0,-0.9,3.1,-0.30000000000000004,8.6,4.0,50.300000000000004,-25.400000000000002,-8.9
1698924440.022,16,0.4,-0.8,2.6,0.1,8.700000000000001,3.4000000000000004,42.0,-24.200000000000003,-6.3
1698924440.038,16,0.7000000000000001,-0.6000000000000001,2.2,0.4,8.9,2.9000000000000004,13.3,-21.1,-5.6
1698924440.055,16,0.7000000000000001,-0.1,2.0,0.4,9.200000000000001,2.9000000000000004,-4.0,-20.0,-5.2
1698924440.073,16,0.6000000000000001,0.1,1.9000000000000001,0.30000000000000004,9.600000000000001,2.8000000000000003,-31.5,-18.0,-4.7
1698924440.089,16,0.5,0.1,1.4000000000000001,0.2,9.600000000000001,2.4000000000000004,-45.1,-13.700000000000001,-4.3999999999999995
1698924440.106,16,0.5,-0.4,0.8,0.2,9.4,2.2,-49.4,-11.4,-2.1999999999999997
1698924440.122,16,0.6000000000000001,-0.9,0.6000000000000001,0.30000000000000004,8.8,2.0,-49.0,-10.9,-0.8
1698924440.139,16,0.6000000000000001,-1.0,0.6000000000000001,0.30000000000000004,8.4,2.0,-42.5,-6.8,1.7
1698924440.156,16,0.5,-1.1,0.4,0.30000000000000004,8.3,2.0,-37.1,-4.800000000000001,2.8
1698924440.173,16,0.4,-1.0,0.4,0.2,8.4,2.0,-23.0,-5.7,5.500000000000001
1698924440.189,16,0.30000000000000004,-0.7000000000000001,0.7000000000000001,0.1,8.700000000000001,2.4000000000000004,-4.0,-10.700000000000001,7.0
1698924440.205,16,0.4,-0.5,0.7000000000000001,0.2,8.9,2.3000000000000003,16.900000000000002,-10.9,6.6000000000000005
1698924440.222,16,0.4,-0.5,0.7000000000000001,0.2,8.9,2.2,25.2,-9.700000000000001,6.1000000000000005
1698924440.239,16,0.4,-0.4,0.7000000000000001,0.30000000000000004,9.0,2.1,34.800000000000004,-7.1000000000000005,5.4
1698924440.255,16,0.5,-0.4,0.9,0.4,9.0,2.3000000000000003,37.300000000000004,-2.7,4.800000000000001
1698924440.272,16,0.6000000000000001,-0.30000000000000004,0.6000000000000001,0.5,9.1,1.8,31.900000000000002,1.7,4.7
1698924440.288,16,0.7000000000000001,-0.30000000000000004,0.4,0.6000000000000001,9.200000000000001,1.6,25.400000000000002,1.0,4.7
1698924440.305,16,0.7000000000000001,-0.2,0.4,0.6000000000000001,9.200000000000001,1.6,7.400000000000001,0.8,4.800000000000001
1698924440.322,16,0.7000000000000001,-0.2,0.4,0.6000000000000001,9.200000000000001,1.6,-1.7,3.7000000000000006,5.1
1698924440.339,16,0.6000000000000001,-0.4,0.30000000000000004,0.6000000000000001,9.1,1.5,-16.2,7.8,5.0
1698924440.355,16,0.30000000000000004,-0.6000000000000001,0.0,0.30000000000000004,8.8,1.3,-26.0,7.300000000000001,6.1000000000000005
1698924440.373,16,0.2,-0.7000000000000001,-0.1,0.2,8.700000000000001,1.3,-29.200000000000003,7.9,6.8
1698924440.388,16,0.1,-0.8,-0.2,0.1,8.6,1.3,-31.900000000000002,11.000000000000002,7.0
1698924440.405,16,0.2,-0.6000000000000001,-0.30000000000000004,0.2,8.700000000000001,1.3,-30.000000000000004,15.000000000000002,2.7
1698924440.422,16,0.2,-0.5,-0.4,0.30000000000000004,8.9,1.2000000000000002,-27.900000000000002,17.1,-0.8
1698924440.439,16,0.30000000000000004,-0.1,-0.7000000000000001,0.30000000000000004,9.200000000000001,1.0,-23.5,20.0,-7.0
1698924440.455,16,0.4,0.1,-0.7000000000000001,0.30000000000000004,9.4,1.0,-18.6,20.0,-9.200000000000001
1698924440.472,16,0.30000000000000004,0.1,-0.7000000000000001,0.2,9.4,1.1,-15.5,19.0,-9.1
1698924440.489,16,0.0,0.0,-0.5,-0.1,9.3,1.3,-7.300000000000001,18.1,-6.8
1698924440.505,16,-0.2,0.0,-0.5,-0.30000000000000004,9.3,1.3,2.6,22.5,-5.300000000000001
1698924440.521,16,-0.2,0.0,-0.7000000000000001,-0.4,9.3,1.1,10.1,22.8,-7.300000000000001
1698924440.539,16,-0.2,0.0,-0.6000000000000001,-0.4,9.3,1.1,12.4,19.0,-8.200000000000001
1698924440.555,16,-0.1,0.1,-0.4,-0.30000000000000004,9.4,1.2000000000000002,16.2,7.400000000000001,-7.500000000000001
1698924440.571,16,0.0,0.2,-0.6000000000000001,-0.2,9.5,1.0,15.399999999999999,0.8,-4.7
1698924440.588,16,0.1,0.2,-0.8,-0.2,9.600000000000001,0.8,11.9,1.7,-3.9
1698924440.605,16,0.30000000000000004,0.4,-1.3,0.0,9.8,0.30000000000000004,-1.2000000000000002,5.7,-3.8
1698924440.622,16,0.6000000000000001,0.5,-1.2000000000000002,0.30000000000000004,9.8,0.4,-15.5,6.2,-3.6
1698924440.64,16,0.7000000000000001,0.5,-1.1,0.4,9.8,0.6000000000000001,-20.0,6.000000000000001,-3.5
1698924440.655,16,0.6000000000000001,0.4,-1.0,0.4,9.700000000000001,0.7000000000000001,-24.7,12.100000000000001,-1.4
1698924440.672,16,0.6000000000000001,0.4,-1.0,0.4,9.700000000000001,0.7000000000000001,-26.0,17.3,0.30000000000000004
1698924440.688,16,0.5,0.30000000000000004,-1.1,0.2,9.600000000000001,0.7000000000000001,-26.0,20.8,3.6
1698924440.705,16,0.30000000000000004,0.30000000000000004,-0.8,0.1,9.5,1.1,-22.8,16.5,5.500000000000001
1698924440.722,16,0.0,0.7000000000000001,-0.2,-0.30000000000000004,10.0,1.7000000000000002,-18.5,16.2,7.699999999999999
1698924440.739,16,-0.6000000000000001,1.6,0.0,-0.8,10.9,2.0,1.0,14.0,20.8
1698924440.756,16,-0.8,1.3,-1.0,-0.9,10.600000000000001,0.8,12.9,-0.9,25.3
1698924440.772,16,-0.30000000000000004,1.1,-0.5,-0.4,10.5,1.3,13.700000000000001,-10.8,15.299999999999999
1698924440.789,16,-0.2,1.2000000000000002,-0.30000000000000004,-0.2,10.5,1.5,14.900000000000002,-13.3,7.500000000000001
1698924440.805,16,0.1,1.0,-0.4,0.0,10.3,1.3,14.700000000000001,-9.0,-1.6
1698924440.821,16,-0.1,0.9,-0.4,-0.2,10.3,1.3,6.5,-0.5,-0.2
1698924440.838,16,-0.4,2.2,1.4000000000000001,-0.4,11.600000000000001,3.1,9.4,-11.000000000000002,12.700000000000001
1698924440.854,16,-0.4,2.8000000000000003,1.6,-0.4,12.200000000000001,3.3000000000000003,19.6,-18.900000000000002,19.9
1698924440.871,16,-0.6000000000000001,2.3000000000000003,1.1,-0.5,11.700000000000001,2.7,32.800000000000004,-27.2,25.0
1698924440.888,16,-0.30000000000000004,1.3,0.9,0.30000000000000004,9.700000000000001,2.0,27.900000000000002,-27.2,13.200000000000001
1698924440.905,16,0.5,-0.6000000000000001,0.2,0.7000000000000001,8.8,1.7000000000000002,18.8,-24.5,0.6000000000000001
1698924440.921,16,0.8,-1.4000000000000001,0.4,1.0,8.1,1.8,-6.1000000000000005,-11.000000000000002,-15.6
1698924440.939,16,0.9,-1.3,0.7000000000000001,1.0,8.200000000000001,2.2,-15.6,-2.4000000000000004,-16.400000000000002
1698924440.955,16,0.6000000000000001,-1.0,1.2000000000000002,0.7000000000000001,8.5,2.7,-19.400000000000002,2.5,-6.5
1698924440.972,16,0.0,-0.9,1.6,0.1,8.5,3.2,-7.0,-1.8,8.600000000000001
1698924440.99,16,-0.5,-1.0,1.5,-0.2,8.5,3.2,0.9,1.5000000000000002,12.200000000000001
1698924441.005,16,-0.6000000000000001,-1.2000000000000002,1.7000000000000002,-0.5,8.200000000000001,3.3000000000000003,13.5,5.500000000000001,8.700000000000001
1698924441.022,16,-0.6000000000000001,-1.1,2.0,-0.5,8.3,3.6,22.900000000000002,4.9,2.7
1698924441.04,16,-0.6000000000000001,-0.8,2.1,-0.4,8.4,3.6,25.5,4.300000000000001,1.4
1698924441.056,16,-0.5,-0.7000000000000001,2.1,-0.4,8.700000000000001,3.5,23.3,3.2,1.0999999999999999
1698924441.072,16,-0.4,-0.7000000000000001,1.9000000000000001,-0.30000000000000004,8.700000000000001,3.3000000000000003,11.3,2.5,1.6
1698924441.09,16,-0.5,-0.6000000000000001,1.7000000000000002,-0.4,8.8,3.2,-6.4,1.3,2.8
1698924441.105,16,-0.6000000000000001,-0.5,1.6,-0.4,8.9,3.1,-14.500000000000002,1.2000000000000002,3.7000000000000006
1698924441.122,16,-0.6000000000000001,-0.5,1.3,-0.4,8.9,2.8000000000000003,-26.8,-0.4,5.500000000000001
1698924441.139,16,-0.5,-0.4,1.1,-0.30000000000000004,9.0,2.7,-29.400000000000002,-2.3000000000000003,6.3
1698924441.155,16,-0.4,-0.2,0.7000000000000001,-0.2,9.1,2.4000000000000004,-28.700000000000003,-6.7,5.8
1698924441.172,16,-0.4,-0.2,0.6000000000000001,-0.2,9.200000000000001,2.3000000000000003,-24.3,-8.799999999999999,4.3999999999999995
1698924441.189,16,-0.5,-0.1,0.4,-0.30000000000000004,9.200000000000001,2.2,-20.900000000000002,-9.200000000000001,3.8
1698924441.205,16,-0.6000000000000001,0.1,0.5,-0.4,9.4,2.3000000000000003,-11.1,-8.1,2.3000000000000003
1698924441.222,16,-0.7000000000000001,0.1,0.4,-0.5,9.4,2.3000000000000003,0.4,-7.500000000000001,-0.5
1698924441.239,16,-0.7000000000000001,0.0,0.4,-0.5,9.3,2.3000000000000003,5.500000000000001,-8.5,-2.7
1698924441.255,16,-0.8,-0.30000000000000004,0.4,-0.6000000000000001,9.0,2.2,11.9,-11.700000000000001,-5.7
1698924441.272,16,-0.7000000000000001,-0.4,0.5,-0.5,8.9,2.3000000000000003,12.9,-15.100000000000001,-7.0
1698924441.289,16,-0.6000000000000001,-0.4,0.5,-0.5,8.9,2.3000000000000003,12.100000000000001,-15.9,-7.2
1698924441.305,16,-0.6000000000000001,-0.4,0.4,-0.5,8.9,2.1,6.4,-17.200000000000003,-6.7
1698924441.321,16,-0.6000000000000001,-0.5,0.4,-0.5,8.9,2.1,-1.4,-18.8,-6.3
1698924441.339,16,-0.5,-0.30000000000000004,0.30000000000000004,-0.4,8.9,2.1,-4.6000000000000005,-18.400000000000002,-6.4
1698924441.355,16,-0.4,-0.30000000000000004,0.2,-0.30000000000000004,9.0,2.0,-8.3,-18.400000000000002,-6.8
1698924441.372,16,-0.4,-0.30000000000000004,0.0,-0.30000000000000004,9.1,1.8,-9.5,-19.9,-6.8
1698924441.388,16,-0.4,-0.1,0.0,-0.30000000000000004,9.3,1.9000000000000001,-9.3,-24.400000000000002,-3.8
1698924441.405,16,-0.4,-0.1,0.0,-0.30000000000000004,9.3,1.9000000000000001,-7.500000000000001,-26.400000000000002,-3.3000000000000003
1698924441.422,16,-0.30000000000000004,-0.30000000000000004,-0.30000000000000004,-0.2,9.0,1.6,-3.9,-32.0,-3.4
1698924441.439,16,-0.4,-0.6000000000000001,-0.2,-0.30000000000000004,8.700000000000001,1.7000000000000002,-1.5000000000000002,-34.1,-4.7
1698924441.455,16,-0.4,-0.5,-0.2,-0.30000000000000004,8.8,1.7000000000000002,0.1,-32.7,-5.6
1698924441.472,16,-0.30000000000000004,-0.30000000000000004,-0.30000000000000004,-0.2,9.0,1.6,3.0000000000000004,-31.4,-8.0
1698924441.489,16,-0.2,-0.2,-0.4,-0.1,9.1,1.5,4.2,-35.7,-7.9
1698924441.505,16,-0.30000000000000004,-0.2,-0.30000000000000004,-0.2,9.1,1.6,4.7,-37.300000000000004,-6.5
1698924441.522,16,-0.30000000000000004,-0.30000000000000004,-0.30000000000000004,-0.2,9.0,1.5,5.8,-36.800000000000004,-3.9
1698924441.538,16,-0.30000000000000004,-0.5,-0.5,-0.1,8.8,1.3,5.500000000000001,-41.2,-3.1
1698924441.555,16,-0.2,-0.5,-0.5,-0.1,8.8,1.3,4.7,-43.6,-2.7
1698924441.571,16,-0.1,-0.5,-0.30000000000000004,0.0,8.8,1.4000000000000001,3.8,-44.9,-2.5
1698924441.589,16,-0.1,-0.30000000000000004,-0.30000000000000004,0.1,9.0,1.5,4.7,-42.1,-3.2
1698924441.605,16,0.0,-0.2,-0.4,0.2,9.1,1.4000000000000001,5.4,-40.2,-3.5
1698924441.622,16,0.1,-0.2,-0.30000000000000004,0.30000000000000004,9.1,1.4000000000000001,6.5,-38.1,-4.0
1698924441.638,16,0.2,-0.2,-0.2,0.4,9.1,1.5,8.5,-35.9,-3.1
1698924441.655,16,0.2,-0.2,-0.30000000000000004,0.5,9.1,1.4000000000000001,9.0,-34.50000000000001,-2.4000000000000004
1698924441.672,16,0.1,-0.1,-0.1,0.4,9.3,1.5,8.799999999999999,-31.900000000000002,-0.8
1698924441.69,16,-0.1,0.30000000000000004,0.1,0.30000000000000004,9.4,1.6,8.600000000000001,-30.299999999999997,-0.7
1698924441.705,16,-0.2,0.5,-0.30000000000000004,0.0,9.8,1.3,6.000000000000001,-27.6,-2.8
1698924441.722,16,-0.30000000000000004,0.4,-0.5,-0.1,9.700000000000001,1.0,2.4000000000000004,-28.700000000000003,-3.2
1698924441.739,16,-0.6000000000000001,0.1,-0.6000000000000001,-0.30000000000000004,9.4,1.0,-8.799999999999999,-29.700000000000003,-2.3000000000000003
1698924441.755,16,-0.5,0.0,-0.6000000000000001,-0.30000000000000004,9.4,1.0,-13.200000000000001,-29.400000000000002,-2.7
1698924441.772,16,-0.30000000000000004,-0.1,-0.9,0.0,9.200000000000001,0.8,-18.6,-33.2,-3.6
1698924441.805,16,-0.1,0.0,-1.2000000000000002,0.1,9.3,0.5,-25.8,-36.0,-1.2000000000000002
1698924441.822,16,-0.30000000000000004,0.30000000000000004,-1.1,0.0,9.600000000000001,0.7000000000000001,-28.0,-38.800000000000004,2.5
1698924441.838,16,-0.4,0.9,-0.5,-0.1,10.200000000000001,1.4000000000000001,-23.5,-40.8,4.5
1698924441.854,16,-0.2,1.6,-0.1,0.1,10.9,1.9000000000000001,-8.700000000000001,-37.2,-1.0
1698924441.871,16,-0.30000000000000004,1.6,-0.2,0.1,10.9,1.7000000000000002,-0.4,-31.099999999999998,-6.3
1698924441.888,16,-0.30000000000000004,1.0,-0.7000000000000001,0.0,10.3,1.2000000000000002,9.0,-21.6,-13.200000000000001
1698924441.904,16,0.0,0.9,-0.30000000000000004,0.30000000000000004,10.200000000000001,1.6,15.100000000000001,-23.400000000000002,-14.700000000000001
1698924441.922,16,0.0,0.8,-0.4,0.30000000000000004,10.100000000000001,1.4000000000000001,18.2,-23.900000000000002,-14.600000000000001
1698924441.938,16,-0.30000000000000004,0.2,-0.9,0.0,9.5,0.9,15.399999999999999,-29.1,-9.3
1698924441.955,16,-0.30000000000000004,0.4,-0.4,-0.1,9.8,1.4000000000000001,11.700000000000001,-31.5,-5.500000000000001
1698924441.972,16,-0.4,1.4000000000000001,0.5,-0.2,10.8,2.2,13.8,-27.5,-7.1000000000000005
1698924441.988,16,-0.4,1.8,0.2,-0.2,11.100000000000001,1.9000000000000001,18.8,-30.7,-12.4
1698924442.006,16,-0.30000000000000004,1.5,0.30000000000000004,-0.1,10.9,1.9000000000000001,16.2,-37.900000000000006,-16.3
1698924442.022,16,-0.2,0.6000000000000001,0.1,0.0,10.0,1.7000000000000002,12.4,-38.300000000000004,-17.400000000000002
1698924442.039,16,-0.2,-0.30000000000000004,-0.6000000000000001,-0.1,9.200000000000001,0.9,-2.3000000000000003,-34.1,-17.7
1698924442.055,16,-0.4,-0.2,-0.7000000000000001,-0.2,9.1,0.7000000000000001,-20.7,-38.5,-15.399999999999999
1698924442.073,16,-0.5,0.0,-0.6000000000000001,-0.4,9.4,1.0,-26.3,-43.300000000000004,-14.3
1698924442.089,16,-0.7000000000000001,0.30000000000000004,-0.30000000000000004,-0.6000000000000001,9.700000000000001,1.4000000000000001,-27.7,-52.400000000000006,-13.4
1698924442.105,16,-0.9,0.2,-0.1,-0.9,9.5,1.7000000000000002,-19.8,-57.6,-13.9
1698924442.122,16,-0.9,0.0,-0.1,-0.8,9.4,1.8,-13.9,-57.400000000000006,-15.6
1698924442.138,16,-0.6000000000000001,-0.4,-0.30000000000000004,-0.6000000000000001,9.0,1.5,-1.5000000000000002,-59.9,-22.6
1698924442.155,16,-0.5,-0.5,-0.2,-0.5,8.9,1.6,8.1,-73.30000000000001,-24.6
1698924442.171,16,-0.5,-0.30000000000000004,0.0,-0.5,9.0,1.8,12.100000000000001,-77.3,-23.0
1698924442.188,16,-0.7000000000000001,0.0,0.1,-0.7000000000000001,9.3,1.8,18.7,-80.7,-20.1
1698924442.205,16,-0.7000000000000001,0.1,0.0,-0.8,9.5,1.7000000000000002,20.2,-86.2,-20.6
1698924442.221,16,-0.7000000000000001,0.1,0.0,-0.8,9.5,1.7000000000000002,18.8,-90.30000000000001,-21.8
1698924442.239,16,-0.5,0.2,0.2,-0.6000000000000001,9.600000000000001,1.8,12.9,-101.60000000000001,-24.3
1698924442.255,16,-0.2,0.30000000000000004,0.2,-0.30000000000000004,9.700000000000001,1.8,4.300000000000001,-112.0,-25.2
1698924442.272,16,0.0,0.30000000000000004,0.1,-0.1,9.700000000000001,1.7000000000000002,-1.0,-115.2,-25.5
1698924442.288,16,0.2,0.30000000000000004,-0.1,0.0,9.700000000000001,1.6,-12.8,-119.89999999999999,-25.400000000000002
1698924442.305,16,0.30000000000000004,0.2,0.0,0.1,9.5,1.7000000000000002,-22.2,-124.8,-24.5
1698924442.322,16,0.30000000000000004,0.1,0.1,0.1,9.4,1.8,-24.400000000000002,-126.4,-23.8
1698924442.338,16,0.1,-0.30000000000000004,0.0,-0.1,9.0,1.8,-25.1,-126.8,-22.7
1698924442.355,16,0.1,-0.7000000000000001,-0.4,-0.1,8.700000000000001,1.6,-24.5,-129.5,-24.400000000000002
1698924442.372,16,0.1,-0.7000000000000001,-0.4,0.0,8.6,1.5,-23.8,-133.3,-26.3
1698924442.389,16,0.30000000000000004,-0.7000000000000001,-0.4,0.1,8.6,1.6,-21.0,-140.0,-28.900000000000002
1698924442.405,16,0.30000000000000004,-0.6000000000000001,-0.4,0.1,8.700000000000001,1.6,-18.900000000000002,-141.5,-29.800000000000004
1698924442.422,16,0.5,-0.30000000000000004,-0.6000000000000001,0.30000000000000004,9.0,1.5,-15.2,-142.60000000000002,-32.0
1698924442.438,16,0.6000000000000001,0.0,-0.7000000000000001,0.4,9.200000000000001,1.5,-12.5,-142.0,-34.6
1698924442.455,16,0.7000000000000001,0.1,-0.7000000000000001,0.5,9.3,1.5,-11.1,-141.4,-35.199999999999996
1698924442.472,16,0.7000000000000001,0.2,-0.7000000000000001,0.6000000000000001,9.5,1.5,-8.1,-140.3,-34.800000000000004
1698924442.488,16,0.8,0.30000000000000004,-0.8,0.6000000000000001,9.5,1.4000000000000001,-5.6,-141.9,-31.7
1698924442.505,16,0.6000000000000001,0.2,-0.9,0.5,9.4,1.3,-5.0,-142.3,-28.200000000000003
1698924442.522,16,0.6000000000000001,0.1,-0.9,0.5,9.4,1.4000000000000001,-5.500000000000001,-140.7,-28.1
1698924442.538,16,0.5,0.1,-0.7000000000000001,0.4,9.4,1.5,-5.0,-141.70000000000002,-28.200000000000003
1698924442.554,16,0.6000000000000001,-0.1,-0.7000000000000001,0.5,9.200000000000001,1.5,-4.5,-141.0,-27.6
1698924442.571,16,0.6000000000000001,-0.30000000000000004,-0.8,0.5,8.9,1.5,-5.6,-138.10000000000002,-27.0
1698924442.588,16,0.5,-0.30000000000000004,-0.8,0.6000000000000001,8.9,1.5,-6.6000000000000005,-137.5,-26.9
1698924442.605,16,0.5,-0.2,-0.8,0.5,9.0,1.5,-8.700000000000001,-136.9,-26.0
1698924442.622,16,0.4,0.0,-0.9,0.4,9.200000000000001,1.5,-10.700000000000001,-135.5,-25.1
1698924442.639,16,0.30000000000000004,0.2,-0.8,0.4,9.4,1.5,-11.700000000000001,-134.70000000000002,-25.2
1698924442.655,16,0.1,0.30000000000000004,-0.7000000000000001,0.30000000000000004,9.5,1.6,-11.8,-134.1,-26.0
1698924442.672,16,0.1,0.4,-0.7000000000000001,0.2,9.600000000000001,1.7000000000000002,-11.2,-133.8,-26.3
1698924442.688,16,-0.1,0.30000000000000004,-0.6000000000000001,0.1,9.5,1.8,-9.8,-131.9,-26.6
1698924442.705,16,-0.2,0.4,-0.5,0.0,9.600000000000001,1.9000000000000001,-7.6,-132.0,-26.9
1698924442.721,16,-0.30000000000000004,0.6000000000000001,-0.2,-0.1,9.700000000000001,2.1,-6.2,-133.0,-26.9
1698924442.74,16,-0.4,0.6000000000000001,-0.2,-0.2,9.700000000000001,2.2,-3.7000000000000006,-137.3,-26.3
1698924442.755,16,-0.7000000000000001,0.4,-0.2,-0.4,9.600000000000001,2.3000000000000003,-4.1000000000000005,-143.0,-26.400000000000002
1698924442.772,16,-1.0,0.2,-0.2,-0.6000000000000001,9.5,2.2,-6.4,-143.6,-27.6
1698924442.789,16,-0.9,0.2,-0.30000000000000004,-0.7000000000000001,9.4,2.1,-15.7,-140.6,-31.8
1698924442.805,16,-0.7000000000000001,0.1,-0.5,-0.5,9.3,2.0,-28.8,-135.1,-38.6
1698924442.821,16,0.0,0.30000000000000004,-0.4,-0.2,9.3,2.2,-38.2,-131.5,-42.5
1698924442.838,16,0.2,0.5,-0.4,0.5,9.600000000000001,2.2,-40.1,-130.0,-42.5
1698924442.855,16,0.30000000000000004,0.6000000000000001,-0.7000000000000001,0.6000000000000001,9.700000000000001,2.1,-41.800000000000004,-121.30000000000001,-39.2
1698924442.872,16,0.4,0.6000000000000001,-0.6000000000000001,0.6000000000000001,9.600000000000001,2.3000000000000003,-39.2,-108.6,-34.900000000000006
1698924442.888,16,0.5,0.5,-0.7000000000000001,0.7000000000000001,9.600000000000001,2.3000000000000003,-35.8,-101.8,-34.0
1698924442.905,16,0.5,0.5,-0.6000000000000001,0.7000000000000001,9.5,2.5,-26.400000000000002,-89.5,-31.4
1698924442.921,16,0.5,0.4,-0.2,0.7000000000000001,9.5,2.7,-12.3,-81.5,-25.1
1698924442.939,16,0.4,0.30000000000000004,-0.30000000000000004,0.7000000000000001,9.4,2.8000000000000003,-4.2,-78.00000000000001,-21.400000000000002
1698924442.955,16,0.1,0.2,-0.4,0.4,9.200000000000001,2.7,7.9,-77.7,-14.100000000000001
1698924442.972,16,-0.2,0.2,0.1,0.30000000000000004,9.200000000000001,2.9000000000000004,12.000000000000002,-81.10000000000001,-9.8
1698924442.989,16,-0.30000000000000004,0.30000000000000004,0.2,0.0,9.4,3.2,17.7,-85.60000000000001,-2.6
1698924443.007,16,-0.4,0.30000000000000004,-0.1,0.0,9.3,2.8000000000000003,13.5,-81.0,-1.0
1698924443.022,16,-0.4,-0.5,-0.7000000000000001,0.1,8.5,2.2,-5.1,-71.30000000000001,-5.4
1698924443.039,16,-0.30000000000000004,-1.1,-0.8,0.1,8.1,2.1,-16.3,-65.3,-9.9
1698924443.056,16,-0.1,-1.2000000000000002,-0.8,0.4,7.800000000000001,2.2,-32.1,-55.300000000000004,-21.8
1698924443.073,16,0.4,-0.7000000000000001,-0.5,0.9,8.3,2.6,-34.0,-48.50000000000001,-30.000000000000004
1698924443.088,16,0.4,0.30000000000000004,-0.2,0.9,8.8,2.9000000000000004,-19.6,-42.400000000000006,-29.700000000000003
1698924443.107,16,0.30000000000000004,0.5,-0.30000000000000004,0.8,9.4,2.8000000000000003,-9.600000000000001,-42.7,-26.0
1698924443.122,16,0.1,0.4,-0.5,0.6000000000000001,9.3,2.7,-0.5,-43.7,-20.8
1698924443.138,16,-0.2,-0.30000000000000004,-0.7000000000000001,0.2,8.6,2.4000000000000004,9.200000000000001,-44.7,-12.200000000000001
1698924443.155,16,-0.7000000000000001,-0.6000000000000001,-0.8,-0.30000000000000004,8.4,2.3000000000000003,8.4,-46.4,-10.4
1698924443.172,16,-1.1,-0.5,-0.9,-0.6000000000000001,8.5,2.1,-1.6,-52.400000000000006,-10.0
1698924443.188,16,-1.4000000000000001,0.4,-0.7000000000000001,-0.8,8.9,2.4000000000000004,-6.9,-55.4,-8.5
1698924443.205,16,-1.4000000000000001,0.8,-0.9,-1.0,9.700000000000001,2.2,-10.4,-60.900000000000006,-8.799999999999999
1698924443.222,16,-1.4000000000000001,0.9,-1.0,-0.9,9.9,2.1,-9.5,-66.2,-16.1
1698924443.239,16,-1.4000000000000001,0.9,-1.0,-0.9,9.8,2.1,-8.1,-65.10000000000001,-20.4
1698924443.255,16,-1.3,0.9,-1.0,-0.9,9.9,2.1,-2.9,-58.9,-28.8
1698924443.272,16,-0.9,1.0,-1.1,-0.5,10.0,1.9000000000000001,5.1,-53.6,-35.7
1698924443.288,16,-0.6000000000000001,0.8,-1.2000000000000002,-0.2,9.8,1.8,11.000000000000002,-52.2,-36.4
1698924443.306,16,-0.2,0.30000000000000004,-1.2000000000000002,0.2,9.4,1.7000000000000002,12.9,-51.900000000000006,-33.1
1698924443.322,16,-0.4,0.2,-0.9,-0.1,9.3,2.0,17.3,-53.7,-24.200000000000003
1698924443.338,16,-0.6000000000000001,0.30000000000000004,-1.0,-0.30000000000000004,9.3,1.9000000000000001,18.8,-53.300000000000004,-20.5
1698924443.355,16,-1.1,0.2,-1.0,-0.8,9.200000000000001,1.7000000000000002,16.700000000000003,-51.400000000000006,-20.5
