timestamp,interval,accx,accy,accz,accGx,accGy,accGz,alpha,beta,gamma
1698674687.005,0.01666666753590107,0.1433995861530304,0.0310264219045639,-1.606195425710082,1.5599718730650842,-4.770896305194497,-10.038588285827636,-4.210630623299855,-9.06813480251328,-4.389511143228374
1698674687.176,0.01666666753590107,-0.9316742622770369,-0.28506811072975397,1.2010258945673704,-0.366462491607666,-4.853794660894573,-7.4579381713867186,-14.98206092555799,1.550802775344446,10.977862524638015
1698674687.193,0.01666666753590107,-0.6616740298848599,-0.1958224318295717,0.7107692655086517,-0.11013327636718749,-4.724956684057414,-7.969848998370766,-21.75840088415436,0.03651237703388988,16.584534295416994
1698674687.209,0.01666666753590107,-0.6183206989139318,-0.23846476498693225,0.46994390887022014,-0.09427169036865234,-4.715229947552085,-8.239495375823974,-25.983089744313393,-5.7192153590542185,18.998456336788315
1698674687.226,0.01666666753590107,-0.7381605457812547,-0.009278408215939999,0.21400340068638324,-0.2711433014800772,-4.410418440954387,-8.537124569702147,-24.674903612580852,-13.386731079797173,15.246669284193453
1698674687.243,0.01666666753590107,-1.063560009312257,0.1964636523425579,0.23274083438217638,-0.6419453566620126,-4.156184152166545,-8.544905725097657,-18.239630857736362,-13.319852428765346,8.089458340683308
1698674687.259,0.01666666753590107,-1.1799959660202264,0.20440438221395016,0.36750001796185966,-0.7887397728851064,-4.11787721786499,-8.426542380523681,-8.708571446489005,-8.578944701325918,-0.4090563474932142
1698674687.276,0.01666666753590107,-1.2222540491003542,0.04457388574182987,0.7184516367048025,-0.8349778289794921,-4.263623659405112,-8.082675167083739,-1.0732037186220085,-0.7189437910448381,-10.552327225194233
1698674687.293,0.01666666753590107,-0.8848245405577123,-0.28468086497783657,0.9161831170260906,-0.48243167105410245,-4.589534360393881,-7.885901718139648,-1.3910211718825758,1.2893400389868903,-13.69564687557851
1698674687.309,0.01666666753590107,-0.6362286960482597,-0.5103425547540188,0.9225432997077703,-0.2180219886779785,-4.8074067114681,-7.8826102753788225,-4.54577007662581,-0.8011934626386605,-11.162382646386847
1698674687.326,0.01666666753590107,-0.4672421025656163,-1.1142562503919005,0.9468851292818784,-0.044741680056788025,-5.38545706705302,-7.870638682556152,-11.785575082674335,-3.4118453359521537,-3.428044410229308
1698674687.342,0.01666666753590107,-0.5392201280616223,-1.1783838546484708,0.9583598784983157,-0.12569558715820311,-5.416731618499756,-7.875427085876464,-15.970373930533201,-5.5913345809977155,-0.23791998142302095
1698674687.359,0.01666666753590107,-0.6235097919896244,-1.006478304979205,0.9521031561911105,-0.22251111679077148,-5.207089043371379,-7.900266928100585,-15.65005513393253,-5.164807196576991,-1.2946878636635988
1698674687.376,0.01666666753590107,-0.6980008962851018,-0.690553868214786,0.9375672658383846,-0.30361469802856444,-4.856338207897544,-7.931541187286377,-5.434514718314692,-1.151084950633079,-4.821191905377874
1698674687.393,0.01666666753590107,-0.47237296264804896,0.3275935395091772,0.5711071123182774,-0.4118027175129158,-4.8587324095577,-7.751677372089028,3.1753858944336044,5.321981802210032,-9.033294007557044
1698674687.409,0.01666666753590107,-0.4237682139549404,0.4277490272194147,0.5638870979368686,-0.37603933021433184,-4.928015204620361,-7.650971264758706,7.121095037613234,10.49233340484578,-11.5141612943046
1698674687.425,0.01666666753590107,-0.3269853810155764,0.19600772526860236,0.49629590922296046,-0.2905962539009284,-5.277717700085043,-7.640496632495522,5.483562733631377,11.870571664253266,-10.42446949902618
1698674687.443,0.01666666753590107,-0.06736974624926224,-0.17527882549464702,0.048802317091822624,-0.11596916574670467,-5.593453044018149,-8.125022024425864,4.783504629085035,6.585247914205516,-6.046448014642237
1698674687.459,0.01666666753590107,-0.09220277514010668,-0.23656477658450603,-0.18282909474372863,-0.18151044076005926,-5.6051253616333,-8.38898334197998,9.150510298998217,2.2826867866586964,-5.946295243295047
1698674687.476,0.01666666753590107,-0.2797569804432802,0.21973989851176737,-0.5529232208520174,-0.47644616690371183,-5.104138664245605,-8.786271179962158,17.87652263353285,0.7015162965732861,-13.987272901249606
1698674687.493,0.01666666753590107,-0.7074369792807846,0.2909785038173199,-0.7973743667721748,-0.9072528463943861,-5.074809109386801,-9.003395927539467,22.483019068295597,0.4798387718008199,-22.9914925010572
1698674687.509,0.01666666753590107,-0.7431525088496506,0.39667993521690365,-1.0051239677608013,-0.9068039518494159,-5.021089794158935,-9.177723735919594,24.86430134317072,-0.6638640783607974,-27.92023213821927
1698674687.526,0.01666666753590107,-0.5798755617180839,0.044537060862779615,-1.3831453797370195,-0.7034464300735853,-5.449202978515625,-9.50557972575724,26.648054763791034,-8.611948175395419,-28.262812228872306
1698674687.543,0.01666666753590107,-0.5189220574529841,0.023318331745266912,-1.5201742618143557,-0.6175544272491708,-5.529258512005209,-9.6028435836792,28.99542344188975,-4.9132180322732175,-29.2235688356411
1698674687.56,0.01666666753590107,-0.5200222372472286,0.1414163033813238,-1.417895206078887,-0.5683236464790534,-5.480775928387046,-9.452757067108154,37.441129935528934,11.967720859912943,-30.38712912679321
1698674687.576,0.01666666753590107,-0.15650548023525623,0.09946166022717952,-1.562339917370677,-0.09771340548747684,-5.645976427459717,-9.509469718933104,49.99118247879341,23.10521515073791,-21.207117533222412
1698674687.593,0.01666666753590107,0.43044579202271993,-0.4763759877443313,-2.296436282452941,0.5568014870574698,-6.326228389629721,-10.166229746356606,49.99501763001237,16.517338894362407,-12.603379245209348
1698674687.608,0.01666666753590107,0.5274628355767578,-0.5455804568737745,-2.5324346573263403,0.6923731377975083,-6.489333962249756,-10.330830525970459,41.2809495887888,6.48246680068834,-8.953058921603258
1698674687.625,0.01666666753590107,0.3721772525252774,-0.1120282963335514,-2.35298526814878,0.5753565499236807,-6.152050803375244,-10.076147324371338,31.953042201572426,11.192849558953336,-14.456431765148611
1698674687.642,0.01666666753590107,0.3775421040266752,0.7954881146341561,-2.086733209308982,0.650474627011083,-5.302108629497885,-9.76235726928711,27.549936847461613,34.318155711134835,-16.148983377329035
1698674687.659,0.01666666753590107,0.6907156346477568,1.3204682665497063,-2.544475808253884,1.0645219131469725,-4.833294601440429,-10.170867927551269,30.73694409532458,36.2145304134322,-16.2298955057843
1698674687.675,0.01666666753590107,0.9878056801479309,1.7058230901539324,-3.5639340063154696,1.4540285957336425,-4.528931715393066,-11.119121422576903,28.72190851657659,7.675010999583397,-10.38447276502023
1698674687.692,0.01666666753590107,0.9099276368279009,2.161142845866084,-3.3556039750903843,1.3807061698913574,-4.113088230022788,-10.877756552234292,9.692235653960378,-13.265997240933443,-4.3310746060106835
1698674687.709,0.01666666753590107,0.6578634586207568,2.242047105139494,-2.9045833778768775,1.0993873652251436,-4.021360378918051,-10.437522137451172,-20.985211517277868,-16.639192884250022,0.352837167156545
1698674687.726,0.01666666753590107,0.42482554098814723,2.787458050665259,-2.3036259016960856,0.8378209069183096,-3.3777690451472995,-9.918728565216064,-49.47580030968634,-2.2669321015644157,-0.9203115348768598
1698674687.742,0.01666666753590107,0.7749486730176955,3.762119660145044,-2.441100773975253,1.1982978943755849,-2.2981337340205905,-10.139444030761718,-52.48861724314648,10.226247164028655,-0.7598501141491618
1698674687.759,0.01666666753590107,0.847349673166126,4.046079809632897,-2.6776608743846415,1.30229606552124,-1.9237410339355467,-10.44455568934977,-33.6339210204613,19.29297238625197,0.02748289363155947
1698674687.775,0.01666666753590107,0.8720135743014514,4.570163304969668,-3.099156101906299,1.3730746155669913,-1.3693331274837255,-10.88643436420858,10.596078855696396,10.338348497555135,-2.2313984692942475
1698674687.792,0.01666666753590107,0.4043924458229914,4.369712628817558,-2.386001402565837,0.9246106805663555,-1.6106985823482274,-10.140641131591796,26.92323796280897,3.700806093743063,-4.764888948502166
1698674687.809,0.01666666753590107,0.08482066553216427,4.028019836807251,-1.587970617711544,0.6181529045989737,-2.0057418562740086,-9.300276348876952,24.357835986025105,0.7972697324038998,-7.689337321367499
1698674687.825,0.01666666753590107,-0.18346110903695226,3.5799586739212272,0.00362637380361557,0.3779845505645498,-2.4890719009399414,-7.678953496661782,0.20498697035976154,8.50066902589028,-7.657154323772045
1698674687.842,0.01666666753590107,0.02496054599434137,3.0284663626551627,0.5552735833704471,0.6217442436218261,-3.0137013397216794,-7.145794129943847,-25.96577521476741,15.99477990398495,-5.2110941079216975
1698674687.859,0.01666666753590107,0.3653093760497868,2.8040993888646364,0.326060923114419,1.0016741195678711,-3.16678002384603,-7.427263047137856,-41.62358602850249,17.313446960998878,-0.5260808066682459
1698674687.875,0.01666666753590107,0.9619073418468236,2.388149520510435,-0.3450812654048204,1.6334440095763652,-3.46680341938436,-8.183381274414062,-41.42810942955131,8.383945361842994,1.749174520730065
1698674687.892,0.01666666753590107,1.331780226419866,2.4905934114187955,-0.5925228253126144,2.0052934549193826,-3.286939019665122,-8.487893798065185,-34.01596765168596,-3.655556944265375,2.6415679775396153
1698674687.909,0.01666666753590107,1.4844292869552969,2.4481109449982643,-0.37618893585205077,2.135178821917623,-3.265690479931235,-8.319701131439208,-29.587344710835982,-11.488556622653514,5.262617213038866
1698674687.926,0.01666666753590107,1.748747162862122,2.3514643421918153,0.44569443375468254,2.3515548334868623,-3.276614025005698,-7.5625348564147945,-34.79261480182977,-9.050383994634062,11.076056739240702
1698674687.942,0.01666666753590107,2.090831438408047,2.4459505520939824,0.9425678506046533,2.662801158905029,-3.108271720775962,-7.119308274078369,-35.526866967795314,-4.361937669549032,10.676825352064288
1698674687.959,0.01666666753590107,2.4640742378056046,2.953358222439885,0.803190944096446,3.0186392710478973,-2.519298112377524,-7.315483172607421,-20.913180342290914,2.6045886930429316,3.648444582905276
1698674687.976,0.01666666753590107,2.3963532852321863,2.8335850110679863,0.8248468955874443,2.9676128846984353,-2.615814366802573,-7.308301152148842,-0.44999159217980467,16.49386011909049,0.19073013774633674
1698674687.991,0.01666666753590107,2.5230279465556142,2.6152415353506804,1.083613567107916,3.1452328664917495,-2.8561323584407567,-7.031022087860107,20.089717368028545,31.972631184112025,1.5447485596971702
1698674688.009,0.01666666753590107,2.457437868531048,2.3061896147042513,1.1726268985569477,3.18204357088618,-3.2401024496883153,-6.88243253184855,28.553735598832535,43.25907824035663,6.386139789050005
1698674688.026,0.01666666753590107,2.475220485720038,2.1633470779120922,1.1458277389585971,3.278111204760894,-3.439719597625732,-6.862380508422851,22.992952453992288,44.02643291813464,12.632892492612974
1698674688.043,0.01666666753590107,2.504119247946143,1.6404355489641427,1.2750047384917735,3.3728316618103533,-4.004451914215088,-6.69688190318644,13.326356476402491,40.792485195200754,19.247502109399903
1698674688.06,0.01666666753590107,2.5108830429926514,1.493930982533097,1.2659516634643078,3.423708374023437,-4.173392184337973,-6.685059947967529,3.615686995645895,33.437351591242916,26.034968446154227
1698674688.076,0.01666666753590107,2.402782587627321,1.2289496742814778,1.2087795774340628,3.3352725502014158,-4.447977187237143,-6.733093618774413,-2.206886841353776,23.493053782378745,31.343055082271512
1698674688.092,0.01666666753590107,1.9725405745483933,1.0879244160443544,1.1976198855161666,2.9076082055907695,-4.591629286846518,-6.74207129047811,-2.4033252163174583,27.623556041430593,33.674465023374495
1698674688.11,0.01666666753590107,1.8137439511686562,1.0560977836728096,1.0158552051335572,2.769642407989502,-4.627242452019453,-6.918644247436523,-2.437125474642324,43.4821180677034,35.900696881448454
1698674688.125,0.01666666753590107,1.3132007597647606,0.6710434043198824,0.3140589351534843,2.348861466217041,-5.020640296825766,-7.604433385467529,-0.3060078427422038,66.64009301468506,37.980656823352
1698674688.143,0.01666666753590107,1.165388837062195,0.07607143228948116,-0.9002262539595365,2.3217770599365233,-5.6295162910461425,-8.791957408905029,-2.2013535343524193,71.85416380442442,38.6418942670901
1698674688.159,0.01666666753590107,1.1976103870354593,-0.6024912616193294,-2.267379114794731,2.431760698699951,-6.308421514782309,-10.147076133075355,-9.172575225111943,59.66149066419711,41.08735812204854
1698674688.176,0.01666666753590107,1.1446867522299289,-0.8886638264596461,-2.7386241693913935,2.4269722953796387,-6.578218698883056,-10.622474215698242,-12.45996149433836,42.49888843101797,42.86307753265763
1698674688.193,0.01666666753590107,1.0205588527798652,-1.3927607648223637,-3.016203677931428,2.3244706829346713,-7.050324754223227,-10.919504859161377,-11.393962771517069,31.160497786135412,47.286178265563656
1698674688.209,0.01666666753590107,0.6873201469905674,-1.7379647798240183,-2.6375258478730914,2.0136732337951657,-7.359925540924072,-10.562469536590575,-11.663273715396086,40.278247082779664,53.22800571136787
1698674688.226,0.01666666753590107,0.2566241065338254,-1.8606757982134818,-2.4139994165599346,1.619976844433695,-7.452849908336996,-10.353725079345702,-9.647955537571185,53.59231775641259,60.526827820713535
1698674688.243,0.01666666753590107,-0.9037367462985217,-1.5719383513212204,-2.220142147323489,0.6106710609436035,-7.059602285656332,-10.205284576416014,-0.578475507956531,56.450529942914905,61.39992407212709
1698674688.259,0.01666666753590107,-1.8505257217295468,-0.4504927739471197,-2.302674884581566,-0.26171602284535767,-5.90559708546102,-10.295665689086913,-7.756316717689582,45.40476850773779,52.45090776873884
1698674688.276,0.01666666753590107,-2.0305390284001827,0.30485213086903096,-2.486834351146221,-0.4225765930175781,-5.131820451897382,-10.488548560333252,-15.204209413218068,22.979753113421236,40.839883292946055
1698674688.293,0.01666666753590107,-1.9921129977636038,1.4402344636589288,-2.918445314490795,-0.4234742725096643,-3.973775620922446,-10.943297238159179,3.5035568472588534,-16.98961915471211,29.765947327442642
1698674688.309,0.01666666753590107,-2.3957694939948615,1.4233768523603676,-2.2006483423024417,-0.9162309016905724,-4.020313500213623,-10.222343263244628,25.693069666870898,-42.20925084416899,23.689652239901097
1698674688.326,0.01666666753590107,-2.5901626236736774,1.162260402843356,-1.5144927090466023,-1.2436379787169396,-4.339340286907554,-9.520093988800049,23.553009182913115,-55.37482637505667,23.28912994697155
1698674688.343,0.01666666753590107,-2.968069469359517,0.6118330904603004,-0.16582184584140777,-1.8022353727478533,-4.9152954237788915,-8.182184173583984,-7.880455405854564,-43.304280432283775,21.485830232493953
1698674688.359,0.01666666753590107,-2.899064322194457,0.7734756047904491,0.7933633775651454,-1.8121114545959978,-4.694281267547607,-7.274632691302895,-40.56264591453524,-14.202487039354828,13.023870449951074
1698674688.376,0.01666666753590107,-2.617668470236659,0.988759108415246,0.8352712589681148,-1.5375262325011192,-4.357596074566245,-7.314585346984863,-66.89633439158726,9.276767199579549,-0.33675023071174026
1698674688.393,0.01666666753590107,-1.932858698631823,1.1528116064965723,-0.5596878926813602,-0.7839511869017034,-3.9456443359374997,-8.857648316955565,-82.73714134111262,10.288554710958449,-21.03017977522594
1698674688.409,0.01666666753590107,-0.7659371721096336,1.3574249552860855,-2.488805358958244,0.42586862030029293,-3.539078089739382,-10.901548346710204,-71.10671571298242,-15.214290772433008,-33.58485294146393
1698674688.425,0.01666666753590107,-0.31885084560513494,1.250100306598842,-2.765969856956601,0.8599673818726092,-3.4934389128535983,-11.267711563110351,-47.8869343842013,-40.782274062391586,-41.93788059825521
1698674688.443,0.01666666753590107,0.16838051734827458,0.8456114511966705,-1.4836357984900475,1.288978318786621,-3.777002464239299,-10.059537550354003,-12.957988152764424,-46.23691094488796,-51.26224311729235
1698674688.46,0.01666666753590107,0.6370740608312189,0.6067585636749864,0.377820336446166,1.7375918548583984,-3.9817067061826585,-8.218995024108887,5.0620162646628835,-31.41084470978389,-55.88773260058961
1698674688.475,0.01666666753590107,0.8927320257466286,0.39196167452335356,0.8400596622884273,2.0102315689086914,-4.196586305181682,-7.754520486560463,13.196927806725334,-15.001832615657884,-53.95732306565807
1698674688.493,0.01666666753590107,1.513670871269703,-0.10478402429372072,0.39112522369921204,2.6747720941405744,-4.713583933910727,-8.186822939300537,24.167128566661887,-19.345392380584528,-49.763559594513566
1698674688.509,0.01666666753590107,2.181299498710036,-0.022234628161787985,-1.0114543398261069,3.3345244352478534,-4.675127362005412,-9.566631283569336,40.457682982465066,-46.60150302768865,-47.989605787804926
1698674688.525,0.01666666753590107,2.29833042563647,-0.17221008557379244,-1.4305413371622562,3.370287676415965,-4.919784551891684,-9.944167542377114,61.71865484974574,-78.07037360956639,-45.43169994363515
1698674688.543,0.01666666753590107,2.571828217820823,0.05920388411879539,-1.062747304689884,3.4606689352173357,-4.883422614178061,-9.485976615142821,83.79207771879943,-88.98825341291335,-38.307901431771064
1698674688.56,0.01666666753590107,2.5236510468900204,0.37231706285476684,0.28040684092044826,3.287388370867818,-4.742912904247642,-8.051550545501708,85.06374282903991,-64.66797151449227,-27.14413140320906
1698674688.577,0.01666666753590107,2.438755233762413,0.5325099628984927,0.5891799446254968,3.129969684777781,-4.75009550922811,-7.644087350463867,75.88528681105258,-29.626662694793158,-14.530406128954434
1698674688.593,0.01666666753590107,2.191840181946754,1.2732552644759416,0.04877133743166923,2.871695326818898,-4.202272826385498,-8.058433875274657,68.37418242230292,-1.4077476648297025,-11.61940682545168
1698674688.61,0.01666666753590107,1.983052323951572,2.2722300619572398,-1.2714414930522442,2.6898855651855467,-3.336320013427734,-9.284863675689696,68.22115203394878,1.693307415300769,-17.737463397125975
1698674688.626,0.01666666753590107,1.9083822828926145,2.734616687315702,-1.8399299473047255,2.649633122839406,-3.0087627142757176,-9.75412720108032,68.4953636385573,-0.030890437655881807,-23.40976133299773
1698674688.643,0.01666666753590107,1.717159599943459,2.8486878876537083,-1.4361001403331757,2.5338136175293475,-3.0527567543029783,-9.225607184600829,53.00535861989838,24.834946897665297,-18.664147605220162
1698674688.66,0.01666666753590107,1.8814599353060124,2.6486265030801293,-0.19361060099899768,2.8089970247130838,-3.3253964683532713,-7.915081050872803,29.530736102994915,55.26408510294867,-16.210992957256288
1698674688.676,0.01666666753590107,1.5656696463152766,2.401015431824326,0.40751287939846514,2.661454566601664,-3.6007290747493506,-7.270293200793862,8.07391026881142,80.10301741599467,-16.72665857921391
1698674688.693,0.01666666753590107,1.4044259220443664,1.8969243386805057,0.8658440918862819,2.754678647613525,-4.082562158855795,-6.788758807373046,-10.811504729665891,75.46973127175984,-15.56213352384154
1698674688.709,0.01666666753590107,1.2929716262064874,1.2779922298699617,1.1830214513212443,2.808548184967041,-4.649838899230957,-6.480804618835449,-21.426904482976962,57.33016951555334,-10.394557539329755
1698674688.726,0.01666666753590107,1.2518063798643648,1.167333468323946,1.4777385571449995,2.8700493862427767,-4.6897921394348145,-6.219388309589028,-41.31095119471808,36.92903650250723,9.983719953206196
1698674688.743,0.01666666753590107,1.7441348467610776,2.2437007175654173,1.5039637162476778,3.40260947189331,-3.4307407568782566,-6.32039310760498,-77.9187912213163,14.371751079818793,38.11311468192606
1698674688.759,0.01666666753590107,1.9985989987820385,4.5417005960732695,0.35808103223145005,3.656544631604105,-0.9401730644226074,-7.602488681140541,-56.218433284728704,-1.3436273430055037,46.71923841350675
1698674688.776,0.01666666753590107,2.009932732092589,5.299949405637383,0.219220258551836,3.5939959671020505,-0.14350246200561523,-7.782651771545409,16.675030886825077,-17.866376387520795,41.11576487880663
1698674688.793,0.01666666753590107,0.8101884017683565,5.142152460819482,1.8548738339364528,2.2902033794127403,-0.4661205511897802,-6.0525417968749995,80.34983313184225,0.7037461932547366,38.25588271105225
1698674688.809,0.01666666753590107,-0.4616650330856442,4.123634758478403,4.30465651153922,1.0097546963013708,-1.6496043593257665,-3.484760516357422,64.1660482331447,49.09460403701335,44.800488011488426
1698674688.826,0.01666666753590107,-0.7086991812363267,3.7421161520361896,4.929966923210024,0.8466495620727539,-2.1330834570735693,-2.766350380706787,18.91122628335079,101.80539708857658,49.097298546640914
1698674688.843,0.01666666753590107,-0.1108759114280343,3.8359021047145125,2.9831822828173635,1.6566380573548376,-2.0658961729854344,-4.646696509552002,-8.710363517372487,129.3107123101905,60.58289684361017
1698674688.859,0.01666666753590107,1.6055802164211868,3.5971669983536003,-1.192807516798377,3.512742748260498,-2.334196396526694,-8.76592046585083,9.082284393152607,113.68137484755792,81.39371826345199
1698674688.877,0.01666666753590107,2.1971071625642478,3.513591474044323,-2.7531016075551507,4.153191838482767,-2.49640414352417,-10.251372958374024,21.1835687485115,77.24724702212065,96.09397924423358
1698674688.893,0.01666666753590107,2.593975459960103,3.5825551201552153,-4.113262417545914,4.4960115886963905,-2.5083745673030613,-11.559953803253173,-13.72018433017178,36.458057393194416,91.92750237882328
1698674688.911,0.01666666753590107,1.8331714129552243,2.5652736816108224,-3.955616279375553,3.6495115180969235,-3.5067566595882176,-11.439047203937172,-45.00516146015703,22.06194302860619,86.83069910694387
1698674688.926,0.01666666753590107,1.3535513287231324,1.2758306679219007,-3.1642297548413274,3.0921115902222693,-4.7283986412048336,-10.720486846160888,-62.49552056594299,40.2973477067936,85.39946711731355
1698674688.943,0.01666666753590107,0.5150988093703985,-0.19742752893865106,-1.394019240450859,2.257283398846537,-6.05852730102539,-9.061005820465088,-76.6309112419862,86.28184559580916,73.09991517695387
1698674688.96,0.01666666753590107,-0.16022665618285536,-0.45097851163744923,-0.917653774100542,1.6903063720703124,-6.188412156566977,-8.652494577679038,-72.72214424414965,113.8000698749544,59.299989241995846
1698674688.976,0.01666666753590107,-0.4924439099699259,-0.8886907144665718,-1.2848854965150356,1.506850815991312,-6.505344601330161,-9.071181177520751,-74.78311284506597,107.56941421971786,52.28185034149727
1698674688.993,0.01666666753590107,-0.6995004141278565,-1.502835004478693,-2.2105045504063368,1.445349906976521,-6.922833515819907,-10.096797313690185,-96.97678119445773,76.94331043424424,71.71295647352358
1698674689.009,0.01666666753590107,-0.7584837873637675,-2.355795064872503,-1.4438245971053838,1.4169184700012205,-7.6108678024291985,-9.432705628204346,-102.80528214155309,63.433530935228355,95.85978571797219
1698674689.026,0.01666666753590107,-0.8414289048150181,-2.0401777943611146,-0.7302905430585146,1.3352163383483886,-7.139658988189697,-8.819041815185546,-94.16829620020769,67.37740510539878,98.42792318551864
1698674689.043,0.01666666753590107,-1.5164603558577596,-0.08112111689448356,1.5377654480844736,0.7721300354003906,-5.019891524285078,-6.619518677520752,-62.4088522955647,116.61651886977667,64.63617698390586
1698674689.06,0.01666666753590107,-2.1231196969419717,-0.16728256604373454,2.7110353207200766,0.38501784673482176,-4.999840962164104,-5.445312400817871,-66.24752106194941,132.96370238398842,31.611519082693448
1698674689.077,0.01666666753590107,-2.2734806465402246,-1.0121022823408246,1.1992635610699653,0.4484641907289624,-5.690568141119182,-6.97834965133667,-91.53967740756079,80.78170599306216,12.779114889911899
1698674689.093,0.01666666753590107,-1.9041496137589216,-3.3363305348217485,-2.8255016578555106,0.8473980423524975,-7.721898612158,-11.154137206378579,-110.1190145538569,-54.254644615323315,19.42498628252998
1698674689.109,0.01666666753590107,-1.8625775401815772,-3.8999686264336106,-5.2396343454062935,0.6509235763549804,-8.099583631786704,-13.737629850769043,-66.83171397184978,-124.60252631151731,41.32556779954191
1698674689.125,0.01666666753590107,-2.256435549845546,-3.7547295498937365,-4.192044862359762,-0.07840981210917233,-7.9176243056148286,-12.800000041088461,12.874911708115913,-125.03948083347971,46.253457078152316
1698674689.142,0.01666666753590107,-4.034461268031597,-2.2164260494098067,-0.7539484820216894,-2.180369378253072,-6.567743774358928,-9.344569079589844,93.97142965776042,-57.37158095249112,18.74551906389711
1698674689.159,0.01666666753590107,-4.8459319646954535,-1.5721920338213442,1.2624825260490178,-3.0371942973814905,-6.146663557378948,-7.221211482238769,108.9210608451392,6.806226731970231,-14.139353893309108
1698674689.176,0.01666666753590107,-4.434110866709053,-1.7994076750412582,1.017502387818694,-2.5170538405820726,-6.576123480169475,-7.329848382568359,87.33078506740469,48.84524749079452,-42.575765625221045
1698674689.193,0.01666666753590107,-1.654963256010413,-2.1816063727021215,-2.6042542773902415,0.46312882202789185,-7.11197603149414,-10.812513972473145,53.17160883939108,7.2947547316949235,-57.16836574921032
1698674689.21,0.01666666753590107,1.3153219897024333,-2.142722223034501,-6.253916017612815,3.456628792981058,-7.130081597027182,-14.42162333755493,47.41644021831956,-62.99782633788407,-41.02566785346499
1698674689.226,0.01666666753590107,1.7836372744575142,-2.395729015854001,-6.763280667245388,3.77146660355255,-7.47634301212728,-14.912285624805092,62.042180420161735,-118.80780748005684,-25.036466506484647
1698674689.243,0.01666666753590107,0.8128606897175311,-1.9400918647557497,-5.018978501093387,2.4482211273744703,-7.2255509727478024,-13.115885607147217,90.77868505099464,-144.4445127183495,-14.614484050089999
1698674689.259,0.01666666753590107,-0.8412560324661433,-1.961529205060005,-2.1914275094926357,0.5252282814577222,-7.436091081237793,-10.212167906188965,92.53608589424975,-130.16096157883038,-16.276654980842206
1698674689.276,0.01666666753590107,-0.9191358293518423,-1.1796698028057813,-1.971691702634096,0.15143340113535522,-6.8765954962581395,-9.881768077087402,75.65390049254006,-119.32819959292011,-28.464548696197802
1698674689.293,0.01666666753590107,-0.6306899858172983,-0.6582815379023551,-2.593947402909398,0.2407670505799353,-6.503848225292563,-10.41956504047811,82.65951624119542,-126.46403972829093,-42.10160706284959
1698674689.309,0.01666666753590107,0.3150908354844898,0.6124018302589654,-3.367913421565294,1.0039189028199762,-5.4216690749019385,-11.067646671405434,117.39046126500915,-129.20586890643082,-56.594783538185574
1698674689.325,0.01666666753590107,1.0559246921282261,1.3562234705418348,-3.2380595456838606,1.585410521432571,-4.946120770153403,-10.732757129669189,162.41068329228605,-126.86529968165084,-61.736406511398606
1698674689.343,0.01666666753590107,2.1490217615701255,2.5905408093363045,-1.8726444684267043,2.523488769000396,-4.170250379180908,-8.966434854888915,201.01798606632462,-98.85281559340679,-56.55055123312057
1698674689.36,0.01666666753590107,3.0007991880506277,3.7090088322043417,-0.25728841566145416,3.3155206057008355,-3.4121856940120456,-6.992265948486327,200.4106866264621,-68.14765919847945,-43.64924596650444
1698674689.376,0.01666666753590107,3.062702101995051,4.107781940308213,-0.10702829608917236,3.3524810938294975,-3.335870516094565,-6.484993887218833,176.61807782255954,-52.30702300368335,-36.205094507093825
1698674689.392,0.01666666753590107,3.274256940485537,4.952282215392589,-1.1624977187305687,3.536684746595751,-2.8043577475398775,-7.1571660033077,115.07915257063351,-77.58205606504549,-46.90683297415573
1698674689.409,0.01666666753590107,3.554410391166806,5.677122676351666,-2.119223274025321,3.7945104657379907,-2.2144863135188815,-7.93603031539917,68.67927331214905,-95.8414466600507,-63.67964314159142
1698674689.425,0.01666666753590107,4.220789895328879,6.312853359749913,-1.402907480305433,4.4782046407837415,-1.6704045707702635,-7.092523143005371,34.674469604661475,-73.88422579934644,-73.25460530127633
1698674689.443,0.01666666753590107,4.333072458684444,6.178787419131398,-0.6572843435585498,4.660612843234278,-1.8371002768367528,-6.297199279022216,17.7823975041282,-25.651702626162717,-64.2310989547999
1698674689.459,0.01666666753590107,4.915978729867935,5.933251985105872,0.1730833612769842,5.411494411966018,-2.0874445724487303,-5.447706602478027,1.1362941759854164,36.652700709066856,-40.52421244007558
1698674689.476,0.01666666753590107,5.59958643220663,6.332554085519909,-0.8207692708849906,6.231957722174376,-1.6678601469844578,-6.456713549152016,-15.209362790946845,42.76250299712919,-25.980968970576104
1698674689.493,0.01666666753590107,5.735970586639643,6.682675098657608,-1.7755553825497625,6.479009259851276,-1.2491747161865234,-7.494300693622231,-50.0425933126761,26.479081006366794,-14.34181094559204
1698674689.51,0.01666666753590107,5.6151481584757565,7.5367866671741,-4.04659594246149,6.417358201776072,-0.28161797027587887,-9.911696182361245,-72.28268987295102,2.0465575420978355,-8.431257228450026
1698674689.526,0.01666666753590107,5.274789829939603,7.662914216008782,-4.142003358861804,6.090999099432676,-0.005835866546630859,-10.199598347473144,-56.47528596356162,-4.764281488552858,-4.699065561697107
1698674689.543,0.01666666753590107,4.724387651997804,7.159193125221133,-2.858649309697747,5.5554457502502945,-0.4376899909973144,-9.004143531036377,-31.75202973429895,21.369293544875195,3.347620853743112
1698674689.559,0.01666666753590107,3.223015121287107,5.553370039954781,0.5791098015099764,4.1310454731263215,-1.9816496175467966,-5.63131135776937,-31.651441538392174,66.08545433332336,15.50460113291523
1698674689.575,0.01666666753590107,2.1462913136929274,3.8464410343855615,2.6125878059715033,3.13475816116333,-3.62018196323812,-3.6677667212337255,-59.170502515710744,79.0151595265084,29.770940195725924
1698674689.593,0.01666666753590107,1.7454722328446803,2.953191633701324,3.066728581032157,2.7852047918457536,-4.387973092651367,-3.3517321020931004,-105.33986288970728,70.34687082819684,50.2389749116923
1698674689.609,0.01666666753590107,1.3242751114867626,2.0838222902983428,2.544059044146538,2.3247700312074273,-4.970062786754966,-4.1947915307193995,-159.29106269077442,38.24535738954126,79.89921823153983
1698674689.626,0.01666666753590107,0.986751787180826,2.5405922448188063,1.2919319078952074,1.8920179350037127,-4.233845191735029,-5.740697030639648,-167.20002559867734,24.48348414599666,86.45326285340897
1698674689.643,0.01666666753590107,0.6042187429990619,2.5375842951744794,0.8668652516275643,1.4067431860107928,-3.9703339560359714,-6.425140014758706,-131.58636741709867,28.47743897070891,85.14317792908716
1698674689.66,0.01666666753590107,-0.44027986136004327,1.6764450199782848,1.7598071937978266,0.3148376644410193,-4.605395946392417,-5.732766237640381,-61.33495531274193,81.46374819301212,78.95892657907169
1698674689.676,0.01666666753590107,-1.3363789523869751,0.46966100027561186,3.2835961389780044,-0.4896141664367169,-5.741145358929038,-4.2582372901916505,-30.3580905775369,136.79483745171862,73.87363217594375
1698674689.693,0.01666666753590107,-1.5716189101085065,-0.2038876648634672,3.439019924923777,-0.5300162463866174,-6.376656846618652,-4.109647149658203,-29.885031675621818,174.1405496445425,70.91089418947816
1698674689.709,0.01666666753590107,-0.896856046874076,-0.8180074049562215,1.3317717508524656,0.4614825161255896,-6.906523017010092,-6.234950035858154,-56.33286968917768,165.1964579075458,66.51811949648697
1698674689.725,0.01666666753590107,-0.5807226435340941,-1.6856366266936063,-2.7598504972934723,0.9560350888125598,-7.672219219970703,-10.373626880645752,-70.44862698645169,116.45902836789452,68.52423484817893
1698674689.743,0.01666666753590107,-0.7533733124822378,-1.9280624042659997,-4.75727519159913,0.852635212353617,-7.794922055053711,-12.44954935760498,-75.30427676930545,60.997455175284095,67.00418990877094
1698674689.759,0.01666666753590107,-1.5932918127343059,-2.208986547058821,-6.508415679338574,0.0056862289428710935,-7.932887341198325,-14.309095859527588,-49.86448588478426,33.39197864458652,56.67223105318435
1698674689.775,0.01666666753590107,-3.3467034602761268,-2.6993869685024023,-5.197172337251901,-1.7589894476741552,-8.37536573551595,-13.035081301116943,-17.659669250026823,32.87536021123968,51.06877459395715
1698674689.793,0.01666666753590107,-4.444162012863159,-3.428214453271031,-4.16463253929913,-2.854486929321289,-9.111433108410239,-11.99689560623169,3.064754118795735,38.86460283026212,46.13806786231412
1698674689.809,0.01666666753590107,-5.970445697468519,-4.386445736953616,-2.3686060311287642,-4.352957601110637,-10.107271945953368,-10.167725537872315,7.0834188603777966,34.814362124147095,32.257197355502264
1698674689.825,0.01666666753590107,-6.107790221366286,-3.606836159452796,-1.87918000767529,-4.471021670477092,-9.344418857464193,-9.661950437164306,2.9360921378529117,6.499076540089342,7.917961682134397
1698674689.843,0.01666666753590107,-5.76835251480639,-3.0007986035287377,-2.295415707233548,-4.151096765899658,-8.743025327953696,-10.078840801239012,9.158883257147007,-33.00968271145715,-17.53291630695702
1698674689.859,0.01666666753590107,-4.575501743388176,-3.274195273426175,-2.1432874557018278,-3.03105915562734,-9.082104722595215,-9.892691622161864,53.279197979197114,-52.31613447603615,-25.029424581450364
1698674689.876,0.01666666753590107,-3.5839380989462133,-3.7680759382009503,-1.3551111253857613,-2.101809490148723,-9.69756360233724,-9.024194969940185,80.1742767796054,-50.25464336564831,-23.34627301711517
1698674689.893,0.01666666753590107,-3.324986718508601,-3.1871932817995545,-1.2042395959168672,-1.8911195979245006,-9.273940130615234,-8.75843858566284,86.44973164560807,-38.5576199780159,-28.322917893568416
1698674689.909,0.01666666753590107,-2.509143213587999,-2.561067462092638,-1.286830200842023,-1.0594340884886682,-8.80422710789144,-8.709207229503988,53.447128425225635,-13.978745410070843,-29.92395692370172
1698674689.926,0.01666666753590107,-0.9993715417139232,-2.1289766062766313,-4.057522994667291,0.47450127991363406,-8.434921501812338,-11.421838879504799,46.25465919144624,-33.29227837327185,-31.53207032226786
1698674689.943,0.01666666753590107,-0.18035583649799228,-1.6487386824071406,-5.239804441276192,1.2494741375245153,-8.033594617572426,-12.54456923599243,51.565660610791824,-72.35460493472209,-35.44839150932645
1698674689.959,0.01666666753590107,0.6083841190502047,-0.26512802324593066,-5.20321746263504,1.8887261269167064,-6.762571642193198,-12.43608255778849,53.89986409926534,-114.94241218344986,-46.44221960114937
1698674689.976,0.01666666753590107,0.22595745785236357,0.18156769650578497,-2.2494553355693814,1.3681367573060095,-6.39715719833374,-9.431807802581787,50.835274331896514,-126.0793634742358,-59.757345539009066
1698674689.993,0.01666666753590107,0.4495423413544893,0.34350656343400476,-0.8370236555933952,1.4773722811158745,-6.309169702801108,-7.968352622333168,49.17814408075177,-105.50406063735439,-63.244020506517174
1698674690.009,0.01666666753590107,0.5854023257829248,-1.4616016613364218,1.9718916091203689,1.5782279529847203,-8.206126190185547,-5.0776533929020164,39.21568138378995,-38.44017829033212,-52.871483497071544
1698674690.026,0.01666666753590107,0.6711882926832884,-1.4519441906750201,-0.6325754342377186,1.6903065182007848,-8.243684644207358,-7.632863945659994,32.67727448002556,-50.81585951918075,-59.681660212816155
1698674690.043,0.01666666753590107,1.353526194281876,-0.2527086866557598,-3.4642888062149284,2.34437248423472,-7.09955552586019,-10.414777221679687,50.79238074390883,-110.16843097250194,-70.03096774889458
1698674690.06,0.01666666753590107,2.4477504411228,0.9712561849504708,-6.040218906396627,3.274519756140187,-6.028000645336508,-12.859108063617349,98.32195963073507,-159.19222985348435,-71.17421847254965
1698674690.076,0.01666666753590107,2.1058967594623565,1.8682710756480694,-3.760139299982786,2.7926866720337418,-5.322609565734863,-10.392630856323242,136.16587265180883,-143.58763816621473,-71.52078910122528
1698674690.093,0.01666666753590107,1.7610779443860054,2.537259885525703,-2.11310742149353,2.3805847843445838,-4.896142395019531,-8.479514676776528,160.51671281657653,-91.20017602467613,-68.86012306099265
1698674690.109,0.01666666753590107,1.7741642204523085,3.8802766684919594,0.01892915687561035,2.443282794189453,-3.879353708428144,-5.940163956451416,148.43901225064806,-17.235789417683126,-52.72066609000849
1698674690.126,0.01666666753590107,1.942996938547492,4.568709014508128,-1.530774566283822,2.703203458050638,-3.3827076705932617,-7.220014965930581,116.95903919627446,-7.111699258636235,-50.5088595914616
1698674690.143,0.01666666753590107,1.9504221201121805,5.038382874265313,-3.2060341758698225,2.810493546881154,-3.0514100158691404,-8.68197435466349,91.58407363716586,-14.24702243406425,-61.77359006124015
1698674690.159,0.01666666753590107,3.546260402458906,7.33456430517435,-5.182449399894476,4.581753643389791,-0.8821130896419286,-10.434529969897866,72.74355688719763,-7.762055784139686,-76.80695936784328
1698674690.176,0.01666666753590107,4.417937730543315,7.821695495688915,-4.660322883844375,5.626373828301951,-0.46716859893798823,-9.759814014545082,70.73449089378423,27.198653388258688,-70.78506844458818
1698674690.193,0.01666666753590107,4.322213211017846,7.366965522563457,-3.744572313016653,5.728726168469339,-0.9947907897949219,-8.671349500274658,76.27596680138815,51.16412403477053,-61.91492033554606
1698674690.209,0.01666666753590107,4.4807098285377025,7.828209407627582,-2.782716116835177,6.1435213138304645,-0.620097645458579,-7.476493526513874,62.500028490795195,38.69039885548095,-57.82009898471835
1698674690.226,0.01666666753590107,4.396857240852714,7.432879133453965,-1.5874977395027874,6.218939104516804,-1.0390829359859228,-6.178387606158852,28.696223590202756,14.070712199697773,-50.98148136126981
1698674690.242,0.01666666753590107,4.032848572137952,6.633401656922698,-0.8144824457004666,5.965153290148824,-1.8134575354427098,-5.406556261444091,-10.105465513840734,-7.845857082613865,-33.71402547904721
1698674690.259,0.01666666753590107,3.072580814191699,5.1096711639314885,0.40334786867350336,5.035155875042825,-3.2725738097041845,-4.293102851867675,-42.429200010916325,-23.79018067165264,-2.265579724108753
1698674690.276,0.01666666753590107,1.7283248448193071,3.8462364517241716,1.2102408821582793,3.645471595056355,-4.471172184863686,-3.6183880655586718,-66.06915067177454,-18.673709870058183,20.7393947165964
1698674690.293,0.01666666753590107,1.0702521273620427,3.5920810733914372,1.2421774046450853,2.9091046546936035,-4.6345752791255705,-3.7689223258972167,-93.79288168266712,-11.61470765530271,32.6064966447513
1698674690.309,0.01666666753590107,0.4698721588082611,3.5700212172746655,0.7941407916784285,2.209399365643412,-4.486135360717773,-4.52025331889689,-110.68877527404102,7.113288131391909,34.764040705437026
1698674690.325,0.01666666753590107,0.5085135857611894,3.344090062907338,0.3287351107597351,2.19608147277832,-4.5777129896968605,-5.200056368255615,-97.37122461902597,25.682513609508643,38.33621598097535
1698674690.343,0.01666666753590107,0.43080695348531006,2.746176192206144,0.6260141760259866,2.089389715167135,-5.064633167809248,-5.067028538513183,-77.27956747727313,47.35590083661115,43.025181827324126
1698674690.359,0.01666666753590107,0.5877611638687551,2.340916060170531,1.2078881815522908,2.231395947265625,-5.364806200951337,-4.630834339031577,-57.2537157930788,77.41212095849558,64.9962713871381
1698674690.375,0.01666666753590107,0.34165684391409157,1.4783634110450743,2.270028167998791,1.9674353603638708,-6.1738978935241695,-3.643526013946533,-55.970483757478895,91.61544469602373,83.77738598189472
1698674690.393,0.01666666753590107,0.10832228142246603,1.6352917563349008,2.445700376725197,1.7025768017090857,-5.951536414337157,-3.560028231048584,-78.7122474670075,92.21985496586733,92.88174127757658
1698674690.409,0.01666666753590107,-0.2942516802690923,2.1097715550690888,1.7724404653996229,1.2375031292237342,-5.316474423980712,-4.446481980243325,-116.4436331215053,70.15712817305388,85.99718380177053
1698674690.426,0.01666666753590107,0.12877499460354447,2.650474176773429,0.4562713573485613,1.605012937927246,-4.601355731090903,-5.978171907806396,-128.6230761853103,47.377279328713286,74.0896847197696
1698674690.443,0.01666666753590107,0.3869423850566149,2.3642431597441433,0.10907061557173728,1.8074727619446813,-4.698321482849121,-6.544700460162758,-119.96314763854284,46.218397717142636,68.7962471318747
1698674690.459,0.01666666753590107,1.0069792402386666,1.4240461299240588,-0.22545243093967438,2.3897125320434567,-5.443217474365234,-7.088333290100097,-70.45422091138192,68.81160822731805,76.66844996166459
1698674690.476,0.01666666753590107,0.7749404166460037,0.2811468456327915,-0.8262637766480445,2.1549311317443847,-6.523301698303222,-7.751976647296547,-31.578232155773392,76.76655196871349,72.85375515926661
1698674690.493,0.01666666753590107,0.4965386319376528,0.03567044831812381,-1.1207476582378149,1.904737204388529,-6.749553170666098,-8.059630976104735,-19.854275624696328,82.23923421099703,57.92428669031773
1698674690.509,0.01666666753590107,0.007240618778020143,-0.9076011666417121,-1.5680518652766942,1.4969747341431676,-7.6565072715759275,-8.525303199005126,-31.183488202881676,74.15752898879533,40.851853199466504
1698674690.527,0.01666666753590107,-0.13414119781181216,-2.1668980483919382,-2.7792291515022516,1.409885648754984,-8.866625988659262,-9.772083713531494,-37.22490322187926,59.31724229983929,37.08126775872847
1698674690.542,0.01666666753590107,-1.238215953668207,-2.8495944811046123,-3.0699650787353514,0.35164866109639403,-9.486575165557861,-10.11220998687744,-28.26702474804291,51.63660237060616,42.4392267286179
1698674690.559,0.01666666753590107,-2.247876834206283,-2.9753602108895776,-2.9302018032580612,-0.6411969859801232,-9.585335399517417,-9.993996279907225,-21.678231538771335,46.951802939651095,43.39079502340574
1698674690.576,0.01666666753590107,-4.563718658874929,-3.040304099965095,-2.640522107079625,-2.949656153051555,-9.623942485809325,-9.727192432403564,-26.13092918889832,35.239520909412875,39.450257400644865
1698674690.593,0.01666666753590107,-5.763867478346825,-2.5401170285224914,-2.1609511226862668,-4.158278786358237,-9.057562986534833,-9.310451705932616,-38.418523175568595,13.618994223844394,16.912443139732844
1698674690.609,0.01666666753590107,-5.827805989772081,-2.303038457196951,-1.6542653368741274,-4.206163404083251,-8.754697645568847,-8.859593605804443,-29.47636438210703,12.812634043263737,-8.548050048162658
1698674690.625,0.01666666753590107,-4.833118075829744,-1.9454022461235523,-0.7294342184901237,-3.1468783686764534,-8.357708498272299,-7.95503487559855,1.1203694832138258,20.682582910627527,-27.498952900402053
1698674690.643,0.01666666753590107,-3.5051655910044905,-2.096860051047802,-1.4088117359131573,-1.7070654914304613,-8.563609841045738,-8.558522747039794,56.635908107178224,7.306912468417546,-27.90519718430878
1698674690.659,0.01666666753590107,-2.915194788262248,-2.126837840682268,-2.1342945864289997,-1.0872662443965673,-8.703371362957357,-9.175478587341308,70.17731821224044,-21.416117906730218,-19.03769748111733
1698674690.676,0.01666666753590107,-2.018969586637616,-2.0889339342236517,-3.59250543628335,-0.24480697362050413,-8.781781467327475,-10.537181366077064,66.0356076127606,-66.65043392108846,-7.204781503531992
1698674690.693,0.01666666753590107,-1.8197889304213224,-2.090044525814056,-3.6853660908102985,-0.2626137023374438,-8.932916031646728,-10.535235492706299,62.28491168288565,-116.51138859807183,-6.1024935587636
1698674690.71,0.01666666753590107,-1.447477858915925,-1.6661305467128753,-2.900269021809101,-0.0787092334471643,-8.596979611206054,-9.701754039764404,40.42530788579921,-114.79721602207373,-14.363240664112956
1698674690.726,0.01666666753590107,-1.3102948091901838,-1.625119321888685,-1.8970418275803327,-0.10699052136205137,-8.588300630187987,-8.696788477435707,14.028105479655233,-111.28352082620906,-17.634117512341806
1698674690.743,0.01666666753590107,-0.9337898661915213,-2.0713117682933806,-1.698078759637475,0.061201853002980346,-9.012223377117515,-8.554033618927,-3.524624992640581,-113.76424553275768,-18.853710967897406
1698674690.759,0.01666666753590107,-0.5128070451714098,-1.8797183523356913,-1.7152467520594596,0.3155859255250543,-8.800037839508056,-8.614038298034668,-6.7619888773765275,-111.97274838516587,-19.618333570007408
1698674690.776,0.01666666753590107,0.4570703987717628,-1.1600696148008107,-1.5849778656363487,1.0854713238038123,-8.072200534820556,-8.513032915496826,10.067699690372441,-92.92684101666617,-20.3240116395802
1698674690.793,0.01666666753590107,1.3611607808135449,-0.9001222090631723,-1.8671219056129456,1.8758572199281305,-7.836819999584555,-8.779986400604248,24.226206287887912,-79.29885143368487,-24.16391667020469
1698674690.809,0.01666666753590107,1.7601991157248615,-0.56905076431036,-2.470058572912216,2.1897969126161185,-7.558643694195151,-9.335290963634849,39.41054668081041,-77.33411336798486,-35.410712770770076
1698674690.826,0.01666666753590107,2.6622961319923397,0.539911763587594,-3.684714933425188,3.0211835121706128,-6.528539014434814,-10.472836611938476,57.47432065798645,-88.46997865869278,-46.14728861769363
1698674690.843,0.01666666753590107,3.4740973757848144,2.0810113245308397,-4.139080164891481,3.7397431027619166,-5.170726813396811,-10.735450606536865,111.99411321688967,-98.58667044220807,-57.015792983530574
1698674690.859,0.01666666753590107,3.799416832882166,2.965659485608339,-3.5757115378707645,4.021959440789744,-4.516062296947837,-9.911695597839355,164.90818294343623,-79.4705418988515,-56.16871975285476
1698674690.876,0.01666666753590107,3.5514717073664066,4.022483245468139,-1.2004086394518614,3.7888242915940467,-3.8470325705379245,-7.047182364544272,194.62289360682004,-43.044938149498385,-49.22711653710076
1698674690.893,0.01666666753590107,3.1634576014250517,4.457036107483506,0.07748772882819176,3.4380738031800835,-3.680037589263916,-5.389048661804199,167.09832408193586,-42.73907544827605,-43.973638970945025
1698674690.909,0.01666666753590107,2.9292110386550423,4.563484557858109,-0.005287000492215156,3.2272341637542468,-3.7588971909672018,-5.18404514465332,101.42216883462551,-56.53511842069093,-41.16977801476309
1698674690.925,0.01666666753590107,2.4499510199069974,4.561199661791324,-0.4294710287064314,2.7585693714417516,-3.842544611468911,-5.474492318072914,32.74862946628468,-66.55850640504927,-44.428498833816604
1698674690.943,0.01666666753590107,2.6238147179067135,5.03007155751586,-0.9162877464443445,2.9836241083007304,-3.374177742657065,-5.9570730056762695,-1.1940720268350236,-39.55285708726221,-53.74802216382679
1698674690.959,0.01666666753590107,2.6730630252003666,5.131911637312173,-0.9995756859838962,3.1371525454865767,-3.2653917892456055,-6.0434139030456535,12.411049655918251,5.0637647930904075,-58.197398634469856
1698674690.976,0.01666666753590107,2.719538945171237,5.284964602473378,-0.9287930077522992,3.4192192459106443,-3.1353578806221485,-5.906645717731118,28.158721853468602,65.37281288589173,-55.50890298846402
1698674690.992,0.01666666753590107,2.921591503562033,4.560001391917467,-1.064416699206829,3.8402996820863335,-3.8853415506660935,-5.963657644763589,29.042053143353428,96.82806748565905,-44.92048077482721
1698674691.009,0.01666666753590107,3.0825369755387304,4.169886222043633,-1.2950678678333758,4.217835429437458,-4.298339583477378,-6.108656190545856,24.242182100356573,102.24729666749808,-34.35221786452569
1698674691.026,0.01666666753590107,3.5986674660444256,4.183337239769101,-1.869746701158583,4.967070326940715,-4.305671826061606,-6.585102028656006,16.19865422052066,78.28722528552512,-17.91668585339982
1698674691.043,0.01666666753590107,3.404889399524033,3.7826229344695803,-1.5889166663900016,4.870554218646139,-4.716875961193442,-6.255899300384521,6.863010363408778,50.93223569735401,4.2111723426784025
1698674691.059,0.01666666753590107,2.8163632426321503,3.457000987294316,-1.1834396767333148,4.2886137237548825,-5.053261294445395,-5.82868394165039,0.48811434639308376,24.844475011557467,30.620332275624953
1698674691.076,0.01666666753590107,1.0479738061890005,2.1940777317404745,1.0814733402088283,2.4220342544555664,-6.316053617095947,-3.5939956748411057,-35.34377691690395,32.60408900306887,61.71824503839554
1698674691.093,0.01666666753590107,-0.6593883301004767,1.303637543258071,2.417958091057837,0.6220435188293457,-7.154471941918135,-2.3766940605163573,-87.29626529133945,55.038009256515835,68.97517076737235
1698674691.109,0.01666666753590107,-1.0202903380367905,1.1401438481032848,2.4116198279470202,0.1997662740845233,-7.190385551342367,-2.6167121924251315,-142.46165416078142,72.11922295554511,60.868870033969436
1698674691.126,0.01666666753590107,-0.3885224207896739,1.7000491829276083,1.1356775163441897,0.8242040676392615,-6.348524392589926,-4.3342531929016115,-182.46114073296536,83.64222336840935,45.78302779906768
1698674691.143,0.01666666753590107,0.6716106828138232,2.0283084928691384,-0.3900631474256515,1.924489368084818,-5.76493832244873,-6.209511643218994,-176.68845609176736,93.2220281322158,44.15095409689314
1698674691.159,0.01666666753590107,1.2646169077292084,1.8853151494294405,-0.9557909047931432,2.5661352668762207,-5.679793941387534,-7.058705044555664,-132.16258949623762,96.642218038343,60.12364175400768
1698674691.176,0.01666666753590107,1.8316672920025885,0.8828080861687659,-1.730378854739666,3.1214407066896555,-6.509235179027915,-8.04421830291748,-68.59222938136641,77.32149117839867,97.83291125597297
1698674691.193,0.01666666753590107,0.994209628906101,0.4359054456681013,-2.014667505529523,2.182464596966654,-6.8780918722957365,-8.438363751220702,-72.53891758947488,43.16905293200128,111.30627218633437
1698674691.209,0.01666666753590107,0.32528365513160823,0.8060638691842555,-1.8066507780373096,1.3513773456849156,-6.392817707824706,-8.386439502716064,-101.61569541456865,14.28437929995599,107.94375639755874
1698674691.226,0.01666666753590107,-1.099381921865046,1.7169558940649032,-1.0981237384974956,-0.2965814383909106,-5.242552863201499,-7.960421829333901,-119.4418129595741,-0.27977746173012186,76.31955706867117
1698674691.243,0.01666666753590107,-2.125962811413407,1.8332026848763225,-0.1916711573690176,-1.4152721640989183,-4.9444747565120455,-7.243506900677085,-87.44498583032731,25.91386406952802,50.48598528793123
1698674691.259,0.01666666753590107,-2.3568976192869244,1.2414864997714756,0.4939110599130392,-1.6309000241819769,-5.43289247970581,-6.654234601593017,-31.265781737096574,70.21314938462633,34.08238441117517
1698674691.276,0.01666666753590107,-1.9524094945371149,0.33172084857225415,0.656084904640913,-1.0586859004698692,-6.350170990753173,-6.4659910805851215,25.322769253471364,105.56909769863124,24.66870863100365
1698674691.293,0.01666666753590107,-1.627972957754135,-0.924033830526471,-0.20341829378604886,-0.5886741139952093,-7.668777555084228,-7.2460519089847795,30.769742663718983,92.62716646683187,24.204230154233397
1698674691.308,0.01666666753590107,-1.664059001135826,-1.4328379236668347,-0.6046785425305367,-0.5340563155576586,-8.219294299316406,-7.593061512103676,3.9611592445256094,49.65787949258054,26.172229635262095
1698674691.326,0.01666666753590107,-2.111985139465332,-2.633977215480804,-1.0705150160819292,-1.019480629089102,-9.382277171215414,-8.10167914276123,-42.86552274038049,-17.018763571900553,36.906056331044724
1698674691.342,0.01666666753590107,-3.0294530356049534,-3.652981824555993,-0.5651894127070903,-2.0609585704527795,-10.315417852783202,-7.6957123237609855,-57.13857587914531,-37.55883458549577,42.932455179152036
1698674691.359,0.01666666753590107,-3.5365672759622333,-3.678746964931488,-0.2782493706256151,-2.71397700019516,-10.246285279846191,-7.51435154800415,-52.35341706362066,-38.22330953890046,39.68077287003821
1698674691.375,0.01666666753590107,-4.448325562283396,-2.7567694824129343,-0.6722346599310636,-3.776553697558492,-9.211690302929282,-8.024316501617431,-40.81009683797563,-39.11701588613453,8.677201241404783
1698674691.393,0.01666666753590107,-4.229166678529977,-1.028041902011633,-2.383527705928683,-3.6382884420866146,-7.418882756805419,-9.798270294189452,-20.203805432829853,-60.568744691649904,-25.46859549979843
1698674691.409,0.01666666753590107,-3.8092069900125263,-0.5739408744394778,-2.7692753282427787,-3.284096233987249,-6.962338427734375,-10.191069004058837,27.99237771887482,-72.78075409741751,-51.142742127573804
1698674691.426,0.01666666753590107,-2.9490955965593457,-1.1300848109036683,-1.642422923389077,-2.472162632519379,-7.673117045593261,-8.93156929321289,94.87558277933003,-62.20117356366129,-57.99403658212189
1698674691.443,0.01666666753590107,-3.055745414724946,-2.1631991938740014,-0.4156102611362934,-2.5840917062621562,-8.895506046184897,-7.530662631335854,110.0575633418943,-48.5308163172584,-58.22388610807116
1698674691.459,0.01666666753590107,-2.914629555594921,-2.301755431649089,-0.06938041021823883,-2.3965956426206976,-9.207201174816488,-7.013215797534585,80.9557801942491,-18.89256108389644,-61.73596254910255
1698674691.476,0.01666666753590107,-2.3871176932446656,-2.7890146324574947,-1.8476807075619697,-1.7696141559325158,-9.800814133453368,-8.67583921290934,23.83825325057848,-42.45101222003076,-67.6615409748713
1698674691.493,0.01666666753590107,-0.8705601606227457,-2.1298077964037656,-4.762642856112122,-0.24151494633778928,-9.150788382720947,-11.580305101886392,4.5282408230077955,-85.44007259192928,-67.70099897770646
1698674691.509,0.01666666753590107,-0.20063947672247887,-1.751783461818099,-5.332032643118501,0.3666123484071344,-8.767865754699706,-12.160150231933594,6.069640775742661,-120.7943543397767,-65.787063859053
1698674691.526,0.01666666753590107,0.5402291589736938,-0.9220949714183807,-4.722246548315883,0.9491515033112838,-7.942913645172118,-11.556811413574218,18.131662642431383,-141.74661531695114,-61.58160710404943
1698674691.543,0.01666666753590107,0.6496390895023941,-0.2669043852686882,-2.4775439602315426,0.925957638195902,-7.321019763946532,-9.284414762878418,31.210569902940776,-125.37593595199453,-55.44295751202755
1698674691.559,0.01666666753590107,0.7263539342619478,-0.19054829081892966,-1.3564882589578628,0.9096471028534695,-7.306953829193115,-8.1013804520756,42.73164761755366,-96.02373757880918,-55.96004381333253
1698674691.576,0.01666666753590107,1.024359998628497,0.6146539930999279,-1.2003683074414728,1.1505636540398467,-6.603657091522217,-7.837419719043374,51.12771571139978,-88.37124827424024,-64.8726381329717
1698674691.593,0.01666666753590107,1.8449493829019366,1.6058242543101309,-2.4689818835914132,1.9419968581268563,-5.710919147491455,-8.997858751678466,70.51979072741405,-99.08950896890441,-72.34596474542202
1698674691.609,0.01666666753590107,2.386178658828884,2.175985025689006,-2.9905899287253614,2.4546552657749268,-5.279812042015791,-9.360580303192139,97.09541475015169,-102.66983266012257,-74.95590297068895
1698674691.626,0.01666666753590107,3.1318159702315924,2.7989754699796436,-2.5621067420125008,3.1786020475636003,-4.895244569396972,-8.642170752063393,122.78405674689311,-88.48816745245253,-64.81199288333116
1698674691.643,0.01666666753590107,3.3229999286055563,3.1287890236258504,-1.835952860367298,3.3614591673919927,-4.754884497070313,-7.668328642272948,120.81673003949767,-81.66948032100207,-56.210824453993304
1698674691.659,0.01666666753590107,3.305885127675533,3.5195524282753468,-1.7132921108603476,3.337966072734864,-4.528932299914956,-7.316082307544351,100.4578144257114,-72.20056367837078,-48.99193263340972
1698674691.676,0.01666666753590107,3.193537390129268,3.9472845043599603,-1.1893413019925356,3.241898543891427,-4.256590692028403,-6.561908200073241,65.60977946895615,-45.84336227510099,-43.56057986579392
1698674691.693,0.01666666753590107,3.3701541862294078,4.403962104421853,-1.5678051970392464,3.462614041403122,-3.8676825598567723,-6.834846604809164,44.04427337224671,-23.996011837385556,-39.183323362597015
1698674691.71,0.01666666753590107,3.6395097640424963,4.671353396424651,-2.2100965541273356,3.7927146409629375,-3.641729778179526,-7.410053553661704,29.59826618331883,-5.870294874626669,-32.012919054931345
1698674691.726,0.01666666753590107,4.298492728212476,4.68690869295299,-3.3664486097097397,4.534767673271242,-3.6572926734924316,-8.513183137622475,14.084167672362698,17.55050233652251,-14.365219711424968
1698674691.743,0.01666666753590107,4.948915369307994,4.769948210689425,-4.0101907501280305,5.231180880239791,-3.582773146820068,-9.140762663269042,3.8916146852833626,21.267836207396535,-0.9784409270253112
1698674691.759,0.01666666753590107,5.190231724333763,5.270074491855502,-4.293231446683406,5.487959318818803,-3.082983550262451,-9.422380633544922,-0.3901997426595428,7.642256827418601,5.22109820062165
1698674691.775,0.01666666753590107,5.099031696495413,6.327136152124405,-3.9153105724722144,5.376479157887306,-2.037017284503579,-9.02748758174479,19.919575648256235,-18.954382833621516,0.8844895405576702
1698674691.793,0.01666666753590107,4.184634878364205,5.937428394007682,-0.5681511851221323,4.434660025024414,-2.4693197372436524,-5.611410140991211,44.92822962444059,-9.390249938865665,7.273649447159584
1698674691.809,0.01666666753590107,3.20727833071202,4.506606486338376,1.8155542154610156,3.433135670924466,-3.9637499014705417,-3.121290776824951,46.41500812749604,30.62201250216078,25.860530537393977
1698674691.825,0.01666666753590107,1.6703373507529495,1.696588813340664,4.525568960961699,1.8951601602858863,-6.810755535125732,-0.3473091705873608,-17.397234599094716,86.08745158184142,41.91388955879554
1698674691.843,0.01666666753590107,1.142338800864294,1.0303063398122787,3.3347914886862036,1.3934253662109375,-7.40631202904582,-1.6582839248657226,-94.74690201536698,88.4974428493454,38.86737247197056
1698674691.859,0.01666666753590107,1.9415891175761817,0.9268751914322376,0.08602817815840244,2.2212205719436517,-7.2794193410575385,-5.275772995758056,-152.8856839663798,58.25876105397325,33.72899383861329
1698674691.875,0.01666666753590107,2.3257062160789963,0.4390010735958814,-0.8404787644833326,2.597259906724561,-7.550114350780844,-6.521206187328696,-144.75424813683122,39.95321545565168,42.73964918416633
1698674691.893,0.01666666753590107,2.8354046277105804,0.3415092521369457,-1.849893707436323,3.054253112074267,-7.46347476272583,-7.783250321960449,-97.61330701377872,35.15702929971205,62.899895085564424
1698674691.909,0.01666666753590107,1.984582748389244,0.07284194884896278,-0.481070867562294,2.099116314675147,-7.611765628051757,-6.572382832336426,-24.462600842609344,59.592130093175626,81.98412664549706
1698674691.926,0.01666666753590107,1.2177739810768513,0.17766133671700954,0.4588602047979831,1.2834417776798597,-7.495945538219809,-5.647023890686035,4.369923014462423,83.1991080158156,79.4010242334791
1698674691.943,0.01666666753590107,0.1575576561693102,0.8967688069820403,1.842099692559242,0.22640184975215233,-6.789058082580566,-4.248361208343505,7.297843684747061,107.60059403327897,69.60537183152191
1698674691.959,0.01666666753590107,-0.17452026221230624,1.2843453982889652,2.261901560166478,-0.018554916735738516,-6.4086792938232415,-3.8178544068485496,-2.6127949518872904,128.4629082492735,56.49630587073233
1698674691.976,0.01666666753590107,-0.1344946874246001,1.3972101454466581,1.9943483556002377,0.11941091739814728,-6.289418123626708,-4.090194261169433,-8.000843466391563,129.69041618652986,52.707780938139265
1698674691.993,0.01666666753590107,0.11066475289538502,1.274789634436369,0.9265355842143297,0.45908835099805145,-6.404339218792319,-5.162796604919433,-4.032246572746633,123.58241023821923,56.69732858328956
1698674692.009,0.01666666753590107,-0.062274085344374175,1.057788805499673,-0.29544483557641504,0.3685575641907751,-6.643311056518554,-6.351667951312661,17.77210440904899,102.70324594554228,58.8491284548833
1698674692.026,0.01666666753590107,-0.4363075967282057,0.7095850241601467,-0.3987842140197754,0.034865780871734024,-7.033266067394614,-6.398504521289468,25.00067631523378,95.30406103653245,53.15013813973514
1698674692.043,0.01666666753590107,-1.6948318866707384,-0.609062456703186,0.5798866311013698,-1.1638810993803665,-8.39541775894165,-5.358223315429687,22.1184730892718,108.50112715458846,43.39041936300139
1698674692.059,0.01666666753590107,-2.5241423375383016,-1.9477625455141065,1.3898165280640125,-1.8472760722838342,-9.772233351135254,-4.482993555560708,4.927566552172122,131.78437460113733,35.96425862186459
1698674692.076,0.01666666753590107,-2.7109330293893814,-2.269143786379695,0.9113824387460947,-1.91461277478002,-10.09440311203003,-4.945373166656494,-13.274010760377159,117.5816382598778,38.53306886304429
1698674692.093,0.01666666753590107,-4.060217640578746,-2.7205671191751954,-0.46123453271389003,-3.1703714724667367,-10.506654710388183,-6.356605992236733,-33.265674786454646,73.60337525086469,35.465289397333066
1698674692.109,0.01666666753590107,-5.251622889363765,-1.5983967346578836,-1.388625856974721,-4.332457322460785,-9.338433353313803,-7.339873517498374,-32.764455014591604,42.99744784419929,22.460711670466335
1698674692.126,0.01666666753590107,-5.819722052037716,-1.1245207470357417,-1.164188740557432,-4.87504356595464,-8.82338130569458,-7.164648468017577,-24.540890178423325,28.782806483216422,6.836787132750984
1698674692.143,0.01666666753590107,-6.532968521314859,-0.794505533337593,-0.4240653702706098,-5.54407314623408,-8.456469316753745,-6.464494120025634,-21.99918554296482,19.36715507082748,-13.951926672294789
1698674692.159,0.01666666753590107,-6.370445717018843,-0.6535445725083351,0.14633797769248486,-5.279064584649354,-8.258499351501465,-5.948244971576333,-23.844207467987438,13.014928024780236,-34.196984740164226
1698674692.176,0.01666666753590107,-6.0245467054903505,-0.6762877347141504,-0.0908750336676836,-4.849604881054535,-8.228421608623862,-6.235398364147543,-28.573153826642884,-3.267834425840431,-39.003330802494254
1698674692.193,0.01666666753590107,-5.0121203057616945,-0.6979115375012159,-2.0656477511823175,-3.791068618188426,-8.169464392742514,-8.29905114212036,-29.71515804077443,-52.89685764983814,-37.98791731443972
1698674692.209,0.01666666753590107,-4.013907140302658,-0.8269201947301625,-3.788985455238819,-2.8318913588926193,-8.232911321258545,-10.107571221160889,-36.82114683437771,-81.74332149611908,-38.662490702532274
1698674692.226,0.01666666753590107,-3.490702181366086,-1.0371399852246046,-4.167956130763888,-2.3799858686033635,-8.364891103252768,-10.589853218078613,-40.11622133528862,-89.84066102133094,-37.681231575422395
1698674692.243,0.01666666753590107,-2.5660610325962305,-1.3508628202915192,-4.358432525390386,-1.5475516596920786,-8.594435771942138,-10.890175888824462,-19.77621168512496,-78.51587952836964,-41.74960643378381
1698674692.259,0.01666666753590107,-1.7255882594622671,-1.4317939675718545,-4.2546565090954305,-0.748337364141643,-8.640822844585776,-10.830769760131835,-6.921838782730098,-71.13634507360193,-48.338467944947084
1698674692.276,0.01666666753590107,-1.1330203528989107,-1.4076479528307915,-4.088842262038589,-0.18255773045644164,-8.596829389080405,-10.690559325408936,-1.975470640763635,-71.54808253714864,-51.74379877453493
1698674692.293,0.01666666753590107,0.04688391624987125,-1.8829571881264446,-3.0352175904810426,0.9478048744753003,-9.048286624145508,-9.669731592559813,-7.411776362744751,-75.39029617171259,-42.04220832273257
1698674692.309,0.01666666753590107,1.2292287834838032,-2.229243153145909,-1.9162480478316544,2.0638019041199236,-9.355791315349936,-8.601020411029458,-26.732165128325153,-84.65867163012314,-32.540547753220245
1698674692.326,0.01666666753590107,1.6547005134209989,-2.2164175738424063,-1.7365747867703436,2.372653991345316,-9.271994841766357,-8.509591835132241,-44.481166422506575,-113.36295142845192,-26.85946448652856
1698674692.343,0.01666666753590107,2.0741763639442623,-0.9216565800011157,-2.41288882496953,2.531868438278325,-7.881262367901206,-9.306711350360512,-13.971347461426074,-166.63109816157197,-36.2027073559789
1698674692.359,0.01666666753590107,2.439130058424175,1.0904536422610283,-2.797126627242565,2.6641481165345757,-5.885995143890381,-9.685443540954589,52.36202651706946,-174.74258983874407,-46.608688386695505
1698674692.376,0.01666666753590107,2.561277305451035,1.6443343099683523,-1.7710609937399624,2.5923221009792177,-5.473443685802817,-8.516923493194579,111.7600494642225,-139.08311474821298,-46.97976573411313
1698674692.391,0.01666666753590107,1.6230163582600652,1.8177268833249807,0.6145563779443503,1.5475521939816186,-5.5077106970638035,-5.904848897442221,135.56446083501086,-91.28968565374915,-45.92844935668643
1698674692.409,0.01666666753590107,0.99812556024082,1.8676824621051549,0.5575204855144024,0.8904934621727559,-5.737853916168213,-5.632359405517578,116.65637985377286,-62.444820071733986,-50.96122985038072
1698674692.426,0.01666666753590107,1.0975195620592684,1.97237442420125,-0.32102585155665875,0.9874586385422386,-5.7971092382133005,-6.3037833335876465,89.53730499953399,-75.8708204703905,-50.90880814850087
1698674692.442,0.01666666753590107,1.5222234494291245,1.554969096341729,-2.2416151434630156,1.3626000746353528,-6.375908074077963,-8.007557089996338,74.55676720616091,-95.38254674028505,-44.26678727502738
1698674692.459,0.01666666753590107,1.5630265844605862,1.435398129543662,-2.738461087784171,1.3579613637177272,-6.6129340384334325,-8.33780728149414,85.06721939532744,-78.46790427963947,-38.95775978035193
1698674692.476,0.01666666753590107,1.5925728508099912,1.7561060011923313,-2.370506896314025,1.3865420547042973,-6.420350442394614,-7.781006342425942,89.79170222536028,-29.659710565092265,-35.88649350306941
1698674692.493,0.01666666753590107,2.064546511942148,2.5192361530572174,-1.7755916229069233,1.9717747960739769,-5.814618006896972,-6.9436337272644035,77.4906066622482,34.49856832787155,-36.57332708072214
1698674692.509,0.01666666753590107,2.78930280174911,2.3381518561542034,-2.0381541795790192,2.834585141720972,-6.081571492004394,-7.065738011932373,51.96051384671026,52.422439540278226,-31.702142032601177
1698674692.526,0.01666666753590107,3.307472396866977,2.3599796570807694,-2.6474311558157204,3.47473494303599,-6.106261696624755,-7.593660062518715,21.714064418704513,42.62393894943714,-19.91300329872739
1698674692.543,0.01666666753590107,4.411401314511895,3.207752670225501,-3.592426525828242,4.657620164224319,-5.262604886627197,-8.528295366558432,-11.928542041060103,10.867439710100065,-2.4013649520256646
1698674692.559,0.01666666753590107,4.8922941951587795,4.750307106152176,-3.8402129536509513,5.1366101521256375,-3.700388303375244,-8.80976486827433,-11.448905666974298,-12.563286034781374,2.1245696149201936
1698674692.576,0.01666666753590107,4.905540337961912,5.331945549356937,-3.3984219570755956,5.118204343270697,-3.123086428070068,-8.362049157825112,21.475487618543262,-18.912635009867106,7.213325216410031
1698674692.593,0.01666666753590107,3.698681499457359,4.799675240433216,-0.27617431791722774,3.859303456834424,-3.7199908294677733,-5.130026554217935,42.48929543032868,22.66885314768601,26.96011756923245
1698674692.609,0.01666666753590107,1.7767590592510998,2.8915491242587565,2.4620836485102773,1.9207483366592786,-5.664979818615317,-2.327014376068115,9.290534299625357,66.04023848101787,37.77549843125232
1698674692.626,0.01666666753590107,1.2394421344622968,2.322017882955074,2.5985069659098983,1.392527613653615,-6.210708159527182,-2.2325927558347582,-51.08982865207372,82.48009400188836,39.87279339326937
1698674692.643,0.01666666753590107,1.3607513232298194,1.9157617256194353,0.6279594648748635,1.517624668663088,-6.470927952465415,-4.452316677746176,-112.01933710549453,57.05686974119903,43.72375308506552
1698674692.659,0.01666666753590107,2.0410142451852558,1.6837936291754245,-1.4171458490163087,2.1553800262893548,-6.541706539043783,-6.755539259338378,-123.45200826658535,31.29921892817837,50.67519177322434
1698674692.676,0.01666666753590107,2.1225810600206256,1.5857266381770372,-1.6822095748543737,2.1568764160266842,-6.468084837993979,-7.277326168170571,-115.80253790562956,19.328144445382954,56.257645400753745
1698674692.693,0.01666666753590107,1.5930556658908723,1.8153309280991554,-1.1844704810857771,1.507449275074806,-6.036829848480224,-7.058705629077553,-81.48254487360799,30.857141764338465,65.14034739749034
1698674692.709,0.01666666753590107,0.3217456902638078,1.4841075076550245,0.2312058798998594,0.1599626532181166,-6.264876972088217,-5.776909330749511,-48.71354095302917,50.317989955105595,70.37321486782558
1698674692.726,0.01666666753590107,-0.26948512247689066,1.4698048415362834,1.136933653885126,-0.47420143845053386,-6.21863895252645,-4.947168817901611,-25.877525755596263,75.62595135845638,70.20728908231845
1698674692.743,0.01666666753590107,-1.0017082410331815,1.8399398841768502,2.3280448881596327,-1.1905165928496046,-5.793219245037436,-3.8257840308040376,-27.260551977611925,99.2742792463316,59.77927727643398
1698674692.759,0.01666666753590107,-0.8154176807239651,2.0413357322245833,1.7414871087312698,-0.9543885271819308,-5.534046915325522,-4.484638984680175,-40.51165513728651,94.78302005569802,51.29508266682177
1698674692.775,0.01666666753590107,-0.5570267106480896,1.718334781202674,1.0927058051019907,-0.6504745174132287,-5.785289036560059,-5.220557304492592,-43.03004150691859,77.11750074864707,46.948015599756324
1698674692.793,0.01666666753590107,0.05363207533583045,1.082982867988944,-0.13877367991805076,-0.019452660159906373,-6.338948170471191,-6.548141540527343,-26.78464659436024,51.93879726024421,47.32916406110513
1698674692.81,0.01666666753590107,0.24391455482542512,0.40048751080632206,-0.4033955072075128,0.15936424893354997,-6.990469128197431,-6.848314573669433,-8.124138626194048,47.11207674362003,47.881364364933155
1698674692.826,0.01666666753590107,0.10681655303463339,-0.03240180191099643,-0.17998422670662403,0.02050047957925126,-7.424120072937011,-6.624008390155434,9.322847924588688,57.3950699730468,42.53985249056512
1698674692.843,0.01666666753590107,-0.6547035332851111,-0.6952437795966864,0.49026890401840206,-0.6756135617796332,-8.118438554382324,-5.91801759109497,16.780808318953774,80.21688349964795,29.139284301283144
1698674692.86,0.01666666753590107,-1.0555455566175282,-1.4889005871504544,-0.1953390322268009,-0.9968855746836633,-8.93785348804891,-6.573430295562744,12.77889632385846,68.15790448223447,21.265582244970428
1698674692.876,0.01666666753590107,-1.0366638921454547,-1.696709809371829,-0.9517600418418646,-0.9304464466482866,-9.157671127972007,-7.315183312878013,1.2089125337975803,33.66601266427661,20.716148167756263
1698674692.893,0.01666666753590107,-1.1473832978375256,-2.2915935185968874,-1.8902327320873735,-1.095795953137055,-9.749638072967528,-8.257751163482666,-2.424133387623902,-21.739119260127413,30.916878598819398
1698674692.909,0.01666666753590107,-1.9877460347257554,-2.867517675808072,-1.0219687195777893,-2.0596116402226965,-10.31766183231771,-7.398532627215981,-7.872360777914452,-37.12238891262654,42.28412679294525
1698674692.925,0.01666666753590107,-2.7041180886775256,-3.0787691474378107,-0.3124661130040884,-2.924068122808635,-10.506803763470053,-6.711396166229248,-16.245785940888332,-35.32067380203638,45.070802993175434
1698674692.943,0.01666666753590107,-3.8140485848248002,-2.4067449153870344,0.3682628190279007,-4.191199497576803,-9.786747614178061,-6.078728377532959,-20.34126298987636,-31.19849754358278,16.277001612942584
1698674692.96,0.01666666753590107,-3.645271396309137,-0.8318494678258895,0.061709144937992094,-4.078971404354832,-8.19086315460205,-6.405686541748047,-0.025928612048771667,-28.577045326922498,-9.751141766683507
1698674692.976,0.01666666753590107,-3.4194217827454207,-0.6055559098869562,0.15053952103555202,-3.8531680410856377,-7.996932820129394,-6.279841316986084,36.69906061805832,-11.758627425077695,-24.72875111644994
1698674692.993,0.01666666753590107,-2.975927197122574,-0.7267588618010282,0.1915618517756462,-3.3402103719297793,-8.250119645690917,-6.088305768695474,75.4103154561699,3.184566522451748,-29.738582174532986
1698674693.009,0.01666666753590107,-2.7366356259226796,-0.4902911158502102,-0.3400152141869068,-3.0300118019988758,-8.143726724895835,-6.464494120025634,76.53063040459207,3.3997610237631086,-38.12156362592936
1698674693.029,0.01666666753590107,-2.4683935623094437,-0.513068764847517,-0.5787579193323851,-2.6656439811155197,-8.266430144500731,-6.580163403210044,42.157706821597486,7.363177005479172,-46.99870243358699
1698674693.043,0.01666666753590107,-1.692431401400268,-1.2057821491837502,-1.8308429700076578,-1.75719409325656,-8.98977832107544,-7.79537155238688,-10.41635608806585,-10.65850763848396,-47.66833417981504
1698674693.059,0.01666666753590107,-0.3586287292420864,-1.314915308597684,-3.442424764931202,-0.36855714749059987,-9.068038787841797,-9.447370113372802,-25.78522940934188,-35.46612951060097,-40.663958110494036
1698674693.075,0.01666666753590107,0.14498729373589156,-1.097827970421314,-3.922102132308483,0.13437476453909183,-8.81111043766439,-9.97813527843058,-22.325357811684192,-62.871768366562314,-35.698796489582875
1698674693.093,0.01666666753590107,0.6320246684871613,0.050643561044335365,-3.5795763966053724,0.5520132664002477,-7.628076126861572,-9.67885948638916,-11.031704052091579,-87.39599288341081,-35.85423110452486
1698674693.109,0.01666666753590107,0.5695819485776126,0.6233832430005073,-1.5963438937813044,0.4305074590820819,-7.042394545745849,-7.710825721740722,-6.062832357800628,-75.59817297910193,-36.769162264604745
1698674693.126,0.01666666753590107,0.5241453085266053,0.26623569222688676,-0.18486673805117607,0.35314483620459214,-7.3934443641662595,-6.3061775352478024,1.5845670684544637,-42.5954775511657,-32.406512120947916
1698674693.143,0.01666666753590107,0.6576644289173186,0.417222372508049,-0.21109715785086153,0.49485166523139923,-7.2535332046508785,-6.318747093963623,9.837461697414128,-35.14877501610009,-36.032181438065784
1698674693.159,0.01666666753590107,1.1002532978720962,0.895387581756711,-0.7550333546489477,0.9533413653497118,-6.7927990226745605,-6.8411319686889644,10.775907491259076,-40.39167944942065,-36.55261453206408
1698674693.176,0.01666666753590107,1.4540040458142756,1.2730629567742346,-1.7091899362385272,1.292569840472564,-6.453719628033042,-7.745840921020507,30.14251273185837,-61.94671486613247,-34.34573601500335
1698674693.193,0.01666666753590107,1.9005439904823898,1.9937521432727574,-2.1752064425319433,1.70856223279424,-5.80339577113688,-8.119785877338051,58.46104393643235,-65.89108080992312,-34.680449435279826
1698674693.209,0.01666666753590107,1.718884524039924,2.3893027821987864,-1.5472744501858948,1.5025112706833519,-5.518035691723227,-7.343615042114258,82.66810178898213,-55.13716311269691,-33.10913026577254
1698674693.226,0.01666666753590107,1.5403852751940488,2.5302730953782797,-0.2846533924490213,1.3290812331268562,-5.559485307964683,-5.823745900726318,97.12580226176907,-29.760278270431535,-29.494775157014796
1698674693.243,0.01666666753590107,1.4440756492570042,2.6052953108757735,-0.03333879050016403,1.2568062705108896,-5.620836725506186,-5.368697947692871,91.21829651654417,-22.62734438055255,-26.461131269228
1698674693.259,0.01666666753590107,1.4684724238887428,2.6147107894748447,-0.025342531049251556,1.3037925876893102,-5.724835444641113,-5.182399131011962,72.1291335600308,-20.854155555030957,-21.663092424476
1698674693.276,0.01666666753590107,1.5406322356924413,2.562792386189103,-0.22722587035298347,1.3926773151894565,-5.856815811157226,-5.253028079986572,47.6489364425722,-17.99678689689114,-17.372000465206103
1698674693.293,0.01666666753590107,1.841941287127137,2.3011761704564093,-1.0663234096109866,1.7111061085907742,-6.182576874542236,-5.983558861541748,30.41849335546191,-5.106506409369055,-7.935481971129126
1698674693.309,0.01666666753590107,2.029341343048215,2.0422043317526577,-1.7578227419823407,1.915511075326614,-6.479457880401611,-6.609493250329792,30.013449477301812,12.54055772654451,-3.8968466101875925
1698674693.326,0.01666666753590107,2.143001916758716,2.359152558606863,-2.446021279242635,2.0756232702503676,-6.2125055643379685,-7.209690263532102,29.492019175684696,27.3652639002301,-3.4385722930612364
1698674693.342,0.01666666753590107,2.237981901527196,2.4679671535909176,-2.6180758819937706,2.2128410191134433,-6.138282974785566,-7.319373458044231,26.359554403438864,31.43830890043651,-0.6354562543856567
1698674693.359,0.01666666753590107,2.4683403708174825,2.4197207168161867,-2.468328388118744,2.4726119215024607,-6.214748374828696,-7.117662260437012,19.967361359236936,23.780065161491848,6.178946427464491
1698674693.376,0.01666666753590107,2.3449399088591334,2.485709731030464,-1.9093869298905133,2.3352445287565815,-6.169407596367598,-6.520159016363323,4.666307120664079,3.062550102127936,19.001103035091695
1698674693.395,0.01666666753590107,2.1567710605226456,2.4466280129641294,-1.4651006093680858,2.085349760160525,-6.204123520439863,-6.083516488592326,-10.923521539601392,-12.578898993450377,30.656344448023845
1698674693.409,0.01666666753590107,1.2512336945429443,2.0806553507000207,-0.6389554906636477,1.037587217535451,-6.537068357849121,-5.314379789789021,-26.94270741703809,-21.62641089353845,41.80383813579371
1698674693.426,0.01666666753590107,0.08262352081406861,1.7132453491091728,0.28286504772752524,-0.24510624882802365,-6.8583397085994475,-4.4701244293764235,-43.27389633576097,-6.161796249345412,42.1263630834963
1698674693.443,0.01666666753590107,-0.1664311368461698,1.5852771408438682,0.5181698873788118,-0.5705680370055138,-6.917895474895834,-4.350414054107666,-58.92898019646992,19.08711902240425,32.73884180520405
1698674693.461,0.01666666753590107,0.01498049231506884,1.1858096207350493,-0.1234393326640129,-0.4059667094023898,-7.203404022869467,-5.184494641986489,-64.40897074116538,41.46967796084001,16.24614452581976
1698674693.475,0.01666666753590107,0.3471838637072593,1.0450865603148936,-0.6353004752874374,-0.05177446477040648,-7.287949853515625,-5.7900774398803705,-58.99770555989859,51.52133951326761,11.018088923754805
1698674693.492,0.01666666753590107,1.1091641148846596,0.2351806287497282,-0.8529875329226255,0.7902362585205585,-7.998578833770751,-6.170307175555825,-49.76939257606476,72.95242407201663,16.675633651019332
1698674693.509,0.01666666753590107,1.8288345527946948,-0.6850637463659047,-1.1294658022224902,1.56296480780337,-8.844330570220947,-6.563255523028969,-56.027174327590004,69.708623801205,31.291415437051633
1698674693.526,0.01666666753590107,2.1969661466583608,-0.7995347596764564,-2.0691502063453195,1.903540103558451,-8.816348338317871,-7.709628620910644,-90.23030282291266,21.815070963697956,55.83351455895805
1698674693.542,0.01666666753590107,2.1591142626479267,-0.6362994231969118,-2.37051566414237,1.728314323425293,-8.493879302215575,-8.222287051391602,-110.65280066768257,-24.69642212356098,72.02226842027677
1698674693.559,0.01666666753590107,1.3965283006623386,0.4994377143800258,-2.1777087807416913,0.6804022573608904,-7.116913487896323,-8.313565989685058,-99.67185772772888,-50.75647443944207,71.18717534140517
1698674693.576,0.01666666753590107,0.31413258491158486,1.7313631896018982,-1.064275244909525,-0.6027401218138635,-5.732018049621582,-7.359327575030923,-69.33510807625368,-36.07386266747579,56.6939715453125
1698674693.593,0.01666666753590107,-0.08972440232783556,2.0160072297006844,-0.2617757902085781,-1.1248257213316857,-5.353135052379965,-6.648847647857665,-29.174927643466855,2.7510911280978276,34.70067362541223
1698674693.609,0.01666666753590107,-0.47857503215856845,1.9015005605548618,1.207294891834259,-1.5022117580138146,-5.452794281005859,-5.1987102143436665,19.597571502477862,55.43705281349007,11.91391519095252
1698674693.627,0.01666666753590107,-0.0865443840522319,1.1588988174557686,1.5310007762551308,-1.011699692889303,-6.241534090423584,-4.836736266326904,35.48511402139903,76.23146128875635,4.2520505979741055
1698674693.643,0.01666666753590107,0.10145736408904195,0.7485702961146831,1.3982295516222714,-0.7029973163329064,-6.709001964569091,-4.919036948394775,31.97669514666818,75.5065255008187,4.985382395948987
1698674693.659,0.01666666753590107,0.6350046341460198,-0.04141279136240482,0.6489578292399645,-0.057161418505758045,-7.542632470592856,-5.629814981731772,9.32680601921271,43.823685582811976,13.3716577060726
1698674693.675,0.01666666753590107,1.1083563056331127,0.028242928665876386,-0.32637598041296,0.4308068073548376,-7.472302796825766,-6.60754766921997,-4.935216364042536,12.911534328671875,18.674539738042338
1698674693.693,0.01666666753590107,1.2294245983168481,0.1834048488050699,-0.5128507381826639,0.5161003145631402,-7.302164841350913,-6.807912420654296,-6.703794811874372,-8.01900835448921,19.84970622814159
1698674693.709,0.01666666753590107,0.9290295929871499,0.4024479972243309,-0.24571780485510825,0.14694434608779847,-7.08025285949707,-6.536021479144692,11.60578828202032,-7.469435112170707,14.50139831554939
1698674693.725,0.01666666753590107,0.3917588454276323,-0.012033552142977714,0.44389352181255815,-0.4125507274352014,-7.5272197974056,-5.804741925048828,30.724837585020733,10.038696999609275,10.23938844799176
1698674693.743,0.01666666753590107,0.14520656250976025,-0.4627496134519577,0.6385135921150445,-0.646434302111715,-8.032845845031737,-5.5451212670475245,36.55539100396168,25.745762868770253,8.260029508599683
1698674693.759,0.01666666753590107,-0.04275120035931468,-1.3892010265141725,0.3311339885950088,-0.8013091489378362,-9.019705841827392,-5.781997009277344,20.15130689132184,25.122077805088878,13.31775129182192
1698674693.775,0.01666666753590107,-0.01657587174773216,-2.019551770439744,-0.6213298176020383,-0.7824548108641057,-9.66584101486206,-6.713790367889404,4.162625065605244,2.962547594942487,18.493442394841328
1698674693.793,0.01666666753590107,0.043146994743868704,-1.9249702834695577,-1.0641957499325274,-0.7803599574767053,-9.56318961868286,-7.1592615142822265,-7.957090982115753,-25.904902861336964,20.83253971385516
1698674693.809,0.01666666753590107,-0.15821027485914527,-1.441541454604268,-1.1484265232801436,-1.1203365932188927,-9.04708952331543,-7.264007836914062,-14.977240519551254,-49.41250836174242,18.836813079890792
1698674693.825,0.01666666753590107,-0.7014650652643293,-1.0884674368798732,-0.3707400227963924,-1.7753003118101507,-8.666710150036215,-6.5016036612361665,-12.605263523646626,-47.478871562428054,13.548101129127893
1698674693.842,0.01666666753590107,-0.855793895580247,-0.8316390399456024,-0.04883738840520382,-2.013224174853414,-8.391227906036377,-6.187515499988198,-5.929716239745311,-32.26208094075882,5.43843524689828
1698674693.859,0.01666666753590107,-1.283992200937122,-0.3980617449641227,0.1357312434822321,-2.480392919921875,-7.962816615515947,-5.989096037402748,11.127534167467797,-8.45832441435714,-8.17701282810641
1698674693.876,0.01666666753590107,-1.4301979305520653,-0.20748422805070876,-0.3238245423644781,-2.60324524647817,-7.802553572845459,-6.415563208118081,21.102965686116182,5.768763685727606,-16.606582146057793
1698674693.893,0.01666666753590107,-1.441017430730164,-0.1065209310889244,-0.5209077879101037,-2.5505728830199685,-7.739406504058837,-6.577171820178628,16.07049767357642,23.3003246270212,-24.762978901928168
1698674693.909,0.01666666753590107,-0.9835744723189621,0.07605448115468025,-1.6540432185560463,-1.944989354473725,-7.5715125281184905,-7.717110501098633,-11.493485457913325,41.20862471566753,-29.30173693559731
1698674693.925,0.01666666753590107,-0.1526450419474393,-0.12129355280697345,-3.994191216963529,-0.997932887212932,-7.748234538158774,-10.10038861618042,-20.32513520569867,29.420203151656597,-28.137809521777317
1698674693.942,0.01666666753590107,0.41975123339854176,0.19937106422185896,-5.042665081629157,-0.3416225032530725,-7.401225519561767,-11.192594070544839,-18.403724444998623,5.210299244657038,-27.600464879394075
1698674693.959,0.01666666753590107,1.2182623491156845,1.1698580183655023,-5.798211646497249,0.5083190861023962,-6.411072910961509,-11.978490765491127,-4.7226877709415955,-24.559010670291368,-27.937650828150094
1698674693.975,0.01666666753590107,1.2465535739026963,1.4654887319028376,-4.283620737773179,0.5422868952210992,-6.120028356170654,-10.458920314788818,4.213831420699653,-36.06592940275481,-28.00719239918458
1698674693.992,0.01666666753590107,1.0493416604761034,1.6682459314316511,-3.1024960599839684,0.3413235203064978,-5.932083525848388,-9.259126007843017,7.697081048339,-37.08127117382306,-28.385420954663203
1698674694.009,0.01666666753590107,0.6325782837819308,1.7768933531552553,-0.6849976953923702,-0.06239866157211363,-5.844246252441406,-6.817339589691161,3.9844514702558222,-19.01496831910682,-27.97781917065894
1698674694.025,0.01666666753590107,0.3469314233161509,1.605716117760539,0.7830681935220957,-0.3094504184447229,-6.02007102138102,-5.3477492676883935,-3.06152365276173,-4.172209101671242,-27.766943910223965
1698674694.044,0.01666666753590107,0.357663391341269,1.6170640257269142,0.8121423123151064,-0.2458545829772949,-6.005107261005044,-5.3285956544071436,-5.911097997841502,-0.9961265279422956,-27.63394817425277
1698674694.059,0.01666666753590107,0.52947165464852,1.795392886441946,0.08035831582844256,-0.011671550430171191,-5.82269785297811,-6.07124649734497,-0.8597920034057271,-10.576059571239089,-27.005787629117744
1698674694.075,0.01666666753590107,0.6166684016622602,1.7845529279977081,-0.2951642650693655,0.10474646876230835,-5.839606902202964,-6.441748619732261,4.208673347215824,-16.644626299734764,-24.089657146001016
1698674694.092,0.01666666753590107,0.5419632892899214,1.725138031476736,-0.31920097421705723,0.04638776676338166,-5.9111342613220215,-6.452074198913574,7.998680003971961,-17.0298677519437,-20.023307438728512
1698674694.111,0.01666666753590107,0.3025909810040146,1.6246891137778758,-0.10393675981462001,-0.1731304883543402,-6.037428398895264,-6.206069978332519,13.0951682333759,-9.266484349784095,-16.744444391812625
1698674694.126,0.01666666753590107,0.0714392059115693,1.6091840861320494,0.06686638157069683,-0.37948070740643886,-6.076932141765952,-6.006902327728271,15.293561947940177,-1.4367418178564066,-15.678634352967155
1698674694.142,0.01666666753590107,0.00043408056832849976,1.5866396613687277,0.07286883685588837,-0.4191348550658673,-6.1263125510066745,-5.96904459849894,16.015144112995344,0.9148954083084513,-14.928215129236193
1698674694.159,0.01666666753590107,0.0025442045900970697,1.5008698418855666,-0.06496610090732574,-0.37873266551811247,-6.244975170788169,-6.067206866565346,14.443261452881533,-0.7729769906819859,-11.890717307210219
1698674694.175,0.01666666753590107,0.043010728078335524,1.4820266097277401,-0.16054945839643478,-0.3223192158354446,-6.287771525463461,-6.132747552490234,15.535359182295089,-7.898978025109993,-9.09525065351823
1698674694.192,0.01666666753590107,0.06558971269838512,1.4990496407210827,-0.2628086403876543,-0.3019685017241165,-6.296450506481528,-6.201281575012207,16.930896603322925,-14.497600730370863,-6.065076928716623
1698674694.209,0.01666666753590107,-0.07951726189441978,1.388530579906702,0.018740356305241585,-0.4700116038115695,-6.443394633373618,-5.870133557891846,17.98924807559474,-18.76846849950835,-2.0259446715129714
1698674694.225,0.01666666753590107,-0.2362311241833493,1.2025433133929968,0.2570347331613302,-0.6555621959410607,-6.654383654674887,-5.596446380615234,14.254918986518431,-19.82329388662115,1.1840468032373257
1698674694.242,0.01666666753590107,-0.361506184374541,1.0161918897420168,0.3804489313840866,-0.8129809916289523,-6.85654464187622,-5.449352616119384,7.138353218098563,-15.744578121856335,3.0812118864877034
1698674694.259,0.01666666753590107,-0.507457793097943,0.6894055749624968,0.5165653747916221,-0.9925461892059072,-7.189338672637939,-5.302408489227295,0.33143340869056137,-8.434550233403618,3.662894701868084
1698674694.276,0.01666666753590107,-0.5327982052553445,0.451381831741333,0.21180676742494106,-1.036389860977046,-7.42516695164144,-5.608567026519775,-1.311185438551824,-6.719435945073702,3.7316499473743714
1698674694.292,0.01666666753590107,-0.44424412534851576,0.4075719161093235,-0.1035755252867937,-0.9650127239836379,-7.468262581524252,-5.923404544830322,1.687951586496127,-6.854553735442656,3.068558961050255
1698674694.309,0.01666666753590107,-0.2509435036141425,0.37011283080875873,-0.6040069268792867,-0.7968201669555157,-7.512557065802812,-6.412271180835366,5.018188648306205,-11.06860244153528,2.7824491669075906
1698674694.326,0.01666666753590107,-0.345131716950424,0.15932546955943105,-0.6124076754778623,-0.9144352504454553,-7.729080924877524,-6.410624582672119,3.046249215343466,-12.367399624479994,1.9092957126597319
1698674694.343,0.01666666753590107,-0.4288704324647784,0.07024491809308528,-0.3897077581167221,-1.0160392199309543,-7.819462622070312,-6.184372525787353,-1.019381401075485,-8.624521699883767,-0.530418937286556
1698674694.359,0.01666666753590107,-0.6031699645984917,-0.30296470968723294,0.011269582033157349,-1.1906662669859827,-8.180238884735108,-5.800252796936035,-11.332723295418734,9.020085275475886,-2.251226295011383
1698674694.376,0.01666666753590107,-0.5842671842731535,-0.8185983565866947,-0.12771160315573216,-1.14637357280571,-8.670750949859618,-5.9756280685424805,-16.930261395730113,25.102048275347816,-2.4537574121581285
1698674694.392,0.01666666753590107,-0.4440876561451703,-0.9663760116934775,-0.6092495037078857,-0.9540892519744113,-8.790610085949302,-6.49921062861979,-17.46021406588411,33.23857259582804,-6.2286795961322925
1698674694.409,0.01666666753590107,0.19910159963071344,-0.7361229024738073,-1.7146353421628475,-0.2153283656798303,-8.524854286193847,-7.658901473236083,-16.065122314699618,36.07461740337907,-12.051109785715981
1698674694.426,0.01666666753590107,0.885126299983263,-0.6003706162035465,-2.2748381986290216,0.5538090272432192,-8.367135667309164,-8.252962175640464,-13.074918430034105,37.13546872488711,-12.72872260798919
1698674694.443,0.01666666753590107,1.1632388924866914,-0.5573854609578848,-2.374761046627164,0.9144355609727092,-8.308028813824057,-8.377761106219888,-7.818467170268467,38.844675753358615,-9.457564868230726
1698674694.459,0.01666666753590107,1.6890161861293016,-0.10272621498107909,-2.366052254992723,1.535730928315874,-7.851185794067383,-8.37506762935221,6.52554053491538,34.465674136828774,-3.1026845071343425
1698674694.476,0.01666666753590107,1.867854457671195,0.5693851108312606,-1.886067429101467,1.7678188882798886,-7.197568740844726,-7.872285280719399,17.14726504339788,31.50392311269824,1.133734562593954
1698674694.493,0.01666666753590107,1.517323110166937,0.8719915086001158,-0.8559007900208234,1.475277304430888,-6.937348363384604,-6.787412068939209,21.59622658004887,34.11348567756082,6.427868829784197
1698674694.509,0.01666666753590107,1.3401461959660053,1.0520751040279865,-0.5195791696548462,1.3346179654590407,-6.783670544323325,-6.416311396136879,11.108173996265394,34.423046926218724,10.464485869825992
1698674694.526,0.01666666753590107,1.0903593881063163,1.2098556822329758,-0.4999713828653097,1.106719979985419,-6.628346711620688,-6.393416258239745,-7.981837611252356,27.051420122962597,15.851738667291958
1698674694.542,0.01666666753590107,0.9618700785763561,1.4301356789708137,-0.833827489900589,0.969801498338353,-6.36558366394043,-6.783371853637695,-31.64122699048842,14.623045692214609,21.523133310645978
1698674694.559,0.01666666753590107,0.9930077057704328,1.6391916863828897,-0.9887000717043876,0.9727942036061314,-6.097433078002929,-7.014861226654053,-42.434609520738974,7.201333111774781,22.214946096203644
1698674694.575,0.01666666753590107,1.050076623687148,2.197680140146613,-1.5161018978089094,0.9991304629670456,-5.4682063696712255,-7.631817066955566,-44.540722256974504,6.017173823859562,18.14489954904287
1698674694.592,0.01666666753590107,1.0708921788312493,2.34561795425117,-1.6900871763616798,1.003020981299295,-5.250782931408286,-7.891737000164389,-40.7232543977735,11.001579502757236,12.075933254480747
1698674694.608,0.01666666753590107,0.9132349347449839,2.2026684499531983,-2.002602389204502,0.8601171153744915,-5.313331449779867,-8.301594396862388,-32.20394920073284,19.989112096648842,2.684694645732722
1698674694.625,0.01666666753590107,0.9440561894662678,1.9851713619321583,-2.294191718396544,0.9291000541326764,-5.482423695594072,-8.6507000954777,-25.835082960093803,24.689552660803237,-2.429700205240874
1698674694.642,0.01666666753590107,1.1847440373301505,1.7057932795375585,-2.4184306770056483,1.2336125743588664,-5.712265301403403,-8.832508615002036,-18.333463996553995,21.132436244837493,-4.897639224550065
1698674694.659,0.01666666753590107,1.363013569073379,1.6464450185120105,-2.3079548708111046,1.4502878109032753,-5.744587608337402,-8.75275235671997,-13.502911743805443,13.880631450190902,-3.330773551825041
1698674694.676,0.01666666753590107,1.549482481624186,1.4449147304296492,-1.7729577672719954,1.6563388186799362,-5.926846209716796,-8.239495960345863,-8.53411475470854,5.623068493655241,0.755081148004612
1698674694.692,0.01666666753590107,1.5117600692123174,1.4466595282703638,-0.9386994847387075,1.61444022569512,-5.913827153667807,-7.418134568786621,-1.607758442172713,-3.074943266933513,4.581423237206454
1698674694.709,0.01666666753590107,1.3819791124366223,1.4502034844875336,-0.42985389054417605,1.4658502312921453,-5.908740059661865,-6.911312004852294,-0.9092195211081706,-5.687554870930271,6.682156345696949
1698674694.725,0.01666666753590107,1.0535061597444118,1.3541338047862053,0.475867453700304,1.1165959408192663,-6.000168635559081,-6.011092765155435,-4.5366304297426865,-2.688607490353493,7.4762080985064205
1698674694.742,0.01666666753590107,0.7778481207862495,1.1046791514903307,0.8902811985284089,0.8267478703705593,-6.229413444519043,-5.619640793719888,-13.599132887511644,7.427981840324253,5.987520130691128
1698674694.759,0.01666666753590107,0.7424405611880123,1.037462056785822,0.7883966950684785,0.806397343488899,-6.268618496704101,-5.752817676544189,-18.375870933563313,18.51650282102658,1.7641472558860851
1698674694.775,0.01666666753590107,1.0101821279332042,1.0599772554546594,0.1105775130033493,1.1109097712418996,-6.214149824413657,-6.465691220855713,-17.322635272979838,23.54314297465703,-0.6521966211545347
1698674694.792,0.01666666753590107,1.3491986864715815,1.0545651672780514,-0.6397901879221201,1.5059530086350625,-6.190656136101484,-7.246799512481689,-5.987480003329755,21.51762988572224,0.40387879729808007
1698674694.809,0.01666666753590107,1.4715703899040817,1.0869973643273114,-0.8390659750759601,1.6521489840409718,-6.1565399314880365,-7.447314486041664,3.4385029239524787,9.307328881020771,4.420436959129722
1698674694.825,0.01666666753590107,1.5119411248676478,1.0249030194640159,-0.8566834648311138,1.6713026155885309,-6.229862357330322,-7.453150352588295,3.894347187838191,-9.670536996740893,11.788437785710215
1698674694.842,0.01666666753590107,1.0678956273637712,0.8375503098160028,-0.11357552577555179,1.1782465742027852,-6.418255515941977,-6.70989979019165,-3.39000068343916,-16.133016102596837,15.189683308400744
1698674694.859,0.01666666753590107,0.8340183362975716,0.787265645211935,0.3064648267626762,0.8895956959157018,-6.4556649168819185,-6.3046811592102046,-11.513909431078956,-11.384515766121295,16.0378852278369
1698674694.876,0.01666666753590107,0.4825587680324912,0.7779623948156833,0.7835667906939983,0.49021301824585534,-6.42873073272705,-5.867290443420409,-19.045765642074407,3.255269652531958,14.22365806446093
1698674694.892,0.01666666753590107,0.32238281912356614,0.8883394168108701,0.6055424658834934,0.3196262067565272,-6.28193565891683,-6.08456424407959,-22.157159280730752,9.685693186509152,10.585138600193329
1698674694.909,0.01666666753590107,0.39905221730619667,0.9634861354708671,0.36910043889582156,0.39564201585165426,-6.165218912506103,-6.36528438873291,-24.970415162116037,8.744631430212088,8.5943689760191
1698674694.925,0.01666666753590107,0.4829720250084996,0.9700684364706277,0.05364508094787598,0.4731543439753295,-6.094141050720214,-6.7483572388798,-29.469851796733423,1.3109540658936898,7.273590536777992
1698674694.942,0.01666666753590107,0.4932961428850889,0.8680477394104004,0.05524783996939659,0.4683658847144455,-6.140678345489501,-6.803872205352783,-32.11178945826186,-2.7682086493749374,7.858475003331817
1698674694.959,0.01666666753590107,0.47718847317099566,0.6951297978281974,0.23991467153429982,0.43185436191270127,-6.252906548309326,-6.680571404376626,-35.3526254269737,-2.2160179505004365,8.904925724748532
1698674694.976,0.01666666753590107,0.36084479785636064,0.4810322891175747,0.7617325600266456,0.297330174398981,-6.368726053619384,-6.255899300384521,-47.13036457512274,5.1663785669729165,8.482580123647146
1698674694.992,0.01666666753590107,0.14615692203715444,0.17157938645482063,1.5850941854923963,0.08723898785342461,-6.57597355030477,-5.530905110168456,-64.29298046868023,15.24066384036572,8.029146062764802
1698674695.009,0.01666666753590107,0.05739464273974299,-0.16291326491832733,2.169805460271239,0.020351017788716126,-6.766762079620361,-5.079897372436523,-89.96365906790453,22.42988702674207,8.458630065322497
1698674695.026,0.01666666753590107,0.11275047312825917,-0.5085322904616594,2.9256431170403956,0.11581960834345809,-6.829908563885092,-4.571728654590249,-129.39801578816162,23.939179540849175,11.558513981453723
1698674695.043,0.01666666753590107,0.4324532593876123,-0.2401069792360067,2.868129670226574,0.4587891009067069,-6.283731310161948,-4.854842416381835,-147.17667034862464,18.389666208139445,11.739208343493702
1698674695.059,0.01666666753590107,0.7810707360945641,-0.004362871384620666,2.6541817991197107,0.8194156414860626,-5.743091232299804,-5.297919361114501,-147.39714885503264,11.160556424557516,12.379594927243051
1698674695.075,0.01666666753590107,0.9035743953436612,0.5376783054471016,1.3739531884998082,0.9551370713937561,-4.819079029083252,-6.8402341430664055,-119.41327642922178,16.735635155330602,8.317634470285924
1698674695.093,0.01666666753590107,1.2488345244467258,0.6708703858405352,0.041300563159584996,1.345990337150637,-4.4654847868770355,-8.31207019816935,-84.00713305500645,37.93274304632436,10.590664223231869
1698674695.109,0.01666666753590107,1.195166647145152,0.2656540929466486,-0.21184651491343973,1.385045788264554,-4.720018350872397,-8.654440451049805,-56.41456216674562,59.894038114868536,14.1511769507624
1698674695.126,0.01666666753590107,1.225231384410709,0.17023673967421055,-0.6696101566463708,1.5807717922486364,-4.661959252874553,-9.195679079326986,-54.32256401642992,65.39717617066117,17.385083692561263
1698674695.142,0.01666666753590107,1.3129938390158116,-0.07459083834290504,-0.8017202870219945,1.7797897687165065,-4.764461011449993,-9.401581006622314,-77.6336444838466,55.184971021792414,22.58363116986447
1698674695.159,0.01666666753590107,1.2603751785062254,-0.3921145269975066,-0.6935679553389549,1.8040311701234428,-4.8730973272576925,-9.399635717773437,-108.43026394194959,40.17508732065038,30.396435259537352
1698674695.175,0.01666666753590107,1.2623653294101356,-0.014910568884015082,-1.854028615283966,1.8496706392701714,-4.151395748846233,-10.726173075103759,-113.84980048230126,21.84099494669274,31.760540150004786
1698674695.192,0.01666666753590107,1.2712149908199906,0.53679538513273,-2.9045594124794003,1.870320628589019,-3.3572689856931563,-11.884966678619383,-95.85516851009326,16.419535708089704,30.317751480298803
1698674695.21,0.01666666753590107,1.2820382903903722,0.8215712349176406,-3.114548901349306,1.8878282647615297,-2.8821695937559006,-12.17466507949829,-68.66824255663948,14.057475293086288,28.105881802502093
1698674695.225,0.01666666753590107,1.2056347035370767,1.067232633410394,-2.845950571644306,1.822137466308847,-2.4847321181699633,-11.965920622253417,-32.32422883201677,15.619102424161323,30.39884973140895
1698674695.242,0.01666666753590107,1.156186708952859,0.9089452747270464,-1.816846008837223,1.7818848047669975,-2.5924711928769946,-10.95571715927124,-15.972684242019959,16.01984328314431,32.59533953074209
1698674695.259,0.01666666753590107,1.1889109477512538,0.9292004195094108,-1.2456757681548594,1.8252797829225658,-2.5439889015197754,-10.394576145172119,-14.60359843610029,17.29215896890324,32.405029969898024
1698674695.275,0.01666666753590107,0.9159603411208838,0.9102075497478246,-0.5981377425849438,1.5568299217775463,-2.5038857314512133,-9.76894132385254,-26.294440502533842,7.408301504004508,32.0386893586698
1698674695.292,0.01666666753590107,0.7985988670658319,1.3858631142631173,-0.8405997605144977,1.4232034685548394,-1.9651900656551122,-10.0357451713562,-29.274470820430622,2.3296270482861976,27.92736797835464
1698674695.309,0.01666666753590107,0.6871532659910619,1.5321385481134056,-0.714828770032525,1.2979568307405336,-1.7556974203914404,-9.93369174107015,-25.294488855212926,4.402103023850116,22.464415340543777
1698674695.325,0.01666666753590107,0.30367212730422616,1.909376116235554,-0.6382552334398031,0.9175780785158276,-1.3224968497678637,-9.87668039855957,-10.83037568856899,9.877846898429121,11.404609328885826
1698674695.342,0.01666666753590107,0.2964309970695525,1.8856416049048303,-0.50142567332685,0.934935894421488,-1.3301283675596116,-9.743802206420899,-4.510520750979843,15.802757673206504,5.897758211505644
1698674695.359,0.01666666753590107,0.43854010502062735,1.6020710392564534,-0.43102351884543894,1.1173442795351147,-1.6030673568174243,-9.674220720672606,-5.828929541465779,20.463412385445576,5.1900652361276975
1698674695.376,0.01666666753590107,0.8393122779872267,1.123981233331561,-0.2535001292943954,1.5961846846316008,-2.037315682928264,-9.50572877883911,-23.9925625918547,30.84239538592041,7.428313104498999
1698674695.392,0.01666666753590107,0.7759537584070115,0.9713345108836888,-0.3687935649037361,1.6036664186891167,-2.1154265120908615,-9.64010334701538,-37.934819423832046,31.312367042330646,6.85717225921571
1698674695.409,0.01666666753590107,0.8315166556749493,1.0857473642662168,-0.6191624104350805,1.723675849969685,-1.9023425643369554,-9.916783276367187,-42.047399266501785,23.151870465410973,4.302430073292119
1698674695.426,0.01666666753590107,1.042078099213913,1.3333479141280054,-1.6797113282978533,1.9716252863343804,-1.5352815223142504,-11.011232710266112,-29.403919980675287,0.18163065824522692,0.7018377957119527
1698674695.443,0.01666666753590107,1.2683669079124926,1.4847241782486438,-2.0061767405599356,2.1802201059754935,-1.329978437694907,-11.355848111724853,-14.583912123365021,-12.33143099453706,3.7990212258000846
1698674695.459,0.01666666753590107,1.2484373418226837,1.31792501180768,-1.6471902839213608,2.127098829706013,-1.4799156089231371,-11.005097568511962,-0.47178053596238007,-10.049234273951312,7.0992708756677505
1698674695.476,0.01666666753590107,1.0695574230961502,1.1865621926680208,-0.3894809636235237,1.9280807436402887,-1.631947414343059,-9.743054018402098,10.484464173148279,2.5044122294770585,9.176126069706704
1698674695.492,0.01666666753590107,0.8334013003777712,0.8470964290574192,0.4829354923903942,1.6982374573305248,-2.0005048324033616,-8.8612396194458,11.01827419263604,8.966030304610758,10.600192337124037
1698674695.509,0.01666666753590107,0.6625047816205769,0.6180436355382204,0.7405991711050272,1.5491984039857982,-2.2517463691160082,-8.594735047149658,4.848784162077433,14.33386914313461,12.62538355339419
1698674695.525,0.01666666753590107,0.5566411453966051,0.584291588062048,0.5917606087684631,1.4752774277284741,-2.2961887374326584,-8.737190045928955,1.5239572504202399,12.186595125639647,13.279752388148202
1698674695.542,0.01666666753590107,0.5638122060697526,0.5390189064010977,0.22507190718948838,1.4980222704347221,-2.3517039961665867,-9.099162824901939,4.616593588790142,8.536571061488806,15.861843932168991
1698674695.559,0.01666666753590107,0.6512111611247062,0.6260311271607876,0.04881283848583698,1.5900495428774506,-2.2828709906980396,-9.26930136489868,6.448423003430881,7.3790153603907855,20.421500637151084
1698674695.575,0.01666666753590107,0.4980150611657649,0.6175993989020586,0.1390554194688797,1.4469959936831145,-2.318035827581584,-9.169642720794677,5.229301257814836,12.125592144841324,23.3792474628807
1698674695.592,0.01666666753590107,0.3385958489082753,0.7163496959894895,0.08896247804462909,1.3016978804323822,-2.2330416686460373,-9.213935451507568,1.1913133774622788,14.658518279669071,24.892670533888367
1698674695.609,0.01666666753590107,0.22962905903719363,0.6963765830188989,-0.05145546194911003,1.2140102446291594,-2.2593778869077563,-9.350105670928954,-0.176865880927629,17.72173517901473,24.27993767854111
1698674695.626,0.01666666753590107,0.3515481963966042,0.8711933439597487,-0.46725510817766186,1.3687355269167572,-2.0944772475644946,-9.759214879608153,2.494517206360414,15.323689912369103,22.780603580243884
1698674695.642,0.01666666753590107,0.5891428274855017,0.792079182973504,-0.9665519527822732,1.6177324265077708,-2.1900956763669845,-10.251971508789062,5.950464646896517,8.79770370761038,24.971567756538477
1698674695.658,0.01666666753590107,0.7505787133276463,0.7833625002935528,-1.017263902887702,1.774253433105722,-2.2227166739866138,-10.295516051483153,7.929013781985123,4.338244170205082,28.400947682193934
1698674695.675,0.01666666753590107,0.7685797225076705,0.7145052371665835,-0.7420213128626346,1.7691656815126537,-2.330306111089885,-10.01015714111328,9.40013407636832,2.4385356952625203,32.75484493842939
1698674695.692,0.01666666753590107,0.4895827483851462,0.7727358923390507,-0.23605039732158184,1.474230110632628,-2.3024735167905686,-9.495852696990966,8.626456350966173,5.922985515205086,33.66917845695691
1698674695.709,0.01666666753590107,0.3869786984790116,0.8791977867171168,-0.023805238479375837,1.365593137237802,-2.2224173987790943,-9.27543650665283,6.059562831622308,12.904229441354547,36.99674416774957
1698674695.726,0.01666666753590107,0.2567640264611691,0.942935807134211,-0.22159400194585321,1.2385506655152887,-2.200121103557944,-9.458892208862304,21.682128161692827,-5.349741825431079,37.86221451295481
1698674695.742,0.01666666753590107,0.6841439281072467,0.3047062926575541,1.091347376230359,1.610250692450255,-2.900275743810832,-8.130409562683106,4.670348458218611,10.178990792708628,42.67794867029902
1698674695.759,0.01666666753590107,1.1258126134771853,0.065898121060431,1.2256132233351469,1.9858409317567944,-3.136703450012207,-8.003367237091064,-14.832795678983823,-10.040674339373993,46.55726730752907
1698674695.792,0.01666666753590107,0.725450847942382,0.050938160076737404,1.4449538933962582,1.5399208725526927,-3.085676442608237,-7.810783056530356,-14.368899475840312,19.981527171575543,51.9296652973239
1698674695.809,0.01666666753590107,0.6131658734340221,0.4741925062254071,0.7562649422705173,1.4457988197878002,-2.641851602117717,-8.504802847290039,-11.909070025510042,28.341735064731804,50.81766268912163
1698674695.829,0.01666666753590107,0.1477167186997831,0.11635200475156307,-1.1609639332920312,0.9998788336489349,-2.9798829490110275,-10.426897867584229,-5.282854209775968,4.464205238217987,46.94872252433542
1698674695.846,0.01666666753590107,0.2646941618733108,0.8150026701822877,-1.1444716481745243,1.0770919102542102,-2.2694036063596603,-10.417919611358641,-13.549587549046018,-6.912609062727295,41.04158219423112
1698674695.859,0.01666666753590107,0.5242919504556804,0.5446411301970482,-0.91150285025537,1.27521209763214,-2.5061302955076097,-10.201244361114501,-19.658061365314786,-17.331128613212748,41.529527493442245
1698674695.875,0.01666666753590107,0.6502422430273145,0.5453253130689263,-0.5533563515722751,1.3193551176760345,-2.463333940832317,-9.863063376617431,-21.035642219014658,-21.490836761155574,43.26049891970399
1698674695.892,0.01666666753590107,0.7150665973763912,0.2765148019179702,0.1267412968188524,1.3037927703524008,-2.688389189147949,-9.202413356018067,-20.310954025434427,-14.506490221575634,46.61217861336139
1698674695.909,0.01666666753590107,0.5608848108483478,0.5410647330150008,0.6865607069253921,1.095048422705382,-2.3790876776546237,-8.659977042388915,-9.897481984745614,10.68659593767199,44.97038555199791
1698674695.925,0.01666666753590107,0.4161087121777236,0.6794228178694843,0.6593658260077238,0.9618708457613363,-2.240373911230266,-8.686612535858155,4.9310162245898015,22.74445480406159,39.108075168510986
1698674695.942,0.01666666753590107,0.34254312522932884,0.8295365147083997,-0.0547767153263092,0.9202716284487396,-2.1196163649961353,-9.389609998321532,13.749237393580076,23.918374784637315,32.82649020772824
1698674695.959,0.01666666753590107,0.5995654373005033,0.7038099478900433,-0.5020101952165364,1.2105686528079211,-2.297685405731201,-9.818022457885741,13.16229874763337,15.060261468912758,30.210630208450908
1698674695.975,0.01666666753590107,0.7461313785299658,0.6096805886015295,-0.5073480491131543,1.3609543715212493,-2.424129180908203,-9.81263550415039,9.527517958162704,8.286639925606053,32.555936169420285
1698674695.994,0.01666666753590107,0.8984761223565787,0.5320142883360386,-0.25249708973169327,1.4966756781313568,-2.5356091957092284,-9.547776945495604,7.737885452214303,4.584605251586034,35.219921681589526
1698674696.009,0.01666666753590107,0.9095664753653109,0.7364063955903053,0.11139175199568271,1.494131948465295,-2.3551459533140062,-9.176825325775146,7.774437209557626,7.425637377891646,36.16799291952231
1698674696.026,0.01666666753590107,0.8776137323960661,0.7998331581011414,0.25233108551502226,1.4558246123049408,-2.3166890891477463,-9.02793532551229,8.555494954357972,11.183464025260092,36.52449122815655
1698674696.043,0.01666666753590107,0.9225756676074117,0.8556257724717259,0.2588543498039245,1.502361980139464,-2.2970865630552173,-9.009081571960449,9.125221523596245,13.660027439056892,37.3535839858423
1698674696.059,0.01666666753590107,1.090350912538916,0.6812564630374311,0.22298574856519698,1.6717516379976645,-2.4973016768857836,-9.036016340637207,6.951408379194375,13.550103228328354,41.24347917100211
1698674696.075,0.01666666753590107,1.240642011771351,0.5916670852661132,0.17687573929727077,1.8182470347415656,-2.6045918387815354,-9.076268856048584,2.223960820174927,13.219598058354253,47.39461776392137
1698674696.093,0.01666666753590107,1.3610622888751327,0.5307914685428142,0.13993044873774052,1.9237415453922002,-2.673275498907268,-9.111433108410239,-3.542550610673868,11.90596570453227,51.9308264294828
1698674696.109,0.01666666753590107,1.3148007423073051,0.7770683685854077,0.13634206885695457,1.862988568667881,-2.4212860664367675,-9.117868109893799,-6.863963601684818,11.92593717766539,52.267961151820046
1698674696.125,0.01666666753590107,1.274779989825189,0.8659180339053273,0.1232306583493948,1.808819756106846,-2.3225249556943774,-9.135226071929932,-6.770859158674258,11.918279681832159,51.40303380665382
1698674696.143,0.01666666753590107,1.1675063406728208,0.9898998028829693,0.00741875182390213,1.6912046360842883,-2.1945848044797778,-9.252990866088867,0.11907212854386033,16.542318603704437,48.74761335170378
1698674696.159,0.01666666753590107,1.1450270901001989,0.9434066395163535,0.010391045632958411,1.675343013553135,-2.2565350646972653,-9.2443118850708,6.953300768481292,21.67847230293958,48.14098327037992
1698674696.175,0.01666666753590107,1.154259028825909,0.8828525098323822,0.021385902377963065,1.7003324568483977,-2.3448209586545823,-9.222764070129394,9.962323531857484,24.094429740683562,49.334842280690204
1698674696.194,0.01666666753590107,1.2953472692966461,0.6605673107519745,0.05521393769979477,1.8602951648654416,-2.606836110576987,-9.17383198917806,7.523740238714185,22.661824883030068,53.12912847784818
1698674696.209,0.01666666753590107,1.366822459837049,0.4901069914549589,0.21116671595573425,1.9382563564242794,-2.7967265220090747,-9.010577947998046,1.9569798245765297,21.312647370993695,56.935688524944666
1698674696.226,0.01666666753590107,1.366940240997821,0.4656026647955179,0.29771453407406806,1.939004434845224,-2.8272525931760666,-8.921842264446616,-3.853353673100244,20.68622852409702,59.82649437416628
1698674696.243,0.01666666753590107,1.3065462703116237,0.5440747284859418,0.40868426126539703,1.8758574756564572,-2.7385177864074706,-8.814702324676514,-9.26866061880839,21.40955580248513,63.141875027479635
1698674696.259,0.01666666753590107,1.198366173838824,0.5905524020224809,0.3196808666884899,1.7682680385531857,-2.6783634696960448,-8.908525102233886,-9.519408816070607,24.22440482549432,65.42245470077938
1698674696.276,0.01666666753590107,1.0965291627824305,0.5825567270934582,0.2720195363253355,1.6730984129641204,-2.673126153564453,-8.960449350738525,-9.825689012605965,27.4080618655694,66.71017758575857
1698674696.292,0.01666666753590107,1.0870800741747022,0.7118450780466199,-0.10085165328085421,1.673547471905872,-2.5245360130310055,-9.339481401062011,-10.297752414449517,24.093591334962944,68.00427986742254
1698674696.309,0.01666666753590107,1.0753268002778291,0.760845840319991,-0.35544425398707385,1.655590849856846,-2.461837564794719,-9.599252281188964,-9.502733762985667,18.154251785563908,68.99033378732977
1698674696.326,0.01666666753590107,1.0224494888320566,0.8080962517946958,-0.24197043502032756,1.584662625674717,-2.403029986517131,-9.490914656066893,-8.750614675925018,15.583385657444035,69.9139119668989
1698674696.343,0.01666666753590107,0.8018539964042604,0.8864858978986739,0.26586919700205325,1.3359650012912228,-2.3096564140319824,-8.989927958679198,-9.56948093287597,14.707757113395692,69.90224600379652
1698674696.36,0.01666666753590107,0.3492942069247365,0.7806748686447739,0.7064426344811916,0.8623619123263284,-2.397942307989299,-8.556577458190917,-13.106834196478282,15.968270232268837,70.41030279501875
1698674696.376,0.01666666753590107,0.20936960340589283,0.7306760352447629,0.8741179992347955,0.7041950747501105,-2.41949041519165,-8.399607611846923,-18.03044265402638,16.14825596218243,69.41657857267359
1698674696.393,0.01666666753590107,0.009345043711364269,0.6356476812899112,0.9343500573575496,0.48587381086461245,-2.456151335851848,-8.359953646850585,-24.117247695153285,16.87156104245573,64.12980041921945
1698674696.409,0.01666666753590107,0.2274779454179108,0.3812713536828756,0.5998322715431451,0.6929721448702737,-2.6602573196411132,-8.711602015686035,-23.054721269751298,14.481121191450914,61.27577172358377
1698674696.426,0.01666666753590107,0.4003310050703585,0.03479366548359394,0.49699733549058434,0.8514384768497198,-2.96237564163208,-8.82951644744873,-19.240648014567796,13.569968833529336,62.22565979183579
1698674696.443,0.01666666753590107,0.7393310508653521,-0.43618484713137146,0.446118796646595,1.1688197613589464,-3.3891420875549314,-8.895506630706787,-14.80610159216012,13.24522748944108,63.744359183977295
1698674696.469,0.01666666753590107,0.7699781180635095,-0.6900567323476076,0.5614899736672639,1.1840827969424426,-3.612850012914836,-8.790310810741781,-16.12234051692411,14.029574824100433,65.44264473996594
1698674696.476,0.01666666753590107,0.7707510021321475,-0.8439180912822485,0.6047644672483206,1.168370775482431,-3.729866619054973,-8.75918677368164,-20.153034929181857,13.135369873056948,66.39235522329953
1698674696.493,0.01666666753590107,0.7116988014437258,-0.8804249904245137,0.510357167801261,1.0853220149936154,-3.7017350418090817,-8.8742580909729,-23.687849069960215,12.157563406572507,66.31223027414612
1698674696.509,0.01666666753590107,0.6218878898762166,-0.8393480068877339,0.3620329847276211,0.978929678720422,-3.610156828308105,-9.038260904693603,-22.634613409376737,13.455953339487959,66.18798913314359
1698674696.525,0.01666666753590107,0.592333805546537,-0.8224915646329521,0.25394962662756443,0.9365821637911722,-3.546411209106445,-9.160514826965331,-20.032480382783838,14.334702426213351,65.78657891562193
1698674696.542,0.01666666753590107,0.44550241831392046,-0.6401923389822244,0.04433364724516868,0.776619674969837,-3.314473215539753,-9.38482159500122,-15.300492882400446,14.498512560625059,64.85595881101852
1698674696.559,0.01666666753590107,0.3169341983288526,-0.4240604018345475,-0.0977811597943306,0.6382048184268176,-3.0686183403015135,-9.535656299591064,-13.541809671128666,12.926810900524256,63.48134908960761
1698674696.576,0.01666666753590107,0.23627251563966273,-0.36316432684510946,-0.12169161221385001,0.5443820774020627,-2.980182516479492,-9.567678162273763,-13.243046097774906,11.318846912346206,62.41068961645143
1698674696.593,0.01666666753590107,0.0489709516569972,-0.3776441030964255,-0.15447744500637053,0.3365354640460573,-2.957886513519287,-9.611223289489745,-12.95462940724007,9.404303053082966,59.475081141369124
1698674696.609,0.01666666753590107,0.040768794370442625,-0.35433249335289,-0.19002105207443237,0.31139638314703477,-2.9058129196718334,-9.655067107391357,-14.273980336944645,7.470968489639374,56.834574404471795
1698674696.626,0.01666666753590107,0.05202812900422141,-0.35385289314240215,-0.214397368440032,0.29972454045591873,-2.8718445990964767,-9.689034258922934,-15.457515516324454,3.7836182954480595,55.62211678905157
1698674696.643,0.01666666753590107,0.17202435374334454,-0.41793344338685273,-0.17631459828317164,0.37753609441099684,-2.8911481422424314,-9.663746088409424,-14.110378523302622,0.06167407356470283,55.18402845568695
1698674696.658,0.01666666753590107,0.18585450697951017,-0.3873457051604986,0.020730068817734718,0.3565868116183206,-2.8303952751159667,-9.475202707672118,-12.611874292989553,0.30441085913689014,53.66530515788335
1698674696.676,0.01666666753590107,0.19224121234193442,-0.34255057788342236,0.13255202892422677,0.3351886890796013,-2.7579708210267126,-9.370905297851563,-11.484519980854037,3.6162654272912302,50.04793793570163
1698674696.693,0.01666666753590107,0.2528559861719608,-0.25776640843674536,0.12053367435038088,0.37334632370411414,-2.642001385851949,-9.39110578983724,-8.909948475109429,5.4071619451229065,44.23024234787323
1698674696.709,0.01666666753590107,0.40259273945726454,-0.3207178085207939,0.011812602868676185,0.5096661807292606,-2.685546220806986,-9.504830953216553,-8.086590515005549,4.318815270224157,41.20647320607898
1698674696.726,0.01666666753590107,0.5283983628612011,-0.41038931161761283,-0.027532734569907187,0.6199490764338988,-2.755875894574076,-9.549123683929443,-8.159214208903002,2.8326715478746944,39.53233236880632
1698674696.742,0.01666666753590107,0.7362924868870526,-0.5660770091965794,-0.021433248651027678,0.8013098156581167,-2.8875569858826697,-9.549123683929443,-7.127972611220613,-0.2635822827952282,37.609367740070105
1698674696.759,0.01666666753590107,0.9122197663530707,-0.5897178508944809,0.1101852988153696,0.952443813721789,-2.8941410404480994,-9.421782083129882,-7.2760135463860545,-2.001024299439357,37.06194173847192
1698674696.775,0.01666666753590107,0.9755318164430559,-0.6204989197358489,0.21104864253401756,0.9882072055869502,-2.906560815429687,-9.325415466308593,-7.7163054695316475,-2.266832423491216,37.29640847230012
1698674696.793,0.01666666753590107,1.0351388014700262,-0.5730952173955738,0.42551498455703257,1.0148426762233023,-2.833836940002441,-9.11696969974935,-7.631812614404005,-0.2742241177285048,35.98522388752195
1698674696.809,0.01666666753590107,1.1832527758590876,-0.4837587914720177,0.508783050352335,1.1451769720158422,-2.724302214050293,-9.038409957775473,-8.600567372690886,1.9237498870473597,35.50638323047445
1698674696.826,0.01666666753590107,1.2927685048498212,-0.519760371440649,0.47193128329515455,1.2391495264575816,-2.7383681488037106,-9.080308486828207,-8.691238133922806,1.6139813848368294,36.32858091219307
