timestamp,interval,accx,accy,accz,accGx,accGy,accGz,alpha,beta,gamma
1698672659.011,16,-0.1,-0.1,0.0,0.9,9.3,0.9,-1.8,-0.1,-0.2
1698672659.028,16,0.0,0.0,0.0,1.0,9.3,0.9,-0.9,-0.30000000000000004,-0.7
1698672659.044,16,0.0,0.0,0.0,1.0,9.3,0.9,-0.30000000000000004,-0.2,-0.7
1698672659.061,16,0.0,0.0,0.0,1.0,9.3,0.9,-0.1,-0.2,-0.5
1698672659.078,16,0.0,0.0,0.0,1.0,9.3,0.9,0.1,-0.2,0.1
1698672659.094,16,0.0,0.0,0.0,1.0,9.3,0.9,0.4,0.0,-0.1
1698672659.111,16,0.0,0.0,0.0,1.0,9.3,0.9,0.30000000000000004,-0.1,-0.2
1698672659.128,16,0.0,0.0,0.0,1.0,9.3,0.9,0.30000000000000004,-0.1,-0.2
1698672659.144,16,0.0,0.0,0.0,1.0,9.3,0.9,0.30000000000000004,-0.2,-0.2
1698672659.161,16,0.0,0.0,0.0,1.0,9.3,1.0,0.30000000000000004,-0.2,-0.2
1698672659.177,16,0.0,0.0,0.0,1.0,9.3,1.0,0.30000000000000004,-0.5,-0.1
1698672659.194,16,0.0,0.0,0.0,1.0,9.3,0.9,0.30000000000000004,-0.5,-0.2
1698672659.211,16,0.0,0.0,0.0,1.0,9.4,0.9,0.30000000000000004,-0.6000000000000001,-0.2
1698672659.228,16,0.0,0.0,0.0,1.0,9.3,1.0,0.2,-0.7,-0.1
1698672659.244,16,0.0,0.0,0.0,1.0,9.3,0.9,-0.1,-0.6000000000000001,-0.2
1698672659.261,16,0.0,0.0,0.0,1.0,9.4,0.9,-0.2,-0.30000000000000004,0.0
1698672659.278,16,0.0,0.0,0.0,1.0,9.3,0.9,-0.2,-0.2,0.0
1698672659.294,16,0.0,0.0,0.0,1.0,9.4,0.9,-0.2,-0.4,0.1
1698672659.311,16,0.0,0.0,0.0,1.0,9.4,0.9,0.1,-0.5,0.0
1698672659.328,16,0.0,0.0,0.0,1.0,9.4,0.9,0.4,-0.30000000000000004,0.0
1698672659.344,16,0.0,0.0,0.0,1.0,9.4,0.9,0.5,0.0,0.1
1698672659.361,16,0.0,0.0,0.0,1.0,9.4,0.9,0.1,0.0,0.4
1698672659.377,16,0.0,0.0,0.0,1.0,9.4,0.9,-0.7,0.2,0.2
1698672659.394,16,0.0,0.1,0.0,1.0,9.4,0.9,-0.7,0.2,0.2
1698672659.411,16,0.0,0.0,0.0,1.0,9.4,0.9,-1.2000000000000002,0.2,0.2
1698672659.428,16,0.0,0.0,0.0,1.0,9.4,0.9,-1.8,0.30000000000000004,0.30000000000000004
1698672659.444,16,0.0,0.0,0.0,1.0,9.3,0.9,-1.9,0.1,0.4
1698672659.461,16,0.0,0.0,0.0,1.0,9.3,1.0,-2.1,0.1,0.4
1698672659.478,16,0.0,0.0,0.0,1.0,9.3,1.0,-2.1,0.1,0.4
1698672659.495,16,0.0,0.0,0.0,1.0,9.4,0.9,-2.1,0.30000000000000004,0.30000000000000004
1698672659.511,16,0.0,0.0,0.0,1.0,9.3,1.0,-2.0,-0.30000000000000004,0.5
1698672659.528,16,0.0,0.0,0.0,1.0,9.3,1.0,-1.9,-0.5,0.4
1698672659.544,16,0.0,0.0,0.0,1.0,9.4,1.0,-1.8,-0.7,0.30000000000000004
1698672659.561,16,0.0,0.0,0.0,1.0,9.4,1.0,-1.9,-0.9,0.2
1698672659.578,16,0.0,0.0,0.0,1.1,9.3,1.0,-1.8,-0.8,0.2
1698672659.594,16,0.0,0.0,0.0,1.0,9.3,1.0,-1.6,-0.5,0.1
1698672659.611,16,0.0,0.0,0.0,1.0,9.4,1.0,-1.7,-0.30000000000000004,0.1
1698672659.628,16,0.0,0.0,0.0,1.0,9.3,1.0,-2.1999999999999997,-0.5,0.1
1698672659.645,16,0.0,0.0,0.0,1.0,9.3,1.0,-2.3000000000000003,-0.7,0.1
1698672659.661,16,0.0,0.0,0.0,1.0,9.4,1.0,-2.4000000000000004,-0.5,0.0
1698672659.678,16,0.0,0.0,0.0,1.0,9.3,1.0,-2.4000000000000004,-0.8,-0.2
1698672659.695,16,0.1,0.0,0.0,1.1,9.3,1.0,-2.4000000000000004,-0.1,-0.7
1698672659.712,16,0.0,0.0,0.0,1.0,9.3,1.0,-2.1999999999999997,0.8,-0.4
1698672659.728,16,0.0,0.0,0.0,1.0,9.4,1.0,-2.4000000000000004,0.7,0.0
1698672659.745,16,0.0,0.1,0.0,1.0,9.4,1.0,-2.1999999999999997,0.5,0.5
1698672659.761,16,0.0,0.0,0.0,1.0,9.4,1.0,-2.1,0.4,0.2
1698672659.777,16,0.0,0.0,0.0,1.0,9.3,1.0,-1.8,0.1,0.0
1698672659.794,16,0.0,0.0,0.0,1.0,9.3,1.0,-1.6,0.1,0.0
1698672659.811,16,0.0,0.0,0.0,1.0,9.3,1.0,-1.0999999999999999,0.1,0.2
1698672659.828,16,0.0,0.0,0.0,1.0,9.3,1.0,-0.8,-0.2,0.2
1698672659.844,16,0.0,0.0,0.0,1.0,9.3,1.0,-0.6000000000000001,-0.2,0.1
1698672659.861,16,0.0,0.0,0.0,1.0,9.3,1.1,-0.5,-0.2,0.0
1698672659.877,16,0.0,0.0,0.0,1.0,9.4,1.1,-0.5,0.0,0.1
1698672659.894,16,0.0,0.0,0.0,1.0,9.3,1.1,-0.8,-0.30000000000000004,0.30000000000000004
1698672659.911,16,0.0,0.0,0.0,1.0,9.3,1.1,-1.0,-0.5,0.2
1698672659.927,16,0.0,0.0,0.0,1.0,9.4,1.1,-1.0999999999999999,-0.4,0.1
1698672659.944,16,0.0,0.0,0.0,1.0,9.3,1.1,-1.6,0.0,0.1
1698672659.961,16,0.0,0.0,0.0,1.0,9.3,1.0,-2.1999999999999997,-0.4,0.1
1698672659.977,16,0.0,0.0,0.0,1.0,9.3,1.1,-3.0000000000000004,-0.4,0.1
1698672659.994,16,0.0,0.0,-0.1,1.0,9.4,1.0,-3.1,-0.4,0.2
1698672660.011,16,0.0,0.0,-0.1,1.0,9.3,1.0,-3.3000000000000003,-1.0,-0.2
1698672660.027,16,0.0,0.0,-0.1,1.0,9.3,1.0,-2.7,-0.8,-0.4
1698672660.044,16,0.0,0.0,0.0,1.0,9.3,1.0,-2.1,-0.6000000000000001,-0.2
1698672660.061,16,0.0,0.0,-0.1,1.0,9.3,1.0,-0.30000000000000004,-0.5,0.1
1698672660.077,16,0.0,0.0,0.0,1.0,9.3,1.1,1.2000000000000002,-0.9,0.5
1698672660.094,16,0.0,0.0,0.0,1.0,9.3,1.1,2.1999999999999997,-0.9,0.7
1698672660.111,16,0.0,0.0,0.0,1.0,9.3,1.1,3.4,-1.7,0.9
1698672660.129,16,0.0,0.1,0.1,1.1,9.4,1.1,3.4,-2.7,0.4
1698672660.144,16,0.1,0.1,0.1,1.1,9.4,1.2000000000000002,3.1,-2.4000000000000004,-0.4
1698672660.161,16,0.0,0.1,0.1,1.1,9.4,1.2000000000000002,2.5,-1.0999999999999999,-0.30000000000000004
1698672660.178,16,0.0,0.0,0.1,1.0,9.4,1.2000000000000002,0.9,-0.4,0.2
1698672660.195,16,0.0,0.0,0.1,1.0,9.3,1.1,0.0,0.2,0.2
1698672660.212,16,0.0,0.0,0.0,1.0,9.3,1.1,-2.1,0.4,-0.1
1698672660.227,16,0.0,0.0,0.0,1.0,9.3,1.1,-3.5,0.1,0.0
1698672660.244,16,-0.1,0.0,-0.1,1.0,9.3,1.0,-3.6,-0.4,0.1
1698672660.261,16,-0.1,0.0,-0.1,0.9,9.3,1.0,-3.0000000000000004,-1.6,0.2
1698672660.278,16,-0.1,-0.1,-0.1,0.9,9.3,1.0,-1.4,-2.8,-0.30000000000000004
1698672660.294,16,-0.1,-0.1,-0.1,0.9,9.3,1.0,-0.30000000000000004,-3.3000000000000003,-0.5
1698672660.312,16,0.0,0.0,0.0,1.0,9.3,1.1,2.1,-3.9,-0.8
1698672660.327,16,0.1,0.0,0.0,1.1,9.3,1.1,4.3999999999999995,-3.2,-1.0
1698672660.345,16,0.2,0.0,0.1,1.2000000000000002,9.3,1.1,5.300000000000001,-2.5,-0.9
1698672660.361,16,0.30000000000000004,0.0,0.1,1.3,9.3,1.1,5.8,-1.3,-0.5
1698672660.378,16,0.2,-0.1,0.1,1.2000000000000002,9.3,1.1,4.6000000000000005,0.2,-0.30000000000000004
1698672660.394,16,0.1,0.0,0.0,1.1,9.3,1.1,3.6,1.0,-0.1
1698672660.412,16,0.1,0.0,0.0,1.1,9.4,1.1,0.5,2.3000000000000003,-0.6000000000000001
1698672660.428,16,0.0,0.0,0.0,1.0,9.3,1.1,-1.6,3.4,-0.5
1698672660.446,16,0.0,0.0,0.0,1.0,9.3,1.0,-2.1,3.6,-0.5
1698672660.461,16,0.0,-0.1,0.0,1.0,9.3,1.0,-1.9,3.6,-0.4
1698672660.478,16,-0.1,0.0,-0.1,1.0,9.3,1.0,-1.0999999999999999,3.2,-0.4
1698672660.494,16,0.0,-0.1,0.0,1.0,9.3,1.0,0.6000000000000001,2.6,-0.5
1698672660.511,16,0.0,-0.1,0.0,1.0,9.3,1.1,1.8,2.6,-0.4
1698672660.527,16,0.0,0.0,0.0,1.0,9.3,1.0,3.7000000000000006,3.1,0.6000000000000001
1698672660.545,16,0.0,0.0,0.0,1.0,9.4,1.0,4.3999999999999995,2.9,1.0
1698672660.573,16,0.0,0.1,0.0,1.0,9.4,1.0,5.1,1.9,2.0
1698672660.578,16,0.0,0.1,0.0,1.0,9.4,1.0,4.800000000000001,1.8,2.1
1698672660.594,16,0.0,0.1,0.0,1.0,9.4,1.0,4.3999999999999995,1.5000000000000002,2.3000000000000003
1698672660.612,16,-0.1,0.1,0.0,1.0,9.4,1.0,3.4,1.0999999999999999,2.1
1698672660.628,16,-0.1,0.1,0.0,1.0,9.4,1.0,2.0,1.7,1.5000000000000002
1698672660.644,16,-0.1,0.0,0.0,0.9,9.4,1.0,1.0999999999999999,2.0,1.0
1698672660.661,16,0.0,0.0,0.0,1.0,9.4,1.0,-0.30000000000000004,1.2000000000000002,0.9
1698672660.678,16,-0.1,0.0,0.0,1.0,9.3,1.0,-1.4,0.30000000000000004,1.0
1698672660.694,16,0.0,0.0,-0.1,1.0,9.3,0.9,-1.7,-0.8,1.0999999999999999
1698672660.711,16,0.0,0.0,0.0,1.0,9.4,1.0,-1.6,-1.4,1.0999999999999999
1698672660.727,16,0.0,0.0,-0.1,1.1,9.4,0.9,-0.7,-1.0,0.30000000000000004
1698672660.744,16,0.1,0.1,-0.1,1.1,9.4,0.9,0.4,-1.0999999999999999,0.6000000000000001
1698672660.761,16,0.0,0.1,0.0,1.1,9.4,1.0,0.9,-1.0999999999999999,1.0
1698672660.778,16,0.0,0.0,0.0,1.0,9.3,1.0,1.8,-1.5000000000000002,1.2000000000000002
1698672660.794,16,-0.1,0.0,0.0,1.0,9.4,0.9,1.8,-1.5000000000000002,1.0999999999999999
1698672660.811,16,0.0,0.0,0.0,1.0,9.3,0.9,1.3,-1.6,1.0
1698672660.828,16,0.0,0.0,0.0,1.0,9.3,0.9,0.4,-2.6,0.7
1698672660.847,16,0.0,0.0,0.0,1.1,9.3,1.0,-0.5,-2.8,-0.4
1698672660.863,16,0.0,0.0,0.0,1.1,9.4,1.0,-0.8,-2.8,-1.0999999999999999
1698672660.878,16,0.1,0.0,0.0,1.2000000000000002,9.4,1.0,-1.0,-2.1,-1.3
1698672660.894,16,0.1,0.0,0.0,1.2000000000000002,9.4,1.0,-0.7,-1.8,-1.4
1698672660.911,16,0.1,-0.1,0.0,1.1,9.3,1.0,-0.2,-1.5000000000000002,-1.2000000000000002
1698672660.928,16,0.1,-0.1,0.0,1.1,9.3,1.0,0.9,-1.0999999999999999,-0.5
1698672660.944,16,0.1,-0.1,0.1,1.1,9.3,1.0,1.2000000000000002,-1.3,-0.5
1698672660.962,16,0.1,-0.1,0.1,1.1,9.200000000000001,1.0,1.4,-0.8,-1.5000000000000002
1698672660.978,16,0.1,-0.1,0.1,1.1,9.3,1.0,1.2000000000000002,-0.2,-1.6
1698672660.996,16,0.0,0.0,0.1,1.1,9.3,1.0,0.5,1.7,-1.5000000000000002
1698672661.013,16,0.0,0.0,0.0,1.0,9.4,0.9,-0.7,2.1999999999999997,-0.7
1698672661.028,16,-0.1,0.0,0.0,1.0,9.4,0.9,-1.9,1.6,-0.2
1698672661.044,16,-0.1,0.0,-0.1,0.9,9.3,0.9,-2.4000000000000004,-0.5,0.2
1698672661.061,16,-0.1,0.0,0.0,0.9,9.4,1.0,-2.3000000000000003,-0.8,1.0
1698672661.078,16,-0.2,0.1,0.0,0.8,9.4,0.9,-1.0999999999999999,-0.8,0.1
1698672661.094,16,-0.1,0.0,-0.1,0.9,9.4,0.9,0.0,-0.7,-1.6
1698672661.111,16,0.0,0.0,-0.1,1.0,9.4,0.9,-0.30000000000000004,-1.2000000000000002,-1.2000000000000002
1698672661.128,16,0.0,0.1,0.0,1.0,9.4,0.9,-0.7,-1.0999999999999999,-0.7
1698672661.144,16,0.1,0.1,0.0,1.1,9.5,1.0,-1.0,-0.6000000000000001,-0.2
1698672661.161,16,0.1,0.1,0.0,1.1,9.4,0.9,-1.7,0.2,0.1
1698672661.177,16,0.0,0.0,0.0,1.1,9.4,0.9,-1.9,0.30000000000000004,0.30000000000000004
1698672661.195,16,0.0,0.0,-0.1,1.0,9.3,0.9,-2.7,0.9,0.4
1698672661.211,16,0.0,0.0,-0.1,1.0,9.4,0.9,-3.2,1.2000000000000002,0.5
1698672661.228,16,0.0,0.1,-0.1,1.0,9.4,0.9,-4.300000000000001,0.7,0.6000000000000001
1698672661.244,16,0.0,0.0,-0.1,1.0,9.4,0.9,-4.5,0.1,0.5
1698672661.261,16,0.0,0.1,-0.1,1.0,9.4,0.9,-4.2,-0.5,0.2
1698672661.278,16,0.0,0.0,0.0,1.0,9.3,1.0,-2.8,-1.0,-0.1
1698672661.294,16,0.0,0.0,0.1,1.1,9.3,1.1,-1.9,-1.0999999999999999,0.0
1698672661.311,16,0.0,0.0,0.1,1.0,9.3,1.1,-0.2,-0.4,0.7
1698672661.328,16,0.0,0.0,0.1,1.0,9.3,1.1,0.6000000000000001,-0.7,1.5000000000000002
1698672661.344,16,0.0,0.0,0.1,1.0,9.3,1.2000000000000002,0.2,-1.2000000000000002,1.3
1698672661.361,16,0.0,-0.1,0.1,1.0,9.3,1.2000000000000002,-1.0,-2.4000000000000004,0.7
1698672661.378,16,-0.1,0.0,0.1,1.0,9.3,1.2000000000000002,-2.0,-2.6,0.6000000000000001
1698672661.394,16,0.0,0.0,0.0,1.0,9.3,1.1,-4.300000000000001,-2.6,-0.30000000000000004
1698672661.411,16,0.0,0.0,0.1,1.0,9.4,1.1,-6.5,-2.7,-1.3
1698672661.428,16,0.0,0.0,0.0,1.0,9.3,1.1,-6.9,-2.9,-1.4
1698672661.444,16,0.1,-0.1,0.0,1.2000000000000002,9.200000000000001,1.2000000000000002,-7.1000000000000005,-1.9,-1.6
1698672661.461,16,0.2,0.0,0.0,1.2000000000000002,9.3,1.1,-6.3,-0.8,-1.3
1698672661.478,16,0.2,0.0,-0.1,1.2000000000000002,9.3,1.1,-5.7,-0.2,-0.7
1698672661.494,16,0.2,0.1,-0.1,1.2000000000000002,9.4,1.1,-4.7,0.9,-0.2
1698672661.511,16,0.2,0.1,-0.1,1.2000000000000002,9.5,1.0,-3.8,2.1,-0.5
1698672661.528,16,0.2,0.1,-0.1,1.2000000000000002,9.5,1.1,-3.5,2.8,-0.2
1698672661.544,16,0.0,0.1,-0.2,1.1,9.4,1.0,-3.6,2.8,0.7
1698672661.561,16,-0.1,0.1,-0.2,0.9,9.4,1.0,-4.6000000000000005,0.7,2.0
1698672661.578,16,-0.30000000000000004,0.1,-0.2,0.8,9.4,1.0,-4.9,-0.6000000000000001,2.4000000000000004
1698672661.594,16,-0.30000000000000004,0.1,-0.2,0.8,9.4,1.0,-4.7,-3.9,1.8
1698672661.611,16,-0.30000000000000004,0.0,-0.1,0.7000000000000001,9.3,1.0,-4.300000000000001,-4.7,0.1
1698672661.628,16,-0.2,-0.1,-0.1,0.9,9.3,1.1,-3.0000000000000004,-3.9,-5.4
1698672661.645,16,0.2,-0.2,0.1,1.2000000000000002,9.200000000000001,1.3,-1.2000000000000002,-2.1,-7.500000000000001
1698672661.661,16,0.5,-0.30000000000000004,0.30000000000000004,1.6,9.1,1.5,2.1,1.2000000000000002,-6.000000000000001
1698672661.677,16,0.5,-0.4,0.30000000000000004,1.5,8.9,1.5,5.300000000000001,5.0,-2.1
1698672661.694,16,0.4,-0.4,0.30000000000000004,1.4000000000000001,9.0,1.5,5.9,6.7,0.7
1698672661.711,16,0.0,-0.1,0.30000000000000004,1.0,9.200000000000001,1.5,6.2,8.200000000000001,4.0
1698672661.728,16,-0.2,0.0,0.30000000000000004,0.8,9.3,1.5,5.9,8.200000000000001,4.800000000000001
1698672661.745,16,-0.5,0.0,0.1,0.5,9.4,1.3,3.7000000000000006,6.8,4.9
1698672661.761,16,-0.5,-0.1,0.1,0.5,9.3,1.2000000000000002,-0.5,5.7,2.7
1698672661.778,16,-0.6000000000000001,0.0,0.1,0.5,9.4,1.2000000000000002,-2.7,4.300000000000001,0.5
1698672661.794,16,-0.30000000000000004,0.1,0.0,0.7000000000000001,9.5,1.2000000000000002,-5.7,2.6,-1.2000000000000002
1698672661.811,16,-0.30000000000000004,0.0,-0.1,0.8,9.3,1.1,-7.400000000000001,-0.30000000000000004,-0.1
1698672661.828,16,-0.2,-0.1,0.0,0.8,9.3,1.2000000000000002,-7.300000000000001,-1.8,-0.2
1698672661.844,16,-0.1,-0.1,-0.1,1.0,9.200000000000001,1.2000000000000002,-5.4,-2.0,-1.0
1698672661.861,16,0.1,-0.2,0.0,1.1,9.1,1.2000000000000002,-2.4000000000000004,-2.1,-1.6
1698672661.877,16,0.2,-0.2,0.0,1.2000000000000002,9.1,1.2000000000000002,1.4,-1.6,-0.6000000000000001
1698672661.894,16,0.2,-0.1,0.0,1.2000000000000002,9.200000000000001,1.2000000000000002,3.3000000000000003,-1.5000000000000002,0.1
1698672661.911,16,0.2,-0.1,0.1,1.2000000000000002,9.3,1.3,6.5,-0.8,1.3
1698672661.928,16,0.2,0.0,0.1,1.2000000000000002,9.4,1.3,8.5,-0.1,1.9
1698672661.945,16,0.1,0.0,0.2,1.1,9.4,1.3,8.600000000000001,0.30000000000000004,1.7
1698672661.961,16,0.0,0.0,0.2,1.0,9.4,1.3,7.1000000000000005,1.2000000000000002,1.5000000000000002
1698672661.978,16,0.0,0.0,0.1,1.0,9.4,1.3,3.7000000000000006,1.4,1.0
1698672661.994,16,-0.1,0.0,0.1,1.0,9.4,1.3,1.5000000000000002,1.4,0.4
1698672662.011,16,-0.1,0.0,0.0,1.0,9.3,1.2000000000000002,-1.9,1.0999999999999999,-0.2
1698672662.028,16,-0.1,0.0,0.0,1.0,9.3,1.2000000000000002,-3.3000000000000003,0.6000000000000001,-0.5
1698672662.044,16,0.0,0.0,-0.1,1.0,9.3,1.1,-4.5,0.1,-0.9
1698672662.061,16,0.0,0.0,-0.1,1.0,9.3,1.1,-4.1000000000000005,0.0,-0.7
1698672662.077,16,0.0,0.0,-0.1,1.0,9.3,1.1,-2.5,-0.1,-0.2
1698672662.094,16,0.0,0.0,-0.1,1.0,9.4,1.1,-1.3,-0.1,0.0
1698672662.111,16,0.0,0.0,-0.1,1.0,9.4,1.1,0.1,-0.2,0.2
1698672662.128,16,0.0,0.0,-0.1,1.0,9.3,1.1,2.5,-0.2,0.5
1698672662.144,16,0.0,0.0,0.0,1.0,9.3,1.1,4.0,-0.2,0.8
1698672662.161,16,0.0,0.0,0.0,1.0,9.3,1.2000000000000002,4.3999999999999995,-0.4,0.9
1698672662.177,16,0.0,0.0,0.1,1.0,9.3,1.2000000000000002,3.7000000000000006,-0.2,0.7
1698672662.195,16,0.0,0.0,0.1,1.0,9.3,1.2000000000000002,3.1,0.0,0.4
1698672662.211,16,0.0,0.0,0.1,1.1,9.3,1.2000000000000002,1.8,0.1,0.5
1698672662.227,16,0.0,0.0,0.1,1.0,9.3,1.2000000000000002,0.30000000000000004,0.6000000000000001,0.6000000000000001
1698672662.244,16,0.0,-0.1,0.1,1.0,9.3,1.2000000000000002,-0.30000000000000004,0.6000000000000001,0.6000000000000001
1698672662.261,16,0.0,0.0,0.0,1.0,9.3,1.2000000000000002,-1.0,0.4,0.4
1698672662.278,16,0.0,0.0,0.0,1.0,9.3,1.2000000000000002,-1.0999999999999999,0.4,0.4
1698672662.296,16,0.0,0.0,0.0,1.0,9.3,1.2000000000000002,-1.0,0.8,0.4
1698672662.31,16,0.0,0.0,0.0,1.0,9.3,1.1,-0.30000000000000004,0.7,0.6000000000000001
1698672662.327,16,0.0,0.0,0.0,1.0,9.3,1.2000000000000002,0.5,0.4,0.7
1698672662.344,16,0.0,0.0,0.0,1.0,9.3,1.2000000000000002,0.9,0.4,0.8
1698672662.361,16,0.0,0.0,0.0,1.0,9.3,1.2000000000000002,2.0,0.1,0.6000000000000001
1698672662.377,16,0.0,0.0,0.0,1.0,9.3,1.1,2.6,0.1,0.4
1698672662.394,16,0.0,0.0,0.0,1.0,9.3,1.1,2.8,-0.1,0.5
1698672662.411,16,0.0,0.0,0.0,1.0,9.3,1.1,2.8,-0.8,0.2
1698672662.427,16,0.0,0.0,0.0,1.1,9.3,1.2000000000000002,2.7,-0.9,-0.2
1698672662.444,16,0.0,0.0,0.0,1.1,9.3,1.1,2.6,-0.7,-0.2
1698672662.461,16,0.1,0.0,0.1,1.1,9.3,1.2000000000000002,2.1,-0.2,0.30000000000000004
1698672662.478,16,0.0,0.0,0.0,1.1,9.3,1.1,1.6,0.1,0.4
1698672662.494,16,0.0,0.0,0.0,1.1,9.4,1.1,0.9,0.4,0.2
1698672662.511,16,0.0,0.0,0.0,1.1,9.4,1.1,0.7,0.30000000000000004,0.1
1698672662.528,16,0.0,0.0,0.0,1.0,9.3,1.1,0.4,0.30000000000000004,0.0
1698672662.544,16,0.0,0.0,0.0,1.0,9.4,1.1,0.6000000000000001,0.4,-0.1
1698672662.561,16,0.0,0.0,0.0,1.0,9.3,1.1,0.9,0.4,-0.1
1698672662.578,16,0.0,-0.1,0.0,1.0,9.3,1.1,1.4,-0.2,-0.1
1698672662.594,16,0.0,-0.1,0.0,1.0,9.200000000000001,1.1,1.7,-0.4,-0.1
1698672662.611,16,0.0,0.0,0.0,1.0,9.3,1.1,2.5,-0.30000000000000004,-0.1
1698672662.628,16,0.0,0.0,0.0,1.1,9.3,1.1,3.1,-0.2,0.0
1698672662.644,16,0.0,0.0,0.0,1.1,9.3,1.1,3.3000000000000003,-0.2,0.1
1698672662.661,16,0.0,0.0,0.0,1.1,9.3,1.1,3.2,-0.2,0.1
1698672662.677,16,0.0,0.0,0.0,1.0,9.4,1.1,2.9,-0.30000000000000004,0.0
1698672662.694,16,0.0,0.0,0.0,1.0,9.3,1.1,2.8,-0.2,-0.1
1698672662.711,16,0.0,0.0,0.0,1.0,9.3,1.1,2.0,0.0,-0.5
1698672662.728,16,0.0,0.0,0.0,1.0,9.4,1.1,1.5000000000000002,0.1,-0.30000000000000004
1698672662.744,16,0.0,0.0,0.0,1.1,9.3,1.0,0.9,0.1,-0.30000000000000004
1698672662.761,16,0.0,0.0,0.0,1.0,9.3,1.0,0.8,0.0,-0.1
1698672662.777,16,0.0,0.0,-0.1,1.0,9.4,1.0,0.30000000000000004,-0.7,-0.1
1698672662.794,16,0.0,0.0,-0.1,1.0,9.4,1.0,0.2,-1.0,-0.4
1698672662.812,16,-0.1,0.0,-0.1,1.0,9.4,0.9,0.1,-1.5000000000000002,-0.7
1698672662.827,16,0.0,0.0,-0.1,1.0,9.4,0.9,0.30000000000000004,-2.6,-0.8
1698672662.845,16,0.0,0.1,-0.1,1.1,9.4,0.9,0.4,-3.1,-1.2000000000000002
1698672662.861,16,0.1,0.0,0.0,1.1,9.4,1.0,0.9,-3.5,-2.4000000000000004
1698672662.878,16,0.1,-0.1,0.0,1.2000000000000002,9.3,1.0,1.8,-2.3000000000000003,-3.4
1698672662.894,16,0.2,-0.1,0.0,1.2000000000000002,9.200000000000001,1.0,2.3000000000000003,-1.5000000000000002,-3.0000000000000004
1698672662.911,16,0.2,-0.1,0.1,1.2000000000000002,9.3,1.1,2.7,-0.1,-2.9
1698672662.928,16,0.2,0.0,0.1,1.3,9.3,1.1,3.2,1.4,-2.6
1698672662.945,16,0.2,0.0,0.1,1.2000000000000002,9.4,1.1,3.5,2.3000000000000003,-2.6
1698672662.961,16,0.1,0.0,0.0,1.1,9.4,1.0,3.9,4.1000000000000005,-2.1999999999999997
1698672662.978,16,0.0,0.0,0.1,1.0,9.4,1.0,3.6,4.300000000000001,-1.6
1698672662.994,16,-0.1,0.0,0.0,0.9,9.3,1.0,3.2,4.800000000000001,-1.9
1698672663.011,16,-0.1,0.0,0.1,0.9,9.3,1.0,2.9,5.1,-2.1
1698672663.028,16,-0.1,0.0,0.0,0.9,9.3,0.9,2.1,5.0,-2.1
1698672663.044,16,-0.1,0.1,-0.1,0.9,9.4,0.9,0.9,4.300000000000001,-1.3
1698672663.061,16,-0.1,0.1,-0.1,0.9,9.4,0.9,-0.2,2.8,-0.4
1698672663.078,16,-0.1,0.2,-0.1,0.8,9.5,0.9,-1.7,2.1999999999999997,1.2000000000000002
1698672663.094,16,-0.2,0.2,-0.1,0.8,9.600000000000001,0.8,-2.4000000000000004,1.8,1.5000000000000002
1698672663.112,16,-0.30000000000000004,0.2,-0.1,0.7000000000000001,9.5,0.9,-3.5,0.0,1.0999999999999999
1698672663.127,16,-0.30000000000000004,0.1,-0.1,0.7000000000000001,9.4,0.9,-3.6,0.0,0.2
1698672663.144,16,-0.1,0.0,-0.2,0.8,9.3,0.8,-3.6,-0.2,-1.8
1698672663.161,16,0.0,0.0,-0.1,0.9,9.3,0.8,-3.9,-1.6,-1.3
1698672663.178,16,0.0,0.0,-0.1,0.9,9.4,0.9,-3.7000000000000006,-2.1,-0.8
1698672663.194,16,0.0,0.0,0.0,1.0,9.4,0.9,-2.4000000000000004,-2.8,-0.1
1698672663.211,16,0.1,0.0,0.0,1.0,9.4,1.0,-1.6,-3.2,-0.30000000000000004
1698672663.227,16,0.1,0.0,0.1,1.0,9.4,1.0,0.4,-2.1999999999999997,0.1
1698672663.244,16,0.1,0.0,0.1,1.0,9.4,1.1,1.7,-1.8,0.7
1698672663.261,16,0.1,0.0,0.1,1.0,9.3,1.1,1.5000000000000002,-1.0999999999999999,0.7
1698672663.278,16,0.0,-0.1,0.1,1.0,9.3,1.1,0.9,-1.0,0.4
1698672663.294,16,0.0,-0.1,0.1,1.0,9.3,1.1,-0.8,-0.4,0.2
1698672663.311,16,0.0,0.0,0.1,1.0,9.3,1.1,-2.1,-0.1,0.1
1698672663.328,16,0.0,-0.1,0.1,1.0,9.3,1.1,-4.1000000000000005,0.30000000000000004,-0.30000000000000004
1698672663.345,16,0.0,-0.1,0.0,1.0,9.200000000000001,1.0,-5.2,0.2,-0.6000000000000001
1698672663.363,16,0.0,-0.1,0.0,1.0,9.3,1.1,-5.500000000000001,0.1,-0.8
1698672663.378,16,0.0,-0.1,0.0,1.0,9.3,1.0,-5.2,0.0,-0.8
1698672663.394,16,0.0,0.0,0.0,0.9,9.3,1.0,-3.6,0.1,-0.9
1698672663.411,16,0.0,0.0,0.0,0.9,9.3,1.0,-1.4,-0.2,-0.4
1698672663.428,16,0.0,0.0,0.0,0.9,9.3,1.1,-0.30000000000000004,-0.7,-0.1
1698672663.444,16,0.0,0.0,0.0,0.9,9.3,1.1,0.6000000000000001,-1.0,-0.1
1698672663.461,16,0.0,0.0,0.0,1.0,9.3,1.1,2.0,-1.0999999999999999,0.1
1698672663.478,16,0.0,0.0,0.1,0.9,9.3,1.1,2.4000000000000004,-0.7,0.0
1698672663.494,16,-0.1,0.0,0.0,0.9,9.3,1.1,1.6,-1.2000000000000002,-0.2
1698672663.511,16,-0.1,0.0,0.1,0.9,9.3,1.1,0.4,-1.2000000000000002,-0.7
1698672663.528,16,0.0,0.0,0.0,0.9,9.3,1.1,-0.30000000000000004,-1.0999999999999999,-0.8
1698672663.544,16,0.0,-0.1,0.0,0.9,9.200000000000001,1.1,-2.1,-0.2,-1.0
1698672663.561,16,0.0,0.0,0.0,0.9,9.3,1.0,-3.3000000000000003,0.1,-0.4
1698672663.578,16,0.0,0.0,0.0,0.9,9.3,1.0,-3.5,-0.4,-0.4
1698672663.594,16,0.0,0.0,-0.1,1.0,9.4,1.0,-3.4,-0.2,-0.5
1698672663.611,16,0.0,0.0,-0.1,1.0,9.3,1.0,-2.7,-0.7,-1.0
1698672663.627,16,0.1,0.1,-0.1,1.0,9.4,1.0,-1.2000000000000002,-0.2,-0.2
1698672663.645,16,0.0,0.0,-0.1,0.9,9.4,1.0,0.8,0.2,0.8
1698672663.661,16,-0.1,0.0,0.0,0.9,9.4,1.0,2.8,0.0,1.2000000000000002
1698672663.678,16,-0.1,0.0,0.0,0.9,9.3,1.1,3.7000000000000006,-0.30000000000000004,1.5000000000000002
1698672663.694,16,0.0,-0.1,0.0,0.9,9.200000000000001,1.1,4.7,-0.30000000000000004,1.8
1698672663.711,16,0.0,-0.1,0.0,0.9,9.200000000000001,1.0,4.6000000000000005,-0.5,2.0
1698672663.729,16,0.0,-0.1,0.1,0.9,9.200000000000001,1.1,3.7000000000000006,-2.1999999999999997,2.1
1698672663.744,16,-0.1,-0.1,0.1,0.9,9.200000000000001,1.1,3.4,-2.6,2.6
1698672663.761,16,-0.1,-0.1,0.1,0.9,9.3,1.1,3.1,-3.8,3.4
1698672663.779,16,-0.1,0.0,0.1,0.9,9.3,1.1,3.2,-4.1000000000000005,3.5
1698672663.794,16,-0.1,0.0,0.1,0.9,9.4,1.1,3.4,-4.1000000000000005,3.4
1698672663.811,16,0.0,0.1,0.1,0.9,9.4,1.1,3.3000000000000003,-4.0,3.1
1698672663.827,16,0.0,0.1,0.0,1.0,9.4,1.0,2.6,-4.6000000000000005,2.6
1698672663.844,16,0.0,0.1,0.0,0.9,9.5,1.0,1.2000000000000002,-6.3,2.0
1698672663.861,16,-0.1,0.1,0.0,0.9,9.4,1.0,0.0,-6.5,1.8
1698672663.877,16,0.0,0.1,-0.1,1.0,9.4,0.9,-0.8,-6.2,1.8
1698672663.894,16,0.0,0.0,-0.1,1.0,9.4,0.9,-2.5,-7.400000000000001,1.8
1698672663.91,16,0.1,0.0,0.0,1.1,9.4,1.0,-3.3000000000000003,-7.400000000000001,1.0
1698672663.927,16,0.2,0.0,-0.1,1.2000000000000002,9.4,0.9,-3.5,-6.6000000000000005,-0.1
1698672663.944,16,0.2,0.0,-0.1,1.2000000000000002,9.4,0.9,-3.5,-6.5,-0.8
1698672663.961,16,0.2,0.0,-0.1,1.3,9.3,0.9,-3.0000000000000004,-6.2,-2.5
1698672663.977,16,0.30000000000000004,0.0,-0.1,1.3,9.3,0.9,-1.8,-4.7,-3.5
1698672663.994,16,0.30000000000000004,0.0,-0.1,1.3,9.3,0.9,-1.0999999999999999,-3.8,-3.7000000000000006
1698672664.011,16,0.30000000000000004,-0.1,-0.1,1.4000000000000001,9.200000000000001,0.9,0.6000000000000001,-2.6,-2.9
1698672664.027,16,0.30000000000000004,-0.1,0.0,1.3,9.200000000000001,1.0,2.1999999999999997,-1.6,-1.0
1698672664.044,16,0.2,0.0,-0.1,1.3,9.3,0.9,3.1,-1.2000000000000002,-0.5
1698672664.061,16,0.1,0.0,0.0,1.2000000000000002,9.4,1.0,4.300000000000001,0.1,-1.7
1698672664.077,16,0.0,0.1,0.0,1.1,9.4,1.0,5.1,2.1999999999999997,-2.0
1698672664.094,16,0.0,0.0,0.0,1.1,9.4,1.0,5.1,2.8,-1.8
1698672664.111,16,0.0,0.0,0.1,1.1,9.3,1.0,4.2,3.4,-1.3
1698672664.128,16,-0.1,0.0,0.0,1.0,9.3,0.9,3.4,3.7000000000000006,-1.0
1698672664.144,16,-0.1,0.0,0.0,0.9,9.3,0.9,1.7,3.8,-0.7
1698672664.161,16,-0.1,0.0,0.0,0.9,9.4,0.9,0.1,4.300000000000001,-0.4
1698672664.178,16,-0.2,0.1,0.0,0.9,9.4,0.9,-0.30000000000000004,4.300000000000001,-0.5
1698672664.194,16,-0.1,0.1,0.0,0.9,9.4,0.9,-0.30000000000000004,4.5,-0.7
1698672664.212,16,-0.1,0.0,-0.1,0.9,9.4,0.9,0.1,4.1000000000000005,-0.5
1698672664.227,16,-0.1,0.0,0.0,0.9,9.3,0.9,0.9,3.6,0.1
1698672664.244,16,-0.1,0.0,-0.1,0.9,9.3,0.9,1.2000000000000002,3.3000000000000003,0.6000000000000001
1698672664.261,16,-0.1,0.0,0.0,0.9,9.3,0.9,1.8,2.4000000000000004,1.8
1698672664.277,16,-0.1,0.1,0.0,0.9,9.4,0.9,2.4000000000000004,1.7,1.7
1698672664.294,16,0.0,0.0,0.0,1.0,9.4,0.9,3.1,2.0,1.0999999999999999
1698672664.311,16,0.0,0.0,0.0,1.0,9.3,0.9,3.3000000000000003,2.0,1.2000000000000002
1698672664.327,16,0.0,-0.1,0.0,0.9,9.3,0.9,2.6,1.8,2.0
1698672664.345,16,-0.1,0.0,0.0,0.9,9.3,0.9,1.8,1.7,2.4000000000000004
1698672664.361,16,-0.1,0.1,0.0,0.9,9.4,0.9,0.30000000000000004,0.6000000000000001,2.1999999999999997
1698672664.377,16,0.0,0.0,0.0,1.0,9.4,0.9,-0.7,0.5,1.6
1698672664.394,16,0.0,0.0,0.0,1.1,9.4,0.9,-1.0999999999999999,0.4,1.6
1698672664.411,16,0.0,0.0,0.0,1.1,9.3,0.9,-1.0999999999999999,0.6000000000000001,1.7
1698672664.427,16,0.0,0.0,0.0,1.1,9.3,0.9,-0.5,1.0999999999999999,2.1
1698672664.445,16,0.0,0.0,0.0,1.1,9.3,0.8,-0.2,1.0999999999999999,2.1
1698672664.461,16,0.0,0.0,0.0,1.1,9.3,0.9,0.5,0.7,2.1
1698672664.478,16,0.0,0.0,0.0,1.1,9.3,0.9,1.4,0.7,2.0
1698672664.495,16,0.0,0.0,0.0,1.1,9.3,0.9,1.8,0.7,1.9
1698672664.511,16,0.0,0.0,0.0,1.1,9.3,0.9,2.0,1.0,1.5000000000000002
1698672664.528,16,0.0,0.0,0.0,1.1,9.4,0.9,1.8,1.5000000000000002,1.5000000000000002
1698672664.544,16,0.0,0.0,0.0,1.1,9.3,0.9,1.2000000000000002,1.7,1.6
1698672664.561,16,0.0,0.0,0.0,1.1,9.3,0.9,0.8,1.8,1.7
1698672664.577,16,0.0,0.0,0.0,1.1,9.3,0.8,0.1,1.5000000000000002,1.7
1698672664.594,16,0.0,0.0,0.0,1.1,9.4,0.8,-0.30000000000000004,0.9,1.6
1698672664.611,16,-0.1,0.0,0.0,1.0,9.3,0.8,-0.8,0.9,1.4
1698672664.627,16,0.0,0.0,0.0,1.1,9.4,0.8,-0.6000000000000001,0.4,0.9
1698672664.644,16,0.0,0.0,0.0,1.1,9.3,0.8,-0.4,0.30000000000000004,0.7
1698672664.662,16,0.0,0.0,0.0,1.1,9.3,0.9,0.30000000000000004,0.6000000000000001,0.6000000000000001
1698672664.677,16,0.0,0.0,0.0,1.1,9.3,0.9,0.9,1.2000000000000002,0.9
1698672664.694,16,0.0,0.0,0.0,1.1,9.3,0.9,1.0,1.2000000000000002,1.2000000000000002
1698672664.711,16,0.0,0.0,0.0,1.1,9.3,0.9,1.0999999999999999,0.7,1.5000000000000002
1698672664.727,16,-0.1,0.0,0.0,1.0,9.3,0.9,0.9,0.30000000000000004,1.4
1698672664.744,16,0.0,0.0,0.0,1.1,9.4,0.9,0.8,0.1,1.0
1698672664.761,16,0.0,0.0,0.0,1.1,9.3,0.9,0.4,-0.1,0.6000000000000001
1698672664.777,16,0.0,0.0,0.0,1.1,9.3,0.9,-0.1,-0.1,0.6000000000000001
1698672664.794,16,0.0,0.0,0.0,1.1,9.4,0.9,-0.4,-0.2,0.8
1698672664.811,16,0.0,0.0,0.0,1.1,9.4,0.9,-0.7,0.0,0.4
1698672664.827,16,0.0,0.0,0.0,1.1,9.4,0.9,-0.6000000000000001,0.1,0.2
1698672664.844,16,0.0,0.0,0.0,1.1,9.3,0.9,-0.7,0.2,0.30000000000000004
1698672664.861,16,0.0,0.0,0.0,1.1,9.3,0.9,-0.8,0.4,0.30000000000000004
1698672664.878,16,0.0,0.1,0.0,1.2000000000000002,9.4,0.8,-1.2000000000000002,1.0999999999999999,0.1
1698672664.894,16,0.0,0.1,-0.1,1.1,9.4,0.8,-1.5000000000000002,0.9,0.1
1698672664.911,16,0.0,0.1,0.0,1.1,9.4,0.8,-1.6,0.7,0.2
1698672664.927,16,0.0,0.1,-0.1,1.1,9.4,0.8,-1.6,0.9,0.1
1698672664.944,16,0.0,0.0,0.0,1.1,9.4,0.8,-1.5000000000000002,1.0,0.0
1698672664.96,16,0.0,0.0,0.0,1.2000000000000002,9.4,0.8,-1.7,1.2000000000000002,0.2
1698672664.977,16,0.0,0.1,-0.1,1.1,9.4,0.8,-2.0,1.0999999999999999,0.2
1698672664.994,16,0.0,0.2,-0.1,1.2000000000000002,9.5,0.7000000000000001,-2.8,0.7,0.4
1698672665.011,16,0.0,0.2,-0.1,1.2000000000000002,9.5,0.8,-4.1000000000000005,0.9,-0.1
1698672665.027,16,0.0,0.4,-0.1,1.1,9.8,0.8,-5.500000000000001,-0.2,-0.7
1698672665.044,16,0.0,0.6000000000000001,0.0,1.2000000000000002,10.0,0.9,-6.2,-2.4000000000000004,-0.6000000000000001
1698672665.06,16,0.1,0.4,-0.1,1.2000000000000002,9.8,0.8,-9.1,0.30000000000000004,-2.5
1698672665.077,16,0.1,0.4,-0.1,1.2000000000000002,9.8,0.8,-11.6,1.8,-3.9
1698672665.094,16,0.2,0.5,-0.2,1.3,9.9,0.9,-16.400000000000002,3.7000000000000006,-5.6
1698672665.111,16,0.2,0.6000000000000001,-0.30000000000000004,1.3,10.0,0.8,-19.200000000000003,5.6,-5.8
1698672665.127,16,0.1,0.5,-0.4,1.2000000000000002,9.9,0.7000000000000001,-24.5,4.3999999999999995,-5.4
1698672665.144,16,0.1,0.4,-0.4,1.1,9.9,0.8,-29.800000000000004,3.9,-3.9
1698672665.161,16,0.1,0.5,-0.5,1.1,9.9,0.7000000000000001,-32.300000000000004,4.2,-3.0000000000000004
1698672665.177,16,0.1,0.6000000000000001,-0.6000000000000001,1.1,10.100000000000001,0.7000000000000001,-38.6,1.9,-2.5
1698672665.194,16,0.0,0.6000000000000001,-0.5,1.1,10.100000000000001,0.9,-41.5,1.0999999999999999,-3.5
1698672665.211,16,0.1,0.6000000000000001,-0.5,1.1,10.100000000000001,0.9,-45.0,5.4,-4.7
1698672665.227,16,0.2,0.7000000000000001,-0.5,1.2000000000000002,10.200000000000001,1.1,-46.1,6.2,-5.2
1698672665.244,16,0.2,0.8,-0.7000000000000001,1.2000000000000002,10.200000000000001,1.1,-46.900000000000006,9.5,-3.9
1698672665.261,16,0.30000000000000004,0.9,-0.9,1.3,10.200000000000001,1.0,-49.6,10.0,-2.9
1698672665.278,16,0.4,1.0,-0.9,1.4000000000000001,10.4,1.1,-51.6,8.3,-2.9
1698672665.294,16,0.4,1.0,-0.8,1.3,10.4,1.4000000000000001,-55.300000000000004,12.6,-3.6
1698672665.311,16,0.4,1.3,-1.0,1.3,10.600000000000001,1.3,-58.3,16.0,-3.2
1698672665.327,16,0.5,1.2000000000000002,-1.3,1.4000000000000001,10.5,1.2000000000000002,-69.80000000000001,23.8,-4.1000000000000005
1698672665.344,16,0.6000000000000001,1.1,-1.8,1.5,10.4,0.9,-87.10000000000001,27.400000000000002,-5.8
1698672665.361,16,0.6000000000000001,1.0,-2.0,1.5,10.200000000000001,0.9,-99.0,29.400000000000002,-6.000000000000001
1698672665.378,16,0.6000000000000001,1.3,-2.6,1.4000000000000001,10.4,0.7000000000000001,-125.9,29.000000000000004,-4.0
1698672665.394,16,0.5,1.8,-2.6,1.3,10.8,1.1,-148.9,24.9,-6.2
1698672665.412,16,0.5,1.9000000000000001,-2.6,1.2000000000000002,10.8,1.3,-156.20000000000002,25.2,-8.4
1698672665.427,16,0.4,1.7000000000000002,-2.4000000000000004,1.1,10.4,2.0,-158.7,21.700000000000003,-12.9
1698672665.444,16,0.7000000000000001,1.9000000000000001,-1.5,1.3,10.3,3.4000000000000004,-144.5,26.6,-16.700000000000003
1698672665.461,16,0.8,2.0,-1.0,1.3,10.3,4.0,-130.70000000000002,31.900000000000002,-17.9
1698672665.477,16,1.0,1.7000000000000002,0.4,1.5,9.8,5.7,-94.1,39.9,-15.2
1698672665.494,16,1.4000000000000001,1.5,1.8,1.7000000000000002,9.5,7.300000000000001,-62.7,45.5,-8.200000000000001
1698672665.511,16,0.9,0.9,2.0,1.2000000000000002,8.9,7.6000000000000005,-64.7,42.400000000000006,-6.000000000000001
1698672665.527,16,-1.2000000000000002,-0.30000000000000004,2.2,-0.9,7.5,8.200000000000001,-100.10000000000001,15.2,-0.1
1698672665.544,16,-1.8,-0.4,1.7000000000000002,-1.5,7.2,7.9,-114.70000000000002,2.9,9.700000000000001
1698672665.561,16,-1.8,-0.6000000000000001,1.4000000000000001,-1.6,6.800000000000001,7.7,-105.7,-1.0,10.8
1698672665.578,16,-1.1,-1.8,1.3,-0.9,5.4,7.9,-73.30000000000001,-2.3000000000000003,2.1
1698672665.594,16,0.2,-1.8,1.7000000000000002,0.5,5.300000000000001,8.5,-44.3,4.2,-8.600000000000001
1698672665.611,16,0.7000000000000001,-1.7000000000000002,1.9000000000000001,0.9,5.300000000000001,8.6,-36.4,7.2,-4.2
1698672665.628,16,0.2,-1.3,1.8,0.5,5.7,8.700000000000001,-33.5,6.7,9.3
1698672665.644,16,-0.8,-0.5,1.3,-0.6000000000000001,6.4,8.200000000000001,-31.4,12.9,7.0
1698672665.661,16,-0.5,0.1,0.7000000000000001,-0.30000000000000004,7.0,7.7,-18.3,11.1,1.3
1698672665.677,16,-0.30000000000000004,0.2,0.7000000000000001,-0.1,7.0,7.800000000000001,-10.700000000000001,5.300000000000001,0.2
1698672665.694,16,-0.4,0.1,1.3,-0.2,6.9,8.4,3.3000000000000003,-1.7,1.4
1698672665.711,16,-0.4,-0.1,1.5,-0.2,6.800000000000001,8.5,7.0,-3.5,3.4
1698672665.728,16,-0.6000000000000001,-0.5,1.4000000000000001,-0.4,6.300000000000001,8.4,8.0,-5.4,4.300000000000001
1698672665.744,16,-0.4,-0.8,1.0,-0.1,6.1000000000000005,8.0,9.200000000000001,-5.9,5.4
1698672665.761,16,-0.4,-0.4,0.5,-0.2,6.4,7.5,18.5,-6.9,4.5
1698672665.777,16,-0.4,-0.30000000000000004,0.2,-0.1,6.6000000000000005,7.2,24.1,-7.1000000000000005,4.800000000000001
1698672665.794,16,-0.4,-0.2,0.0,-0.1,6.800000000000001,6.9,32.2,-10.2,4.0
1698672665.811,16,-0.5,-0.30000000000000004,-0.1,-0.1,6.7,6.7,37.300000000000004,-12.9,1.2000000000000002
1698672665.827,16,-0.5,-0.4,-0.1,-0.2,6.7,6.4,39.400000000000006,-13.8,-1.2000000000000002
1698672665.844,16,-0.5,-0.5,-0.4,-0.1,6.7,6.2,42.900000000000006,-16.400000000000002,-4.800000000000001
1698672665.861,16,-0.4,-0.5,-0.5,0.1,6.7,5.800000000000001,46.2,-14.500000000000002,-7.2
1698672665.877,16,-0.2,-0.7000000000000001,-0.9,0.2,6.7,5.6000000000000005,48.00000000000001,-13.0,-7.6
1698672665.894,16,-0.1,-0.9,-1.1,0.30000000000000004,6.5,5.2,52.0,-10.4,-5.7
1698672665.91,16,-0.1,-1.3,-1.3,0.30000000000000004,6.2,4.800000000000001,56.7,-8.700000000000001,0.4
1698672665.927,16,-0.1,-1.1,-1.4000000000000001,0.4,6.5,4.6000000000000005,65.0,-11.6,8.1
1698672665.944,16,-0.1,-1.0,-1.4000000000000001,0.4,6.800000000000001,4.5,70.8,-10.2,11.5
1698672665.96,16,0.0,-1.0,-1.8,0.5,6.9,3.9000000000000004,79.00000000000001,-3.6,16.2
1698672665.977,16,0.0,-1.1,-1.8,0.6000000000000001,7.0,3.6,83.4,-0.4,17.200000000000003
1698672665.994,16,0.0,-1.1,-1.6,0.6000000000000001,7.0,3.7,86.1,-0.6000000000000001,16.5
1698672666.01,16,-0.2,-1.5,-1.4000000000000001,0.5,6.800000000000001,3.6,92.9,-3.6,14.600000000000001
1698672666.027,16,-0.30000000000000004,-1.7000000000000002,-1.3,0.4,6.7,3.6,95.5,-6.000000000000001,13.9
1698672666.044,16,-0.5,-2.0,-0.9,0.2,6.5,3.7,98.30000000000001,-15.9,13.9
1698672666.06,16,-1.0,-1.9000000000000001,-0.1,-0.2,6.7,4.2,99.4,-24.400000000000002,14.900000000000002
1698672666.077,16,-1.4000000000000001,-1.5,-0.1,-0.5,7.2,3.8000000000000003,93.60000000000001,-40.3,23.0
1698672666.094,16,-1.6,-1.5,0.0,-0.6000000000000001,7.300000000000001,3.8000000000000003,83.50000000000001,-36.0,22.900000000000002
1698672666.111,16,-1.4000000000000001,-1.9000000000000001,0.2,-0.4,7.0,3.8000000000000003,60.7,-32.2,15.299999999999999
1698672666.127,16,-1.1,-2.1,0.2,-0.1,6.7,3.8000000000000003,50.5,-34.2,8.9
1698672666.144,16,-0.6000000000000001,-2.5,-0.1,0.5,6.4,3.3000000000000003,30.599999999999998,-36.0,-5.7
1698672666.16,16,-0.30000000000000004,-2.3000000000000003,0.1,0.8,6.6000000000000005,3.5,10.5,-32.800000000000004,-15.7
1698672666.177,16,0.0,-1.8,0.4,1.1,7.1000000000000005,3.7,2.7,-31.5,-17.599999999999998
1698672666.194,16,0.4,-0.8,0.6000000000000001,1.5,8.1,4.0,-6.5,-24.8,-19.0
1698672666.211,16,0.8,-0.2,0.6000000000000001,1.8,8.700000000000001,4.0,-9.200000000000001,-19.8,-15.9
1698672666.227,16,0.9,-0.2,0.30000000000000004,2.0,8.700000000000001,3.7,-10.5,-20.900000000000002,-13.200000000000001
1698672666.244,16,0.9,-0.8,-0.1,2.0,8.1,3.3000000000000003,-16.700000000000003,-17.599999999999998,-6.8
1698672666.26,16,0.8,-1.4000000000000001,-0.7000000000000001,1.9000000000000001,7.4,2.8000000000000003,-24.400000000000002,-12.4,-0.1
1698672666.277,16,0.6000000000000001,-1.6,-0.9,1.7000000000000002,7.1000000000000005,2.7,-31.2,-11.4,1.7
1698672666.294,16,0.4,-1.6,-0.9,1.5,7.1000000000000005,2.7,-32.2,-12.000000000000002,1.2000000000000002
1698672666.311,16,0.4,-1.3,-1.2000000000000002,1.5,7.4,2.6,-31.5,-10.5,-3.2
1698672666.327,16,0.6000000000000001,-1.1,-1.3,1.7000000000000002,7.6000000000000005,2.5,-28.400000000000002,-4.3999999999999995,-8.4
1698672666.344,16,0.8,-1.0,-1.4000000000000001,1.9000000000000001,7.6000000000000005,2.4000000000000004,-26.500000000000004,1.2000000000000002,-10.5
1698672666.36,16,1.2000000000000002,-1.2000000000000002,-1.7000000000000002,2.2,7.4,2.2,-22.7,16.900000000000002,-13.0
1698672666.377,16,1.6,-1.1,-1.8,2.6,7.5,2.1,-18.400000000000002,30.200000000000003,-11.2
1698672666.394,16,1.7000000000000002,-0.9,-1.8,2.7,7.7,2.1,-15.100000000000001,30.599999999999998,-9.3
1698672666.41,16,1.3,-0.5,-1.6,2.3000000000000003,8.0,2.3000000000000003,-4.7,18.900000000000002,-0.2
1698672666.427,16,0.4,0.30000000000000004,-1.6,1.3,8.8,2.3000000000000003,9.700000000000001,8.9,17.599999999999998
1698672666.444,16,-0.2,0.8,-1.7000000000000002,0.8,9.3,2.2,15.9,12.8,25.5
1698672666.461,16,-0.30000000000000004,1.5,-1.5,0.7000000000000001,10.100000000000001,2.3000000000000003,28.1,17.200000000000003,32.5
1698672666.477,16,0.1,1.9000000000000001,-1.3,1.5,10.8,2.5,43.6,8.600000000000001,21.400000000000002
1698672666.494,16,0.6000000000000001,2.2,-1.4000000000000001,1.7000000000000002,10.9,2.2,48.800000000000004,5.8,10.9
1698672666.511,16,1.2000000000000002,2.4000000000000004,-1.6,2.3000000000000003,11.200000000000001,1.9000000000000001,46.300000000000004,3.0000000000000004,-0.30000000000000004
1698672666.527,16,1.3,2.7,-1.6,2.5,11.5,1.8,40.3,4.2,-1.3
1698672666.544,16,1.2000000000000002,2.8000000000000003,-1.3,2.4000000000000004,11.700000000000001,2.0,24.7,7.300000000000001,-2.6
1698672666.561,16,1.0,2.5,-0.5,2.1,11.3,2.8000000000000003,12.3,8.0,-8.1
1698672666.577,16,0.9,2.3000000000000003,-0.2,1.8,11.100000000000001,2.9000000000000004,8.4,-1.5000000000000002,-10.600000000000001
1698672666.594,16,0.5,1.7000000000000002,-0.30000000000000004,1.6,10.600000000000001,2.9000000000000004,5.9,-5.7,-9.5
1698672666.611,16,-0.4,-0.1,1.0,0.7000000000000001,8.9,4.2,5.500000000000001,-10.3,-6.5
1698672666.628,16,-1.5,-1.0,1.8,-0.4,8.0,4.9,26.0,-16.2,-1.5000000000000002
1698672666.644,16,-1.7000000000000002,-1.0,2.1,-0.6000000000000001,8.0,5.1000000000000005,37.5,-22.8,-1.0
1698672666.661,16,-1.4000000000000001,-0.8,2.6,-0.30000000000000004,8.200000000000001,5.5,55.0,-34.0,-2.0
1698672666.677,16,-0.8,-0.8,2.6,0.4,8.3,5.4,55.6,-27.5,-4.1000000000000005
1698672666.694,16,-0.2,-0.8,2.5,0.9,8.3,5.2,49.0,-19.200000000000003,-8.200000000000001
1698672666.711,16,0.7000000000000001,-0.4,2.6,1.8,8.8,5.2,26.400000000000002,-11.000000000000002,-18.5
1698672666.728,16,1.4000000000000001,0.8,2.5,2.4000000000000004,9.9,5.1000000000000005,2.1,-15.8,-17.599999999999998
1698672666.744,16,1.2000000000000002,1.1,2.2,2.2,10.200000000000001,4.9,-9.1,-8.0,-12.5
1698672666.761,16,0.2,0.6000000000000001,1.4000000000000001,1.2000000000000002,9.8,4.1000000000000005,-23.900000000000002,9.4,-5.9
1698672666.777,16,-0.5,0.0,1.1,0.4,9.1,3.9000000000000004,-25.400000000000002,8.4,-7.300000000000001
1698672666.794,16,-0.6000000000000001,-0.2,0.8,0.30000000000000004,8.9,3.7,-22.2,5.8,-9.0
1698672666.811,16,-0.8,-0.8,0.0,0.1,8.3,2.9000000000000004,-15.000000000000002,9.3,-13.700000000000001
1698672666.827,16,-1.1,-1.4000000000000001,-0.4,-0.30000000000000004,7.7,2.5,-10.700000000000001,8.600000000000001,-16.8
1698672666.844,16,-1.2000000000000002,-1.6,-0.6000000000000001,-0.5,7.5,2.3000000000000003,-9.200000000000001,8.4,-17.0
1698672666.861,16,-1.2000000000000002,-1.7000000000000002,-0.7000000000000001,-0.5,7.300000000000001,2.3000000000000003,-6.6000000000000005,6.4,-17.5
1698672666.877,16,-1.1,-1.5,-0.7000000000000001,-0.4,7.5,2.3000000000000003,-2.5,5.4,-22.000000000000004
1698672666.894,16,-1.0,-1.3,-0.8,-0.4,7.7,2.2,-0.7,7.400000000000001,-24.8
1698672666.911,16,-0.6000000000000001,-1.1,-1.0,-0.1,7.9,1.9000000000000001,0.6000000000000001,5.8,-26.700000000000003
1698672666.927,16,-0.4,-1.1,-1.2000000000000002,0.0,7.9,1.8,-1.8,2.3000000000000003,-22.1
1698672666.944,16,-0.4,-1.1,-1.4000000000000001,0.0,7.9,1.6,-4.9,-0.8,-15.9
1698672666.961,16,-0.4,-1.1,-1.6,0.0,7.9,1.4000000000000001,-6.8,-1.5000000000000002,-13.200000000000001
1698672666.977,16,-0.2,-1.3,-2.2,0.1,7.6000000000000005,0.8,-13.6,-3.3000000000000003,-8.200000000000001
1698672666.994,16,-0.2,-1.6,-2.4000000000000004,0.2,7.2,0.5,-18.400000000000002,-6.8,-6.000000000000001
1698672667.012,16,-0.1,-1.9000000000000001,-2.4000000000000004,0.2,7.0,0.6000000000000001,-26.6,-15.399999999999999,-3.0000000000000004
1698672667.027,16,-0.30000000000000004,-1.8,-2.1,0.0,7.1000000000000005,1.0,-30.000000000000004,-19.1,1.2000000000000002
1698672667.044,16,-0.4,-0.9,-1.7000000000000002,-0.1,7.4,1.3,-28.1,-16.8,3.8
1698672667.061,16,-0.30000000000000004,-0.30000000000000004,-1.6,0.1,8.6,1.7000000000000002,-17.400000000000002,-4.800000000000001,9.200000000000001
1698672667.077,16,0.8,2.0,-1.0,1.2000000000000002,10.8,2.2,2.1,-13.6,8.4
1698672667.094,16,1.5,3.3000000000000003,0.0,2.3000000000000003,12.9,3.9000000000000004,36.0,-32.300000000000004,-1.2000000000000002
1698672667.111,16,1.9000000000000001,4.0,0.7000000000000001,2.3000000000000003,12.9,3.8000000000000003,54.1,-23.400000000000002,-4.5
1698672667.127,16,1.4000000000000001,3.5,-0.30000000000000004,1.9000000000000001,12.5,2.6,66.80000000000001,18.8,5.4
1698672667.145,16,0.7000000000000001,3.3000000000000003,-1.0,1.2000000000000002,12.4,1.8,60.900000000000006,31.7,14.700000000000001
1698672667.161,16,-1.0,3.8000000000000003,-1.3,-0.5,12.9,1.3,32.4,23.900000000000002,30.5
1698672667.177,16,-1.3,4.5,-0.6000000000000001,-0.7000000000000001,13.600000000000001,2.0,-2.5,17.9,31.2
1698672667.194,16,-0.7000000000000001,3.8000000000000003,-0.30000000000000004,-0.1,13.0,2.3000000000000003,-24.8,24.7,20.6
1698672667.211,16,-0.6000000000000001,2.8000000000000003,0.0,0.0,12.0,2.7,-29.300000000000004,25.1,14.200000000000001
1698672667.227,16,-0.4,-0.2,1.6,0.30000000000000004,9.0,4.4,-16.400000000000002,13.100000000000001,3.2
1698672667.244,16,-0.5,-1.6,2.6,0.1,7.5,5.4,3.1,1.7,-2.0
1698672667.261,16,-0.6000000000000001,-2.8000000000000003,3.1,0.0,6.4,5.800000000000001,51.6,-11.000000000000002,-6.2
1698672667.277,16,-0.5,-2.2,2.9000000000000004,0.1,7.0,5.4,77.0,-3.3000000000000003,-12.200000000000001
1698672667.294,16,-0.5,-1.5,3.2,0.1,7.800000000000001,5.5,78.00000000000001,-0.4,-12.6
1698672667.311,16,-0.30000000000000004,0.7000000000000001,4.1000000000000005,0.2,10.0,6.300000000000001,61.300000000000004,-9.200000000000001,-5.1
1698672667.327,16,-0.2,2.6,2.2,0.4,11.9,4.3,13.9,1.0,8.700000000000001
1698672667.344,16,0.1,1.0,1.1,0.8,10.4,3.4000000000000004,-47.0,12.4,13.9
1698672667.361,16,0.30000000000000004,0.30000000000000004,1.0,1.0,9.600000000000001,3.4000000000000004,-61.0,6.7,10.0
1698672667.378,16,0.5,-0.6000000000000001,0.6000000000000001,1.2000000000000002,8.700000000000001,3.2,-65.0,-0.2,-0.4
1698672667.394,16,0.6000000000000001,-1.1,0.1,1.2000000000000002,8.1,2.8000000000000003,-55.0,5.9,-5.9
1698672667.411,16,0.7000000000000001,-1.5,0.0,1.3,7.7,2.8000000000000003,-47.5,8.700000000000001,-7.0
1698672667.427,16,0.8,-2.3000000000000003,-0.2,1.4000000000000001,6.800000000000001,2.8000000000000003,-29.000000000000004,11.000000000000002,-6.8
1698672667.444,16,0.8,-2.7,-0.2,1.4000000000000001,6.1000000000000005,2.6,-19.0,10.700000000000001,-4.800000000000001
1698672667.461,16,0.8,-3.2,-0.5,1.4000000000000001,5.9,2.5,-1.2000000000000002,8.4,3.1
1698672667.478,16,0.6000000000000001,-3.2,-0.6000000000000001,1.3,5.800000000000001,2.3000000000000003,10.600000000000001,2.0,13.700000000000001
1698672667.494,16,0.30000000000000004,-2.4000000000000004,-0.2,1.1,6.1000000000000005,2.5,13.9,-2.1,18.7
1698672667.511,16,0.1,-2.0,-0.1,0.7000000000000001,7.5,2.9000000000000004,15.8,6.9,22.8
1698672667.527,16,-0.30000000000000004,-1.2000000000000002,0.0,0.5,7.800000000000001,2.8000000000000003,14.200000000000001,8.200000000000001,20.900000000000002
1698672667.545,16,-0.4,-0.9,-0.9,0.4,8.1,1.9000000000000001,3.7000000000000006,9.3,12.8
1698672667.561,16,-0.5,-1.1,-1.1,0.30000000000000004,7.9,1.7000000000000002,-4.9,11.5,6.8
1698672667.578,16,-0.6000000000000001,-1.4000000000000001,-1.3,0.30000000000000004,7.6000000000000005,1.6,-12.700000000000001,13.3,1.3
1698672667.596,16,-0.1,-2.0,-1.8,0.7000000000000001,6.9,1.1,-24.1,6.8,-9.200000000000001
1698672667.611,16,0.2,-1.9000000000000001,-1.9000000000000001,0.9,7.0,1.0,-26.0,5.9,-11.8
1698672667.628,16,1.1,-0.9,-1.8,1.8,8.0,1.2000000000000002,-28.500000000000004,15.000000000000002,-18.7
1698672667.645,16,1.3,1.3,-1.0,2.0,10.200000000000001,2.1,-22.6,24.1,-25.0
1698672667.661,16,1.4000000000000001,2.7,-0.30000000000000004,1.9000000000000001,11.5,2.8000000000000003,-12.200000000000001,26.0,-24.1
1698672667.678,16,1.3,4.4,0.1,1.8,13.3,3.2,21.6,21.1,-12.000000000000002
1698672667.694,16,1.2000000000000002,2.9000000000000004,-0.8,1.7000000000000002,11.9,2.2,47.400000000000006,8.3,6.3
1698672667.711,16,0.7000000000000001,2.1,-1.0,1.2000000000000002,11.100000000000001,1.9000000000000001,50.6,4.6000000000000005,14.100000000000001
1698672667.728,16,-0.2,2.0,-1.2000000000000002,0.4,11.100000000000001,1.5,46.800000000000004,-1.5000000000000002,24.200000000000003
1698672667.745,16,-0.30000000000000004,2.2,-1.2000000000000002,0.4,11.3,1.4000000000000001,41.5,-4.9,24.400000000000002
1698672667.761,16,-0.2,2.4000000000000004,-0.4,0.5,11.5,2.1,30.200000000000003,-17.7,15.399999999999999
1698672667.778,16,0.2,1.3,1.3,0.9,10.5,3.7,24.9,-22.900000000000002,2.1
1698672667.795,16,0.0,-1.0,3.4000000000000004,0.8,8.200000000000001,5.7,38.2,-1.0,-2.7
1698672667.812,16,-0.5,-2.4000000000000004,4.9,0.30000000000000004,6.9,7.1000000000000005,66.9,-14.500000000000002,13.9
1698672667.828,16,-0.6000000000000001,-2.4000000000000004,5.2,0.2,6.800000000000001,7.300000000000001,78.80000000000001,-20.900000000000002,26.500000000000004
1698672667.844,16,-0.5,-1.0,4.7,0.5,8.3,6.6000000000000005,69.4,-17.1,42.2
1698672667.861,16,0.0,1.2000000000000002,3.6,0.7000000000000001,9.5,6.0,44.4,-12.700000000000001,39.50000000000001
1698672667.877,16,0.1,1.9000000000000001,3.2,1.2000000000000002,11.100000000000001,5.0,-12.5,14.800000000000002,21.700000000000003
1698672667.894,16,-0.30000000000000004,2.2,2.0,0.8,11.5,4.0,-38.2,25.400000000000002,6.2
1698672667.911,16,-1.0,1.4000000000000001,0.5,0.1,10.700000000000001,2.6,-44.5,20.8,-3.7000000000000006
1698672667.928,16,-1.3,1.0,0.4,-0.30000000000000004,10.200000000000001,2.6,-46.1,17.400000000000002,-7.400000000000001
1698672667.944,16,-1.4000000000000001,0.0,0.6000000000000001,-0.4,9.3,2.9000000000000004,-36.7,14.4,-13.200000000000001
1698672667.962,16,-1.2000000000000002,-0.30000000000000004,0.5,-0.30000000000000004,8.9,2.9000000000000004,-27.0,10.600000000000001,-15.7
1698672667.977,16,-0.9,-1.6,-0.2,0.0,7.7,2.3000000000000003,-2.5,-1.7,-19.3
1698672667.995,16,-0.9,-1.9000000000000001,-0.30000000000000004,0.0,7.300000000000001,2.2,2.0,-6.8,-17.5
1698672668.011,16,-1.0,-2.2,-0.2,-0.2,7.0,2.2,5.2,-11.000000000000002,-15.100000000000001
1698672668.028,16,-1.3,-2.3000000000000003,-0.30000000000000004,-0.6000000000000001,6.9,2.1,8.3,-14.500000000000002,-10.700000000000001
1698672668.044,16,-1.5,-1.9000000000000001,-0.5,-0.7000000000000001,7.2,1.9000000000000001,4.7,-11.1,-10.9
1698672668.061,16,-1.4000000000000001,-1.7000000000000002,-0.5,-0.5,7.800000000000001,1.8,-4.2,-9.3,-19.0
1698672668.078,16,-0.9,-1.1,-0.6000000000000001,-0.30000000000000004,8.1,1.8,-8.9,-9.4,-26.200000000000003
1698672668.095,16,-0.2,-0.8,-0.6000000000000001,0.30000000000000004,8.3,1.8,-15.7,-16.3,-31.3
1698672668.112,16,0.0,-0.8,-0.8,0.5,8.3,1.7000000000000002,-18.8,-15.299999999999999,-28.1
1698672668.128,16,0.30000000000000004,-1.2000000000000002,-1.5,0.7000000000000001,7.5,0.6000000000000001,-28.8,-3.0000000000000004,-15.100000000000001
1698672668.144,16,0.1,-2.0,-2.3000000000000003,0.5,7.1000000000000005,0.30000000000000004,-42.5,2.8,1.7
1698672668.16,16,-0.30000000000000004,-2.3000000000000003,-2.7,0.2,6.7,0.1,-55.2,-10.2,15.000000000000002
1698672668.178,16,-0.5,-2.3000000000000003,-2.6,0.0,6.7,0.2,-59.80000000000001,-18.5,19.200000000000003
1698672668.194,16,-0.8,-1.4000000000000001,-1.8,-0.2,7.4,1.2000000000000002,-59.60000000000001,-33.400000000000006,25.1
1698672668.211,16,-1.1,0.4,-1.0,-0.30000000000000004,9.200000000000001,2.1,-53.400000000000006,-33.5,26.700000000000003
1698672668.228,16,-0.9,1.4000000000000001,-0.8,0.7000000000000001,11.200000000000001,2.6,-14.600000000000001,-23.5,23.6
1698672668.245,16,0.7000000000000001,3.5,-0.2,1.6,12.3,3.0,4.300000000000001,-32.300000000000004,13.6
1698672668.261,16,0.7000000000000001,3.5,-0.6000000000000001,1.6,12.4,2.5,40.9,-38.800000000000004,-13.3
1698672668.278,16,0.4,3.1,-1.3,1.3,12.100000000000001,1.7000000000000002,47.800000000000004,-27.7,-17.1
1698672668.295,16,-0.5,2.6,-1.5,0.30000000000000004,11.5,1.3,40.2,-9.9,-3.0000000000000004
1698672668.311,16,-0.8,2.8000000000000003,-0.30000000000000004,0.1,11.9,2.5,28.6,-8.5,15.399999999999999
1698672668.328,16,-0.6000000000000001,3.3000000000000003,1.4000000000000001,0.30000000000000004,12.3,4.0,33.5,-9.3,15.5
1698672668.344,16,-0.30000000000000004,3.3000000000000003,2.1,0.7000000000000001,12.4,4.6000000000000005,40.7,-11.2,8.4
1698672668.361,16,0.6000000000000001,2.6,4.6000000000000005,1.6,11.8,7.0,62.300000000000004,-8.9,-18.3
1698672668.378,16,1.1,1.7000000000000002,5.300000000000001,2.0,11.0,7.7,78.5,-4.1000000000000005,-32.0
1698672668.395,16,1.2000000000000002,-0.9,3.8000000000000003,2.0,8.5,5.800000000000001,92.9,2.0,-46.800000000000004
1698672668.41,16,-0.30000000000000004,-2.9000000000000004,2.9000000000000004,0.4,6.4,4.800000000000001,53.300000000000004,11.000000000000002,-32.5
1698672668.428,16,-1.3,-1.8,2.9000000000000004,-0.7000000000000001,7.6000000000000005,4.800000000000001,-5.300000000000001,24.000000000000004,-3.6
1698672668.444,16,-1.8,-0.4,2.8000000000000003,-1.2000000000000002,8.9,4.7,-23.1,24.400000000000002,4.7
1698672668.461,16,-1.8,0.8,2.5,-0.9,10.8,4.1000000000000005,-37.6,16.900000000000002,6.8
1698672668.477,16,-0.7000000000000001,1.3,1.6,-0.1,10.600000000000001,3.7,-34.7,10.600000000000001,-4.2
1698672668.494,16,0.5,-0.6000000000000001,1.2000000000000002,1.1,8.700000000000001,3.5,-28.200000000000003,9.4,-10.2
1698672668.51,16,1.0,-1.7000000000000002,0.8,1.5,7.5,3.1,-11.3,11.5,-12.200000000000001
1698672668.527,16,1.4000000000000001,-1.9000000000000001,0.7000000000000001,1.9000000000000001,7.4,3.0,-3.6,14.4,-11.4
1698672668.544,16,1.7000000000000002,-1.7000000000000002,1.2000000000000002,2.2,7.6000000000000005,3.5,12.8,14.500000000000002,-8.799999999999999
1698672668.56,16,1.7000000000000002,-1.5,1.5,2.2,7.7,3.7,30.200000000000003,17.200000000000003,-1.6
1698672668.577,16,1.6,-1.7000000000000002,1.5,2.1,7.300000000000001,3.6,35.199999999999996,21.700000000000003,3.5
1698672668.595,16,1.6,-2.1,1.4000000000000001,2.1,7.1000000000000005,3.4000000000000004,34.7,27.400000000000002,12.9
1698672668.611,16,1.3,-1.7000000000000002,1.5,1.8,7.6000000000000005,3.5,21.0,35.4,19.8
1698672668.627,16,1.1,-1.2000000000000002,1.5,1.7000000000000002,8.1,3.6,11.6,44.7,21.1
1698672668.644,16,1.0,-0.1,1.5,1.6,9.200000000000001,3.5,-4.3999999999999995,53.2,19.700000000000003
1698672668.661,16,0.8,0.2,1.2000000000000002,1.5,9.5,3.3000000000000003,-14.900000000000002,61.0,17.8
1698672668.677,16,0.6000000000000001,-0.1,0.7000000000000001,1.3,9.1,2.9000000000000004,-20.3,64.8,16.1
1698672668.694,16,0.6000000000000001,-0.4,0.6000000000000001,1.3,8.9,2.8000000000000003,-21.5,66.4,15.399999999999999
1698672668.711,16,0.6000000000000001,-0.6000000000000001,0.4,1.3,8.6,2.7,-21.5,73.10000000000001,13.5
1698672668.727,16,0.8,-0.6000000000000001,0.30000000000000004,1.5,8.6,2.6,-20.1,79.6,12.700000000000001
1698672668.746,16,1.1,-0.30000000000000004,0.1,1.7000000000000002,8.8,2.5,-16.5,92.10000000000001,10.9
1698672668.761,16,1.5,0.2,0.2,2.1,9.4,2.7,-12.700000000000001,104.9,12.9
1698672668.777,16,1.7000000000000002,0.2,0.30000000000000004,2.4000000000000004,9.200000000000001,2.7,-6.1000000000000005,114.3,16.8
1698672668.795,16,1.9000000000000001,-0.4,-0.2,2.4000000000000004,8.700000000000001,2.4000000000000004,-4.300000000000001,118.50000000000001,18.900000000000002
1698672668.811,16,1.9000000000000001,-1.0,-0.6000000000000001,2.3000000000000003,8.1,2.0,-7.8,130.5,24.7
1698672668.827,16,1.8,-0.8,-0.7000000000000001,2.2,8.3,2.0,-14.3,141.1,30.5
1698672668.844,16,1.7000000000000002,-0.6000000000000001,-0.8,2.1,8.5,1.9000000000000001,-16.8,146.8,33.900000000000006
1698672668.861,16,2.0,-0.4,-0.8,2.4000000000000004,8.700000000000001,1.9000000000000001,-19.500000000000004,154.6,39.00000000000001
1698672668.877,16,1.8,0.1,-0.9,2.4000000000000004,8.8,2.0,-19.1,154.1,39.8
1698672668.894,16,1.5,0.4,-1.2000000000000002,1.9000000000000001,9.4,1.7000000000000002,-17.200000000000003,156.7,44.2
1698672668.911,16,0.9,0.5,-1.7000000000000002,1.5,9.5,1.3,-18.400000000000002,160.20000000000002,49.1
1698672668.927,16,-0.1,0.7000000000000001,-1.9000000000000001,0.4,9.700000000000001,1.2000000000000002,-22.900000000000002,156.10000000000002,60.1
1698672668.944,16,-1.3,1.8,-0.9,-0.8,10.700000000000001,2.2,-15.2,150.1,63.800000000000004
1698672668.96,16,-1.9000000000000001,2.4000000000000004,-0.7000000000000001,-1.4000000000000001,11.3,2.5,-5.2,143.4,66.1
1698672668.977,16,-2.7,2.4000000000000004,0.9,-2.1,11.4,4.0,23.2,120.10000000000001,73.60000000000001
1698672668.994,16,-3.0,1.9000000000000001,1.5,-2.4000000000000004,10.9,4.6000000000000005,42.1,112.7,76.4
1698672669.012,16,-2.9000000000000004,1.1,1.7000000000000002,-2.1,10.200000000000001,4.6000000000000005,73.2,115.2,82.30000000000001
1698672669.027,16,-1.4000000000000001,0.0,1.6,-0.5,9.1,4.2,76.60000000000001,99.7,73.4
1698672669.044,16,-0.9,-0.4,1.7000000000000002,0.0,8.8,4.5,65.89999999999999,100.30000000000001,58.9
1698672669.06,16,-0.8,0.1,1.9000000000000001,0.1,9.3,4.5,29.000000000000004,131.9,25.900000000000002
1698672669.077,16,-0.9,0.6000000000000001,0.9,-0.1,9.8,3.5,-14.200000000000001,139.70000000000002,18.3
1698672669.094,16,-0.8,0.8,0.8,0.0,9.9,3.5,-33.7,145.7,23.8
1698672669.111,16,-0.9,1.0,0.30000000000000004,-0.1,10.100000000000001,3.2,-50.7,155.70000000000002,30.799999999999997
1698672669.127,16,-0.9,0.1,-0.30000000000000004,-0.30000000000000004,9.1,2.8000000000000003,-45.0,152.6,37.5
1698672669.144,16,-1.0,-0.5,-0.6000000000000001,-0.4,8.6,2.5,-31.099999999999998,144.10000000000002,47.7
1698672669.161,16,-1.2000000000000002,-1.1,-0.9,-0.6000000000000001,7.6000000000000005,2.3000000000000003,-15.100000000000001,134.9,56.900000000000006
1698672669.177,16,-1.3,-1.6,-0.9,-0.6000000000000001,7.4,2.4000000000000004,-5.8,130.5,59.400000000000006
1698672669.195,16,-1.3,-1.6,-0.7000000000000001,-0.7000000000000001,7.300000000000001,2.6,14.500000000000002,131.20000000000002,59.300000000000004
1698672669.21,16,-1.4000000000000001,-1.3,-0.8,-0.7000000000000001,7.6000000000000005,2.5,24.1,135.5,57.400000000000006
1698672669.227,16,-1.3,-0.7000000000000001,-0.6000000000000001,-0.6000000000000001,8.200000000000001,2.6,38.5,140.0,50.7
1698672669.244,16,-1.2000000000000002,-0.1,-0.30000000000000004,-0.6000000000000001,8.8,2.8000000000000003,48.1,135.4,48.800000000000004
1698672669.262,16,-1.3,0.1,-0.1,-0.6000000000000001,9.0,2.9000000000000004,50.1,134.8,49.7
1698672669.277,16,-1.5,-0.1,0.1,-0.8,8.9,3.0,48.2,134.1,52.1
1698672669.294,16,-1.3,-0.8,0.1,-0.7000000000000001,8.6,3.0,44.1,133.4,52.2
1698672669.313,16,-1.2000000000000002,-0.9,0.1,-0.5,8.1,2.8000000000000003,28.3,142.4,49.6
1698672669.327,16,-1.0,-0.4,-0.2,-0.30000000000000004,8.6,2.5,10.5,154.9,46.0
1698672669.344,16,-1.0,0.0,-0.4,-0.30000000000000004,9.1,2.4000000000000004,4.2,155.5,44.3
1698672669.362,16,-1.2000000000000002,0.7000000000000001,-0.5,-0.5,9.700000000000001,2.3000000000000003,-1.7,148.3,41.300000000000004
1698672669.377,16,-1.5,0.8,-0.30000000000000004,-0.9,9.8,2.5,1.7,143.0,40.3
1698672669.394,16,-1.7000000000000002,0.5,-0.2,-1.0,9.5,2.6,6.5,145.1,40.8
1698672669.41,16,-1.6,-0.2,-0.5,-1.0,8.8,2.3000000000000003,17.200000000000003,150.8,40.8
1698672669.427,16,-1.6,-0.2,-0.6000000000000001,-1.1,8.8,2.2,23.0,146.5,40.2
1698672669.444,16,-1.9000000000000001,0.6000000000000001,-0.6000000000000001,-1.1,9.200000000000001,2.2,23.6,144.5,40.5
1698672669.461,16,-2.1,1.0,-0.7000000000000001,-1.6,10.100000000000001,2.0,21.200000000000003,135.8,42.800000000000004
1698672669.477,16,-2.4000000000000004,1.5,-0.2,-1.8,10.600000000000001,2.4000000000000004,16.700000000000003,117.4,43.900000000000006
1698672669.494,16,-2.4000000000000004,1.4000000000000001,0.1,-1.9000000000000001,10.5,2.7,13.6,99.6,41.800000000000004
1698672669.511,16,-2.4000000000000004,1.5,0.4,-1.8,10.700000000000001,3.0,8.700000000000001,95.9,37.5
1698672669.527,16,-2.4000000000000004,1.6,0.30000000000000004,-1.8,10.700000000000001,2.9000000000000004,5.6,97.7,33.5
1698672669.544,16,-2.2,1.4000000000000001,0.30000000000000004,-1.7000000000000002,10.700000000000001,2.9000000000000004,1.8,97.2,29.000000000000004
1698672669.561,16,-2.2,1.0,0.2,-1.7000000000000002,10.200000000000001,2.9000000000000004,-5.2,89.9,19.400000000000002
1698672669.577,16,-1.9000000000000001,0.5,-0.1,-1.4000000000000001,9.600000000000001,2.6,-11.700000000000001,84.4,14.0
1698672669.595,16,-1.5,0.1,-0.2,-1.1,9.3,2.6,-17.400000000000002,80.30000000000001,11.5
1698672669.611,16,-1.3,0.0,-0.1,-0.9,9.1,2.7,-19.0,78.60000000000001,10.700000000000001
1698672669.627,16,-1.2000000000000002,-0.1,-0.1,-0.8,9.0,2.8000000000000003,-19.200000000000003,80.2,10.5
1698672669.644,16,-1.1,0.0,0.1,-0.8,9.1,3.0,-15.399999999999999,83.30000000000001,11.8
1698672669.661,16,-1.3,0.0,0.0,-1.0,9.0,3.0,-13.200000000000001,83.30000000000001,12.000000000000002
1698672669.677,16,-1.4000000000000001,0.0,-0.5,-1.2000000000000002,9.0,2.5,-14.900000000000002,85.0,12.000000000000002
1698672669.694,16,-1.2000000000000002,0.30000000000000004,-0.7000000000000001,-1.2000000000000002,9.200000000000001,2.3000000000000003,-19.0,84.80000000000001,10.5
1698672669.71,16,-1.1,0.6000000000000001,-0.8,-1.1,9.600000000000001,2.3000000000000003,-29.400000000000002,80.9,8.5
1698672669.728,16,-1.1,0.5,-1.0,-1.1,9.4,2.2,-31.3,80.5,10.9
1698672669.744,16,-1.5,-0.1,-1.2000000000000002,-1.3,9.1,2.1,-32.800000000000004,78.5,15.100000000000001
1698672669.761,16,-1.6,-0.4,-1.3,-1.7000000000000002,8.5,2.0,-32.5,71.7,24.8
1698672669.777,16,-2.1,-1.0,-1.3,-2.2,7.9,2.1,-28.3,54.6,33.5
1698672669.794,16,-1.6,-1.2000000000000002,-1.9000000000000001,-1.8,7.7,2.0,-25.2,53.1,37.1
1698672669.811,16,-1.4000000000000001,-1.1,-2.1,-1.4000000000000001,7.7,1.4000000000000001,-23.1,57.3,31.900000000000002
1698672669.827,16,-1.3,-0.5,-2.5,-1.3,8.200000000000001,1.1,-22.6,52.2,20.8
1698672669.844,16,-1.5,-0.4,-2.8000000000000003,-1.5,8.4,0.8,-20.4,33.2,19.0
1698672669.861,16,-1.8,-0.4,-2.6,-1.7000000000000002,8.3,1.0,-19.500000000000004,22.000000000000004,24.200000000000003
1698672669.877,16,-1.8,-0.5,-1.7000000000000002,-1.7000000000000002,8.200000000000001,2.0,-9.600000000000001,8.0,38.300000000000004
1698672669.894,16,-1.8,0.0,-1.0,-1.6,8.700000000000001,2.6,0.6000000000000001,5.4,44.2
1698672669.911,16,-1.9000000000000001,0.4,-0.1,-1.3,9.5,4.6000000000000005,26.3,7.6,50.7
1698672669.927,16,-1.1,1.3,2.0,-0.7000000000000001,10.100000000000001,5.4,67.60000000000001,23.3,45.9
1698672669.944,16,1.2000000000000002,3.2,1.8,1.6,12.100000000000001,4.9,107.8,46.6,26.6
1698672669.961,16,1.8,3.3000000000000003,0.4,1.7000000000000002,11.4,2.8000000000000003,96.5,52.50000000000001,11.000000000000002
1698672669.977,16,-0.8,-0.5,-0.6000000000000001,-0.30000000000000004,8.6,2.1,52.6,69.5,33.6
1698672669.994,16,-1.4000000000000001,-1.1,-1.1,-0.8,8.1,1.5,27.7,74.5,51.300000000000004
1698672670.01,16,-2.0,-0.9,-1.0,-1.4000000000000001,8.200000000000001,2.4000000000000004,5.1,69.2,61.8
1698672670.027,16,-1.7000000000000002,-0.9,0.5,-1.0,8.200000000000001,3.2,-15.5,59.5,59.5
1698672670.044,16,-0.6000000000000001,-0.6000000000000001,2.1,0.2,8.5,4.800000000000001,1.2000000000000002,57.1,36.2
1698672670.06,16,0.2,-0.6000000000000001,2.5,1.8,8.5,5.2,36.5,64.0,13.6
1698672670.077,16,1.5,-0.2,2.7,2.3000000000000003,8.9,5.300000000000001,50.1,73.0,9.0
1698672670.094,16,1.9000000000000001,0.6000000000000001,2.4000000000000004,2.6,9.8,4.9,63.6,91.9,9.600000000000001
1698672670.11,16,1.9000000000000001,0.1,1.5,2.6,9.3,3.8000000000000003,49.3,91.2,23.3
1698672670.127,16,1.8,-0.4,1.1,2.6,8.8,3.4000000000000004,31.5,86.80000000000001,34.2
1698672670.144,16,1.3,-0.7000000000000001,0.6000000000000001,2.2,8.5,2.9000000000000004,-10.1,81.2,57.1
1698672670.161,16,0.6000000000000001,-0.4,0.5,0.7000000000000001,9.200000000000001,3.0,-24.6,76.1,65.5
1698672670.177,16,-1.0,0.4,0.4,0.1,9.600000000000001,2.9000000000000004,-34.400000000000006,69.7,74.2
1698672670.194,16,-1.3,0.5,-0.30000000000000004,0.0,9.600000000000001,2.3000000000000003,-30.7,71.2,65.8
1698672670.212,16,-1.4000000000000001,-0.2,-0.8,-0.1,8.8,1.9000000000000001,-21.0,64.2,45.800000000000004
1698672670.227,16,-1.3,-0.30000000000000004,-0.9,0.1,8.700000000000001,1.8,-11.6,60.7,34.1
1698672670.244,16,-1.0,-0.1,-0.9,0.4,8.9,1.9000000000000001,-7.400000000000001,59.7,31.7
1698672670.26,16,-0.8,0.1,-0.9,0.6000000000000001,9.0,1.9000000000000001,0.6000000000000001,51.6,29.900000000000006
1698672670.277,16,-0.7000000000000001,0.0,-0.8,0.7000000000000001,9.0,2.0,4.3999999999999995,45.5,31.5
1698672670.294,16,-1.1,-0.30000000000000004,-1.1,0.5,8.6,1.7000000000000002,7.300000000000001,37.4,38.6
1698672670.311,16,-1.6,-0.30000000000000004,-1.4000000000000001,0.30000000000000004,8.6,1.5,5.300000000000001,38.0,40.8
1698672670.327,16,-1.7000000000000002,-0.2,-1.4000000000000001,-0.1,8.8,1.4000000000000001,-0.6000000000000001,35.199999999999996,38.2
1698672670.344,16,-1.9000000000000001,0.2,-1.4000000000000001,-0.2,9.1,1.4000000000000001,-5.7,27.400000000000002,28.400000000000002
1698672670.361,16,-2.0,0.0,-1.4000000000000001,-0.2,9.1,1.5,-7.699999999999999,24.1,21.700000000000003
1698672670.379,16,-1.9000000000000001,-0.4,-1.4000000000000001,-0.2,8.5,1.5,-9.3,17.200000000000003,5.7
1698672670.394,16,-1.4000000000000001,-1.2000000000000002,-1.5,0.30000000000000004,7.6000000000000005,1.4000000000000001,-9.0,14.0,2.0
1698672670.41,16,-0.9,-1.4000000000000001,-1.6,0.8,7.4,1.3,-8.700000000000001,10.0,-1.9
1698672670.428,16,0.1,-1.4000000000000001,-1.4000000000000001,1.7000000000000002,7.4,1.5,-9.4,7.400000000000001,-7.500000000000001
1698672670.444,16,0.4,-0.4,-1.1,2.0,8.4,1.9000000000000001,-6.6000000000000005,16.900000000000002,-5.9
1698672670.461,16,0.1,1.5,-0.8,1.7000000000000002,10.3,2.1,1.4,20.6,5.1
1698672670.477,16,-0.1,2.2,-0.9,1.5,11.0,2.1,7.0,20.3,11.2
1698672670.494,16,-0.5,2.6,-1.2000000000000002,1.2000000000000002,11.4,1.7000000000000002,15.6,19.1,17.8
1698672670.51,16,-0.1,2.8000000000000003,-1.3,1.3,11.5,1.6,17.400000000000002,18.5,16.5
1698672670.528,16,0.30000000000000004,3.2,-1.2000000000000002,2.3000000000000003,12.5,1.8,17.400000000000002,17.7,6.8
1698672670.544,16,0.8,3.8000000000000003,-0.6000000000000001,2.5,12.8,2.2,17.0,19.9,-2.1
1698672670.56,16,0.4,4.1000000000000005,0.2,2.1,13.100000000000001,3.0,22.6,22.8,-1.8
1698672670.577,16,-0.7000000000000001,4.0,0.30000000000000004,1.0,13.0,3.0,28.1,7.0,8.700000000000001
1698672670.594,16,-1.1,3.0,0.2,0.6000000000000001,12.100000000000001,2.8000000000000003,26.3,-0.9,12.000000000000002
1698672670.611,16,-1.5,-0.30000000000000004,2.2,0.2,8.8,4.800000000000001,21.6,-3.8,9.3
1698672670.627,16,-1.7000000000000002,-1.6,2.1,0.0,7.5,4.7,26.6,0.4,-7.9
1698672670.644,16,-1.0,-2.4000000000000004,3.0,0.6000000000000001,6.7,5.4,29.400000000000002,-3.1,-12.3
1698672670.661,16,-0.6000000000000001,-1.8,3.4000000000000004,1.0,7.300000000000001,5.800000000000001,32.7,-1.4,3.1
1698672670.677,16,-0.6000000000000001,-1.0,3.2,1.0,8.1,5.6000000000000005,29.700000000000003,4.800000000000001,13.5
1698672670.694,16,-0.1,0.4,2.7,1.5,9.5,5.0,16.8,4.300000000000001,19.700000000000003
1698672670.711,16,-0.30000000000000004,0.4,2.6,1.4000000000000001,9.5,4.9,2.7,4.3999999999999995,8.9
1698672670.727,16,-0.7000000000000001,0.4,2.1,1.3,9.600000000000001,4.7,-2.7,5.8,2.4000000000000004
1698672670.744,16,-0.9,0.2,1.8,0.6000000000000001,9.0,3.8000000000000003,-10.9,5.7,-9.200000000000001
1698672670.76,16,-1.1,-0.6000000000000001,1.0,0.5,8.6,3.4000000000000004,-18.2,5.4,-16.5
1698672670.777,16,-0.9,-0.9,0.7000000000000001,0.6000000000000001,8.200000000000001,3.2,-22.8,4.800000000000001,-19.200000000000003
1698672670.793,16,-0.9,-1.0,0.7000000000000001,0.6000000000000001,8.1,3.2,-21.6,-0.2,-20.5
1698672670.81,16,-1.4000000000000001,-1.3,0.30000000000000004,0.0,7.800000000000001,2.9000000000000004,-15.2,-5.500000000000001,-17.3
1698672670.827,16,-1.8,-1.9000000000000001,-0.1,-0.4,7.1000000000000005,2.5,-9.5,-4.7,-12.8
1698672670.844,16,-1.8,-2.2,-0.2,-0.5,6.9,2.4000000000000004,-6.3,-8.0,-12.100000000000001
1698672670.861,16,-1.9000000000000001,-2.4000000000000004,-0.1,-0.6000000000000001,6.7,2.5,0.6000000000000001,-10.2,-14.200000000000001
1698672670.877,16,-1.8,-1.9000000000000001,-0.2,-0.6000000000000001,7.1000000000000005,2.4000000000000004,6.1000000000000005,-1.5000000000000002,-20.2
1698672670.894,16,-1.6,-1.6,-0.30000000000000004,-0.4,7.5,2.3000000000000003,7.8,2.8,-23.400000000000002
1698672670.911,16,-0.7000000000000001,-1.2000000000000002,-0.7000000000000001,0.4,7.9,1.9000000000000001,7.8,5.4,-27.0
1698672670.927,16,-0.2,-1.2000000000000002,-0.8,0.8,7.800000000000001,1.7000000000000002,-1.0999999999999999,-4.9,-29.300000000000004
1698672670.944,16,-0.1,-1.2000000000000002,-0.8,0.8,7.800000000000001,1.7000000000000002,-5.300000000000001,-5.1,-24.8
1698672670.963,16,-0.1,-1.1,-0.9,0.8,8.0,1.4000000000000001,-12.700000000000001,1.3,-7.9
1698672670.977,16,-0.1,-1.1,-1.5,0.8,8.0,1.1,-15.399999999999999,3.8,-5.1
1698672670.994,16,-0.1,-1.2000000000000002,-1.7000000000000002,0.8,7.800000000000001,0.9,-18.8,5.9,-3.0000000000000004
1698672671.01,16,0.1,-1.4000000000000001,-1.6,0.9,7.5,1.1,-23.2,5.300000000000001,0.6000000000000001
1698672671.027,16,0.0,-1.1,-1.2000000000000002,0.9,7.9,1.5,-17.200000000000003,-1.9,5.4
1698672671.043,16,-0.4,0.30000000000000004,-1.3,0.5,9.3,1.5,-5.1,-8.5,13.6
1698672671.06,16,-0.2,1.1,-1.0,0.7000000000000001,10.0,1.7000000000000002,1.8,-13.4,15.100000000000001
1698672671.077,16,0.0,2.9000000000000004,0.2,1.0,11.9,2.9000000000000004,23.5,-28.700000000000003,10.1
1698672671.093,16,0.1,3.6,0.6000000000000001,1.1,12.600000000000001,3.2,37.6,-28.200000000000003,7.1000000000000005
1698672671.11,16,-0.2,4.2,0.0,0.9,13.3,2.4000000000000004,54.7,-3.6,7.6
1698672671.127,16,-0.4,4.0,-0.5,0.7000000000000001,13.200000000000001,1.8,45.5,15.100000000000001,14.3
1698672671.144,16,-0.5,3.8000000000000003,-0.30000000000000004,0.6000000000000001,13.0,1.9000000000000001,34.7,16.2,15.399999999999999
1698672671.16,16,-0.5,4.2,1.2000000000000002,0.6000000000000001,13.4,3.4000000000000004,15.8,9.4,12.100000000000001
1698672671.177,16,-0.30000000000000004,3.4000000000000004,1.4000000000000001,0.8,12.700000000000001,3.6,12.4,5.300000000000001,3.1
1698672671.194,16,-0.6000000000000001,1.7000000000000002,1.5,0.30000000000000004,9.200000000000001,4.800000000000001,10.8,3.1,2.0
1698672671.21,16,-1.0,-1.3,3.5,0.2,8.0,5.7,19.1,1.4,2.1
1698672671.227,16,-0.8,-2.4000000000000004,2.9000000000000004,0.30000000000000004,6.9,5.0,42.6,-7.8,-8.1
1698672671.244,16,-0.9,-2.8000000000000003,2.3000000000000003,0.2,6.5,4.3,38.1,-2.8,-17.0
1698672671.261,16,-1.0,-0.9,3.2,0.0,7.2,4.6000000000000005,28.6,5.300000000000001,-14.600000000000001
1698672671.278,16,-1.0,0.5,3.6,0.0,9.8,5.5,11.1,9.0,-7.300000000000001
1698672671.295,16,-1.5,2.9000000000000004,2.2,-0.5,12.3,4.2,-6.8,-5.1,-3.5
1698672671.31,16,-1.3,2.3000000000000003,1.5,-0.30000000000000004,11.600000000000001,3.4000000000000004,-20.900000000000002,-6.3,-2.3000000000000003
1698672671.327,16,-1.2000000000000002,-0.5,1.3,-0.30000000000000004,8.8,3.4000000000000004,-39.300000000000004,-4.3999999999999995,-5.2
1698672671.344,16,-1.0,-0.8,0.7000000000000001,0.30000000000000004,8.4,2.5,-42.800000000000004,-16.5,-5.7
1698672671.361,16,-0.5,-1.1,0.2,0.4,8.200000000000001,2.5,-44.1,-22.7,-4.9
1698672671.377,16,-0.1,-1.6,0.1,0.8,7.6000000000000005,2.6,-41.7,-22.6,-5.2
1698672671.394,16,0.1,-1.9000000000000001,0.1,1.2000000000000002,7.0,2.7,-32.5,-19.9,-9.9
1698672671.41,16,0.30000000000000004,-2.5,0.1,1.2000000000000002,6.6000000000000005,2.6,-26.6,-18.1,-12.3
1698672671.438,16,0.5,-3.0,-0.30000000000000004,1.3,6.0,2.3000000000000003,-13.100000000000001,-11.1,-14.200000000000001
1698672671.444,16,0.5,-3.0,-0.30000000000000004,1.3,6.1000000000000005,2.3000000000000003,-10.1,-10.5,-12.6
1698672671.46,16,0.6000000000000001,-2.7,-0.4,1.4000000000000001,6.4,2.3000000000000003,-7.400000000000001,-10.5,-9.8
1698672671.477,16,0.6000000000000001,-1.9000000000000001,-0.5,1.4000000000000001,7.1000000000000005,2.2,-3.5,-10.4,-1.2000000000000002
1698672671.494,16,0.2,-1.3,-0.6000000000000001,1.1,7.7,2.1,-2.1999999999999997,-13.3,10.4
1698672671.511,16,0.0,-1.1,-0.8,0.9,7.9,1.9000000000000001,-2.7,-12.200000000000001,13.6
1698672671.527,16,-0.2,-1.2000000000000002,-1.2000000000000002,0.7000000000000001,7.800000000000001,1.4000000000000001,-5.7,-8.700000000000001,6.9
1698672671.544,16,-0.1,-1.8,-1.6,0.8,7.2,1.1,-9.200000000000001,-8.700000000000001,-7.699999999999999
1698672671.56,16,0.2,-1.9000000000000001,-1.7000000000000002,1.1,7.1000000000000005,1.0,-11.3,-8.3,-14.0
1698672671.577,16,0.9,-1.5,-1.4000000000000001,1.8,7.4,1.3,-15.299999999999999,1.8,-22.8
1698672671.594,16,1.4000000000000001,-0.9,-1.2000000000000002,2.2,8.0,1.6,-14.900000000000002,13.8,-26.6
1698672671.611,16,1.3,1.5,-0.30000000000000004,2.0,10.4,2.4000000000000004,-3.9,25.1,-27.0
1698672671.627,16,0.8,4.3,0.7000000000000001,1.5,13.3,3.4000000000000004,24.1,13.0,-9.1
1698672671.644,16,0.6000000000000001,4.5,0.4,1.3,13.5,3.1,40.3,3.4,4.0
1698672671.661,16,-0.4,2.9000000000000004,-0.30000000000000004,0.30000000000000004,12.0,2.2,55.4,-8.600000000000001,20.3
1698672671.677,16,-0.9,2.1,0.2,-0.1,11.200000000000001,2.5,50.9,-11.700000000000001,21.5
1698672671.694,16,-0.4,2.4000000000000004,0.7000000000000001,0.4,11.600000000000001,2.9000000000000004,38.7,-3.3000000000000003,12.100000000000001
1698672671.711,16,0.1,2.2,0.9,1.0,11.4,3.0,30.4,-6.6000000000000005,7.0
1698672671.727,16,1.0,-0.2,2.7,1.9000000000000001,9.1,4.800000000000001,20.8,-5.8,-0.9
1698672671.744,16,0.7000000000000001,-2.5,3.4000000000000004,1.5,6.7,5.4,30.100000000000005,16.400000000000002,0.7
1698672671.761,16,0.2,-3.2,3.8000000000000003,0.8,6.2,5.800000000000001,46.800000000000004,9.600000000000001,21.1
1698672671.777,16,-0.30000000000000004,-1.9000000000000001,3.8000000000000003,0.7000000000000001,7.4,5.7,50.6,10.9,33.5
1698672671.794,16,-1.0,1.8,4.5,0.2,11.100000000000001,6.2,46.4,2.4000000000000004,48.800000000000004
1698672671.81,16,-0.9,3.6,4.4,0.30000000000000004,12.9,6.1000000000000005,41.4,-5.8,52.1
1698672671.827,16,-0.7000000000000001,3.9000000000000004,3.1,0.6000000000000001,13.200000000000001,4.800000000000001,14.200000000000001,-0.7,46.1
1698672671.844,16,-1.3,1.9000000000000001,2.5,0.4,12.200000000000001,4.4,-6.8,8.5,35.6
1698672671.86,16,-1.5,1.2000000000000002,2.1,-0.1,10.5,3.9000000000000004,-33.900000000000006,11.1,7.9
1698672671.877,16,-1.4000000000000001,0.5,1.3,0.0,9.8,3.3000000000000003,-44.9,23.400000000000002,-17.9
1698672671.894,16,-0.9,-0.4,0.8,0.30000000000000004,8.9,2.9000000000000004,-43.800000000000004,27.8,-29.200000000000003
1698672671.91,16,-0.9,-0.9,0.5,0.30000000000000004,8.3,2.7,-39.8,28.0,-28.200000000000003
1698672671.927,16,-0.8,-2.1,0.0,0.30000000000000004,7.1000000000000005,2.3000000000000003,-28.700000000000003,20.5,-17.200000000000003
1698672671.944,16,-0.9,-3.0,-0.4,0.2,6.2,2.0,-17.599999999999998,5.1,-5.7
1698672671.96,16,-1.0,-3.1,-0.4,0.0,6.0,2.0,-9.700000000000001,-0.4,3.2
1698672671.977,16,-1.2000000000000002,-2.9000000000000004,-0.30000000000000004,-0.1,6.2,2.1,-6.5,0.4,6.000000000000001
1698672671.994,16,-1.4000000000000001,-1.8,0.0,-0.4,7.300000000000001,2.4000000000000004,0.2,-0.2,7.9
1698672672.01,16,-1.3,-1.1,0.1,-0.30000000000000004,8.0,2.5,3.1,0.1,6.5
1698672672.027,16,-1.2000000000000002,-1.1,-0.30000000000000004,-0.1,8.0,2.1,4.3999999999999995,5.300000000000001,-1.5000000000000002
1698672672.044,16,-0.6000000000000001,-1.3,-1.1,0.5,7.800000000000001,1.4000000000000001,-6.000000000000001,2.6,-2.9
1698672672.061,16,-0.30000000000000004,-1.4000000000000001,-1.3,0.7000000000000001,7.6000000000000005,1.2000000000000002,-14.600000000000001,3.6,-0.4
1698672672.078,16,-0.1,-1.8,-1.3,1.0,7.2,1.2000000000000002,-28.400000000000002,9.200000000000001,7.8
1698672672.094,16,0.2,-2.1,-1.4000000000000001,1.3,6.9,1.2000000000000002,-34.50000000000001,19.9,15.399999999999999
1698672672.111,16,0.30000000000000004,-2.2,-1.3,1.4000000000000001,6.7,1.4000000000000001,-35.199999999999996,25.0,18.400000000000002
1698672672.127,16,0.5,-1.8,-0.7000000000000001,1.6,7.1000000000000005,2.1,-26.500000000000004,31.0,23.400000000000002
1698672672.144,16,0.6000000000000001,-0.4,-0.5,1.8,8.5,2.3000000000000003,-4.9,31.099999999999998,29.700000000000003
1698672672.16,16,1.0,0.30000000000000004,-0.30000000000000004,2.6,10.100000000000001,2.7,7.9,24.3,32.5
1698672672.177,16,1.2000000000000002,2.1,0.4,2.6,11.0,3.1,36.0,4.2,34.7
1698672672.194,16,0.30000000000000004,2.9000000000000004,0.4,1.7000000000000002,11.9,2.9000000000000004,58.7,16.8,42.7
1698672672.21,16,-0.4,2.8000000000000003,-0.4,1.1,11.700000000000001,2.1,60.20000000000001,35.199999999999996,47.900000000000006
1698672672.227,16,-1.8,2.6,-1.1,-0.1,11.600000000000001,1.2000000000000002,41.800000000000004,47.2,52.50000000000001
1698672672.244,16,-1.9000000000000001,2.7,-0.1,-0.1,11.8,2.2,13.8,36.800000000000004,47.400000000000006
1698672672.26,16,-1.5,3.0,0.8,0.30000000000000004,12.0,3.1,-0.9,36.9,30.799999999999997
1698672672.277,16,-1.7000000000000002,2.5,1.3,0.1,11.5,3.6,-3.6,39.400000000000006,24.5
1698672672.294,16,-1.5,1.2000000000000002,3.5,0.30000000000000004,10.200000000000001,5.800000000000001,10.1,38.300000000000004,14.4
1698672672.31,16,-0.2,1.4000000000000001,5.5,1.6,10.5,7.800000000000001,46.300000000000004,44.3,-13.100000000000001
1698672672.327,16,0.6000000000000001,0.9,5.300000000000001,2.3000000000000003,10.0,7.5,64.4,52.0,-28.6
1698672672.344,16,1.0,-0.8,4.5,2.5,8.4,6.5,68.5,61.0,-38.400000000000006
1698672672.361,16,0.2,-1.5,4.800000000000001,1.7000000000000002,7.7,6.9,54.2,74.7,-27.8
1698672672.377,16,-0.7000000000000001,-1.4000000000000001,3.3000000000000003,0.8,7.800000000000001,5.300000000000001,2.0,113.4,16.5
1698672672.394,16,-0.6000000000000001,0.6000000000000001,1.4000000000000001,0.9,9.8,3.7,-45.9,116.80000000000001,40.4
1698672672.41,16,0.2,0.6000000000000001,1.2000000000000002,1.7000000000000002,9.700000000000001,3.7,-58.9,102.9,29.1
1698672672.427,16,0.4,-0.1,1.3,1.9000000000000001,9.0,4.0,-53.400000000000006,105.4,20.0
1698672672.444,16,0.4,-1.5,0.8,1.8,7.6000000000000005,3.6,-26.9,118.50000000000001,12.100000000000001
1698672672.461,16,1.0,-1.7000000000000002,0.5,2.4000000000000004,7.300000000000001,3.3000000000000003,-13.3,124.8,11.9
1698672672.478,16,2.0,-1.9000000000000001,0.6000000000000001,3.2,7.1000000000000005,3.5,12.5,137.4,10.1
1698672672.494,16,2.0,-1.7000000000000002,0.6000000000000001,3.2,7.300000000000001,3.5,35.5,142.3,16.700000000000003
1698672672.511,16,1.9000000000000001,-1.5,0.5,3.1,7.5,3.4000000000000004,42.2,141.4,25.8
1698672672.528,16,1.3,-1.1,0.6000000000000001,2.0,8.1,3.5,41.0,139.20000000000002,50.800000000000004
1698672672.544,16,0.5,-0.6000000000000001,0.7000000000000001,1.8,8.4,3.5,25.8,159.70000000000002,66.80000000000001
1698672672.56,16,0.4,-0.5,0.5,1.7000000000000002,8.5,3.3000000000000003,5.8,169.9,61.300000000000004
1698672672.577,16,0.6000000000000001,-0.4,0.4,2.2,8.5,3.1,-12.100000000000001,177.70000000000002,56.900000000000006
1698672672.593,16,1.2000000000000002,-0.30000000000000004,-0.1,2.5,8.700000000000001,2.9000000000000004,-18.400000000000002,182.4,60.20000000000001
1698672672.61,16,1.4000000000000001,0.2,-0.6000000000000001,2.7,9.1,2.6,-25.400000000000002,191.1,68.80000000000001
1698672672.628,16,1.2000000000000002,0.4,-0.8,2.4000000000000004,9.3,2.3000000000000003,-26.200000000000003,199.4,75.4
1698672672.644,16,1.1,0.4,-1.2000000000000002,2.4000000000000004,9.200000000000001,2.2,-25.6,204.70000000000002,78.4
1698672672.66,16,0.9,0.2,-1.8,2.2,9.0,1.7000000000000002,-24.000000000000004,209.60000000000002,82.50000000000001
1698672672.677,16,0.7000000000000001,0.2,-2.0,2.1,8.9,1.6,-23.8,209.8,84.3
1698672672.694,16,0.0,0.7000000000000001,-1.9000000000000001,1.4000000000000001,9.4,1.8,-19.9,203.9,89.4
1698672672.71,16,-0.30000000000000004,1.2000000000000002,-2.0,1.1,9.700000000000001,1.9000000000000001,-9.600000000000001,196.50000000000003,92.7
1698672672.727,16,-0.2,1.3,-1.8,1.5,9.8,2.4000000000000004,5.2,192.10000000000002,87.2
1698672672.744,16,0.30000000000000004,0.8,-1.3,1.7000000000000002,9.4,2.7,15.5,195.20000000000002,80.2
1698672672.76,16,1.3,-0.2,-1.4000000000000001,2.6,8.4,2.5,36.5,207.3,68.4
1698672672.777,16,2.3000000000000003,-0.6000000000000001,-1.6,3.5,8.0,2.3000000000000003,42.900000000000006,210.5,66.60000000000001
1698672672.794,16,2.4000000000000004,-0.6000000000000001,-1.3,3.6,8.0,2.6,45.7,215.70000000000002,69.00000000000001
1698672672.81,16,0.8,0.7000000000000001,-0.9,1.9000000000000001,9.3,2.9000000000000004,42.6,210.20000000000002,86.2
1698672672.827,16,-0.30000000000000004,2.2,-0.8,-0.2,11.8,3.0,35.1,209.20000000000002,100.7
1698672672.844,16,-2.1,3.5,-1.1,-0.8,12.100000000000001,2.7,15.6,209.70000000000002,113.9
1698672672.86,16,-2.9000000000000004,2.6,-0.9,-1.6,11.3,3.0,-4.6000000000000005,187.0,108.6
1698672672.877,16,-3.1,2.0,-0.30000000000000004,-1.8,10.600000000000001,3.7,-10.1,180.4,101.0
1698672672.894,16,-3.8000000000000003,1.3,0.4,-2.5,9.9,4.4,-6.6000000000000005,178.8,82.8
1698672672.91,16,-3.9000000000000004,1.3,-0.30000000000000004,-2.7,9.8,3.9000000000000004,-4.0,177.70000000000002,66.80000000000001
1698672672.927,16,-3.6,0.5,-0.9,-2.6,9.0,3.3000000000000003,-13.200000000000001,171.50000000000003,56.1
1698672672.945,16,-3.0,-0.2,-0.9,-2.0,8.3,3.4000000000000004,-18.7,160.8,50.7
1698672672.961,16,-1.2000000000000002,-1.0,-1.0,-0.30000000000000004,7.4,3.4000000000000004,-22.5,140.9,36.1
1698672672.977,16,0.0,-0.9,-1.4000000000000001,0.8,7.4,3.1,-25.400000000000002,138.00000000000003,30.200000000000003
1698672672.995,16,0.1,-0.7000000000000001,-1.7000000000000002,0.8,7.6000000000000005,2.8000000000000003,-27.8,146.70000000000002,32.800000000000004
1698672673.01,16,0.2,-0.7000000000000001,-2.4000000000000004,0.7000000000000001,7.6000000000000005,2.2,-35.5,162.9,46.6
1698672673.027,16,0.0,-0.2,-2.6,0.5,8.0,2.2,-40.0,143.4,66.80000000000001
1698672673.044,16,-0.5,0.4,-2.1,0.0,8.5,2.8000000000000003,-37.2,116.4,85.80000000000001
1698672673.062,16,-1.1,0.8,-2.1,-0.5,8.8,2.8000000000000003,-33.1,109.9,92.8
1698672673.077,16,-2.2,1.2000000000000002,-1.5,-1.5,9.200000000000001,3.5,-18.7,90.8,100.10000000000001
1698672673.094,16,-2.6,1.2000000000000002,-1.2000000000000002,-1.9000000000000001,9.200000000000001,3.8000000000000003,-6.8,81.6,100.10000000000001
1698672673.11,16,-2.9000000000000004,0.9,-0.8,-2.0,9.0,4.2,14.200000000000001,83.60000000000001,92.0
1698672673.127,16,-2.5,0.5,-0.30000000000000004,-1.7000000000000002,8.6,4.7,24.8,94.4,75.1
1698672673.149,16,-1.5,0.8,0.1,-0.7000000000000001,8.9,5.0,21.700000000000003,85.0,57.9
1698672673.16,16,-1.2000000000000002,0.6000000000000001,0.2,-0.4,8.700000000000001,5.1000000000000005,13.200000000000001,79.7,53.2
1698672673.177,16,-1.1,-0.2,0.2,-0.30000000000000004,7.9,5.2,-12.4,82.10000000000001,51.7
1698672673.194,16,-1.3,-0.5,0.0,-0.5,7.5,5.0,-23.6,83.4,53.300000000000004
1698672673.21,16,-2.0,-0.8,-1.1,-1.1,7.1000000000000005,4.0,-38.7,80.30000000000001,57.1
1698672673.227,16,-2.2,-0.2,-0.9,-1.4000000000000001,7.6000000000000005,4.3,-44.8,76.5,58.00000000000001
1698672673.244,16,-2.2,0.2,-1.0,-1.3,8.0,4.3,-39.400000000000006,69.80000000000001,57.3
1698672673.26,16,-2.1,1.4000000000000001,-0.1,-1.2000000000000002,9.1,5.300000000000001,-23.3,50.2,50.4
1698672673.277,16,-1.5,2.1,1.5,-0.6000000000000001,9.8,6.9,4.300000000000001,36.5,36.800000000000004
1698672673.293,16,-0.6000000000000001,1.7000000000000002,1.4000000000000001,0.2,9.5,6.800000000000001,20.6,51.1,17.7
1698672673.31,16,-0.30000000000000004,0.9,0.7000000000000001,0.5,8.700000000000001,6.1000000000000005,15.299999999999999,63.900000000000006,9.8
1698672673.327,16,-0.1,-1.2000000000000002,-0.5,0.6000000000000001,6.6000000000000005,4.9,-14.4,70.3,8.200000000000001
1698672673.344,16,-0.2,-2.2,-0.8,0.5,5.5,4.7,-31.8,65.8,15.399999999999999
1698672673.361,16,-0.5,-1.9000000000000001,-0.9,0.1,5.7,4.800000000000001,-56.800000000000004,47.400000000000006,37.1
1698672673.377,16,-0.9,-0.6000000000000001,-0.7000000000000001,-0.6000000000000001,8.0,5.300000000000001,-62.8,22.7,49.5
1698672673.394,16,-1.4000000000000001,1.2000000000000002,-0.1,-0.8,8.6,6.1000000000000005,-50.1,12.5,48.300000000000004
1698672673.41,16,-1.9000000000000001,0.8,0.4,-1.1,8.1,6.4,-38.800000000000004,15.2,45.0
1698672673.427,16,-1.9000000000000001,-1.0,0.1,-1.0,6.2,6.1000000000000005,-13.3,20.2,37.1
1698672673.443,16,-0.5,-2.0,-0.4,-0.30000000000000004,5.5,5.800000000000001,-4.6000000000000005,17.7,29.700000000000003
1698672673.461,16,0.2,-1.6,-0.30000000000000004,1.0,5.6000000000000005,5.7,-1.0999999999999999,19.0,10.9
1698672673.477,16,1.1,-0.8,-0.4,1.9000000000000001,6.4,5.7,-6.6000000000000005,27.5,2.9
1698672673.494,16,1.6,-0.4,-0.1,2.4000000000000004,6.800000000000001,6.0,-12.200000000000001,33.300000000000004,7.8
1698672673.51,16,1.4000000000000001,-0.30000000000000004,-0.1,2.2,6.800000000000001,6.0,-13.700000000000001,32.300000000000004,14.700000000000001
1698672673.527,16,1.2000000000000002,-0.7000000000000001,-0.1,2.0,6.4,6.1000000000000005,-14.4,30.000000000000004,33.800000000000004
1698672673.544,16,1.0,-0.8,0.1,1.6,6.300000000000001,6.300000000000001,-7.9,35.5,43.2
1698672673.56,16,0.7000000000000001,-0.8,-0.1,1.6,6.300000000000001,6.1000000000000005,-2.7,40.4,43.800000000000004
1698672673.577,16,1.3,-0.9,-0.8,2.2,6.1000000000000005,5.4,-1.0,61.4,39.1
1698672673.594,16,0.5,-1.4000000000000001,-1.4000000000000001,1.3,5.6000000000000005,4.9,-6.6000000000000005,67.9,31.5
1698672673.61,16,-0.4,-1.6,-1.4000000000000001,0.4,5.4,4.9,-13.3,59.20000000000001,34.7
1698672673.627,16,-1.5,-0.5,0.30000000000000004,-0.7000000000000001,6.4,6.6000000000000005,-22.7,28.500000000000004,45.0
1698672673.644,16,-2.8000000000000003,0.30000000000000004,-0.5,-1.9000000000000001,7.2,5.9,-23.0,20.7,49.8
1698672673.66,16,-3.3000000000000003,-0.1,-1.5,-2.5,6.7,4.9,-29.700000000000003,32.9,52.7
1698672673.677,16,-2.7,-1.4000000000000001,-1.6,-1.9000000000000001,5.300000000000001,4.9,-35.6,48.50000000000001,52.7
1698672673.693,16,-1.5,-1.9000000000000001,-1.9000000000000001,-0.7000000000000001,4.7,4.6000000000000005,-18.0,32.9,28.0
1698672673.71,16,-1.4000000000000001,-1.8,-1.8,-0.6000000000000001,4.800000000000001,4.7,-10.8,22.4,9.600000000000001
1698672673.727,16,-0.4,-0.9,-0.6000000000000001,0.4,5.6000000000000005,6.0,-3.6,-2.1,-7.9
1698672673.744,16,-1.2000000000000002,-0.5,-0.1,-0.4,6.1000000000000005,6.5,-9.0,-2.6,1.6
1698672673.76,16,-1.6,-0.6000000000000001,0.1,-0.9,6.0,6.7,-14.4,1.2000000000000002,9.600000000000001
1698672673.777,16,-2.1,-0.8,0.0,-1.4000000000000001,5.4,6.4,-17.599999999999998,7.8,7.400000000000001
1698672673.794,16,-1.0,-1.1,-0.5,-0.30000000000000004,5.300000000000001,6.2,-15.5,12.8,-6.3
1698672673.81,16,-0.30000000000000004,-0.9,-0.5,0.4,5.5,6.2,-14.800000000000002,11.5,-11.2
1698672673.827,16,0.4,-0.8,-0.2,1.0,5.6000000000000005,6.5,-12.6,3.2,-9.8
1698672673.844,16,-0.4,-1.4000000000000001,0.6000000000000001,0.30000000000000004,5.0,7.300000000000001,-5.7,-5.300000000000001,-1.0
1698672673.862,16,-0.8,-1.1,0.7000000000000001,-0.1,5.2,7.4,-1.9,0.4,5.9
1698672673.877,16,-1.2000000000000002,-0.6000000000000001,0.7000000000000001,-0.6000000000000001,5.800000000000001,7.5,3.2,11.6,10.1
1698672673.894,16,-0.1,-0.6000000000000001,0.6000000000000001,0.5,5.800000000000001,7.300000000000001,6.4,9.5,2.6
1698672673.91,16,0.4,-0.7000000000000001,0.6000000000000001,1.0,5.7,7.300000000000001,6.9,8.600000000000001,0.2
1698672673.927,16,0.30000000000000004,-0.5,0.6000000000000001,0.9,5.9,7.4,8.5,5.300000000000001,3.1
1698672673.944,16,-0.6000000000000001,0.0,0.9,0.0,6.4,7.6000000000000005,11.6,2.0,10.9
1698672673.961,16,-1.0,0.0,1.0,-0.4,6.5,7.7,13.100000000000001,5.8,11.2
1698672673.977,16,-1.2000000000000002,-0.30000000000000004,1.1,-0.6000000000000001,6.2,7.7,19.500000000000004,12.000000000000002,6.2
1698672673.994,16,-0.5,-0.7000000000000001,1.1,0.1,5.800000000000001,7.7,23.0,20.7,-2.3000000000000003
1698672674.01,16,0.1,-0.8,1.1,0.6000000000000001,5.7,7.7,24.9,21.700000000000003,-2.6
1698672674.027,16,0.30000000000000004,-0.9,0.9,0.8,5.7,7.5,28.8,12.8,1.2000000000000002
1698672674.044,16,-0.7000000000000001,-1.4000000000000001,0.8,0.2,5.0,7.4,31.900000000000002,9.0,5.4
1698672674.061,16,-1.1,-0.8,0.8,-0.6000000000000001,5.9,7.300000000000001,37.0,4.800000000000001,21.700000000000003
1698672674.077,16,-1.3,-0.2,0.7000000000000001,-0.8,6.5,7.1000000000000005,47.300000000000004,7.6,22.1
1698672674.094,16,-0.6000000000000001,-0.8,0.6000000000000001,0.0,6.1000000000000005,6.800000000000001,59.5,5.8,11.700000000000001
1698672674.111,16,-0.2,-1.0,0.4,0.4,6.0,6.6000000000000005,64.10000000000001,4.3999999999999995,7.6
1698672674.127,16,0.2,-0.8,0.4,0.8,6.300000000000001,6.4,70.5,1.8,6.7
1698672674.143,16,-0.6000000000000001,-1.6,-0.2,-0.1,5.7,5.6000000000000005,79.8,1.6,12.3
1698672674.161,16,-0.9,-1.1,-0.2,-0.30000000000000004,6.2,5.5,84.0,-0.30000000000000004,18.1
1698672674.177,16,-1.1,-0.1,-0.2,-0.4,7.4,5.2,97.4,-3.0000000000000004,20.2
1698672674.194,16,-0.4,0.7000000000000001,0.2,0.30000000000000004,8.4,5.300000000000001,115.8,-8.5,13.9
1698672674.21,16,0.2,1.6,0.5,0.9,9.4,5.5,126.1,-11.4,10.4
1698672674.227,16,0.7000000000000001,3.5,1.5,1.4000000000000001,11.600000000000001,6.1000000000000005,144.3,-10.5,10.8
1698672674.244,16,0.2,5.9,2.2,1.0,14.3,6.4,155.20000000000002,-7.6,16.2
1698672674.261,16,0.1,6.9,2.3000000000000003,0.8,15.9,5.800000000000001,143.5,-15.7,14.900000000000002
1698672674.277,16,-0.2,7.0,1.5,0.8,15.700000000000001,5.1000000000000005,127.10000000000001,-17.400000000000002,10.600000000000001
1698672674.294,16,-0.1,4.9,0.2,0.8,13.700000000000001,3.4000000000000004,91.9,-24.8,0.2
1698672674.311,16,-0.2,3.5,-0.4,0.8,12.4,2.8000000000000003,78.00000000000001,-26.700000000000003,-2.4000000000000004
1698672674.327,16,0.0,0.9,-1.2000000000000002,1.0,9.9,1.7000000000000002,57.00000000000001,-30.000000000000004,-0.1
1698672674.344,16,0.0,-0.30000000000000004,-1.4000000000000001,1.0,8.700000000000001,1.3,40.7,-32.9,2.1
1698672674.36,16,1.5,1.0,-6.5,2.6,10.100000000000001,-4.0,78.9,-116.10000000000001,6.2
1698672674.377,16,-0.5,-2.2,-1.5,0.7000000000000001,7.0,0.8,123.19999999999999,-111.0,10.3
1698672674.394,16,-0.8,-1.3,-2.3000000000000003,0.4,7.9,-0.4,126.60000000000001,48.7,15.6
1698672674.41,16,-0.7000000000000001,0.1,-2.5,0.5,9.3,-0.8,122.3,-23.1,7.6
1698672674.427,16,-0.30000000000000004,1.1,-0.8,0.9,10.4,0.7000000000000001,67.3,-34.800000000000004,-3.6
1698672674.444,16,-0.2,0.9,-0.9,1.0,10.3,0.30000000000000004,64.60000000000001,-90.30000000000001,-2.7
1698672674.461,16,-0.2,0.9,-1.5,1.0,10.3,-0.5,79.7,-49.6,-0.2
1698672674.477,16,0.1,1.2000000000000002,-1.3,1.4000000000000001,10.600000000000001,-0.7000000000000001,110.10000000000001,-16.8,3.5
1698672674.494,16,0.8,3.0,-0.5,2.1,12.5,-0.2,87.80000000000001,-30.799999999999997,0.6000000000000001
1698672674.51,16,0.6000000000000001,2.9000000000000004,0.6000000000000001,2.2,13.0,-0.7000000000000001,61.4,-23.5,-0.1
1698672674.528,16,0.6000000000000001,1.9000000000000001,-0.30000000000000004,1.9000000000000001,11.4,-0.2,43.2,-13.8,9.0
1698672674.543,16,-0.2,0.2,-0.6000000000000001,1.1,9.600000000000001,-0.7000000000000001,42.7,-13.5,6.5
1698672674.561,16,-0.5,0.2,-0.8,0.8,9.700000000000001,-1.0,34.50000000000001,-15.5,4.9
1698672674.577,16,-0.30000000000000004,0.2,-0.2,1.1,9.700000000000001,-0.5,30.5,-12.700000000000001,3.0000000000000004
1698672674.594,16,0.30000000000000004,0.0,0.30000000000000004,1.6,9.5,0.0,24.6,-5.8,-0.5
1698672674.61,16,-0.5,-0.30000000000000004,0.2,0.9,9.200000000000001,-0.30000000000000004,20.7,-6.9,-2.7
1698672674.627,16,-0.7000000000000001,0.2,-0.2,0.7000000000000001,9.600000000000001,-0.7000000000000001,20.7,-11.5,-0.4
1698672674.644,16,-0.4,0.2,-0.1,0.9,9.700000000000001,-0.6000000000000001,21.900000000000002,-12.5,0.8
1698672674.66,16,-0.1,0.0,0.1,1.2000000000000002,9.600000000000001,-0.6000000000000001,22.900000000000002,-12.200000000000001,0.6000000000000001
1698672674.677,16,-0.2,-0.1,0.0,1.1,9.3,-0.6000000000000001,21.400000000000002,-8.3,-0.2
1698672674.694,16,-0.5,-0.30000000000000004,-0.1,0.9,9.200000000000001,-0.8,15.8,-5.1,0.6000000000000001
1698672674.71,16,-0.4,-0.30000000000000004,-0.1,1.1,9.3,-0.8,12.700000000000001,-3.9,1.2000000000000002
1698672674.727,16,-0.2,-0.1,0.1,1.1,9.4,-0.7000000000000001,9.1,-1.6,1.7
1698672674.744,16,-0.30000000000000004,0.30000000000000004,0.2,1.0,9.700000000000001,-0.6000000000000001,8.0,0.4,2.3000000000000003
1698672674.76,16,-0.4,0.2,0.2,0.9,9.700000000000001,-0.6000000000000001,6.6000000000000005,0.9,2.0
1698672674.777,16,-0.4,0.2,0.1,1.0,9.600000000000001,-0.7000000000000001,6.1000000000000005,0.7,1.8
1698672674.794,16,-0.30000000000000004,-0.1,0.0,1.0,9.4,-0.9,6.1000000000000005,-0.2,1.2000000000000002
1698672674.811,16,-0.30000000000000004,0.0,0.1,1.0,9.4,-0.7000000000000001,4.9,-0.4,0.8
1698672674.828,16,-0.30000000000000004,-0.1,0.2,1.0,9.4,-0.7000000000000001,4.300000000000001,-0.30000000000000004,0.9
1698672674.844,16,-0.2,-0.1,0.2,1.1,9.3,-0.7000000000000001,3.3000000000000003,-0.4,1.3
1698672674.86,16,-0.30000000000000004,-0.2,0.1,1.1,9.3,-0.8,2.9,0.1,1.6
1698672674.877,16,-0.30000000000000004,-0.1,0.1,1.1,9.3,-0.8,3.1,0.1,2.0
1698672674.894,16,-0.30000000000000004,0.0,0.0,1.1,9.4,-0.9,3.3000000000000003,0.5,1.8
1698672674.91,16,-0.2,-0.1,0.0,1.2000000000000002,9.3,-0.9,2.9,0.8,2.1
1698672674.927,16,-0.2,-0.1,0.0,1.2000000000000002,9.3,-0.9,2.1,1.0999999999999999,2.6
1698672674.944,16,-0.30000000000000004,-0.1,0.0,1.1,9.3,-0.9,1.0,0.9,2.7
1698672674.96,16,-0.2,0.0,0.1,1.1,9.4,-0.8,0.1,0.8,2.9
1698672674.977,16,-0.2,0.0,0.1,1.2000000000000002,9.4,-0.8,-0.30000000000000004,1.7,3.0000000000000004
1698672674.994,16,-0.2,-0.1,0.1,1.2000000000000002,9.3,-0.8,-0.6000000000000001,1.9,3.1
1698672675.012,16,-0.2,0.0,0.1,1.1,9.4,-0.8,-1.3,2.1,3.0000000000000004
1698672675.028,16,-0.2,0.0,0.1,1.2000000000000002,9.4,-0.8,-1.6,2.3000000000000003,2.6
1698672675.044,16,-0.2,0.0,0.1,1.2000000000000002,9.4,-0.7000000000000001,-1.5000000000000002,1.8,1.7
1698672675.061,16,-0.2,0.0,0.1,1.2000000000000002,9.4,-0.8,-1.6,1.7,1.5000000000000002
1698672675.077,16,-0.2,0.0,0.1,1.2000000000000002,9.3,-0.8,-1.7,1.4,1.4
1698672675.094,16,-0.1,-0.1,0.1,1.2000000000000002,9.3,-0.8,-1.6,0.9,1.3
1698672675.11,16,-0.1,0.0,0.0,1.2000000000000002,9.4,-0.8,-1.3,0.4,1.0
1698672675.127,16,-0.1,0.0,0.0,1.2000000000000002,9.4,-0.8,-1.0999999999999999,0.30000000000000004,0.6000000000000001
1698672675.144,16,-0.1,0.0,0.0,1.2000000000000002,9.4,-0.8,-1.0999999999999999,0.4,0.1
1698672675.16,16,-0.1,-0.1,0.0,1.2000000000000002,9.3,-0.8,-1.3,0.5,-0.1
1698672675.177,16,-0.1,-0.1,0.0,1.2000000000000002,9.3,-0.8,-1.9,0.7,-0.2
1698672675.194,16,-0.1,0.0,0.1,1.2000000000000002,9.3,-0.7000000000000001,-2.1,0.7,-0.2
1698672675.21,16,-0.1,0.0,0.0,1.2000000000000002,9.3,-0.7000000000000001,-2.4000000000000004,1.3,-0.2
1698672675.227,16,-0.1,-0.1,0.0,1.2000000000000002,9.3,-0.7000000000000001,-2.7,1.7,-0.4
1698672675.245,16,-0.1,0.0,0.0,1.2000000000000002,9.3,-0.7000000000000001,-2.9,1.8,-0.2
1698672675.26,16,-0.1,0.0,0.0,1.2000000000000002,9.3,-0.7000000000000001,-3.3000000000000003,2.1,-0.30000000000000004
1698672675.277,16,-0.1,0.0,0.0,1.2000000000000002,9.4,-0.7000000000000001,-4.1000000000000005,2.6,-0.5
1698672675.294,16,-0.1,-0.1,0.0,1.2000000000000002,9.3,-0.7000000000000001,-4.300000000000001,2.7,-0.5
1698672675.31,16,-0.1,0.0,0.0,1.1,9.4,-0.7000000000000001,-4.9,2.5,-0.5
1698672675.327,16,-0.1,-0.1,0.1,1.1,9.3,-0.6000000000000001,-3.7000000000000006,1.8,-0.1
1698672675.345,16,-0.1,0.0,0.1,1.2000000000000002,9.3,-0.6000000000000001,-3.3000000000000003,1.6,-0.2
1698672675.36,16,-0.1,-0.1,0.1,1.2000000000000002,9.3,-0.6000000000000001,-3.3000000000000003,1.4,-0.1
1698672675.377,16,-0.1,-0.1,0.0,1.2000000000000002,9.3,-0.6000000000000001,-3.7000000000000006,1.2000000000000002,-0.30000000000000004
1698672675.394,16,-0.1,0.0,0.1,1.2000000000000002,9.3,-0.6000000000000001,-3.1,1.0,-0.2
1698672675.41,16,-0.1,0.0,0.1,1.2000000000000002,9.3,-0.6000000000000001,-3.2,1.0999999999999999,-0.2
1698672675.427,16,-0.1,0.0,0.0,1.2000000000000002,9.3,-0.6000000000000001,-3.1,1.3,-0.2
1698672675.444,16,0.0,0.0,0.1,1.2000000000000002,9.4,-0.6000000000000001,-3.1,0.9,-0.30000000000000004
1698672675.46,16,0.0,-0.1,0.0,1.2000000000000002,9.3,-0.6000000000000001,-3.5,1.0,-0.1
1698672675.477,16,-0.1,0.0,0.0,1.1,9.3,-0.6000000000000001,-3.5,1.0999999999999999,-0.30000000000000004
1698672675.494,16,-0.1,0.0,0.1,1.1,9.4,-0.5,-3.5,0.9,0.0
1698672675.511,16,0.0,0.0,0.0,1.2000000000000002,9.3,-0.5,-3.6,1.3,-0.4
1698672675.527,16,0.0,-0.1,0.0,1.2000000000000002,9.3,-0.5,-4.1000000000000005,1.7,-0.7
1698672675.543,16,0.0,0.0,0.0,1.2000000000000002,9.3,-0.5,-4.3999999999999995,1.9,-0.8
1698672675.56,16,-0.1,0.0,0.0,1.1,9.4,-0.6000000000000001,-4.1000000000000005,1.4,-0.7
1698672675.577,16,0.0,-0.1,0.0,1.2000000000000002,9.3,-0.5,-4.1000000000000005,1.6,-1.0
1698672675.594,16,-0.1,0.0,0.1,1.1,9.4,-0.5,-4.1000000000000005,1.6,-1.2000000000000002
1698672675.61,16,0.0,0.0,0.1,1.2000000000000002,9.3,-0.4,-3.9,1.2000000000000002,-0.9
1698672675.627,16,0.0,0.0,0.1,1.2000000000000002,9.4,-0.4,-3.2,0.8,-0.9
1698672675.644,16,0.0,0.0,0.0,1.1,9.4,-0.4,-3.0000000000000004,0.7,-1.0
1698672675.661,16,0.0,0.0,0.0,1.2000000000000002,9.3,-0.4,-2.8,0.7,-0.8
1698672675.677,16,-0.1,0.0,0.0,1.1,9.4,-0.4,-3.0000000000000004,1.0999999999999999,-0.7
1698672675.694,16,-0.1,0.0,0.0,1.1,9.4,-0.4,-2.8,1.0999999999999999,-0.6000000000000001
1698672675.71,16,0.0,0.0,0.0,1.2000000000000002,9.3,-0.4,-2.7,1.9,-0.30000000000000004
1698672675.727,16,0.0,0.0,0.0,1.1,9.3,-0.4,-3.0000000000000004,2.1999999999999997,-0.6000000000000001
1698672675.744,16,0.0,0.0,0.1,1.1,9.3,-0.30000000000000004,-3.1,2.3000000000000003,-0.7
1698672675.76,16,0.0,0.0,-0.1,1.2000000000000002,9.4,-0.5,-2.1,1.6,-0.2
1698672675.777,16,0.0,-0.1,0.0,1.2000000000000002,9.3,-0.4,-1.8,1.5000000000000002,-0.30000000000000004
1698672675.794,16,-0.1,0.0,0.0,1.1,9.4,-0.4,-3.2,1.0999999999999999,-0.5
1698672675.81,16,-0.1,0.0,0.1,1.1,9.4,-0.30000000000000004,-4.0,0.9,-0.1
1698672675.827,16,0.0,0.0,0.1,1.1,9.4,-0.30000000000000004,-5.6,0.30000000000000004,-0.30000000000000004
1698672675.843,16,0.0,0.0,0.1,1.2000000000000002,9.4,-0.2,-6.2,-0.4,-0.1
1698672675.861,16,0.0,0.0,0.0,1.2000000000000002,9.4,-0.30000000000000004,-5.6,-1.3,-0.1
1698672675.877,16,-0.1,-0.1,-0.1,1.1,9.3,-0.4,-4.300000000000001,-2.1,0.1
1698672675.894,16,0.0,0.0,0.0,1.1,9.3,-0.30000000000000004,-3.7000000000000006,-2.7,0.2
1698672675.91,16,0.0,0.0,0.0,1.2000000000000002,9.4,-0.30000000000000004,-2.7,-3.3000000000000003,0.1
1698672675.928,16,0.0,0.0,0.0,1.2000000000000002,9.4,-0.30000000000000004,-2.4000000000000004,-3.0000000000000004,0.1
1698672675.944,16,0.0,0.0,0.0,1.1,9.3,-0.30000000000000004,-2.3000000000000003,-2.1,0.1
1698672675.961,16,0.0,-0.1,-0.2,1.2000000000000002,9.3,-0.5,-1.5000000000000002,0.1,0.2
1698672675.978,16,0.1,-0.1,-0.2,1.2000000000000002,9.3,-0.5,-1.0999999999999999,1.9,0.1
1698672675.993,16,0.0,0.0,-0.1,1.2000000000000002,9.4,-0.30000000000000004,-2.1999999999999997,3.1,-0.7
1698672676.012,16,0.0,-0.1,0.1,1.2000000000000002,9.200000000000001,-0.2,-2.9,3.4,-1.0
1698672676.028,16,0.0,-1.2000000000000002,0.1,1.1,8.1,-0.2,-5.0,4.2,-1.6
1698672676.044,16,-0.1,-1.1,0.1,1.0,8.9,-0.1,-7.699999999999999,6.2,-1.6
1698672676.061,16,-0.1,0.1,0.1,1.1,9.5,-0.2,-9.1,5.9,-2.5
1698672676.077,16,0.0,0.9,0.1,1.1,10.200000000000001,-0.1,-8.4,4.2,-4.1000000000000005
1698672676.094,16,0.0,0.9,0.30000000000000004,1.1,10.200000000000001,0.2,-4.9,3.3000000000000003,-5.1
1698672676.11,16,0.0,0.6000000000000001,0.4,1.1,10.0,0.2,-3.1,2.6,-5.1
1698672676.127,16,-0.1,0.0,0.4,1.0,9.4,0.2,-0.6000000000000001,0.9,-2.1
1698672676.143,16,-0.1,0.0,0.2,1.0,9.4,0.1,1.4,-1.3,-0.7
1698672676.16,16,-0.1,0.0,0.1,1.1,9.4,-0.1,1.8,-2.1999999999999997,-0.9
1698672676.177,16,0.0,0.0,0.0,1.1,9.4,-0.1,2.9,-3.0000000000000004,-0.7
1698672676.194,16,0.0,0.0,0.0,1.1,9.4,-0.1,3.6,-2.7,-0.7
1698672676.21,16,0.1,0.0,-0.1,1.1,9.3,-0.30000000000000004,3.6,-2.4000000000000004,-1.0
1698672676.227,16,0.0,0.0,-0.2,1.1,9.3,-0.4,2.8,-1.9,-1.3
1698672676.244,16,0.0,0.0,-0.2,1.1,9.4,-0.4,2.6,-1.3,-1.5000000000000002
1698672676.261,16,0.0,0.0,-0.2,1.0,9.4,-0.4,2.3000000000000003,-0.8,-1.8
1698672676.277,16,0.0,0.1,-0.1,1.0,9.4,-0.30000000000000004,1.2000000000000002,0.0,-2.5
1698672676.294,16,0.0,0.0,0.0,1.1,9.3,-0.2,0.6000000000000001,1.0,-3.1
1698672676.31,16,0.1,0.0,0.1,1.1,9.3,-0.2,0.6000000000000001,1.4,-3.5
1698672676.328,16,0.1,0.0,0.1,1.1,9.3,-0.1,0.8,2.5,-4.5
1698672676.343,16,0.0,0.0,0.1,1.0,9.4,-0.1,1.0999999999999999,2.6,-4.9
1698672676.36,16,0.0,0.0,0.1,1.0,9.4,-0.1,1.0999999999999999,2.8,-4.5
1698672676.377,16,-0.1,0.1,0.1,0.9,9.4,-0.1,0.6000000000000001,2.4000000000000004,-3.4
1698672676.393,16,-0.2,0.1,0.1,0.8,9.5,-0.2,0.30000000000000004,1.8,-2.0
1698672676.41,16,-0.1,0.1,0.0,0.8,9.5,-0.2,0.4,1.4,-1.4
1698672676.427,16,-0.1,0.0,0.0,0.9,9.4,-0.2,0.9,0.1,0.1
1698672676.444,16,0.0,0.0,0.0,0.9,9.4,-0.2,0.9,0.0,0.2
1698672676.46,16,0.0,0.0,0.0,0.9,9.4,-0.30000000000000004,1.2000000000000002,0.0,0.4
1698672676.477,16,0.0,0.0,-0.1,0.9,9.4,-0.30000000000000004,1.0999999999999999,0.0,0.6000000000000001
1698672676.493,16,0.0,0.0,0.0,1.0,9.4,-0.2,1.4,-0.2,0.6000000000000001
1698672676.51,16,0.0,0.0,0.0,1.0,9.3,-0.2,1.5000000000000002,0.0,0.9
1698672676.527,16,0.0,0.0,0.0,1.0,9.4,-0.2,1.5000000000000002,0.1,1.3
1698672676.544,16,0.0,-0.1,0.0,1.0,9.3,-0.2,1.2000000000000002,-0.1,1.0999999999999999
1698672676.56,16,0.0,0.0,0.0,1.0,9.4,-0.2,1.2000000000000002,0.2,2.0
1698672676.577,16,0.0,0.0,0.0,1.0,9.4,-0.2,0.9,0.30000000000000004,1.8
1698672676.594,16,0.0,0.0,0.0,1.0,9.4,-0.2,0.7,0.5,2.0
1698672676.611,16,0.0,0.0,0.0,1.0,9.4,-0.2,0.4,0.4,1.9
1698672676.627,16,0.0,0.0,0.0,1.0,9.4,-0.2,0.4,0.30000000000000004,1.8
1698672676.643,16,0.0,0.0,0.0,1.0,9.4,-0.30000000000000004,0.6000000000000001,0.1,1.6
1698672676.66,16,0.0,0.0,0.0,1.0,9.4,-0.30000000000000004,0.6000000000000001,0.0,1.3
1698672676.677,16,0.0,0.0,0.0,1.1,9.4,-0.30000000000000004,0.4,0.30000000000000004,1.2000000000000002
1698672676.694,16,0.1,0.0,0.0,1.1,9.4,-0.30000000000000004,0.1,0.5,0.6000000000000001
1698672676.71,16,0.0,0.0,0.0,1.0,9.4,-0.30000000000000004,0.0,0.6000000000000001,0.2
1698672676.727,16,0.0,0.0,0.0,1.0,9.4,-0.30000000000000004,0.1,0.6000000000000001,0.1
1698672676.744,16,0.0,0.0,0.0,1.0,9.4,-0.2,0.30000000000000004,0.6000000000000001,0.1
1698672676.76,16,0.0,0.0,0.0,1.0,9.4,-0.2,0.30000000000000004,0.6000000000000001,0.1
1698672676.777,16,0.0,0.0,0.0,1.0,9.4,-0.2,0.0,0.7,0.1
1698672676.794,16,0.0,0.0,0.0,1.0,9.4,-0.2,-0.30000000000000004,0.9,0.0
1698672676.81,16,0.0,0.0,0.0,1.0,9.4,-0.2,-0.4,0.9,0.2
1698672676.827,16,0.0,0.0,0.0,1.0,9.4,-0.2,-0.30000000000000004,0.9,0.2
1698672676.844,16,0.0,0.0,0.0,1.0,9.4,-0.30000000000000004,-0.7,1.2000000000000002,-0.1
1698672676.86,16,0.0,0.0,0.0,1.0,9.4,-0.30000000000000004,-1.2000000000000002,1.3,0.1
1698672676.877,16,0.0,0.0,0.0,1.0,9.4,-0.30000000000000004,-1.3,1.3,0.1
1698672676.894,16,0.0,0.0,-0.1,1.0,9.4,-0.30000000000000004,-1.7,2.0,0.0
1698672676.912,16,0.0,0.0,-0.1,1.0,9.4,-0.30000000000000004,-2.6,2.5,-0.1
1698672676.927,16,0.0,0.0,-0.1,1.0,9.4,-0.30000000000000004,-2.7,2.8,-0.1
1698672676.944,16,0.0,0.0,0.0,1.0,9.4,-0.30000000000000004,-3.0000000000000004,3.2,-0.1
1698672676.96,16,0.0,0.0,0.0,1.0,9.4,-0.2,-3.2,3.2,0.1
1698672676.977,16,0.0,0.0,0.0,1.0,9.4,-0.2,-2.8,3.2,-0.1
1698672676.994,16,0.0,0.0,0.1,1.0,9.4,-0.1,-2.8,2.9,0.2
1698672677.01,16,0.0,0.0,0.1,1.0,9.4,-0.1,-2.1999999999999997,2.3000000000000003,0.5
1698672677.027,16,0.0,0.0,0.1,1.0,9.4,-0.1,-1.0999999999999999,1.7,0.6000000000000001
1698672677.044,16,0.0,0.0,0.1,1.0,9.4,-0.1,-0.5,0.30000000000000004,0.4
1698672677.06,16,0.0,0.0,0.1,1.0,9.4,-0.1,0.0,-0.2,0.30000000000000004
1698672677.077,16,0.0,-0.1,0.1,1.0,9.3,-0.1,0.1,-0.8,1.0
1698672677.094,16,0.0,0.0,0.0,1.1,9.4,-0.1,1.0999999999999999,-1.0,1.7
1698672677.11,16,0.1,0.0,0.0,1.1,9.4,-0.1,1.4,-1.0999999999999999,1.0
1698672677.127,16,0.1,0.0,0.0,1.1,9.4,-0.1,1.7,-0.8,-0.4
1698672677.144,16,0.1,0.0,0.0,1.1,9.3,-0.2,2.0,-1.0999999999999999,-0.4
1698672677.16,16,0.0,0.0,0.0,1.0,9.3,-0.2,1.8,-1.7,-0.5
1698672677.177,16,0.1,0.1,0.0,1.1,9.4,-0.2,1.6,-2.7,-0.8
1698672677.194,16,0.0,0.1,0.0,1.1,9.4,-0.2,1.5000000000000002,-2.9,-1.0
1698672677.21,16,0.0,0.0,0.1,1.0,9.4,-0.1,1.8,-2.1999999999999997,-0.2
1698672677.227,16,0.0,0.0,-0.1,1.0,9.4,-0.30000000000000004,1.4,-2.0,-0.1
1698672677.244,16,-0.1,0.0,0.0,1.0,9.4,-0.2,-0.5,-1.0,0.1
1698672677.26,16,0.0,0.0,0.0,1.1,9.4,-0.1,-2.3000000000000003,0.7,0.0
1698672677.277,16,0.0,0.1,0.0,1.1,9.4,-0.2,-2.5,1.0,-0.1
1698672677.294,16,0.0,0.1,-0.1,1.1,9.4,-0.30000000000000004,-2.5,0.9,-0.2
1698672677.31,16,0.0,0.0,-0.1,1.0,9.4,-0.30000000000000004,-2.7,0.6000000000000001,-0.2
1698672677.327,16,0.0,0.0,-0.1,1.0,9.3,-0.30000000000000004,-3.3000000000000003,0.7,-0.2
1698672677.344,16,0.0,0.0,-0.1,1.0,9.4,-0.30000000000000004,-3.9,1.0999999999999999,-0.2
1698672677.36,16,0.1,0.0,0.0,1.1,9.4,-0.1,-5.300000000000001,2.3000000000000003,-0.4
1698672677.377,16,0.0,0.0,0.1,1.1,9.4,0.0,-5.7,2.9,-0.5
1698672677.394,16,0.0,0.0,0.1,1.0,9.4,0.0,-5.6,2.5,-0.8
1698672677.41,16,0.0,0.1,-0.1,1.0,9.4,-0.2,-5.500000000000001,2.8,-1.0999999999999999
1698672677.427,16,0.2,0.0,-0.1,1.2000000000000002,9.4,-0.2,-5.500000000000001,3.4,-1.0
1698672677.444,16,0.0,0.0,-0.1,1.1,9.4,-0.2,-5.9,2.6,-1.7
1698672677.46,16,0.1,0.1,-0.1,1.1,9.5,-0.2,-7.500000000000001,3.6,-2.7
1698672677.477,16,0.2,0.30000000000000004,0.1,1.3,9.700000000000001,0.0,-10.3,5.0,-4.1000000000000005
1698672677.494,16,0.2,0.30000000000000004,0.1,1.3,9.700000000000001,0.1,-11.700000000000001,6.5,-4.5
1698672677.51,16,0.1,0.4,0.0,1.1,9.8,0.0,-13.3,6.6000000000000005,0.4
1698672677.527,16,0.1,0.5,0.0,1.1,10.0,0.0,-14.200000000000001,7.500000000000001,3.4
1698672677.544,16,0.1,0.30000000000000004,0.0,1.1,9.700000000000001,0.1,-16.3,10.8,5.2
1698672677.56,16,0.1,0.1,0.0,1.2000000000000002,9.5,0.2,-19.1,13.200000000000001,7.2
1698672677.577,16,0.0,0.2,0.0,1.1,9.600000000000001,0.2,-22.8,16.900000000000002,10.3
1698672677.594,16,0.0,0.30000000000000004,-0.1,1.1,9.700000000000001,0.2,-24.5,17.0,12.200000000000001
1698672677.61,16,0.0,0.4,-0.1,1.1,9.8,0.2,-26.3,18.6,16.2
1698672677.627,16,-0.1,0.30000000000000004,-0.2,1.1,9.8,0.2,-29.300000000000004,19.6,18.6
1698672677.644,16,-0.4,0.1,-0.2,0.9,9.5,0.30000000000000004,-30.799999999999997,19.200000000000003,20.3
1698672677.66,16,-0.6000000000000001,0.0,-0.2,0.7000000000000001,9.4,0.4,-36.1,18.3,22.1
1698672677.677,16,-0.6000000000000001,0.2,-0.1,0.7000000000000001,9.600000000000001,0.7000000000000001,-41.2,15.9,21.8
1698672677.694,16,-0.6000000000000001,0.30000000000000004,0.0,0.8,9.700000000000001,0.9,-42.400000000000006,14.500000000000002,20.900000000000002
1698672677.711,16,-0.5,0.1,0.0,0.9,9.5,1.0,-41.5,14.100000000000001,17.599999999999998
1698672677.727,16,-0.1,-0.30000000000000004,0.0,1.4000000000000001,9.1,1.1,-39.8,13.8,14.3
1698672677.744,16,0.0,-0.30000000000000004,0.0,1.5,9.0,1.2000000000000002,-38.6,14.500000000000002,13.6
1698672677.76,16,0.0,-0.2,-0.2,1.5,9.1,1.2000000000000002,-37.0,14.600000000000001,16.1
1698672677.777,16,-0.1,-0.1,-0.30000000000000004,1.5,9.200000000000001,1.1,-36.800000000000004,10.5,19.500000000000004
1698672677.794,16,0.0,0.0,-0.2,1.6,9.3,1.3,-36.1,8.3,20.0
1698672677.81,16,0.30000000000000004,0.2,-0.1,2.0,9.4,1.5,-30.599999999999998,8.700000000000001,17.200000000000003
1698672677.827,16,0.5,0.0,-0.1,2.2,9.200000000000001,1.6,-23.1,14.100000000000001,13.100000000000001
1698672677.844,16,0.5,-0.2,-0.1,2.3000000000000003,9.0,1.7000000000000002,-19.700000000000003,15.8,12.4
1698672677.861,16,0.7000000000000001,-0.2,0.0,2.5,8.9,1.8,-13.700000000000001,17.5,13.100000000000001
1698672677.877,16,0.7000000000000001,-0.30000000000000004,0.2,2.5,8.8,2.0,-9.200000000000001,23.1,16.1
1698672677.894,16,0.7000000000000001,-0.2,0.2,2.5,8.9,2.2,-7.400000000000001,26.400000000000002,17.599999999999998
1698672677.91,16,0.5,-0.1,0.30000000000000004,2.4000000000000004,9.0,2.2,-5.7,32.4,19.0
1698672677.927,16,0.4,0.0,0.30000000000000004,2.3000000000000003,9.1,2.2,-7.8,37.300000000000004,19.200000000000003
1698672677.944,16,0.30000000000000004,-0.1,0.2,2.2,9.0,2.2,-10.1,38.6,18.900000000000002
1698672677.96,16,0.1,-0.1,0.2,2.0,9.0,2.3000000000000003,-16.8,39.699999999999996,18.400000000000002
1698672677.977,16,-0.1,-0.1,0.2,1.9000000000000001,8.9,2.3000000000000003,-22.4,39.6,18.3
1698672677.994,16,-0.1,-0.2,0.1,1.9000000000000001,8.8,2.3000000000000003,-26.400000000000002,41.0,17.9
1698672678.012,16,-0.2,-0.1,0.1,1.9000000000000001,8.9,2.4000000000000004,-27.1,41.4,17.8
1698672678.027,16,-0.2,0.0,0.0,1.9000000000000001,8.9,2.5,-25.2,43.0,16.3
1698672678.044,16,-0.30000000000000004,0.0,0.1,1.7000000000000002,8.9,2.5,-23.3,43.800000000000004,16.400000000000002
1698672678.06,16,-0.4,-0.1,0.0,1.7000000000000002,8.8,2.6,-18.2,43.900000000000006,17.400000000000002
1698672678.077,16,-0.5,0.0,0.0,1.6,8.9,2.7,-14.0,41.2,18.7
1698672678.093,16,-0.7000000000000001,-0.1,0.0,1.5,8.9,2.7,-12.700000000000001,38.400000000000006,18.400000000000002
1698672678.111,16,-0.8,-0.1,0.1,1.3,8.700000000000001,2.8000000000000003,-11.8,30.799999999999997,16.8
1698672678.127,16,-0.9,-0.1,0.30000000000000004,1.2000000000000002,8.700000000000001,3.1,-13.100000000000001,24.6,13.9
1698672678.145,16,-0.6000000000000001,-0.1,0.30000000000000004,1.3,8.700000000000001,3.2,-14.4,22.8,11.000000000000002
1698672678.161,16,-0.4,-0.2,0.4,1.7000000000000002,8.6,3.3000000000000003,-18.5,17.8,5.1
1698672678.177,16,-0.1,-0.5,0.5,2.0,8.3,3.5,-22.000000000000004,15.7,4.6000000000000005
1698672678.194,16,0.0,-0.4,0.30000000000000004,2.1,8.3,3.4000000000000004,-23.400000000000002,18.7,7.6
1698672678.21,16,0.1,-0.30000000000000004,0.2,2.3000000000000003,8.4,3.4000000000000004,-23.6,18.900000000000002,8.9
1698672678.227,16,0.2,-0.2,0.30000000000000004,2.3000000000000003,8.4,3.5,-22.000000000000004,18.6,9.5
1698672678.244,16,0.30000000000000004,-0.30000000000000004,0.4,2.4000000000000004,8.3,3.7,-17.200000000000003,21.6,10.1
1698672678.261,16,0.30000000000000004,-0.30000000000000004,0.4,2.4000000000000004,8.3,3.7,-14.600000000000001,22.5,9.9
1698672678.277,16,0.2,-0.30000000000000004,0.30000000000000004,2.4000000000000004,8.3,3.7,-10.1,20.8,9.5
1698672678.293,16,-0.1,-0.5,0.30000000000000004,2.1,8.1,3.7,-7.699999999999999,18.900000000000002,10.5
1698672678.31,16,-0.1,-0.6000000000000001,0.30000000000000004,2.0,8.0,3.8000000000000003,-7.2,18.5,11.700000000000001
1698672678.327,16,-0.2,-0.4,0.30000000000000004,2.0,8.1,3.8000000000000003,-6.1000000000000005,15.8,10.1
1698672678.344,16,0.0,-0.7000000000000001,0.4,2.2,7.9,3.9000000000000004,-4.5,12.3,8.3
1698672678.36,16,0.1,-0.8,0.5,2.3000000000000003,7.800000000000001,4.0,-3.0000000000000004,12.200000000000001,8.200000000000001
1698672678.377,16,0.1,-0.8,0.5,2.3000000000000003,7.7,4.0,1.7,14.4,8.3
1698672678.394,16,0.0,-1.0,0.4,2.2,7.5,3.9000000000000004,6.1000000000000005,12.200000000000001,9.4
1698672678.41,16,0.0,-1.0,0.4,2.2,7.5,4.0,7.6,9.8,10.0
1698672678.428,16,-0.2,-0.8,0.5,2.1,7.7,3.9000000000000004,9.8,6.6000000000000005,10.8
1698672678.444,16,-0.2,-0.6000000000000001,0.6000000000000001,2.1,7.9,4.1000000000000005,11.9,3.7000000000000006,9.4
1698672678.46,16,-0.2,-0.5,0.8,2.1,8.1,4.3,12.8,2.5,7.8
1698672678.477,16,-0.2,-0.4,0.9,2.1,8.1,4.3,13.3,3.3000000000000003,4.6000000000000005
1698672678.494,16,-0.1,-0.4,0.8,2.2,8.1,4.2,9.1,4.0,2.6
1698672678.51,16,-0.30000000000000004,-0.6000000000000001,0.8,2.0,8.0,4.2,4.0,2.3000000000000003,0.9
1698672678.527,16,-0.4,-0.6000000000000001,0.7000000000000001,1.9000000000000001,8.0,4.1000000000000005,2.4000000000000004,1.4,-0.8
1698672678.543,16,-0.4,-0.5,0.5,1.9000000000000001,8.0,3.9000000000000004,1.5000000000000002,-2.8,-4.6000000000000005
1698672678.56,16,-0.2,-0.4,0.30000000000000004,2.0,8.1,3.7,2.1999999999999997,-4.1000000000000005,-5.8
1698672678.576,16,-0.1,-0.6000000000000001,0.30000000000000004,2.1,8.0,3.7,3.9,-7.6,-6.7
1698672678.593,16,0.0,-0.5,0.30000000000000004,2.2,8.0,3.7,7.300000000000001,-10.2,-7.699999999999999
1698672678.61,16,0.1,-0.4,0.4,2.3000000000000003,8.1,3.7,11.4,-8.600000000000001,-9.600000000000001
1698672678.627,16,0.2,-0.4,0.30000000000000004,2.4000000000000004,8.200000000000001,3.6,12.9,-7.400000000000001,-9.9
1698672678.643,16,0.2,-0.4,0.30000000000000004,2.4000000000000004,8.200000000000001,3.5,14.3,-7.2,-10.700000000000001
1698672678.66,16,0.2,-0.30000000000000004,0.2,2.4000000000000004,8.3,3.5,14.200000000000001,-8.9,-10.9
1698672678.677,16,0.2,-0.2,0.2,2.4000000000000004,8.4,3.4000000000000004,14.100000000000001,-9.5,-10.9
1698672678.694,16,0.2,-0.1,0.2,2.3000000000000003,8.6,3.3000000000000003,13.6,-11.1,-11.2
1698672678.71,16,0.1,-0.1,0.2,2.2,8.6,3.3000000000000003,14.0,-13.5,-13.200000000000001
1698672678.727,16,0.2,-0.1,0.30000000000000004,2.2,8.5,3.3000000000000003,14.4,-13.700000000000001,-14.500000000000002
1698672678.743,16,0.1,-0.1,0.2,2.2,8.6,3.2,15.000000000000002,-11.8,-16.5
1698672678.76,16,0.2,-0.1,0.0,2.2,8.6,3.0,13.8,-11.5,-17.1
1698672678.777,16,0.2,-0.2,0.0,2.2,8.5,3.0,12.700000000000001,-13.4,-17.0
1698672678.793,16,-0.1,-0.2,-0.1,1.9000000000000001,8.5,2.8000000000000003,11.8,-13.8,-16.400000000000002
1698672678.81,16,-0.2,0.0,-0.1,1.8,8.8,2.7,10.9,-17.200000000000003,-17.0
1698672678.827,16,-0.2,0.1,-0.1,1.7000000000000002,8.9,2.7,11.1,-19.500000000000004,-18.400000000000002
1698672678.843,16,-0.2,0.2,0.0,1.6,9.0,2.8000000000000003,12.8,-21.700000000000003,-21.400000000000002
1698672678.86,16,-0.2,0.1,0.0,1.6,9.0,2.7,14.4,-23.1,-23.700000000000003
1698672678.877,16,-0.2,0.1,0.1,1.6,9.0,2.8000000000000003,14.700000000000001,-24.200000000000003,-25.2
1698672678.894,16,-0.1,0.0,0.1,1.6,8.9,2.7,14.0,-25.5,-27.2
1698672678.91,16,0.0,0.0,0.1,1.7000000000000002,8.9,2.7,13.0,-26.200000000000003,-28.0
1698672678.927,16,0.2,0.0,0.1,1.8,8.9,2.6,10.3,-26.0,-30.100000000000005
1698672678.944,16,0.30000000000000004,0.1,0.2,1.8,9.0,2.7,8.5,-25.900000000000002,-33.1
1698672678.96,16,0.30000000000000004,0.1,0.0,1.7000000000000002,9.1,2.5,7.2,-22.6,-34.400000000000006
1698672678.977,16,0.30000000000000004,0.0,-0.1,1.7000000000000002,9.0,2.4000000000000004,6.2,-23.1,-34.0
1698672678.993,16,0.2,0.0,-0.1,1.6,9.1,2.4000000000000004,4.6000000000000005,-22.900000000000002,-32.5
