msFromStart,interval,accx,accy,accz,accGx,accGy,accGz,rotRate_alpha,rotRate_beta,rotRate_gamma
1698415422013.0,16,0.0,0.0,0.0,-0.6000000000000001,9.5,-0.1,0.2,-0.30000000000000004,0.2
1698415422030.0,16,0.0,0.0,0.0,-0.5,9.5,-0.1,0.2,-0.1,-0.1
1698415422047.0,16,0.0,0.0,0.0,-0.6000000000000001,9.5,-0.1,0.1,0.2,-0.1
1698415422064.0,16,0.0,0.0,0.0,-0.5,9.5,-0.1,0.2,0.2,-0.1
1698415422080.0,16,0.0,0.0,0.0,-0.6000000000000001,9.5,-0.1,0.1,0.1,-0.1
1698415422096.0,16,0.0,0.0,0.0,-0.6000000000000001,9.5,-0.1,0.0,0.2,0.1
1698415422113.0,16,0.0,0.0,0.0,-0.5,9.5,-0.1,0.1,0.0,0.0
1698415422129.0,16,0.0,0.0,0.0,-0.6000000000000001,9.5,-0.1,-0.1,0.30000000000000004,0.1
1698415422146.0,16,0.0,0.0,0.0,-0.6000000000000001,9.5,-0.1,0.1,0.2,-0.1
1698415422163.0,16,0.0,0.0,0.0,-0.6000000000000001,9.5,-0.1,0.1,0.1,0.0
1698415422180.0,16,0.0,0.0,0.0,-0.6000000000000001,9.5,-0.1,0.2,-0.1,0.1
1698415422196.0,16,0.0,0.0,0.0,-0.5,9.5,-0.1,0.2,0.1,-0.1
1698415422213.0,16,0.0,0.0,0.0,-0.6000000000000001,9.5,-0.1,0.1,0.30000000000000004,-0.1
1698415422230.0,16,0.0,0.0,0.0,-0.6000000000000001,9.5,-0.1,0.0,0.2,-0.1
1698415422247.0,16,0.0,0.0,0.0,-0.6000000000000001,9.600000000000001,-0.1,0.1,-0.1,0.1
1698415422264.0,16,0.0,0.0,0.0,-0.5,9.5,-0.2,0.1,-0.1,0.1
1698415422281.0,16,0.0,0.0,-0.1,-0.6000000000000001,9.5,-0.2,-0.1,0.1,0.0
1698415422298.0,16,0.0,0.0,0.0,-0.6000000000000001,9.5,-0.1,-0.4,-0.1,0.0
1698415422313.0,16,0.0,0.0,0.0,-0.6000000000000001,9.5,-0.1,-0.1,0.0,0.0
1698415422329.0,16,0.0,0.0,0.0,-0.6000000000000001,9.5,-0.1,0.1,-0.1,0.0
1698415422347.0,16,0.0,0.0,0.0,-0.6000000000000001,9.5,-0.1,0.1,-0.2,0.1
1698415422364.0,16,0.0,0.0,0.0,-0.6000000000000001,9.5,-0.1,0.0,-0.30000000000000004,0.4
1698415422380.0,16,0.0,0.0,0.0,-0.6000000000000001,9.5,-0.1,-0.1,-0.4,0.30000000000000004
1698415422399.0,16,0.1,0.0,0.0,-0.5,9.5,-0.1,0.1,-0.2,0.2
1698415422413.0,16,0.0,0.0,0.0,-0.5,9.600000000000001,-0.1,0.1,0.2,0.0
1698415422430.0,16,0.0,0.0,0.0,-0.5,9.600000000000001,-0.1,0.2,0.4,0.0
1698415422447.0,16,0.0,0.0,0.0,-0.6000000000000001,9.5,-0.1,0.2,0.2,0.0
1698415422463.0,16,0.0,0.0,0.0,-0.5,9.5,-0.1,0.0,0.1,0.1
1698415422480.0,16,0.0,0.0,0.0,-0.6000000000000001,9.5,-0.1,0.1,0.0,0.1
1698415422496.0,16,0.0,0.0,0.0,-0.5,9.5,-0.1,0.2,0.2,0.1
1698415422513.0,16,0.0,0.0,0.0,-0.5,9.5,-0.1,0.4,0.4,-0.1
1698415422530.0,16,0.0,0.0,0.0,-0.6000000000000001,9.5,-0.1,0.30000000000000004,0.4,-0.1
1698415422546.0,16,0.0,0.0,0.0,-0.6000000000000001,9.600000000000001,-0.2,0.30000000000000004,0.1,-0.1
1698415422563.0,16,0.0,0.0,0.0,-0.6000000000000001,9.5,-0.1,0.2,-0.1,0.0
1698415422580.0,16,0.0,0.0,0.0,-0.6000000000000001,9.600000000000001,-0.1,0.2,-0.1,0.1
1698415422596.0,16,0.0,0.0,0.0,-0.6000000000000001,9.5,-0.1,0.1,0.2,0.1
1698415422613.0,16,0.0,0.0,0.0,-0.6000000000000001,9.5,-0.1,0.1,0.1,0.0
1698415422630.0,16,0.0,0.0,0.0,-0.6000000000000001,9.5,-0.1,0.2,0.2,0.0
1698415422647.0,16,0.0,0.0,0.0,-0.6000000000000001,9.5,-0.1,0.1,0.1,0.1
1698415422664.0,16,0.0,0.0,0.0,-0.6000000000000001,9.5,-0.1,0.1,0.0,0.0
1698415422680.0,16,0.0,0.0,0.0,-0.6000000000000001,9.5,-0.1,0.0,0.2,0.1
1698415422697.0,16,0.0,0.0,0.0,-0.6000000000000001,9.5,-0.1,0.2,0.30000000000000004,0.2
1698415422713.0,16,0.0,0.0,0.0,-0.6000000000000001,9.5,-0.1,0.1,0.1,0.1
1698415422730.0,16,0.0,0.0,0.0,-0.6000000000000001,9.5,-0.2,0.0,0.1,0.2
1698415422746.0,16,0.0,0.0,0.0,-0.6000000000000001,9.5,-0.1,-0.1,0.0,0.30000000000000004
1698415422763.0,16,0.0,0.0,0.0,-0.6000000000000001,9.5,-0.1,-0.1,0.1,0.2
1698415422780.0,16,0.0,0.0,0.0,-0.6000000000000001,9.5,-0.1,-0.1,0.1,0.2
1698415422797.0,16,0.0,0.0,0.0,-0.5,9.5,-0.1,0.0,0.0,0.30000000000000004
1698415422813.0,16,0.0,0.0,0.0,-0.5,9.5,-0.1,-0.1,0.1,0.2
1698415422830.0,16,0.0,0.0,0.0,-0.5,9.5,-0.1,-0.1,0.1,0.2
1698415422846.0,16,0.0,0.0,0.0,-0.6000000000000001,9.5,-0.1,0.1,0.2,0.2
1698415422863.0,16,0.0,0.0,0.0,-0.6000000000000001,9.5,-0.1,0.0,0.1,0.1
1698415422880.0,16,0.0,0.0,0.0,-0.6000000000000001,9.5,-0.1,0.0,0.1,0.2
1698415422896.0,16,0.0,0.0,0.0,-0.5,9.5,-0.1,0.1,0.1,0.2
1698415422913.0,16,0.0,0.0,0.0,-0.6000000000000001,9.5,-0.1,0.0,0.1,0.1
1698415422930.0,16,0.0,0.0,0.0,-0.6000000000000001,9.5,-0.1,0.0,0.2,0.0
1698415422947.0,16,0.0,0.0,0.0,-0.6000000000000001,9.5,-0.1,0.1,0.1,0.1
1698415422963.0,16,0.0,0.0,0.0,-0.5,9.5,-0.1,-0.1,-0.1,0.2
1698415422981.0,16,0.1,0.0,0.0,-0.5,9.5,-0.1,-0.2,0.1,0.2
1698415422997.0,16,0.0,0.0,0.0,-0.5,9.5,-0.1,0.1,0.4,-0.1
1698415423013.0,16,0.0,0.0,0.0,-0.5,9.5,-0.1,-0.1,0.1,0.1
1698415423030.0,16,0.0,0.1,0.0,-0.6000000000000001,9.600000000000001,-0.1,0.1,-0.1,0.2
1698415423046.0,16,0.0,0.0,0.0,-0.5,9.600000000000001,-0.2,-0.1,0.2,0.1
1698415423063.0,16,0.0,0.0,0.0,-0.6000000000000001,9.5,-0.1,-0.30000000000000004,0.30000000000000004,-0.1
1698415423080.0,16,0.0,0.0,0.0,-0.6000000000000001,9.5,-0.1,-0.4,0.2,0.0
1698415423096.0,16,0.0,0.0,0.0,-0.6000000000000001,9.5,-0.1,-0.1,-0.1,0.1
1698415423113.0,16,0.0,0.0,0.0,-0.6000000000000001,9.5,-0.1,0.0,-0.1,0.0
1698415423129.0,16,0.0,0.0,0.0,-0.5,9.5,-0.1,0.0,0.0,0.2
1698415423146.0,16,0.0,0.0,0.0,-0.6000000000000001,9.5,-0.1,0.0,0.0,0.2
1698415423163.0,16,0.0,0.0,0.0,-0.6000000000000001,9.5,-0.1,0.1,0.2,0.1
1698415423180.0,16,0.0,0.0,0.0,-0.5,9.5,-0.1,-0.1,0.0,0.0
1698415423197.0,16,0.0,0.0,0.0,-0.5,9.5,-0.1,0.1,0.2,0.1
1698415423213.0,16,0.0,0.0,0.0,-0.5,9.5,-0.1,-0.1,0.1,-0.1
1698415423230.0,16,0.0,0.0,0.0,-0.6000000000000001,9.5,-0.1,-0.1,0.0,0.1
1698415423247.0,16,0.0,0.0,0.0,-0.6000000000000001,9.5,-0.1,0.0,-0.1,0.1
1698415423263.0,16,0.0,0.0,0.0,-0.5,9.5,-0.1,0.1,-0.1,0.1
1698415423280.0,16,0.0,0.0,0.0,-0.5,9.5,-0.1,0.2,0.2,0.1
1698415423296.0,16,0.0,0.0,0.0,-0.6000000000000001,9.5,-0.1,0.2,0.2,-0.1
1698415423313.0,16,0.0,0.0,0.0,-0.6000000000000001,9.600000000000001,-0.1,0.0,0.1,0.1
1698415423330.0,16,0.0,0.0,0.0,-0.6000000000000001,9.600000000000001,-0.2,0.1,-0.30000000000000004,0.1
1698415423346.0,16,0.0,0.0,0.0,-0.6000000000000001,9.5,-0.1,0.1,-0.2,0.1
1698415423363.0,16,0.0,0.0,0.0,-0.6000000000000001,9.5,-0.1,0.1,-0.2,0.1
1698415423380.0,16,0.0,0.0,0.0,-0.5,9.5,-0.1,-0.2,0.0,0.1
1698415423397.0,16,0.0,0.0,0.0,-0.5,9.5,-0.1,0.1,-0.1,0.0
1698415423413.0,16,0.0,0.0,0.0,-0.6000000000000001,9.5,-0.1,0.1,-0.1,0.0
1698415423430.0,16,0.0,0.0,0.0,-0.6000000000000001,9.5,-0.1,0.1,0.1,0.1
1698415423446.0,16,0.0,0.0,0.0,-0.5,9.5,-0.1,0.1,-0.1,0.1
1698415423463.0,16,0.0,0.0,0.0,-0.6000000000000001,9.5,-0.1,0.2,0.0,0.1
1698415423479.0,16,0.0,0.0,0.0,-0.6000000000000001,9.5,-0.2,0.2,-0.1,0.1
1698415423496.0,16,0.0,0.0,0.0,-0.6000000000000001,9.5,-0.1,0.0,-0.1,0.1
1698415423513.0,16,0.0,0.0,0.0,-0.6000000000000001,9.5,-0.1,0.0,-0.2,0.1
1698415423529.0,16,0.0,0.0,0.0,-0.6000000000000001,9.5,-0.1,0.0,-0.1,0.1
1698415423546.0,16,0.0,0.0,0.0,-0.6000000000000001,9.5,-0.1,0.0,-0.1,0.1
1698415423563.0,16,0.0,0.0,0.0,-0.5,9.5,-0.1,0.1,0.1,0.1
1698415423580.0,16,0.0,0.0,0.0,-0.6000000000000001,9.5,-0.1,0.2,-0.1,0.1
1698415423597.0,16,0.0,0.0,0.0,-0.6000000000000001,9.5,-0.1,0.0,-0.1,0.1
1698415423613.0,16,0.0,0.0,0.0,-0.5,9.5,-0.1,0.1,-0.1,-0.1
1698415423630.0,16,0.0,0.0,0.0,-0.5,9.5,-0.1,0.1,0.1,0.0
1698415423647.0,16,0.0,0.0,0.0,-0.6000000000000001,9.5,-0.1,0.1,0.1,0.0
1698415423663.0,16,0.0,0.0,0.0,-0.6000000000000001,9.5,-0.1,0.1,0.1,0.1
1698415423680.0,16,0.0,0.0,0.0,-0.6000000000000001,9.5,-0.1,0.1,0.0,-0.1
1698415423697.0,16,0.0,0.0,0.0,-0.6000000000000001,9.5,-0.2,0.1,-0.1,-0.1
1698415423714.0,16,0.0,0.0,0.0,-0.6000000000000001,9.5,-0.1,0.0,0.1,0.0
1698415423729.0,16,0.0,0.0,0.0,-0.6000000000000001,9.5,-0.1,0.0,0.1,0.1
1698415423746.0,16,0.0,0.0,0.0,-0.5,9.5,-0.2,0.1,0.1,-0.1
1698415423763.0,16,0.0,0.0,0.0,-0.6000000000000001,9.5,-0.1,0.1,0.2,-0.1
1698415423780.0,16,0.0,0.0,0.0,-0.5,9.5,-0.1,0.0,0.2,0.0
1698415423796.0,16,0.0,0.0,0.0,-0.6000000000000001,9.5,-0.1,0.2,-0.30000000000000004,0.0
1698415423813.0,16,0.0,0.0,0.0,-0.5,9.5,-0.2,0.1,0.1,-0.1
1698415423830.0,16,0.0,0.0,0.0,-0.6000000000000001,9.5,-0.2,-0.2,0.2,-0.1
1698415423846.0,16,0.0,0.0,0.0,-0.6000000000000001,9.5,-0.2,-0.2,0.1,0.0
1698415423863.0,16,0.0,0.0,0.0,-0.6000000000000001,9.5,-0.1,-0.1,-0.1,0.1
1698415423879.0,16,0.0,0.0,0.0,-0.6000000000000001,9.5,-0.1,0.1,-0.1,0.0
1698415423899.0,16,0.0,0.0,0.0,-0.6000000000000001,9.5,-0.1,0.1,-0.2,0.1
1698415423914.0,16,0.0,0.0,0.0,-0.6000000000000001,9.5,-0.1,0.2,-0.30000000000000004,0.2
1698415423930.0,16,0.0,0.0,0.0,-0.5,9.5,-0.1,0.2,-0.30000000000000004,0.1
1698415423946.0,16,0.0,0.0,0.0,-0.5,9.5,-0.1,0.2,-0.2,0.1
1698415423963.0,16,0.0,0.0,0.0,-0.5,9.5,-0.1,0.2,-0.2,0.1
1698415423980.0,16,0.0,0.0,0.0,-0.5,9.600000000000001,-0.1,0.30000000000000004,0.0,0.1
1698415423997.0,16,0.0,0.0,0.0,-0.5,9.5,-0.1,0.30000000000000004,-0.1,0.0
1698415424013.0,16,0.0,0.0,0.0,-0.6000000000000001,9.5,-0.1,0.2,0.0,0.0
1698415424030.0,16,0.0,0.0,0.0,-0.6000000000000001,9.5,-0.1,0.4,-0.1,0.1
1698415424046.0,16,0.0,0.0,0.0,-0.5,9.5,-0.1,0.5,0.1,0.1
1698415424063.0,16,0.0,0.0,0.0,-0.5,9.5,-0.1,0.4,0.1,0.1
1698415424080.0,16,0.0,0.0,0.0,-0.6000000000000001,9.5,-0.1,0.6000000000000001,0.4,0.1
1698415424097.0,16,0.0,0.0,0.0,-0.6000000000000001,9.5,-0.1,0.6000000000000001,0.0,0.1
1698415424113.0,16,0.0,0.0,0.0,-0.6000000000000001,9.600000000000001,-0.2,0.6000000000000001,-0.1,0.2
1698415424129.0,16,0.0,0.0,0.0,-0.6000000000000001,9.5,-0.1,0.7,-0.2,0.1
1698415424146.0,16,0.0,0.0,0.0,-0.5,9.5,-0.1,0.9,-0.30000000000000004,0.1
1698415424163.0,16,0.0,0.0,0.1,-0.5,9.5,-0.1,0.8,-0.2,0.2
1698415424180.0,16,0.0,0.0,0.0,-0.5,9.5,-0.1,0.9,-0.1,-0.1
1698415424196.0,16,0.0,0.0,0.0,-0.5,9.600000000000001,-0.1,0.8,0.1,0.0
1698415424213.0,16,0.0,0.0,0.0,-0.6000000000000001,9.600000000000001,-0.2,0.7,0.2,0.1
1698415424230.0,16,0.0,0.0,0.0,-0.6000000000000001,9.5,-0.2,0.30000000000000004,0.1,0.2
1698415424246.0,16,0.0,0.0,0.0,-0.5,9.5,-0.2,0.2,0.1,0.2
1698415424263.0,16,0.0,0.0,-0.1,-0.5,9.5,-0.2,0.1,-0.1,0.1
1698415424279.0,16,0.0,0.0,-0.1,-0.6000000000000001,9.5,-0.2,0.0,-0.1,0.1
1698415424296.0,16,0.0,0.0,-0.1,-0.6000000000000001,9.5,-0.2,-0.1,-0.2,0.1
1698415424313.0,16,0.0,0.0,0.0,-0.6000000000000001,9.5,-0.2,-0.2,-0.30000000000000004,0.2
1698415424329.0,16,0.0,0.0,0.0,-0.6000000000000001,9.5,-0.2,-0.2,-0.30000000000000004,0.2
1698415424346.0,16,0.0,0.0,0.0,-0.6000000000000001,9.5,-0.2,-0.30000000000000004,-0.30000000000000004,0.2
1698415424363.0,16,0.0,0.0,0.0,-0.6000000000000001,9.5,-0.1,-0.2,-0.30000000000000004,0.4
1698415424380.0,16,0.0,0.0,0.0,-0.5,9.5,-0.1,-0.4,-0.30000000000000004,0.2
1698415424399.0,16,0.0,0.0,0.0,-0.5,9.5,-0.1,-0.4,-0.1,0.1
1698415424413.0,16,0.0,0.0,0.0,-0.6000000000000001,9.5,-0.1,-0.4,0.0,0.0
1698415424430.0,16,0.0,0.0,0.0,-0.6000000000000001,9.5,-0.2,-0.4,0.1,0.1
1698415424446.0,16,0.0,0.0,0.0,-0.6000000000000001,9.5,-0.1,-0.4,0.1,0.1
1698415424463.0,16,0.0,0.0,0.0,-0.5,9.5,-0.1,-0.2,0.1,-0.1
1698415424480.0,16,0.0,0.0,0.0,-0.6000000000000001,9.5,-0.1,-0.2,0.1,-0.1
1698415424496.0,16,0.0,0.0,0.0,-0.5,9.5,-0.1,-0.2,0.30000000000000004,-0.1
1698415424512.0,16,0.0,0.0,0.0,-0.6000000000000001,9.5,-0.1,-0.2,0.2,-0.2
1698415424530.0,16,0.0,0.0,0.0,-0.5,9.5,-0.1,-0.2,0.2,-0.1
1698415424546.0,16,0.0,0.0,0.0,-0.5,9.5,-0.1,-0.1,0.2,-0.2
1698415424563.0,16,0.0,0.0,0.0,-0.6000000000000001,9.5,-0.1,-0.30000000000000004,0.7,-0.2
1698415424582.0,16,0.0,0.0,0.0,-0.6000000000000001,9.5,-0.1,-0.4,0.30000000000000004,-0.1
1698415424597.0,16,0.0,0.0,0.0,-0.6000000000000001,9.5,-0.1,-0.2,0.1,-0.1
1698415424613.0,16,0.0,0.0,0.0,-0.6000000000000001,9.5,-0.2,-0.1,0.1,-0.1
1698415424631.0,16,0.0,0.0,0.0,-0.6000000000000001,9.5,-0.2,-0.2,0.1,0.0
1698415424646.0,16,0.0,0.0,0.0,-0.6000000000000001,9.600000000000001,-0.1,-0.2,-0.1,-0.1
1698415424663.0,16,0.0,0.0,0.0,-0.5,9.5,-0.1,-0.1,-0.1,-0.1
1698415424680.0,16,0.0,0.0,0.0,-0.6000000000000001,9.5,-0.1,0.1,-0.2,-0.1
1698415424697.0,16,0.0,0.0,0.0,-0.6000000000000001,9.5,-0.1,0.0,-0.30000000000000004,0.1
1698415424713.0,16,0.0,0.0,0.0,-0.6000000000000001,9.5,-0.1,0.2,-0.4,0.1
1698415424730.0,16,0.0,0.0,0.0,-0.6000000000000001,9.5,-0.1,0.2,-0.4,0.2
1698415424746.0,16,0.0,0.0,0.0,-0.5,9.5,-0.1,0.1,-0.1,0.1
1698415424763.0,16,0.0,0.0,0.0,-0.5,9.5,-0.1,0.30000000000000004,0.2,0.1
1698415424781.0,16,0.0,0.0,0.0,-0.6000000000000001,9.5,-0.1,0.30000000000000004,0.2,-0.1
1698415424797.0,16,0.0,0.0,0.0,-0.6000000000000001,9.600000000000001,-0.1,0.2,0.2,0.1
1698415424813.0,16,0.0,0.0,0.0,-0.6000000000000001,9.5,-0.1,0.2,-0.30000000000000004,0.2
1698415424829.0,16,0.0,0.0,0.0,-0.5,9.5,-0.2,0.30000000000000004,-0.30000000000000004,0.2
1698415424847.0,16,0.0,0.0,0.0,-0.6000000000000001,9.5,-0.2,0.5,0.1,0.1
1698415424863.0,16,0.0,0.0,0.0,-0.6000000000000001,9.5,-0.1,0.4,0.4,0.1
1698415424882.0,16,0.0,0.0,0.0,-0.6000000000000001,9.5,-0.2,0.4,0.2,0.2
1698415424896.0,16,0.0,0.0,0.0,-0.6000000000000001,9.5,-0.1,0.2,0.1,0.1
1698415424914.0,16,0.0,0.0,0.0,-0.5,9.5,-0.2,0.2,0.0,0.1
1698415424929.0,16,0.0,0.0,0.0,-0.6000000000000001,9.5,-0.1,0.2,-0.1,0.2
1698415424946.0,16,0.0,0.0,0.0,-0.6000000000000001,9.5,-0.1,0.2,0.1,0.2
1698415424963.0,16,0.0,0.0,0.0,-0.6000000000000001,9.5,-0.1,0.2,0.1,0.2
1698415424980.0,16,0.0,0.0,0.0,-0.6000000000000001,9.5,-0.1,0.2,0.1,0.1
1698415424997.0,16,0.0,0.0,0.0,-0.5,9.5,-0.1,0.2,0.0,0.1
1698415425013.0,16,0.0,0.0,0.0,-0.5,9.5,-0.1,0.2,0.2,0.2
1698415425030.0,16,0.0,0.0,0.0,-0.6000000000000001,9.5,-0.2,0.2,0.30000000000000004,0.1
1698415425047.0,16,0.0,0.0,0.0,-0.6000000000000001,9.5,-0.2,0.1,0.2,0.0
1698415425063.0,16,0.0,0.0,0.0,-0.6000000000000001,9.5,-0.2,0.1,0.2,0.2
1698415425079.0,16,0.0,0.0,0.0,-0.5,9.5,-0.2,-0.1,0.2,0.2
1698415425096.0,16,0.0,0.0,0.0,-0.6000000000000001,9.5,-0.2,-0.30000000000000004,0.1,0.1
1698415425113.0,16,0.0,0.0,0.0,-0.6000000000000001,9.5,-0.2,-0.2,0.0,0.2
1698415425130.0,16,0.0,0.0,0.0,-0.6000000000000001,9.5,-0.2,-0.1,0.0,0.2
1698415425146.0,16,0.0,0.0,0.0,-0.6000000000000001,9.5,-0.2,-0.4,-0.4,0.30000000000000004
1698415425164.0,16,0.0,0.0,0.0,-0.5,9.5,-0.1,-0.6000000000000001,0.2,0.4
1698415425180.0,16,0.0,0.0,0.0,-0.5,9.5,-0.2,-0.5,0.2,0.30000000000000004
1698415425197.0,16,0.0,0.0,0.0,-0.5,9.5,-0.1,-0.30000000000000004,0.0,0.30000000000000004
1698415425213.0,16,0.0,0.0,0.0,-0.6000000000000001,9.5,-0.2,-0.6000000000000001,0.0,0.2
1698415425230.0,16,0.0,0.0,0.0,-0.5,9.5,-0.2,-0.9,0.2,0.30000000000000004
1698415425247.0,16,0.0,0.0,0.0,-0.5,9.5,-0.1,-0.9,0.4,0.30000000000000004
1698415425263.0,16,0.0,0.0,-0.1,-0.5,9.600000000000001,-0.2,-0.7,1.3,0.2
1698415425282.0,16,0.1,0.0,0.0,-0.5,9.600000000000001,-0.2,-0.8,1.2000000000000002,0.1
1698415425297.0,16,0.0,0.0,0.0,-0.5,9.5,-0.1,-1.0,1.0999999999999999,-0.4
1698415425314.0,16,0.0,0.0,0.1,-0.6000000000000001,9.5,-0.1,-0.9,1.3,-0.4
1698415425330.0,16,0.0,0.0,0.0,-0.6000000000000001,9.5,-0.1,-0.8,1.3,-0.4
1698415425347.0,16,0.0,0.0,0.0,-0.5,9.5,-0.1,-0.8,1.0,-0.4
1698415425363.0,16,0.0,0.0,0.0,-0.6000000000000001,9.5,-0.1,-0.7,1.0999999999999999,-0.5
1698415425379.0,16,0.0,0.0,0.0,-0.6000000000000001,9.5,-0.1,-0.7,1.0,-0.4
1698415425396.0,16,0.0,0.0,0.0,-0.6000000000000001,9.5,-0.1,-0.5,1.0,-0.4
1698415425413.0,16,0.0,0.0,0.0,-0.6000000000000001,9.5,-0.1,-0.6000000000000001,1.0,-0.4
1698415425430.0,16,0.0,0.0,0.0,-0.6000000000000001,9.5,-0.1,-0.7,0.7,-0.4
1698415425446.0,16,0.0,0.0,0.0,-0.6000000000000001,9.5,-0.1,-0.6000000000000001,0.6000000000000001,-0.4
1698415425463.0,16,0.0,0.0,0.1,-0.6000000000000001,9.5,-0.1,-0.4,0.2,-0.4
1698415425480.0,16,0.0,0.0,0.0,-0.6000000000000001,9.5,-0.1,-0.1,-0.1,-0.2
1698415425496.0,16,-0.1,0.0,0.0,-0.6000000000000001,9.5,-0.1,0.0,-0.4,-0.1
1698415425513.0,16,0.0,0.0,0.0,-0.6000000000000001,9.5,-0.1,0.2,-0.7,0.1
1698415425530.0,16,0.0,0.0,0.0,-0.6000000000000001,9.5,-0.1,0.30000000000000004,-0.8,0.2
1698415425546.0,16,0.0,0.0,0.0,-0.6000000000000001,9.5,-0.1,0.5,-0.8,0.4
1698415425563.0,16,0.0,0.0,0.0,-0.6000000000000001,9.5,-0.1,0.7,-0.6000000000000001,0.5
1698415425579.0,16,0.0,0.0,0.0,-0.5,9.5,-0.1,0.6000000000000001,-0.8,0.4
1698415425596.0,16,0.0,0.0,0.0,-0.5,9.5,-0.1,0.7,-0.8,0.4
1698415425613.0,16,0.0,0.0,0.0,-0.6000000000000001,9.5,-0.1,0.8,-0.9,0.30000000000000004
1698415425630.0,16,0.0,0.0,0.0,-0.5,9.5,-0.1,0.9,-0.8,0.4
1698415425646.0,16,0.0,0.0,0.0,-0.5,9.5,-0.1,0.7,-0.7,0.5
1698415425663.0,16,0.0,0.0,0.0,-0.5,9.5,-0.2,0.7,-0.4,0.5
1698415425679.0,16,0.0,0.0,0.0,-0.5,9.5,-0.2,0.4,-0.1,0.4
1698415425697.0,16,0.0,0.0,0.0,-0.6000000000000001,9.5,-0.2,0.4,-0.30000000000000004,0.4
1698415425713.0,16,0.0,0.0,0.0,-0.6000000000000001,9.600000000000001,-0.1,0.30000000000000004,-0.4,0.30000000000000004
1698415425729.0,16,0.0,0.0,0.0,-0.5,9.600000000000001,-0.2,0.2,-0.2,0.2
1698415425746.0,16,0.0,0.0,0.0,-0.5,9.5,-0.2,0.0,0.1,0.1
1698415425763.0,16,0.0,0.0,0.0,-0.5,9.5,-0.2,-0.1,0.0,0.1
1698415425779.0,16,0.0,0.0,0.0,-0.5,9.5,-0.1,-0.2,0.0,0.0
1698415425796.0,16,0.0,0.0,0.0,-0.5,9.5,-0.1,-0.1,0.0,0.0
1698415425812.0,16,0.0,0.0,0.0,-0.5,9.5,-0.1,-0.1,0.0,-0.1
1698415425829.0,16,0.0,0.0,0.0,-0.5,9.5,-0.1,-0.30000000000000004,0.30000000000000004,-0.2
1698415425846.0,16,0.0,0.0,0.0,-0.5,9.5,-0.2,-0.4,0.2,-0.1
1698415425863.0,16,0.0,0.0,0.0,-0.5,9.600000000000001,-0.2,-0.5,0.30000000000000004,-0.1
1698415425879.0,16,0.0,0.0,0.0,-0.5,9.5,-0.2,-0.6000000000000001,0.6000000000000001,-0.2
1698415425896.0,16,0.0,0.0,0.0,-0.6000000000000001,9.5,-0.1,-0.9,0.7,-0.1
1698415425913.0,16,0.0,0.0,0.0,-0.6000000000000001,9.5,-0.2,-1.0999999999999999,0.7,-0.1
1698415425929.0,16,0.0,0.0,0.0,-0.6000000000000001,9.5,-0.2,-1.3,1.3,0.0
1698415425946.0,16,0.0,0.0,0.0,-0.5,9.5,-0.1,-1.3,0.6000000000000001,-0.1
1698415425963.0,16,0.0,0.0,0.0,-0.5,9.5,-0.1,-1.0999999999999999,0.6000000000000001,-0.1
1698415425979.0,16,0.0,0.0,0.0,-0.5,9.5,-0.1,-0.9,0.8,-0.30000000000000004
1698415425996.0,16,0.0,0.0,0.1,-0.5,9.5,-0.1,-0.8,0.8,-0.4
1698415426013.0,16,0.0,0.0,0.0,-0.5,9.5,-0.1,-0.6000000000000001,0.7,-0.5
1698415426029.0,16,0.0,0.0,0.1,-0.6000000000000001,9.5,0.0,-0.5,0.7,-0.4
1698415426046.0,16,0.0,0.0,0.0,-0.6000000000000001,9.5,-0.1,-0.5,0.30000000000000004,-0.5
1698415426063.0,16,0.0,0.0,0.0,-0.6000000000000001,9.5,-0.1,-0.5,0.2,-0.2
1698415426080.0,16,0.0,0.0,0.0,-0.6000000000000001,9.5,-0.1,-0.4,0.0,-0.1
1698415426098.0,16,0.0,0.0,0.0,-0.6000000000000001,9.5,-0.1,-0.30000000000000004,-0.30000000000000004,-0.1
1698415426113.0,16,0.0,0.0,0.0,-0.6000000000000001,9.5,-0.1,-0.1,-0.2,-0.1
1698415426129.0,16,0.0,0.0,0.0,-0.6000000000000001,9.5,-0.1,-0.30000000000000004,-0.1,0.0
1698415426147.0,16,0.0,0.0,0.0,-0.6000000000000001,9.5,-0.1,-0.5,-0.1,-0.1
1698415426163.0,16,0.0,0.0,0.0,-0.5,9.5,-0.1,-0.5,-0.1,-0.1
1698415426180.0,16,0.0,0.0,0.0,-0.6000000000000001,9.5,-0.1,-0.30000000000000004,-0.1,-0.1
1698415426196.0,16,0.0,0.0,0.0,-0.6000000000000001,9.5,-0.1,-0.5,0.2,0.0
1698415426214.0,16,0.0,0.0,0.0,-0.5,9.5,-0.1,-0.4,0.2,-0.1
1698415426230.0,16,0.0,0.0,0.0,-0.5,9.5,-0.1,0.0,0.0,-0.2
1698415426246.0,16,0.0,0.0,0.0,-0.5,9.5,-0.1,-0.1,0.30000000000000004,-0.1
1698415426264.0,16,0.0,0.0,0.0,-0.6000000000000001,9.5,-0.1,-0.30000000000000004,0.2,-0.2
1698415426281.0,16,0.0,0.0,0.0,-0.6000000000000001,9.5,-0.1,0.0,0.0,-0.2
1698415426296.0,16,0.0,0.0,0.0,-0.6000000000000001,9.5,-0.1,0.30000000000000004,-0.30000000000000004,-0.2
1698415426313.0,16,0.0,0.0,0.0,-0.6000000000000001,9.5,-0.1,0.4,-0.30000000000000004,-0.2
1698415426330.0,16,0.0,0.0,0.0,-0.6000000000000001,9.5,-0.1,0.4,-0.30000000000000004,-0.2
1698415426346.0,16,0.0,0.0,0.0,-0.6000000000000001,9.5,-0.1,0.4,-0.30000000000000004,-0.1
1698415426363.0,16,0.0,0.0,0.0,-0.6000000000000001,9.5,-0.1,0.5,-0.30000000000000004,-0.1
1698415426379.0,16,0.0,0.0,0.0,-0.5,9.600000000000001,-0.1,0.5,-0.2,-0.1
1698415426398.0,16,0.0,0.0,0.0,-0.5,9.5,-0.1,0.5,0.0,-0.1
1698415426413.0,16,0.0,0.0,0.0,-0.6000000000000001,9.600000000000001,-0.1,0.30000000000000004,0.2,-0.1
1698415426429.0,16,0.0,0.0,0.0,-0.6000000000000001,9.5,-0.1,0.1,0.1,-0.1
1698415426446.0,16,0.0,0.0,0.0,-0.6000000000000001,9.5,-0.1,0.30000000000000004,0.2,0.0
1698415426463.0,16,0.0,0.0,0.0,-0.6000000000000001,9.5,-0.1,0.2,0.1,0.1
1698415426480.0,16,0.0,0.0,0.0,-0.6000000000000001,9.5,-0.1,0.30000000000000004,0.30000000000000004,0.1
1698415426497.0,16,0.0,0.0,0.0,-0.6000000000000001,9.5,-0.1,0.2,0.30000000000000004,0.0
1698415426514.0,16,0.0,0.0,0.0,-0.6000000000000001,9.5,-0.1,0.2,-0.1,0.1
1698415426530.0,16,0.0,0.0,0.0,-0.6000000000000001,9.600000000000001,-0.1,0.1,-0.2,0.2
1698415426546.0,16,0.0,0.0,0.0,-0.6000000000000001,9.5,-0.1,0.0,0.0,0.2
1698415426563.0,16,0.0,0.0,0.0,-0.6000000000000001,9.5,-0.1,0.0,-0.1,0.2
1698415426580.0,16,0.0,0.0,0.0,-0.5,9.5,-0.1,-0.1,0.1,0.1
1698415426597.0,16,0.0,0.0,0.0,-0.6000000000000001,9.5,-0.1,-0.1,0.1,0.30000000000000004
1698415426613.0,16,0.0,0.0,0.0,-0.6000000000000001,9.5,-0.1,-0.30000000000000004,0.0,0.4
1698415426629.0,16,0.0,0.0,0.0,-0.5,9.5,-0.1,-0.4,0.0,0.4
1698415426646.0,16,0.0,0.0,0.0,-0.5,9.5,-0.1,-0.30000000000000004,0.5,0.4
1698415426663.0,16,0.0,0.0,0.0,-0.5,9.600000000000001,-0.1,-0.5,0.6000000000000001,0.2
1698415426680.0,16,0.0,0.0,0.0,-0.6000000000000001,9.5,-0.1,-0.6000000000000001,0.6000000000000001,0.30000000000000004
1698415426696.0,16,0.0,0.0,0.0,-0.5,9.5,-0.1,-0.6000000000000001,0.30000000000000004,0.1
1698415426713.0,16,0.0,0.0,0.0,-0.5,9.5,-0.1,-0.7,0.2,0.2
1698415426729.0,16,0.0,0.0,0.0,-0.5,9.5,-0.1,-0.6000000000000001,0.2,0.1
1698415426746.0,16,0.0,0.0,0.0,-0.6000000000000001,9.5,-0.1,-0.6000000000000001,0.2,0.0
1698415426763.0,16,0.0,0.0,0.0,-0.5,9.5,-0.1,-0.5,0.0,0.2
1698415426780.0,16,0.0,0.0,0.0,-0.5,9.5,-0.1,-0.5,0.0,0.1
1698415426796.0,16,0.0,0.0,0.0,-0.5,9.5,-0.1,-0.5,0.2,0.0
1698415426813.0,16,0.0,0.0,0.0,-0.6000000000000001,9.5,-0.1,-0.30000000000000004,0.0,-0.2
1698415426830.0,16,0.0,0.0,0.0,-0.5,9.5,-0.1,-0.2,0.0,-0.1
1698415426846.0,16,0.0,0.0,0.0,-0.5,9.5,-0.1,-0.1,-0.2,-0.2
1698415426863.0,16,0.0,0.0,0.0,-0.5,9.5,0.0,0.0,0.0,-0.1
1698415426880.0,16,0.0,0.0,0.0,-0.5,9.5,-0.1,0.2,-0.1,-0.1
1698415426897.0,16,0.0,0.0,0.0,-0.5,9.5,-0.1,0.30000000000000004,0.2,-0.1
1698415426913.0,16,0.0,0.0,0.0,-0.6000000000000001,9.5,-0.1,0.30000000000000004,0.0,0.0
1698415426930.0,16,0.0,0.0,0.0,-0.6000000000000001,9.5,-0.1,0.2,-0.1,-0.1
1698415426946.0,16,0.0,0.0,0.0,-0.6000000000000001,9.5,-0.1,0.1,-0.1,0.0
1698415426963.0,16,0.0,0.0,0.0,-0.6000000000000001,9.5,-0.1,0.2,-0.1,-0.1
1698415426980.0,16,0.0,0.0,0.0,-0.6000000000000001,9.5,-0.1,0.2,0.0,-0.1
1698415426996.0,16,0.0,0.0,-0.1,-0.6000000000000001,9.5,-0.2,0.1,-0.1,0.0
1698415427013.0,16,0.0,0.0,0.0,-0.5,9.5,-0.1,0.0,0.0,0.1
1698415427030.0,16,0.0,0.0,0.0,-0.5,9.5,-0.1,0.2,0.0,0.1
1698415427046.0,16,0.0,0.0,0.0,-0.6000000000000001,9.5,-0.1,0.0,0.0,0.1
1698415427063.0,16,0.0,0.0,0.0,-0.6000000000000001,9.5,-0.1,-0.1,-0.2,0.0
1698415427080.0,16,0.0,0.0,0.1,-0.6000000000000001,9.5,0.0,0.0,-0.4,0.1
1698415427097.0,16,0.0,0.0,0.0,-0.5,9.5,-0.1,0.0,-0.2,0.2
1698415427113.0,16,0.0,0.0,0.0,-0.5,9.5,-0.1,-0.30000000000000004,-0.2,0.0
1698415427129.0,16,0.0,0.0,0.0,-0.5,9.5,-0.1,-0.5,-0.30000000000000004,0.0
1698415427146.0,16,0.0,0.0,0.0,-0.6000000000000001,9.600000000000001,-0.1,-0.30000000000000004,-0.2,0.0
1698415427163.0,16,0.0,0.0,0.0,-0.6000000000000001,9.5,-0.1,0.0,-0.30000000000000004,0.1
1698415427180.0,16,0.0,0.0,0.0,-0.6000000000000001,9.5,-0.1,0.0,-0.2,0.1
1698415427197.0,16,0.0,0.0,0.0,-0.6000000000000001,9.5,-0.1,0.0,-0.4,0.2
1698415427213.0,16,0.0,0.0,0.0,-0.5,9.5,-0.1,0.1,-0.5,0.2
1698415427230.0,16,0.0,0.0,0.0,-0.5,9.5,-0.1,0.2,-0.4,0.1
1698415427247.0,16,0.0,0.0,0.0,-0.5,9.5,-0.1,0.2,-0.2,-0.1
1698415427263.0,16,0.0,0.0,0.0,-0.5,9.600000000000001,-0.1,0.0,0.0,-0.1
1698415427280.0,16,0.0,0.0,0.0,-0.6000000000000001,9.600000000000001,-0.1,0.0,0.0,-0.2
1698415427296.0,16,0.0,0.0,0.0,-0.6000000000000001,9.5,-0.1,-0.5,-0.1,-0.2
1698415427313.0,16,0.0,0.0,0.0,-0.5,9.5,-0.1,-0.5,-0.30000000000000004,-0.2
1698415427329.0,16,0.0,0.0,0.0,-0.5,9.600000000000001,-0.1,-0.5,-0.1,-0.30000000000000004
1698415427346.0,16,0.0,0.0,0.0,-0.5,9.5,-0.1,-1.0,0.0,-0.4
1698415427363.0,16,0.0,0.0,-0.1,-0.6000000000000001,9.600000000000001,-0.2,-1.4,0.0,-0.5
1698415427379.0,16,0.0,0.1,-0.1,-0.6000000000000001,9.600000000000001,-0.2,-2.1,-0.30000000000000004,-0.5
1698415427396.0,16,0.0,0.1,0.0,-0.6000000000000001,9.600000000000001,-0.1,-2.5,-0.30000000000000004,-0.6000000000000001
1698415427413.0,16,0.0,0.0,-0.1,-0.5,9.600000000000001,-0.2,-2.8,-0.30000000000000004,-0.4
1698415427429.0,16,0.0,0.0,-0.1,-0.6000000000000001,9.600000000000001,-0.2,-3.3000000000000003,-0.2,-0.5
1698415427446.0,16,0.0,0.0,-0.1,-0.6000000000000001,9.600000000000001,-0.1,-3.7000000000000006,-0.1,-0.4
1698415427463.0,16,0.0,0.0,-0.1,-0.6000000000000001,9.600000000000001,-0.1,-4.3999999999999995,0.2,-0.2
1698415427480.0,16,0.0,0.0,-0.1,-0.6000000000000001,9.600000000000001,-0.2,-5.4,0.30000000000000004,-0.2
1698415427496.0,16,0.0,0.1,-0.1,-0.6000000000000001,9.600000000000001,-0.1,-5.9,0.30000000000000004,-0.4
1698415427513.0,16,0.0,0.0,-0.1,-0.6000000000000001,9.600000000000001,-0.1,-7.1000000000000005,0.2,-0.4
1698415427529.0,16,0.0,0.1,-0.1,-0.6000000000000001,9.600000000000001,-0.1,-7.8,0.30000000000000004,-0.2
1698415427547.0,16,0.0,0.1,-0.1,-0.6000000000000001,9.600000000000001,-0.1,-8.5,0.2,-0.2
1698415427564.0,16,0.0,0.1,-0.1,-0.6000000000000001,9.600000000000001,0.0,-9.700000000000001,0.2,-0.2
1698415427580.0,16,0.0,0.1,-0.1,-0.6000000000000001,9.600000000000001,-0.1,-11.3,0.2,-0.4
1698415427596.0,16,0.0,0.0,-0.2,-0.6000000000000001,9.600000000000001,-0.1,-12.200000000000001,0.1,-0.5
1698415427613.0,16,0.0,0.2,0.0,-0.6000000000000001,9.700000000000001,0.1,-14.3,-0.30000000000000004,-0.2
1698415427629.0,16,0.0,0.2,0.0,-0.5,9.8,0.1,-16.700000000000003,-1.3,0.0
1698415427646.0,16,0.1,0.1,-0.1,-0.5,9.700000000000001,0.1,-18.0,-1.0999999999999999,-0.4
1698415427663.0,16,0.0,0.1,-0.1,-0.5,9.700000000000001,0.2,-20.2,-0.5,-0.4
1698415427680.0,16,0.0,0.1,-0.1,-0.6000000000000001,9.700000000000001,0.2,-21.400000000000002,-0.30000000000000004,-0.1
1698415427696.0,16,0.0,0.2,-0.30000000000000004,-0.6000000000000001,9.700000000000001,0.0,-24.1,0.0,-0.1
1698415427713.0,16,0.0,0.1,-0.4,-0.6000000000000001,9.700000000000001,0.1,-27.7,1.2000000000000002,0.7
1698415427730.0,16,0.0,0.0,-0.4,-0.6000000000000001,9.600000000000001,0.1,-25.400000000000002,1.3,1.3
1698415427747.0,16,0.0,0.1,-0.4,-0.5,9.700000000000001,0.1,-26.0,1.0,1.5000000000000002
1698415427763.0,16,0.0,0.2,-0.30000000000000004,-0.6000000000000001,9.8,0.30000000000000004,-29.400000000000002,1.0999999999999999,1.7
1698415427780.0,16,-0.1,0.2,-0.4,-0.6000000000000001,9.8,0.30000000000000004,-31.900000000000002,0.6000000000000001,2.3000000000000003
1698415427796.0,16,-0.1,0.2,-0.4,-0.7000000000000001,9.8,0.4,-33.300000000000004,0.4,2.4000000000000004
1698415427814.0,16,-0.1,0.30000000000000004,-0.30000000000000004,-0.6000000000000001,9.9,0.5,-37.900000000000006,-0.30000000000000004,2.9
1698415427830.0,16,0.0,0.30000000000000004,-0.30000000000000004,-0.5,9.9,0.6000000000000001,-42.800000000000004,-0.4,3.2
1698415427846.0,16,0.0,0.30000000000000004,-0.30000000000000004,-0.6000000000000001,9.9,0.8,-45.2,-0.4,3.7000000000000006
1698415427864.0,16,-0.1,0.4,-0.30000000000000004,-0.6000000000000001,10.0,0.9,-50.1,0.0,4.800000000000001
1698415427880.0,16,-0.1,0.4,-0.6000000000000001,-0.6000000000000001,10.0,0.8,-57.9,0.2,5.500000000000001
1698415427897.0,16,-0.1,0.4,-0.7000000000000001,-0.6000000000000001,9.9,0.7000000000000001,-62.300000000000004,1.0999999999999999,5.4
1698415427913.0,16,-0.1,0.30000000000000004,-1.0,-0.6000000000000001,9.8,0.7000000000000001,-67.2,4.9,6.1000000000000005
1698415427930.0,16,-0.1,0.30000000000000004,-1.0,-0.6000000000000001,9.8,0.8,-68.0,5.4,7.400000000000001
1698415427946.0,16,-0.2,0.5,-1.2000000000000002,-0.6000000000000001,10.0,0.9,-72.30000000000001,5.300000000000001,7.6
1698415427963.0,16,-0.2,0.5,-1.2000000000000002,-0.6000000000000001,9.9,0.9,-74.10000000000001,5.1,7.300000000000001
1698415427980.0,16,-0.2,0.4,-1.3,-0.6000000000000001,9.9,1.0,-73.9,2.1,7.1000000000000005
1698415427997.0,16,-0.1,0.5,-1.3,-0.6000000000000001,9.9,1.2000000000000002,-73.30000000000001,-1.0999999999999999,6.3
1698415428013.0,16,0.0,0.5,-1.4000000000000001,-0.4,9.9,1.1,-73.10000000000001,-3.0000000000000004,5.6
1698415428030.0,16,0.1,0.6000000000000001,-1.5,-0.30000000000000004,10.0,1.3,-73.7,-5.9,3.9
1698415428046.0,16,0.30000000000000004,0.8,-1.4000000000000001,-0.2,9.9,1.4000000000000001,-73.30000000000001,-6.9,3.2
1698415428063.0,16,0.5,1.0,-1.4000000000000001,0.1,10.200000000000001,1.7000000000000002,-72.4,-6.000000000000001,-0.1
1698415428079.0,16,0.5,1.4000000000000001,-0.5,0.1,10.600000000000001,2.8000000000000003,-71.9,-5.9,-2.5
1698415428096.0,16,0.1,1.7000000000000002,-0.2,-0.30000000000000004,10.8,3.4000000000000004,-76.2,-1.6,-2.6
1698415428113.0,16,0.0,1.5,0.30000000000000004,-0.4,10.5,4.0,-77.80000000000001,-2.6,-2.3000000000000003
1698415428130.0,16,-0.30000000000000004,1.0,1.0,-0.6000000000000001,10.0,5.0,-84.60000000000001,-3.6,-1.8
1698415428146.0,16,0.0,0.7000000000000001,1.5,-0.2,9.200000000000001,6.300000000000001,-87.60000000000001,-3.7000000000000006,-1.3
1698415428163.0,16,0.4,0.4,2.4000000000000004,0.0,9.200000000000001,6.7,-87.7,2.9,-0.2
1698415428180.0,16,0.4,0.9,2.7,0.0,9.5,7.300000000000001,-81.30000000000001,6.4,0.5
1698415428196.0,16,0.1,0.6000000000000001,2.5,-0.30000000000000004,9.1,7.4,-72.30000000000001,8.3,-0.30000000000000004
1698415428213.0,16,0.0,0.5,2.6,-0.4,8.9,7.6000000000000005,-67.80000000000001,8.200000000000001,-1.3
1698415428229.0,16,0.1,0.4,2.7,-0.30000000000000004,8.700000000000001,7.9,-59.300000000000004,5.4,-2.8
1698415428246.0,16,0.0,0.6000000000000001,2.8000000000000003,-0.5,8.8,8.1,-51.0,1.0999999999999999,-2.3000000000000003
1698415428263.0,16,0.0,0.7000000000000001,2.7,-0.5,8.9,8.1,-47.0,0.0,-1.5000000000000002
1698415428279.0,16,0.30000000000000004,0.6000000000000001,2.3000000000000003,-0.2,8.8,7.9,-39.6,-0.8,-2.1
1698415428296.0,16,0.4,0.4,2.1,0.0,8.5,7.800000000000001,-33.6,-2.3000000000000003,-2.6
1698415428313.0,16,0.5,0.4,2.1,0.0,8.4,7.9,-30.4,-2.5,-2.6
1698415428330.0,16,0.4,0.4,1.9000000000000001,0.0,8.4,7.7,-24.5,-2.1,-1.8
1698415428346.0,16,0.4,0.1,1.6,0.0,8.1,7.5,-18.2,-2.4000000000000004,-1.5000000000000002
1698415428364.0,16,0.30000000000000004,0.0,1.4000000000000001,-0.1,7.9,7.4,-15.2,-2.7,-1.0999999999999999
1698415428380.0,16,0.30000000000000004,-0.30000000000000004,1.3,-0.1,7.6000000000000005,7.300000000000001,-8.5,-3.8,0.1
1698415428396.0,16,0.30000000000000004,-0.4,1.0,-0.1,7.5,7.2,-1.3,-5.8,1.3
1698415428413.0,16,0.4,-0.4,0.9,0.0,7.5,6.9,2.1,-6.7,1.8
1698415428430.0,16,0.5,-0.4,0.5,0.2,7.5,6.5,10.1,-7.0,2.6
1698415428447.0,16,0.7000000000000001,-0.5,0.30000000000000004,0.4,7.4,6.2,17.599999999999998,-7.0,3.0000000000000004
1698415428463.0,16,0.8,-0.6000000000000001,0.1,0.5,7.4,6.0,21.200000000000003,-6.000000000000001,2.6
1698415428480.0,16,0.8,-0.8,-0.30000000000000004,0.6000000000000001,7.2,5.5,29.200000000000003,-4.7,1.7
1698415428497.0,16,0.8,-1.0,-0.5,0.5,7.1000000000000005,5.2,35.9,-4.3999999999999995,-0.1
1698415428513.0,16,0.7000000000000001,-0.9,-0.6000000000000001,0.5,7.2,5.0,39.50000000000001,-4.1000000000000005,-1.0999999999999999
1698415428530.0,16,0.5,-1.1,-1.1,0.2,7.1000000000000005,4.4,46.1,-3.6,-2.7
1698415428546.0,16,0.4,-1.4000000000000001,-1.0,0.1,6.9,4.3,52.1,-4.800000000000001,-3.9
1698415428564.0,16,0.5,-1.5,-1.3,0.2,6.9,3.8000000000000003,58.800000000000004,-5.300000000000001,-6.1000000000000005
1698415428579.0,16,0.4,-1.6,-1.5,0.1,6.9,3.7,61.8,-6.7,-6.9
1698415428596.0,16,0.30000000000000004,-1.9000000000000001,-1.6,0.0,6.6000000000000005,3.3000000000000003,68.3,-11.2,-8.200000000000001
1698415428613.0,16,0.2,-2.1,-1.7000000000000002,-0.1,6.5,3.1,71.4,-13.5,-9.200000000000001
1698415428630.0,16,-0.2,-2.6,-1.7000000000000002,-0.5,6.1000000000000005,2.9000000000000004,77.2,-16.3,-11.3
1698415428646.0,16,-0.6000000000000001,-2.5,-1.8,-0.9,6.2,2.5,81.5,-20.3,-11.4
1698415428663.0,16,-0.8,-2.8000000000000003,-1.6,-1.1,6.1000000000000005,2.5,82.7,-21.1,-11.4
1698415428680.0,16,-0.8,-2.9000000000000004,-1.2000000000000002,-1.1,6.1000000000000005,2.7,84.80000000000001,-21.900000000000002,-11.2
1698415428697.0,16,-0.5,-2.5,-1.0,-0.9,6.5,2.7,85.3,-23.700000000000003,-11.2
1698415428713.0,16,-0.4,-2.3000000000000003,-0.8,-0.7000000000000001,7.1000000000000005,2.5,83.60000000000001,-23.2,-11.6
1698415428729.0,16,-0.2,-1.7000000000000002,-0.6000000000000001,-0.6000000000000001,7.4,2.7,75.0,-10.8,-13.4
1698415428747.0,16,0.6000000000000001,-1.4000000000000001,1.2000000000000002,0.2,7.800000000000001,4.2,58.60000000000001,9.700000000000001,-14.100000000000001
1698415428763.0,16,1.4000000000000001,-1.5,0.7000000000000001,0.6000000000000001,7.800000000000001,4.3,55.2,20.4,-13.6
1698415428780.0,16,1.4000000000000001,-1.7000000000000002,0.1,0.9,7.6000000000000005,2.8000000000000003,56.900000000000006,29.500000000000004,-10.2
1698415428797.0,16,-0.4,-2.3000000000000003,-1.0,-1.0,6.9,1.6,53.9,25.6,-11.000000000000002
1698415428813.0,16,-1.8,-2.0,-0.8,-2.4000000000000004,7.300000000000001,1.7000000000000002,41.5,21.200000000000003,-12.000000000000002
1698415428830.0,16,-2.0,-1.3,-0.7000000000000001,-2.6,8.0,1.7000000000000002,35.4,19.8,-11.4
1698415428847.0,16,-1.7000000000000002,0.1,0.1,-2.4000000000000004,9.4,2.4000000000000004,29.700000000000003,15.399999999999999,-12.8
1698415428863.0,16,-1.3,0.1,0.0,-2.1,9.4,2.2,29.300000000000004,16.0,-14.100000000000001
1698415428880.0,16,0.0,-0.4,-0.30000000000000004,-0.8,8.9,1.8,31.3,9.200000000000001,-12.3
1698415428896.0,16,0.5,-0.9,-0.7000000000000001,-0.30000000000000004,8.5,1.3,29.500000000000004,6.000000000000001,-6.5
1698415428913.0,16,0.5,-0.9,-0.4,-0.30000000000000004,8.4,1.4000000000000001,26.700000000000003,8.3,-4.300000000000001
1698415428930.0,16,0.4,-1.0,-0.4,-0.4,8.4,1.5,23.400000000000002,19.500000000000004,-2.6
1698415428946.0,16,0.1,-1.2000000000000002,-0.6000000000000001,-0.8,8.200000000000001,1.2000000000000002,23.0,30.599999999999998,-2.3000000000000003
1698415428963.0,16,-0.5,-1.4000000000000001,-1.2000000000000002,-1.1,8.1,0.8,22.900000000000002,33.6,-2.1
1698415428980.0,16,-0.7000000000000001,-1.6,-1.1,-1.6,7.800000000000001,0.5,22.4,31.6,0.1
1698415428996.0,16,-1.1,-1.8,-1.3,-2.0,7.6000000000000005,0.2,21.8,26.400000000000002,3.2
1698415429012.0,16,-1.1,-1.7000000000000002,-1.5,-2.0,7.7,0.0,21.1,20.1,6.1000000000000005
1698415429029.0,16,-1.0,-1.9000000000000001,-1.4000000000000001,-1.9000000000000001,7.4,0.0,20.4,16.5,7.400000000000001
1698415429046.0,16,-0.7000000000000001,-1.4000000000000001,-1.3,-1.6,8.0,0.0,16.3,13.200000000000001,10.1
1698415429062.0,16,-0.5,-0.4,-1.1,-1.4000000000000001,9.0,0.2,19.8,9.5,10.3
1698415429080.0,16,-0.4,-0.6000000000000001,-1.1,-1.3,8.8,0.2,22.6,8.5,11.4
1698415429097.0,16,-0.5,-0.8,-1.4000000000000001,-1.3,8.6,-0.30000000000000004,26.0,4.3999999999999995,12.700000000000001
1698415429113.0,16,-0.6000000000000001,-0.2,-1.5,-1.4000000000000001,9.200000000000001,-0.4,24.3,-0.30000000000000004,12.000000000000002
1698415429129.0,16,-0.5,0.1,-1.1,-1.3,9.5,-0.1,21.8,0.5,11.000000000000002
1698415429146.0,16,-0.5,0.30000000000000004,-1.1,-1.2000000000000002,9.700000000000001,-0.1,16.6,8.200000000000001,8.1
1698415429163.0,16,-0.9,1.8,-1.7000000000000002,-1.7000000000000002,11.3,-0.8,11.5,13.5,7.300000000000001
1698415429180.0,16,-1.4000000000000001,2.1,-2.0,-2.6,11.5,-1.6,12.4,5.300000000000001,5.500000000000001
1698415429196.0,16,-2.1,2.0,-2.8000000000000003,-2.9000000000000004,11.4,-2.0,14.200000000000001,-3.2,5.1
1698415429213.0,16,-1.9000000000000001,2.1,-3.0,-2.7,11.5,-2.3000000000000003,17.599999999999998,-20.4,3.4
1698415429229.0,16,-1.0,3.2,-1.4000000000000001,-1.7000000000000002,12.700000000000001,-0.7000000000000001,10.5,-27.3,1.0
1698415429246.0,16,1.6,5.5,1.9000000000000001,0.9,15.0,2.6,2.4000000000000004,-18.6,-8.4
1698415429263.0,16,1.5,2.0,-1.8,0.7000000000000001,11.600000000000001,-1.3,45.6,18.2,-3.3000000000000003
1698415429281.0,16,-0.7000000000000001,0.6000000000000001,-1.9000000000000001,-1.5,10.200000000000001,-1.4000000000000001,46.5,-3.6,-5.4
1698415429296.0,16,-1.6,2.5,-0.1,-2.4000000000000004,12.100000000000001,0.30000000000000004,27.7,-30.5,-9.3
1698415429313.0,16,0.2,2.0,1.9000000000000001,-0.6000000000000001,11.600000000000001,2.2,29.000000000000004,-49.6,-2.9
1698415429330.0,16,1.3,0.9,2.0,0.5,10.5,2.3000000000000003,24.1,-45.2,-4.1000000000000005
1698415429347.0,16,1.1,-0.4,3.2,0.30000000000000004,9.200000000000001,3.5,10.2,-44.8,-7.699999999999999
1698415429363.0,16,-0.2,0.6000000000000001,2.9000000000000004,-1.0,10.3,3.2,5.6,-33.800000000000004,-4.800000000000001
1698415429381.0,16,-0.5,1.1,2.8000000000000003,-1.3,10.700000000000001,3.1,3.5,-29.1,-4.0
1698415429396.0,16,0.2,0.7000000000000001,2.6,-0.6000000000000001,10.4,2.9000000000000004,1.6,-17.200000000000003,-1.6
1698415429413.0,16,0.9,0.2,2.0,0.1,9.8,2.3000000000000003,4.2,-4.7,1.6
1698415429429.0,16,1.0,-0.1,1.5,0.2,9.600000000000001,1.8,5.4,-0.9,4.5
1698415429447.0,16,0.5,-0.2,1.3,-0.30000000000000004,9.4,1.7000000000000002,4.7,-0.9,13.700000000000001
1698415429463.0,16,0.1,-0.2,1.1,-0.6000000000000001,9.5,1.4000000000000001,4.9,-1.5000000000000002,19.500000000000004
1698415429480.0,16,0.1,-0.7000000000000001,0.6000000000000001,-0.6000000000000001,9.0,0.9,4.9,-5.0,28.6
1698415429497.0,16,0.30000000000000004,-1.5,0.5,-0.30000000000000004,8.200000000000001,0.8,5.7,-8.4,30.7
1698415429513.0,16,0.30000000000000004,-2.1,0.4,-0.2,7.6000000000000005,0.7000000000000001,6.4,-6.5,28.700000000000003
1698415429529.0,16,0.5,-2.4000000000000004,0.0,0.1,7.2,0.30000000000000004,4.9,-2.8,24.8
1698415429546.0,16,0.7000000000000001,-2.6,0.1,0.4,7.1000000000000005,0.30000000000000004,2.7,-1.8,22.8
1698415429563.0,16,1.0,-2.5,0.1,0.8,7.1000000000000005,0.30000000000000004,-0.1,-1.0999999999999999,17.1
1698415429579.0,16,1.0,-2.1,0.1,0.9,7.5,0.4,-2.1999999999999997,3.5,14.3
1698415429596.0,16,1.0,-2.1,0.1,0.8,7.5,0.4,-1.9,4.300000000000001,12.3
1698415429613.0,16,0.7000000000000001,-2.2,-0.4,0.6000000000000001,7.4,-0.1,-1.7,6.9,7.0
1698415429630.0,16,0.6000000000000001,-1.8,-0.5,0.5,7.7,-0.2,-3.4,8.1,1.8
1698415429646.0,16,0.5,-1.6,-0.6000000000000001,0.30000000000000004,7.9,-0.30000000000000004,-3.2,7.300000000000001,-0.9
1698415429663.0,16,0.2,-1.6,-0.8,0.0,7.9,-0.5,-0.7,6.4,-6.8
1698415429680.0,16,0.4,-1.8,-1.0,0.1,7.800000000000001,-0.6000000000000001,2.1,6.4,-9.0
1698415429696.0,16,0.5,-1.9000000000000001,-1.2000000000000002,0.30000000000000004,7.6000000000000005,-0.9,11.1,6.7,-13.8
1698415429713.0,16,0.5,-2.0,-1.9000000000000001,0.30000000000000004,7.4,-1.7000000000000002,21.8,12.6,-18.1
1698415429730.0,16,0.4,-1.7000000000000002,-2.4000000000000004,0.2,7.7,-2.2,24.5,18.5,-18.6
1698415429746.0,16,0.7000000000000001,-0.7000000000000001,-2.4000000000000004,0.30000000000000004,8.700000000000001,-2.4000000000000004,22.000000000000004,27.6,-14.3
1698415429763.0,16,0.7000000000000001,0.5,-1.2000000000000002,0.30000000000000004,9.9,-1.2000000000000002,15.2,20.1,-5.300000000000001
1698415429780.0,16,0.6000000000000001,1.1,-0.7000000000000001,0.2,10.600000000000001,-0.7000000000000001,10.9,9.3,1.5000000000000002
1698415429797.0,16,-0.1,2.2,-1.0,-0.4,11.700000000000001,-1.1,5.2,-16.8,12.8
1698415429813.0,16,-0.8,2.1,-3.1,-1.1,11.600000000000001,-3.2,9.3,-11.4,1.0
1698415429829.0,16,-0.1,5.1000000000000005,1.4000000000000001,-0.4,14.600000000000001,1.3,-23.5,18.2,0.6000000000000001
1698415429846.0,16,-0.6000000000000001,6.800000000000001,4.9,-0.9,16.3,4.800000000000001,-19.0,18.7,6.6000000000000005
1698415429863.0,16,-1.2000000000000002,3.5,-1.8,-1.4000000000000001,13.100000000000001,-1.9000000000000001,36.2,-47.6,18.1
1698415429879.0,16,1.8,1.2000000000000002,0.30000000000000004,1.7000000000000002,10.8,0.1,12.200000000000001,-7.500000000000001,19.400000000000002
1698415429896.0,16,2.5,0.5,1.9000000000000001,2.3000000000000003,10.100000000000001,1.7000000000000002,13.6,2.1,19.700000000000003
1698415429913.0,16,2.4000000000000004,0.5,0.7000000000000001,2.3000000000000003,10.100000000000001,0.4,16.700000000000003,19.0,3.7000000000000006
1698415429929.0,16,0.30000000000000004,1.5,3.3000000000000003,0.30000000000000004,11.100000000000001,3.0,4.6000000000000005,33.7,1.2000000000000002
1698415429948.0,16,-0.30000000000000004,1.8,2.9000000000000004,-0.4,11.4,2.6,4.2,26.200000000000003,1.2000000000000002
1698415429963.0,16,-0.4,1.5,2.4000000000000004,-0.5,11.200000000000001,2.1,3.1,29.400000000000002,-6.3
1698415429979.0,16,0.7000000000000001,1.0,2.7,0.6000000000000001,10.600000000000001,2.4000000000000004,-0.30000000000000004,37.2,-10.600000000000001
1698415429998.0,16,0.8,0.8,1.9000000000000001,0.5,10.3,1.3,-0.1,33.2,-13.6
1698415430013.0,16,0.5,0.5,1.5,0.4,10.100000000000001,1.3,1.7,13.5,-12.3
1698415430029.0,16,0.4,0.7000000000000001,1.1,0.2,10.4,0.9,2.1999999999999997,0.4,-11.3
1698415430046.0,16,0.30000000000000004,0.7000000000000001,0.9,0.0,10.4,0.7000000000000001,1.6,-1.6,-14.600000000000001
1698415430063.0,16,-0.2,-0.1,0.9,-0.5,9.600000000000001,0.7000000000000001,-0.6000000000000001,3.7000000000000006,-24.5
1698415430080.0,16,-0.5,-1.0,0.9,-0.9,8.700000000000001,0.7000000000000001,-2.8,11.6,-31.2
1698415430096.0,16,-0.6000000000000001,-1.2000000000000002,0.8,-1.1,8.4,0.6000000000000001,-3.3000000000000003,14.0,-33.5
1698415430113.0,16,-0.7000000000000001,-1.7000000000000002,0.4,-1.3,8.0,0.2,-3.7000000000000006,14.3,-33.800000000000004
1698415430129.0,16,-0.9,-2.2,0.5,-1.6,7.4,0.30000000000000004,-4.1000000000000005,6.9,-28.6
1698415430146.0,16,-0.9,-2.8000000000000003,0.5,-1.6,6.800000000000001,0.4,-2.5,1.5000000000000002,-21.3
1698415430163.0,16,-0.8,-3.0,0.5,-1.6,6.5,0.30000000000000004,-2.0,0.2,-17.8
1698415430180.0,16,-0.8,-3.1,0.4,-1.6,6.4,0.2,-2.0,-5.2,-11.5
1698415430196.0,16,-0.7000000000000001,-2.9000000000000004,0.4,-1.6,6.5,0.30000000000000004,-0.8,-9.4,-6.5
1698415430213.0,16,-0.6000000000000001,-2.7,0.30000000000000004,-1.5,6.800000000000001,0.2,0.8,-8.9,-4.9
1698415430230.0,16,-0.5,-2.5,-0.30000000000000004,-1.4000000000000001,7.0,-0.4,4.300000000000001,-10.3,-0.4
1698415430246.0,16,-0.30000000000000004,-2.4000000000000004,-0.5,-1.2000000000000002,7.1000000000000005,-0.6000000000000001,6.2,-11.700000000000001,2.6
1698415430263.0,16,-0.4,-2.3000000000000003,-0.8,-1.2000000000000002,7.1000000000000005,-1.0,12.200000000000001,-13.100000000000001,6.2
1698415430281.0,16,-0.5,-2.3000000000000003,-1.5,-1.3,7.1000000000000005,-1.7000000000000002,17.8,-16.5,10.700000000000001
1698415430296.0,16,-0.5,-2.2,-1.9000000000000001,-1.4000000000000001,7.2,-2.2,19.8,-20.900000000000002,13.5
1698415430313.0,16,-0.8,-2.0,-1.7000000000000002,-1.6,7.4,-2.1,21.900000000000002,-32.1,19.200000000000003
1698415430329.0,16,-1.3,-1.5,-1.5,-2.0,7.9,-1.9000000000000001,22.1,-39.300000000000004,20.8
1698415430346.0,16,-1.2000000000000002,-0.30000000000000004,-0.9,-1.9000000000000001,9.1,-1.4000000000000001,18.900000000000002,-42.6,17.3
1698415430363.0,16,-0.8,0.30000000000000004,-0.30000000000000004,-1.5,9.700000000000001,-0.8,15.399999999999999,-39.00000000000001,12.100000000000001
1698415430380.0,16,0.4,0.8,0.30000000000000004,-0.2,10.200000000000001,-0.2,7.400000000000001,-17.400000000000002,-0.7
1698415430396.0,16,1.6,0.7000000000000001,-1.8,1.0,10.100000000000001,-2.3000000000000003,9.8,-2.5,2.4000000000000004
1698415430412.0,16,1.5,0.8,-3.1,0.8,10.200000000000001,-3.7,14.800000000000002,-8.3,6.7
1698415430429.0,16,-1.0,2.9000000000000004,-4.0,-1.7000000000000002,12.3,-4.7,25.8,-35.9,7.400000000000001
1698415430446.0,16,-1.5,8.0,-0.4,-2.2,17.400000000000002,-1.2000000000000002,8.5,-41.300000000000004,-10.700000000000001
1698415430463.0,16,-0.2,6.800000000000001,0.1,-0.9,16.3,-0.7000000000000001,17.9,-9.3,-14.3
1698415430480.0,16,1.9000000000000001,1.9000000000000001,0.5,1.2000000000000002,11.5,-0.4,27.5,16.1,-18.2
1698415430496.0,16,-1.1,1.3,0.9,-2.0,10.9,-0.1,18.5,-18.0,-26.8
1698415430513.0,16,-1.6,2.1,2.7,-2.5,11.600000000000001,1.8,8.9,-30.299999999999997,-21.900000000000002
1698415430530.0,16,0.1,4.3,4.800000000000001,-0.8,13.9,3.9000000000000004,-14.900000000000002,-52.800000000000004,-12.8
1698415430546.0,16,2.5,3.0,4.1000000000000005,1.6,12.600000000000001,3.3000000000000003,0.6000000000000001,-56.2,-5.4
1698415430563.0,16,1.6,2.7,2.3000000000000003,0.6000000000000001,12.200000000000001,1.5,3.9,-51.800000000000004,-5.6
1698415430580.0,16,-0.2,2.9000000000000004,3.5,-1.2000000000000002,12.5,2.8000000000000003,-5.8,-45.1,-10.0
1698415430597.0,16,0.7000000000000001,1.6,3.4000000000000004,-0.4,11.200000000000001,2.8000000000000003,-6.000000000000001,-18.8,-9.200000000000001
1698415430613.0,16,1.1,0.8,2.8000000000000003,0.1,10.4,2.2,-5.300000000000001,-5.8,-6.6000000000000005
1698415430630.0,16,0.7000000000000001,0.4,2.0,-0.4,10.0,1.4000000000000001,-7.300000000000001,4.7,-0.5
1698415430646.0,16,-0.1,0.1,1.2000000000000002,-1.1,9.8,0.6000000000000001,-6.7,11.2,9.4
1698415430663.0,16,-0.2,-0.4,1.0,-1.2000000000000002,9.200000000000001,0.4,-6.8,11.1,15.299999999999999
1698415430680.0,16,0.1,-1.5,1.1,-0.8,8.200000000000001,0.5,-7.8,8.200000000000001,26.1
1698415430696.0,16,0.6000000000000001,-2.1,1.0,-0.2,7.5,0.5,-6.7,4.300000000000001,33.7
1698415430714.0,16,0.9,-2.4000000000000004,0.9,0.1,7.300000000000001,0.4,-5.2,4.2,34.50000000000001
1698415430730.0,16,1.2000000000000002,-2.5,0.6000000000000001,0.5,7.1000000000000005,0.1,-3.5,9.9,31.4
1698415430747.0,16,1.1,-2.9000000000000004,0.6000000000000001,0.5,6.7,0.2,-2.5,17.9,22.6
1698415430763.0,16,0.8,-3.0,0.5,0.30000000000000004,6.6000000000000005,0.1,-1.2000000000000002,20.7,18.400000000000002
1698415430782.0,16,0.30000000000000004,-2.9000000000000004,0.2,-0.2,6.6000000000000005,-0.30000000000000004,0.2,21.400000000000002,12.100000000000001
1698415430796.0,16,0.2,-2.5,-0.1,-0.2,7.0,-0.6000000000000001,0.0,20.900000000000002,7.8
1698415430813.0,16,0.4,-2.2,-0.1,0.30000000000000004,7.5,-0.5,-0.1,21.700000000000003,5.4
1698415430830.0,16,0.9,-1.9000000000000001,0.0,0.6000000000000001,7.6000000000000005,-0.5,-0.5,25.0,-0.7
1698415430846.0,16,1.1,-1.6,0.0,0.7000000000000001,7.9,-0.5,-1.5000000000000002,31.6,-7.8
1698415430863.0,16,1.2000000000000002,-1.4000000000000001,-0.1,0.8,8.1,-0.5,-2.1999999999999997,35.4,-11.000000000000002
1698415430879.0,16,0.9,-1.3,0.0,0.4,8.200000000000001,-0.5,0.30000000000000004,41.6,-16.2
1698415430901.0,16,0.7000000000000001,-1.2000000000000002,-0.8,0.2,8.200000000000001,-1.3,6.5,49.8,-19.700000000000003
1698415430913.0,16,0.7000000000000001,-1.2000000000000002,-1.1,0.2,8.3,-1.6,9.1,54.2,-20.2
1698415430930.0,16,0.9,-0.9,-1.3,0.4,8.5,-1.8,15.399999999999999,64.30000000000001,-18.900000000000002
1698415430946.0,16,1.1,-1.0,-1.2000000000000002,0.5,8.4,-1.9000000000000001,25.400000000000002,70.0,-17.0
1698415430963.0,16,1.0,-0.9,-1.5,0.4,8.5,-2.2,29.600000000000005,73.0,-16.1
1698415430980.0,16,0.4,-0.6000000000000001,-1.4000000000000001,-0.2,8.8,-2.3000000000000003,27.6,70.6,-11.1
1698415430996.0,16,-0.8,0.5,-0.2,-1.4000000000000001,9.9,-1.2000000000000002,15.8,52.7,2.9
1698415431013.0,16,-1.1,1.1,-0.1,-1.7000000000000002,10.5,-1.1,15.399999999999999,25.900000000000002,9.3
1698415431029.0,16,-0.8,0.6000000000000001,-0.7000000000000001,-1.3,10.0,-1.7000000000000002,24.5,24.7,4.800000000000001
1698415431046.0,16,2.0,0.6000000000000001,-2.7,1.5,10.0,-3.9000000000000004,39.9,45.5,-2.1
1698415431062.0,16,-0.30000000000000004,6.2,-2.2,-0.8,15.700000000000001,-3.5,-1.7,79.39999999999999,14.500000000000002
1698415431079.0,16,-3.6,6.0,1.3,-4.0,15.4,0.1,-4.300000000000001,69.10000000000001,24.7
1698415431096.0,16,-3.8000000000000003,1.4000000000000001,4.1000000000000005,-4.2,10.8,2.8000000000000003,23.0,20.1,34.800000000000004
1698415431112.0,16,2.9000000000000004,0.2,0.4,2.6,9.600000000000001,-1.0,24.8,29.200000000000003,23.700000000000003
1698415431129.0,16,4.1000000000000005,-0.1,0.7000000000000001,3.9000000000000004,9.4,-0.7000000000000001,15.2,36.5,9.5
1698415431146.0,16,2.9000000000000004,2.4000000000000004,1.8,2.8000000000000003,11.9,0.5,-9.600000000000001,69.3,-2.1
1698415431162.0,16,-3.3000000000000003,6.300000000000001,5.6000000000000005,-3.4000000000000004,15.8,4.3,-31.5,86.3,9.5
1698415431179.0,16,-6.1000000000000005,5.6000000000000005,6.6000000000000005,-6.2,15.200000000000001,5.4,-24.6,83.2,10.4
1698415431196.0,16,-2.4000000000000004,1.0,2.0,-2.5,10.5,0.8,-4.7,74.30000000000001,6.9
1698415431213.0,16,1.9000000000000001,1.3,2.3000000000000003,1.9000000000000001,10.9,1.2000000000000002,-19.700000000000003,71.7,0.30000000000000004
1698415431229.0,16,2.1,1.8,2.4000000000000004,2.1,11.5,1.4000000000000001,-20.8,66.9,-2.7
1698415431246.0,16,0.5,1.4000000000000001,1.9000000000000001,0.5,11.0,1.0,-18.3,53.6,-6.4
1698415431263.0,16,-0.2,0.9,2.5,-0.2,10.5,1.6,-21.1,62.300000000000004,-9.5
1698415431279.0,16,0.1,0.5,2.3000000000000003,0.1,10.200000000000001,1.5,-21.3,74.89999999999999,-11.3
1698415431296.0,16,0.30000000000000004,-0.7000000000000001,1.7000000000000002,0.30000000000000004,8.9,1.0,-21.400000000000002,102.7,-16.1
1698415431313.0,16,-0.2,-1.8,1.2000000000000002,-0.30000000000000004,7.9,0.6000000000000001,-24.400000000000002,122.50000000000001,-18.400000000000002
1698415431329.0,16,-0.5,-1.9000000000000001,1.2000000000000002,-0.6000000000000001,7.7,0.6000000000000001,-25.6,126.60000000000001,-17.0
1698415431346.0,16,-0.9,-1.7000000000000002,1.0,-1.0,7.9,0.5,-26.0,125.2,-13.100000000000001
1698415431363.0,16,-1.1,-1.6,0.9,-1.2000000000000002,8.0,0.5,-24.3,121.0,-10.3
1698415431380.0,16,-1.2000000000000002,-1.7000000000000002,0.9,-1.3,8.0,0.5,-23.0,120.2,-9.9
1698415431396.0,16,-1.2000000000000002,-1.9000000000000001,1.0,-1.4000000000000001,7.7,0.7000000000000001,-20.3,121.6,-10.5
1698415431412.0,16,-1.6,-1.9000000000000001,0.30000000000000004,-1.8,7.7,0.1,-17.7,126.0,-9.9
1698415431429.0,16,-2.0,-1.5,0.4,-2.2,8.0,0.2,-15.299999999999999,126.89999999999999,-7.1000000000000005
1698415431446.0,16,-2.2,-1.4000000000000001,0.30000000000000004,-2.4000000000000004,8.1,0.1,-13.5,127.00000000000001,-4.300000000000001
1698415431463.0,16,-2.3000000000000003,-1.2000000000000002,0.30000000000000004,-2.6,8.4,0.1,-10.2,123.19999999999999,3.0000000000000004
1698415431479.0,16,-2.4000000000000004,-1.0,0.2,-2.5,8.700000000000001,0.1,-7.8,119.8,6.3
1698415431496.0,16,-2.1,-0.9,0.30000000000000004,-2.3000000000000003,8.6,0.1,-2.0,114.00000000000001,13.6
1698415431513.0,16,-1.9000000000000001,-1.0,-0.2,-2.1,8.5,-0.30000000000000004,5.8,108.4,18.3
1698415431530.0,16,-1.7000000000000002,-1.0,-0.1,-1.7000000000000002,8.6,-0.30000000000000004,8.600000000000001,108.7,19.700000000000003
1698415431546.0,16,-1.5,-0.9,0.0,-1.6,8.6,-0.2,12.200000000000001,114.3,21.5
1698415431563.0,16,-1.0,-1.0,-0.1,-1.4000000000000001,8.6,-0.1,15.399999999999999,121.5,27.8
1698415431580.0,16,-0.8,-1.1,-0.5,-0.8,8.4,-0.8,16.900000000000002,120.2,32.7
1698415431596.0,16,-1.0,-0.8,-0.9,-0.8,8.700000000000001,-1.3,18.900000000000002,110.0,42.1
1698415431613.0,16,-1.6,-0.2,-1.0,-1.0,9.0,-1.3,19.8,102.10000000000001,44.8
1698415431632.0,16,-2.4000000000000004,-0.1,-0.9,-1.9000000000000001,9.4,-1.4000000000000001,21.200000000000003,77.7,41.1
1698415431646.0,16,-2.9000000000000004,-0.2,-0.9,-2.4000000000000004,9.200000000000001,-1.4000000000000001,21.900000000000002,70.8,37.1
1698415431663.0,16,-3.3000000000000003,-0.4,-1.1,-2.7,9.0,-1.7000000000000002,24.5,57.3,32.4
1698415431680.0,16,-2.6,0.0,-0.8,-2.0,9.4,-1.5,22.4,48.6,31.099999999999998
1698415431697.0,16,-1.0,2.1,1.7000000000000002,-0.30000000000000004,11.5,1.0,11.1,47.800000000000004,21.8
1698415431714.0,16,-0.4,3.4000000000000004,2.5,0.4,12.8,1.8,7.0,70.8,15.9
1698415431730.0,16,0.9,3.2,1.5,1.7000000000000002,12.700000000000001,0.8,14.4,60.300000000000004,12.700000000000001
1698415431746.0,16,0.2,1.5,1.7000000000000002,1.1,11.0,1.0,19.400000000000002,65.5,5.2
1698415431763.0,16,-3.1,-0.9,0.7000000000000001,-2.2,8.6,0.0,21.400000000000002,73.60000000000001,-4.2
1698415431779.0,16,-2.7,-0.4,0.6000000000000001,-1.8,9.1,-0.1,6.1000000000000005,90.30000000000001,-3.7000000000000006
1698415431796.0,16,-1.8,0.1,1.4000000000000001,-0.9,9.5,0.7000000000000001,0.0,97.4,-3.2
1698415431813.0,16,0.30000000000000004,0.9,1.9000000000000001,1.2000000000000002,10.4,1.3,-1.8,116.2,2.6
1698415431829.0,16,1.1,1.1,1.7000000000000002,2.1,10.600000000000001,1.0,3.0000000000000004,125.4,11.000000000000002
1698415431846.0,16,1.7000000000000002,0.8,1.2000000000000002,2.7,10.3,0.6000000000000001,6.9,127.80000000000001,13.4
1698415431863.0,16,0.9,0.6000000000000001,0.9,2.0,10.100000000000001,0.4,10.9,141.3,12.3
1698415431879.0,16,-0.1,0.2,0.0,1.0,9.700000000000001,-0.5,12.4,157.20000000000002,7.1000000000000005
1698415431896.0,16,-0.30000000000000004,0.1,0.0,0.9,9.600000000000001,-0.5,11.5,163.1,7.1000000000000005
1698415431913.0,16,-0.30000000000000004,-0.30000000000000004,0.2,0.9,9.200000000000001,-0.30000000000000004,11.1,173.4,7.400000000000001
1698415431930.0,16,0.1,-0.4,-0.1,1.3,9.0,-0.6000000000000001,11.8,188.2,11.000000000000002
1698415431947.0,16,0.30000000000000004,-0.30000000000000004,-0.2,1.6,9.1,-0.7000000000000001,11.8,196.8,13.700000000000001
1698415431963.0,16,0.4,-0.4,-0.5,1.8,9.1,-0.9,12.4,207.10000000000002,16.400000000000002
1698415431979.0,16,0.0,-0.5,-0.6000000000000001,1.5,9.0,-0.9,13.5,214.00000000000003,17.0
1698415431997.0,16,-0.30000000000000004,-0.4,-0.7000000000000001,1.2000000000000002,9.0,-1.0,14.0,218.4,16.2
1698415432013.0,16,-0.8,-0.2,-0.8,0.8,9.200000000000001,-1.1,15.399999999999999,225.4,13.8
1698415432030.0,16,-1.4000000000000001,0.0,-0.9,0.2,9.4,-1.0,15.7,230.6,10.600000000000001
1698415432047.0,16,-1.6,0.1,-0.9,0.1,9.5,-1.0,16.3,231.5,11.4
1698415432064.0,16,-1.6,0.4,-1.2000000000000002,0.1,9.8,-1.2000000000000002,17.9,230.30000000000004,13.9
1698415432079.0,16,-2.0,0.4,-1.2000000000000002,-0.1,9.8,-1.3,18.2,221.00000000000003,13.6
1698415432096.0,16,-2.2,0.30000000000000004,-1.3,-0.5,9.700000000000001,-1.2000000000000002,18.1,215.1,13.0
1698415432113.0,16,-2.6,0.1,-1.3,-0.8,9.5,-1.2000000000000002,15.9,202.1,11.2
1698415432129.0,16,-2.8000000000000003,0.1,-1.3,-1.1,9.4,-1.2000000000000002,12.200000000000001,185.7,8.700000000000001
1698415432146.0,16,-3.0,0.2,-1.3,-1.3,9.600000000000001,-1.2000000000000002,10.700000000000001,177.0,8.1
1698415432163.0,16,-3.1,0.2,-1.4000000000000001,-1.4000000000000001,9.600000000000001,-1.1,9.200000000000001,156.6,8.4
1698415432180.0,16,-3.0,0.0,-1.4000000000000001,-1.3,9.4,-1.1,7.8,137.20000000000002,8.4
1698415432198.0,16,-2.7,-0.2,-1.4000000000000001,-1.1,9.1,-1.0,5.9,119.4,7.8
1698415432213.0,16,-2.5,-0.30000000000000004,-1.4000000000000001,-0.8,9.0,-1.1,5.1,111.10000000000001,6.7
1698415432229.0,16,-2.1,-0.4,-1.5,-0.5,9.0,-1.1,4.5,96.7,4.2
1698415432246.0,16,-2.1,-0.4,-1.4000000000000001,-0.4,8.9,-1.0,4.7,89.30000000000001,2.3000000000000003
1698415432263.0,16,-2.2,-0.30000000000000004,-1.4000000000000001,-0.4,8.9,-0.9,5.9,82.7,0.4
1698415432281.0,16,-2.5,-0.30000000000000004,-1.6,-0.9,9.1,-1.2000000000000002,11.2,64.60000000000001,-5.1
1698415432297.0,16,-2.4000000000000004,-0.30000000000000004,-1.9000000000000001,-0.8,9.0,-1.5,13.200000000000001,58.800000000000004,-6.8
1698415432313.0,16,-1.9000000000000001,-0.30000000000000004,-2.1,-0.4,9.1,-1.7000000000000002,10.9,54.2,-9.4
1698415432330.0,16,-1.6,-0.30000000000000004,-1.2000000000000002,-0.2,9.1,-0.8,7.6,55.1,-12.200000000000001
1698415432346.0,16,-1.7000000000000002,-0.2,-1.0,-0.4,9.200000000000001,-0.7000000000000001,8.200000000000001,57.3,-13.5
1698415432363.0,16,-1.9000000000000001,-0.1,-1.1,-0.6000000000000001,9.3,-0.7000000000000001,10.3,63.50000000000001,-16.1
1698415432381.0,16,-2.2,0.0,-1.5,-1.0,9.4,-1.2000000000000002,12.9,71.8,-16.900000000000002
1698415432396.0,16,-2.3000000000000003,0.0,-1.7000000000000002,-1.1,9.4,-1.4000000000000001,14.200000000000001,76.60000000000001,-17.3
1698415432413.0,16,-2.1,0.9,-1.8,-1.0,10.3,-1.5,14.500000000000002,83.30000000000001,-17.5
1698415432429.0,16,-2.9000000000000004,3.8000000000000003,0.30000000000000004,-1.9000000000000001,13.3,0.5,5.7,78.80000000000001,-15.000000000000002
1698415432446.0,16,-4.1000000000000005,2.7,0.2,-3.1,12.100000000000001,0.5,17.5,55.6,-9.8
1698415432464.0,16,-3.2,0.0,-1.4000000000000001,-2.3000000000000003,9.5,-1.1,20.6,48.300000000000004,-9.600000000000001
1698415432480.0,16,-0.9,1.4000000000000001,1.2000000000000002,0.0,10.9,1.4000000000000001,0.4,41.9,-5.2
1698415432496.0,16,-0.5,2.4000000000000004,1.0,0.4,11.9,1.3,1.9,46.4,-3.8
1698415432515.0,16,0.30000000000000004,2.2,0.1,1.2000000000000002,11.700000000000001,0.4,8.9,49.3,-2.4000000000000004
1698415432529.0,16,0.6000000000000001,1.9000000000000001,1.1,1.5,11.4,1.3,6.4,57.5,-1.0
1698415432546.0,16,0.5,1.6,1.9000000000000001,1.4000000000000001,11.200000000000001,2.2,2.1999999999999997,62.6,-1.3
1698415432563.0,16,-0.5,0.8,2.8000000000000003,0.4,10.4,3.1,-3.7000000000000006,70.7,-7.0
1698415432580.0,16,-1.0,0.1,3.0,-0.2,9.600000000000001,3.4000000000000004,-4.7,80.5,-11.8
1698415432596.0,16,-0.4,-0.5,1.9000000000000001,0.4,9.1,2.3000000000000003,-0.5,90.4,-14.0
1698415432614.0,16,-0.1,-0.7000000000000001,1.2000000000000002,0.6000000000000001,8.9,1.6,1.8,93.0,-15.000000000000002
1698415432630.0,16,-0.6000000000000001,-1.1,0.4,0.1,8.5,0.9,4.6000000000000005,88.8,-14.4
1698415432646.0,16,-1.3,-1.2000000000000002,-0.1,-0.7000000000000001,8.4,0.4,5.2,76.60000000000001,-10.9
1698415432663.0,16,-1.3,-0.9,0.1,-0.8,8.6,0.5,4.5,67.2,-9.600000000000001
1698415432682.0,16,-1.1,-0.6000000000000001,0.2,-0.5,9.0,0.6000000000000001,3.6,54.2,-11.000000000000002
1698415432697.0,16,-0.9,-0.6000000000000001,0.30000000000000004,-0.5,9.0,0.8,2.8,49.9,-12.6
1698415432713.0,16,-0.8,-1.1,0.4,-0.4,8.4,0.9,3.2,48.7,-16.700000000000003
1698415432730.0,16,-0.5,-1.6,0.0,-0.1,8.0,0.4,2.4000000000000004,53.6,-17.5
1698415432746.0,16,-0.5,-1.9000000000000001,0.1,-0.2,7.7,0.5,1.0999999999999999,57.699999999999996,-13.100000000000001
1698415432763.0,16,-0.7000000000000001,-1.8,0.0,-0.4,7.800000000000001,0.4,1.0,58.3,-10.600000000000001
1698415432779.0,16,-1.5,-1.0,0.0,-1.3,8.5,0.4,2.1999999999999997,56.6,-9.5
1698415432797.0,16,-2.2,-1.0,-0.30000000000000004,-2.0,8.5,0.1,5.1,54.0,-10.8
1698415432814.0,16,-2.1,-1.2000000000000002,-0.5,-2.0,8.3,-0.1,10.0,45.4,-11.700000000000001
1698415432830.0,16,-1.7000000000000002,-1.3,-1.1,-1.6,8.200000000000001,-0.8,10.9,39.2,-9.600000000000001
1698415432846.0,16,-1.3,-1.3,-1.1,-1.3,8.200000000000001,-0.8,7.400000000000001,32.7,-5.1
1698415432863.0,16,-1.2000000000000002,-1.1,-1.1,-1.2000000000000002,8.3,-0.8,6.1000000000000005,30.299999999999997,-3.3000000000000003
1698415432880.0,16,-1.2000000000000002,-0.8,-1.3,-1.2000000000000002,8.700000000000001,-1.0,4.6000000000000005,25.6,-0.1
1698415432897.0,16,-1.4000000000000001,-0.6000000000000001,-1.4000000000000001,-1.5,8.8,-1.1,5.8,19.8,3.1
1698415432913.0,16,-1.5,-0.9,-1.4000000000000001,-1.5,8.6,-1.1,6.5,18.0,4.6000000000000005
1698415432931.0,16,-1.9000000000000001,-1.3,-1.3,-1.9000000000000001,8.200000000000001,-1.1,9.200000000000001,14.4,6.5
1698415432946.0,16,-2.2,-1.3,-1.6,-2.2,8.200000000000001,-1.5,12.200000000000001,9.5,8.4
1698415432963.0,16,-2.3000000000000003,-1.4000000000000001,-1.3,-2.3000000000000003,8.0,-1.2000000000000002,14.200000000000001,6.1000000000000005,10.8
1698415432979.0,16,-1.8,-1.5,-0.6000000000000001,-1.7000000000000002,7.9,-0.5,16.3,7.9,10.3
1698415432997.0,16,-0.6000000000000001,-0.30000000000000004,-1.3,-0.6000000000000001,9.1,-1.3,14.900000000000002,9.4,5.1
1698415433013.0,16,-0.30000000000000004,0.4,-1.1,-0.2,9.9,-1.1,9.700000000000001,11.000000000000002,1.0999999999999999
1698415433030.0,16,-0.4,1.6,-1.1,-0.4,11.100000000000001,-1.1,3.8,21.3,-7.8
1698415433046.0,16,-1.2000000000000002,2.0,-3.0,-1.3,11.4,-3.1,10.5,14.600000000000001,-4.9
1698415433063.0,16,-2.0,2.1,-3.7,-2.0,11.600000000000001,-3.8000000000000003,12.6,4.0,-1.9
1698415433079.0,16,-2.2,3.9000000000000004,-1.8,-2.3000000000000003,13.4,-2.0,5.7,-14.200000000000001,-5.1
1698415433096.0,16,-0.30000000000000004,4.7,0.5,-0.4,14.200000000000001,0.30000000000000004,14.3,-17.0,-15.7
1698415433113.0,16,0.5,3.4000000000000004,-0.4,0.30000000000000004,12.9,-0.6000000000000001,27.1,-12.700000000000001,-20.6
1698415433129.0,16,-1.1,1.6,-0.8,-1.4000000000000001,11.100000000000001,-1.2000000000000002,26.8,-23.6,-30.299999999999997
1698415433147.0,16,-2.1,1.3,0.4,-2.5,10.8,-0.1,18.0,-24.7,-26.3
1698415433162.0,16,-0.8,2.0,2.4000000000000004,-1.2000000000000002,11.5,1.9000000000000001,10.8,-31.0,-17.400000000000002
1698415433180.0,16,-0.1,1.5,3.5,-0.5,11.0,3.1,5.300000000000001,-32.1,-17.200000000000003
1698415433196.0,16,-0.30000000000000004,0.4,2.2,-0.8,10.0,1.8,9.0,-29.900000000000006,-10.600000000000001
1698415433213.0,16,-0.8,0.8,1.5,-1.4000000000000001,10.4,1.1,2.6,-43.50000000000001,-1.0
1698415433230.0,16,-1.3,2.0,2.8000000000000003,-1.8,11.600000000000001,2.4000000000000004,0.8,-43.800000000000004,0.4
1698415433246.0,16,-0.7000000000000001,2.0,2.9000000000000004,-1.3,11.600000000000001,2.5,1.3,-25.700000000000003,-4.800000000000001
1698415433263.0,16,-0.4,1.2000000000000002,2.6,-0.9,10.8,2.2,3.3000000000000003,-12.8,-6.5
1698415433282.0,16,-0.4,0.30000000000000004,1.8,-1.0,9.9,1.4000000000000001,2.6,-3.1,-0.5
1698415433297.0,16,-0.7000000000000001,0.5,1.8,-1.2000000000000002,10.200000000000001,1.4000000000000001,0.0,3.2,12.3
1698415433313.0,16,-0.5,0.2,1.2000000000000002,-1.2000000000000002,10.100000000000001,1.1,0.30000000000000004,3.9,18.8
1698415433330.0,16,-0.30000000000000004,-0.30000000000000004,1.3,-0.7000000000000001,9.3,0.9,-0.8,0.8,27.8
1698415433346.0,16,-0.1,-1.1,1.4000000000000001,-0.4,8.5,1.1,-0.7,-2.6,32.5
1698415433362.0,16,0.1,-1.6,1.2000000000000002,-0.2,8.0,0.9,-0.8,-1.8,33.800000000000004
1698415433379.0,16,0.1,-1.8,1.1,0.0,7.800000000000001,0.7000000000000001,-1.2000000000000002,-0.2,32.300000000000004
1698415433396.0,16,0.30000000000000004,-2.0,0.9,0.2,7.5,0.6000000000000001,-2.9,4.2,26.1
1698415433413.0,16,0.6000000000000001,-2.2,0.6000000000000001,0.4,7.4,0.6000000000000001,-3.3000000000000003,5.8,23.900000000000002
1698415433432.0,16,0.7000000000000001,-2.1,0.4,0.7000000000000001,7.5,0.2,-3.9,10.1,21.3
1698415433446.0,16,0.7000000000000001,-2.0,0.30000000000000004,0.8,7.5,0.1,-3.7000000000000006,12.100000000000001,17.8
1698415433462.0,16,0.5,-2.1,0.2,0.8,7.5,0.1,-2.8,14.4,15.2
1698415433479.0,16,0.2,-2.0,0.1,0.4,7.5,-0.1,-2.3000000000000003,13.8,12.3
1698415433496.0,16,-0.5,-1.8,-0.2,-0.30000000000000004,7.7,-0.4,-1.5000000000000002,11.5,6.2
1698415433512.0,16,-0.5,-1.7000000000000002,-0.30000000000000004,-0.30000000000000004,7.800000000000001,-0.5,-1.4,10.0,2.3000000000000003
1698415433529.0,16,-0.6000000000000001,-1.6,-0.2,-0.4,7.7,-0.30000000000000004,0.5,10.600000000000001,-7.1000000000000005
1698415433546.0,16,-0.5,-1.9000000000000001,-0.2,-0.4,7.6000000000000005,-0.4,9.600000000000001,11.9,-14.3
1698415433562.0,16,-0.6000000000000001,-2.2,-1.3,-0.6000000000000001,7.2,-1.6,22.6,17.0,-19.0
1698415433580.0,16,-0.5,-2.2,-1.8,-0.2,7.4,-2.5,26.8,20.1,-18.8
1698415433596.0,16,0.1,-1.7000000000000002,-2.1,0.1,7.7,-2.6,28.0,22.7,-12.200000000000001
1698415433612.0,16,0.2,-0.30000000000000004,-1.7000000000000002,0.2,9.1,-2.3000000000000003,23.700000000000003,23.6,-3.5
1698415433629.0,16,0.0,0.5,-1.1,0.0,9.9,-1.7000000000000002,19.8,20.1,0.9
1698415433646.0,16,-0.5,1.4000000000000001,-0.7000000000000001,-0.4,10.8,-1.4000000000000001,12.4,-0.30000000000000004,11.2
1698415433662.0,16,-1.4000000000000001,2.4000000000000004,-1.6,-1.3,11.8,-2.3000000000000003,8.5,-12.100000000000001,8.5
1698415433679.0,16,-2.1,4.0,-1.6,-2.1,13.4,-2.3000000000000003,1.0999999999999999,-9.700000000000001,1.0
1698415433696.0,16,-3.1,6.2,2.7,-3.1,15.700000000000001,2.0,-1.7,-10.3,-1.3
1698415433713.0,16,-1.6,1.1,-1.1,-1.6,10.600000000000001,-1.8,37.1,-28.3,10.600000000000001
1698415433729.0,16,0.9,1.4000000000000001,-1.2000000000000002,0.9,10.9,-2.0,27.400000000000002,-17.8,17.0
1698415433746.0,16,3.3000000000000003,1.3,0.1,3.4000000000000004,10.8,-0.7000000000000001,14.700000000000001,17.9,13.4
1698415433762.0,16,2.0,2.1,1.0,2.1,11.600000000000001,0.1,11.5,34.1,7.2
1698415433779.0,16,0.8,2.6,2.1,0.9,12.200000000000001,1.1,6.1000000000000005,48.7,10.3
1698415433796.0,16,-1.2000000000000002,2.3000000000000003,3.8000000000000003,-0.9,11.9,2.9000000000000004,3.8,36.0,15.8
1698415433813.0,16,-0.6000000000000001,1.1,2.4000000000000004,-0.4,10.600000000000001,1.6,3.1,42.5,2.8
1698415433829.0,16,0.2,0.6000000000000001,2.5,0.5,10.200000000000001,1.6,-2.1,52.6,-2.5
1698415433847.0,16,0.2,0.5,2.0,0.4,10.100000000000001,1.1,-4.5,52.0,-10.9
1698415433863.0,16,-0.30000000000000004,0.6000000000000001,1.4000000000000001,-0.1,10.200000000000001,0.6000000000000001,-2.8,32.300000000000004,-7.400000000000001
1698415433879.0,16,-0.7000000000000001,0.6000000000000001,1.2000000000000002,-0.5,10.200000000000001,0.4,-1.0999999999999999,9.4,-4.9
1698415433896.0,16,-1.2000000000000002,0.6000000000000001,1.2000000000000002,-1.0,10.100000000000001,0.4,-0.1,0.5,-7.699999999999999
1698415433912.0,16,-1.1,0.2,1.0,-1.0,9.8,0.30000000000000004,0.30000000000000004,-7.8,-18.2
1698415433929.0,16,-1.0,-0.2,1.1,-0.9,9.4,0.30000000000000004,-0.6000000000000001,-7.2,-22.900000000000002
1698415433946.0,16,-0.8,-0.8,0.9,-0.8,8.700000000000001,0.1,-3.6,-4.1000000000000005,-29.300000000000004
1698415433968.0,16,-0.6000000000000001,-1.4000000000000001,0.8,-0.7000000000000001,8.200000000000001,0.1,-6.3,-1.8,-28.200000000000003
1698415433980.0,16,-0.7000000000000001,-1.9000000000000001,0.6000000000000001,-0.9,7.7,-0.1,-8.9,1.9,-23.5
1698415433996.0,16,-0.9,-2.1,0.5,-1.1,7.5,-0.1,-10.2,2.7,-20.1
1698415434013.0,16,-0.9,-2.2,0.7000000000000001,-1.2000000000000002,7.300000000000001,0.1,-11.6,1.9,-11.700000000000001
1698415434029.0,16,-0.9,-2.4000000000000004,0.6000000000000001,-1.3,7.1000000000000005,0.0,-11.700000000000001,-1.5000000000000002,-6.6000000000000005
1698415434046.0,16,-1.0,-2.4000000000000004,0.5,-1.3,7.1000000000000005,-0.1,-11.700000000000001,-2.9,-4.5
1698415434062.0,16,-1.1,-2.2,0.4,-1.5,7.300000000000001,-0.1,-11.000000000000002,-5.500000000000001,-1.7
1698415434079.0,16,-1.1,-1.9000000000000001,0.1,-1.4000000000000001,7.5,-0.4,-8.9,-6.1000000000000005,1.5000000000000002
1698415434096.0,16,-1.0,-1.9000000000000001,0.0,-1.3,7.6000000000000005,-0.5,-7.8,-7.2,3.5
1698415434112.0,16,-0.9,-2.0,-0.2,-1.3,7.5,-0.6000000000000001,-3.1,-9.3,6.8
1698415434129.0,16,-1.1,-2.0,-0.30000000000000004,-1.5,7.4,-0.7000000000000001,2.3000000000000003,-11.1,11.2
1698415434146.0,16,-1.3,-2.0,-0.2,-1.6,7.5,-0.7000000000000001,5.8,-12.5,13.6
1698415434162.0,16,-1.6,-1.8,-0.5,-1.9000000000000001,7.6000000000000005,-1.0,14.3,-18.400000000000002,16.8
1698415434179.0,16,-1.6,-1.2000000000000002,-1.1,-1.8,8.200000000000001,-1.7000000000000002,19.1,-28.500000000000004,14.700000000000001
1698415434196.0,16,-1.3,0.0,-1.6,-1.5,9.4,-2.3000000000000003,17.9,-36.7,9.5
1698415434212.0,16,-0.9,0.9,-0.8,-1.2000000000000002,10.3,-1.5,12.8,-35.9,5.9
1698415434229.0,16,-0.5,2.0,0.2,-0.8,11.4,-0.5,2.6,-10.1,-6.8
1698415434246.0,16,-0.1,2.2,-0.6000000000000001,-0.30000000000000004,11.600000000000001,-1.3,3.7000000000000006,3.8,-7.2
1698415434263.0,16,0.9,2.7,-1.9000000000000001,0.7000000000000001,12.100000000000001,-2.6,8.5,-4.2,5.7
1698415434279.0,16,0.1,3.2,-2.0,-1.4000000000000001,12.700000000000001,-2.4000000000000004,15.8,-30.7,5.4
1698415434296.0,16,-2.2,2.9000000000000004,-1.3,-2.4000000000000004,12.4,-2.1,20.4,-47.6,-5.2
1698415434312.0,16,-3.4000000000000004,2.6,-0.4,-3.7,12.100000000000001,-1.3,17.400000000000002,-58.3,-12.000000000000002
1698415434329.0,16,-1.9000000000000001,0.8,0.30000000000000004,-2.3000000000000003,10.3,-0.6000000000000001,9.9,-58.5,-18.1
1698415434346.0,16,-0.5,0.9,1.0,0.4,11.200000000000001,1.1,4.7,-63.4,-15.100000000000001
1698415434362.0,16,2.1,2.2,2.7,1.6,11.700000000000001,1.9000000000000001,-11.8,-79.39999999999999,-14.0
1698415434379.0,16,3.0,1.6,3.0,2.5,11.100000000000001,2.2,-11.6,-90.2,-8.200000000000001
1698415434397.0,16,1.0,0.2,2.2,0.4,9.8,1.5,-7.699999999999999,-99.0,-6.7
1698415434413.0,16,-0.4,0.2,1.7000000000000002,-1.0,9.8,1.1,-12.700000000000001,-94.2,-9.9
1698415434429.0,16,-1.1,1.4000000000000001,2.2,-1.7000000000000002,11.0,1.6,-19.200000000000003,-76.4,-8.3
1698415434446.0,16,-0.5,1.9000000000000001,2.1,-0.5,11.4,1.5,-16.900000000000002,-63.0,-6.2
1698415434463.0,16,0.5,1.1,1.4000000000000001,-0.2,10.700000000000001,0.9,-7.0,-54.5,2.7
1698415434479.0,16,0.2,0.0,0.8,-0.4,9.9,0.1,-5.500000000000001,-57.800000000000004,9.8
1698415434496.0,16,0.30000000000000004,-0.1,1.0,-0.30000000000000004,9.5,0.6000000000000001,-9.700000000000001,-73.60000000000001,24.3
1698415434512.0,16,0.5,-0.5,0.30000000000000004,-0.1,9.1,-0.1,-10.9,-84.9,29.400000000000002
1698415434529.0,16,0.9,-1.1,0.5,0.5,8.5,0.2,-12.9,-87.5,27.5
1698415434546.0,16,1.0,-1.4000000000000001,0.4,0.7000000000000001,8.200000000000001,0.2,-12.700000000000001,-78.10000000000001,21.900000000000002
1698415434563.0,16,1.0,-1.6,0.4,0.7000000000000001,8.0,0.2,-12.4,-71.5,21.0
1698415434579.0,16,0.8,-1.7000000000000002,0.1,0.5,7.800000000000001,-0.1,-11.9,-62.300000000000004,21.400000000000002
1698415434596.0,16,0.7000000000000001,-1.7000000000000002,-0.1,0.5,7.800000000000001,-0.2,-13.0,-57.9,22.000000000000004
1698415434612.0,16,0.6000000000000001,-1.8,-0.2,0.4,7.800000000000001,-0.30000000000000004,-13.100000000000001,-58.3,21.5
1698415434629.0,16,0.6000000000000001,-1.5,-0.30000000000000004,0.5,8.0,-0.30000000000000004,-11.6,-61.50000000000001,18.400000000000002
1698415434646.0,16,0.9,-1.7000000000000002,0.0,0.7000000000000001,8.0,-0.30000000000000004,-4.5,-62.4,10.9
1698415434663.0,16,1.0,-1.9000000000000001,-0.2,1.0,7.6000000000000005,-0.30000000000000004,2.5,-62.1,5.7
1698415434679.0,16,1.0,-2.3000000000000003,-1.3,1.0,7.2,-1.4000000000000001,14.700000000000001,-51.300000000000004,-6.5
1698415434696.0,16,1.3,-1.8,-1.8,1.2000000000000002,7.7,-1.9000000000000001,17.599999999999998,-35.4,-12.3
1698415434712.0,16,1.5,-1.2000000000000002,-1.6,1.5,8.3,-1.8,17.1,-34.300000000000004,-12.6
1698415434729.0,16,1.4000000000000001,-0.4,-1.6,1.4000000000000001,9.1,-1.8,16.900000000000002,-42.7,-13.0
1698415434746.0,16,1.0,-0.2,-0.4,0.9,9.200000000000001,-0.8,15.100000000000001,-54.3,-15.9
1698415434763.0,16,0.30000000000000004,0.0,-0.1,0.2,9.4,-0.4,15.299999999999999,-56.400000000000006,-21.200000000000003
1698415434779.0,16,-1.4000000000000001,0.6000000000000001,0.5,-1.7000000000000002,10.0,0.1,13.6,-49.5,-35.0
1698415434796.0,16,-1.9000000000000001,1.0,0.4,-2.3000000000000003,10.5,-0.1,16.2,-46.1,-40.8
1698415434814.0,16,-1.6,1.1,0.1,-2.1,10.600000000000001,-0.30000000000000004,16.0,-37.6,-41.2
1698415434829.0,16,-0.1,2.5,0.4,-0.7000000000000001,12.0,-0.1,10.700000000000001,-3.2,-31.900000000000002
1698415434846.0,16,0.9,5.1000000000000005,1.3,0.2,14.600000000000001,0.8,6.2,-2.8,0.5
1698415434862.0,16,1.2000000000000002,4.4,2.7,0.6000000000000001,13.9,2.2,12.000000000000002,-31.6,18.7
1698415434879.0,16,0.6000000000000001,0.0,1.2000000000000002,0.1,9.5,0.7000000000000001,15.7,-71.10000000000001,24.5
1698415434896.0,16,0.7000000000000001,0.5,2.4000000000000004,0.2,10.0,1.9000000000000001,-4.7,-72.2,9.5
1698415434912.0,16,0.4,1.3,2.0,-0.1,10.9,1.5,-8.0,-75.80000000000001,3.2
1698415434929.0,16,-0.9,1.9000000000000001,1.4000000000000001,-1.5,11.5,1.0,-8.700000000000001,-92.30000000000001,-5.500000000000001
1698415434946.0,16,-1.3,1.0,0.8,-1.9000000000000001,10.5,0.4,-7.0,-99.9,-6.3
1698415434963.0,16,-1.3,0.6000000000000001,0.5,-1.9000000000000001,10.200000000000001,0.2,-7.0,-105.2,-6.6000000000000005
1698415434980.0,16,-1.1,0.6000000000000001,0.2,-1.8,10.100000000000001,-0.1,-8.9,-116.00000000000001,-11.2
1698415434996.0,16,-1.1,0.6000000000000001,0.1,-1.8,10.200000000000001,-0.1,-9.200000000000001,-127.9,-15.9
1698415435012.0,16,-1.1,0.30000000000000004,-0.1,-1.9000000000000001,9.9,-0.2,-7.699999999999999,-133.70000000000002,-16.0
1698415435029.0,16,-0.8,-0.5,-0.4,-1.6,9.1,-0.6000000000000001,-7.1000000000000005,-146.60000000000002,-15.000000000000002
1698415435046.0,16,-0.4,-0.8,-0.6000000000000001,-1.3,8.8,-0.7000000000000001,-9.700000000000001,-157.1,-15.6
1698415435063.0,16,-0.4,-0.8,-0.7000000000000001,-1.3,8.700000000000001,-0.7000000000000001,-11.700000000000001,-160.70000000000002,-15.7
1698415435079.0,16,-0.4,-0.9,-0.6000000000000001,-1.4000000000000001,8.6,-0.5,-14.100000000000001,-168.2,-16.0
1698415435096.0,16,-0.5,-0.9,-0.6000000000000001,-1.5,8.6,-0.4,-15.6,-172.4,-16.900000000000002
1698415435113.0,16,-0.5,-0.8,-0.6000000000000001,-1.5,8.9,-0.30000000000000004,-15.9,-173.70000000000002,-17.200000000000003
1698415435129.0,16,-0.4,-0.5,-0.7000000000000001,-1.5,9.0,-0.30000000000000004,-14.800000000000002,-175.3,-17.5
1698415435146.0,16,-0.2,-0.5,-0.9,-1.3,9.0,-0.4,-14.200000000000001,-176.10000000000002,-17.599999999999998
1698415435162.0,16,-0.2,-0.5,-1.0,-1.4000000000000001,8.9,-0.5,-14.200000000000001,-177.3,-17.599999999999998
1698415435179.0,16,-0.30000000000000004,-0.7000000000000001,-1.0,-1.5,8.8,-0.30000000000000004,-15.6,-180.9,-16.700000000000003
1698415435196.0,16,-0.4,-0.6000000000000001,-1.1,-1.5,8.9,-0.30000000000000004,-17.0,-183.4,-13.9
1698415435212.0,16,-0.4,-0.5,-1.2000000000000002,-1.5,8.9,-0.4,-17.1,-185.10000000000002,-11.8
1698415435229.0,16,-0.4,-0.4,-1.4000000000000001,-1.5,9.0,-0.5,-17.7,-191.5,-7.699999999999999
1698415435246.0,16,-0.30000000000000004,-0.30000000000000004,-1.2000000000000002,-1.5,9.1,-0.2,-21.400000000000002,-199.6,-3.6
1698415435262.0,16,-0.30000000000000004,-0.30000000000000004,-0.9,-1.4000000000000001,9.1,0.1,-24.6,-202.5,-2.3000000000000003
1698415435279.0,16,-0.5,-0.5,-0.2,-1.6,8.8,0.9,-30.100000000000005,-206.1,-1.6
1698415435295.0,16,-0.9,-1.1,-0.6000000000000001,-1.9000000000000001,8.3,0.7000000000000001,-31.6,-213.5,-3.3000000000000003
1698415435312.0,16,-1.2000000000000002,-1.3,-0.9,-2.1,8.0,0.6000000000000001,-31.2,-219.7,-4.5
1698415435330.0,16,-1.4000000000000001,-1.0,-0.6000000000000001,-2.3000000000000003,8.3,1.0,-32.0,-234.8,-3.7000000000000006
1698415435346.0,16,-0.6000000000000001,0.30000000000000004,-0.8,-1.3,9.600000000000001,0.9,-33.7,-239.3,-3.7000000000000006
1698415435362.0,16,0.2,1.3,-1.3,-0.8,10.3,0.9,-32.2,-238.1,-4.6000000000000005
1698415435379.0,16,0.5,0.9,-1.1,0.0,10.200000000000001,0.8,-27.900000000000002,-228.7,-2.7
1698415435396.0,16,1.3,-0.1,-2.1,1.0,9.1,0.0,-28.3,-219.20000000000002,7.8
1698415435412.0,16,2.5,0.0,-1.7000000000000002,2.4000000000000004,9.3,0.4,-35.0,-208.8,16.400000000000002
1698415435429.0,16,3.2,0.1,-1.7000000000000002,3.3000000000000003,9.3,0.5,-38.7,-203.00000000000003,19.3
1698415435446.0,16,4.3,0.30000000000000004,-1.1,4.6000000000000005,9.4,1.3,-44.4,-197.6,19.700000000000003
1698415435463.0,16,3.4000000000000004,0.8,-0.4,3.9000000000000004,10.0,2.0,-40.0,-167.3,9.600000000000001
1698415435479.0,16,2.3000000000000003,0.1,-0.8,2.9000000000000004,9.200000000000001,1.7000000000000002,-34.2,-151.10000000000002,6.2
1698415435496.0,16,1.0,-1.0,-1.9000000000000001,1.7000000000000002,8.1,0.7000000000000001,-24.200000000000003,-117.20000000000002,1.8
1698415435512.0,16,0.1,-0.8,-2.0,0.9,8.3,0.5,-21.700000000000003,-106.2,-0.30000000000000004
1698415435530.0,16,-0.30000000000000004,-0.5,-1.8,0.6000000000000001,8.5,0.8,-20.3,-105.3,-2.9
1698415435546.0,16,-0.9,-0.5,-1.8,0.1,8.5,0.8,-16.900000000000002,-104.5,-12.9
1698415435562.0,16,-0.1,-0.4,-1.6,0.9,8.700000000000001,1.0,-18.6,-108.5,-21.1
1698415435579.0,16,0.30000000000000004,-0.4,-1.1,1.2000000000000002,8.6,1.5,-19.0,-111.0,-22.900000000000002
1698415435596.0,16,0.4,-0.9,-1.3,1.4000000000000001,8.1,1.3,-20.0,-115.60000000000001,-22.6
1698415435612.0,16,0.5,-1.5,-1.0,1.5,7.4,1.6,-25.5,-120.7,-22.1
1698415435629.0,16,0.6000000000000001,-1.7000000000000002,-1.1,1.7000000000000002,7.300000000000001,1.5,-29.300000000000004,-121.70000000000002,-22.6
1698415435646.0,16,0.30000000000000004,-1.9000000000000001,-0.30000000000000004,1.4000000000000001,7.1000000000000005,2.4000000000000004,-37.4,-121.4,-29.500000000000004
1698415435663.0,16,0.0,-2.0,0.2,1.1,6.9,2.9000000000000004,-41.1,-119.8,-36.800000000000004
1698415435682.0,16,0.0,-2.0,-0.2,1.1,6.800000000000001,2.6,-40.7,-116.30000000000001,-38.6
1698415435696.0,16,0.1,-2.5,-0.9,1.2000000000000002,6.4,2.0,-42.1,-102.4,-39.1
1698415435713.0,16,-0.30000000000000004,-2.7,-0.1,0.7000000000000001,6.1000000000000005,2.9000000000000004,-47.900000000000006,-95.60000000000001,-37.7
1698415435730.0,16,-0.9,-2.1,0.5,0.2,6.7,3.5,-51.7,-101.2,-35.3
1698415435746.0,16,-0.7000000000000001,-1.0,-1.7000000000000002,0.4,7.7,1.5,-51.6,-120.7,-28.700000000000003
1698415435763.0,16,0.7000000000000001,-3.0,-1.3,1.8,5.6000000000000005,1.9000000000000001,-51.6,-99.5,-37.5
1698415435780.0,16,0.4,-3.1,-1.2000000000000002,1.5,5.5,2.1,-51.900000000000006,-85.3,-46.1
1698415435796.0,16,0.0,-0.9,-0.8,1.1,7.6000000000000005,2.6,-51.1,-78.9,-39.00000000000001
1698415435813.0,16,-0.4,-0.6000000000000001,-0.4,0.6000000000000001,7.800000000000001,3.1,-47.300000000000004,-78.9,-32.2
1698415435829.0,16,-0.6000000000000001,-0.4,-0.6000000000000001,0.8,8.8,2.7,-44.9,-79.2,-31.2
1698415435847.0,16,-0.30000000000000004,-0.5,-0.5,0.8,7.9,3.2,-37.4,-73.30000000000001,-28.900000000000002
1698415435862.0,16,-1.0,-0.7000000000000001,-0.2,0.0,7.6000000000000005,3.5,-33.0,-63.10000000000001,-34.900000000000006
1698415435880.0,16,-1.1,0.0,-0.5,0.0,8.3,3.2,-30.299999999999997,-60.599999999999994,-31.7
1698415435896.0,16,-0.8,0.30000000000000004,-0.4,0.2,8.700000000000001,3.5,-26.1,-62.199999999999996,-28.400000000000002
1698415435912.0,16,-0.9,0.2,0.1,0.1,8.5,4.0,-22.900000000000002,-60.599999999999994,-30.100000000000005
1698415435929.0,16,-0.7000000000000001,0.30000000000000004,0.4,0.30000000000000004,8.6,4.3,-21.6,-58.00000000000001,-31.099999999999998
1698415435946.0,16,-0.5,0.6000000000000001,0.6000000000000001,0.4,8.9,4.5,-16.3,-48.2,-35.6
1698415435962.0,16,-0.7000000000000001,0.6000000000000001,0.9,0.2,8.9,4.9,-10.0,-42.800000000000004,-36.2
1698415435979.0,16,-0.7000000000000001,0.9,0.9,0.2,9.200000000000001,4.9,-8.1,-42.0,-36.7
1698415435996.0,16,-0.4,1.0,0.7000000000000001,0.4,9.3,4.7,-1.7,-30.000000000000004,-42.400000000000006
1698415436012.0,16,0.1,0.7000000000000001,0.7000000000000001,0.8,9.1,4.6000000000000005,2.9,-25.8,-48.00000000000001
1698415436029.0,16,-0.1,0.4,0.7000000000000001,0.5,8.700000000000001,4.7,6.3,-19.700000000000003,-50.7
1698415436046.0,16,-0.9,0.2,1.4000000000000001,-0.30000000000000004,8.6,5.300000000000001,13.9,-14.4,-49.3
1698415436063.0,16,-1.0,-0.2,1.4000000000000001,-0.6000000000000001,8.3,5.300000000000001,25.5,-7.9,-45.1
1698415436079.0,16,-0.6000000000000001,-0.5,1.3,-0.4,8.1,5.4,31.900000000000002,-5.500000000000001,-43.50000000000001
1698415436096.0,16,-0.5,-0.2,1.2000000000000002,-0.30000000000000004,8.3,4.9,43.1,-3.9,-35.9
1698415436113.0,16,-0.9,0.2,1.4000000000000001,-0.8,8.8,5.0,51.1,-2.8,-27.0
1698415436129.0,16,-1.0,0.4,1.6,-0.9,9.0,5.1000000000000005,54.2,-2.9,-22.2
1698415436146.0,16,0.30000000000000004,1.0,1.4000000000000001,0.30000000000000004,9.700000000000001,4.800000000000001,59.400000000000006,-3.6,-12.3
1698415436163.0,16,2.2,2.0,1.2000000000000002,2.2,10.700000000000001,4.4,63.4,-3.2,-8.600000000000001
1698415436179.0,16,1.3,3.2,1.0,1.3,12.100000000000001,4.0,61.1,2.1999999999999997,-9.200000000000001
1698415436196.0,16,0.2,3.7,0.8,0.2,12.600000000000001,3.7,59.00000000000001,7.9,-9.200000000000001
1698415436213.0,16,-1.6,5.7,0.8,-1.7000000000000002,14.700000000000001,3.6,55.0,12.700000000000001,-5.300000000000001
1698415436229.0,16,-1.2000000000000002,6.5,0.6000000000000001,-1.3,15.600000000000001,3.2,49.0,19.1,-0.9
1698415436247.0,16,-0.8,5.2,0.1,-0.9,14.4,2.6,51.2,18.2,-0.9
1698415436262.0,16,-0.2,3.3000000000000003,-0.9,-0.30000000000000004,12.5,1.5,44.2,11.000000000000002,-1.8
1698415436279.0,16,-0.4,1.1,-1.6,-0.30000000000000004,11.5,1.1,42.800000000000004,11.5,-3.7000000000000006
1698415436296.0,16,-0.7000000000000001,0.30000000000000004,-1.8,-0.8,9.600000000000001,0.30000000000000004,44.2,9.3,-5.6
1698415436313.0,16,-1.0,-0.5,-1.9000000000000001,-0.8,8.9,0.0,44.2,9.3,-5.6
1698415436330.0,16,-0.8,-1.0,-2.4000000000000004,-1.0,8.3,-0.6000000000000001,45.4,11.4,-4.2
1698415436346.0,16,-0.5,-1.6,-2.3000000000000003,-0.7000000000000001,7.7,-0.5,42.400000000000006,15.6,-2.3000000000000003
1698415436363.0,16,-0.7000000000000001,-1.0,-1.9000000000000001,-1.0,8.4,-0.4,47.0,19.1,-1.6
1698415436380.0,16,-0.6000000000000001,-0.9,-1.7000000000000002,-0.9,8.4,-0.30000000000000004,51.0,20.1,3.8
1698415436398.0,16,-0.6000000000000001,-0.5,-1.3,-0.9,8.9,0.0,52.900000000000006,19.400000000000002,5.0
1698415436413.0,16,-0.6000000000000001,0.0,-1.6,-0.8,9.4,-0.5,54.5,19.9,5.9
1698415436429.0,16,-0.9,0.5,-1.1,-1.1,9.9,-0.2,51.900000000000006,15.2,9.0
1698415436446.0,16,-0.8,0.7000000000000001,-1.0,-1.0,10.200000000000001,-0.2,53.1,11.3,10.1
1698415436463.0,16,-0.5,1.1,-0.7000000000000001,-0.7000000000000001,10.5,-0.1,54.1,8.0,10.4
1698415436481.0,16,-0.5,1.0,-1.0,-0.6000000000000001,10.5,-0.4,51.400000000000006,9.8,10.3
1698415436497.0,16,-0.30000000000000004,1.2000000000000002,-0.7000000000000001,-0.4,10.700000000000001,-0.30000000000000004,43.900000000000006,6.8,10.3
1698415436512.0,16,-0.2,1.5,-0.4,-0.30000000000000004,11.0,-0.2,43.400000000000006,10.600000000000001,9.5
1698415436529.0,16,-0.5,1.2000000000000002,-0.4,-0.6000000000000001,10.700000000000001,-0.30000000000000004,34.6,8.799999999999999,10.5
1698415436546.0,16,-0.5,1.1,-0.30000000000000004,-0.6000000000000001,10.600000000000001,-0.2,25.1,9.600000000000001,9.9
1698415436562.0,16,-0.5,0.6000000000000001,-0.5,-0.5,10.100000000000001,-0.5,22.4,9.700000000000001,9.4
1698415436579.0,16,-0.30000000000000004,0.30000000000000004,-0.5,-0.30000000000000004,9.9,-0.6000000000000001,19.400000000000002,6.3,10.3
1698415436596.0,16,-0.4,0.2,-0.7000000000000001,-0.4,9.700000000000001,-0.8,16.6,7.1000000000000005,10.5
1698415436612.0,16,-0.4,0.1,-0.7000000000000001,-0.4,9.600000000000001,-0.9,15.6,6.6000000000000005,10.1
1698415436629.0,16,-0.5,0.0,-0.8,-0.4,9.5,-1.0,15.399999999999999,4.3999999999999995,9.3
1698415436646.0,16,-0.4,0.0,-0.8,-0.30000000000000004,9.600000000000001,-1.0,15.399999999999999,3.9,9.200000000000001
1698415436663.0,16,-0.4,0.1,-0.7000000000000001,-0.30000000000000004,9.600000000000001,-1.0,15.100000000000001,3.6,9.200000000000001
1698415436680.0,16,-0.4,0.2,-0.7000000000000001,-0.2,9.700000000000001,-1.1,14.3,2.5,8.9
1698415436696.0,16,-0.30000000000000004,0.2,-0.7000000000000001,-0.2,9.700000000000001,-1.1,13.9,1.4,8.600000000000001
1698415436713.0,16,-0.4,0.4,-0.5,-0.2,9.9,-1.0,13.0,-1.5000000000000002,8.700000000000001
1698415436729.0,16,-0.30000000000000004,0.2,-0.30000000000000004,-0.1,9.8,-0.8,10.4,-4.9,7.9
1698415436746.0,16,-0.30000000000000004,0.2,-0.4,-0.1,9.700000000000001,-0.9,8.9,-4.7,7.300000000000001
1698415436763.0,16,0.0,0.1,-0.5,0.2,9.700000000000001,-1.1,6.1000000000000005,-5.8,6.2
1698415436780.0,16,0.1,0.2,-0.2,0.30000000000000004,9.8,-0.7000000000000001,5.4,-3.7000000000000006,6.2
1698415436797.0,16,0.0,0.2,-0.2,0.30000000000000004,9.8,-0.7000000000000001,5.7,-2.1999999999999997,6.8
1698415436813.0,16,-0.2,0.2,-0.30000000000000004,0.1,9.700000000000001,-0.9,3.6,-0.8,7.300000000000001
1698415436829.0,16,-0.4,0.2,-0.30000000000000004,-0.1,9.700000000000001,-0.9,1.9,-0.30000000000000004,6.7
1698415436846.0,16,-0.4,0.2,-0.30000000000000004,-0.1,9.700000000000001,-0.9,2.0,-1.0,6.7
1698415436863.0,16,-0.30000000000000004,0.30000000000000004,-0.2,0.0,9.8,-0.8,0.7,-2.1999999999999997,5.9
1698415436879.0,16,-0.2,0.2,-0.1,0.1,9.700000000000001,-0.7000000000000001,-2.3000000000000003,-3.6,5.4
1698415436896.0,16,-0.30000000000000004,0.0,-0.1,0.1,9.600000000000001,-0.7000000000000001,-5.2,-2.4000000000000004,5.2
1698415436912.0,16,-0.4,0.1,0.0,0.0,9.600000000000001,-0.6000000000000001,-5.4,-1.5000000000000002,4.800000000000001
1698415436929.0,16,-0.30000000000000004,0.1,-0.1,0.0,9.600000000000001,-0.6000000000000001,-4.9,-2.8,4.0
1698415436946.0,16,-0.30000000000000004,0.0,0.0,0.1,9.600000000000001,-0.6000000000000001,-6.4,-2.9,3.5
1698415436962.0,16,-0.2,0.0,0.0,0.1,9.5,-0.5,-7.699999999999999,-1.8,2.7
1698415436979.0,16,-0.2,0.0,0.1,0.1,9.5,-0.4,-5.1,-1.8,2.1
1698415436996.0,16,-0.2,0.0,-0.1,0.1,9.5,-0.6000000000000001,-5.0,-1.7,1.6
1698415437013.0,16,-0.2,-0.1,-0.1,0.1,9.5,-0.5,-6.000000000000001,-2.1999999999999997,1.5000000000000002
1698415437029.0,16,-0.1,0.0,-0.1,0.2,9.5,-0.5,-3.1,-3.1,0.6000000000000001
1698415437045.0,16,0.0,0.0,-0.1,0.30000000000000004,9.5,-0.5,-2.6,-1.9,-1.2000000000000002
1698415437062.0,16,0.0,0.0,0.0,0.30000000000000004,9.5,-0.4,-3.7000000000000006,-0.9,-1.6
1698415437079.0,16,0.0,-0.1,-0.1,0.30000000000000004,9.5,-0.5,-5.500000000000001,0.5,-2.0
1698415437096.0,16,-0.1,-0.1,0.0,0.2,9.5,-0.5,-6.000000000000001,1.0,-2.1
1698415437112.0,16,-0.1,0.0,0.0,0.2,9.5,-0.5,-5.6,0.4,-2.1
1698415437129.0,16,-0.1,0.0,0.0,0.2,9.5,-0.4,-5.8,0.0,-2.3000000000000003
1698415437146.0,16,-0.1,0.0,0.1,0.2,9.5,-0.30000000000000004,-5.9,-0.5,-2.4000000000000004
1698415437162.0,16,-0.1,0.0,0.1,0.2,9.5,-0.30000000000000004,-6.4,-1.0,-2.3000000000000003
1698415437179.0,16,-0.1,-0.1,0.1,0.1,9.4,-0.30000000000000004,-8.0,-1.3,-2.3000000000000003
1698415437196.0,16,-0.1,-0.1,0.1,0.1,9.4,-0.2,-7.500000000000001,-1.0999999999999999,-2.5
1698415437212.0,16,-0.2,-0.1,0.2,0.1,9.4,-0.1,-7.0,-0.8,-2.5
1698415437229.0,16,-0.2,-0.1,0.1,0.1,9.4,-0.2,-7.300000000000001,-1.0999999999999999,-2.7
1698415437246.0,16,-0.1,-0.1,0.2,0.1,9.4,-0.1,-7.300000000000001,-1.8,-3.1
1698415437262.0,16,-0.2,-0.1,0.2,0.0,9.4,-0.1,-6.9,-2.0,-3.2
1698415437279.0,16,-0.2,-0.1,0.1,0.0,9.4,-0.1,-6.7,-2.9,-3.2
1698415437296.0,16,-0.2,-0.1,0.2,0.0,9.5,0.0,-6.6000000000000005,-2.7,-3.5
1698415437312.0,16,-0.2,-0.1,0.30000000000000004,-0.1,9.4,0.1,-6.1000000000000005,-2.5,-3.6
1698415437329.0,16,-0.2,0.0,0.2,-0.1,9.5,0.1,-5.9,-1.7,-3.8
1698415437346.0,16,-0.2,-0.1,0.1,-0.1,9.4,0.0,-5.8,-2.1,-3.2
1698415437362.0,16,-0.2,0.0,0.1,-0.1,9.5,0.1,-5.6,-2.3000000000000003,-3.4
1698415437379.0,16,-0.1,0.0,0.1,-0.1,9.5,0.1,-5.6,-2.0,-3.4
1698415437396.0,16,-0.1,0.0,0.1,-0.1,9.4,0.1,-5.4,-1.0999999999999999,-3.4
1698415437413.0,16,-0.2,0.0,0.1,-0.1,9.5,0.1,-4.7,-0.9,-3.4
1698415437430.0,16,-0.2,0.0,0.1,-0.2,9.4,0.2,-3.9,-1.0999999999999999,-3.0000000000000004
1698415437446.0,16,-0.2,0.0,0.0,-0.2,9.4,0.1,-3.7000000000000006,0.0,-2.8
1698415437462.0,16,-0.1,-0.1,0.0,-0.1,9.4,0.0,-3.2,-0.1,-2.7
1698415437480.0,16,-0.1,0.0,0.0,-0.1,9.5,0.1,-2.5,0.2,-2.7
1698415437496.0,16,-0.1,0.0,0.0,-0.1,9.4,0.1,-2.4000000000000004,-0.5,-2.8
1698415437512.0,16,-0.1,0.0,0.1,-0.1,9.4,0.1,-2.0,-0.8,-2.7
1698415437530.0,16,-0.1,0.0,0.0,-0.2,9.4,0.1,-0.9,-0.30000000000000004,-2.0
1698415437546.0,16,-0.1,0.0,0.0,-0.2,9.4,0.1,-1.0,0.0,-2.0
1698415437563.0,16,-0.1,0.0,0.0,-0.2,9.5,0.0,-1.0999999999999999,-0.2,-1.8
1698415437579.0,16,-0.1,0.0,0.0,-0.2,9.5,0.1,-0.30000000000000004,0.0,-1.7
1698415437596.0,16,0.0,0.0,0.0,-0.1,9.5,0.1,0.2,-0.1,-1.7
1698415437613.0,16,0.0,0.0,0.0,-0.1,9.4,0.1,0.0,0.2,-1.5000000000000002
1698415437629.0,16,-0.1,0.0,0.0,-0.2,9.5,0.1,1.0,-0.2,-0.8
1698415437646.0,16,-0.1,0.0,0.0,-0.2,9.4,0.1,1.4,-0.5,-0.7
1698415437663.0,16,-0.1,0.0,0.0,-0.2,9.5,0.1,1.4,-0.8,-0.7
1698415437681.0,16,0.0,0.0,0.0,-0.2,9.5,0.1,1.7,-1.0,-0.8
1698415437697.0,16,-0.1,0.0,0.0,-0.2,9.5,0.1,2.0,-1.4,-0.6000000000000001
1698415437713.0,16,0.0,0.0,0.0,-0.2,9.5,0.0,1.7,-1.2000000000000002,-0.6000000000000001
1698415437729.0,16,-0.1,0.1,-0.1,-0.2,9.5,0.0,1.5000000000000002,-0.5,-0.5
1698415437746.0,16,0.0,0.1,-0.1,-0.2,9.600000000000001,-0.1,1.0,-0.9,-0.5
1698415437763.0,16,0.0,0.0,0.0,-0.1,9.600000000000001,0.0,0.7,-1.0,-0.7
1698415437780.0,16,0.0,0.0,0.0,-0.1,9.5,0.0,0.7,-0.30000000000000004,-0.9
1698415437796.0,16,0.0,0.0,-0.1,-0.2,9.5,0.0,0.7,0.0,-0.6000000000000001
1698415437813.0,16,0.0,0.0,-0.1,-0.2,9.5,-0.1,0.8,0.0,-0.5
1698415437829.0,16,-0.1,0.1,-0.1,-0.2,9.5,-0.1,0.9,0.30000000000000004,-0.5
1698415437846.0,16,0.0,0.0,-0.2,-0.2,9.5,-0.2,0.5,-0.1,-0.7
1698415437862.0,16,0.1,0.1,-0.1,-0.1,9.600000000000001,-0.1,-0.5,-0.4,-1.2000000000000002
1698415437879.0,16,0.1,0.1,-0.1,-0.1,9.600000000000001,-0.1,-0.2,-0.30000000000000004,-1.8
1698415437896.0,16,0.1,0.1,-0.1,-0.1,9.600000000000001,-0.1,-0.6000000000000001,0.8,-2.5
1698415437913.0,16,0.1,0.1,0.0,-0.1,9.600000000000001,-0.1,-1.0,1.3,-2.6
1698415437929.0,16,0.0,0.1,0.0,-0.1,9.600000000000001,0.0,-1.0999999999999999,2.1,-2.3000000000000003
1698415437946.0,16,0.0,0.0,0.0,-0.2,9.5,0.0,-1.4,3.4,-2.5
1698415437963.0,16,0.0,-0.1,0.0,-0.2,9.5,0.0,-1.9,3.8,-2.6
1698415437980.0,16,0.0,0.0,0.0,-0.2,9.5,0.0,-1.8,3.9,-2.7
1698415437996.0,16,0.0,0.0,0.0,-0.2,9.5,0.0,-1.4,3.8,-2.5
1698415438013.0,16,-0.1,0.0,0.0,-0.2,9.5,0.0,-1.4,4.1000000000000005,-2.1999999999999997
1698415438032.0,16,-0.1,0.0,-0.1,-0.30000000000000004,9.5,0.0,-1.0999999999999999,4.1000000000000005,-2.0
1698415438045.0,16,-0.1,0.0,0.0,-0.30000000000000004,9.5,0.0,-0.5,3.5,-1.8
1698415438062.0,16,-0.1,0.0,0.0,-0.30000000000000004,9.5,0.0,-0.5,3.3000000000000003,-1.5000000000000002
1698415438079.0,16,-0.1,0.0,0.0,-0.30000000000000004,9.5,0.0,-0.4,3.1,-1.5000000000000002
1698415438096.0,16,-0.1,0.0,0.0,-0.30000000000000004,9.5,0.0,0.8,2.1999999999999997,-1.3
1698415438112.0,16,-0.1,0.0,0.0,-0.30000000000000004,9.5,0.0,0.9,1.6,-1.0999999999999999
1698415438129.0,16,-0.1,0.0,0.0,-0.4,9.5,0.0,0.9,1.4,-1.0
1698415438146.0,16,-0.1,0.0,0.0,-0.30000000000000004,9.5,0.0,1.0,0.8,-1.0
1698415438162.0,16,0.0,0.0,0.0,-0.30000000000000004,9.5,0.0,1.0999999999999999,0.1,-0.7
1698415438179.0,16,0.0,0.0,0.0,-0.30000000000000004,9.5,0.1,1.0999999999999999,0.0,-0.5
1698415438196.0,16,0.0,0.0,0.0,-0.30000000000000004,9.5,0.0,1.5000000000000002,-0.30000000000000004,-0.30000000000000004
1698415438212.0,16,0.0,0.0,0.0,-0.30000000000000004,9.5,0.0,1.9,-0.4,-0.1
1698415438229.0,16,0.0,0.0,0.0,-0.30000000000000004,9.5,0.0,2.1,-0.4,0.0
1698415438246.0,16,0.0,0.0,0.0,-0.30000000000000004,9.5,0.0,1.9,-1.0,-0.1
1698415438262.0,16,0.0,0.0,0.0,-0.30000000000000004,9.5,-0.1,1.6,-0.9,-0.1
1698415438280.0,16,0.0,0.0,0.0,-0.30000000000000004,9.5,-0.1,1.3,-0.7,-0.1
1698415438296.0,16,0.0,0.0,0.0,-0.30000000000000004,9.5,0.0,1.3,-0.6000000000000001,0.1
1698415438312.0,16,0.0,0.0,0.0,-0.30000000000000004,9.5,0.0,2.1,-0.9,0.2
1698415438329.0,16,0.0,0.0,-0.1,-0.30000000000000004,9.600000000000001,-0.1,1.9,-0.8,0.1
1698415438346.0,16,0.0,0.0,-0.1,-0.30000000000000004,9.5,-0.1,1.0999999999999999,-0.6000000000000001,-0.1
1698415438362.0,16,0.0,0.0,0.0,-0.30000000000000004,9.5,-0.1,1.6,-0.7,0.1
1698415438379.0,16,0.0,0.0,-0.1,-0.30000000000000004,9.5,-0.1,1.7,-1.0,0.1
1698415438396.0,16,0.0,0.0,-0.1,-0.30000000000000004,9.5,-0.1,1.0,-1.0,-0.2
1698415438413.0,16,0.0,0.0,0.0,-0.30000000000000004,9.5,-0.1,0.9,-0.4,-0.2
1698415438429.0,16,0.1,0.0,0.0,-0.2,9.5,-0.1,1.0,-0.30000000000000004,-0.2
1698415438447.0,16,0.0,0.0,0.0,-0.2,9.5,-0.1,0.9,-0.1,-0.2
1698415438462.0,16,0.0,0.0,0.0,-0.30000000000000004,9.5,-0.1,0.6000000000000001,-0.30000000000000004,-0.1
1698415438479.0,16,0.0,0.0,0.0,-0.30000000000000004,9.5,-0.1,0.7,-0.6000000000000001,-0.1
1698415438495.0,16,0.0,0.0,0.0,-0.30000000000000004,9.5,-0.1,0.9,-0.7,0.0
1698415438512.0,16,0.0,0.0,0.0,-0.30000000000000004,9.5,-0.1,0.7,-0.8,-0.4
1698415438529.0,16,0.0,0.0,0.0,-0.30000000000000004,9.5,-0.1,0.8,-0.6000000000000001,-0.1
1698415438546.0,16,0.0,0.0,0.0,-0.30000000000000004,9.5,-0.1,0.6000000000000001,-0.8,0.1
1698415438563.0,16,0.0,0.0,0.0,-0.30000000000000004,9.5,-0.1,0.5,-1.3,0.2
1698415438579.0,16,0.0,0.0,0.0,-0.30000000000000004,9.5,-0.1,0.8,-1.4,0.2
1698415438598.0,16,0.0,0.0,-0.1,-0.30000000000000004,9.5,-0.2,0.4,-1.7,0.2
1698415438613.0,16,0.0,0.0,0.0,-0.30000000000000004,9.5,-0.1,-0.1,-1.7,-0.30000000000000004
1698415438629.0,16,0.0,0.0,0.0,-0.30000000000000004,9.5,-0.1,0.2,-1.3,-0.2
1698415438646.0,16,0.0,0.1,0.0,-0.30000000000000004,9.600000000000001,-0.1,0.2,-1.5000000000000002,0.0
1698415438663.0,16,0.0,0.0,0.0,-0.30000000000000004,9.5,-0.1,-0.1,-1.7,0.1
1698415438679.0,16,0.0,0.0,0.0,-0.30000000000000004,9.5,-0.1,-0.30000000000000004,-1.8,0.1
1698415438696.0,16,0.0,0.0,0.0,-0.30000000000000004,9.5,-0.1,-0.4,-1.7,0.1
1698415438713.0,16,0.0,0.0,0.0,-0.30000000000000004,9.5,-0.2,-0.5,-2.0,0.1
1698415438729.0,16,0.0,0.0,0.0,-0.30000000000000004,9.5,-0.1,-0.5,-2.0,-0.1
1698415438746.0,16,0.0,0.0,0.0,-0.30000000000000004,9.5,-0.1,0.2,-2.1999999999999997,-0.30000000000000004
1698415438763.0,16,0.0,0.0,0.0,-0.30000000000000004,9.5,-0.1,0.0,-1.5000000000000002,-0.30000000000000004
1698415438783.0,16,0.0,0.0,0.0,-0.30000000000000004,9.5,-0.1,-0.2,-0.9,-0.2
1698415438796.0,16,0.0,0.0,0.0,-0.30000000000000004,9.5,-0.1,0.0,-0.8,-0.2
1698415438812.0,16,0.0,0.0,0.0,-0.30000000000000004,9.5,-0.1,-0.2,-0.7,-0.4
1698415438829.0,16,0.0,0.0,0.0,-0.30000000000000004,9.600000000000001,-0.1,-0.5,-0.8,-0.4
1698415438846.0,16,0.0,0.0,0.0,-0.30000000000000004,9.5,-0.1,-0.5,-0.6000000000000001,-0.5
1698415438863.0,16,0.0,0.0,0.0,-0.30000000000000004,9.5,-0.1,-0.1,-0.6000000000000001,-0.5
1698415438879.0,16,0.0,0.0,0.0,-0.30000000000000004,9.5,-0.1,0.2,-0.5,-0.6000000000000001
1698415438896.0,16,0.0,0.0,0.0,-0.30000000000000004,9.600000000000001,-0.1,0.2,0.0,-0.6000000000000001
1698415438913.0,16,0.0,0.0,0.0,-0.30000000000000004,9.600000000000001,-0.1,-0.1,0.1,-0.4
1698415438929.0,16,0.0,0.0,-0.1,-0.30000000000000004,9.5,-0.2,-0.1,0.0,-0.4
1698415438946.0,16,0.0,0.0,0.0,-0.30000000000000004,9.5,-0.1,-0.30000000000000004,0.0,-0.4
1698415438963.0,16,0.0,0.0,0.0,-0.30000000000000004,9.5,-0.1,-0.5,0.4,-0.4
1698415438980.0,16,0.0,0.0,0.0,-0.30000000000000004,9.600000000000001,-0.1,-0.9,0.2,-0.4
1698415438997.0,16,0.0,0.0,0.0,-0.30000000000000004,9.5,-0.1,-1.2000000000000002,0.1,-0.4
1698415439013.0,16,0.0,0.0,0.0,-0.30000000000000004,9.5,-0.1,-1.2000000000000002,0.2,-0.2
1698415439029.0,16,-0.1,0.0,0.0,-0.4,9.5,-0.1,-1.3,0.2,0.0
1698415439046.0,16,0.0,0.0,0.0,-0.30000000000000004,9.600000000000001,-0.1,-1.0999999999999999,-0.30000000000000004,-0.1
1698415439063.0,16,0.0,0.0,0.0,-0.30000000000000004,9.5,-0.1,-1.0,-0.9,-0.1
1698415439079.0,16,0.0,0.0,0.0,-0.30000000000000004,9.5,-0.1,-0.9,-0.7,0.1
1698415439096.0,16,0.0,0.0,0.0,-0.30000000000000004,9.5,0.0,-0.5,-0.6000000000000001,0.1
1698415439112.0,16,0.0,-0.1,0.1,-0.30000000000000004,9.5,0.0,-0.5,-0.7,0.2
1698415439129.0,16,0.0,0.0,0.1,-0.30000000000000004,9.5,0.0,-0.30000000000000004,-0.4,0.2
1698415439145.0,16,0.0,0.0,0.1,-0.30000000000000004,9.5,0.0,-0.1,-0.4,0.2
1698415439162.0,16,0.0,0.0,0.1,-0.30000000000000004,9.5,0.0,0.0,0.0,0.2
1698415439179.0,16,0.0,0.0,0.0,-0.30000000000000004,9.5,0.0,-0.30000000000000004,0.2,0.2
1698415439196.0,16,0.0,0.0,0.0,-0.30000000000000004,9.5,-0.1,-0.1,0.4,0.4
1698415439213.0,16,0.0,0.0,0.0,-0.30000000000000004,9.5,-0.1,0.0,0.30000000000000004,0.4
1698415439229.0,16,0.0,0.0,0.0,-0.30000000000000004,9.5,-0.1,0.0,0.1,0.5
1698415439246.0,16,0.0,0.0,0.0,-0.30000000000000004,9.5,0.0,0.1,0.5,0.5
1698415439263.0,16,0.0,0.0,0.0,-0.30000000000000004,9.5,0.0,0.30000000000000004,0.7,0.5
1698415439280.0,16,0.0,0.0,-0.1,-0.30000000000000004,9.5,-0.1,0.0,1.0,0.7
1698415439298.0,16,0.0,0.0,0.0,-0.30000000000000004,9.5,-0.1,0.0,0.4,0.9
1698415439313.0,16,0.0,0.0,0.0,-0.30000000000000004,9.5,-0.1,0.30000000000000004,0.30000000000000004,0.7
1698415439329.0,16,0.0,0.0,0.0,-0.30000000000000004,9.5,-0.1,0.30000000000000004,0.1,0.7
1698415439346.0,16,0.0,0.0,0.0,-0.30000000000000004,9.5,-0.1,0.1,0.30000000000000004,0.7
1698415439363.0,16,0.0,0.0,0.0,-0.30000000000000004,9.5,-0.1,0.1,0.2,0.7
1698415439380.0,16,0.0,0.0,0.0,-0.30000000000000004,9.5,-0.1,0.30000000000000004,0.30000000000000004,0.7
1698415439398.0,16,0.0,0.0,0.0,-0.30000000000000004,9.5,-0.1,0.2,0.30000000000000004,0.9
1698415439413.0,16,0.0,0.0,0.0,-0.30000000000000004,9.5,-0.1,0.30000000000000004,0.4,0.9
1698415439429.0,16,0.0,0.0,0.0,-0.30000000000000004,9.5,-0.1,0.30000000000000004,0.30000000000000004,0.7
1698415439446.0,16,0.0,0.0,0.0,-0.30000000000000004,9.5,-0.1,0.2,0.2,0.8
1698415439463.0,16,0.0,0.0,0.0,-0.30000000000000004,9.5,-0.1,0.2,0.2,0.7
1698415439479.0,16,0.0,0.0,0.0,-0.30000000000000004,9.5,-0.1,0.30000000000000004,0.2,0.7
1698415439495.0,16,0.0,0.0,0.0,-0.30000000000000004,9.5,-0.1,0.30000000000000004,0.5,0.6000000000000001
1698415439514.0,16,0.0,0.0,0.0,-0.2,9.5,-0.1,0.2,0.6000000000000001,0.6000000000000001
1698415439529.0,16,0.0,0.0,0.0,-0.30000000000000004,9.5,-0.1,0.5,0.4,0.7
1698415439546.0,16,0.0,0.0,0.0,-0.30000000000000004,9.5,-0.1,0.5,0.5,0.7
1698415439563.0,16,0.0,0.0,0.0,-0.2,9.5,-0.1,0.5,0.6000000000000001,0.6000000000000001
1698415439580.0,16,0.0,0.0,0.0,-0.2,9.5,-0.1,1.0,0.8,0.7
1698415439596.0,16,0.0,0.0,0.0,-0.30000000000000004,9.5,-0.1,1.4,0.9,0.7
1698415439612.0,16,-0.1,0.0,0.0,-0.30000000000000004,9.5,-0.1,1.6,0.9,0.7
1698415439629.0,16,0.0,0.0,0.0,-0.30000000000000004,9.5,-0.1,1.6,-0.1,0.5
1698415439645.0,16,0.1,0.0,0.0,-0.2,9.5,-0.1,1.9,0.0,0.4
1698415439662.0,16,0.0,0.0,0.0,-0.2,9.5,-0.1,2.1,0.2,0.2
1698415439679.0,16,0.0,0.0,0.0,-0.2,9.5,-0.1,2.3000000000000003,0.30000000000000004,0.1
1698415439696.0,16,0.0,0.0,0.0,-0.2,9.5,-0.1,2.4000000000000004,-0.1,-0.1
1698415439712.0,16,0.0,0.0,0.0,-0.30000000000000004,9.5,-0.1,1.9,0.2,0.1
1698415439729.0,16,0.0,0.0,0.0,-0.30000000000000004,9.5,-0.2,2.1999999999999997,0.30000000000000004,0.0
1698415439746.0,16,0.0,0.0,0.0,-0.2,9.5,-0.1,2.1999999999999997,-0.30000000000000004,-0.1
1698415439762.0,16,0.0,0.0,0.0,-0.2,9.5,-0.2,2.1,0.2,-0.30000000000000004
1698415439779.0,16,0.0,0.0,-0.1,-0.30000000000000004,9.5,-0.2,1.7,0.30000000000000004,-0.2
1698415439795.0,16,0.0,0.0,0.0,-0.30000000000000004,9.5,-0.2,1.5000000000000002,0.30000000000000004,0.1
1698415439812.0,16,0.0,0.0,-0.1,-0.30000000000000004,9.5,-0.2,1.4,0.30000000000000004,0.1
1698415439829.0,16,0.0,0.0,-0.1,-0.30000000000000004,9.5,-0.2,0.8,-0.2,0.1
1698415439846.0,16,0.0,0.0,-0.1,-0.2,9.5,-0.30000000000000004,0.6000000000000001,-0.5,-0.30000000000000004
1698415439863.0,16,0.0,0.1,-0.1,-0.2,9.600000000000001,-0.30000000000000004,0.5,-0.7,-0.30000000000000004
1698415439880.0,16,0.0,0.0,-0.1,-0.2,9.600000000000001,-0.30000000000000004,0.4,-0.8,-0.4
1698415439896.0,16,0.0,0.1,-0.1,-0.30000000000000004,9.600000000000001,-0.2,0.0,-0.8,-0.30000000000000004
1698415439913.0,16,0.0,0.0,0.0,-0.30000000000000004,9.600000000000001,-0.2,-0.30000000000000004,-0.7,-0.30000000000000004
1698415439930.0,16,0.0,0.0,0.0,-0.2,9.5,-0.2,-0.30000000000000004,-1.0,-0.5
1698415439946.0,16,0.0,0.0,0.0,-0.2,9.5,-0.2,-0.6000000000000001,-0.9,-0.6000000000000001
1698415439964.0,16,0.0,0.0,0.0,-0.2,9.5,-0.1,-0.8,-0.9,-0.7
1698415439979.0,16,0.0,0.0,0.0,-0.30000000000000004,9.5,-0.2,-0.9,-0.5,-0.6000000000000001
1698415439996.0,16,0.0,0.0,0.0,-0.30000000000000004,9.5,-0.2,-0.8,-0.8,-0.7
1698415440012.0,16,0.0,0.0,0.0,-0.2,9.5,-0.2,-0.9,-0.9,-0.7
1698415440029.0,16,0.0,0.0,0.0,-0.2,9.5,-0.2,-1.0999999999999999,-0.9,-0.9
1698415440046.0,16,0.0,0.0,0.0,-0.2,9.5,-0.2,-1.0,-0.4,-1.0
1698415440062.0,16,0.0,0.0,0.0,-0.2,9.5,-0.2,-1.0999999999999999,-0.4,-1.0
1698415440080.0,16,0.0,0.0,0.0,-0.30000000000000004,9.5,-0.2,-1.0999999999999999,-0.30000000000000004,-1.0
1698415440096.0,16,0.0,0.0,0.0,-0.30000000000000004,9.5,-0.2,-1.4,-0.4,-1.0
1698415440112.0,16,0.0,0.0,0.0,-0.30000000000000004,9.5,-0.2,-1.4,-0.4,-1.0
1698415440129.0,16,0.0,0.0,0.0,-0.30000000000000004,9.5,-0.2,-1.4,-0.5,-1.0999999999999999
1698415440146.0,16,0.0,0.0,0.0,-0.30000000000000004,9.5,-0.1,-1.2000000000000002,0.0,-1.0
1698415440162.0,16,0.0,0.0,0.0,-0.30000000000000004,9.5,-0.1,-1.0,-0.4,-0.9
1698415440179.0,16,0.0,0.0,0.0,-0.30000000000000004,9.5,-0.1,-0.9,-0.2,-1.0
1698415440196.0,16,0.0,0.0,0.0,-0.30000000000000004,9.5,-0.2,-1.0,-0.1,-0.9
1698415440213.0,16,0.0,0.0,0.0,-0.30000000000000004,9.5,-0.1,-1.2000000000000002,0.0,-0.8
1698415440229.0,16,0.0,0.0,0.0,-0.30000000000000004,9.5,-0.1,-0.9,0.2,-0.9
1698415440245.0,16,0.0,0.0,0.0,-0.30000000000000004,9.5,-0.1,-1.0999999999999999,0.2,-0.7
1698415440262.0,16,0.0,0.0,0.0,-0.30000000000000004,9.5,-0.1,-1.0,-0.1,-0.7
1698415440281.0,16,0.0,0.0,0.0,-0.30000000000000004,9.5,-0.1,-0.8,0.0,-0.5
1698415440296.0,16,0.0,0.0,0.0,-0.30000000000000004,9.5,-0.1,-0.8,0.1,-0.6000000000000001
1698415440313.0,16,0.0,0.0,0.0,-0.30000000000000004,9.5,-0.1,-0.7,0.2,-0.5
1698415440329.0,16,0.0,0.0,0.0,-0.30000000000000004,9.5,-0.1,-0.6000000000000001,0.2,-0.30000000000000004
1698415440346.0,16,0.0,0.0,0.0,-0.30000000000000004,9.5,-0.1,-0.8,-0.1,-0.30000000000000004
1698415440363.0,16,0.0,0.0,0.0,-0.30000000000000004,9.5,-0.1,-0.30000000000000004,-0.30000000000000004,-0.30000000000000004
1698415440379.0,16,0.0,0.0,0.0,-0.30000000000000004,9.5,-0.1,-0.2,-0.30000000000000004,-0.4
1698415440396.0,16,0.0,0.0,0.0,-0.30000000000000004,9.5,-0.2,-0.5,-0.1,-0.4
1698415440412.0,16,0.0,0.0,0.0,-0.30000000000000004,9.5,-0.1,-0.8,-0.5,-0.4
1698415440429.0,16,0.0,0.0,0.0,-0.30000000000000004,9.5,-0.1,-0.6000000000000001,-0.6000000000000001,-0.2
1698415440446.0,16,0.0,0.0,0.0,-0.30000000000000004,9.5,-0.1,-0.6000000000000001,-0.4,-0.2
1698415440463.0,16,0.0,0.0,0.0,-0.30000000000000004,9.600000000000001,-0.2,-0.6000000000000001,-0.6000000000000001,-0.2
1698415440479.0,16,0.0,0.0,0.0,-0.30000000000000004,9.5,-0.1,-0.5,-0.9,-0.2
1698415440498.0,16,0.0,0.0,0.0,-0.30000000000000004,9.5,-0.1,-0.4,-0.7,-0.2
1698415440513.0,16,0.0,0.0,0.0,-0.30000000000000004,9.5,-0.1,-0.4,-0.4,-0.1
1698415440529.0,16,0.0,0.0,0.0,-0.30000000000000004,9.5,-0.1,-0.30000000000000004,-0.9,0.0
1698415440546.0,16,0.0,0.0,0.0,-0.30000000000000004,9.5,-0.1,-0.2,-0.9,0.1
1698415440563.0,16,0.0,0.0,0.0,-0.30000000000000004,9.5,-0.1,-0.30000000000000004,-0.6000000000000001,0.2
1698415440579.0,16,0.0,0.0,0.0,-0.30000000000000004,9.5,-0.1,-0.5,-0.6000000000000001,0.0
1698415440596.0,16,0.0,0.0,0.0,-0.30000000000000004,9.5,-0.1,-0.1,-0.30000000000000004,-0.1
1698415440613.0,16,0.0,0.0,0.0,-0.30000000000000004,9.5,-0.1,-0.30000000000000004,-0.1,-0.1
1698415440629.0,16,0.0,0.0,0.0,-0.30000000000000004,9.5,-0.1,-0.5,0.0,-0.1
1698415440646.0,16,0.0,0.0,0.0,-0.30000000000000004,9.5,-0.1,-0.4,0.2,0.1
1698415440662.0,16,0.0,0.0,0.0,-0.30000000000000004,9.5,-0.1,-0.2,0.2,0.2
1698415440680.0,16,0.0,0.0,0.0,-0.30000000000000004,9.5,-0.1,-0.2,0.7,0.0
1698415440698.0,16,0.0,0.0,0.0,-0.30000000000000004,9.5,-0.1,-0.30000000000000004,0.7,0.1
1698415440713.0,16,0.0,0.0,0.0,-0.30000000000000004,9.5,-0.1,-0.6000000000000001,1.2000000000000002,0.2
1698415440729.0,16,0.0,0.0,0.0,-0.30000000000000004,9.5,-0.1,-0.9,0.8,0.1
1698415440746.0,16,0.0,0.0,0.0,-0.30000000000000004,9.5,-0.1,-0.8,0.5,0.0
1698415440762.0,16,0.0,0.0,0.0,-0.30000000000000004,9.5,-0.1,-0.6000000000000001,0.5,-0.1
1698415440779.0,16,0.0,0.0,0.0,-0.4,9.5,-0.1,-0.7,0.30000000000000004,0.0
1698415440797.0,16,0.0,0.0,0.0,-0.4,9.5,-0.1,-0.8,0.1,0.1
1698415440813.0,16,0.0,0.0,0.0,-0.30000000000000004,9.5,-0.1,-0.5,0.0,0.2
1698415440829.0,16,0.0,0.0,0.0,-0.30000000000000004,9.5,-0.1,-0.6000000000000001,-0.30000000000000004,0.4
1698415440846.0,16,0.0,0.0,0.0,-0.30000000000000004,9.5,0.0,-0.6000000000000001,-0.30000000000000004,0.4
1698415440862.0,16,0.0,0.0,0.0,-0.30000000000000004,9.5,-0.1,-0.6000000000000001,-0.1,0.4
1698415440879.0,16,0.0,0.0,0.0,-0.30000000000000004,9.5,0.0,-0.7,-0.1,0.30000000000000004
1698415440897.0,16,0.0,0.0,0.0,-0.30000000000000004,9.5,-0.1,-1.0,0.2,0.30000000000000004
1698415440913.0,16,0.0,0.0,0.0,-0.30000000000000004,9.5,-0.1,-0.8,0.0,0.2
1698415440930.0,16,0.0,0.0,0.0,-0.30000000000000004,9.5,-0.1,-0.9,-0.2,0.2
1698415440946.0,16,0.0,0.0,0.0,-0.30000000000000004,9.5,-0.1,-0.8,0.0,-0.1
1698415440962.0,16,0.0,0.0,0.0,-0.30000000000000004,9.5,0.0,-0.7,0.1,0.1
1698415440979.0,16,0.0,0.0,0.0,-0.30000000000000004,9.5,-0.1,-0.6000000000000001,0.1,0.1
1698415440995.0,16,0.0,0.0,0.0,-0.30000000000000004,9.5,-0.1,-0.8,0.30000000000000004,0.0
1698415441013.0,16,0.0,0.0,0.0,-0.30000000000000004,9.5,0.0,-0.4,0.4,0.1
1698415441029.0,16,0.0,0.0,0.0,-0.30000000000000004,9.5,-0.1,0.0,0.2,0.1
1698415441046.0,16,0.0,0.0,0.0,-0.30000000000000004,9.5,0.0,0.0,0.30000000000000004,0.1
1698415441062.0,16,0.0,0.0,0.0,-0.30000000000000004,9.5,-0.1,-0.2,0.30000000000000004,-0.1
1698415441079.0,16,0.0,0.0,0.0,-0.30000000000000004,9.5,-0.1,-0.30000000000000004,0.30000000000000004,0.1
1698415441096.0,16,0.0,0.0,0.0,-0.30000000000000004,9.5,0.0,-0.1,0.1,0.1
1698415441112.0,16,0.0,0.0,0.0,-0.30000000000000004,9.5,-0.1,-0.30000000000000004,0.1,0.1
1698415441129.0,16,0.0,0.0,0.0,-0.30000000000000004,9.5,-0.1,-0.1,0.0,-0.1
1698415441146.0,16,0.0,0.0,0.0,-0.30000000000000004,9.5,-0.1,0.1,0.0,-0.1
1698415441162.0,16,0.0,0.0,0.0,-0.30000000000000004,9.5,-0.1,0.1,-0.4,0.1
1698415441180.0,16,0.0,0.0,0.0,-0.30000000000000004,9.5,0.0,0.30000000000000004,-0.30000000000000004,0.1
1698415441196.0,16,0.0,0.0,0.0,-0.30000000000000004,9.5,0.0,0.5,-0.1,0.2
1698415441212.0,16,0.0,0.0,0.0,-0.30000000000000004,9.5,-0.1,0.2,0.6000000000000001,-0.1
1698415441229.0,16,0.0,0.0,0.0,-0.30000000000000004,9.5,0.0,0.1,0.0,-0.1
1698415441245.0,16,0.0,0.0,0.0,-0.30000000000000004,9.5,-0.1,0.30000000000000004,0.0,-0.1
1698415441262.0,16,0.0,0.0,0.0,-0.30000000000000004,9.5,-0.1,-0.1,0.2,0.1
1698415441279.0,16,0.0,0.0,0.0,-0.30000000000000004,9.600000000000001,0.0,0.0,-0.1,-0.1
1698415441296.0,16,0.0,0.0,0.0,-0.30000000000000004,9.5,0.0,0.4,-0.1,-0.1
1698415441312.0,16,0.0,0.0,0.0,-0.30000000000000004,9.5,-0.1,0.30000000000000004,-0.2,-0.2
1698415441329.0,16,0.0,0.0,0.0,-0.30000000000000004,9.5,-0.1,0.2,0.0,0.0
1698415441345.0,16,0.0,0.0,0.0,-0.30000000000000004,9.5,-0.1,0.6000000000000001,-0.6000000000000001,0.0
1698415441362.0,16,0.0,0.0,0.0,-0.30000000000000004,9.5,-0.1,0.4,-0.4,0.1
1698415441379.0,16,0.0,0.0,0.0,-0.30000000000000004,9.5,-0.1,0.5,-0.4,0.1
1698415441396.0,16,0.0,0.0,0.0,-0.30000000000000004,9.5,-0.1,0.5,-0.30000000000000004,-0.1
1698415441412.0,16,0.0,0.0,0.0,-0.30000000000000004,9.5,-0.1,0.6000000000000001,0.0,0.0
1698415441429.0,16,0.0,0.0,0.0,-0.30000000000000004,9.600000000000001,-0.1,0.30000000000000004,0.0,-0.2
1698415441445.0,16,0.0,0.0,0.0,-0.30000000000000004,9.5,-0.1,0.0,-0.1,-0.2
1698415441462.0,16,0.0,0.0,0.0,-0.30000000000000004,9.5,-0.1,0.2,-0.1,-0.2
1698415441479.0,16,0.0,0.0,-0.1,-0.30000000000000004,9.5,-0.1,-0.1,0.0,-0.30000000000000004
1698415441495.0,16,0.0,0.0,-0.1,-0.30000000000000004,9.5,-0.1,-0.2,0.0,-0.2
1698415441512.0,16,0.0,0.0,0.0,-0.30000000000000004,9.5,-0.1,0.2,0.1,-0.2
1698415441529.0,16,0.0,0.0,0.0,-0.30000000000000004,9.5,-0.1,0.6000000000000001,0.6000000000000001,-0.2
1698415441546.0,16,0.0,0.0,0.0,-0.30000000000000004,9.5,-0.1,0.0,0.30000000000000004,-0.4
1698415441562.0,16,0.0,0.0,0.0,-0.30000000000000004,9.5,-0.1,-0.1,0.1,-0.4
1698415441579.0,16,0.0,0.0,0.0,-0.30000000000000004,9.600000000000001,-0.1,0.0,0.1,-0.4
1698415441596.0,16,0.0,0.0,0.0,-0.30000000000000004,9.5,-0.1,-0.4,-0.1,-0.5
1698415441612.0,16,0.0,0.0,0.0,-0.30000000000000004,9.5,-0.1,-0.30000000000000004,-0.1,-0.5
1698415441630.0,16,0.0,0.0,-0.1,-0.30000000000000004,9.5,-0.1,-0.8,0.0,-0.6000000000000001
1698415441645.0,16,0.0,0.0,-0.1,-0.4,9.600000000000001,-0.2,-1.2000000000000002,0.5,-0.8
1698415441662.0,16,-0.1,0.1,-0.1,-0.4,9.600000000000001,-0.1,-1.3,0.30000000000000004,-0.7
1698415441679.0,16,0.0,0.1,-0.30000000000000004,-0.30000000000000004,9.600000000000001,-0.4,-2.0,-0.5,-0.7
1698415441695.0,16,-0.1,0.2,-0.1,-0.4,9.700000000000001,-0.2,-2.9,-0.9,-1.0
1698415441712.0,16,0.0,0.1,-0.1,-0.4,9.700000000000001,-0.2,-2.8,-1.3,-1.2000000000000002
1698415441729.0,16,0.0,0.1,-0.1,-0.4,9.700000000000001,-0.2,-4.1000000000000005,-1.2000000000000002,-1.4
1698415441745.0,16,0.1,0.1,-0.1,-0.30000000000000004,9.700000000000001,-0.2,-5.300000000000001,-0.6000000000000001,-1.4
1698415441763.0,16,0.1,0.1,-0.1,-0.30000000000000004,9.700000000000001,-0.2,-5.0,-1.2000000000000002,-1.6
1698415441779.0,16,0.1,0.0,-0.2,-0.30000000000000004,9.5,-0.2,-4.6000000000000005,-0.6000000000000001,-1.2000000000000002
1698415441797.0,16,0.1,0.0,-0.1,-0.30000000000000004,9.600000000000001,-0.2,-5.0,0.1,-1.2000000000000002
1698415441813.0,16,0.0,0.0,-0.2,-0.30000000000000004,9.600000000000001,-0.2,-5.300000000000001,0.30000000000000004,-1.0
1698415441829.0,16,0.0,0.0,-0.1,-0.30000000000000004,9.600000000000001,-0.1,-5.6,0.4,-1.0
1698415441846.0,16,0.0,0.1,0.0,-0.30000000000000004,9.700000000000001,0.0,-5.8,0.30000000000000004,-1.3
1698415441863.0,16,0.1,0.1,-0.1,-0.30000000000000004,9.600000000000001,-0.1,-6.2,0.6000000000000001,-1.3
1698415441879.0,16,0.0,0.1,-0.1,-0.30000000000000004,9.700000000000001,-0.1,-7.400000000000001,1.7,-1.0999999999999999
1698415441896.0,16,0.0,0.1,-0.2,-0.4,9.700000000000001,-0.1,-7.500000000000001,2.0,-0.9
1698415441913.0,16,0.0,0.1,-0.2,-0.4,9.700000000000001,-0.1,-8.0,1.6,-1.2000000000000002
1698415441929.0,16,-0.1,0.1,-0.2,-0.5,9.700000000000001,-0.1,-9.600000000000001,1.6,-1.2000000000000002
1698415441946.0,16,-0.1,0.1,-0.1,-0.5,9.700000000000001,-0.1,-11.700000000000001,0.5,-0.6000000000000001
1698415441963.0,16,-0.1,0.1,-0.2,-0.5,9.700000000000001,-0.1,-12.4,0.1,-0.6000000000000001
1698415441979.0,16,0.0,0.1,-0.2,-0.4,9.700000000000001,-0.1,-13.4,-0.4,-0.7
1698415441996.0,16,0.0,0.0,-0.2,-0.4,9.600000000000001,0.0,-14.500000000000002,0.6000000000000001,-0.2
