ts,interval,accx,accy,accz,accGx,accGy,accGz,alpha,beta,gamma
1698415427053.0,0.01666666753590107,-0.07814005525708198,0.15927520067691803,0.09587444939017295,0.5874770862303674,-5.145138198632002,-8.125472106280922,-4.715181819930575,-14.183064542676252,-7.517791997720751
1698415427174.0,0.01666666753590107,-0.014637158770114183,-0.014980711510777473,0.12115151398777961,0.7852981445312499,-6.123320383453369,-7.508964594268798,-6.658981513843096,-6.069685598859089,-6.756556315665429
1698415427191.0,0.01666666753590107,0.1516255627065897,-0.10640051957964897,0.004777881926298141,0.9572317512512206,-6.192002874535322,-7.642889665111899,-8.642925644602366,-3.146073924167083,-10.674762634934943
1698415427206.0,0.01666666753590107,0.23768011741526424,-0.2401870587348938,-0.14402970075011254,1.0537480056762694,-6.312611952209473,-7.801057196807861,-8.439018030894452,0.5553913361917391,-12.737229608600442
1698415427224.0,0.01666666753590107,0.08816548244804144,-0.42538405165374277,-0.22860183488130567,0.9367313995361327,-6.479008967590332,-7.89697490081787,-2.5993738436116267,-0.3252198575365538,-16.912823922779072
1698415427240.0,0.01666666753590107,-0.14704597983136772,0.04768938741385936,0.21973697590231894,0.706738402557373,-5.9956795074462885,-7.456142520141601,-3.446137581340672,-20.873300575274502,-10.37946196749038
1698415427257.0,0.01666666753590107,-0.22292941526807844,0.6153127492696047,0.46627544949054717,0.5418377632141113,-5.588964500427246,-7.089680028533935,-14.266242586388667,-34.47677319423004,-1.778556073548756
1698415427274.0,0.01666666753590107,-0.08783676195032894,0.02416764205098152,0.14626958863139153,0.6525697361268102,-6.124966397094727,-7.457040930286049,-24.045966133427736,-40.32948033174393,-0.3899452914325334
1698415427291.0,0.01666666753590107,0.5454126260261982,-0.5648667566239833,0.41756081068217754,1.2181997322082518,-6.644657794952392,-7.247547115978598,-25.709737035993022,-19.85214289812799,-12.385981154117014
1698415427307.0,0.01666666753590107,0.3110148182172328,-0.3361637994557619,0.4002461032658815,0.9765349290709942,-6.3627405494689935,-7.307402157482504,-24.377897959164724,-8.490686704418305,-12.705503379905734
1698415427324.0,0.01666666753590107,-0.6034838528532535,0.584575081178546,0.10882920803129673,0.06599018325805664,-5.398924743652343,-7.631966120037436,-15.77612335053804,-2.4736153333962942,-3.011350790666109
1698415427341.0,0.01666666753590107,-0.8743097954798489,0.6132733523964882,0.22254852619171142,-0.22714980944208799,-5.349394696807861,-7.536198638153076,-1.0697535125958,-8.599487349028378,9.998754907116686
1698415427357.0,0.01666666753590107,-0.566708329370059,0.42799335736930366,0.3162029614448547,0.0401029508728534,-5.539134593853354,-7.442375276073813,2.3463676284984873,-15.598154233976894,9.008189647262663
1698415427374.0,0.01666666753590107,-0.008043897984921932,0.06444938355684281,0.4436562059253454,0.5554548582214862,-5.904250931549072,-7.316979548645019,-2.6567147757977647,-16.099206666205276,3.334819158247804
1698415427392.0,0.01666666753590107,-0.15871559403277932,-0.09142156163454056,0.5051753812491894,0.36496622516792265,-6.040122460284829,-7.273584059032798,-11.564475882825498,-13.324460245134166,1.9251353482318145
1698415427408.0,0.01666666753590107,-0.5378557809058576,-0.06266834535896777,0.5139087228029966,-0.0321720117431134,-5.98221212310791,-7.288249128723144,-16.505611459557496,-6.341552741034985,-2.5322437562409794
1698415427424.0,0.01666666753590107,0.004736015545949339,0.0647889907747507,0.5838146182000636,0.5003882200378924,-5.820304235839844,-7.245003276714682,-16.075126834286394,-7.18586102575741,-1.9148127979618097
1698415427441.0,0.01666666753590107,-0.16079557864461094,0.028529344391822812,0.4963987850755453,0.31977563229985534,-5.821052423858642,-7.359925540924072,-9.588048802134649,-5.466379685226918,0.3077024233474545
1698415427459.0,0.01666666753590107,-0.07229169455505907,0.1387456228673458,0.4297825788736343,0.39758722278755154,-5.693411547851563,-7.440131296539306,-8.449076338220943,-3.0081881996369813,1.8596792975380552
1698415427474.0,0.01666666753590107,-0.09365680987332016,0.22221651775836943,0.3147761435121298,0.3705027799744159,-5.589862326049804,-7.570315427288413,-11.740473636037448,1.114263507539246,3.0550832112612314
1698415427491.0,0.01666666753590107,-0.21631613460816443,0.10061901356875896,0.5638841753274202,0.2124854704041034,-5.722740518188476,-7.314884622192382,-17.684520893321913,-1.27786275986033,2.5826091442938304
1698415427508.0,0.01666666753590107,-0.23867599658481775,0.030125673672556877,0.6913473566800356,0.18225863791201263,-5.754163830456137,-7.216572132000326,-19.681062027344804,-3.6441744340135487,1.1855222308197544
1698415427524.0,0.01666666753590107,-0.2886172911113128,-0.049127895784378046,0.8643523920238018,0.12120653211064636,-5.793668742370605,-7.073070254516601,-18.41820956868093,-5.6091861341671905,0.8186502522184496
1698415427541.0,0.01666666753590107,-0.23846257302984594,-0.05303133296370506,0.9016308600604533,0.1541268414704129,-5.751321300506591,-7.069927864837646,-15.309898052887554,-4.080239750723374,2.310833996228319
1698415427558.0,0.01666666753590107,-0.26435850017815826,0.010026888495683669,1.0224772536218165,0.1167174039978534,-5.655702287182211,-6.972813059997558,-17.025795251651083,-2.293802492646069,3.907984941176591
1698415427594.0,0.01666666753590107,-0.1277593512875959,-0.19488076706528662,1.1820756949037312,0.2368763998169452,-5.753416226959228,-6.888866364288329,-26.96893534345094,-0.5108127191914758,-0.8323611099253097
1698415427607.0,0.01666666753590107,-0.047621655939891934,-0.3742237732589245,1.1399106238692998,0.3247137097565457,-5.874173773193359,-6.9707181335449215,-27.397580940288016,2.93239359041735,-5.942444297263629
1698415427624.0,0.01666666753590107,-0.16764741730075328,-0.313444018125534,1.0692015953958034,0.21906952496953308,-5.758503905487061,-7.077709020233154,-23.844296260446647,1.2013602655662503,-5.305084341090243
1698415427640.0,0.01666666753590107,-0.1367081256903708,-0.20082301659584045,1.0452402895718813,0.24480722934883087,-5.577143129730224,-7.147440143585205,-25.58497167797169,-9.348169143389217,-1.9112709179903349
1698415427657.0,0.01666666753590107,-0.07836736120693386,-0.343778366112709,1.003776060283184,0.28191735508125276,-5.6592941741943354,-7.229441550445556,-30.897771144616286,-10.637308438847532,0.7298648366408653
1698415427675.0,0.01666666753590107,0.019198767597228286,-0.3977764982819557,0.9436316804438829,0.3538930424897,-5.643133312988281,-7.33553461151123,-33.41687468411122,-10.299157725871249,3.1875826913005434
1698415427702.0,0.01666666753590107,0.06851703485455364,-0.44868952391743655,0.9004401889711617,0.3739444813935086,-5.603479347991943,-7.436539994049072,-28.25197613375408,-4.546014255888638,2.773204505865978
1698415427707.0,0.01666666753590107,-0.07616725734677166,-0.5244301168173551,1.0433972920536994,0.21966807538457214,-5.622632961273193,-7.3286512817382805,-24.594140040740037,-1.2454484963284478,4.556864011385203
1698415427724.0,0.01666666753590107,-0.1492341192591004,-0.727846657037735,1.4258797750920056,0.1327286641327664,-5.774365491485596,-6.97790073852539,-22.573981820114536,-6.5083562058504505,4.552851702134644
1698415427740.0,0.01666666753590107,0.05970423485636711,-1.0050742834001778,1.690764052709937,0.30481190845649686,-5.991938567352294,-6.749703392791748,-19.100630844129828,-13.149225765561965,2.684007144504078
1698415427757.0,0.01666666753590107,0.02755416095042601,-0.8815326594054699,1.7758891445487737,0.23956991321723906,-5.824344451141357,-6.691344142803549,-21.468833306744376,-13.623392011896236,1.7761924012091084
1698415427774.0,0.01666666753590107,-0.03106406876752153,-0.74748513122648,1.8478548950850961,0.15278010303657502,-5.6377463592529296,-6.650493661499023,-26.25983364155668,-9.602823355083034,0.8742758464275623
1698415427791.0,0.01666666753590107,-0.1838924313926138,-0.6804089062973857,1.9253589905261992,-0.015113270115572959,-5.482272596685588,-6.623558892822265,-33.227541840318466,-0.0730682965237386,1.4202652671442202
1698415427808.0,0.01666666753590107,-0.09277255611838772,-0.6744897453814744,1.8807196383327245,0.0770634755341336,-5.396680179595947,-6.712443629455566,-37.79743358377182,2.6955456818897567,1.6842751304536618
1698415427824.0,0.01666666753590107,0.1805366181586869,-0.8481351244553923,1.8421955541491508,0.35628724414985624,-5.484816728210449,-6.797288150787353,-37.475537013472874,3.779575250346235,1.0783657408089515
1698415427841.0,0.01666666753590107,0.14537707850476725,-0.992580420269072,1.7699030558764934,0.3265093427353538,-5.522974024908244,-6.925676630291342,-33.06738756466001,-0.3604568835059289,0.17895725283497518
1698415427858.0,0.01666666753590107,0.0735766197990626,-0.9955708342567086,1.7450532767802476,0.24914671985786407,-5.452495298059285,-6.988524423870444,-32.07710917275112,-5.407495770618591,-1.057807298294036
1698415427874.0,0.01666666753590107,-0.11403406493170186,-0.9558011339262127,1.3967483731538057,0.043694289895705875,-5.336525862884521,-7.375637489318847,-34.88024271378645,-11.802636895221026,-2.2619699691324016
1698415427890.0,0.01666666753590107,-0.06568049625437707,-1.1332178482323885,0.47670156643688677,0.05566530732964165,-5.399523294067382,-8.352471766662598,-38.96328540339047,-13.334834448709769,-4.641996769860712
1698415427908.0,0.01666666753590107,-0.060866666231863195,-1.2390505047962068,0.05189034623503685,0.040851184557424855,-5.416133068084717,-8.820089278411865,-37.25743199780145,-7.562802944351135,-3.802978466650461
1698415427924.0,0.01666666753590107,-0.0010987458889838307,-1.0862529757007955,-0.8248211766242981,0.09487035951470024,-5.184344712121784,-9.733626849365233,-30.36407382324983,1.1299775316636238,-0.3179031774707363
1698415427941.0,0.01666666753590107,-0.08478204142167232,-0.932702582411468,-1.1931237431406974,0.031124740313040092,-4.949712657165527,-10.13854562061727,-23.365918348715418,13.319860112728163,6.657683777900793
1698415427958.0,0.01666666753590107,-0.12850043371217323,-0.8165244729220866,-1.2739005766421556,0.013766769143752753,-4.778527238464355,-10.243442165374756,-24.433128576340742,15.131976747650599,9.887549182145124
1698415427974.0,0.01666666753590107,0.08182566670095548,-0.817462046033144,-1.0804413668125867,0.24106628925483672,-4.716278287561238,-10.077344425201415,-30.33383999088877,7.353350924584463,11.682563023385848
1698415427991.0,0.01666666753590107,0.34040056024268267,-0.8662447816416621,-1.2768775466263294,0.4758476986870635,-4.657769692230224,-10.319906980895995,-36.767799641865324,-11.274078437431358,14.38852260932576
1698415428007.0,0.01666666753590107,0.4644328538311645,-0.950235316492617,-1.4541110133200883,0.5541081563202664,-4.659415998132527,-10.531793827819824,-32.00240397870411,-13.111742541170582,13.299637630143048
1698415428024.0,0.01666666753590107,0.21256145824976264,-0.7929808079883456,-1.8479981029480694,0.2696470761395292,-4.436306038665771,-10.952574185070395,-23.874986007934808,-4.935224048005352,8.876816081219344
1698415428041.0,0.01666666753590107,-0.1608928832729347,0.13038140688687563,-2.477542791187763,-0.10773896510917692,-3.453785824640095,-11.605593272399902,-12.769894134532382,7.769866105455595,3.5749876059290813
1698415428058.0,0.01666666753590107,-0.33521563188545406,0.37236937756389377,-2.4816239230215547,-0.25677803672021254,-3.1911715377807615,-11.617564280700682,-5.252441511836016,14.238903046688398,3.479667620306499
1698415428074.0,0.01666666753590107,-0.384183733998239,0.8750508961707353,-2.591278475961089,-0.2808696909255348,-2.6770170235231516,-11.731438497161864,-6.348266816989107,8.680020401984706,4.228187197674551
1698415428091.0,0.01666666753590107,-0.19943320620525626,1.2180012870267032,-3.220311123025417,-0.10040673165810293,-2.292597727203369,-12.376526206970214,-20.143585362465142,-10.212918049863374,1.9356062416728557
1698415428110.0,0.01666666753590107,-0.08708154140254482,1.1658122501060366,-3.921449805879593,-0.025438278474728574,-2.2903534554079172,-13.098677282714842,-23.929856332632106,-18.328626515074333,-1.3612819946278114
1698415428124.0,0.01666666753590107,-0.35987043639887123,1.5463924066543577,-5.284409891200065,-0.33144717588016065,-1.8562544746398926,-14.481777069744467,-19.82403154705151,-9.577567876853266,-5.0150164523235565
1698415428141.0,0.01666666753590107,-0.7275218089975416,2.1521581598997113,-6.116038994273543,-0.6920738123576389,-1.20338590169698,-15.330671195873617,-9.488954710108812,9.866927987267209,-2.3323695826813693
1698415428158.0,0.01666666753590107,-0.7643061368416995,2.10734462018311,-6.286323080220818,-0.6947672755255829,-1.2340616104677318,-15.505897414398193,-2.762945134845796,16.871783023603758,0.4979422415567916
1698415428174.0,0.01666666753590107,-0.5743722515940666,1.5947992946878076,-5.8350470469415185,-0.4480148577925749,-1.7392381607607006,-15.056685327911376,-4.6820925416096255,16.868665042247645,-5.544645969152447
1698415428191.0,0.01666666753590107,-0.7004039388388394,1.2946183705002068,-4.8719238995641465,-0.52777170059653,-2.018910549926758,-14.100201180157065,-12.674493467300229,15.70852326077513,-10.389021671007459
1698415428208.0,0.01666666753590107,-0.8566292504258454,1.078508937445283,-4.250821460977196,-0.6602009433913044,-2.2002713256835937,-13.491027079772948,-14.945090819128003,-1.3814235821599443,-3.4491232277816137
1698415428224.0,0.01666666753590107,-0.6509362897060811,0.980000924681127,-3.2192607371896504,-0.4739022180419415,-2.240374495752156,-12.480374119457602,-21.057679824371704,-12.693143298828948,-5.543517707278926
1698415428241.0,0.01666666753590107,-0.6757714557550847,0.5326110851854086,-2.938363482403755,-0.532260846975632,-2.6333228432253,-12.218808172607421,-23.38499335951997,-16.619991514945823,-3.1007282982673687
1698415428258.0,0.01666666753590107,-0.7223845191743224,0.3812622935935855,-2.89560804426074,-0.6190506662894506,-2.7252000396728513,-12.196661807250976,-25.5647201670826,-16.867980315783353,-1.0855977372012313
1698415428275.0,0.01666666753590107,-0.9740906777240336,0.2098418970927596,-3.1626363481700417,-0.910844002754148,-2.807799704687297,-12.49324295338094,-29.608272410452898,-7.147340039499007,-4.608057132988095
1698415428291.0,0.01666666753590107,-1.3261651630170643,-0.06715542764514684,-2.943168252336979,-1.2665325640582246,-3.0071172851562498,-12.298565015411377,-33.389734927444174,-0.6990521457476453,-7.449960535299708
1698415428308.0,0.01666666753590107,-1.412264506715536,-0.23823124849200247,-2.735879839119315,-1.3525742090529762,-3.095852676446736,-12.116755326843261,-33.104270586178075,-6.042283306795821,-8.753053053458713
1698415428324.0,0.01666666753590107,-1.1700996451016514,-0.2740960503384471,-2.517414198327064,-1.1230300837863003,-3.0195372062683106,-11.931803248596191,-35.20214611427457,-5.255576568665052,-10.18542739222772
1698415428341.0,0.01666666753590107,-1.5235520676843821,-0.06676818189322949,-2.249846380713582,-1.4832078051692106,-2.728791634424031,-11.688193229675292,-32.30414807585693,-3.0711053409502003,-5.6714134263742375
1698415428358.0,0.01666666753590107,-1.545905207659304,-0.045343993331491944,-2.0528449682325123,-1.5104418764529517,-2.6306293663576246,-11.512518682861327,-29.199881739599498,-4.502412462661392,-4.532197210084525
1698415428374.0,0.01666666753590107,-1.2416503120310605,-0.20824235294163226,-1.5438514899998903,-1.2229880133726225,-2.708141645105183,-11.026495745849608,-22.09083302124805,-9.360646191455537,-11.398770370919111
1698415428391.0,0.01666666753590107,-0.9781403184410185,-0.5573842919141054,-1.0087994414031505,-0.9789290764316927,-3.0099606918886304,-10.503811595916748,-15.736021602373603,-13.409642095594334,-18.299908984709017
1698415428408.0,0.01666666753590107,-0.8562501879803835,-0.5303213668130338,-0.6510019022881984,-0.8816646083722007,-2.954145865686238,-10.153360327911376,-7.5831312948683856,-16.84464155938942,-22.404323336226003
1698415428424.0,0.01666666753590107,-0.7906871440932154,-0.07439385446608066,0.25448797128796574,-0.8560766169451876,-2.481440675409138,-9.251943402862548,-4.169439459962801,-15.613289933177644,-17.43978326252931
1698415428441.0,0.01666666753590107,-0.48199163566902276,0.5270366460539401,1.132759583070874,-0.5716155184981413,-1.8677768623903392,-8.37656342086792,-6.041957592149776,-9.63457519698713,-8.359255081767042
1698415428458.0,0.01666666753590107,0.15310181840476578,0.543537260608375,1.9092858076035975,0.0438439822983928,-1.8251299991883336,-7.606378089794516,-9.72711572250434,-4.735584448755049,-1.5416163843541906
1698415428474.0,0.01666666753590107,0.39231867126747966,0.5676886821769177,2.2576135075837374,0.27009602091684937,-1.7714100994385777,-7.26520435322225,-14.07523634624926,-5.917731819072877,2.014478704887224
1698415428491.0,0.01666666753590107,0.7025776296161115,0.6520461506441235,2.4431255578011273,0.5585973574982955,-1.6466124840334058,-7.089231115722656,-17.4507866972822,-9.07978027504815,4.341016800121284
1698415428508.0,0.01666666753590107,0.7907393126718699,0.006544891598820686,2.1367630223691463,0.6078281108689494,-2.24246927607432,-7.406761526378989,-9.501837300657103,-12.41256937300858,-0.6667031425388484
1698415428524.0,0.01666666753590107,0.8226032083138823,-0.143977532171458,2.047280319842696,0.6117186520340852,-2.3867200722292066,-7.4971432235717765,5.0262563823764586,-10.276203167618128,-3.5926876142763464
1698415428541.0,0.01666666753590107,0.4988502333482727,0.24776889216601847,2.2033447417795657,0.2696471263718791,-2.0260934471681713,-7.333290047454834,19.885535692980184,-4.2252335677453425,0.8143956313349134
1698415428557.0,0.01666666753590107,0.4590719478525221,0.6863840351842343,2.5784523121356964,0.22430693243267014,-1.6804304363526403,-6.9354036590576165,36.29993851390862,5.00399722275821,16.929913056082444
1698415428573.0,0.01666666753590107,0.6229080267041921,0.6355886445790528,2.994365355610847,0.38816016334854064,-1.8309657196044922,-6.494121781048178,44.1428773981996,5.880672493296857,27.50232872139933
1698415428591.0,0.01666666753590107,0.9495836476508528,0.30575667849332094,3.539548337599635,0.7032969020676799,-2.266411438806355,-5.9205614303588865,41.02479017415664,1.8737296369910061,33.7526809346549
1698415428608.0,0.01666666753590107,1.014017541377619,-0.21011779142469167,3.650191317054629,0.7315783726456575,-2.8845643799379466,-5.780500633239746,21.569928644197027,-4.91082703917689,28.31628065724246
1698415428624.0,0.01666666753590107,1.0775766250312329,-0.5624813227921724,3.5366578768551347,0.7565678707398473,-3.2722751190185546,-5.882702532085776,10.751748258391096,-13.86963057675895,15.837461864379339
1698415428642.0,0.01666666753590107,0.8157505659401416,-1.1208435198277233,2.8675153377205134,0.4498108926301822,-3.8615480026245117,-6.541257626232505,17.895619842452206,-12.97442927187029,1.3990029949796763
1698415428658.0,0.01666666753590107,0.284431128000468,-0.7429317057058215,2.9232676200807095,-0.08948314091786742,-3.578583293914795,-6.457012239837646,39.02701448344127,5.364655970370625,-7.172801704064345
1698415428674.0,0.01666666753590107,0.3239240206835791,-0.5144985053896903,2.9417759211957453,-0.023343320056051015,-3.4540850998476147,-6.407481608471274,43.53833735476177,12.625147058094178,-2.5897409290043814
1698415428691.0,0.01666666753590107,0.727402712662518,-0.521537610246241,3.2634774800568818,0.4083611667908728,-3.562871345520019,-6.054187810516357,39.26902174611316,11.556665561509588,4.9652213850664015
1698415428708.0,0.01666666753590107,1.2867333163388073,-0.6836003958150744,3.362859060785174,0.9787797123230993,-3.834313958740234,-5.918765194591879,27.715230840470504,0.2952087800558847,6.932755559457894
1698415428724.0,0.01666666753590107,1.4331573648795484,-0.792405638448894,3.1924726835072037,1.1110592809814959,-3.998317064721882,-6.069750121307373,18.381936141546284,-5.796670131128986,5.8118963303362365
1698415428741.0,0.01666666753590107,1.458062527424842,-0.7808803280889988,2.7098464031964538,1.111957216201909,-4.024802628326416,-6.538264874157309,12.536735381930242,-7.281388905262855,3.5050494570359128
1698415428758.0,0.01666666753590107,1.3236942428588867,-0.48587183810323475,2.2011276502519843,0.9522938199250027,-3.771765732629597,-7.031171140941977,10.27759225734058,-2.2874369697830286,-0.5009938420119063
1698415428774.0,0.01666666753590107,1.198920300590247,-0.34966274797618385,1.8742571643203496,0.8261493930207565,-3.6640263656616208,-7.347804310497641,8.435694290089595,4.460898145999232,-0.7341853581777216
1698415428791.0,0.01666666753590107,0.7358277189195156,-0.11856675819158553,1.5575491759628057,0.37633871958628295,-3.4611180672243234,-7.65486125793457,8.134241329750143,10.913366755852875,1.887472831374718
1698415428808.0,0.01666666753590107,0.48281369264163077,0.007205109073221683,1.8370330568194388,0.15397727693188934,-3.364452175195515,-7.365911045074462,8.065170187994744,9.906955457124422,5.132230609330615
1698415428824.0,0.01666666753590107,0.5184289401737973,-0.12987199606001376,1.8580729222387073,0.20216058534253387,-3.5220202796936033,-7.337778591045737,8.90051000745012,5.2865139105106245,5.478299219102236
1698415428841.0,0.01666666753590107,0.4873040263308212,-0.3754842947140336,1.8513596883356571,0.1780688946045935,-3.792864342498779,-7.335384389385581,11.089597589270253,5.226467583082927,4.0744699484220055
1698415428858.0,0.01666666753590107,0.6072111297480761,-0.2906266216397285,2.0072768107563257,0.30735576598672193,-3.7460274802610276,-7.165545709118247,11.151753164491016,2.529350744240656,3.9763013470287043
1698415428874.0,0.01666666753590107,0.7349509360849857,-0.2761842547893524,1.9780951399356126,0.43260244033364575,-3.755903854370117,-7.1854480949401855,9.094866455377415,-0.21426452836718093,7.028936148915897
1698415428891.0,0.01666666753590107,0.7904452250961214,-0.4166194381788373,2.002843212223053,0.47884047816172237,-3.9173628288269042,-7.152378184509277,8.367266893663468,-0.7944952882186994,10.024526918402437
1698415428908.0,0.01666666753590107,0.8274376427330076,-0.5419678193345666,1.8779910901516674,0.5012861187256873,-4.0726866615295405,-7.26520493774414,11.142290791169609,-0.09590209916676724,12.30647860595171
1698415428924.0,0.01666666753590107,0.8667448401182889,-0.5981082242295146,1.8195698808431624,0.5280712497986852,-4.158279663141071,-7.311742232513427,13.811084756514541,-0.46984060215553775,13.298474790436853
1698415428942.0,0.01666666753590107,0.8375352583773433,-0.8331570432931185,1.6560048740178346,0.4839281201569363,-4.427028507232666,-7.461529473876952,14.37104074014511,-1.5086532510894743,14.557066064832286
1698415428958.0,0.01666666753590107,0.6708727239280938,-1.1352268499672413,1.371822021690011,0.29089568437207486,-4.77209311376363,-7.727585133361816,12.971340318818154,-4.304180309266935,12.200318683229495
1698415428974.0,0.01666666753590107,0.6649110390447079,-1.3009715389192105,1.1369389145821331,0.26455939304511994,-4.966472361047566,-7.950096250152588,11.568150524598964,-4.8523482401637095,6.720883091404098
1698415428991.0,0.01666666753590107,0.5259980237212032,-1.4441428692743181,0.7254547934651374,0.10863704646006225,-5.135412923431396,-8.350376840209961,9.700123668678096,-6.282478008016721,3.8898892087442882
1698415429008.0,0.01666666753590107,0.5839293306209147,-1.3005392849817872,0.2590349670678377,0.13302793934028595,-5.0197430557250975,-8.80377877960205,7.898255732605263,-10.608120479203128,6.037088947932027
1698415429024.0,0.01666666753590107,0.60645903273914,-1.2937930255919694,0.0833674345165491,0.12360084336865693,-5.030068342645466,-8.970774345397949,7.104478894909885,-10.730969115388625,7.27726261723052
1698415429041.0,0.01666666753590107,0.7684541233666241,-1.5905857686460017,-0.3528822945445776,0.2579754480775446,-5.344306726019084,-9.39828839481771,7.337426338534578,-6.61351550585926,6.791146954943311
1698415429058.0,0.01666666753590107,0.6865465322695672,-1.7940543313145636,-0.7995698309898376,0.14948807575386017,-5.570708712768554,-9.833884043884277,7.4975345104161395,-4.44807275828524,10.370502466846617
1698415429076.0,0.01666666753590107,0.49144887105058876,-1.8353361897736786,-1.0156728343039751,-0.06913242680653929,-5.630414408929646,-10.040832849884033,8.820221133756618,-6.3049407926496,12.21673504289962
1698415429091.0,0.01666666753590107,0.15411712379399686,-1.9823644878178834,-1.3195002983003854,-0.4337992671690881,-5.799354971313476,-10.333673640441894,9.510391258818897,-6.852883754190588,9.776656792101736
1698415429108.0,0.01666666753590107,0.06819240601006894,-2.3136060284405944,-1.5341975264698267,-0.5339068240843713,-6.176741007995605,-10.52775361251831,5.956051741637587,-8.615142142606047,3.7633176925743124
1698415429124.0,0.01666666753590107,-0.0013077946629375219,-2.0973662470042704,-1.6710943066000938,-0.6281785875182598,-5.967996550750732,-10.659733394512534,-0.8025376225229779,-9.769568763290554,0.9901016607641097
1698415429141.0,0.01666666753590107,-0.5223845093991607,-1.282708444736898,-2.0270482636749745,-1.163581860705465,-5.147084656524658,-11.017367852020262,-6.727005929108191,-1.6164011927937179,0.2855555082832617
1698415429158.0,0.01666666753590107,-0.7601951943915337,-1.0297422761887312,-2.0744173330932854,-1.383249863024801,-4.875642043304443,-11.073930866241454,-7.508567827246648,10.816908263073017,1.1838214069947153
1698415429174.0,0.01666666753590107,-0.7459228503458202,-0.9450573293328285,-1.9154174422264099,-1.3482346272123977,-4.777928688049316,-10.921898476299642,-6.927836542595015,5.889829642539729,1.1216904844879885
1698415429191.0,0.01666666753590107,-0.7389790225572883,-0.6612839345887302,-1.7364836013555525,-1.3352161922179162,-4.50079984588623,-10.740538285064696,-3.2969314585915086,-3.2612785114542766,-1.4618666687182984
1698415429208.0,0.01666666753590107,-0.9429662753377109,-0.046602761220932,-1.6629659452021122,-1.5583257863584905,-3.9064392837524413,-10.657040502166748,7.036095040939717,-13.059160329845238,-6.366090195628256
1698415429224.0,0.01666666753590107,-1.0468312850903718,0.3284381736397743,-1.6494558907657861,-1.6897076755248008,-3.5625720703124997,-10.628160444641113,15.61830158448114,-16.760859043935458,-9.266985514914445
1698415429241.0,0.01666666753590107,-1.1378688889086246,1.204482464762032,-1.358008015871048,-1.8119615247312932,-2.7317843864992257,-10.314669664764404,17.15722345920776,-18.428936380772434,-10.03060749431104
1698415429257.0,0.01666666753590107,-1.3211597559452055,1.8479823208570478,-1.4133616543024778,-2.0373157559935002,-2.13562817312032,-10.345794286346434,9.311632753971526,-15.72067245976129,-10.648141972644819
1698415429277.0,0.01666666753590107,-1.5074585726261138,2.099642667503655,-1.4391519291192292,-2.2403739842955024,-1.9027914771482348,-10.36180492542684,4.836461647041084,-8.96163422410621,-12.694846577253221
1698415429291.0,0.01666666753590107,-1.5873115692809223,2.4180513222992417,-1.1617536223649978,-2.320130827099457,-1.5997756217956542,-10.077494062805176,5.758367284037201,-3.0086315216027977,-13.862861005517823
1698415429308.0,0.01666666753590107,-1.3369003459125757,2.3870371753543616,-0.19186521863639353,-2.0531773419920354,-1.6606784187868238,-9.095422469329833,10.688597183098803,0.5143056672608497,-12.270077966543774
1698415429324.0,0.01666666753590107,-1.1956330225478857,2.255626425419748,0.4151034806579351,-1.9026419126097112,-1.822137100982666,-8.475473876953124,12.449694866242185,-2.365646904647906,-8.5136813900328
1698415429341.0,0.01666666753590107,-0.9796899590358138,1.8322718337669968,1.6589005954593419,-1.6900069507323205,-2.270900274658203,-7.219715106201171,5.913856113605718,-6.91464061711855,-9.78187164153304
1698415429358.0,0.01666666753590107,-0.7111236319042742,1.2794468125924467,2.1340525943666697,-1.4258965800963341,-2.82186593170166,-6.745064627075195,-10.382264052597378,-3.4263833936005255,-14.504743400695403
1698415429375.0,0.01666666753590107,-0.6382477077204733,1.1158765450701116,2.2365958539962767,-1.342847636944428,-2.9548937614440915,-6.657376991271972,-18.307355598451622,0.5528898327690748,-15.50713171800272
1698415429391.0,0.01666666753590107,-0.3406312271934002,1.079092582552135,2.4108862529754638,-1.0278604810301213,-2.952649197387695,-6.502202796173095,-17.290220902726247,2.172869724522762,-15.740056536625787
1698415429408.0,0.01666666753590107,0.024985899631306527,0.8796396852657198,2.6291245147526263,-0.6310216289244592,-3.114257809448242,-6.303334420776367,-9.692466172844865,3.4460088749634994,-17.215278359605577
1698415429424.0,0.01666666753590107,0.16219839464724062,0.8045350521817803,2.6809616694957015,-0.4677669301573187,-3.175310244043171,-6.259640240478515,-5.351598783111676,3.577108166222959,-18.031550852219215
1698415429442.0,0.01666666753590107,0.2576313473476097,0.7792816607207059,2.739994288700819,-0.34521373267807065,-3.192817551422119,-6.20592034072876,-4.295894436030063,4.452063723194644,-16.981953974916063
1698415429458.0,0.01666666753590107,0.3056821519523859,0.5916007420316338,2.6949218057870863,-0.26336196342147883,-3.368342460632324,-6.258592777252197,-5.935306749580966,2.6441685720660977,-16.176664426487804
1698415429474.0,0.01666666753590107,0.31730854806657877,0.390737393425405,2.63829274059236,-0.2308906034056097,-3.5556884482786058,-6.3224874495357275,-7.555787486299885,1.2669606040062262,-17.220899605292498
1698415429491.0,0.01666666753590107,0.35068251947797835,0.17039426832348106,2.399634791120887,-0.1731305248869583,-3.76024334487915,-6.5695397178649895,-8.148712793054107,4.744637010726255,-18.52914208608569
1698415429508.0,0.01666666753590107,0.22268640029244124,0.16102613599747417,2.1715192784518003,-0.25079240470565856,-3.744980017034709,-6.8112038634151215,-9.777629240284815,11.223060339425949,-16.60977696704207
1698415429524.0,0.01666666753590107,0.16894359459113328,0.11799889517575501,2.101696969684958,-0.26156631217636167,-3.764882110595703,-6.893205854797363,-11.598778800384595,11.597535705955652,-14.158091663523392
1698415429541.0,0.01666666753590107,0.010189275983162223,-0.04644494031071662,1.8955413598895072,-0.3697543362272903,-3.8895302345275877,-7.11870972366333,-15.209058847528778,9.781889570779612,-11.923059106703874
1698415429558.0,0.01666666753590107,-0.41211836389992385,-0.2515191846102476,1.327649117964506,-0.7570164547575637,-4.0577231934145095,-7.7036431167602535,-16.917012536287583,10.661392539634644,-11.29975909493696
1698415429574.0,0.01666666753590107,-0.6290574161794036,-0.41886984745413064,0.9855173500150441,-0.936880854476802,-4.18805725402832,-8.062623728179931,-14.602821502082202,12.175416667289275,-9.789241415647483
1698415429591.0,0.01666666753590107,-0.7418808814786374,-0.6328627267464995,0.18549626812636852,-0.9973344829283655,-4.370016580200195,-8.877550118255614,-5.8769756534085875,15.180494996419785,-5.430726524646274
1698415429608.0,0.01666666753590107,-0.7885643797855824,-0.9002204087406397,-0.547543281379342,-1.0010753864897415,-4.633079779870807,-9.613467853546142,2.0191272889476526,19.033843546878153,-0.1315929858704044
1698415429624.0,0.01666666753590107,-0.8509102151919156,-1.0949334180235861,-0.7556488561987876,-1.0181341098509729,-4.843769525964558,-9.815927531433104,11.493292505069272,20.039553043669386,3.6566502014194002
1698415429641.0,0.01666666753590107,-0.8139915934436023,-1.4173589072450994,-0.7031582059830427,-0.9279026530501432,-5.220257737024128,-9.741707279968262,21.389428942548392,16.82848133181317,4.2952161128681166
1698415429658.0,0.01666666753590107,-0.6850023715674877,-1.6624389987185597,-0.548216650596261,-0.7703342288916465,-5.518485189056396,-9.564535772594809,22.950120337707137,10.849868194686561,3.9841667367447973
1698415429675.0,0.01666666753590107,-0.6001473288416862,-1.7612889567881822,-0.49294367618560786,-0.6717230343142291,-5.6678235176086424,-9.487622628784179,19.113589420532634,3.9997323109764333,2.0667682852953146
1698415429691.0,0.01666666753590107,-0.48090424229111517,-1.8259943609327076,-0.7552554729670286,-0.5431843509508995,-5.773766941070556,-9.731980835723876,5.924304168601721,3.172255746803035,-2.936884226353222
1698415429708.0,0.01666666753590107,-0.3456109153021127,-1.778316956217587,-1.3478349969029426,-0.40117827411603646,-5.725883200128376,-10.324694799694418,-6.665020681729857,-3.117752544773625,-5.8020881786880985
1698415429725.0,0.01666666753590107,-0.34737682899609207,-1.7172288657873869,-1.7871359302282332,-0.4162916720957728,-5.632359405517578,-10.778097323608398,-21.50869941338245,-13.32395822623017,-9.083117676231348
1698415429741.0,0.01666666753590107,-0.7434234347455203,-0.7179559621423482,-3.4990006386339663,-0.8224080784674268,-4.5486841713503,-12.52616322620809,-28.90707836007022,3.3444922002164232,-12.562185520551356
1698415429758.0,0.01666666753590107,-0.6681497287049889,-0.41753216910958285,-4.401690652358532,-0.7034462451272062,-4.190750730895996,-13.453317819103598,-18.757950008186533,22.787922127939552,-11.066316889484265
1698415429774.0,0.01666666753590107,-0.4781443125911057,-0.31531478043347594,-4.300427495667338,-0.4417300533184898,-4.065204781341553,-13.361740190124511,-1.4006963482853105,29.132006734722495,-5.445223174272803
1698415429791.0,0.01666666753590107,0.07433751203580759,0.018799100755155087,-2.968946252194047,0.190488797450345,-3.7539588577821847,-12.020089434814452,12.986251475549937,18.64072005636702,1.8884713196540093
1698415429808.0,0.01666666753590107,0.4614461661705747,0.0589879032805562,-1.7137410236716268,0.5995980061295442,-3.75111515878886,-10.748917406353353,15.27863969215099,5.586795920294242,5.355725924917657
1698415429824.0,0.01666666753590107,0.7707388002377003,0.37205607383102174,-1.0666402204751968,0.880018875575345,-3.481468489074707,-10.083778842163085,7.5694179825622925,-13.358653025892895,6.745186612018296
1698415429841.0,0.01666666753590107,0.8977868249181657,0.574173806412518,-1.1243377916842698,0.9570822141121607,-3.294271554510295,-10.135552868542074,3.6063364666721474,-18.0962412813957,7.600364715917974
1698415429858.0,0.01666666753590107,0.9360973394162952,1.1332491201534867,-1.6026380254894494,0.9452608816602238,-2.7489921264097092,-10.608108421215414,4.931236925077357,-11.975145275540745,8.594450938289139
1698415429874.0,0.01666666753590107,0.8010247059732675,1.7188424384638665,-1.7724340356588362,0.7733272686612094,-2.1850082901000976,-10.768519932445884,7.613184127216441,-1.3132727016734975,13.46866261398606
1698415429891.0,0.01666666753590107,0.7582024131391197,1.9056132565706967,-1.5233260038435459,0.7149686442940961,-2.016067435455322,-10.511592166790365,7.126031983722683,0.9715326175666663,16.775393686489245
1698415429908.0,0.01666666753590107,0.7555773253325373,1.9287895494967697,-0.7230693596333265,0.6911762515965616,-2.009034760339558,-9.70414824142456,6.526651294429153,-3.6393834831976077,18.597705232521573
1698415429924.0,0.01666666753590107,0.7916329005107283,1.8327707231998442,0.037843700703978536,0.6741175054024439,-2.118120573480427,-8.936956246948242,1.137347092334656,-12.311951295024183,17.837086828812488
1698415429941.0,0.01666666753590107,0.7751156270824372,1.7645131795316933,0.21652035194337366,0.6117186885667033,-2.179621336364746,-8.760532927593589,-6.2738770923043825,-10.080200644100858,16.879490892082117
1698415429958.0,0.01666666753590107,0.5813336881045251,1.6202131374076008,0.4132990615844726,0.38411987498179073,-2.300827795410156,-8.573186647686361,-11.298864340155689,-2.692377327888517,16.1085401197061
1698415429974.0,0.01666666753590107,0.4108625186199322,1.5118290427953005,0.794514885687828,0.19707285201577468,-2.3740005836486815,-8.206873793682455,-7.4658125505896615,5.997954098421969,16.06101737100844
1698415429991.0,0.01666666753590107,0.33540936435926705,1.4108932183623313,1.0208867695599795,0.12240370600596069,-2.464980246734619,-7.984812174224853,0.480269447244501,9.486458275967172,18.2432884240369
1698415430008.0,0.01666666753590107,0.15030286273546517,1.3703864359289406,1.6840116558402776,-0.0606030651259236,-2.511667471368611,-7.319074475097656,6.111357436758984,8.682045553073614,20.294923571452408
1698415430024.0,0.01666666753590107,0.04377731027035042,1.1923320082411168,2.3915444236457346,-0.1756744006834924,-2.714725407409668,-6.600514701843261,10.39475902991027,4.023185899925788,21.924256660222486
1698415430041.0,0.01666666753590107,0.037565815344359724,1.1231024046704172,2.6938784342139956,-0.20066388051137327,-2.8080989798948166,-6.287172975048422,11.02333536281102,-0.8355336260730748,21.859873589558653
1698415430058.0,0.01666666753590107,0.06049114745035767,1.009305637359619,3.0139322258681056,-0.2051530268904753,-2.9447184043884276,-5.95632481765747,9.911219202713802,-3.793969020248391,19.848639011083776
1698415430074.0,0.01666666753590107,0.10934353249529376,0.883458951292932,3.0318998442351814,-0.1946783946272917,-3.095852384185791,-5.925947799572349,7.166069698863652,-5.052068521023584,15.453682072652784
1698415430091.0,0.01666666753590107,0.16549151790849864,0.8540753281593322,2.9085844302117825,-0.1665464703215286,-3.1371523628234863,-6.042964990234375,4.333559941094922,-6.961960594575222,12.525274324502961
1698415430108.0,0.01666666753590107,0.31069004324227567,0.7386918761789798,2.55207459281981,-0.05207373997792601,-3.2607533157899975,-6.394613359069824,4.094256579560709,-8.903107186882016,10.61098318223901
1698415430124.0,0.01666666753590107,0.46505354301277546,0.7481064779952168,2.1024340517878533,0.058508449200540776,-3.2647935310915113,-6.836342980846762,5.653974672762725,-9.932482435373698,9.182823070187903
1698415430141.0,0.01666666753590107,0.49218646461013704,0.7285308399096131,1.890073157611489,0.054917146710306404,-3.2981624244689938,-7.041047807312012,6.746545392776305,-8.085641972484563,8.286793604862378
1698415430158.0,0.01666666753590107,0.5077348930062726,0.5658475843548775,1.5173960292726754,0.04593892701733857,-3.476829723358154,-7.405265150341391,8.162014586462707,-5.843215309001684,8.279736311902463
1698415430174.0,0.01666666753590107,0.529009663159959,0.28772943889349695,1.3578005106002091,0.035314620617777105,-3.785232824707031,-7.549366162762046,12.14126828276015,-7.9208534134742505,7.870977664607525
1698415430191.0,0.01666666753590107,0.5642565888363867,0.11645166573375462,1.2248375627875328,0.043544725357182325,-3.985597576141357,-7.66743081665039,13.20020885884788,-8.784060404743279,5.230735170653715
1698415430208.0,0.01666666753590107,0.5483280750814825,-0.3353369932428002,0.9069096772462129,0.004638948379643261,-4.46563471674174,-7.970895292553305,11.359632533201292,-7.715700997790101,1.7620618070334098
1698415430224.0,0.01666666753590107,0.5822033105459063,-0.6469248621076346,0.4762725273698568,0.017208470562845468,-4.808903672027587,-8.385392039489746,9.231515488780923,-7.288675863333612,-3.176005520657372
1698415430241.0,0.01666666753590107,0.5935702520063146,-0.7115683069318532,0.2566425189733505,0.012868980053812264,-4.894496673639118,-8.594135912212728,8.718411187762054,-10.272963096630603,-4.624133263860189
1698415430258.0,0.01666666753590107,0.3907191636489704,-0.7487520824223757,-0.17793430843949318,-0.21068956343065945,-4.9537528724670405,-9.016862727355957,9.532918076475246,-12.299263364867238,-6.298603230873475
1698415430274.0,0.01666666753590107,0.30914230234362183,-0.969154244235158,-0.6672831750035285,-0.3094504184447229,-5.206490785217285,-9.489567917633057,6.611342225042726,-9.646174565745104,-10.845688972688158
1698415430291.0,0.01666666753590107,0.24735154353678224,-1.0635279336735606,-0.9892366627991199,-0.37214850135482846,-5.313032759094238,-9.805602536773682,-0.035090923954160316,-4.79740107583825,-13.031008851407384
1698415430308.0,0.01666666753590107,0.18323741981629282,-1.1912471356138585,-1.6048223837912081,-0.4212297084532678,-5.440075084686279,-10.422558377075195,-5.847834651314728,0.8495258021963749,-11.259128007111846
1698415430324.0,0.01666666753590107,0.5708131708730012,-1.3963357006996868,-1.9949469060152767,-0.027383535357564687,-5.610512315368652,-10.829722296905517,-19.361303306256072,-8.071863773381356,-6.902644670501893
1698415430341.0,0.01666666753590107,0.3914529943488538,-1.324756903654337,-2.6285809093952177,-0.2261022731505334,-5.481225425720215,-11.489324854278564,-30.011393590361635,-10.685330645128245,-1.1469053017478543
1698415430358.0,0.01666666753590107,-0.7350022278808057,-1.069407347100973,-4.173855710196495,-1.3706803043089806,-5.154716466577351,-13.066354975780843,-28.80292822051128,-2.0920231231948483,3.457571531454685
1698415430374.0,0.01666666753590107,-1.4945191576845942,-1.0541066098555922,-4.6082764702647925,-2.1115360805235803,-5.082890124511718,-13.527837930297851,-3.4094703511116933,19.49628491972845,8.111788790401018
1698415430391.0,0.01666666753590107,-1.5132573220327497,-0.9613494157031178,-4.140001371389627,-2.085499174001999,-5.007173497009277,-13.054833464813232,17.51929520220472,22.896517013100876,5.983600455881187
1698415430408.0,0.01666666753590107,-0.4645598046790808,-0.9392924821957945,-2.4720886174350976,-1.0066119778288527,-5.0336596451357005,-11.366622019195557,21.28699488801842,3.234941088571296,1.4685551314630334
1698415430424.0,0.01666666753590107,0.2876433680452406,-0.18271920462846755,-2.2912077341496944,-0.2998735752714798,-4.313902478790283,-11.16580777042806,0.0155197372590028,-32.94337181990009,-4.691274023401415
1698415430440.0,0.01666666753590107,0.049841962337866426,0.4307409025117755,-2.7059008804410696,-0.6232404735289514,-3.681982878112793,-11.582997409710288,-15.395840615666533,-43.9101865135556,-7.6020603103794295
1698415430458.0,0.01666666753590107,-0.9685296825960278,2.466274962720275,-4.398346602627635,-1.725171641485393,-1.6053119208738207,-13.287668991741537,-18.222391460271247,-34.53564942487555,-12.925047857944746
1698415430474.0,0.01666666753590107,-1.2238608997751026,3.178591165409982,-5.093952785795927,-2.0256440229002384,-0.8655041924074292,-13.991863555034994,2.75042091578552,-5.379735747397544,-11.981664691103523
1698415430491.0,0.01666666753590107,-1.17946215140447,3.364580770011246,-4.557158861967921,-1.9589056516233831,-0.7122749938964843,-13.442095583343505,22.74678219102127,15.328875733496433,-4.769322595047151
1698415430508.0,0.01666666753590107,-1.201538739460334,3.7618104480654,-2.1257523835331202,-1.9358613875791428,-0.3764882110595703,-10.986093008312583,28.53347896530157,20.699251987296947,3.2792764868040836
1698415430524.0,0.01666666753590107,-1.0009360876169056,3.124478174689412,0.5321709402024746,-1.6898573131285606,-1.091755664770305,-8.295010926818847,22.2871821768657,12.78337180531211,5.727154173303888
1698415430541.0,0.01666666753590107,-0.8474352325577288,2.7288848656654356,1.6711077506035565,-1.5209164584837853,-1.5295955856323242,-7.136964926800132,15.202588950837484,4.893154778473128,2.4254223723863304
1698415430557.0,0.01666666753590107,-0.5543712277032434,2.163359060610831,3.136233494412899,-1.2229879163328556,-2.120813758087158,-5.659742502483725,8.527515084423015,0.8761094320545934,-1.8972925089670807
1698415430574.0,0.01666666753590107,-0.15648651980645953,1.8397265336871147,3.928659883388877,-0.8171707349363714,-2.453457858984172,-4.863520812878012,0.22153417084117524,1.5901505346575375,-7.275538848238739
1698415430591.0,0.01666666753590107,0.15695055712163447,1.6619731347724795,4.115179064822197,-0.4885665570799261,-2.625092482757568,-4.681113158416748,-6.152803451529444,3.8277861406027704,-9.25931521247652
1698415430608.0,0.01666666753590107,0.7748726121068,1.3706865879192947,4.00689112406075,0.15038601097427307,-2.8941408943176268,-4.801721067047119,-13.462511174864817,5.007809322088724,-9.342247369378816
1698415430624.0,0.01666666753590107,0.953441419057548,1.2767460292011499,3.501488948318362,0.3544916294373572,-2.9396304335996506,-5.332185787853598,-17.524125853495214,2.996868868634978,-8.838050488811291
1698415430641.0,0.01666666753590107,0.9882355229325592,1.2600833559527993,3.15525442122519,0.4049195384370163,-2.9180829109191895,-5.697601400756835,-16.310877643678555,2.39626621581025,-8.7448107226778
1698415430658.0,0.01666666753590107,1.0330745624165982,1.1689546397849917,2.3420517862021923,0.4646249423371628,-2.97509483795166,-6.527790241894126,-13.928422283813482,3.5979255155961,-6.587322157279083
1698415430674.0,0.01666666753590107,1.0872778617691248,0.842552063626051,1.5777514215141535,0.5439328723298386,-3.264194688415527,-7.310994044494628,-10.641230674978411,8.387586706444257,-3.7710405020914815
1698415430691.0,0.01666666753590107,1.0582101727169007,0.731242729216814,1.2211211726129054,0.5424364597596227,-3.3557729019165037,-7.678354361724853,-6.339544238532177,12.523214168694555,-2.408488625886576
1698415430708.0,0.01666666753590107,1.0211942280739545,0.6696586719632148,0.7944149324446916,0.5401919322358444,-3.408744613647461,-8.110956674194336,-1.2760525462868653,15.322697827392158,-1.0767014158072898
1698415430724.0,0.01666666753590107,1.04724724548012,0.7252969725549221,0.530122190979123,0.6120179820405319,-3.3547254386901852,-8.376862696075438,2.3548315135406024,15.06679795994846,4.372605144372123
1698415430741.0,0.01666666753590107,1.0001743825294076,0.7458104760125279,0.49027825636863703,0.5925650570191443,-3.339761678314209,-8.415469197845459,2.8819411174525813,15.324688827535217,9.822929616181279
1698415430757.0,0.01666666753590107,0.9802927472345531,0.7275172789528965,0.3138853321522474,0.5970541851319372,-3.362955799157917,-8.590694247326255,2.7254678868699362,17.83287772473647,15.844812855473565
1698415430774.0,0.01666666753590107,0.702818671830371,0.5076505391910672,0.27102409554719925,0.35419235422983764,-3.58801046295166,-8.632593360900879,2.2181289058407936,21.939877302854306,22.2017228499705
1698415430791.0,0.01666666753590107,0.4947943820862099,0.4389148566171527,0.23480185856521127,0.17492650492563844,-3.658789341790974,-8.6689552986145,1.7101690179274147,23.978582902170977,24.622579240896677
1698415430808.0,0.01666666753590107,0.15444734212905167,0.19965046568512915,0.12207272048592567,-0.1378160869322717,-3.9012022598817944,-8.781183501434326,3.3846534990926864,23.45517696833644,28.275350748641156
1698415430824.0,0.01666666753590107,0.07309729358321056,-0.0005699088424444198,0.05141688350439071,-0.19662368347616865,-4.1192239562988275,-8.844330570220947,11.552126900806115,20.914809342407963,36.942464654415474
1698415430841.0,0.01666666753590107,0.08683021525628865,-0.12987784127891064,0.11397767683565616,-0.1797146525176242,-4.282478874261677,-8.76607010345459,19.790821459759616,19.94147494228259,44.99093417611589
1698415430858.0,0.01666666753590107,0.27597937986701726,-0.4504787454217672,0.3650578855067491,-0.0032919176848605273,-4.662857370758056,-8.486396837505698,19.894160514354617,18.6836136443547,53.82097199925711
1698415430875.0,0.01666666753590107,0.38697219567298885,-0.948340588787198,0.516377158743143,0.08544319961098953,-5.195716877746582,-8.317606204986571,13.919243363342632,15.308282713148845,58.134116931809686
1698415430891.0,0.01666666753590107,0.41768060113694516,-1.063534363414347,0.3788794901102781,0.07811097529307007,-5.331587821960449,-8.443750120434164,8.71059062116239,8.05349995602413,59.63304975649318
1698415430908.0,0.01666666753590107,0.39620391520299014,-0.8536626557052135,-0.20089549731016157,-0.027533209493942556,-5.137507849884033,-9.012223377117515,7.898476859979643,-3.555154017239834,60.75450534650674
1698415430925.0,0.01666666753590107,0.3287416135657579,-0.4285071521103382,-1.125984389847517,-0.17238240993339568,-4.7249572685793035,-9.927107686504721,9.79393887824916,-1.0983210989644958,65.53164893504038
1698415430941.0,0.01666666753590107,0.4962781909031793,-0.47405806619077917,-1.4564192902624606,-0.08185162312611938,-4.77897585901469,-10.248678896984458,3.7739151579584105,-1.9047062524243064,69.42981547928508
1698415430958.0,0.01666666753590107,0.7872340810298919,-0.8386375205308199,-2.8697727612584827,0.08170235084854066,-5.11042315134257,-11.668889394268392,-14.218021450848378,-10.066143261015325,69.94276268595303
1698415430974.0,0.01666666753590107,0.15782733995616435,-0.25168431204408404,-4.625457906690239,-0.6399999582152813,-4.472967251586914,-13.441048120117186,-15.495117415252667,-3.2470010682114228,66.5746939533822
1698415430991.0,0.01666666753590107,0.13170534896701575,0.03686316523402929,-5.223896093526482,-0.7324759973388165,-4.150348577880859,-14.049474032482504,1.1623275487286258,7.788210286018957,64.88696786985038
1698415431008.0,0.01666666753590107,0.5418805063772947,0.4924591075390577,-4.932454063850641,-0.3658637219969183,-3.7324107505798336,-13.735683977398276,35.89280801295709,26.89323806442698,68.19807965493249
1698415431024.0,0.01666666753590107,1.2839850405439734,0.6177662799015641,-2.925371898883581,0.37184951840825375,-3.6866216438293455,-11.68953938358724,45.27884031001027,36.0330215513337,71.88007754213545
1698415431042.0,0.01666666753590107,1.5587132513061166,0.5971589606806635,-1.8308511533141134,0.6449382183350623,-3.782688985443115,-10.557381273540853,33.206692687877,31.448140957746745,72.3830526726152
1698415431058.0,0.01666666753590107,2.01669667326957,0.5852952121466398,-0.43690030192434787,1.052850253118947,-3.8181530975341795,-9.146149617004394,-3.283529346779474,4.00840408990141,65.75689491348906
1698415431074.0,0.01666666753590107,2.3375749330490825,0.911641089682281,-0.8640729905605316,1.2937667221069336,-3.4439097427919503,-9.588179098510741,-20.497443802985163,-8.697065139058472,60.97662992850472
1698415431091.0,0.01666666753590107,2.373726296751946,1.2440250783383846,-1.5280015944391487,1.2437879085816441,-3.047220162963867,-10.273219464001059,-18.19776862831335,-5.806279353517548,59.51208710629225
1698415431108.0,0.01666666753590107,2.602283854100108,2.327717848162353,-2.5867437551409003,1.3890857295714318,-1.907580172729492,-11.348066956329346,0.0011077179451585524,13.152503402589925,67.70941377076393
1698415431124.0,0.01666666753590107,2.759773924925923,2.901901006925106,-2.4148493113875387,1.51463197138682,-1.3226464873716235,-11.176880953106284,11.420770410235722,28.076361724909297,79.81440777261578
1698415431141.0,0.01666666753590107,2.934881485506892,2.8523692065149544,-1.8565467355847358,1.6660652263917028,-1.3741221153259278,-10.614244147491455,13.795067109137214,29.624968807878997,87.18025452828678
1698415431158.0,0.01666666753590107,3.277404883122444,2.473676763409376,-0.9015934506595135,1.9636941280089317,-1.7456725777223705,-9.656114570617675,7.286158084850816,25.070089820221327,87.23417204159486
1698415431174.0,0.01666666753590107,3.2457085991322994,2.284515250773728,-0.5346656796276569,1.8989014839723706,-1.9128174888610838,-9.294739173015952,1.491784924995364,28.683628721373253,84.8031984329606
1698415431191.0,0.01666666753590107,3.2167019926175473,2.535648943197727,-0.3788116855710745,1.8546084609985352,-1.6261118400573729,-9.153481859588622,3.8256828692252296,41.724348394233104,85.53543569312099
1698415431208.0,0.01666666753590107,3.345779038907587,2.658037013243139,-0.14195932421684265,1.9963152717590331,-1.4857517677307128,-8.927080165100097,8.110868422410359,51.571606290464324,91.2224356111812
1698415431224.0,0.01666666753590107,3.5370404464319347,2.886803683297336,0.3574965103417635,2.21388820149526,-1.2439374000549315,-8.437765200805664,9.893476078797402,59.229317274653724,99.0065358308671
1698415431241.0,0.01666666753590107,3.5426924808442593,2.839339336811006,0.9446709603637456,2.2595278167724606,-1.2740145584106444,-7.864653178405761,8.907286408880417,60.85695818405693,106.1306963427572
1698415431258.0,0.01666666753590107,3.5407299485996364,2.7591517013743516,1.0747820258766412,2.277334691619873,-1.3367127143859863,-7.745541645812988,7.4415372045057895,55.68524481245541,109.30127015547711
1698415431274.0,0.01666666753590107,3.430616838237643,2.6554242003962396,1.000958080253005,2.170343658801168,-1.420509772491455,-7.829039428710937,7.5421125938078735,48.309883603270585,112.09450333731051
1698415431291.0,0.01666666753590107,3.2924472616925833,2.708004282461107,0.5095242241084575,2.0078372211180624,-1.3434464065551757,-8.328230474853514,9.957385305087564,41.44145220409493,116.01890463815722
1698415431308.0,0.01666666753590107,3.214149093264341,2.73326907209903,0.14784779773354528,1.9012955395020543,-1.3045406295776367,-8.691998905071616,12.85755619743491,41.21730247100804,118.17209445324707
1698415431324.0,0.01666666753590107,2.97722074406445,2.835416610409319,-0.513389667364955,1.6355388629637657,-1.193210252380371,-9.35309783848226,15.080258555255263,41.66252152186615,120.0291409263035
1698415431342.0,0.01666666753590107,2.7020620329305527,2.898799533778429,-0.9728688808441162,1.3207014907836914,-1.1215338401794432,-9.810241302490233,16.605784721472194,41.98548360167562,121.03418960229253
1698415431358.0,0.01666666753590107,2.585401985143125,2.8288828247264024,-1.1533429368942976,1.1745054057799278,-1.1864768524721263,-9.988310050964355,17.012993769599184,41.182693902483585,119.03883179854334
1698415431374.0,0.01666666753590107,2.4514336596801876,2.625556593137979,-1.407490131920576,1.0119989680968224,-1.384746677453816,-10.24015013809204,16.81261650991852,39.914419981166006,115.9909418436952
1698415431391.0,0.01666666753590107,2.3507553171396256,2.4505270662292835,-1.6416262200534342,0.8741827350340783,-1.5547347030639647,-10.47044241027832,18.313224438495954,39.21476955353575,111.98920231087642
1698415431408.0,0.01666666753590107,2.387907674578577,2.3517843679264185,-1.6756681903868913,0.8869019313536584,-1.6554405181333423,-10.499472105407714,21.265394414768256,40.31366502872076,110.35861758994095
1698415431424.0,0.01666666753590107,2.438983927951753,2.235694228981435,-1.742128329244256,0.9195227828428149,-1.7817349479675293,-10.558130046081542,25.640485747998262,43.40172332607776,110.2949875476331
1698415431441.0,0.01666666753590107,2.4553721681728957,2.206020682990551,-1.692451567405462,0.9255084331236779,-1.8300676017209887,-10.498125366973877,28.252408143219082,47.94161687869642,110.3364194751384
1698415431458.0,0.01666666753590107,2.5391481834903358,2.041897457760572,-1.3463561565220354,1.006612014361471,-2.02085554651469,-10.139293808636069,27.263430902347086,50.53315115924475,111.93695136372583
1698415431474.0,0.01666666753590107,2.556028591142595,1.8182178817123174,-0.8667547769904136,1.01693671675995,-2.2601263671875,-9.651325582775472,26.26422033055112,46.78931273929649,114.03282906149009
1698415431491.0,0.01666666753590107,2.534400112180412,1.6562009811118243,-0.6207394504934549,0.9602242110654711,-2.440888592529297,-9.39035818634033,26.761468347411803,36.556698985187744,115.3556249678573
1698415431508.0,0.01666666753590107,2.4639216775923964,1.6321093269065021,-0.7170160509437322,0.8438061553403735,-2.4794950942993164,-9.471461767578125,28.560454797428537,31.54789587057478,115.38186655464848
1698415431524.0,0.01666666753590107,2.256215038962662,1.5501505901440977,-1.2184446468800305,0.5849332469664513,-2.582595403289795,-9.95329485168457,34.07496682573653,32.851833624643575,116.35984036076759
1698415431541.0,0.01666666753590107,1.979234080837667,1.6458438377484679,-1.371765907588601,0.2500442897520959,-2.5362077461242674,-10.071807833862303,45.167484320876966,41.845464723690355,121.41919370542782
1698415431558.0,0.01666666753590107,1.813251345346123,1.6404101222619414,-1.1964993570536375,0.050727147674560547,-2.594117206518352,-9.864409530529379,49.58122427952549,47.1349066509208,125.3146964758962
1698415431574.0,0.01666666753590107,1.6377080236963926,1.3220210489496589,-0.6268214007556439,-0.15816709330454468,-2.9605799903869627,-9.26421368637085,43.86024075524988,46.40528535321253,127.75989053838244
1698415431591.0,0.01666666753590107,1.5260414002820848,0.790014651659131,-0.2693020940601826,-0.3269584564760327,-3.5193268028259275,-8.881291058349609,26.795931774416395,40.42058480998814,126.27746628092287
1698415431608.0,0.01666666753590107,1.45383716481477,0.5989718553215265,-0.28895138190388675,-0.45908846059590575,-3.690811204473674,-8.897601557159422,9.82039646977285,29.57456884199347,121.20990304888028
1698415431624.0,0.01666666753590107,0.8856202209800481,0.9298708661168813,-1.229451194062829,-1.0962455235354602,-3.305793942260742,-9.849296717071532,-3.2896342552369964,26.466597128111303,114.14419529590715
1698415431641.0,0.01666666753590107,0.47374783119782804,1.6274796212792395,-2.2672698092013595,-1.5692494044981895,-2.5216923140376806,-10.914865508922935,3.0212799647286035,44.11799160395866,111.83353546950266
1698415431658.0,0.01666666753590107,0.40723406245708466,1.9581877856776118,-2.252400156849623,-1.6371853149965405,-2.1556793197631836,-10.916511522564292,20.743834339556912,63.95328784049881,120.3177027583582
1698415431674.0,0.01666666753590107,0.6103866910442709,2.5703876636236904,-1.1209762062966824,-1.4079405060365795,-1.5396210128232837,-9.79303297805786,33.73169517843003,76.20289743764735,133.9955254015239
1698415431691.0,0.01666666753590107,1.1974360533818602,2.1934546314060688,0.5085837283879519,-0.7980174869813025,-1.9264342185422778,-8.164078023529052,35.60481991679267,70.18793232621064,149.5233457625226
1698415431708.0,0.01666666753590107,1.6147344137355684,1.806720920664072,1.1223480791717768,-0.40177725835591555,-2.304269168035686,-7.549666022491454,25.67167409929583,54.47122308371525,154.899442299753
1698415431725.0,0.01666666753590107,2.179090736619383,0.9245680835336446,1.2750684513777493,0.10429697142913937,-3.145980396923423,-7.402272398266196,10.972012467613899,39.72268632588,152.15708036685785
1698415431741.0,0.01666666753590107,2.384119242081046,0.1423579681456089,0.4453589181900024,0.21981749379262328,-3.831171276800334,-8.2550571020931,-3.014715299162575,38.97740681949947,138.78411638710648
1698415431758.0,0.01666666753590107,2.3603026054248213,0.07172229716926813,-0.07309153969585895,0.1595133933469653,-3.8103716498777267,-8.805574430847168,-9.058743292404511,50.63107216628064,130.91536963303662
1698415431774.0,0.01666666753590107,2.116483327667415,0.7425058815091848,-1.0016571684330702,-0.0806549606874585,-3.0437779135555028,-9.777021754455566,-8.431279426564828,65.50287334806711,130.28666438031527
1698415431791.0,0.01666666753590107,2.2497633786052464,1.199583002282679,-1.127773026829958,0.10474617650136352,-2.47425690138489,-9.963619261822103,1.3523748943415859,78.73496467618696,137.40500557103255
1698415431808.0,0.01666666753590107,2.4234208865083753,1.2896838367074728,-0.9679133042633533,0.3306986659176647,-2.3172873473018405,-9.843760125732421,7.430826614113563,80.70921719540081,143.85883765739925
1698415431824.0,0.01666666753590107,2.609607913377881,1.3457985226392746,-0.37281507550477977,0.5659291251584887,-2.204011681255698,-9.28306802444458,11.339594465723767,78.91647695338006,151.19030807097758
1698415431842.0,0.01666666753590107,2.4800728941872716,1.3522680109143257,0.18895605319142342,0.4860226447507739,-2.1290435340330003,-8.75948604888916,13.425198705202684,74.01962063926361,156.62601849928384
1698415431858.0,0.01666666753590107,2.3594591403380036,1.2846151551410554,0.28658289920687674,0.3939953723080456,-2.144605844824016,-8.688258549499512,10.852813713766128,71.30454531210266,157.53887328185604
1698415431874.0,0.01666666753590107,2.138533685303479,0.9555439442947506,0.002595277190208435,0.2003643130429089,-2.414102876934409,-9.000701866149901,6.2617684475664195,70.42822521140086,156.24882813255905
1698415431891.0,0.01666666753590107,1.8382286963447927,0.8644105519518256,-0.48789925227761266,-0.047884325464069843,-2.4169462836667894,-9.534758473968505,3.117979221676705,76.53386791425866,151.19664648652733
1698415431908.0,0.01666666753590107,1.6459927446998655,0.8706079452872276,-0.6236544611573219,-0.1800144757144153,-2.3449703039973975,-9.706392805480956,2.3982832560495195,80.84901067714347,148.61849596165766
1698415431924.0,0.01666666753590107,1.5934882120892404,0.9982722021698951,-0.7084218255996704,-0.16160890432149172,-2.1538833762571215,-9.827299989318847,1.8943768719651315,81.33248561754282,148.08938852741343
1698415431941.0,0.01666666753590107,1.59978322058022,0.919699600714445,-0.5771703578799963,-0.05835881159678101,-2.1519377951472998,-9.741557642364501,2.8691959844613377,79.95792370745609,150.04597817743362
1698415431958.0,0.01666666753590107,1.5670752753295003,0.8670382701069116,-0.48921501105129717,-0.021847382409870622,-2.1486460601255297,-9.684396077728271,3.3817073396828836,77.19918298093125,150.86558721745683
1698415431974.0,0.01666666753590107,1.4225481464512646,0.7299091425254941,-0.39010640204548835,-0.09980828170776367,-2.2345374601617456,-9.613167993816733,4.142358613677347,75.27437420111913,149.79356170646665
1698415431991.0,0.01666666753590107,1.2355064024485647,0.5146434668183326,-0.34470892496109007,-0.19782105830088256,-2.389861585125327,-9.601047347912191,5.588493649189814,73.63514246069441,145.30648259160512
1698415432008.0,0.01666666753590107,1.1450701985895633,0.42965456857979295,-0.2642868962466717,-0.22026699112579226,-2.4374463431209326,-9.542539629364013,6.493624768471203,71.0282983111215,141.40615770758268
1698415432024.0,0.01666666753590107,0.9893009602069854,0.4342985949933529,-0.0898117883503437,-0.31139599955454467,-2.400635784856975,-9.387215796661376,6.372653153646991,67.3904507667135,138.4148080586839
1698415432041.0,0.01666666753590107,0.7939217421002686,0.3058949179202318,0.11135784972608088,-0.43155506843887265,-2.487874507848918,-9.208698135375975,4.390598423966876,60.713708626594254,133.13079613184362
1698415432058.0,0.01666666753590107,0.6668498250875622,0.20545126091837881,0.1454249545007944,-0.5104140856202691,-2.5550614996761083,-9.190741622924804,1.5867557171966296,56.218364982837,126.74336714458776
1698415432075.0,0.01666666753590107,0.3753615451171994,0.04454290608167648,0.04195639671981335,-0.7559693203248083,-2.6815049825921653,-9.310002793121336,0.21044647930157026,53.81616354608142,119.84532687536012
1698415432091.0,0.01666666753590107,0.029504399969056246,-0.10073650246858597,0.03782499600350857,-1.0374376529969274,-2.7849045667901633,-9.33379458759725,0.8389570449511321,51.55238272304532,111.1108604741803
1698415432108.0,0.01666666753590107,-0.12082367027290165,-0.20969868922978638,0.04419862268865108,-1.1418846273560077,-2.8673548864617944,-9.34007995147705,0.9031219764483476,46.90097608694245,103.98640626415589
1698415432124.0,0.01666666753590107,-0.3865606191974133,-0.43000878884494304,0.051961073383688924,-1.367089221014455,-3.0632305097833274,-9.343521616363525,0.11233524082512703,42.61067813716356,96.67930596553617
1698415432141.0,0.01666666753590107,-0.6363214888982475,-0.6761085787549614,-0.004469254368543624,-1.5647607147768139,-3.281103153118491,-9.413103102111815,1.092030067852091,40.06217404838631,86.01962097319402
1698415432158.0,0.01666666753590107,-0.7191291706401854,-0.8291235499933362,-0.04074468284249305,-1.6054619968689978,-3.4208643827691674,-9.457095973095297,3.830079803503425,39.69563536167216,78.50701394282696
1698415432174.0,0.01666666753590107,-0.9367335914932191,-0.8305173424392938,0.14935586420893668,-1.7718591583803296,-3.4189193861812353,-9.272593392181395,6.244875682201685,43.23780903128121,73.03624415351102
1698415432191.0,0.01666666753590107,-1.1860714134763926,-0.7755895282045007,0.4871744451344013,-1.9413984903749077,-3.3663965872615575,-8.940846824645996,6.462284018577776,42.21681869376936,68.71436682410457
1698415432208.0,0.01666666753590107,-1.186177285003662,-0.8690493176683783,0.6153156718790531,-1.8890253290589898,-3.46680341938436,-8.814851962280272,9.696400361806793,37.26224386607172,67.21244237656462
1698415432225.0,0.01666666753590107,-1.15244547659792,-0.9569447510033845,0.8832464775860309,-1.8034326197084039,-3.5808272734493016,-8.543409349060058,14.361417003604563,31.626542083772893,66.13477512932002
1698415432241.0,0.01666666753590107,-1.175367356371507,-0.9319444575205444,0.8539584237813949,-1.794903203228861,-3.5803780683770774,-8.56794991607666,13.057980414666119,30.69192631850503,65.45992511856608
1698415432258.0,0.01666666753590107,-1.1744779332511126,-1.0316723674684762,0.8259639169186354,-1.7615339810578152,-3.6991900335013863,-8.592640120697022,10.60619778095177,32.41589680086751,63.35359040118252
1698415432274.0,0.01666666753590107,-0.9313146351844072,-1.5384689201787114,0.8248334515839815,-1.47632474482432,-4.223071576525271,-8.591442435345053,10.055946642358142,36.59217840283137,58.65590240326364
1698415432291.0,0.01666666753590107,-0.5852517383310943,-1.8322499141961335,0.8282727783828974,-1.049258987161331,-4.539854675945639,-8.585756790924071,9.19099368398253,44.475292459820366,53.27542771477527
1698415432309.0,0.01666666753590107,-0.4434140311999246,-1.9295386142984032,0.8766934026807546,-0.8337808742798865,-4.649987952312827,-8.536974932098389,4.954857426774554,43.35569809635563,49.940092663801714
1698415432324.0,0.01666666753590107,0.007090287054516375,-2.174303940734267,0.6897334917426109,-0.3152865772522986,-4.892999128557741,-8.72701527339518,-3.1107441303549574,23.101905924085038,43.40574289240431
1698415432341.0,0.01666666753590107,0.30360077910106625,-2.269747597491741,-0.288566766500473,-0.006584200695902109,-4.9715591627925635,-9.71058265838623,-8.299861464291904,11.541098706617483,36.21815041369231
1698415432358.0,0.01666666753590107,0.2879591559961438,-2.168250047522783,-1.1525392192959785,-0.018555208996683357,-4.845713938030601,-10.581623149871826,-8.80324982121643,11.328490285680619,29.839163540250595
1698415432375.0,0.01666666753590107,0.17013260344630107,-1.7474723206207154,-2.4857325273841617,-0.11058235357524826,-4.403684456524252,-11.921627891540526,-3.164281927833868,18.99332857226893,21.471828344695428
1698415432391.0,0.01666666753590107,0.06176542343618348,-1.104762153598666,-2.9210172108054158,-0.18016382105723022,-3.754107326342165,-12.35991643295288,-2.8957560288225785,23.020052937071604,17.15382544009568
1698415432408.0,0.01666666753590107,0.015545980710722504,-0.8968427490010857,-2.9845944877028465,-0.17537541773691773,-3.535337149645388,-12.427702267456054,-5.979616321160955,27.43906750930667,13.74942778510319
1698415432424.0,0.01666666753590107,0.12894986711326054,-0.7747244358077645,-2.752351081448793,0.027982094905758276,-3.3918346876397725,-12.202796949005126,-6.6979174340935765,33.822789411390495,11.887325264513661
1698415432441.0,0.01666666753590107,0.25473546150932086,-0.34467619173526765,-1.9679981088131666,0.2304417408266803,-2.9502544112056492,-11.42213757019043,-3.3905293827696017,33.985969460851265,13.710994310643528
1698415432458.0,0.01666666753590107,0.43015126605555415,0.027018355306982992,-0.7917103496611118,0.49185862089525906,-2.581247788073122,-10.244938541412353,3.665021025134074,26.611038553584148,18.05999346747044
1698415432474.0,0.01666666753590107,0.5464934800654649,0.15971972957402467,-0.26870997338593006,0.655711806145357,-2.464231181932986,-9.71716671295166,7.660038371149082,23.294139890727756,21.37814547003953
1698415432491.0,0.01666666753590107,0.7750020837053656,0.3759811383202672,0.47774318444430824,0.9247601903059519,-2.2714982405513524,-8.96359174041748,8.336260396152548,22.812835242937172,26.18999154219871
1698415432508.0,0.01666666753590107,0.8972461421702057,0.558944088576734,0.9048866469860076,1.093252150405757,-2.1149773070186377,-8.528146313476562,5.333633251160427,22.241597494345033,35.036333026888755
1698415432524.0,0.01666666753590107,0.9862484407685697,0.5690726838812231,1.1141156728774309,1.2054804262908174,-2.11976571033895,-8.314164540100098,4.915582985273335,17.68202275163298,41.556213042529485
1698415432541.0,0.01666666753590107,1.1725238765738903,0.30691403183490035,1.4762258144944906,1.3917792247054166,-2.40078513019979,-7.946654585266113,7.052041825104404,6.996780898963947,47.08042906210078
1698415432558.0,0.01666666753590107,1.229674043033272,0.09392623793184757,1.49480250467062,1.3989618479521944,-2.644694424328208,-7.920168729400634,7.912705851568072,-7.648465469374142,50.10564620399907
1698415432574.0,0.01666666753590107,1.1676321590095757,0.055823301769793034,1.3341606918156146,1.2774560771666466,-2.7009578710809348,-8.076390972247719,4.396696075348404,-10.32757814300767,50.56238436889241
1698415432591.0,0.01666666753590107,0.6513761424280703,0.18428338520526885,0.9364502445071935,0.7031469630698207,-2.581247788073122,-8.47203221206665,1.053871508506522,-6.9854594335278275,48.93003745915106
1698415432608.0,0.01666666753590107,0.307871478690207,0.22471388753205537,0.7271879008680582,0.308253344336257,-2.544586867412925,-8.680328341022133,1.0085852198752219,4.240484953275158,46.26532453183521
1698415432625.0,0.01666666753590107,0.21043407256593927,0.1326508131235838,0.765786219331622,0.19931718203508644,-2.642748843218386,-8.639925603485107,3.603131400404119,12.6525429468551,45.15195930089353
1698415432641.0,0.01666666753590107,0.27838728125896306,-0.05718260742425918,1.3276403501361607,0.27054468656213426,-2.8453584509700534,-8.074295461273193,5.466900914037954,15.552048749532016,45.55936642450645
1698415432658.0,0.01666666753590107,0.3399904085392132,-0.23922201309502122,2.0301941604852676,0.3306990272480907,-3.044974722124636,-7.3665101800113915,3.849856189358374,9.270048854757196,45.58788246429125
1698415432674.0,0.01666666753590107,0.38671332554109394,-0.3520855912089348,2.232570836263895,0.3576337907874491,-3.1634879965633154,-7.162403903961181,0.4698099730259785,1.3293320772377843,43.578205168947136
1698415432692.0,0.01666666753590107,0.47654637587517495,-0.606009498873353,2.081260330855846,0.4127004609370837,-3.415926341845095,-7.313987381091714,-1.5131242502314823,-3.1047546947830913,42.863442947778225
1698415432707.0,0.01666666753590107,0.2953503987586126,-0.5048693840399384,1.6363123315542936,0.18195927137294785,-3.312975670458376,-7.759009030151367,1.342577841750849,-0.3365942569387407,42.315907663153325
1698415432724.0,0.01666666753590107,0.22629171304171902,-0.5550511727914214,1.4377572598904371,0.08783721860805525,-3.369987889751792,-7.95518392868042,5.139102633409294,4.988597280613948,41.86410430993532
1698415432741.0,0.01666666753590107,0.10559858294646254,-0.8996931699961424,1.3738544043004512,-0.04668697803881951,-3.731362410570681,-8.013841869354248,8.749103496571154,7.9803725356753885,41.0583947048731
1698415432758.0,0.01666666753590107,-0.08817688062489032,-1.2036699793353676,1.5030816727161407,-0.2543839446579106,-4.06729853875041,-7.874678897857666,11.188793280359993,6.828342457615909,36.10579038675101
1698415432774.0,0.01666666753590107,-0.1830692967077717,-1.4026909149453044,1.6420839006930588,-0.36047702398989345,-4.292503716930747,-7.727435495758056,10.54508039448485,4.088627649910972,29.841256993231205
1698415432791.0,0.01666666753590107,-0.27483614638233556,-1.5818164789959788,1.7684370749771594,-0.46582189703676846,-4.4937662939876315,-7.593958753204345,7.716469394071728,2.102609916408368,25.081093254974217
1698415432808.0,0.01666666753590107,-0.24970121193546801,-1.699180875660479,1.6829145082533359,-0.4572925353561528,-4.6303851339593525,-7.673117045593261,5.607430775550497,2.4134161804859176,19.773201279248276
1698415432824.0,0.01666666753590107,-0.19978070446867494,-1.7825448030456899,1.5433470476090907,-0.41270051116943357,-4.729894140459597,-7.807491613769531,8.702809328150453,4.859255268961885,16.709922908200088
1698415432840.0,0.01666666753590107,-0.2512779049339704,-1.8415400128498671,1.3630968634426592,-0.46148238826142624,-4.815337504467368,-7.979425805011391,13.097615148646057,7.00258143711658,14.10227023498417
1698415432858.0,0.01666666753590107,-0.24813651990201321,-1.8674550830900667,1.3800123424082993,-0.44966099929809566,-4.891203769573569,-7.946654585266113,17.031689704904803,6.158565996754819,11.20197298413718
1698415432874.0,0.01666666753590107,-0.16729699642788617,-1.9705007392838596,1.4254735323786736,-0.3660135787963867,-5.036202607616782,-7.887547731781005,16.987230296049898,2.4015837315225164,9.522547287994227
1698415432891.0,0.01666666753590107,0.008672916603460907,-2.196402959817648,1.4417664955317973,-0.19797054977416992,-5.299115585161745,-7.858817311859131,12.292701260622149,-3.363157613114187,6.5185122702594365
1698415432908.0,0.01666666753590107,0.06962105057369918,-2.2943951320141553,1.0035744002312421,-0.16115969924926757,-5.416132191301882,-8.290072885894775,-1.930028965328717,-8.138361641366954,1.4123426745938286
1698415432925.0,0.01666666753590107,0.05871770803704857,-2.3475527217060326,0.5297533576667308,-0.19348142166137694,-5.450399494823813,-8.769661990466714,-13.179066008272105,-9.274570439987745,-1.7960567257496212
1698415432941.0,0.01666666753590107,0.11947769902404397,-2.406156594105065,-0.8240016769349574,-0.15008653483735396,-5.470001728655397,-10.135852728271484,-18.871203082361806,-6.333881584823414,-2.771810506945061
1698415432958.0,0.01666666753590107,0.2286703883391805,-2.3956822541028258,-2.0260943239510056,-0.05132571635590866,-5.397577420696616,-11.35779340057373,-19.163038282576235,-1.9891175721687322,-0.3178150520221873
1698415432974.0,0.01666666753590107,0.12523145851148293,-2.318239825721085,-2.571742585363984,-0.15951368560791016,-5.274874585613608,-11.917737313842773,-18.095718771924194,-1.1340707359671656,3.4311547076226026
1698415432991.0,0.01666666753590107,-0.3754325279941782,-1.8174489431664347,-3.531642094519734,-0.6660369560684077,-4.734832473644614,-12.889783187866211,-13.828960215346111,0.1336167228967116,8.058594423371312
1698415433008.0,0.01666666753590107,-0.8945476238012313,-1.566933382640779,-3.684391692820191,-1.1962029861892574,-4.459947611016035,-13.0497457862854,-0.024410322361258657,0.04726720357316254,14.378982542602543
1698415433024.0,0.01666666753590107,-1.1333412554163484,-1.4537863114103673,-3.495360236304998,-1.4456488899230957,-4.361486360003054,-12.855816036334634,12.588731050760611,0.6538114272847139,15.056269223342886
1698415433041.0,0.01666666753590107,-1.3178971008874476,-1.380389651288092,-2.631671276625991,-1.6380828118255362,-4.331259856304526,-11.978340543365478,21.351883392680833,1.1566191114080817,11.271570904232318
1698415433058.0,0.01666666753590107,-1.2406655387774108,-0.8875482664331793,-1.7250848399847745,-1.5689503119537607,-3.9134716666072604,-11.047445010375975,22.537862072236216,-2.738431372471209,2.193777573902406
1698415433075.0,0.01666666753590107,-1.1609485165271907,-0.4993818925395608,-1.3673428304493427,-1.505354257290624,-3.5770860410943626,-10.672153900146483,18.729702053326655,-11.721309832773684,-3.969434872478726
1698415433091.0,0.01666666753590107,-1.0281251963809133,0.23792671258747577,-1.1921692188948392,-1.4079401772430167,-2.8842636434257027,-10.480766820415854,16.30747791701918,-21.066806664650134,-8.969154262382393
1698415433108.0,0.01666666753590107,-1.2081444944009183,1.0475824687838553,-1.5387392615526914,-1.6475100173950195,-2.1342802656427025,-10.804433541870116,18.37041190486918,-22.10531985247765,-17.193039263668016
1698415433124.0,0.01666666753590107,-1.1438820117183028,1.3623156499370932,-1.805889146015048,-1.6111480431487784,-1.8667282301202415,-11.053879427337646,17.32250208429102,-14.034303022553374,-23.36615228269449
1698415433141.0,0.01666666753590107,-1.001165001001954,1.6501193231105804,-1.9241624742180108,-1.468992319577001,-1.6228189359918235,-11.156681045642495,14.09857851773778,-3.8139357976264536,-25.954392704515584
1698415433158.0,0.01666666753590107,-0.7326934394817799,1.9074390106931327,-1.2949468718022108,-1.1667243965148926,-1.4070415113702415,-10.51428622817993,7.7216005736857,6.128464072422103,-25.19787924449768
1698415433174.0,0.01666666753590107,-0.5861503676712513,1.8164494107350706,-0.7299228787899017,-0.9789292403290047,-1.5168758047908544,-9.944316595458984,5.160132785863763,9.627000517197587,-23.88680735784081
1698415433191.0,0.01666666753590107,-0.3013900807816535,1.3260662326872348,0.5595557907342911,-0.6519710395812988,-2.0245959020867943,-8.65025118266642,5.337401808034982,7.921874526755167,-22.98784518004041
1698415433208.0,0.01666666753590107,0.03028090076688677,1.0235089347571134,1.7255933740288019,-0.27997195663452146,-2.3502073278680444,-7.477241422271728,5.706710136457571,0.8613125209088484,-21.821189105646994
1698415433224.0,0.01666666753590107,0.1676203466307372,0.8795587289839982,2.1614923899561167,-0.12584524302827194,-2.508673550249636,-7.036558679199218,3.8366256860492363,-1.9013641554860545,-21.040884389202642
1698415433241.0,0.01666666753590107,0.4558987246438861,0.6232920575857163,2.741493002825975,0.1764227165664546,-2.775028484942019,-6.453271299743652,1.7319809068767331,-1.1031159984835504,-20.31779958253007
1698415433258.0,0.01666666753590107,0.6098476157315075,0.4769558334589004,3.0390602373838425,0.35658637322690334,-2.9260128271356223,-6.1547442802429195,-0.687736069757668,2.2819655613710252,-20.708604223817986
1698415433274.0,0.01666666753590107,0.6331760304793715,0.42192397432774303,3.0354882241159675,0.40551788792265575,-2.9807801901116964,-6.159083770751953,-1.0132101117169667,3.3032762774436275,-21.028735190216484
1698415433291.0,0.01666666753590107,0.6117662357691676,0.42055853119343517,3.0363609152972697,0.4095580666915513,-2.980181931957602,-6.159532683563232,-2.7258866628434224,1.9103981478804541,-21.06536549473526
1698415433308.0,0.01666666753590107,0.732922937388718,0.19826865593791007,2.8235528618752954,0.556502157051023,-3.1922181242242456,-6.376656846618652,-5.302552475342284,-0.5458750150480601,-19.271786846993884
1698415433324.0,0.01666666753590107,0.768918160681799,0.11901508648097514,2.697279182568192,0.6078279099395498,-3.256711931444704,-6.508637213134765,-8.229022157315118,-0.17437669052176927,-18.44348468370456
1698415433341.0,0.01666666753590107,0.6703147247191518,0.038483752173185344,2.2508318846195934,0.5289688744918443,-3.315818784929812,-6.9632368378788225,-10.684114871455984,3.742371209937176,-17.621524351059595
1698415433358.0,0.01666666753590107,0.569822954259254,-0.10246054978221654,1.9033499878138302,0.4712087594405748,-3.422809963878989,-7.323563603210449,-10.923232110335313,10.437319646175913,-15.84590739328806
1698415433374.0,0.01666666753590107,0.5087978095300495,-0.16975597041994334,1.8284791634857653,0.45160621964831366,-3.465755371636152,-7.407510298919678,-9.949839653601993,13.197104537870109,-12.81302251027278
1698415433392.0,0.01666666753590107,0.40246125856470316,-0.2190919559970498,1.7451853787273168,0.3857656728523725,-3.492241227501631,-7.499088512420654,-9.642213909800143,12.520459041138102,-7.690605175232182
1698415433408.0,0.01666666753590107,0.1605463531238958,-0.40054333264678715,1.656819113010168,0.18270743884214896,-3.6475653524652123,-7.59665281459391,-6.461921164778119,8.148863057215848,-1.175614507820122
1698415433425.0,0.01666666753590107,0.04823326676590368,-0.48527182638347144,1.6000024162888526,0.08439553317198296,-3.721785603930056,-7.6571058219909665,-2.522252683589132,3.976065705502339,2.486258440436811
1698415433441.0,0.01666666753590107,-0.22469392245626077,-0.6520461506441235,1.1966168459534645,-0.18570033933110533,-3.887135448345542,-8.060977714538573,0.666361046110966,1.8402779317572224,5.456915604358218
1698415433458.0,0.01666666753590107,-0.45952455045823004,-0.8782949926584959,0.7132464692771434,-0.41853644621472336,-4.12416141270101,-8.540566234588622,5.846586007357085,5.123715070982901,8.225608770277404
1698415433474.0,0.01666666753590107,-0.5289044126871973,-0.9851116918236017,0.5456897624671458,-0.47749368492895733,-4.25240083912313,-8.700528833007812,11.907620317858708,10.064026756146268,10.852718944891395
1698415433491.0,0.01666666753590107,-0.5631862561911344,-1.2508522940099238,0.5036082780629396,-0.4939538167759543,-4.554519161114096,-8.729559112659096,17.261853419555894,12.544293840020508,12.497321775324684
1698415433508.0,0.01666666753590107,-0.46291890560425814,-1.5837994695067406,0.6816489694863558,-0.37080204604878086,-4.947018303515017,-8.529792327117919,17.833589771957442,9.614405648368082,12.909516007772137
1698415433524.0,0.01666666753590107,-0.40305126034710553,-1.7578826554760336,0.7082347785949706,-0.3067571516396012,-5.1598032683223485,-8.488941261291503,13.42558887975902,2.4740496907388247,10.755943702088777
1698415433541.0,0.01666666753590107,-0.2348779377424158,-2.0338833703920245,0.3375976316511631,-0.15068513091816566,-5.463866586901247,-8.84926861114502,2.5189746196743488,-3.499685197216514,5.53336719239864
1698415433558.0,0.01666666753590107,-0.14203938544942066,-2.2625351818948984,-0.558517095336318,-0.08304895685163792,-5.690866539543867,-9.746196408081055,-10.14603427618967,-13.08385231746848,0.45524208666084043
1698415433574.0,0.01666666753590107,-0.20205031163478268,-2.1916829455584286,-1.3338830439180136,-0.1912369249619951,-5.579985367418825,-10.536582231140136,-25.58707196114147,-25.86791397188676,-5.852839899315878
1698415433591.0,0.01666666753590107,-0.7932594787992536,-1.3567755514666437,-4.036616400238871,-0.8384195486648939,-4.656871282085776,-13.271209439849853,-23.892522518628816,-7.144561006280458,-9.27746644019583
1698415433608.0,0.01666666753590107,-0.8362294364757835,-0.999262674511969,-5.121222485515475,-0.8548797296025964,-4.266017568804323,-14.367754384723305,-3.5474642914514574,22.716191481276077,-5.573981204750829
1698415433624.0,0.01666666753590107,-0.636723347697407,-0.8939622251287103,-4.774063244792819,-0.5753566869209986,-4.174140080095827,-14.015656518554687,12.423069935083829,38.99556146231336,0.1776491915676384
1698415433641.0,0.01666666753590107,-0.02685320960683748,-1.0162485883653163,-2.7452076394349336,0.15532374137109145,-4.344876878246665,-11.967865911102294,13.517894617523512,34.04426854051191,6.615022416344893
1698415433658.0,0.01666666753590107,0.2599353499736637,-1.191693710337579,-0.9651140289336443,0.5000887804335914,-4.5455406126275655,-10.177302929034829,5.904521806331249,18.782169858983398,6.758012426619111
1698415433675.0,0.01666666753590107,0.3213395206157118,-1.1751666461676358,-0.4743856907099485,0.5852325952392071,-4.537310836681724,-9.682899701690673,0.7770595228149494,5.388378924905372,3.8509835974582494
1698415433691.0,0.01666666753590107,0.5410997677957639,-0.7902779787704348,-0.14356149871647358,0.7998129190307111,-4.15289154036194,-9.35205095977783,-0.6155985999517553,-4.609638748667776,2.1057919307879476
1698415433708.0,0.01666666753590107,0.6607412060141563,-0.10659633441269398,-0.3592161737412214,0.9054570307524874,-3.472788631273806,-9.566780921173095,2.3102399832139393,-3.6640046076082116,4.749625610141303
1698415433724.0,0.01666666753590107,0.6879832140091806,0.2284028051778674,-0.5076362184047699,0.9238624742812477,-3.1461297422662375,-9.712378309631347,3.417608308064352,0.7709552013268092,7.841041799249005
1698415433741.0,0.01666666753590107,0.7046100122265517,0.620871844701469,-0.6965729823738336,0.935833519114647,-2.766050228716433,-9.896881475067138,3.1287382637233563,2.1673099505383715,10.708747948697635
1698415433758.0,0.01666666753590107,0.7564202058974653,0.770836780719459,-0.5211649775415659,0.9793780435424297,-2.6262887068048117,-9.717914900970458,3.7051236270721577,-1.610079425830048,10.797965587183633
1698415433775.0,0.01666666753590107,0.7566820717040449,0.9262252030909061,-0.2977162876397371,0.9501987108092754,-2.4859289267390965,-9.489567917633057,3.711800136985845,-8.149126019498894,11.916853879842918
1698415433791.0,0.01666666753590107,0.797230282126367,0.9931766325965523,-0.2834831796258688,0.9558849214858375,-2.427570261272788,-9.472808506011962,2.2901692588944456,-11.459703342278441,12.155546793220061
1698415433808.0,0.01666666753590107,0.6539095333632081,1.0595166522055863,-0.2849994294077158,0.7790133103744127,-2.3630761617913842,-9.47415582896769,0.9382343781457964,-10.42558794250277,11.933763720680577
1698415433825.0,0.01666666753590107,0.3979094770118594,1.2074325467392801,-0.2397030746102333,0.4960485925315413,-2.21254073240906,-9.43016178894043,0.49766369790470205,-0.8410064218672533,9.95148487541832
1698415433841.0,0.01666666753590107,0.24927535120621322,1.2348887089416385,-0.09197218125462532,0.35164828663705844,-2.1848577757135033,-9.28246947402954,2.9247604271330374,6.564044018814034,8.80959506695537
1698415433858.0,0.01666666753590107,0.03809506338285282,1.249244274291396,0.6642594432681799,0.17402846924052573,-2.165404887224734,-8.527697400665282,7.144029105298844,10.747286437315784,8.682901888040805
1698415433874.0,0.01666666753590107,-0.07635273344889283,1.2229407892554998,1.6634329781919717,0.09382272275844589,-2.2125410246700046,-7.520187999072671,11.064615318607284,10.513250859178944,9.405859482440084
1698415433891.0,0.01666666753590107,-0.1561605940540321,1.1601651841297744,2.1333926691532135,0.02902962206415832,-2.299779747661948,-7.040748532104492,10.740511743432778,7.879897037889916,9.975637278097132
1698415433908.0,0.01666666753590107,-0.25088154429383575,0.9252136879608035,2.9595173295915127,-0.06135147234043106,-2.559849610735476,-6.205022515106201,8.799401863392774,3.0912458612652753,9.177885697191629
1698415433924.0,0.01666666753590107,-0.2446234885460697,0.6777431942194699,3.3690836343884465,-0.06524205003818496,-2.831741429027915,-5.786337084308267,5.947889238692599,-2.963126240031234,6.589253393266905
1698415433941.0,0.01666666753590107,-0.20577404486564918,0.5561246472418307,3.443610175323486,-0.04384387270053848,-2.966265342546999,-5.707178207397461,4.121707109834991,-6.7773444232911855,4.849278923905436
1698415433958.0,0.01666666753590107,-0.0831270498894155,0.36658114955127236,3.416752563536167,0.05656296855541877,-3.1639366171136496,-5.731269861602783,1.666949181685161,-8.230027048896755,2.7701469289953398
1698415433974.0,0.01666666753590107,-0.07628602488823234,0.13710954609811304,3.135332161659002,0.034416594065818935,-3.391984617504477,-6.0136360198974605,-2.9782809356956115,-9.387537499991524,-1.2130347664050947
1698415433991.0,0.01666666753590107,-0.037834083492262284,-0.006318681627511978,2.8980262113183737,0.04982925811992026,-3.525909688347578,-6.254851837158203,-5.064021778957929,-12.317253229367406,-4.4998951110654195
1698415434008.0,0.01666666753590107,-0.031109935469552874,-0.2146343920662999,2.393481529188156,0.027383635822264475,-3.7214863287225364,-6.7645175155639645,-6.015157210507116,-16.818321425422774,-7.697122029474021
1698415434024.0,0.01666666753590107,0.022722868336457758,-0.324080270691216,1.662973543986678,0.02902965745513211,-3.810969615770876,-7.502829452514648,-6.417346923367793,-22.405498128763245,-10.442564377684835
1698415434041.0,0.01666666753590107,-0.0019481109936255962,-0.4073465829208493,1.2262217106223106,-0.04130001973689068,-3.881299289537966,-7.944410021209716,-4.17349531166932,-23.667891257205437,-11.242984001234875
1698415434058.0,0.01666666753590107,-0.0741203530206345,-0.5942769755035638,0.3512637534320354,-0.16011228168872185,-4.063108978106081,-8.820987688556313,-0.534670730044889,-24.376111864696767,-13.397844651350429
1698415434075.0,0.01666666753590107,-0.24293588251899925,-0.759152480405569,-0.4517050723463297,-0.39010526953432706,-4.23623968565613,-9.620051908111572,4.2532070343779536,-25.41480946763187,-17.049373064665968
1698415434091.0,0.01666666753590107,-0.3340557943258434,-0.7755027267038822,-0.8113461935013532,-0.5267244200333021,-4.263922934612632,-9.974543391418456,3.5783977913156217,-26.180758833988147,-20.36714940683071
1698415434108.0,0.01666666753590107,-0.6572723608598112,-0.7706801288530231,-1.3664385750859975,-0.8904933982406742,-4.2639226423516865,-10.526855786895752,-1.8684580116122256,-23.716807364493775,-24.64089780825065
1698415434124.0,0.01666666753590107,-0.7787113865520805,-0.9636068392410874,-1.7710627473056315,-1.0377368003402836,-4.439297913958132,-10.937461371612548,-11.558834146571067,-13.762211337908514,-33.55038439181746
1698415434141.0,0.01666666753590107,-0.7430709680460393,-1.073980354104936,-1.8552935206532477,-0.9931448309524915,-4.514565920910239,-11.035174726867675,-19.93590321546715,-7.325417158426403,-39.33823546806749
1698415434158.0,0.01666666753590107,-0.6432328026566654,-1.098294418889284,-2.1840444135040045,-0.8723873029846697,-4.487182239422202,-11.383680706024169,-24.926092357044535,-6.002022756733181,-42.66181234838486
1698415434174.0,0.01666666753590107,-0.7440528186902403,-0.8898238101497292,-2.520623808023333,-0.9377788810287602,-4.207060645183921,-11.74715044555664,-20.613872915124492,-3.5837328093876364,-43.92708098646763
1698415434191.0,0.01666666753590107,-0.8012035696715116,-0.88627868488878,-2.5424632993876934,-0.9675568007095716,-4.16561073668152,-11.783063470458984,-12.549705911164097,-5.463674503428769,-42.574464474184154
1698415434208.0,0.01666666753590107,-1.045111621690914,-0.8579571380287409,-2.284567565482855,-1.1956045636383816,-4.119672284588217,-11.531672296142577,-4.220440055608464,-11.279942154833813,-42.131943348048196
1698415434224.0,0.01666666753590107,-1.3755699760466813,-0.8076645823791623,-1.8051386199086903,-1.521814494168898,-4.078073030743003,-11.049240661621093,7.1181529336282505,-16.338599673972343,-45.00967280010382
1698415434241.0,0.01666666753590107,-1.4560979493536055,-0.831921364018321,-1.508577347522974,-1.6093525197678245,-4.125657788738608,-10.744279809680581,9.202319845173703,-23.36278158433909,-50.21575909870343
1698415434258.0,0.01666666753590107,-1.8249713014952837,-0.5239075542479753,-1.2569593787133693,-1.9946693311829118,-3.84044822371155,-10.484209654346108,6.656208030153247,-28.33466069629896,-58.91729374280003
1698415434274.0,0.01666666753590107,-2.214554264188558,0.14224398637712002,-1.351909114474058,-2.39734414116675,-3.195809134453535,-10.571148517608641,4.503311059424072,-25.870584575852238,-72.22982420877513
1698415434291.0,0.01666666753590107,-2.2981866332516074,0.535920648124814,-1.377506497067213,-2.473809084552154,-2.820668246349692,-10.590153077808022,7.866405706731848,-23.08385885675057,-77.87393053884765
1698415434307.0,0.01666666753590107,-2.1431268583126366,1.2585139146789908,-1.007871805164218,-2.3035214001419955,-2.1241049085870385,-10.211270665088295,9.008115368955439,-22.919282033604528,-80.39990524864761
1698415434324.0,0.01666666753590107,-1.9750809066809714,1.7642182882383464,-0.4462713568598032,-2.119317491647415,-1.6430203047603367,-9.640851535034178,1.6135171454166801,-26.27377064255809,-80.20998500858624
1698415434340.0,0.01666666753590107,-1.9200446636356412,1.8886250046297908,-0.26560674667358397,-2.0561705233254934,-1.515977686907351,-9.46128699504435,-6.481373116647492,-25.78892112658827,-80.22710829283547
1698415434358.0,0.01666666753590107,-1.8259467223986983,1.8974895713478326,0.0712158089518547,-1.9488804070955141,-1.4885940054193139,-9.131485131835937,-11.463459092548302,-22.898707796277158,-81.4898531760199
1698415434374.0,0.01666666753590107,-1.5350060663737355,1.7260875872865318,0.5482569826066493,-1.6349406048096715,-1.6280562521234154,-8.666411459350586,-9.796468609563004,-23.783746633454484,-82.27037987361228
1698415434391.0,0.01666666753590107,-1.386756117580086,1.6626482575550674,0.8599854289859533,-1.477222524781106,-1.676838110949099,-8.360102699932456,-4.367195634549473,-28.19123696901245,-81.61462024158853
1698415434408.0,0.01666666753590107,-0.9940796458508818,1.6391510621115564,1.3546505221366882,-1.0868180987702682,-1.699134406170249,-7.86585027923584,0.7266902927806904,-31.787898472725274,-79.94248064974269
1698415434424.0,0.01666666753590107,-0.6165920484904199,1.380550102546811,1.7856150042712688,-0.7206549463022034,-1.9689304212272165,-7.4307035429805515,2.6103747170435785,-31.982548618786883,-77.8190499688666
1698415434441.0,0.01666666753590107,-0.4137034411342814,1.1984747487798333,1.9271990654349327,-0.5259763964112848,-2.154780909618735,-7.287650578308105,-2.6103444080791367,-31.16907991882753,-78.48568326204901
1698415434458.0,0.01666666753590107,-0.24643223673477768,0.8515621762946247,2.131536227631569,-0.36287140831314024,-2.4877242857232686,-7.088333290100097,-11.883217759501544,-30.207761528999505,-80.1067466992815
1698415434474.0,0.01666666753590107,-0.13205365094803273,0.5069964591965079,1.9404577754586934,-0.2516907052522525,-2.7834084830135106,-7.2969286942631,-19.326884275481085,-30.38433216432809,-83.80330654979493
1698415434491.0,0.01666666753590107,-0.08920994086652062,0.38499592716395853,1.759977874189615,-0.2088943323106505,-2.8627161207452416,-7.492504457855224,-17.893905464970533,-29.494440477745467,-86.36851386618744
1698415434508.0,0.01666666753590107,0.01688033458702266,0.23870617252737283,1.2660732440173625,-0.09621720754639244,-2.974794978222251,-7.998429196166992,-12.997322358420881,-25.456403612129957,-87.18621045324304
1698415434524.0,0.01666666753590107,0.16686660565398634,0.029153321509063242,0.8978612783938645,0.07840985777494497,-3.1537615523189304,-8.377461831012369,-8.933791811728298,-19.18984335997395,-85.07244449004251
1698415434541.0,0.01666666753590107,0.15182634597569702,0.0002066284880042076,0.7714239329576492,0.09127866429882124,-3.164534875267744,-8.510339438629149,-7.654343700928584,-15.283637683076147,-82.7892830052365
1698415434558.0,0.01666666753590107,0.1799598229177296,-0.16549422132223843,0.47920390464663504,0.15322859800603472,-3.3161180601373315,-8.807519719696044,-4.77200472495685,-12.686972222913843,-80.54908341030986
1698415434575.0,0.01666666753590107,0.23699250047728418,-0.34819559803307054,0.17158815428316593,0.26051870053628223,-3.492989707781374,-9.117119921875,0.8533270159128985,-9.753044828141002,-76.25810585670857
1698415434591.0,0.01666666753590107,0.21384930610321462,-0.37071021218001843,0.07063537871539592,0.27727815097328273,-3.5214208524957296,-9.215880740356445,4.290269348361735,-6.680126925739809,-70.35310679090905
1698415434607.0,0.01666666753590107,0.08869564380198716,-0.46231619047075506,-0.06683306382298469,0.19692273035482502,-3.6270650007501244,-9.348160382080078,7.958649119020163,-1.6876823276324404,-63.17509706760258
1698415434624.0,0.01666666753590107,-0.08099553601974621,-0.5779211762472987,-0.09265081116855144,0.09681512777376919,-3.7725130438655614,-9.362675229644775,11.6171016366068,3.681156920161406,-55.177618323150895
1698415434641.0,0.01666666753590107,-0.2718557240657508,-0.6809133486881852,-0.08818097227811812,-0.03950472925137728,-3.9040444975703954,-9.347112918853759,13.940521110154513,3.712240684187311,-50.78864804552742
1698415434658.0,0.01666666753590107,-0.43119566054195163,-0.9284934402838348,-0.09202887987792491,-0.15412707893243058,-4.184315437151492,-9.338284300231933,15.521133605801246,-2.567071531149109,-49.182860326373664
1698415434675.0,0.01666666753590107,-0.5860594014521688,-0.8297185932770371,-0.41254444382488725,-0.27413649194668976,-4.134635752703249,-9.64025298461914,17.928799193892836,-9.861697769910272,-50.81091787731625
1698415434691.0,0.01666666753590107,-0.6805914232574403,-0.6229334534063935,-0.68115621753335,-0.34611217935513705,-3.9671912740960713,-9.893888722991942,17.497967936521356,-8.122302159080961,-53.701225122728445
1698415434708.0,0.01666666753590107,-0.6587415566295385,-0.19373188929110766,-1.2328262234538794,-0.2888009405825287,-3.5690059027522802,-10.432883371734619,11.018992216272538,-4.274529604306264,-58.81352950892919
1698415434724.0,0.01666666753590107,-0.6213291600149125,0.1621422805458307,-1.9447452435195445,-0.19452932327911257,-3.216459708294272,-11.14111815032959,-3.7020094876974547,-7.196118262343477,-62.21363865889656
1698415434741.0,0.01666666753590107,-0.6121558926738798,0.33318829077631235,-2.458622986662388,-0.15233144595362244,-3.026420243780315,-11.660360635375977,-4.015583045605917,-9.93908295943287,-62.893310783204534
1698415434758.0,0.01666666753590107,-0.7543664882380515,0.7958367819413542,-2.7236878815442322,-0.2578259931368753,-2.5607477286189795,-11.924621228137612,8.546870986757185,-5.778423280761297,-64.05143765887189
1698415434774.0,0.01666666753590107,-0.7928198452729731,1.0222200639903545,-1.5917022054553032,-0.2338840130679309,-2.376393908526003,-10.773608195495605,22.264676703550506,-5.943896566235903,-67.62641331196993
1698415434791.0,0.01666666753590107,-0.7009148109704255,0.9823761293798684,-0.8376216214865445,-0.10549491250943392,-2.456899231609702,-10.002077295032143,17.6440042111654,-15.216215178231659,-66.72516985098675
1698415434808.0,0.01666666753590107,-0.5398193360637873,0.6064046356707811,0.10710545297861099,0.06344590560272335,-2.845657726177573,-9.052027564239502,-0.48587585861431787,-28.40610618256459,-64.73046091520871
1698415434824.0,0.01666666753590107,-0.964322732425481,1.2500368859738111,-0.4983510881870985,-0.3788828511111438,-2.138171135601401,-9.682450788879393,-30.26311679712787,-29.13605703690031,-83.50397350941913
1698415434841.0,0.01666666753590107,-1.357312434822321,2.128003377330303,-0.7984744369685649,-0.7589625107914209,-1.1604387403741478,-10.0179377119869,-37.6174546840474,-26.562055851951403,-100.1500324413323
1698415434858.0,0.01666666753590107,-1.9672592731446026,2.2687644316732882,-2.298517764902115,-1.3248918551456181,-0.9292489348262548,-11.546785694122313,-21.770744743531864,-10.196012477893946,-110.85936607875126
1698415434875.0,0.01666666753590107,-1.6787635260537266,2.486618078047037,-1.4662597162753344,-0.9240126416079699,-0.6548135695308447,-10.72542488708496,1.4164977774867236,-0.8827988552946804,-112.59319593918066
1698415434891.0,0.01666666753590107,-1.6737036123156546,2.4555276509955526,-0.9322761736929416,-0.8348288489628582,-0.6775587775632739,-10.187028788757324,9.583586127285692,-6.615637560257018,-110.19774614441964
1698415434908.0,0.01666666753590107,-1.498275587608665,2.410513912531733,0.22990473417341709,-0.5855325280338526,-0.7285852004453539,-9.015815264129639,13.798313156540264,-22.40908056298292,-108.62124969152148
1698415434924.0,0.01666666753590107,-1.2890928850769996,2.0692957522958517,1.1447925506919623,-0.3537438798099756,-1.0767913198724388,-8.096292189025878,12.975266823817265,-33.05722424317503,-110.02385635834028
1698415434941.0,0.01666666753590107,-1.1921097437925636,1.869623659300804,1.4939619621932505,-0.2561800890933722,-1.2756599875301122,-7.747337297058105,7.914327167722304,-42.53731166019387,-112.32436652363812
1698415434958.0,0.01666666753590107,-1.1657732332699,1.6505194283440707,1.732618742620945,-0.251840598584339,-1.4743790175840257,-7.517793212890624,-2.929620960501148,-52.576569589088734,-114.79859572028607
1698415434974.0,0.01666666753590107,-1.0914965023774652,1.4647200856179,1.2190993113964796,-0.23044242124669254,-1.593639895519614,-8.058583512878418,-14.645267712679246,-56.293589271260934,-118.1214554307406
1698415434990.0,0.01666666753590107,-1.0867305300846695,1.3032187333241105,0.9226946908771991,-0.26560725813023744,-1.6889593413755297,-8.380154723358153,-17.469820726951735,-54.699569968047115,-123.16520862333651
1698415435008.0,0.01666666753590107,-1.0599662226039916,1.403787770271301,0.470095300039649,-0.2802717432986945,-1.5020619742795824,-8.863633821105957,-12.844249281384434,-52.76727871599925,-134.6557861282107
1698415435024.0,0.01666666753590107,-0.9310378640696406,1.5661892862752078,0.43842531953454017,-0.17477730571329592,-1.2874816504880786,-8.913313505554198,-7.207160970684095,-52.42139110624063,-142.29431452611612
1698415435041.0,0.01666666753590107,-0.7359176622252911,1.5033435385227203,0.4526601811140775,-0.0023947861820459364,-1.3112740294858813,-8.91271495513916,-2.2578714287435706,-53.89098143824974,-145.42766380785946
1698415435058.0,0.01666666753590107,-0.3853784967407584,1.5063532417327166,0.6102981359779834,0.30945005311854185,-1.2677291945308446,-8.770110318756103,-1.7440529460696135,-58.047878963349106,-149.2128726836105
1698415435074.0,0.01666666753590107,-0.23416465664021668,1.6822946227893232,0.6680185035407543,0.4207803572505712,-1.0583864791318773,-8.725069400024413,-4.072071271362861,-63.260802281307896,-150.78137098499056
1698415435091.0,0.01666666753590107,-0.14893551990501583,1.6984446703404188,0.6476105062842369,0.4496605243740603,-1.0084075194761157,-8.75903713607788,-2.7703067981106004,-70.79960991733114,-151.11494376367565
1698415435108.0,0.01666666753590107,0.06008183599710464,1.7317413752645252,0.62787295563519,0.5461766692012548,-0.9485527702331542,-8.792855234527588,4.50949451505705,-85.89700541721396,-154.62605714803405
1698415435124.0,0.01666666753590107,0.3265566707421094,1.9135288520008324,0.5375999795138836,0.6970114103237166,-0.7653963432312011,-8.888772938537597,7.666947961268197,-96.4025125494214,-156.9894528650202
1698415435142.0,0.01666666753590107,0.36483335603587325,2.085511266298592,0.40194355483353134,0.6031886692989618,-0.5955573707029224,-9.028084963116049,2.9695513136061003,-98.77075087052908,-158.7166574419547
1698415435158.0,0.01666666753590107,0.15496961243748664,2.496144323544204,0.10342705672681331,0.23867146654017268,-0.15876549758911132,-9.336638286590576,-14.523541788838571,-84.04819615229657,-162.59549455084826
1698415435174.0,0.01666666753590107,0.15628244860172272,2.4565534869119525,0.06236380945444107,0.1638526777891995,-0.14395079029500485,-9.393200716289877,-27.77497792023519,-70.35082550772627,-164.26457421794595
1698415435191.0,0.01666666753590107,0.1479944396626204,2.3613825096160173,-0.10565583869218825,0.07062854711581021,-0.12988544006347655,-9.590274024963378,-37.69347810460423,-72.62540144474558,-164.2362425932687
1698415435208.0,0.01666666753590107,0.1494275412056595,2.5965549550592897,-0.1450239724844694,-0.011522515614610165,0.19467852249145506,-9.651625442504882,-37.44517682261217,-79.75290191913982,-166.24054794483064
1698415435224.0,0.01666666753590107,0.47793578440696,2.7199945799842475,0.10228373191058635,0.21502881647767497,0.3963900123596191,-9.421482807922363,-32.90788898716187,-86.29995925748803,-168.08543668116442
1698415435241.0,0.01666666753590107,0.5914473050355911,2.6017571998775004,-0.48844870285391806,0.15921404507420955,0.3628710429869592,-10.026318002319336,-30.684546299106827,-91.405744228126,-170.6154616931422
1698415435258.0,0.01666666753590107,0.5302035125870257,2.27170326160416,-0.36361937713623044,0.011970642974600196,0.07975684280395508,-9.908104295349121,-25.613585047952167,-55.59603229661129,-162.38934578131895
1698415435275.0,0.01666666753590107,0.2637776315502822,2.023952343486249,-0.7541390361577271,-0.3009215499544516,-0.10324994659423828,-10.31062944946289,-47.90548517798705,-61.609535747565616,-168.38861511804296
1698415435291.0,0.01666666753590107,-0.22623393670618533,3.484885019519925,-1.195064355814457,-0.8527850691530853,1.520168124334514,-10.782436814117432,-65.88482435664339,-39.91251094329299,-170.76425053402178
1698415435307.0,0.01666666753590107,-0.4945891783703118,3.188867937013507,-0.1681733774036169,-1.1150997885439544,1.3620010310299693,-9.783156896209716,-65.23670087611171,-28.374086255735566,-171.2152069437827
1698415435324.0,0.01666666753590107,-0.05772234032414853,3.1126901217401026,-1.125116959363222,-0.689380732782185,1.4139255717955528,-10.762834288024901,-56.9447453557841,-43.748932577440776,-171.62026448232112
1698415435341.0,0.01666666753590107,0.4100766654718667,2.1121115423239765,-0.881487651219964,-0.27772768483906984,0.5283700866147876,-10.534936217498778,-34.75186589324148,-41.877283159938855,-163.3129376212664
1698415435358.0,0.01666666753590107,0.6017804099362343,1.8484892474658787,-0.8699234701544046,-0.10654219307266174,0.3149870097838342,-10.529997592052817,-31.126394651609537,-25.514707814432477,-160.00738561016868
1698415435375.0,0.01666666753590107,1.0427974995296447,1.458733850815147,-1.3343646899551151,0.3577833644591272,-0.013168255261331797,-11.005695534405112,-41.79945998453573,-4.829466252670521,-154.4637172118412
1698415435391.0,0.01666666753590107,1.2498390253141523,0.8708645503968,-1.3108873682558535,0.6591533888334408,-0.4676178040102124,-11.007791045379639,-53.882143173463746,14.713052217549745,-138.73133268520064
1698415435408.0,0.01666666753590107,1.3879274994470179,0.7785028583679348,-0.935612040117383,0.8767265012327581,-0.44696781469136476,-10.651952823638915,-48.4137434597898,10.434296433694536,-123.67452216936603
1698415435424.0,0.01666666753590107,1.4121967021763324,0.8928719456739723,-0.051794484645128244,0.9386763595914468,-0.2418147330019623,-9.78106196975708,-32.932962611604985,-11.031014202985407,-107.11055528108723
1698415435441.0,0.01666666753590107,1.3115949320033191,0.9298362331949174,0.7791811229556799,0.7745239813322201,-0.15592267537862062,-8.952368920135498,-5.746379875157005,-46.96035092139737,-87.86421601139352
1698415435458.0,0.01666666753590107,1.1930843609783797,0.9486499469973146,1.2106599843531847,0.5437829059325159,-0.1527802126344293,-8.512284142956137,6.076930722021181,-57.74468686609224,-79.38687208151883
1698415435474.0,0.01666666753590107,0.7475939984284341,0.7730047724083066,1.4553455235511064,-0.02199694694839418,-0.3585319908693433,-8.255356961822509,4.992519089858004,-52.22295703537883,-75.38169696354754
1698415435491.0,0.01666666753590107,0.2325950692359358,0.26100465970560904,1.6385580646544693,-0.6419454662598669,-0.889895121820271,-8.060977714538573,-7.102688531573695,-27.082198662909967,-78.53492209577563
1698415435508.0,0.01666666753590107,0.11658369461558758,0.11963080722652375,1.7356278613090514,-0.776619309643656,-1.0197806349489837,-7.963563634490966,-16.737911315871507,-6.850715169129109,-84.56769351037856
1698415435524.0,0.01666666753590107,-0.10549129578024148,0.20861834664717316,2.2691566458612678,-0.9671079792298376,-0.8979756254885345,-7.436689631652832,-24.094424618041685,10.486567871412642,-89.67881285875832
1698415435541.0,0.01666666753590107,-0.04513824162632227,0.15807108558416366,2.7544927696526047,-0.8252515308655798,-0.8913915709231048,-6.964582991790771,-22.588477189080596,13.144258510488074,-92.25330240223289
1698415435558.0,0.01666666753590107,0.20806743476614356,0.24577260378226637,2.928831099426746,-0.5240310344971716,-0.7754224280092865,-6.796988875579833,-13.31130786211366,4.72271295726416,-91.31503931594823
1698415435574.0,0.01666666753590107,0.5012414028011262,0.5095363529376685,3.246958306932449,-0.20754742948003113,-0.5081696676943451,-6.480953671917319,-2.2767161341070477,-5.528660338286856,-86.38056231988335
1698415435591.0,0.01666666753590107,0.6889838424190878,0.6000188801564276,3.334216319146752,-0.025438538769632577,-0.4516066534731537,-6.389675318145752,9.568567395074481,-12.859383273037889,-77.96087884698191
1698415435608.0,0.01666666753590107,0.6448141535639762,0.7520635450579226,3.479415063676238,-0.07855988810434937,-0.3419223629824817,-6.239139888763427,11.599671847618573,-10.014950993186078,-73.6753722749058
1698415435624.0,0.01666666753590107,0.542076102014631,0.9561383299913256,3.4285172356098887,-0.17477679425664244,-0.17492672412134705,-6.286275733947754,5.799855987489973,-0.4688445684754795,-73.10421819613099
1698415435641.0,0.01666666753590107,0.4548915934279561,0.7154852611798793,2.928777907934785,-0.2041056915283203,-0.42841267875991756,-6.788608585247397,-8.423341039201981,16.630272657193984,-72.61854393481889
1698415435658.0,0.01666666753590107,0.3668436729449779,0.6933689987007529,2.7153637053132056,-0.217273910257034,-0.4315552145693451,-7.009024775585532,-14.53013121384034,24.255528289994775,-72.8471776870959
1698415435674.0,0.01666666753590107,0.40724494917728005,0.8914796145327388,2.4730174227178097,-0.09531922666020691,-0.20724844653345642,-7.25892015838623,-13.313408999057085,21.641025790814982,-73.33777651479957
1698415435691.0,0.01666666753590107,0.5599247336445375,1.021667106282711,1.9993167916625736,0.14110822381284088,-0.053121641595661635,-7.739256281933188,-7.59279003612843,11.134026262273894,-73.22983903534586
1698415435708.0,0.01666666753590107,0.6867619285859167,0.9905994025196879,1.6931313663631677,0.30526063860468566,-0.07796162995025516,-8.047659967803954,-3.2795829915430876,2.377131654293871,-71.4757986451624
1698415435724.0,0.01666666753590107,0.9724874803110957,1.051345401513949,0.9771545953392982,0.6066308456420898,-0.01960296448394656,-8.763974592480062,-0.1231763652037372,-5.10823615477636,-67.32639042248795
1698415435741.0,0.01666666753590107,1.1810117189340292,1.1049810570463539,0.24961831942498683,0.8156745050292462,0.02169708721898496,-9.490166468048095,1.893224704429515,-7.693522519781424,-61.95902286701683
1698415435757.0,0.01666666753590107,1.1769600323904306,1.0446734494693577,-0.15366028340458868,0.8089408128600567,-0.047136210510507225,-9.892392346954345,-0.19584816391007126,-7.617942207747001,-59.60971783028841
1698415435774.0,0.01666666753590107,0.8874853572648018,1.0908324855107814,-0.8215215505570173,0.5175964348724111,-0.0005989157412201165,-10.56022497253418,-4.255433676047377,-7.424872396704605,-58.16888259468505
1698415435791.0,0.01666666753590107,0.7618037255667149,0.9744042006526141,-1.415425601094961,0.3907037468841299,-0.10175393588282167,-11.155782635498046,-8.760522719089769,-5.456484875553684,-59.06237379096027
1698415435808.0,0.01666666753590107,0.7503256153494119,0.8689961992416531,-1.6729449029028414,0.39115269622802734,-0.1879452687136829,-11.415852790832519,-10.229801423718,2.414043277229089,-60.52422551863976
1698415435824.0,0.01666666753590107,0.913709420388937,0.7500664529565721,-2.128648689496517,0.5876268699645996,-0.2876038397524506,-11.87479132156372,-8.677873161264383,10.21099193651743,-58.39602053553383
1698415435841.0,0.01666666753590107,1.2712022774688898,0.778628019117564,-2.3468220693439243,1.0040682664291,-0.24346081970855593,-12.096404612731932,-2.7898424197973064,10.238629443220242,-52.10599346093695
1698415435858.0,0.01666666753590107,1.543450069592148,0.7229987055499106,-2.4196873990684744,1.3046903037140145,-0.30600933808013797,-12.169278125762938,6.394943049116504,0.9985260587750857,-46.57453744084544
1698415435874.0,0.01666666753590107,1.853310822403431,0.6475563649442047,-2.615412215742469,1.61533793258667,-0.4150951512210071,-12.361412808990478,17.986037886684834,-9.824196616272317,-39.74122345928741
1698415435890.0,0.01666666753590107,1.8747811881944536,0.8417915275823324,-2.8438199893563985,1.5955857506240718,-0.30286687533594664,-12.579434797668457,26.987636401398433,-21.039581530618463,-33.48164536801045
1698415435908.0,0.01666666753590107,1.8931063878275454,0.8043508547212928,-3.1597137387216088,1.5716437888214363,-0.4146462384097278,-12.884994784545897,29.383671884880783,-18.77257173565224,-32.26803345062049
1698415435924.0,0.01666666753590107,1.656970942571014,0.7489261238150298,-3.5606267814636228,1.3097779457092285,-0.5490208065859973,-13.274800742340087,30.980249093938777,-8.956424497316782,-33.32560969642151
1698415435941.0,0.01666666753590107,1.4276225271061063,0.7158261105068028,-3.63829162042439,1.0990881630828604,-0.6971620343081653,-13.33704998550415,35.51681975952622,10.404805384405712,-35.36436993725154
1698415435958.0,0.01666666753590107,1.3690917199432848,0.783531719380617,-3.4631712003618476,1.0929531674591824,-0.7263413670413196,-13.148955517578123,38.52585618328076,18.453460174987367,-36.03610196664937
1698415435974.0,0.01666666753590107,1.5279013489350675,0.8483823772147298,-3.105065033689141,1.3118729634934103,-0.7600093894958496,-12.776506937298178,37.462805540859975,15.794158465041457,-37.44015663357221
1698415435991.0,0.01666666753590107,1.5377379755556582,0.8676336056515574,-2.9222546436458825,1.3778630371536127,-0.8741831734254956,-12.571653642272949,42.16938302998362,4.653186754155308,-41.47192167798236
1698415436008.0,0.01666666753590107,1.4646284618116914,1.054186250963062,-2.784627211153507,1.3317747008613776,-0.8046016876772045,-12.412588869476318,49.70513074125869,1.671632557021674,-44.184398118164104
1698415436024.0,0.01666666753590107,1.429631821101904,1.1321683391794561,-2.329162494012713,1.3280337151016108,-0.8580221660889684,-11.931204113659263,52.928177482277235,6.089300621494896,-44.636901565772035
1698415436041.0,0.01666666753590107,1.5288668329663573,1.1161449867479503,-1.6875708096265791,1.4951790440821437,-1.0357917854860423,-11.25514200439453,40.64772958102609,15.53881013537324,-44.70041890995857
1698415436058.0,0.01666666753590107,1.577704513632506,0.9909908129900693,-1.379477504879236,1.6181811109901871,-1.2404958812989293,-10.928781806072593,23.004273492541582,21.887651968913097,-48.25511573141083
1698415436074.0,0.01666666753590107,1.5624772800147533,0.4659330657936632,-0.9746177703380584,1.690755394479446,-1.8031331253051757,-10.514285643658042,9.749055143892068,23.853593855454328,-53.950154782124145
1698415436091.0,0.01666666753590107,1.5411691190481185,0.07044657814502715,-0.950511503085494,1.7857752911332063,-2.2091002365663646,-10.485406170654297,-0.5220397892788313,17.256971541846625,-61.08296231350349
1698415436108.0,0.01666666753590107,1.5341988416440784,-0.07127864505499601,-1.1763988183110952,1.8489223416535183,-2.3337483604982494,-10.713304241180419,-9.86546974187941,10.155039026836686,-60.23159289383973
1698415436124.0,0.01666666753590107,1.4951773293323813,-0.14805354943871496,-2.087834448549151,1.8617911025116218,-2.3675664589479566,-11.632976953887939,-19.32096591656527,4.998347802540963,-54.69416387331905
1698415436141.0,0.01666666753590107,1.1574036104619503,0.04066577238738536,-2.9263866288840767,1.5869068244049325,-2.1037553635194897,-12.486060932922362,-19.546418508236343,12.255059234332562,-45.629618335214616
1698415436158.0,0.01666666753590107,0.973767144858092,-0.06882423764020204,-3.0850732160180807,1.4689923926422372,-2.164807505853474,-12.652308310699462,-14.46193006743047,21.71411735267058,-37.66912848021313
1698415436175.0,0.01666666753590107,1.0075858278296888,-0.5650539497591555,-2.9333161358863116,1.58720613614507,-2.630180453546345,-12.502520484814047,-5.480102389043119,30.87372204854867,-30.780715362620608
1698415436191.0,0.01666666753590107,0.927231603654474,-1.0011999261848628,-1.7406541650384664,1.635838357366994,-3.0639797207154333,-11.301679299163817,7.784593700853435,32.56835345333136,-20.706693478397675
1698415436208.0,0.01666666753590107,0.8516578917540609,-1.1469175800219178,-0.9402648343592882,1.6415245132446288,-3.238307821356505,-10.488698197937012,17.852753575221207,24.243382506103202,-12.573746469495248
1698415436224.0,0.01666666753590107,0.7222909226067363,-1.3378111771471797,0.5175076240777969,1.5599720922607927,-3.4802716805055733,-9.015515988922118,24.564520925404278,9.649050075385679,-5.528347430245504
1698415436241.0,0.01666666753590107,0.7383898244924842,-1.5811153449892996,1.1418746174186467,1.5801730957031248,-3.8064816567018624,-8.371775017547607,25.28119047689891,-7.408005244549258,0.8360649934461607
1698415436258.0,0.01666666753590107,0.8327470742527395,-1.627088868395984,1.0338947196930646,1.6430208892822264,-3.919158772332966,-8.4666452583313,29.442097323041075,-15.605090291079042,5.968034027875905
1698415436274.0,0.01666666753590107,0.997042879570648,-1.458580267688632,0.7443430338084698,1.7465701841492205,-3.8721724186219273,-8.731054904174805,43.457734292366446,-14.596233784627724,9.314371659828701
1698415436291.0,0.01666666753590107,0.5246622450727969,-1.1169719390913844,0.6777344263911247,1.2378022583007813,-3.6423292053773997,-8.77130683506429,44.01374925684592,-10.346356040583329,11.563684434655423
1698415436308.0,0.01666666753590107,0.3188422969724983,-0.9646388126373291,0.6116437053680419,0.9976339042663573,-3.5927988662719725,-8.811858625683188,37.76829599677255,-12.160418425645574,11.255484954963292
1698415436324.0,0.01666666753590107,0.2857699753887951,-0.852842863754928,0.8501181149661541,0.8960300078460947,-3.593098433740437,-8.546102825927735,29.871965523739583,-25.18103770555172,9.497892012637774
1698415436341.0,0.01666666753590107,0.468751995671913,-0.857093214675784,0.44368543201982974,0.9959879636902361,-3.666570497186482,-8.937105884552002,26.693376484028654,-36.454030996678696,8.174120242992908
1698415436357.0,0.01666666753590107,0.670238883003965,-0.8011872030586004,-0.011344985356926917,1.1029788503784685,-3.6788404884338375,-9.376291667065024,28.91449936060344,-33.66028555065755,4.646079088550263
1698415436374.0,0.01666666753590107,0.5181941450372338,-0.6861895355254412,-0.9006009324908256,0.8824129493713379,-3.6577415863037106,-10.239102090343833,27.773698967313106,-6.683872857612738,-1.7231265271131637
1698415436391.0,0.01666666753590107,-0.019411679695546625,-0.3329828313320875,-1.0211796150267123,0.3520973181793466,-3.369988766534626,-10.338312406158447,27.806290922485115,8.726405070411909,-2.6824618142043626
1698415436408.0,0.01666666753590107,-0.21249727043975145,-0.15744330907464027,-0.6463549532651901,0.18510175238344817,-3.2691327293395993,-9.937731956371664,34.586076711517755,10.88628847088836,1.5977248942819642
1698415436424.0,0.01666666753590107,-0.3939177404945716,0.09579700023978949,0.2581944245904684,0.01795654898378998,-3.139546564483642,-8.990226649364828,39.3828980750502,0.18394307748567293,9.852034759781995
1698415436441.0,0.01666666753590107,-0.18494290855992584,0.02063712983727455,0.6973959891945123,0.2050035902161151,-3.30369930806905,-8.520364573559165,33.27854627794554,-10.180700901322071,11.95122168419913
1698415436458.0,0.01666666753590107,-0.05746723305191844,-0.19591712437570094,0.6891933935165405,0.29224224014282224,-3.5926492286682126,-8.50375479954183,26.830743541068657,-14.02586517760747,8.911528810128642
1698415436474.0,0.01666666753590107,0.16913411219455302,-0.5452312050446868,0.5900052895337343,0.4762965658325702,-4.021510601043701,-8.57468302372396,23.758630320329058,-8.657991334364121,0.9334552734391973
1698415436490.0,0.01666666753590107,-0.0396651987764053,-0.4392743375793099,0.4918313310295343,0.2536358114380389,-3.9703348328188057,-8.652345524597168,22.16875523439414,-3.56175390096877,-1.4503490487869528
1698415436508.0,0.01666666753590107,-0.30331556895151734,-0.05134615635573864,0.4732879586011171,-0.01705861376337707,-3.645471595056355,-8.646509073528646,18.038766947077335,-2.488365980682583,-0.3095485487749149
1698415436525.0,0.01666666753590107,-0.33178624195866285,0.017778817796707154,0.44253217033147807,-0.05297165693202987,-3.616740882873535,-8.661472833904623,16.619650005487323,-3.2239634804712045,2.7811667988909208
1698415436541.0,0.01666666753590107,-0.4528335649196058,0.16757687281519174,0.4841401920050382,-0.18764546378320082,-3.505560143280029,-8.604760766601562,15.922099861026844,-4.4707340452908735,6.725232214358104
1698415436558.0,0.01666666753590107,-0.5370573605371639,0.06778408093750476,0.4811749124586582,-0.2971802080016583,-3.6529531829833983,-8.589048818206786,13.845224603307203,-4.807015420868689,7.041403805472109
1698415436574.0,0.01666666753590107,-0.44701859503053126,-0.15531857200562954,0.3735883979648352,-0.2222117867843248,-3.9092826904848215,-8.68332050857544,14.659001515552848,-3.5763621814995465,1.5530833114752898
1698415436591.0,0.01666666753590107,-0.3483695663604885,-0.4369420952394604,0.24791619168221948,-0.12674297731928527,-4.228010201971233,-8.793602838024496,16.998218362877157,0.05088080053092241,-2.982820450172731
1698415436607.0,0.01666666753590107,-0.43144086747467514,-0.30322540645003315,0.2485731942862272,-0.20216031134789808,-4.134486991882324,-8.775796547698974,16.8546221733141,2.880891402754515,-3.132488464464516
1698415436624.0,0.01666666753590107,-0.45536505615860223,-0.04659633148014545,0.38544191736578937,-0.21742338346401227,-3.923647900445759,-8.619125976562499,12.437612261600432,-0.2968779875755859,-1.6759480626383585
1698415436641.0,0.01666666753590107,-0.28716511954162266,-0.16655542081296443,0.5201444023221731,-0.053121294535789634,-4.069394634246826,-8.473378365978599,10.498454961889404,-5.432193734657357,-3.4703121821342857
1698415436658.0,0.01666666753590107,-0.24483051889287308,-0.24543840339183806,0.600209288161993,-0.03306983736567199,-4.18177247467041,-8.379256897735596,12.128210668614377,-11.925837286148777,-5.660651182676413
1698415436674.0,0.01666666753590107,-0.27394842202868314,-0.1622469099640846,0.582094370278716,-0.0858918932265602,-4.129698588562012,-8.384194938659668,14.726007378857966,-13.198363000224683,-5.255079245516111
1698415436691.0,0.01666666753590107,-0.23384894175454973,-0.03828472246974706,0.5086649769306183,-0.0704792383056134,-4.041711385290324,-8.442104106792806,16.49526372296493,-11.992415408857124,-4.636731974671101
