timestamp,interval,accx,accy,accz,accGx,accGy,accGz,alpha,beta,gamma
1698745575.0,16,-1.8,0.9,0.5,-1.3,9.3,5.2,0.0,-2.6,-7.2
1698745575.015,16,-1.3,0.8,0.6000000000000001,-0.8,9.200000000000001,5.300000000000001,2.1,-3.1,-17.599999999999998
1698745575.033,16,-1.2000000000000002,0.5,0.6000000000000001,-0.7000000000000001,8.9,5.2,-0.1,-3.0000000000000004,-19.3
1698745575.049,16,-1.1,0.1,0.4,-0.7000000000000001,8.5,5.1000000000000005,-7.2,-0.6000000000000001,-17.8
1698745575.067,16,-0.9,0.0,0.2,-0.5,8.4,4.9,-12.000000000000002,0.9,-16.5
1698745575.082,16,-0.6000000000000001,0.0,0.1,-0.30000000000000004,8.4,4.800000000000001,-12.6,1.6,-15.9
1698745575.099,16,-0.9,-0.1,-0.1,-0.6000000000000001,8.200000000000001,4.7,-12.000000000000002,2.8,-12.4
1698745575.115,16,-1.0,-0.2,-0.1,-0.8,8.1,4.7,-11.1,4.9,-10.4
1698745575.132,16,-1.2000000000000002,-0.4,-0.2,-1.0,7.9,4.6000000000000005,-8.9,7.500000000000001,-11.000000000000002
1698745575.149,16,-1.2000000000000002,-0.4,-0.30000000000000004,-1.0,7.9,4.5,-8.0,7.500000000000001,-11.2
1698745575.167,16,-1.1,-0.4,-0.30000000000000004,-1.0,7.9,4.6000000000000005,-6.1000000000000005,4.300000000000001,-10.2
1698745575.182,16,-1.4000000000000001,-0.4,-0.2,-1.3,7.800000000000001,4.6000000000000005,-3.2,-1.0,-7.400000000000001
1698745575.199,16,-1.5,-0.4,-0.5,-1.5,7.9,4.4,-2.1,-0.4,-6.2
1698745575.216,16,-1.5,-0.30000000000000004,-0.8,-1.4000000000000001,7.9,4.1000000000000005,-0.7,-9.3,-7.1000000000000005
1698745575.232,16,-1.4000000000000001,0.30000000000000004,0.2,-1.4000000000000001,8.6,5.1000000000000005,0.5,-14.0,-6.7
1698745575.249,16,-0.7000000000000001,1.1,0.2,-0.7000000000000001,9.3,5.0,13.0,-20.3,-9.0
1698745575.266,16,0.0,2.0,0.1,0.0,10.3,4.9,15.299999999999999,-33.5,-15.9
1698745575.282,16,0.1,1.5,0.30000000000000004,0.1,9.9,5.1000000000000005,13.3,-20.1,-23.8
1698745575.299,16,-0.1,0.9,-0.1,-0.5,8.9,4.9,2.4000000000000004,-5.9,-26.1
1698745575.315,16,-0.6000000000000001,0.2,0.2,-0.7000000000000001,8.6,4.9,0.5,3.2,-24.5
1698745575.332,16,-0.1,-0.2,-0.30000000000000004,-0.30000000000000004,8.200000000000001,4.4,4.300000000000001,10.0,-22.3
1698745575.349,16,0.0,-0.30000000000000004,-0.9,-0.30000000000000004,8.1,3.8000000000000003,8.0,-0.2,-17.599999999999998
1698745575.365,16,-0.5,-0.4,-0.7000000000000001,-0.8,8.0,4.0,9.0,-5.8,-14.3
1698745575.382,16,-1.2000000000000002,-1.1,-0.5,-1.4000000000000001,7.300000000000001,4.2,10.9,-10.2,-12.9
1698745575.399,16,-0.30000000000000004,-1.4000000000000001,0.2,-0.6000000000000001,7.0,4.800000000000001,9.700000000000001,-15.100000000000001,-16.0
1698745575.415,16,0.30000000000000004,-1.3,0.4,0.0,7.1000000000000005,5.0,8.9,-15.6,-15.399999999999999
1698745575.432,16,1.5,-1.3,0.1,1.2000000000000002,7.1000000000000005,4.7,5.1,-13.9,-11.3
1698745575.448,16,1.5,-1.3,-0.30000000000000004,1.2000000000000002,7.1000000000000005,4.3,-2.3000000000000003,-14.900000000000002,-4.7
1698745575.466,16,1.0,-1.1,-0.4,0.7000000000000001,7.300000000000001,4.2,-5.1,-15.100000000000001,0.1
1698745575.482,16,-0.1,0.2,-0.4,-0.30000000000000004,8.6,4.3,-7.400000000000001,-16.6,3.8
1698745575.499,16,-0.6000000000000001,1.4000000000000001,-0.30000000000000004,-0.8,9.8,4.3,-2.6,-17.0,3.3000000000000003
1698745575.515,16,-0.6000000000000001,1.5,-0.4,-0.8,9.9,4.2,2.1,-16.5,0.9
1698745575.532,16,-0.2,1.1,-0.4,-0.4,9.5,4.2,13.700000000000001,-16.0,-6.9
1698745575.549,16,0.30000000000000004,0.1,-0.2,-0.1,9.0,4.2,18.6,-15.5,-9.3
1698745575.566,16,0.6000000000000001,-0.2,-0.1,0.4,8.3,4.4,23.1,-13.0,-8.0
1698745575.582,16,0.6000000000000001,-0.4,0.0,0.4,8.1,4.5,18.8,-8.0,-2.8
1698745575.599,16,0.5,-0.4,0.1,0.30000000000000004,8.1,4.5,14.800000000000002,-5.500000000000001,-0.8
1698745575.616,16,0.4,-0.5,0.0,0.2,8.1,4.4,8.5,-2.5,0.6000000000000001
1698745575.632,16,0.2,0.1,-0.1,0.0,8.6,4.3,7.0,-2.7,1.0999999999999999
1698745575.649,16,0.0,-0.1,0.0,-0.2,8.5,4.3,7.6,-2.5,0.9
1698745575.666,16,-0.4,-0.1,0.0,-0.5,8.4,4.3,7.9,-1.0,-1.8
1698745575.682,16,-0.4,-0.1,0.1,-0.5,8.5,4.4,6.000000000000001,-0.9,-4.3999999999999995
1698745575.698,16,-0.30000000000000004,0.1,0.1,-0.5,8.6,4.4,3.8,-1.6,-5.1
1698745575.715,16,-0.30000000000000004,0.1,0.0,-0.5,8.700000000000001,4.3,3.0000000000000004,-1.0999999999999999,-4.6000000000000005
1698745575.732,16,0.0,0.4,0.2,-0.30000000000000004,9.0,4.4,2.9,0.9,-3.6
1698745575.749,16,0.1,0.4,0.5,-0.1,9.0,4.7,3.9,3.0000000000000004,-3.4
1698745575.766,16,0.0,0.4,0.5,-0.2,9.0,4.800000000000001,3.3000000000000003,4.3999999999999995,-3.0000000000000004
1698745575.782,16,-0.2,0.1,0.30000000000000004,-0.5,8.700000000000001,4.6000000000000005,-2.1999999999999997,6.1000000000000005,-3.2
1698745575.799,16,-0.5,0.30000000000000004,0.30000000000000004,-0.7000000000000001,8.9,4.6000000000000005,-10.4,6.8,-6.000000000000001
1698745575.816,16,-0.6000000000000001,0.30000000000000004,0.30000000000000004,-0.9,8.9,4.6000000000000005,-12.9,6.3,-8.0
1698745575.832,16,-1.3,0.0,0.1,-1.6,8.5,4.5,-16.0,8.799999999999999,-7.699999999999999
1698745575.849,16,-1.4000000000000001,-0.30000000000000004,0.2,-1.8,8.200000000000001,4.6000000000000005,-17.0,10.4,-5.7
1698745575.866,16,-1.0,-0.1,-0.2,-1.4000000000000001,8.4,4.2,-15.299999999999999,11.5,-4.0
1698745575.882,16,-0.1,-0.6000000000000001,-0.6000000000000001,-0.5,7.9,3.9000000000000004,-11.2,2.7,2.1
1698745575.899,16,0.1,-0.6000000000000001,-0.6000000000000001,-0.2,7.9,4.1000000000000005,-8.5,1.0999999999999999,8.1
1698745575.915,16,0.6000000000000001,-0.1,0.2,0.2,8.3,4.7,0.30000000000000004,1.6,15.5
1698745575.944,16,1.4000000000000001,1.2000000000000002,0.1,1.1,9.700000000000001,4.6000000000000005,9.3,3.6,9.5
1698745575.948,16,0.8,1.3,0.1,0.5,9.8,4.5,9.5,13.0,6.6000000000000005
1698745575.965,16,0.30000000000000004,0.9,-0.2,-0.6000000000000001,8.9,4.1000000000000005,5.0,23.700000000000003,4.9
1698745575.982,16,-0.6000000000000001,-0.1,-0.30000000000000004,-0.9,8.4,4.1000000000000005,1.9,25.2,7.0
1698745575.998,16,-0.6000000000000001,-0.6000000000000001,-0.4,-0.9,7.9,4.0,2.1,26.6,13.4
1698745576.015,16,-0.4,-0.5,-0.5,-0.8,8.0,3.9000000000000004,4.3999999999999995,25.0,15.399999999999999
1698745576.032,16,0.0,0.1,-0.5,-0.30000000000000004,8.6,3.8000000000000003,8.4,20.6,16.2
1698745576.049,16,-0.30000000000000004,0.0,-0.4,-0.6000000000000001,8.6,3.9000000000000004,8.700000000000001,18.8,17.200000000000003
1698745576.065,16,-0.5,-0.1,-0.5,-0.9,8.4,3.8000000000000003,5.2,15.8,11.700000000000001
1698745576.082,16,-0.7000000000000001,-0.1,-0.6000000000000001,-1.0,8.4,3.7,3.6,13.8,8.600000000000001
1698745576.099,16,-0.7000000000000001,-0.1,-0.6000000000000001,-1.0,8.5,3.7,4.2,9.700000000000001,2.9
1698745576.115,16,-0.7000000000000001,0.0,-0.5,-1.0,8.6,3.7,6.4,8.1,1.0999999999999999
1698745576.132,16,-0.5,0.2,-0.4,-0.8,8.700000000000001,3.8000000000000003,10.1,6.1000000000000005,-0.7
1698745576.15,16,-0.5,0.4,-0.30000000000000004,-0.8,9.0,3.9000000000000004,9.0,4.5,-0.6000000000000001
1698745576.166,16,-0.5,0.4,-0.30000000000000004,-0.8,9.0,3.9000000000000004,6.5,3.9,-0.4
1698745576.182,16,-0.5,0.5,-0.30000000000000004,-0.8,9.1,3.9000000000000004,1.5000000000000002,2.8,-0.8
1698745576.199,16,-0.4,0.4,-0.2,-0.8,9.0,4.0,0.2,1.5000000000000002,-1.3
1698745576.216,16,-0.4,0.30000000000000004,-0.2,-0.8,8.9,4.0,0.6000000000000001,0.9,-1.8
1698745576.232,16,-0.30000000000000004,0.2,-0.1,-0.6000000000000001,8.8,4.1000000000000005,1.0999999999999999,-0.30000000000000004,-2.5
1698745576.248,16,-0.30000000000000004,0.2,0.0,-0.7000000000000001,8.8,4.2,0.1,-1.4,-3.1
1698745576.265,16,-0.4,0.2,0.0,-0.7000000000000001,8.8,4.2,-2.8,-1.9,-3.0000000000000004
1698745576.283,16,-0.30000000000000004,0.2,0.0,-0.7000000000000001,8.8,4.1000000000000005,-4.5,-2.0,-2.9
1698745576.299,16,-0.30000000000000004,0.2,0.0,-0.7000000000000001,8.8,4.2,-6.2,-1.7,-2.3000000000000003
1698745576.315,16,-0.2,0.2,0.0,-0.6000000000000001,8.9,4.2,-5.9,-0.5,-1.9
1698745576.332,16,-0.2,0.2,-0.1,-0.6000000000000001,8.9,4.2,-4.3999999999999995,2.0,-0.8
1698745576.349,16,-0.30000000000000004,0.1,-0.1,-0.8,8.8,4.1000000000000005,-4.0,3.3000000000000003,-0.1
1698745576.365,16,-0.4,0.1,-0.1,-0.9,8.700000000000001,4.1000000000000005,-5.500000000000001,2.9,-0.2
1698745576.383,16,-0.30000000000000004,0.1,-0.2,-0.8,8.700000000000001,4.1000000000000005,-6.4,2.3000000000000003,-0.2
1698745576.399,16,-0.30000000000000004,0.1,-0.2,-0.8,8.700000000000001,4.1000000000000005,-6.9,0.8,-0.4
1698745576.415,16,-0.2,0.1,-0.2,-0.8,8.700000000000001,4.1000000000000005,-5.9,-0.4,-0.30000000000000004
1698745576.432,16,-0.2,0.1,-0.2,-0.8,8.700000000000001,4.1000000000000005,-5.4,-0.7,-0.2
1698745576.449,16,-0.2,0.0,-0.2,-0.8,8.6,4.1000000000000005,-5.0,-1.3,-0.1
1698745576.465,16,-0.30000000000000004,0.0,-0.2,-0.8,8.6,4.1000000000000005,-5.1,-1.8,-0.2
1698745576.482,16,-0.2,0.0,-0.2,-0.8,8.6,4.1000000000000005,-5.300000000000001,-2.7,-0.2
1698745576.499,16,-0.1,0.0,-0.1,-0.7000000000000001,8.6,4.1000000000000005,-5.0,-3.8,-0.8
1698745576.515,16,-0.1,0.0,-0.2,-0.7000000000000001,8.6,4.1000000000000005,-3.5,-4.7,-0.8
1698745576.532,16,-0.1,0.0,-0.2,-0.7000000000000001,8.6,4.1000000000000005,-3.2,-5.4,-0.9
1698745576.549,16,-0.1,0.0,-0.1,-0.6000000000000001,8.6,4.2,-2.3000000000000003,-6.1000000000000005,-1.3
1698745576.565,16,-0.1,-0.1,0.0,-0.6000000000000001,8.4,4.3,-1.7,-6.2,-1.9
1698745576.582,16,0.0,-0.2,0.1,-0.6000000000000001,8.4,4.4,-1.4,-5.6,-1.8
1698745576.599,16,-0.1,-0.30000000000000004,0.1,-0.7000000000000001,8.3,4.4,-0.4,-5.1,-1.4
1698745576.615,16,-0.2,-0.4,0.1,-0.7000000000000001,8.200000000000001,4.4,1.0,-5.4,-1.0999999999999999
1698745576.632,16,-0.2,-0.30000000000000004,0.1,-0.7000000000000001,8.200000000000001,4.5,1.6,-5.8,-1.0999999999999999
1698745576.649,16,-0.1,-0.2,0.1,-0.7000000000000001,8.3,4.4,3.1,-6.4,-1.0
1698745576.665,16,-0.1,-0.1,0.1,-0.7000000000000001,8.5,4.4,4.300000000000001,-7.1000000000000005,-1.8
1698745576.682,16,-0.1,-0.1,0.1,-0.7000000000000001,8.5,4.4,4.7,-7.400000000000001,-2.3000000000000003
1698745576.7,16,-0.2,-0.1,0.1,-0.7000000000000001,8.4,4.4,5.4,-8.0,-3.2
1698745576.715,16,-0.2,-0.1,0.1,-0.7000000000000001,8.5,4.4,6.1000000000000005,-8.700000000000001,-3.4
1698745576.733,16,-0.2,-0.1,0.1,-0.7000000000000001,8.5,4.3,6.3,-9.0,-3.4
1698745576.749,16,-0.1,0.0,0.1,-0.7000000000000001,8.6,4.3,6.3,-8.799999999999999,-2.9
1698745576.767,16,0.0,0.0,0.0,-0.6000000000000001,8.6,4.2,6.6000000000000005,-8.3,-2.7
1698745576.782,16,0.0,0.0,0.0,-0.6000000000000001,8.6,4.2,6.9,-7.400000000000001,-2.1999999999999997
1698745576.799,16,0.0,0.0,-0.1,-0.5,8.6,4.1000000000000005,7.2,-6.000000000000001,-1.8
1698745576.815,16,0.0,0.0,-0.1,-0.5,8.6,4.1000000000000005,7.1000000000000005,-5.1,-1.4
1698745576.833,16,0.0,0.0,-0.2,-0.5,8.6,4.0,6.9,-4.2,-1.4
1698745576.849,16,0.1,0.1,-0.2,-0.5,8.700000000000001,3.9000000000000004,6.3,-2.1,-1.6
1698745576.865,16,0.1,0.2,-0.2,-0.5,8.8,3.9000000000000004,5.500000000000001,-1.0,-1.4
1698745576.882,16,0.1,0.2,-0.30000000000000004,-0.5,8.9,3.8000000000000003,5.2,-0.30000000000000004,-1.2000000000000002
1698745576.898,16,0.1,0.4,-0.30000000000000004,-0.5,9.0,3.8000000000000003,4.0,1.3,-0.30000000000000004
1698745576.915,16,0.0,0.4,-0.4,-0.6000000000000001,9.1,3.7,2.5,2.6,0.7
1698745576.932,16,0.1,0.30000000000000004,-0.4,-0.5,9.0,3.7,1.0,3.9,1.2000000000000002
1698745576.948,16,0.1,0.4,-0.4,-0.5,9.0,3.7,0.30000000000000004,4.3999999999999995,1.5000000000000002
1698745576.965,16,0.0,0.30000000000000004,-0.4,-0.5,9.0,3.7,-0.5,4.6000000000000005,1.7
1698745576.982,16,0.0,0.30000000000000004,-0.4,-0.6000000000000001,8.9,3.7,-0.9,4.5,1.7
1698745577.0,16,-0.1,0.2,-0.30000000000000004,-0.7000000000000001,8.8,3.7,-1.2000000000000002,3.9,1.5000000000000002
1698745577.016,16,-0.1,0.1,-0.30000000000000004,-0.7000000000000001,8.8,3.8000000000000003,-1.4,3.3000000000000003,1.4
1698745577.032,16,-0.1,0.1,-0.2,-0.7000000000000001,8.8,3.8000000000000003,-1.3,2.1999999999999997,0.9
1698745577.049,16,-0.1,0.0,-0.2,-0.7000000000000001,8.700000000000001,3.8000000000000003,-1.3,1.9,0.6000000000000001
1698745577.065,16,-0.1,0.0,-0.2,-0.8,8.700000000000001,3.8000000000000003,-0.9,0.8,-0.30000000000000004
1698745577.082,16,-0.2,0.0,-0.2,-0.8,8.700000000000001,3.8000000000000003,-0.4,0.2,-0.6000000000000001
1698745577.099,16,-0.2,-0.1,-0.2,-0.8,8.6,3.8000000000000003,0.5,-1.4,-1.4
1698745577.115,16,-0.1,0.0,-0.1,-0.7000000000000001,8.6,3.9000000000000004,1.0999999999999999,-2.0,-2.1
1698745577.132,16,-0.1,0.0,-0.1,-0.7000000000000001,8.700000000000001,3.9000000000000004,1.0,-1.4,-2.3000000000000003
1698745577.149,16,0.0,0.1,-0.1,-0.7000000000000001,8.700000000000001,3.9000000000000004,0.7,-1.2000000000000002,-2.1
1698745577.166,16,0.0,0.1,0.0,-0.6000000000000001,8.8,3.9000000000000004,-0.1,-0.30000000000000004,-1.6
1698745577.183,16,0.1,0.1,-0.1,-0.6000000000000001,8.8,3.9000000000000004,-0.6000000000000001,0.8,-0.8
1698745577.199,16,0.1,0.1,-0.1,-0.6000000000000001,8.8,3.8000000000000003,-0.6000000000000001,1.6,-0.5
1698745577.215,16,0.0,0.1,0.0,-0.6000000000000001,8.8,3.9000000000000004,0.30000000000000004,2.4000000000000004,0.0
1698745577.232,16,0.0,0.1,0.0,-0.7000000000000001,8.8,3.9000000000000004,0.5,2.7,0.2
1698745577.249,16,0.0,0.1,0.0,-0.7000000000000001,8.8,3.9000000000000004,0.1,3.2,0.4
1698745577.265,16,-0.1,0.0,0.0,-0.7000000000000001,8.700000000000001,3.9000000000000004,-0.9,3.3000000000000003,0.4
1698745577.282,16,-0.1,0.0,0.0,-0.8,8.700000000000001,3.9000000000000004,-1.4,3.1,0.4
1698745577.299,16,-0.1,0.0,0.0,-0.8,8.700000000000001,4.0,-1.8,2.9,0.1
1698745577.315,16,-0.2,0.1,0.0,-0.9,8.8,3.9000000000000004,-2.1999999999999997,1.7,-0.30000000000000004
1698745577.332,16,-0.2,0.1,0.0,-0.9,8.8,3.9000000000000004,-3.1,0.5,-0.8
1698745577.349,16,-0.1,0.1,-0.1,-0.8,8.8,3.9000000000000004,-3.7000000000000006,0.0,-1.0999999999999999
1698745577.365,16,0.0,0.1,0.0,-0.7000000000000001,8.8,3.9000000000000004,-5.0,-0.5,-1.4
1698745577.382,16,0.0,0.0,0.0,-0.8,8.700000000000001,4.0,-5.0,-1.0,-1.7
1698745577.399,16,0.0,0.0,0.0,-0.7000000000000001,8.700000000000001,4.0,-4.5,-1.2000000000000002,-1.9
1698745577.418,16,0.0,0.0,-0.1,-0.7000000000000001,8.700000000000001,3.9000000000000004,-3.4,-0.8,-2.1
1698745577.432,16,0.1,0.0,0.0,-0.7000000000000001,8.6,4.0,-2.8,-0.5,-1.9
1698745577.45,16,0.1,-0.1,0.0,-0.7000000000000001,8.6,4.0,-2.5,-0.5,-1.8
1698745577.467,16,0.1,-0.1,0.0,-0.6000000000000001,8.6,4.0,-1.7,0.0,-1.4
1698745577.482,16,0.1,0.0,0.0,-0.6000000000000001,8.6,4.0,-1.0999999999999999,0.30000000000000004,-1.0999999999999999
1698745577.499,16,0.1,0.0,0.1,-0.6000000000000001,8.6,4.1000000000000005,-0.2,1.4,-0.5
1698745577.516,16,0.1,0.0,0.0,-0.6000000000000001,8.6,4.1000000000000005,0.1,2.1,0.30000000000000004
1698745577.532,16,0.0,0.0,0.0,-0.7000000000000001,8.6,4.0,-0.30000000000000004,2.5,0.4
1698745577.549,16,0.0,0.0,0.0,-0.7000000000000001,8.6,4.0,-0.4,2.5,0.7
1698745577.567,16,-0.1,0.1,0.0,-0.8,8.700000000000001,4.0,-0.2,2.3000000000000003,1.4
1698745577.582,16,-0.1,0.1,0.0,-0.8,8.8,4.1000000000000005,0.5,1.7,1.4
1698745577.599,16,-0.1,0.1,0.1,-0.9,8.8,4.1000000000000005,0.7,1.4,1.2000000000000002
1698745577.615,16,-0.1,0.1,0.1,-0.8,8.700000000000001,4.1000000000000005,0.6000000000000001,0.5,0.7
1698745577.632,16,-0.1,0.0,0.0,-0.8,8.6,4.1000000000000005,-0.6000000000000001,-0.5,0.0
1698745577.649,16,-0.1,-0.1,0.0,-0.8,8.6,4.1000000000000005,-1.2000000000000002,-0.5,-0.2
1698745577.667,16,-0.1,-0.1,0.1,-0.8,8.6,4.1000000000000005,-1.8,-0.6000000000000001,-0.7
1698745577.682,16,-0.1,0.0,0.0,-0.8,8.700000000000001,4.1000000000000005,-1.5000000000000002,-0.8,-0.8
1698745577.699,16,0.0,0.0,0.0,-0.8,8.700000000000001,4.1000000000000005,-1.4,-0.8,-0.7
1698745577.715,16,0.0,-0.1,0.0,-0.8,8.6,4.1000000000000005,-1.0999999999999999,-0.6000000000000001,-0.8
1698745577.732,16,0.0,-0.1,0.0,-0.8,8.5,4.1000000000000005,-0.8,-0.1,-0.8
1698745577.748,16,0.0,-0.1,0.1,-0.7000000000000001,8.5,4.1000000000000005,0.0,0.7,-0.7
1698745577.765,16,0.0,-0.1,0.1,-0.7000000000000001,8.6,4.2,0.5,1.2000000000000002,-0.7
1698745577.786,16,0.0,0.0,0.0,-0.8,8.6,4.1000000000000005,1.0,2.1,-0.5
1698745577.798,16,0.0,0.0,0.0,-0.8,8.6,4.1000000000000005,0.8,2.5,-0.2
1698745577.815,16,0.0,0.0,0.0,-0.8,8.700000000000001,4.1000000000000005,0.0,2.8,0.2
1698745577.832,16,0.0,0.1,-0.1,-0.8,8.700000000000001,4.0,-0.7,3.4,0.7
1698745577.848,16,0.0,0.1,-0.1,-0.8,8.700000000000001,4.0,-0.8,3.7000000000000006,0.8
1698745577.865,16,0.0,0.1,0.0,-0.8,8.700000000000001,4.0,-0.8,3.7000000000000006,0.9
1698745577.881,16,-0.1,0.1,-0.1,-0.9,8.8,4.0,-1.0,3.6,1.0
1698745577.898,16,-0.1,0.1,-0.1,-0.9,8.8,4.0,-1.7,3.4,0.6000000000000001
1698745577.915,16,-0.1,0.1,-0.1,-0.9,8.700000000000001,4.0,-2.1999999999999997,3.3000000000000003,0.4
1698745577.931,16,0.0,0.0,-0.1,-0.9,8.700000000000001,4.0,-2.5,3.2,0.1
1698745577.948,16,0.0,0.0,-0.1,-0.8,8.700000000000001,4.0,-1.9,3.1,-0.1
1698745577.965,16,0.0,0.0,-0.1,-0.8,8.6,4.0,-1.6,3.0000000000000004,0.0
1698745577.981,16,0.0,0.0,0.0,-0.8,8.6,4.0,-1.2000000000000002,3.0000000000000004,-0.1
1698745577.998,16,0.1,0.0,0.0,-0.8,8.6,4.0,-1.3,3.2,-0.1
1698745578.015,16,0.0,0.0,-0.1,-0.8,8.6,4.0,-1.4,3.5,0.1
1698745578.032,16,0.0,0.0,-0.1,-0.8,8.700000000000001,4.0,-1.6,3.6,0.4
1698745578.048,16,0.0,0.0,-0.1,-0.8,8.700000000000001,4.0,-1.3,3.6,0.6000000000000001
1698745578.065,16,0.0,0.0,-0.1,-0.8,8.6,4.0,-1.0,3.6,0.4
1698745578.082,16,-0.1,0.0,-0.1,-0.9,8.700000000000001,4.0,-0.6000000000000001,3.1,0.0
1698745578.098,16,-0.1,0.1,0.0,-0.9,8.8,4.0,-1.0999999999999999,2.6,-0.7
1698745578.115,16,-0.1,0.1,-0.1,-0.9,8.8,4.0,-1.5000000000000002,2.1999999999999997,-0.8
1698745578.132,16,-0.1,0.1,-0.1,-1.0,8.8,4.0,-2.5,1.0,-1.2000000000000002
1698745578.148,16,-0.1,0.1,-0.1,-1.0,8.8,4.0,-2.8,-0.6000000000000001,-1.3
1698745578.165,16,-0.1,0.1,-0.1,-1.0,8.8,3.9000000000000004,-2.3000000000000003,-2.6,-1.7
1698745578.182,16,-0.1,0.2,-0.1,-1.0,8.8,4.0,-1.9,-3.3000000000000003,-1.7
1698745578.198,16,0.1,0.1,-0.2,-0.8,8.8,3.9000000000000004,-1.2000000000000002,-4.7,-1.9
1698745578.215,16,0.1,0.1,-0.2,-0.8,8.8,3.9000000000000004,-1.0999999999999999,-5.0,-1.8
1698745578.232,16,0.1,0.1,-0.1,-0.8,8.8,4.0,-1.4,-5.2,-1.3
1698745578.249,16,0.1,0.1,-0.1,-0.7000000000000001,8.8,3.9000000000000004,-2.3000000000000003,-5.4,-1.0
1698745578.266,16,0.2,0.0,-0.1,-0.7000000000000001,8.700000000000001,4.0,-2.5,-5.4,-0.8
1698745578.282,16,0.2,0.0,-0.1,-0.7000000000000001,8.6,4.0,-2.1,-5.1,-0.30000000000000004
1698745578.299,16,0.2,-0.1,-0.1,-0.6000000000000001,8.6,4.0,-0.8,-4.9,0.30000000000000004
1698745578.315,16,0.1,-0.1,0.0,-0.7000000000000001,8.6,4.0,0.0,-4.9,0.8
1698745578.332,16,0.1,-0.1,0.0,-0.7000000000000001,8.6,4.0,1.6,-4.9,1.6
1698745578.348,16,0.1,0.0,0.0,-0.7000000000000001,8.6,4.0,2.4000000000000004,-4.7,2.1
1698745578.365,16,0.1,0.0,0.0,-0.7000000000000001,8.6,4.0,2.6,-4.3999999999999995,2.3000000000000003
1698745578.382,16,0.0,0.0,0.0,-0.7000000000000001,8.700000000000001,4.0,2.7,-3.7000000000000006,2.6
1698745578.398,16,0.0,0.0,0.0,-0.8,8.700000000000001,4.0,2.5,-3.2,2.7
1698745578.415,16,-0.1,0.1,0.0,-0.8,8.700000000000001,4.1000000000000005,2.1,-3.1,2.7
1698745578.432,16,-0.1,0.0,0.1,-0.9,8.700000000000001,4.1000000000000005,1.9,-3.2,2.5
1698745578.448,16,-0.2,0.0,0.1,-0.9,8.700000000000001,4.1000000000000005,1.2000000000000002,-3.5,2.1999999999999997
1698745578.465,16,-0.1,0.0,0.1,-0.9,8.6,4.1000000000000005,0.1,-4.0,1.4
1698745578.482,16,-0.1,0.0,0.1,-0.9,8.700000000000001,4.1000000000000005,-0.30000000000000004,-4.2,1.2000000000000002
1698745578.498,16,-0.1,0.0,0.1,-0.9,8.6,4.2,-0.9,-4.6000000000000005,0.9
1698745578.515,16,-0.2,-0.1,0.1,-0.9,8.6,4.2,-1.0999999999999999,-5.1,0.7
1698745578.532,16,-0.2,-0.1,0.2,-0.9,8.6,4.2,-1.4,-5.300000000000001,0.7
1698745578.548,16,-0.1,-0.1,0.2,-0.9,8.6,4.3,-1.9,-5.9,0.4
1698745578.565,16,-0.1,-0.1,0.2,-0.8,8.6,4.3,-2.5,-6.2,0.4
1698745578.582,16,-0.1,-0.1,0.2,-0.8,8.6,4.3,-2.6,-6.1000000000000005,0.30000000000000004
1698745578.598,16,-0.1,-0.1,0.2,-0.9,8.6,4.4,-3.3000000000000003,-5.9,-0.1
1698745578.615,16,-0.1,0.0,0.2,-0.8,8.6,4.4,-3.6,-5.7,-0.5
1698745578.632,16,-0.1,0.0,0.2,-0.8,8.6,4.4,-3.8,-5.2,-0.5
1698745578.648,16,0.0,-0.1,0.2,-0.7000000000000001,8.5,4.4,-4.0,-3.9,-0.4
1698745578.665,16,0.1,-0.1,0.2,-0.6000000000000001,8.5,4.5,-4.3999999999999995,-1.7,0.1
1698745578.682,16,0.2,-0.1,0.2,-0.5,8.5,4.5,-4.9,-0.4,0.30000000000000004
1698745578.698,16,0.30000000000000004,-0.1,0.2,-0.4,8.5,4.5,-5.6,2.1999999999999997,0.9
1698745578.715,16,0.30000000000000004,-0.1,0.2,-0.4,8.5,4.5,-5.8,5.1,1.6
1698745578.732,16,0.30000000000000004,-0.1,0.2,-0.4,8.5,4.5,-5.8,6.2,1.9
1698745578.748,16,0.30000000000000004,-0.1,0.1,-0.4,8.4,4.4,-5.8,7.8,2.6
1698745578.765,16,0.1,-0.2,0.0,-0.5,8.4,4.4,-5.8,8.9,3.1
1698745578.782,16,0.1,-0.2,0.1,-0.6000000000000001,8.4,4.4,-5.7,9.200000000000001,3.6
1698745578.799,16,0.1,-0.1,0.0,-0.5,8.4,4.4,-5.1,9.5,4.300000000000001
1698745578.815,16,0.30000000000000004,0.0,0.0,-0.4,8.5,4.4,-3.6,9.4,4.5
1698745578.832,16,0.2,0.0,0.0,-0.5,8.5,4.4,-2.8,9.4,5.0
1698745578.848,16,0.1,0.0,0.0,-0.6000000000000001,8.5,4.4,-2.1,9.8,5.6
1698745578.865,16,0.1,0.0,-0.1,-0.6000000000000001,8.5,4.3,-2.0,9.3,5.300000000000001
1698745578.882,16,0.0,-0.1,-0.1,-0.6000000000000001,8.4,4.2,-1.7,8.799999999999999,5.300000000000001
1698745578.898,16,0.0,-0.1,-0.1,-0.6000000000000001,8.4,4.2,-1.6,8.1,5.300000000000001
1698745578.915,16,0.0,0.1,-0.2,-0.7000000000000001,8.6,4.2,-1.2000000000000002,7.2,5.1
1698745578.932,16,-0.1,0.1,-0.1,-0.8,8.700000000000001,4.2,-0.8,6.000000000000001,5.1
1698745578.948,16,-0.1,0.2,-0.1,-0.8,8.700000000000001,4.2,-0.9,5.4,4.7
1698745578.965,16,-0.2,0.2,-0.1,-0.8,8.700000000000001,4.2,-1.5000000000000002,4.3999999999999995,4.2
1698745578.981,16,-0.2,0.1,-0.1,-0.8,8.700000000000001,4.2,-1.3,3.0000000000000004,3.5
1698745578.998,16,-0.2,0.1,-0.2,-0.9,8.6,4.2,-0.8,2.4000000000000004,2.8
1698745579.015,16,-0.2,0.1,-0.1,-0.9,8.700000000000001,4.2,-0.1,0.8,1.2000000000000002
1698745579.031,16,-0.2,0.1,-0.1,-0.9,8.700000000000001,4.2,0.6000000000000001,-0.30000000000000004,0.1
1698745579.048,16,-0.2,0.1,-0.1,-0.9,8.700000000000001,4.2,0.7,-0.8,-0.4
1698745579.065,16,-0.2,0.0,0.0,-0.8,8.6,4.3,0.30000000000000004,-2.4000000000000004,-1.0999999999999999
1698745579.081,16,0.0,-0.1,-0.1,-0.7000000000000001,8.5,4.3,0.4,-3.5,-1.8
1698745579.098,16,0.0,0.0,-0.1,-0.7000000000000001,8.5,4.3,0.6000000000000001,-4.1000000000000005,-1.9
1698745579.115,16,0.0,0.0,0.0,-0.7000000000000001,8.5,4.3,1.0999999999999999,-4.9,-2.0
1698745579.132,16,0.0,0.0,0.0,-0.7000000000000001,8.5,4.4,1.4,-5.500000000000001,-2.0
1698745579.149,16,0.0,0.0,0.0,-0.6000000000000001,8.5,4.3,1.3,-5.8,-2.1
1698745579.165,16,0.1,0.0,0.0,-0.6000000000000001,8.5,4.3,0.6000000000000001,-6.000000000000001,-2.3000000000000003
1698745579.182,16,0.1,0.0,0.0,-0.5,8.5,4.3,0.2,-5.6,-2.4000000000000004
1698745579.199,16,0.1,-0.1,0.0,-0.5,8.5,4.4,0.1,-5.300000000000001,-2.3000000000000003
1698745579.215,16,0.1,0.0,0.1,-0.6000000000000001,8.5,4.4,0.2,-4.6000000000000005,-2.3000000000000003
1698745579.232,16,0.1,0.0,0.1,-0.6000000000000001,8.5,4.4,0.0,-4.1000000000000005,-2.1
1698745579.249,16,0.0,0.0,0.1,-0.6000000000000001,8.5,4.4,-0.4,-3.8,-2.1
1698745579.265,16,0.1,-0.1,0.1,-0.5,8.5,4.4,-0.9,-3.3000000000000003,-2.5
1698745579.282,16,0.1,0.0,0.1,-0.6000000000000001,8.5,4.4,-0.5,-2.8,-2.4000000000000004
1698745579.298,16,0.0,0.0,0.1,-0.6000000000000001,8.5,4.4,0.0,-3.2,-2.4000000000000004
1698745579.315,16,0.0,0.0,0.1,-0.7000000000000001,8.5,4.4,0.9,-3.6,-1.6
1698745579.332,16,0.0,0.0,0.1,-0.7000000000000001,8.6,4.5,1.0,-3.9,-1.4
1698745579.349,16,0.0,0.0,0.1,-0.7000000000000001,8.5,4.4,0.5,-4.7,-1.5000000000000002
1698745579.365,16,-0.2,0.0,0.1,-0.9,8.5,4.5,0.0,-7.8,-2.4000000000000004
1698745579.382,16,-0.6000000000000001,0.1,0.1,-1.2000000000000002,8.700000000000001,4.5,-0.4,-13.700000000000001,-2.6
1698745579.399,16,-0.8,0.30000000000000004,0.1,-1.4000000000000001,8.8,4.5,-1.0999999999999999,-17.9,-2.7
1698745579.415,16,-1.0,0.30000000000000004,0.2,-1.6,8.8,4.6000000000000005,-3.2,-27.3,-3.8
1698745579.432,16,-1.0,0.2,0.2,-1.7000000000000002,8.6,4.4,-4.3999999999999995,-31.3,-6.000000000000001
1698745579.449,16,-1.0,0.2,-0.2,-1.6,8.700000000000001,4.3,-7.9,-40.4,-10.0
1698745579.466,16,-0.8,0.5,-0.30000000000000004,-1.3,9.0,4.2,-12.5,-47.2,-14.4
1698745579.482,16,-0.5,0.30000000000000004,-0.4,-1.0,8.8,4.1000000000000005,-14.200000000000001,-52.6,-17.9
1698745579.499,16,-0.5,0.2,-0.4,-1.0,8.700000000000001,4.2,-13.9,-57.1,-18.400000000000002
1698745579.515,16,-0.8,-0.2,-0.5,-1.3,8.3,4.1000000000000005,-11.2,-67.4,-18.3
1698745579.532,16,-1.2000000000000002,-0.4,-0.6000000000000001,-1.6,8.0,4.1000000000000005,-9.0,-78.3,-19.1
1698745579.549,16,-1.3,-0.4,-0.6000000000000001,-1.7000000000000002,8.1,4.0,-8.600000000000001,-83.50000000000001,-20.6
1698745579.566,16,-1.4000000000000001,-0.1,-0.7000000000000001,-1.7000000000000002,8.3,4.0,-9.1,-93.5,-26.500000000000004
1698745579.582,16,-1.3,0.1,-0.7000000000000001,-1.6,8.5,4.0,-10.5,-101.4,-33.2
1698745579.598,16,-1.1,0.2,-0.8,-1.4000000000000001,8.6,4.0,-11.2,-105.10000000000001,-37.4
1698745579.615,16,-0.9,0.30000000000000004,-0.7000000000000001,-1.1,8.6,4.0,-11.6,-111.60000000000001,-45.9
1698745579.632,16,-0.6000000000000001,0.4,-0.8,-0.8,8.700000000000001,4.0,-10.5,-115.50000000000001,-50.6
1698745579.649,16,-0.5,0.4,-0.8,-0.6000000000000001,8.8,4.0,-9.700000000000001,-117.0,-51.6
1698745579.665,16,-0.30000000000000004,0.5,-0.9,-0.4,8.8,4.0,-8.700000000000001,-120.3,-52.900000000000006
1698745579.682,16,-0.30000000000000004,0.6000000000000001,-0.9,-0.30000000000000004,8.9,4.0,-8.5,-123.19999999999999,-53.6
1698745579.698,16,-0.30000000000000004,0.6000000000000001,-0.9,-0.30000000000000004,8.9,3.9000000000000004,-8.700000000000001,-125.2,-54.4
1698745579.715,16,-0.2,0.5,-1.0,-0.2,8.8,3.9000000000000004,-10.3,-128.3,-56.300000000000004
1698745579.732,16,-0.1,0.6000000000000001,-1.1,0.0,8.9,3.8000000000000003,-13.100000000000001,-131.0,-58.2
1698745579.749,16,0.2,0.5,-1.0,0.30000000000000004,8.700000000000001,3.9000000000000004,-14.800000000000002,-131.79999999999998,-60.599999999999994
1698745579.765,16,0.30000000000000004,0.30000000000000004,-0.9,0.5,8.6,4.0,-14.500000000000002,-130.5,-61.300000000000004
1698745579.782,16,0.7000000000000001,0.2,-0.8,0.9,8.4,4.1000000000000005,-12.5,-125.9,-62.0
1698745579.799,16,0.9,0.30000000000000004,-0.8,1.1,8.5,4.2,-11.000000000000002,-123.6,-62.1
1698745579.815,16,1.0,0.4,-0.7000000000000001,1.3,8.6,4.3,-8.700000000000001,-117.8,-60.599999999999994
1698745579.832,16,1.1,0.30000000000000004,-0.6000000000000001,1.4000000000000001,8.5,4.4,-8.600000000000001,-109.2,-61.0
1698745579.849,16,1.5,0.1,-0.5,1.8,8.3,4.5,-7.9,-99.2,-60.300000000000004
1698745579.865,16,1.6,0.0,-0.4,1.9000000000000001,8.200000000000001,4.6000000000000005,-6.9,-92.7,-57.400000000000006
1698745579.882,16,1.9000000000000001,-0.2,-0.30000000000000004,2.2,8.0,4.7,-2.5,-77.2,-50.0
1698745579.898,16,1.9000000000000001,-0.30000000000000004,-0.2,2.3000000000000003,7.9,4.800000000000001,2.4000000000000004,-62.4,-40.8
1698745579.915,16,1.9000000000000001,-0.4,-0.2,2.3000000000000003,7.800000000000001,4.800000000000001,4.7,-54.5,-34.800000000000004
1698745579.932,16,1.8,-0.30000000000000004,-0.2,2.1,7.9,4.7,7.699999999999999,-37.900000000000006,-23.700000000000003
1698745579.948,16,1.7000000000000002,-0.2,-0.2,2.1,8.0,4.7,8.3,-23.5,-15.100000000000001
1698745579.965,16,1.6,-0.1,-0.2,2.0,8.1,4.7,8.799999999999999,-16.6,-11.1
1698745579.981,16,1.4000000000000001,-0.1,-0.30000000000000004,1.8,8.200000000000001,4.6000000000000005,10.700000000000001,-3.2,-4.7
1698745579.998,16,1.3,0.0,-0.30000000000000004,1.7000000000000002,8.3,4.6000000000000005,12.6,10.0,1.2000000000000002
1698745580.015,16,1.2000000000000002,0.1,-0.30000000000000004,1.6,8.4,4.5,12.9,16.3,4.3999999999999995
1698745580.032,16,1.1,0.4,-0.5,1.4000000000000001,8.700000000000001,4.3,11.700000000000001,26.9,10.5
1698745580.048,16,0.9,0.4,-0.5,1.3,8.8,4.2,8.600000000000001,35.8,15.000000000000002
1698745580.065,16,0.8,0.4,-0.5,1.2000000000000002,8.8,4.2,7.2,40.0,16.900000000000002
1698745580.082,16,0.7000000000000001,0.5,-0.6000000000000001,1.1,8.8,4.1000000000000005,5.500000000000001,47.2,19.500000000000004
1698745580.098,16,0.5,0.4,-0.7000000000000001,0.9,8.700000000000001,4.0,5.9,52.7,20.900000000000002
1698745580.115,16,0.5,0.30000000000000004,-0.7000000000000001,0.8,8.700000000000001,4.0,6.2,55.0,21.1
1698745580.132,16,0.4,0.30000000000000004,-0.8,0.6000000000000001,8.700000000000001,3.9000000000000004,7.1000000000000005,59.20000000000001,21.6
1698745580.149,16,0.2,0.30000000000000004,-0.6000000000000001,0.5,8.700000000000001,4.0,8.0,62.300000000000004,22.5
1698745580.165,16,0.2,0.4,-0.6000000000000001,0.5,8.700000000000001,4.0,8.5,63.300000000000004,22.7
1698745580.182,16,0.30000000000000004,0.4,-0.7000000000000001,0.5,8.8,3.9000000000000004,7.9,65.2,22.900000000000002
1698745580.198,16,0.30000000000000004,0.30000000000000004,-0.7000000000000001,0.5,8.700000000000001,3.9000000000000004,6.6000000000000005,67.80000000000001,24.000000000000004
1698745580.215,16,0.30000000000000004,0.2,-0.7000000000000001,0.5,8.6,3.9000000000000004,6.5,69.10000000000001,24.7
1698745580.232,16,0.2,0.2,-0.7000000000000001,0.30000000000000004,8.6,3.9000000000000004,7.0,71.30000000000001,26.700000000000003
1698745580.253,16,0.2,0.30000000000000004,-0.6000000000000001,0.30000000000000004,8.700000000000001,4.0,7.400000000000001,73.7,28.6
1698745580.266,16,0.2,0.30000000000000004,-0.5,0.30000000000000004,8.700000000000001,4.0,6.9,75.4,29.200000000000003
1698745580.282,16,0.1,0.2,-0.4,0.1,8.700000000000001,4.0,4.7,78.2,30.299999999999997
1698745580.298,16,-0.2,0.2,-0.5,-0.2,8.700000000000001,4.0,2.1,80.6,31.900000000000002
1698745580.315,16,-0.30000000000000004,0.30000000000000004,-0.5,-0.30000000000000004,8.8,4.0,1.0999999999999999,81.30000000000001,32.5
1698745580.332,16,-0.4,0.4,-0.5,-0.5,8.9,3.9000000000000004,0.8,81.0,32.5
1698745580.348,16,-0.4,0.30000000000000004,-0.5,-0.5,8.9,3.9000000000000004,1.4,81.6,32.0
1698745580.365,16,-0.5,0.30000000000000004,-0.6000000000000001,-0.5,8.8,3.9000000000000004,1.9,82.0,31.7
1698745580.382,16,-0.6000000000000001,0.30000000000000004,-0.5,-0.8,8.9,3.9000000000000004,2.1999999999999997,82.0,32.1
1698745580.398,16,-0.8,0.2,-0.6000000000000001,-1.0,8.8,3.8000000000000003,2.7,81.8,31.900000000000002
1698745580.415,16,-0.9,0.30000000000000004,-0.6000000000000001,-1.1,8.8,3.7,2.4000000000000004,80.30000000000001,31.2
1698745580.432,16,-0.9,0.2,-0.6000000000000001,-1.1,8.8,3.8000000000000003,2.1999999999999997,79.6,30.599999999999998
1698745580.449,16,-0.8,0.2,-0.6000000000000001,-1.1,8.700000000000001,3.8000000000000003,1.9,78.2,29.1
1698745580.465,16,-0.9,0.2,-0.5,-1.2000000000000002,8.700000000000001,3.9000000000000004,1.4,76.5,27.8
1698745580.482,16,-0.9,0.1,-0.5,-1.2000000000000002,8.700000000000001,3.8000000000000003,1.6,75.0,27.2
1698745580.499,16,-1.0,0.1,-0.4,-1.3,8.700000000000001,3.9000000000000004,1.8,71.9,25.900000000000002
1698745580.515,16,-1.0,0.1,-0.4,-1.4000000000000001,8.6,3.9000000000000004,1.9,70.9,25.1
1698745580.532,16,-0.9,0.0,-0.4,-1.3,8.5,3.9000000000000004,1.9,66.2,22.900000000000002
1698745580.548,16,-0.9,0.0,-0.30000000000000004,-1.4000000000000001,8.5,3.9000000000000004,2.1999999999999997,61.1,21.3
1698745580.565,16,-0.9,0.0,-0.2,-1.4000000000000001,8.6,4.0,2.8,58.60000000000001,20.3
1698745580.582,16,-0.8,0.0,-0.2,-1.4000000000000001,8.6,4.0,4.1000000000000005,52.6,19.0
1698745580.599,16,-0.7000000000000001,0.1,-0.2,-1.4000000000000001,8.700000000000001,3.9000000000000004,4.3999999999999995,48.800000000000004,16.900000000000002
1698745580.615,16,-0.5,0.0,-0.1,-1.2000000000000002,8.6,4.0,4.1000000000000005,43.800000000000004,14.4
1698745580.632,16,-0.5,0.0,-0.1,-1.3,8.6,4.0,4.300000000000001,42.0,13.700000000000001
1698745580.649,16,-0.5,0.0,-0.1,-1.3,8.6,4.0,4.6000000000000005,37.6,12.100000000000001
1698745580.665,16,-0.30000000000000004,-0.1,0.0,-1.1,8.6,4.1000000000000005,4.9,34.800000000000004,10.600000000000001
1698745580.682,16,-0.30000000000000004,-0.1,0.1,-1.1,8.6,4.1000000000000005,4.9,33.800000000000004,10.0
1698745580.698,16,-0.2,0.0,0.1,-1.1,8.6,4.1000000000000005,4.7,32.7,9.600000000000001
1698745580.715,16,-0.2,0.0,0.1,-1.1,8.700000000000001,4.1000000000000005,2.7,29.900000000000006,9.1
1698745580.732,16,-0.2,0.0,0.1,-1.1,8.6,4.1000000000000005,2.1,29.000000000000004,8.9
1698745580.748,16,-0.2,0.0,0.1,-1.1,8.700000000000001,4.1000000000000005,1.6,25.5,9.4
1698745580.765,16,-0.30000000000000004,0.1,0.1,-1.3,8.8,4.1000000000000005,1.7,24.400000000000002,8.799999999999999
1698745580.782,16,-0.2,0.0,0.1,-1.2000000000000002,8.700000000000001,4.1000000000000005,1.8,22.6,7.699999999999999
1698745580.798,16,-0.1,0.0,0.1,-1.1,8.700000000000001,4.1000000000000005,2.1999999999999997,20.0,6.9
1698745580.815,16,-0.1,0.0,0.2,-1.1,8.700000000000001,4.1000000000000005,2.4000000000000004,17.200000000000003,6.1000000000000005
1698745580.832,16,-0.1,0.0,0.1,-1.1,8.700000000000001,4.1000000000000005,2.5,15.7,5.6
1698745580.848,16,-0.2,0.1,0.1,-1.2000000000000002,8.8,4.1000000000000005,1.7,12.8,4.9
1698745580.865,16,-0.1,0.0,0.1,-1.2000000000000002,8.700000000000001,4.1000000000000005,0.5,10.0,3.9
1698745580.882,16,-0.1,0.0,0.1,-1.1,8.700000000000001,4.1000000000000005,0.30000000000000004,8.600000000000001,3.6
1698745580.898,16,0.0,0.0,0.1,-1.1,8.700000000000001,4.1000000000000005,1.0999999999999999,5.7,2.9
1698745580.915,16,0.0,0.0,0.1,-1.0,8.700000000000001,4.1000000000000005,1.8,3.3000000000000003,2.1999999999999997
1698745580.932,16,0.0,0.0,0.1,-1.0,8.700000000000001,4.1000000000000005,1.7,1.9,1.8
1698745580.948,16,0.1,0.0,0.1,-0.9,8.700000000000001,4.1000000000000005,0.4,0.1,0.9
1698745580.965,16,0.1,-0.1,0.1,-0.9,8.700000000000001,4.0,-0.4,-0.5,0.30000000000000004
1698745580.982,16,0.1,0.0,0.1,-0.8,8.700000000000001,4.1000000000000005,-0.4,-0.8,0.1
1698745580.998,16,0.1,0.0,0.1,-0.9,8.700000000000001,4.0,0.1,-1.0,0.0
1698745581.015,16,0.1,0.0,0.0,-0.9,8.700000000000001,4.0,0.2,-1.0999999999999999,0.30000000000000004
1698745581.032,16,0.1,0.0,0.0,-0.9,8.700000000000001,4.0,0.0,-1.7,0.30000000000000004
1698745581.049,16,0.1,0.0,0.0,-0.9,8.700000000000001,4.0,-0.30000000000000004,-3.0000000000000004,-0.1
1698745581.065,16,0.2,0.0,0.0,-0.8,8.700000000000001,4.0,-0.1,-3.6,-0.5
1698745581.082,16,0.2,0.0,0.0,-0.7000000000000001,8.700000000000001,4.0,0.5,-3.5,-1.0
1698745581.098,16,0.2,0.0,0.0,-0.7000000000000001,8.700000000000001,4.0,0.6000000000000001,-3.3000000000000003,-1.0
1698745581.115,16,0.1,0.0,0.1,-0.8,8.700000000000001,4.1000000000000005,0.6000000000000001,-3.5,-1.0
1698745581.132,16,0.1,0.0,0.0,-0.8,8.700000000000001,4.0,0.5,-3.9,-1.0
1698745581.149,16,0.1,0.0,0.0,-0.8,8.700000000000001,4.0,0.2,-4.6000000000000005,-1.0
1698745581.165,16,0.2,0.0,0.0,-0.7000000000000001,8.700000000000001,4.0,0.2,-4.9,-1.0
1698745581.182,16,0.2,0.0,0.0,-0.7000000000000001,8.700000000000001,4.0,0.2,-4.9,-1.0
1698745581.198,16,0.2,0.0,0.0,-0.7000000000000001,8.700000000000001,4.0,0.4,-4.6000000000000005,-0.9
1698745581.215,16,0.1,0.0,0.0,-0.8,8.700000000000001,4.0,0.1,-4.7,-1.2000000000000002
1698745581.232,16,0.1,-0.1,0.0,-0.7000000000000001,8.6,4.0,-0.4,-5.0,-1.3
1698745581.253,16,0.1,-0.1,0.0,-0.7000000000000001,8.6,4.0,-0.30000000000000004,-5.300000000000001,-1.3
1698745581.265,16,0.1,0.0,0.0,-0.7000000000000001,8.700000000000001,4.0,0.0,-5.500000000000001,-1.4
1698745581.282,16,0.2,0.0,0.0,-0.7000000000000001,8.700000000000001,4.0,0.2,-5.500000000000001,-1.4
1698745581.298,16,0.2,0.0,0.0,-0.6000000000000001,8.700000000000001,4.0,0.4,-5.300000000000001,-1.3
1698745581.315,16,0.1,0.0,0.0,-0.7000000000000001,8.700000000000001,4.0,0.30000000000000004,-5.0,-1.3
1698745581.332,16,0.1,0.0,0.0,-0.7000000000000001,8.700000000000001,4.0,0.2,-4.800000000000001,-1.3
1698745581.349,16,0.1,0.0,0.0,-0.7000000000000001,8.700000000000001,4.0,0.2,-4.7,-1.0
1698745581.365,16,0.1,0.0,0.0,-0.6000000000000001,8.700000000000001,4.0,0.4,-4.6000000000000005,-1.0
1698745581.382,16,0.1,0.0,0.0,-0.7000000000000001,8.700000000000001,4.0,0.5,-4.6000000000000005,-0.8
1698745581.399,16,0.1,0.0,0.0,-0.6000000000000001,8.700000000000001,4.1000000000000005,0.5,-4.300000000000001,-0.8
1698745581.415,16,0.1,0.0,0.0,-0.6000000000000001,8.700000000000001,4.0,-0.1,-3.5,-0.8
1698745581.432,16,0.1,0.0,0.0,-0.7000000000000001,8.700000000000001,4.0,-0.30000000000000004,-3.4,-0.8
1698745581.449,16,0.1,0.0,0.0,-0.6000000000000001,8.700000000000001,4.0,-0.30000000000000004,-3.5,-0.8
1698745581.465,16,0.1,0.0,0.0,-0.6000000000000001,8.700000000000001,4.0,0.2,-3.3000000000000003,-0.9
1698745581.482,16,0.1,0.0,0.0,-0.6000000000000001,8.700000000000001,4.0,0.30000000000000004,-2.9,-0.9
1698745581.499,16,0.1,0.0,0.0,-0.6000000000000001,8.700000000000001,4.0,0.5,-2.1999999999999997,-0.7
1698745581.515,16,0.1,0.0,0.0,-0.6000000000000001,8.700000000000001,4.0,0.30000000000000004,-1.6,-0.4
1698745581.533,16,0.1,0.0,0.0,-0.6000000000000001,8.700000000000001,4.0,0.4,-1.3,-0.4
1698745581.548,16,0.1,0.0,0.0,-0.6000000000000001,8.700000000000001,4.0,0.6000000000000001,-1.3,-0.2
1698745581.565,16,0.1,0.0,0.0,-0.6000000000000001,8.700000000000001,4.0,0.7,-0.8,-0.2
1698745581.582,16,0.1,0.0,0.0,-0.6000000000000001,8.700000000000001,4.0,0.7,-0.4,0.0
1698745581.599,16,0.1,0.0,0.0,-0.6000000000000001,8.700000000000001,4.0,0.5,-0.1,0.1
1698745581.615,16,0.0,0.0,0.0,-0.7000000000000001,8.700000000000001,4.0,0.6000000000000001,0.30000000000000004,0.0
1698745581.635,16,0.0,0.0,0.0,-0.7000000000000001,8.700000000000001,4.0,1.0,0.5,0.2
1698745581.649,16,0.0,0.0,0.0,-0.7000000000000001,8.700000000000001,4.0,1.0999999999999999,0.5,0.30000000000000004
1698745581.665,16,0.0,0.0,0.0,-0.7000000000000001,8.700000000000001,4.0,0.9,0.30000000000000004,0.2
1698745581.682,16,0.0,0.0,0.0,-0.7000000000000001,8.700000000000001,4.0,0.5,0.0,0.0
1698745581.699,16,0.0,0.0,0.0,-0.7000000000000001,8.700000000000001,4.0,0.5,-0.2,-0.1
1698745581.715,16,0.0,0.0,0.0,-0.6000000000000001,8.700000000000001,4.0,0.5,-0.30000000000000004,-0.4
1698745581.732,16,0.1,0.0,0.0,-0.6000000000000001,8.700000000000001,3.9000000000000004,0.4,-0.1,-0.4
1698745581.748,16,0.0,0.0,0.0,-0.7000000000000001,8.700000000000001,4.0,0.2,0.30000000000000004,-0.2
1698745581.765,16,0.0,0.0,0.0,-0.7000000000000001,8.700000000000001,4.0,0.5,0.4,0.0
1698745581.782,16,0.0,0.0,0.0,-0.7000000000000001,8.700000000000001,4.0,0.9,0.30000000000000004,0.2
1698745581.799,16,0.0,0.0,0.0,-0.7000000000000001,8.700000000000001,4.0,0.9,0.5,0.30000000000000004
1698745581.815,16,0.0,0.0,0.0,-0.6000000000000001,8.700000000000001,3.9000000000000004,0.4,1.0,0.2
1698745581.832,16,0.0,0.0,0.0,-0.7000000000000001,8.700000000000001,4.0,0.30000000000000004,1.0999999999999999,0.2
1698745581.848,16,0.0,0.0,-0.1,-0.7000000000000001,8.700000000000001,3.9000000000000004,0.7,0.9,0.1
1698745581.865,16,-0.1,0.0,0.0,-0.8,8.700000000000001,3.9000000000000004,1.4,0.9,0.4
1698745581.882,16,0.0,0.0,-0.1,-0.7000000000000001,8.700000000000001,3.9000000000000004,1.4,1.0,0.4
1698745581.899,16,0.0,0.0,-0.1,-0.7000000000000001,8.700000000000001,3.9000000000000004,1.0999999999999999,0.9,0.6000000000000001
1698745581.915,16,0.0,0.0,-0.1,-0.7000000000000001,8.700000000000001,3.9000000000000004,0.8,0.6000000000000001,0.7
1698745581.932,16,0.0,0.1,0.0,-0.7000000000000001,8.8,3.9000000000000004,1.2000000000000002,0.5,0.8
1698745581.948,16,0.0,0.1,-0.1,-0.7000000000000001,8.8,3.9000000000000004,1.5000000000000002,0.30000000000000004,0.30000000000000004
1698745581.965,16,0.0,0.1,0.0,-0.7000000000000001,8.8,3.9000000000000004,1.6,0.30000000000000004,0.30000000000000004
1698745581.982,16,-0.1,0.1,0.0,-0.8,8.8,3.9000000000000004,1.4,0.0,0.2
1698745581.998,16,-0.1,0.1,0.0,-0.7000000000000001,8.8,4.0,1.0,0.1,0.1
1698745582.015,16,0.0,0.0,0.0,-0.7000000000000001,8.8,4.0,0.6000000000000001,0.2,0.1
1698745582.032,16,0.0,0.0,0.0,-0.7000000000000001,8.8,3.9000000000000004,0.4,0.4,0.2
1698745582.048,16,0.0,0.0,0.0,-0.7000000000000001,8.8,3.9000000000000004,0.30000000000000004,0.30000000000000004,0.2
1698745582.065,16,0.0,0.0,0.0,-0.7000000000000001,8.700000000000001,3.9000000000000004,0.0,0.2,0.5
1698745582.082,16,0.0,0.0,0.0,-0.7000000000000001,8.700000000000001,3.9000000000000004,-0.30000000000000004,0.2,0.4
1698745582.099,16,0.0,0.0,0.0,-0.7000000000000001,8.8,3.9000000000000004,-1.0,0.6000000000000001,0.5
1698745582.115,16,0.0,0.0,0.0,-0.8,8.700000000000001,4.0,-1.8,0.9,0.5
1698745582.132,16,0.0,0.0,0.0,-0.7000000000000001,8.700000000000001,3.9000000000000004,-2.5,0.8,0.2
1698745582.149,16,0.0,0.0,0.0,-0.7000000000000001,8.700000000000001,3.9000000000000004,-2.4000000000000004,1.0999999999999999,0.30000000000000004
1698745582.165,16,0.0,0.0,0.0,-0.7000000000000001,8.8,3.9000000000000004,-2.1999999999999997,1.2000000000000002,0.1
1698745582.182,16,0.0,0.0,0.0,-0.7000000000000001,8.700000000000001,3.9000000000000004,-1.9,1.3,0.30000000000000004
1698745582.199,16,-0.1,0.0,0.0,-0.8,8.700000000000001,3.9000000000000004,-1.7,1.2000000000000002,0.4
1698745582.215,16,-0.1,0.0,0.0,-0.8,8.700000000000001,3.9000000000000004,-1.4,0.8,0.6000000000000001
1698745582.232,16,-0.1,0.0,0.0,-0.8,8.700000000000001,3.9000000000000004,-1.0,0.2,0.7
1698745582.248,16,0.0,0.0,-0.1,-0.7000000000000001,8.8,3.9000000000000004,-0.9,0.30000000000000004,1.0
1698745582.265,16,0.0,0.0,-0.1,-0.7000000000000001,8.8,3.9000000000000004,-0.9,0.1,1.0999999999999999
1698745582.282,16,0.0,0.1,0.0,-0.8,8.8,3.9000000000000004,-1.2000000000000002,-0.1,1.2000000000000002
1698745582.298,16,-0.1,0.1,0.0,-0.8,8.8,3.9000000000000004,-1.4,-0.30000000000000004,1.2000000000000002
1698745582.316,16,-0.1,0.1,0.0,-0.8,8.8,3.9000000000000004,-1.6,-0.5,0.9
1698745582.332,16,-0.1,0.1,0.0,-0.8,8.8,3.9000000000000004,-1.9,-0.9,0.7
1698745582.348,16,-0.1,0.0,0.0,-0.8,8.8,3.9000000000000004,-2.0,-0.8,0.5
1698745582.365,16,0.0,0.0,0.0,-0.8,8.700000000000001,4.0,-2.1,-0.5,0.1
1698745582.382,16,0.0,0.0,0.0,-0.8,8.700000000000001,4.0,-2.5,-1.0,0.0
1698745582.399,16,-0.1,0.0,0.0,-0.8,8.700000000000001,4.0,-2.7,-1.0999999999999999,0.1
1698745582.415,16,-0.1,0.0,0.0,-0.8,8.700000000000001,3.9000000000000004,-3.1,-1.0999999999999999,0.0
1698745582.432,16,0.0,0.0,0.0,-0.8,8.700000000000001,4.0,-3.3000000000000003,-1.0,-0.2
1698745582.449,16,0.0,0.0,0.0,-0.7000000000000001,8.700000000000001,4.0,-3.2,-0.8,0.2
1698745582.465,16,0.0,0.0,0.0,-0.7000000000000001,8.700000000000001,4.0,-3.3000000000000003,-0.8,0.2
1698745582.482,16,0.0,0.0,0.0,-0.7000000000000001,8.700000000000001,4.0,-3.7000000000000006,0.2,0.2
1698745582.498,16,0.0,0.1,0.0,-0.8,8.8,4.0,-4.7,1.6,0.6000000000000001
1698745582.515,16,-0.1,0.1,0.0,-0.8,8.8,4.1000000000000005,-5.1,2.1999999999999997,0.6000000000000001
1698745582.532,16,-0.1,0.0,0.0,-0.9,8.700000000000001,4.0,-5.7,3.1,0.6000000000000001
1698745582.548,16,-0.1,0.1,0.0,-0.9,8.700000000000001,4.1000000000000005,-7.300000000000001,4.3999999999999995,0.7
1698745582.565,16,-0.1,0.0,0.0,-0.8,8.700000000000001,4.1000000000000005,-8.4,5.4,0.6000000000000001
1698745582.582,16,0.0,0.0,0.0,-0.8,8.700000000000001,4.1000000000000005,-10.3,7.6,0.7
1698745582.598,16,0.0,0.0,0.0,-0.7000000000000001,8.6,4.2,-12.6,8.4,1.3
1698745582.615,16,-0.1,0.0,0.0,-0.9,8.6,4.2,-13.8,9.5,1.6
1698745582.632,16,-0.30000000000000004,0.1,0.0,-1.1,8.8,4.2,-16.3,13.3,3.6
1698745582.649,16,-0.30000000000000004,0.0,-0.2,-1.1,8.6,4.1000000000000005,-17.400000000000002,14.200000000000001,5.4
1698745582.665,16,-0.4,-0.1,-0.1,-1.2000000000000002,8.5,4.1000000000000005,-17.1,12.4,6.8
1698745582.682,16,-0.7000000000000001,0.1,-0.1,-1.5,8.700000000000001,4.3,-15.2,9.4,6.8
1698745582.699,16,-0.30000000000000004,0.30000000000000004,-0.1,-1.1,8.8,4.3,-13.9,8.600000000000001,2.6
1698745582.715,16,-0.2,0.30000000000000004,-0.1,-1.1,8.8,4.3,-13.9,8.700000000000001,2.9
1698745582.732,16,-0.1,0.2,-0.1,-1.0,8.8,4.3,-14.600000000000001,10.5,3.7000000000000006
1698745582.75,16,0.0,0.1,-0.2,-0.9,8.6,4.3,-15.8,12.4,4.7
1698745582.765,16,-0.1,0.1,-0.2,-0.9,8.6,4.3,-16.400000000000002,13.100000000000001,5.4
1698745582.782,16,-0.2,0.0,-0.30000000000000004,-1.0,8.5,4.3,-17.1,12.8,6.7
1698745582.798,16,-0.1,0.1,-0.2,-0.9,8.6,4.4,-16.6,10.600000000000001,7.9
1698745582.815,16,-0.2,0.1,-0.2,-1.0,8.5,4.4,-15.6,11.700000000000001,8.700000000000001
1698745582.832,16,0.0,0.1,-0.1,-0.8,8.5,4.5,-14.900000000000002,13.8,6.000000000000001
1698745582.848,16,0.1,0.0,-0.2,-0.7000000000000001,8.4,4.5,-15.299999999999999,15.100000000000001,7.400000000000001
1698745582.865,16,0.2,-0.1,-0.30000000000000004,-0.7000000000000001,8.3,4.4,-15.100000000000001,15.2,8.600000000000001
1698745582.882,16,0.1,-0.1,-0.4,-0.7000000000000001,8.3,4.3,-15.100000000000001,14.800000000000002,9.200000000000001
1698745582.898,16,0.0,-0.1,-0.4,-0.9,8.200000000000001,4.3,-15.000000000000002,14.200000000000001,9.9
1698745582.915,16,0.1,-0.1,-0.4,-0.8,8.200000000000001,4.3,-14.4,12.8,8.700000000000001
1698745582.932,16,0.2,-0.1,-0.4,-0.7000000000000001,8.200000000000001,4.4,-13.9,12.100000000000001,7.699999999999999
1698745582.949,16,0.30000000000000004,-0.2,-0.5,-0.5,8.1,4.4,-12.700000000000001,11.700000000000001,5.1
1698745582.965,16,0.4,-0.4,-0.4,-0.4,7.9,4.4,-12.3,10.5,2.3000000000000003
1698745582.983,16,0.5,-0.4,-0.4,-0.4,7.800000000000001,4.5,-11.9,11.000000000000002,1.0999999999999999
1698745582.999,16,0.8,-0.2,-0.30000000000000004,0.0,8.0,4.6000000000000005,-10.600000000000001,13.3,-0.1
1698745583.015,16,0.9,0.4,0.0,0.0,8.6,4.9,-10.600000000000001,10.5,1.7
1698745583.032,16,0.7000000000000001,0.5,0.2,-0.2,8.700000000000001,5.1000000000000005,-11.000000000000002,7.9,4.3999999999999995
1698745583.048,16,0.1,0.8,0.0,-0.8,9.0,5.0,-15.100000000000001,5.6,9.9
1698745583.065,16,0.30000000000000004,0.5,-0.30000000000000004,-0.5,8.6,4.7,-21.6,4.7,9.600000000000001
1698745583.082,16,0.5,0.30000000000000004,-0.5,-0.30000000000000004,8.5,4.6000000000000005,-22.7,4.3999999999999995,8.600000000000001
1698745583.098,16,0.7000000000000001,0.6000000000000001,-0.6000000000000001,-0.1,8.700000000000001,4.5,-20.0,2.1999999999999997,7.699999999999999
1698745583.115,16,0.30000000000000004,1.2000000000000002,-0.6000000000000001,-0.5,9.3,4.6000000000000005,-17.1,1.0999999999999999,8.1
1698745583.132,16,0.2,1.1,-0.5,-0.6000000000000001,9.200000000000001,4.7,-12.3,0.30000000000000004,10.9
1698745583.148,16,-0.5,0.5,-0.30000000000000004,-1.2000000000000002,8.6,4.9,-11.1,-4.2,13.3
1698745583.165,16,-0.8,0.7000000000000001,-0.4,-1.4000000000000001,8.700000000000001,4.9,-15.2,-8.5,14.700000000000001
1698745583.182,16,-0.6000000000000001,0.6000000000000001,-0.4,-1.2000000000000002,8.700000000000001,4.800000000000001,-17.5,-12.200000000000001,14.700000000000001
1698745583.198,16,-0.30000000000000004,0.7000000000000001,-0.9,-0.8,8.700000000000001,4.4,-20.0,-16.900000000000002,14.200000000000001
1698745583.215,16,0.1,-0.1,-1.1,-0.5,7.9,4.2,-18.1,-21.200000000000003,10.700000000000001
1698745583.233,16,0.1,-0.1,-1.3,-0.4,7.800000000000001,4.1000000000000005,-16.6,-22.8,9.1
1698745583.249,16,0.0,0.1,-1.5,-0.4,8.0,3.9000000000000004,-13.9,-23.6,8.0
1698745583.265,16,0.1,0.2,-1.6,-0.30000000000000004,8.1,3.8000000000000003,-13.0,-22.5,5.9
1698745583.282,16,0.30000000000000004,0.0,-1.7000000000000002,0.0,7.9,3.7,-12.5,-21.200000000000003,4.7
1698745583.299,16,0.5,0.1,-1.8,0.2,8.0,3.7,-11.3,-19.700000000000003,2.9
1698745583.315,16,0.5,0.4,-1.8,0.2,8.200000000000001,3.6,-8.9,-16.3,2.0
1698745583.332,16,0.6000000000000001,0.4,-1.9000000000000001,0.4,8.3,3.6,-6.5,-12.5,0.5
1698745583.348,16,0.7000000000000001,0.4,-2.0,0.6000000000000001,8.3,3.5,-5.500000000000001,-9.9,0.0
1698745583.365,16,0.8,0.5,-1.7000000000000002,0.7000000000000001,8.4,3.7,-2.6,-4.7,0.4
1698745583.382,16,0.7000000000000001,0.5,-1.6,0.6000000000000001,8.4,3.8000000000000003,0.7,0.2,2.4000000000000004
1698745583.398,16,0.8,0.6000000000000001,-1.6,0.6000000000000001,8.4,3.9000000000000004,1.4,2.9,3.3000000000000003
1698745583.415,16,0.9,0.6000000000000001,-1.6,0.8,8.5,3.9000000000000004,1.6,8.9,4.3999999999999995
1698745583.432,16,1.1,0.7000000000000001,-1.2000000000000002,1.0,8.6,4.2,2.1999999999999997,12.6,6.000000000000001
1698745583.448,16,1.1,0.8,-1.1,0.9,8.700000000000001,4.3,3.7000000000000006,14.200000000000001,7.9
1698745583.465,16,0.9,0.9,-0.9,0.8,8.8,4.5,6.000000000000001,16.8,12.100000000000001
1698745583.481,16,0.9,1.4000000000000001,-0.6000000000000001,0.8,9.3,4.7,6.9,16.6,11.9
1698745583.498,16,1.0,1.7000000000000002,-0.7000000000000001,0.9,9.700000000000001,4.6000000000000005,6.000000000000001,18.2,10.2
1698745583.515,16,0.8,2.3000000000000003,-1.0,0.7000000000000001,10.3,4.3,2.1,17.5,11.9
1698745583.531,16,-0.4,3.0,-1.0,-0.5,11.0,4.3,5.500000000000001,9.0,19.1
1698745583.548,16,-0.6000000000000001,2.9000000000000004,-0.9,-0.6000000000000001,10.9,4.4,8.600000000000001,3.7000000000000006,19.1
1698745583.565,16,0.0,2.4000000000000004,-0.8,-0.1,10.4,4.5,14.700000000000001,-3.1,16.400000000000002
1698745583.581,16,0.5,1.9000000000000001,-0.8,0.5,10.0,4.5,15.7,-1.7,13.3
1698745583.598,16,1.0,1.9000000000000001,-0.4,1.1,10.0,4.800000000000001,19.700000000000003,-3.1,12.000000000000002
1698745583.615,16,-0.1,1.1,0.4,0.0,9.3,5.5,25.8,-2.0,17.200000000000003
1698745583.632,16,0.1,0.30000000000000004,1.3,0.30000000000000004,8.5,6.300000000000001,25.900000000000002,2.3000000000000003,14.0
1698745583.649,16,0.30000000000000004,-0.1,1.7000000000000002,0.5,8.200000000000001,6.7,23.1,5.1,13.100000000000001
1698745583.665,16,0.0,-1.0,2.2,0.2,7.300000000000001,7.1000000000000005,15.100000000000001,9.8,14.800000000000002
1698745583.682,16,-0.4,-1.8,1.5,-0.2,6.5,6.5,2.9,13.4,15.399999999999999
1698745583.698,16,-0.7000000000000001,-1.7000000000000002,1.4000000000000001,-0.5,6.6000000000000005,6.300000000000001,-2.7,15.399999999999999,14.800000000000002
1698745583.715,16,-1.3,-0.7000000000000001,1.2000000000000002,-1.0,7.6000000000000005,6.300000000000001,-6.5,16.5,13.100000000000001
1698745583.732,16,-1.1,-0.2,1.1,-0.9,8.0,6.1000000000000005,-8.9,15.000000000000002,10.4
1698745583.748,16,-0.8,-0.5,1.0,-0.6000000000000001,7.7,6.1000000000000005,-10.8,13.8,8.3
1698745583.766,16,-0.4,-1.1,0.9,-0.2,7.1000000000000005,6.0,-13.700000000000001,10.1,5.300000000000001
1698745583.781,16,0.0,-0.8,0.7000000000000001,0.2,7.300000000000001,5.800000000000001,-13.6,8.9,4.5
1698745583.799,16,0.1,-0.7000000000000001,0.5,0.2,7.4,5.7,-12.100000000000001,7.300000000000001,1.0
1698745583.815,16,0.1,-1.1,-0.1,0.30000000000000004,7.1000000000000005,5.1000000000000005,-13.6,9.700000000000001,-3.8
1698745583.831,16,-0.7000000000000001,-1.7000000000000002,-0.6000000000000001,-0.6000000000000001,6.4,4.7,-13.100000000000001,8.700000000000001,-4.2
1698745583.85,16,-1.1,-1.8,-0.8,-1.0,6.2,4.5,-11.6,9.8,-3.3000000000000003
1698745583.865,16,-1.4000000000000001,-1.4000000000000001,-1.1,-1.3,6.6000000000000005,4.2,-5.300000000000001,5.500000000000001,-4.9
1698745583.882,16,-1.3,-0.7000000000000001,-1.0,-1.2000000000000002,7.300000000000001,4.2,2.3000000000000003,0.4,-8.5
1698745583.898,16,-1.1,-0.4,-1.0,-1.0,7.6000000000000005,4.3,5.7,-1.2000000000000002,-11.000000000000002
1698745583.915,16,-0.7000000000000001,-0.2,-0.9,-0.7000000000000001,7.9,4.3,9.5,-5.300000000000001,-14.3
1698745583.932,16,-0.4,-0.1,-0.8,-0.5,8.0,4.4,8.600000000000001,-7.2,-13.0
1698745583.949,16,-0.4,0.0,-0.9,-0.4,8.0,4.3,7.1000000000000005,-7.8,-12.4
1698745583.965,16,-0.4,0.0,-1.2000000000000002,-0.4,8.0,4.0,2.6,-10.3,-11.3
1698745583.982,16,-0.8,-0.2,-1.3,-0.9,7.9,3.8000000000000003,-1.4,-15.399999999999999,-8.799999999999999
1698745583.999,16,-0.9,-0.30000000000000004,-1.4000000000000001,-1.0,7.800000000000001,3.7,-2.1999999999999997,-18.2,-7.699999999999999
1698745584.015,16,-1.2000000000000002,-0.30000000000000004,-1.4000000000000001,-1.3,7.800000000000001,3.7,-0.9,-25.3,-9.1
1698745584.032,16,-1.1,-0.2,-1.3,-1.1,7.9,3.8000000000000003,2.8,-30.200000000000003,-12.6
1698745584.049,16,-1.0,0.0,-1.0,-1.1,8.0,4.1000000000000005,5.2,-31.2,-13.5
1698745584.065,16,-0.9,0.7000000000000001,-0.9,-0.9,8.8,4.2,10.600000000000001,-28.8,-14.4
1698745584.081,16,-0.5,1.2000000000000002,-0.4,-0.6000000000000001,9.3,4.6000000000000005,9.600000000000001,-22.7,-15.299999999999999
1698745584.098,16,0.6000000000000001,0.9,-0.6000000000000001,0.5,9.0,4.4,9.700000000000001,-12.000000000000002,-15.7
1698745584.115,16,1.6,0.7000000000000001,-1.0,1.4000000000000001,8.8,4.0,10.5,11.000000000000002,-14.100000000000001
1698745584.132,16,2.9000000000000004,1.9000000000000001,-1.9000000000000001,2.7,10.100000000000001,3.1,10.4,19.1,-14.500000000000002
1698745584.148,16,2.6,2.9000000000000004,-1.5,2.4000000000000004,11.100000000000001,3.5,15.9,27.8,-14.3
1698745584.165,16,0.7000000000000001,3.9000000000000004,-0.1,0.5,12.200000000000001,4.7,21.400000000000002,34.1,-13.0
1698745584.182,16,-1.7000000000000002,2.1,0.7000000000000001,-2.1,10.5,5.5,29.700000000000003,36.800000000000004,-16.3
1698745584.199,16,-2.3000000000000003,1.1,1.2000000000000002,-2.7,9.5,5.9,29.800000000000004,30.100000000000005,-17.7
1698745584.215,16,-1.7000000000000002,1.5,2.8000000000000003,-2.2,9.9,7.5,31.2,15.399999999999999,-18.2
1698745584.232,16,0.1,1.2000000000000002,3.5,-0.5,9.700000000000001,8.1,34.800000000000004,17.9,-24.8
1698745584.248,16,1.1,0.4,3.7,0.4,8.9,8.3,31.6,17.8,-30.299999999999997
1698745584.265,16,1.1,-1.8,3.0,0.30000000000000004,6.7,7.6000000000000005,12.9,16.900000000000002,-37.0
1698745584.282,16,0.4,-1.3,2.6,-0.5,7.2,7.1000000000000005,-8.600000000000001,12.100000000000001,-24.200000000000003
1698745584.299,16,-0.6000000000000001,0.4,1.9000000000000001,-1.6,8.8,6.5,-16.400000000000002,8.799999999999999,-19.1
1698745584.315,16,-0.8,1.1,1.8,-1.8,9.5,6.5,-23.6,-0.30000000000000004,-17.3
1698745584.332,16,-0.5,0.6000000000000001,0.9,-1.6,9.0,5.7,-21.8,-4.3999999999999995,-17.1
1698745584.349,16,0.0,-0.9,0.4,-1.1,7.4,5.2,-15.9,-12.5,-8.600000000000001
1698745584.367,16,0.0,-1.4000000000000001,0.1,-1.0,7.0,4.9,-14.600000000000001,-13.3,-5.2
1698745584.382,16,0.1,-1.7000000000000002,-0.6000000000000001,-1.0,6.6000000000000005,4.3,-13.5,-13.8,-2.4000000000000004
1698745584.398,16,0.1,-1.8,-0.9,-1.0,6.5,4.0,-13.100000000000001,-12.5,-1.9
1698745584.416,16,1.2000000000000002,-2.5,-0.9,0.1,5.7,4.0,-9.5,-8.5,-1.9
1698745584.432,16,2.0,-2.5,-0.9,1.0,5.7,4.0,0.0,-6.000000000000001,1.6
1698745584.448,16,2.7,-2.0,-0.8,1.5,6.0,4.1000000000000005,5.0,-3.9,5.4
1698745584.466,16,2.7,-1.8,-0.8,1.8,6.4,4.0,11.3,2.4000000000000004,16.6
1698745584.482,16,2.4000000000000004,-1.7000000000000002,-0.9,0.9,6.7,3.8000000000000003,11.4,6.4,22.5
1698745584.498,16,1.0,-1.3,-1.1,0.2,6.9,3.7,7.699999999999999,14.3,31.4
1698745584.515,16,0.0,-0.9,-1.3,-0.7000000000000001,7.4,3.5,4.6000000000000005,17.3,34.300000000000004
1698745584.532,16,-0.4,-0.2,-1.5,-1.0,8.1,3.3000000000000003,3.4,21.6,32.9
1698745584.548,16,-0.4,0.1,-1.6,-1.0,8.3,3.2,2.6,24.200000000000003,29.600000000000005
1698745584.566,16,0.2,0.1,-1.9000000000000001,-0.4,8.4,2.9000000000000004,-1.5000000000000002,28.6,18.900000000000002
1698745584.582,16,0.7000000000000001,-0.4,-1.8,0.1,7.9,2.9000000000000004,-3.9,32.9,12.200000000000001
1698745584.598,16,0.9,-0.6000000000000001,-1.7000000000000002,0.1,7.7,3.1,-2.4000000000000004,35.4,10.5
1698745584.615,16,0.8,-0.30000000000000004,-1.4000000000000001,0.1,8.0,3.2,6.3,38.7,9.9
1698745584.632,16,0.4,0.4,-1.6,-0.30000000000000004,8.700000000000001,3.0,16.0,34.50000000000001,10.600000000000001
1698745584.648,16,-0.2,1.0,-0.9,-0.9,9.4,3.6,24.3,21.6,12.5
1698745584.665,16,-0.5,0.6000000000000001,-1.0,-1.2000000000000002,9.0,3.5,29.800000000000004,9.700000000000001,11.6
1698745584.683,16,-1.7000000000000002,0.5,-1.8,-2.4000000000000004,8.9,2.6,30.200000000000003,-1.7,6.4
1698745584.698,16,-2.3000000000000003,3.2,-1.7000000000000002,-3.0,11.700000000000001,2.6,14.0,19.6,6.5
1698745584.715,16,-1.7000000000000002,3.7,-1.0,-2.4000000000000004,12.200000000000001,3.3000000000000003,12.000000000000002,14.700000000000001,5.9
1698745584.732,16,-1.3,4.800000000000001,3.2,-2.0,13.4,7.4,32.5,1.6,13.100000000000001
1698745584.749,16,-1.3,3.2,4.3,-2.0,11.9,8.4,59.400000000000006,-21.200000000000003,24.400000000000002
1698745584.765,16,-1.3,2.5,6.1000000000000005,-1.9000000000000001,11.200000000000001,10.200000000000001,57.5,-34.300000000000004,25.3
1698745584.782,16,-1.0,0.2,5.2,-1.4000000000000001,9.0,9.200000000000001,30.299999999999997,-52.50000000000001,30.4
1698745584.798,16,0.0,-1.3,3.5,1.1,7.2,6.800000000000001,-4.5,-43.400000000000006,26.700000000000003
1698745584.815,16,2.2,-0.8,3.5,2.0,7.9,7.7,-49.4,-30.4,10.8
1698745584.832,16,2.8000000000000003,0.7000000000000001,3.1,2.6,9.4,7.4,-31.3,-24.5,10.3
1698745584.848,16,1.7000000000000002,1.1,2.8000000000000003,1.6,9.8,7.1000000000000005,-6.5,-20.6,13.4
1698745584.865,16,1.0,0.1,2.3000000000000003,1.0,8.8,6.6000000000000005,-2.3000000000000003,-13.700000000000001,12.6
1698745584.882,16,0.2,-1.2000000000000002,1.6,0.2,7.4,6.1000000000000005,-13.8,-1.7,8.1
1698745584.898,16,0.1,-1.7000000000000002,0.4,0.1,6.9,4.9,-28.8,5.2,9.0
1698745584.915,16,0.0,-1.9000000000000001,0.0,0.1,6.7,4.5,-31.099999999999998,4.1000000000000005,10.5
1698745584.932,16,-0.4,-2.2,-0.6000000000000001,-0.4,6.4,4.1000000000000005,-23.700000000000003,0.1,10.2
1698745584.948,16,-1.0,-2.0,-0.6000000000000001,-0.9,6.5,4.0,-9.700000000000001,-2.5,1.7
1698745584.965,16,-1.2000000000000002,-1.7000000000000002,-0.6000000000000001,-1.2000000000000002,6.800000000000001,4.1000000000000005,-3.6,-3.1,-4.7
1698745584.982,16,-1.6,-1.3,-0.7000000000000001,-1.6,7.2,3.9000000000000004,1.7,-5.500000000000001,-15.100000000000001
1698745584.998,16,-1.6,-1.1,-1.0,-1.6,7.4,3.6,-4.2,-10.2,-22.000000000000004
1698745585.016,16,-1.3,-1.2000000000000002,-1.1,-1.4000000000000001,7.2,3.5,-12.5,-14.900000000000002,-27.1
1698745585.032,16,-1.0,-1.3,-1.2000000000000002,-1.1,7.1000000000000005,3.5,-14.200000000000001,-17.200000000000003,-28.900000000000002
1698745585.049,16,-0.6000000000000001,-1.6,-1.4000000000000001,-0.7000000000000001,6.800000000000001,3.3000000000000003,-14.4,-25.5,-28.500000000000004
1698745585.065,16,-0.7000000000000001,-1.7000000000000002,-1.6,-0.9,6.6000000000000005,3.1,-13.4,-35.6,-23.8
1698745585.082,16,-0.9,-1.7000000000000002,-1.7000000000000002,-1.1,6.6000000000000005,3.0,-13.8,-41.1,-22.1
1698745585.098,16,-1.2000000000000002,-1.2000000000000002,-1.8,-1.4000000000000001,7.0,3.0,-14.4,-49.5,-21.900000000000002
1698745585.115,16,-0.9,-0.5,-1.9000000000000001,-1.1,7.7,2.9000000000000004,-13.8,-51.900000000000006,-23.3
1698745585.132,16,-0.6000000000000001,-0.30000000000000004,-2.0,-0.8,7.9,2.8000000000000003,-12.000000000000002,-50.300000000000004,-24.200000000000003
1698745585.148,16,0.1,0.2,-1.9000000000000001,-0.1,8.4,2.9000000000000004,-4.6000000000000005,-42.0,-26.6
1698745585.165,16,0.4,0.30000000000000004,-1.6,0.2,8.5,3.3000000000000003,1.4,-34.2,-27.6
1698745585.183,16,1.3,0.1,-1.3,1.1,8.4,3.5,18.0,-12.100000000000001,-25.3
1698745585.199,16,1.9000000000000001,0.9,-2.2,1.7000000000000002,9.200000000000001,2.5,25.700000000000003,-1.7,-13.8
1698745585.215,16,1.9000000000000001,2.0,-2.8000000000000003,1.1,11.3,1.5,19.9,-15.000000000000002,-13.3
1698745585.232,16,0.1,3.6,-2.5,-0.2,12.0,2.1,16.5,-25.700000000000003,-15.000000000000002
1698745585.248,16,-1.6,4.6000000000000005,2.2,-1.9000000000000001,13.0,6.7,34.2,-17.9,-22.1
1698745585.265,16,-0.2,1.7000000000000002,4.0,-0.6000000000000001,10.3,8.3,63.2,5.0,-42.6
1698745585.283,16,1.2000000000000002,1.8,4.5,0.7000000000000001,10.4,8.8,66.2,8.0,-41.800000000000004
1698745585.298,16,2.9000000000000004,-0.30000000000000004,4.1000000000000005,2.3000000000000003,8.4,8.200000000000001,50.7,16.1,-36.2
1698745585.315,16,2.7,-1.1,3.7,2.0,7.6000000000000005,7.800000000000001,17.1,27.1,-38.800000000000004
1698745585.332,16,1.9000000000000001,-0.7000000000000001,3.6,1.1,8.0,7.7,1.7,31.099999999999998,-37.0
1698745585.349,16,0.9,0.4,2.7,-0.1,9.1,6.800000000000001,-16.900000000000002,35.5,-26.400000000000002
1698745585.365,16,-1.4000000000000001,1.2000000000000002,2.4000000000000004,-2.4000000000000004,9.9,6.7,-27.2,22.4,-12.8
1698745585.382,16,-2.3000000000000003,2.0,2.5,-3.3000000000000003,10.600000000000001,6.800000000000001,-24.1,17.5,-6.9
1698745585.398,16,-1.2000000000000002,1.5,1.4000000000000001,-2.3000000000000003,10.100000000000001,5.7,-13.9,9.8,0.9
1698745585.415,16,-0.1,0.1,0.8,-1.2000000000000002,8.700000000000001,5.2,-11.2,0.1,1.7
1698745585.432,16,0.2,-0.30000000000000004,0.30000000000000004,-0.8,8.3,4.7,-12.000000000000002,-3.2,4.2
1698745585.449,16,0.5,-1.2000000000000002,-0.2,-0.5,7.300000000000001,4.3,-13.6,-9.4,9.0
1698745585.465,16,0.8,-2.0,-0.5,-0.1,6.5,4.0,-10.0,-5.9,12.000000000000002
1698745585.482,16,1.1,-2.4000000000000004,-0.6000000000000001,0.2,6.1000000000000005,3.9000000000000004,-4.300000000000001,-3.3000000000000003,15.6
1698745585.498,16,1.4000000000000001,-2.6,-0.8,0.5,5.9,3.7,-1.7,-1.6,19.200000000000003
1698745585.515,16,1.3,-2.3000000000000003,-0.9,0.5,6.2,3.5,3.5,0.2,29.600000000000005
1698745585.531,16,0.9,-1.6,-1.2000000000000002,0.30000000000000004,6.9,3.2,5.300000000000001,1.5000000000000002,39.9
1698745585.548,16,0.8,-1.3,-1.5,0.2,7.2,2.9000000000000004,3.7000000000000006,3.1,42.300000000000004
1698745585.565,16,0.8,-1.2000000000000002,-1.6,0.30000000000000004,7.300000000000001,2.8000000000000003,-2.1999999999999997,5.500000000000001,41.0
1698745585.582,16,0.6000000000000001,-1.0,-1.7000000000000002,-0.1,7.5,2.7,-7.0,10.8,32.2
1698745585.598,16,0.0,-0.9,-1.8,-0.30000000000000004,7.5,2.6,-9.1,11.700000000000001,27.400000000000002
1698745585.615,16,0.0,-0.9,-1.9000000000000001,-0.4,7.6000000000000005,2.5,-11.6,14.800000000000002,18.3
1698745585.631,16,0.30000000000000004,-1.0,-1.9000000000000001,0.0,7.5,2.5,-11.4,18.5,11.700000000000001
1698745585.648,16,0.5,-0.9,-1.9000000000000001,0.2,7.5,2.6,-10.3,20.7,9.8
1698745585.665,16,0.6000000000000001,-0.8,-1.6,0.30000000000000004,7.6000000000000005,2.9000000000000004,-4.7,25.8,10.0
1698745585.682,16,0.6000000000000001,-0.4,-1.6,0.2,8.0,2.9000000000000004,-1.2000000000000002,31.3,11.6
1698745585.698,16,0.2,0.30000000000000004,-1.7000000000000002,-0.2,8.700000000000001,2.7,4.800000000000001,29.800000000000004,13.5
1698745585.715,16,-0.2,0.6000000000000001,-1.4000000000000001,-0.5,9.1,3.0,13.0,8.799999999999999,12.6
1698745585.732,16,-0.4,0.0,-1.4000000000000001,-0.7000000000000001,8.4,2.9000000000000004,17.0,-4.5,9.5
1698745585.748,16,-0.4,0.4,-2.6,-0.6000000000000001,8.9,1.7000000000000002,14.200000000000001,-6.7,2.4000000000000004
1698745585.765,16,-0.30000000000000004,2.2,-1.8,-0.6000000000000001,10.700000000000001,2.4000000000000004,4.7,18.1,5.8
1698745585.782,16,-0.5,3.1,2.0,-0.8,11.600000000000001,6.300000000000001,27.400000000000002,16.400000000000002,13.6
1698745585.798,16,-1.2000000000000002,4.5,4.4,-1.5,13.100000000000001,8.5,53.7,2.8,27.7
1698745585.815,16,-2.1,2.9000000000000004,5.800000000000001,-2.2,11.600000000000001,9.8,78.2,-22.4,46.0
1698745585.831,16,-1.5,0.8,5.1000000000000005,-1.5,9.600000000000001,8.9,28.700000000000003,-26.1,41.4
1698745585.848,16,-0.2,-0.2,3.7,-0.1,8.6,7.6000000000000005,-15.399999999999999,-16.1,35.199999999999996
1698745585.865,16,1.6,1.1,4.0,1.8,9.8,8.1,-54.3,-16.6,18.5
1698745585.882,16,1.6,1.6,3.7,1.9000000000000001,10.3,7.9,-43.0,-17.9,17.5
1698745585.898,16,1.5,2.5,3.5,1.8,11.200000000000001,7.800000000000001,-13.0,-10.0,17.0
1698745585.917,16,0.5,2.1,3.9000000000000004,0.9,10.8,8.200000000000001,-0.6000000000000001,-8.9,6.2
1698745585.932,16,-0.6000000000000001,0.2,2.3000000000000003,-0.2,8.9,6.7,-10.3,-1.0999999999999999,2.1
1698745585.948,16,-0.5,-0.1,1.4000000000000001,-0.1,8.5,5.9,-45.4,17.1,-1.9
1698745585.965,16,-0.5,-1.3,0.0,-0.2,7.2,4.6000000000000005,-55.7,19.9,-2.6
1698745585.982,16,-0.7000000000000001,-2.1,-1.1,-0.5,6.4,3.7,-49.2,19.0,-1.5000000000000002
1698745585.999,16,-0.8,-2.3000000000000003,-1.2000000000000002,-0.6000000000000001,6.2,3.6,-26.3,13.0,-1.6
1698745586.015,16,-1.2000000000000002,-2.2,-0.9,-1.0,6.2,3.9000000000000004,-5.6,6.4,-8.0
1698745586.032,16,-1.6,-2.1,-1.0,-1.5,6.300000000000001,3.8000000000000003,-0.8,5.4,-11.9
1698745586.049,16,-1.6,-2.1,-1.0,-1.5,6.300000000000001,3.8000000000000003,-6.1000000000000005,2.4000000000000004,-21.1
1698745586.065,16,-1.4000000000000001,-2.0,-1.4000000000000001,-1.3,6.300000000000001,3.4000000000000004,-18.0,-1.3,-28.500000000000004
1698745586.082,16,-1.2000000000000002,-2.1,-1.6,-1.2000000000000002,6.2,3.2,-21.6,-2.1,-29.500000000000004
1698745586.099,16,-0.7000000000000001,-1.8,-1.9000000000000001,-0.8,6.5,3.0,-19.8,-5.2,-28.500000000000004
1698745586.115,16,-0.4,-1.6,-2.1,-0.6000000000000001,6.7,2.9000000000000004,-13.100000000000001,-12.9,-26.500000000000004
1698745586.132,16,-0.7000000000000001,-1.6,-2.0,-0.9,6.6000000000000005,2.9000000000000004,-9.200000000000001,-22.3,-21.6
1698745586.149,16,-1.2000000000000002,-1.3,-1.9000000000000001,-1.4000000000000001,6.9,3.0,-12.000000000000002,-30.799999999999997,-17.400000000000002
1698745586.165,16,-1.3,-1.1,-1.8,-1.5,7.0,3.2,-13.700000000000001,-33.400000000000006,-15.8
1698745586.181,16,-0.8,-0.6000000000000001,-1.7000000000000002,-1.0,7.5,3.3000000000000003,-11.2,-27.3,-14.4
1698745586.198,16,0.2,-0.30000000000000004,-2.0,0.0,7.800000000000001,3.1,-7.1000000000000005,-21.0,-16.900000000000002
1698745586.215,16,1.5,0.2,-1.9000000000000001,1.3,8.3,3.1,6.4,-6.4,-22.000000000000004
1698745586.232,16,2.0,0.7000000000000001,-1.6,1.7000000000000002,8.8,3.4000000000000004,24.6,15.2,-19.1
1698745586.248,16,1.6,0.5,-1.6,1.3,8.6,3.3000000000000003,32.5,24.9,-11.700000000000001
1698745586.265,16,0.6000000000000001,1.2000000000000002,-2.8000000000000003,0.2,9.4,2.0,33.1,28.3,0.2
1698745586.281,16,-1.2000000000000002,3.9000000000000004,-0.9,-1.6,12.200000000000001,3.7,21.900000000000002,-6.7,-7.2
1698745586.298,16,-2.6,4.6000000000000005,1.1,-3.0,13.0,5.7,28.400000000000002,-8.799999999999999,-12.6
1698745586.315,16,-1.4000000000000001,2.7,3.3000000000000003,-1.9000000000000001,11.100000000000001,7.800000000000001,49.8,18.8,-32.800000000000004
1698745586.334,16,0.5,1.7000000000000002,3.8000000000000003,-0.2,10.200000000000001,8.200000000000001,49.8,22.6,-39.00000000000001
1698745586.348,16,1.3,-0.6000000000000001,3.8000000000000003,0.5,7.9,8.1,29.900000000000006,23.3,-30.299999999999997
1698745586.365,16,2.1,-0.9,3.9000000000000004,1.2000000000000002,7.7,8.200000000000001,18.900000000000002,27.6,-28.8
1698745586.382,16,1.9000000000000001,0.2,3.8000000000000003,1.0,8.8,8.1,2.1,29.900000000000006,-30.4
1698745586.398,16,1.4000000000000001,0.9,3.4000000000000004,0.30000000000000004,9.4,7.7,-3.6,33.900000000000006,-27.0
1698745586.415,16,-0.4,1.1,3.0,-1.6,9.600000000000001,7.300000000000001,-18.400000000000002,27.1,-15.2
1698745586.432,16,-1.7000000000000002,2.2,3.2,-2.9000000000000004,10.700000000000001,7.6000000000000005,-15.8,21.700000000000003,-4.9
1698745586.448,16,-1.3,2.2,2.6,-2.5,10.8,7.0,-14.100000000000001,18.0,-2.5
1698745586.465,16,-0.4,1.4000000000000001,1.5,-1.6,9.9,6.1000000000000005,-17.0,10.0,0.30000000000000004
1698745586.481,16,-0.30000000000000004,0.30000000000000004,0.5,-1.6,8.8,5.1000000000000005,-21.8,-0.2,7.699999999999999
1698745586.498,16,0.0,-0.7000000000000001,-0.2,-1.2000000000000002,7.7,4.5,-22.1,-5.0,11.2
1698745586.515,16,0.4,-1.3,-0.6000000000000001,-0.8,7.1000000000000005,4.1000000000000005,-19.6,-2.1999999999999997,11.6
1698745586.532,16,1.3,-2.4000000000000004,-1.2000000000000002,0.1,6.0,3.6,-11.6,-1.2000000000000002,12.000000000000002
1698745586.549,16,1.6,-2.6,-1.4000000000000001,0.5,5.800000000000001,3.4000000000000004,-3.3000000000000003,-0.2,21.3
1698745586.565,16,1.5,-2.5,-1.4000000000000001,0.5,5.800000000000001,3.3000000000000003,0.4,0.5,28.900000000000002
1698745586.581,16,1.3,-2.1,-1.5,0.4,6.2,3.2,4.800000000000001,3.7000000000000006,42.900000000000006
1698745586.598,16,1.2000000000000002,-1.9000000000000001,-1.7000000000000002,0.30000000000000004,6.6000000000000005,2.9000000000000004,4.9,4.800000000000001,46.5
1698745586.615,16,0.8,-1.8,-1.8,0.1,6.6000000000000005,2.8000000000000003,2.8,7.2,46.0
1698745586.633,16,0.5,-1.8,-2.0,-0.1,6.6000000000000005,2.6,0.5,14.3,41.5
1698745586.648,16,0.1,-1.7000000000000002,-2.3000000000000003,-0.4,6.7,2.3000000000000003,-2.1999999999999997,20.8,35.6
1698745586.666,16,0.1,-1.5,-2.4000000000000004,-0.4,6.800000000000001,2.2,-3.9,23.900000000000002,32.2
1698745586.682,16,0.2,-1.5,-2.6,-0.2,6.800000000000001,2.0,-5.300000000000001,28.200000000000003,22.000000000000004
1698745586.698,16,0.4,-1.3,-2.2,0.0,7.0,2.4000000000000004,-2.1999999999999997,35.5,13.100000000000001
1698745586.715,16,0.5,-1.0,-2.2,0.0,7.4,2.4000000000000004,1.8,39.300000000000004,12.5
1698745586.732,16,-0.2,-0.1,-2.2,-0.7000000000000001,8.200000000000001,2.3000000000000003,9.9,37.300000000000004,14.900000000000002
1698745586.748,16,0.0,0.8,-1.6,-0.5,9.200000000000001,2.9000000000000004,15.5,26.500000000000004,12.000000000000002
1698745586.766,16,-0.2,0.7000000000000001,-1.1,-0.7000000000000001,9.1,3.3000000000000003,21.5,10.3,7.699999999999999
1698745586.782,16,-0.8,0.0,-1.4000000000000001,-1.3,8.4,2.9000000000000004,28.400000000000002,-9.9,5.0
1698745586.799,16,-1.5,1.9000000000000001,-2.2,-1.9000000000000001,10.3,2.0,15.299999999999999,-9.3,3.9
1698745586.815,16,-1.5,3.1,-1.5,-1.9000000000000001,11.600000000000001,2.7,7.500000000000001,-3.5,2.0
1698745586.833,16,-0.9,3.9000000000000004,-0.4,-1.5,12.8,6.1000000000000005,16.0,-0.5,4.7
1698745586.848,16,-1.9000000000000001,5.4,4.3,-2.3000000000000003,14.100000000000001,8.4,56.0,-30.299999999999997,29.300000000000004
1698745586.866,16,-1.4000000000000001,3.4000000000000004,4.4,-1.7000000000000002,12.100000000000001,8.4,56.900000000000006,-35.7,31.0
1698745586.882,16,0.2,1.3,5.0,0.0,10.100000000000001,9.0,25.1,-31.900000000000002,17.9
1698745586.899,16,1.4000000000000001,0.2,3.9000000000000004,1.3,8.9,7.9,-22.8,-18.5,14.700000000000001
1698745586.915,16,1.6,0.7000000000000001,4.4,1.6,9.5,8.5,-33.400000000000006,-18.400000000000002,13.4
1698745586.933,16,0.7000000000000001,2.4000000000000004,3.5,0.8,11.100000000000001,7.800000000000001,-23.8,-18.8,19.200000000000003
1698745586.948,16,0.1,2.5,3.5,0.2,11.200000000000001,7.800000000000001,-24.1,-12.100000000000001,17.7
1698745586.965,16,0.1,1.7000000000000002,3.0,0.2,10.4,7.4,-26.0,-11.4,9.1
1698745586.981,16,0.0,0.2,1.7000000000000002,0.1,8.8,6.2,-37.7,-5.300000000000001,-2.4000000000000004
1698745586.998,16,-0.2,-0.6000000000000001,0.1,-0.1,8.0,4.800000000000001,-44.00000000000001,1.2000000000000002,-7.300000000000001
1698745587.015,16,-0.4,-1.1,-0.5,-0.30000000000000004,7.5,4.2,-43.900000000000006,-1.7,-7.2
1698745587.031,16,-0.8,-2.4000000000000004,-1.1,-0.7000000000000001,6.1000000000000005,3.7,-36.3,-7.1000000000000005,-5.0
1698745587.048,16,-1.2000000000000002,-2.6,-1.2000000000000002,-1.1,5.7,3.7,-21.400000000000002,-13.8,-7.300000000000001
1698745587.065,16,-1.4000000000000001,-2.5,-1.2000000000000002,-1.3,5.800000000000001,3.7,-13.9,-16.0,-10.1
1698745587.082,16,-1.6,-2.2,-1.2000000000000002,-1.6,6.1000000000000005,3.7,-5.1,-16.5,-18.8
1698745587.098,16,-1.3,-1.8,-1.3,-1.3,6.5,3.6,-5.0,-15.000000000000002,-29.800000000000004
1698745587.115,16,-0.5,-1.7000000000000002,-1.6,-1.0,6.5,3.5,-7.2,-15.7,-34.2
1698745587.132,16,-0.30000000000000004,-1.5,-1.6,-0.5,6.800000000000001,3.3000000000000003,-11.6,-17.200000000000003,-35.4
1698745587.148,16,0.0,-1.4000000000000001,-1.9000000000000001,-0.2,6.800000000000001,3.0,-14.200000000000001,-20.4,-28.400000000000002
1698745587.166,16,0.1,-1.5,-1.9000000000000001,-0.1,6.7,3.0,-15.6,-22.8,-24.9
1698745587.182,16,-0.30000000000000004,-1.8,-1.9000000000000001,-0.5,6.4,3.0,-17.7,-29.000000000000004,-17.9
1698745587.198,16,-0.9,-1.3,-1.9000000000000001,-1.1,6.800000000000001,3.1,-20.6,-40.4,-12.8
1698745587.215,16,-1.4000000000000001,-0.7000000000000001,-2.1,-1.6,7.300000000000001,3.0,-21.1,-43.900000000000006,-10.8
1698745587.231,16,-1.2000000000000002,-0.4,-2.1,-1.3,7.6000000000000005,2.9000000000000004,-17.7,-46.1,-9.200000000000001
1698745587.248,16,-0.2,0.1,-2.2,-0.30000000000000004,8.1,2.9000000000000004,-8.700000000000001,-33.1,-18.400000000000002
1698745587.265,16,0.6000000000000001,0.0,-2.1,0.4,8.0,3.0,-0.8,-24.8,-23.2
1698745587.281,16,1.4000000000000001,0.1,-1.6,1.2000000000000002,8.200000000000001,3.5,21.0,-0.5,-25.1
1698745587.299,16,2.4000000000000004,0.2,-2.2,2.1,8.3,2.8000000000000003,41.4,19.0,-15.2
1698745587.315,16,2.3000000000000003,0.8,-2.8000000000000003,2.0,8.9,2.0,43.900000000000006,18.3,-9.1
1698745587.331,16,0.4,2.9000000000000004,-2.5,0.2,11.100000000000001,2.2,32.300000000000004,-0.5,-4.2
1698745587.348,16,-1.3,6.2,2.6,-1.6,14.5,7.2,40.1,3.3000000000000003,-15.9
1698745587.365,16,-2.2,2.1,2.4000000000000004,-2.6,10.600000000000001,6.9,54.4,20.8,-28.1
1698745587.381,16,-1.3,1.6,3.5,-1.9000000000000001,10.100000000000001,7.9,51.6,19.400000000000002,-31.5
1698745587.398,16,2.3000000000000003,0.4,4.6000000000000005,1.7000000000000002,8.9,9.0,40.7,13.0,-37.6
1698745587.415,16,3.4000000000000004,-1.0,4.4,2.6,7.6000000000000005,8.700000000000001,22.000000000000004,27.900000000000002,-47.5
1698745587.432,16,2.9000000000000004,-0.6000000000000001,4.5,2.0,8.0,8.8,10.4,34.800000000000004,-48.00000000000001
1698745587.448,16,1.2000000000000002,0.30000000000000004,3.1,0.2,8.8,7.4,-12.8,34.900000000000006,-30.5
1698745587.465,16,-1.0,2.8000000000000003,3.9000000000000004,-0.4,10.0,7.800000000000001,-25.0,29.300000000000004,-18.900000000000002
1698745587.482,16,-2.0,3.3000000000000003,3.2,-3.1,11.8,7.6000000000000005,-28.0,25.2,-1.8
1698745587.498,16,-1.2000000000000002,2.0,1.6,-2.3000000000000003,10.5,6.2,-23.3,20.4,11.8
1698745587.515,16,-0.2,0.5,0.4,-1.3,9.0,5.0,-21.5,12.200000000000001,11.5
1698745587.532,16,0.2,-0.1,-0.1,-0.9,8.4,4.6000000000000005,-21.6,8.9,10.0
1698745587.548,16,0.6000000000000001,-1.1,-0.8,-0.5,7.300000000000001,3.9000000000000004,-19.9,7.9,6.1000000000000005
1698745587.565,16,1.1,-2.6,-1.5,0.0,5.800000000000001,3.2,-15.000000000000002,9.600000000000001,3.6
1698745587.581,16,1.1,-2.9000000000000004,-1.6,0.0,5.5,3.1,-11.700000000000001,9.1,5.0
1698745587.598,16,1.0,-3.2,-1.7000000000000002,-0.1,5.2,3.1,-3.5,6.7,14.800000000000002
1698745587.615,16,0.9,-3.1,-1.7000000000000002,-0.1,5.300000000000001,3.0,4.1000000000000005,5.300000000000001,26.6
1698745587.632,16,0.9,-2.7,-1.7000000000000002,-0.1,5.6000000000000005,3.0,6.1000000000000005,5.500000000000001,30.7
1698745587.648,16,0.8,-1.8,-1.7000000000000002,-0.1,6.5,2.9000000000000004,7.699999999999999,7.699999999999999,32.300000000000004
1698745587.665,16,1.1,-1.5,-1.9000000000000001,0.30000000000000004,6.9,2.7,6.3,10.4,29.700000000000003
1698745587.682,16,1.0,-1.1,-2.0,0.30000000000000004,7.300000000000001,2.6,-0.9,15.8,20.8
1698745587.699,16,0.8,-1.3,-2.3000000000000003,0.0,7.0,2.3000000000000003,-9.4,26.1,16.400000000000002
1698745587.715,16,0.9,-2.0,-2.4000000000000004,0.1,6.300000000000001,2.2,-13.3,37.4,10.3
1698745587.732,16,1.1,-1.9000000000000001,-2.3000000000000003,0.30000000000000004,6.4,2.4000000000000004,-10.8,42.300000000000004,7.400000000000001
1698745587.749,16,1.0,-1.2000000000000002,-2.3000000000000003,0.1,7.1000000000000005,2.3000000000000003,2.0,46.7,7.699999999999999
1698745587.765,16,0.4,0.1,-1.8,-0.5,8.4,2.7,19.0,42.300000000000004,15.6
1698745587.783,16,0.2,0.6000000000000001,-1.2000000000000002,-0.7000000000000001,8.9,3.3000000000000003,27.6,36.3,18.0
1698745587.799,16,0.0,0.5,-0.5,-0.9,8.9,3.9000000000000004,41.9,11.3,12.6
1698745587.816,16,-0.7000000000000001,0.9,-0.9,-2.5,10.600000000000001,2.2,28.500000000000004,6.8,14.500000000000002
1698745587.832,16,-2.0,2.9000000000000004,-3.0,-2.8000000000000003,11.4,1.2000000000000002,8.3,13.6,19.700000000000003
1698745587.848,16,-0.6000000000000001,3.9000000000000004,-1.8,-1.5,12.3,2.5,-23.3,22.8,10.600000000000001
1698745587.865,16,-0.8,4.1000000000000005,1.8,-1.6,12.600000000000001,6.0,10.4,-2.0,13.4
1698745587.881,16,-3.2,5.1000000000000005,3.7,-3.9000000000000004,13.8,7.800000000000001,66.60000000000001,-30.599999999999998,41.300000000000004
1698745587.898,16,-2.6,3.7,5.1000000000000005,-3.2,12.4,9.1,74.0,-39.2,43.900000000000006
1698745587.915,16,-2.3000000000000003,1.0,6.800000000000001,-2.8000000000000003,9.8,10.700000000000001,52.400000000000006,-56.6,25.900000000000002
1698745587.931,16,-1.9000000000000001,-0.7000000000000001,5.300000000000001,-2.3000000000000003,8.1,9.200000000000001,14.800000000000002,-53.7,24.3
1698745587.95,16,1.5,-0.4,3.7,1.3,8.3,7.800000000000001,-60.7,-38.900000000000006,20.6
1698745587.965,16,2.0,1.6,3.8000000000000003,1.9000000000000001,10.3,8.1,-60.1,-28.0,17.7
1698745587.982,16,2.3000000000000003,3.2,3.3000000000000003,2.1,11.9,7.7,-45.9,-21.0,15.8
1698745587.998,16,1.2000000000000002,2.7,2.7,1.1,11.4,7.2,-18.0,-19.9,5.8
1698745588.015,16,0.2,-0.1,2.0,0.1,8.5,6.6000000000000005,-18.3,-12.200000000000001,-2.6
1698745588.031,16,0.0,-0.7000000000000001,1.4000000000000001,-0.1,7.9,6.0,-26.9,-7.2,-4.1000000000000005
1698745588.048,16,-0.30000000000000004,-1.1,-0.4,-0.30000000000000004,7.5,4.4,-44.7,3.0000000000000004,-3.2
1698745588.065,16,-0.9,-2.0,-1.7000000000000002,-0.9,6.4,3.2,-47.5,-0.4,-0.1
1698745588.081,16,-1.3,-2.8000000000000003,-2.2,-1.4000000000000001,5.6000000000000005,2.7,-36.3,-6.000000000000001,-4.6000000000000005
1698745588.098,16,-1.5,-3.0,-2.3000000000000003,-1.6,5.300000000000001,2.7,-27.5,-8.700000000000001,-9.8
1698745588.115,16,-1.7000000000000002,-2.8000000000000003,-2.1,-1.8,5.4,2.9000000000000004,-9.700000000000001,-13.3,-18.8
1698745588.131,16,-1.6,-2.5,-2.0,-1.7000000000000002,5.800000000000001,3.0,0.5,-22.4,-22.8
1698745588.15,16,-1.6,-2.4000000000000004,-2.0,-1.7000000000000002,5.9,3.0,0.2,-26.8,-22.8
1698745588.165,16,-1.5,-2.0,-2.0,-1.6,6.2,3.1,-8.1,-29.500000000000004,-21.3
1698745588.181,16,-0.9,-1.5,-2.2,-1.1,6.7,2.8000000000000003,-17.599999999999998,-34.0,-22.900000000000002
1698745588.198,16,-0.6000000000000001,-1.3,-2.2,-0.8,6.800000000000001,2.9000000000000004,-20.7,-37.800000000000004,-23.3
1698745588.215,16,-0.5,-1.4000000000000001,-2.5,-0.7000000000000001,6.6000000000000005,2.6,-20.6,-43.2,-20.0
1698745588.231,16,-0.6000000000000001,-1.3,-2.3000000000000003,-0.7000000000000001,6.7,2.8000000000000003,-14.800000000000002,-47.800000000000004,-16.900000000000002
1698745588.248,16,-0.5,-1.0,-2.4000000000000004,-0.6000000000000001,7.0,2.7,-11.000000000000002,-48.9,-16.2
1698745588.265,16,0.2,0.0,-2.0,0.1,8.0,3.1,-3.4,-44.1,-16.0
1698745588.281,16,0.5,1.0,-1.7000000000000002,0.4,9.0,3.4000000000000004,6.4,-30.599999999999998,-14.100000000000001
1698745588.298,16,0.4,1.7000000000000002,-1.0,0.2,9.5,3.8000000000000003,11.3,-21.5,-11.000000000000002
1698745588.315,16,0.9,1.3,-1.2000000000000002,0.8,9.4,3.8000000000000003,21.900000000000002,2.5,-7.400000000000001
1698745588.331,16,1.5,1.0,-2.4000000000000004,1.4000000000000001,9.1,2.5,21.5,11.6,-1.4
1698745588.349,16,1.4000000000000001,2.0,-1.9000000000000001,1.3,10.200000000000001,3.0,19.400000000000002,8.799999999999999,0.1
1698745588.365,16,0.8,4.6000000000000005,0.5,0.7000000000000001,12.8,5.4,31.4,5.4,-9.0
1698745588.382,16,-0.4,3.2,3.8000000000000003,-0.6000000000000001,11.600000000000001,8.6,52.900000000000006,19.1,-20.7
1698745588.399,16,-0.7000000000000001,2.4000000000000004,4.1000000000000005,-1.0,10.8,8.700000000000001,59.1,27.7,-22.6
1698745588.415,16,0.30000000000000004,1.3,5.0,-0.1,9.8,9.5,43.6,31.5,-30.599999999999998
1698745588.432,16,2.3000000000000003,-0.1,4.9,1.8,8.5,9.4,23.1,60.00000000000001,-41.4
1698745588.448,16,1.9000000000000001,-0.6000000000000001,4.0,1.3,7.9,8.4,13.200000000000001,61.7,-45.9
1698745588.464,16,0.7000000000000001,-0.2,1.9000000000000001,-0.1,8.3,6.4,-13.3,47.6,-22.3
1698745588.481,16,-1.5,1.9000000000000001,3.1,-2.4000000000000004,10.3,7.7,-33.2,35.1,-7.699999999999999
1698745588.498,16,-1.8,2.4000000000000004,2.0,-2.8000000000000003,10.9,6.7,-25.8,34.400000000000006,1.2000000000000002
1698745588.515,16,-1.0,1.8,1.6,-2.1,10.3,6.4,-23.6,31.0,3.6
1698745588.532,16,0.1,0.30000000000000004,0.5,-1.0,8.700000000000001,5.300000000000001,-20.6,24.200000000000003,3.0000000000000004
1698745588.548,16,0.5,-0.2,0.1,-0.6000000000000001,8.200000000000001,4.9,-19.9,20.900000000000002,5.0
1698745588.565,16,1.1,-1.7000000000000002,-0.6000000000000001,0.0,6.6000000000000005,4.3,-17.5,18.2,9.1
1698745588.582,16,0.8,-2.2,-1.1,-0.2,6.1000000000000005,3.8000000000000003,-12.4,16.1,17.3
1698745588.599,16,0.6000000000000001,-2.4000000000000004,-1.3,-0.4,5.9,3.6,-9.700000000000001,16.3,21.1
1698745588.615,16,0.4,-2.6,-1.4000000000000001,-0.6000000000000001,5.7,3.5,-3.3000000000000003,17.5,25.700000000000003
1698745588.631,16,0.5,-2.4000000000000004,-1.8,-0.5,5.800000000000001,3.1,3.3000000000000003,19.1,31.900000000000002
1698745588.648,16,0.8,-2.1,-2.0,0.0,6.1000000000000005,2.8000000000000003,5.9,18.2,34.6
1698745588.664,16,1.0,-1.8,-2.1,0.2,6.5,2.7,5.500000000000001,16.8,34.1
1698745588.681,16,0.8,-1.2000000000000002,-2.2,0.1,7.1000000000000005,2.6,0.7,18.2,32.4
1698745588.698,16,0.4,-1.3,-2.3000000000000003,-0.1,7.1000000000000005,2.5,-2.6,20.900000000000002,30.7
1698745588.715,16,0.1,-1.4000000000000001,-2.3000000000000003,-0.5,6.9,2.4000000000000004,-8.9,26.1,24.3
1698745588.731,16,0.1,-1.6,-2.7,-0.6000000000000001,6.6000000000000005,2.1,-10.9,29.800000000000004,18.3
1698745588.748,16,0.30000000000000004,-1.8,-2.6,-0.4,6.5,2.2,-5.9,33.900000000000006,12.5
1698745588.765,16,0.8,-1.5,-2.5,0.1,6.7,2.2,-0.30000000000000004,34.6,11.1
1698745588.782,16,0.4,0.1,-2.3000000000000003,-0.30000000000000004,8.3,2.4000000000000004,11.5,31.099999999999998,14.100000000000001
1698745588.798,16,0.0,1.1,-1.7000000000000002,-0.7000000000000001,9.4,2.9000000000000004,20.3,19.6,16.3
1698745588.815,16,-0.1,0.8,-1.1,-0.7000000000000001,9.1,3.5,24.5,8.1,12.5
1698745588.831,16,-0.30000000000000004,0.0,-1.6,-1.0,8.3,2.9000000000000004,26.9,-4.6000000000000005,5.0
1698745588.849,16,-1.6,2.3000000000000003,-1.6,-2.2,10.700000000000001,2.8000000000000003,15.100000000000001,-1.9,8.3
1698745588.865,16,-1.5,3.3000000000000003,-1.7000000000000002,-2.1,11.700000000000001,2.7,11.3,6.7,14.600000000000001
1698745588.882,16,-1.1,4.4,3.1,-1.7000000000000002,12.8,7.5,27.5,-1.0999999999999999,16.900000000000002
1698745588.899,16,-2.0,5.0,4.800000000000001,-2.5,13.600000000000001,9.0,70.6,-29.900000000000006,41.6
1698745588.915,16,-2.0,2.9000000000000004,6.300000000000001,-2.4000000000000004,11.5,10.4,65.5,-33.300000000000004,38.5
1698745588.932,16,-1.2000000000000002,0.0,4.800000000000001,-1.5,8.8,8.9,24.400000000000002,-45.5,34.6
1698745588.948,16,1.7000000000000002,0.30000000000000004,4.1000000000000005,1.6,9.0,8.3,-33.2,-29.500000000000004,17.5
1698745588.965,16,1.8,1.2000000000000002,3.9000000000000004,1.8,9.9,8.1,-34.2,-26.200000000000003,12.6
1698745588.982,16,1.1,3.0,3.6,1.1,11.600000000000001,7.9,-16.2,-21.900000000000002,14.4
1698745588.998,16,-0.2,2.6,3.5,-0.2,11.3,7.9,-3.4,-19.9,7.500000000000001
1698745589.015,16,-0.4,1.6,3.2,-0.30000000000000004,10.3,7.6000000000000005,-7.500000000000001,-17.7,-1.3
1698745589.031,16,-0.5,0.2,1.9000000000000001,-0.5,8.8,6.4,-30.4,-3.4,-6.5
1698745589.048,16,-0.7000000000000001,-1.0,0.5,-0.5,8.200000000000001,5.800000000000001,-39.8,1.4,-7.500000000000001
1698745589.065,16,-0.6000000000000001,-1.3,-0.1,-0.6000000000000001,7.2,4.6000000000000005,-42.400000000000006,1.0999999999999999,-6.8
1698745589.081,16,-1.2000000000000002,-2.2,-0.9,-1.1,6.300000000000001,3.9000000000000004,-31.900000000000002,-6.4,-1.8
1698745589.098,16,-1.2000000000000002,-2.4000000000000004,-1.1,-1.2000000000000002,6.0,3.8000000000000003,-20.7,-13.8,-9.4
1698745589.115,16,-1.3,-2.4000000000000004,-1.1,-1.3,6.0,3.8000000000000003,-16.400000000000002,-15.7,-15.5
1698745589.131,16,-1.4000000000000001,-2.2,-1.3,-1.5,6.2,3.6,-13.0,-17.7,-24.200000000000003
1698745589.148,16,-1.5,-2.0,-1.7000000000000002,-1.6,6.300000000000001,3.2,-18.3,-20.900000000000002,-27.6
1698745589.165,16,-1.4000000000000001,-2.0,-1.9000000000000001,-1.6,6.2,3.1,-22.1,-22.5,-29.000000000000004
1698745589.182,16,-1.0,-2.1,-2.1,-1.2000000000000002,6.1000000000000005,2.9000000000000004,-24.6,-24.7,-32.2
1698745589.198,16,-0.4,-2.1,-2.5,-0.6000000000000001,6.0,2.6,-20.1,-30.7,-33.0
1698745589.215,16,-0.30000000000000004,-2.0,-2.4000000000000004,-0.5,6.1000000000000005,2.6,-16.8,-35.3,-30.200000000000003
1698745589.232,16,-0.4,-1.6,-2.5,-0.6000000000000001,6.4,2.6,-10.9,-44.5,-20.2
1698745589.248,16,-0.8,-0.7000000000000001,-2.0,-1.0,7.300000000000001,3.1,-11.2,-50.4,-15.2
1698745589.266,16,-0.6000000000000001,-0.1,-1.9000000000000001,-0.8,7.9,3.2,-14.200000000000001,-49.2,-14.600000000000001
1698745589.289,16,0.2,0.1,-2.1,0.1,8.1,3.0,-14.0,-43.0,-14.100000000000001
1698745589.298,16,0.5,0.1,-2.2,0.4,8.1,3.0,-11.3,-37.300000000000004,-14.600000000000001
1698745589.315,16,0.9,0.30000000000000004,-2.1,0.8,8.3,3.1,3.3000000000000003,-17.7,-17.0
1698745589.331,16,1.2000000000000002,0.30000000000000004,-2.0,1.0,8.3,3.1,13.8,-6.6000000000000005,-17.1
1698745589.348,16,1.4000000000000001,0.1,-2.7,1.2000000000000002,8.200000000000001,2.4000000000000004,32.7,9.4,-6.7
1698745589.365,16,0.1,1.8,-3.3000000000000003,0.0,10.0,1.6,35.3,-4.1000000000000005,-0.8
1698745589.382,16,-0.5,3.4000000000000004,-1.0,-0.7000000000000001,11.600000000000001,3.9000000000000004,36.4,-16.1,-5.1
1698745589.398,16,-0.9,4.0,3.0,-1.1,12.3,7.7,66.0,3.3000000000000003,-25.900000000000002
1698745589.415,16,0.9,2.9000000000000004,4.4,0.5,11.3,8.9,77.1,25.5,-40.1
1698745589.431,16,1.6,2.2,4.3,1.2000000000000002,10.700000000000001,8.700000000000001,63.900000000000006,21.6,-40.0
1698745589.448,16,2.2,-0.5,5.1000000000000005,1.6,8.1,9.5,21.6,33.800000000000004,-39.9
1698745589.465,16,1.7000000000000002,-0.4,4.7,1.0,8.1,9.1,-1.0999999999999999,40.7,-35.8
1698745589.482,16,1.3,0.5,3.8000000000000003,0.6000000000000001,9.0,8.3,-9.4,40.4,-26.0
1698745589.498,16,0.2,1.3,2.8000000000000003,-0.7000000000000001,9.8,7.300000000000001,-23.6,28.8,-14.800000000000002
1698745589.515,16,-1.8,2.3000000000000003,2.7,-2.8000000000000003,10.8,7.300000000000001,-15.5,24.3,-5.2
1698745589.532,16,-1.7000000000000002,2.3000000000000003,2.0,-2.7,10.700000000000001,6.6000000000000005,-9.5,22.5,-0.7
1698745589.548,16,-0.8,1.1,1.4000000000000001,-1.8,9.5,6.0,-5.300000000000001,14.200000000000001,-1.0999999999999999
1698745589.565,16,0.1,0.7000000000000001,0.6000000000000001,-1.6,9.4,5.6000000000000005,-5.300000000000001,12.5,-0.8
1698745589.582,16,0.6000000000000001,0.2,0.2,-0.4,8.700000000000001,4.800000000000001,-8.1,10.1,2.3000000000000003
1698745589.598,16,0.9,-0.7000000000000001,-0.2,-0.2,7.7,4.4,-8.4,14.200000000000001,7.9
1698745589.615,16,1.7000000000000002,-2.2,-0.7000000000000001,0.4,6.9,4.1000000000000005,-7.2,17.400000000000002,10.3
1698745589.632,16,1.8,-2.6,-0.8,0.8,5.800000000000001,3.8000000000000003,-4.0,19.1,17.9
1698745589.648,16,1.7000000000000002,-2.5,-1.1,0.8,5.9,3.6,0.1,22.5,32.1
1698745589.665,16,1.3,-1.9000000000000001,-1.4000000000000001,0.4,6.5,3.2,1.8,21.8,46.900000000000006
1698745589.681,16,0.8,-1.6,-1.6,0.0,6.800000000000001,3.0,1.9,22.000000000000004,51.800000000000004
1698745589.698,16,0.4,-1.4000000000000001,-2.0,-0.30000000000000004,7.0,2.6,0.9,24.400000000000002,55.0
1698745589.715,16,0.30000000000000004,-1.5,-2.0,-0.30000000000000004,6.9,2.6,-0.9,25.0,47.1
1698745589.731,16,0.0,-1.6,-2.0,-0.5,6.800000000000001,2.6,-1.0,26.500000000000004,41.300000000000004
1698745589.748,16,-0.30000000000000004,-1.5,-1.9000000000000001,-0.7000000000000001,6.9,2.6,-0.8,29.200000000000003,31.0
1698745589.764,16,-0.4,-1.1,-2.0,-0.9,7.300000000000001,2.5,-1.2000000000000002,30.9,27.400000000000002
1698745589.781,16,-0.4,-1.0,-2.1,-0.8,7.4,2.4000000000000004,-4.3999999999999995,35.199999999999996,20.900000000000002
1698745589.798,16,-0.30000000000000004,-0.7000000000000001,-2.2,-0.8,7.7,2.3000000000000003,-8.1,38.400000000000006,14.700000000000001
1698745589.815,16,-0.2,-0.1,-2.3000000000000003,-0.7000000000000001,8.200000000000001,2.2,-8.600000000000001,40.7,10.8
1698745589.832,16,-0.1,0.1,-2.3000000000000003,-0.6000000000000001,8.5,2.2,-7.2,38.400000000000006,8.700000000000001
1698745589.848,16,-0.1,0.4,-2.1,-0.6000000000000001,8.8,2.4000000000000004,-0.30000000000000004,25.700000000000003,6.3
1698745589.865,16,-0.7000000000000001,0.0,-1.4000000000000001,-1.3,8.4,3.1,15.5,5.6,7.300000000000001
1698745589.881,16,-0.9,-0.4,-1.4000000000000001,-1.5,8.0,2.9000000000000004,22.900000000000002,-3.5,5.500000000000001
1698745589.898,16,-1.3,0.5,-1.3,-1.9000000000000001,8.9,3.0,24.400000000000002,-5.1,-2.7
1698745589.915,16,-1.4000000000000001,3.3000000000000003,-1.2000000000000002,-1.9000000000000001,11.8,3.1,13.100000000000001,13.9,3.7000000000000006
1698745589.931,16,-1.3,4.6000000000000005,3.4000000000000004,-1.7000000000000002,12.200000000000001,5.1000000000000005,11.6,11.1,5.0
1698745589.948,16,-1.4000000000000001,5.300000000000001,3.7,-1.9000000000000001,13.9,7.9,38.6,-14.700000000000001,20.8
1698745589.965,16,-0.4,2.0,4.6000000000000005,-0.8,10.600000000000001,8.700000000000001,32.5,-21.3,26.6
1698745589.982,16,0.30000000000000004,1.0,5.300000000000001,-0.1,9.700000000000001,9.4,24.9,-28.200000000000003,23.1
1698745589.998,16,1.0,-0.8,3.8000000000000003,0.7000000000000001,7.9,7.9,-3.7000000000000006,-24.6,21.5
1698745590.015,16,1.4000000000000001,1.1,4.3,1.3,9.700000000000001,8.5,-21.700000000000003,-27.7,20.4
1698745590.032,16,0.1,2.6,3.6,0.8,10.4,8.1,-23.2,-22.7,20.7
1698745590.049,16,-0.30000000000000004,3.2,3.6,-0.30000000000000004,11.9,8.0,-26.0,-11.2,16.3
1698745590.065,16,-0.1,1.8,2.4000000000000004,0.0,10.4,6.9,-30.799999999999997,-6.3,0.4
1698745590.082,16,0.1,0.6000000000000001,1.9000000000000001,0.1,9.200000000000001,6.5,-35.1,-2.9,-4.0
1698745590.098,16,0.2,-0.6000000000000001,0.8,0.2,7.9,5.4,-36.6,6.5,-7.6
1698745590.115,16,0.2,-0.7000000000000001,-0.5,0.2,7.800000000000001,4.2,-32.6,4.800000000000001,-8.3
1698745590.131,16,-0.2,-1.0,-0.8,-0.2,7.5,4.0,-29.1,-0.30000000000000004,-6.3
1698745590.148,16,-1.0,-1.5,-1.2000000000000002,-1.0,6.9,3.7,-22.1,-2.9,-6.5
1698745590.165,16,-1.5,-1.9000000000000001,-1.3,-1.6,6.5,3.7,-16.900000000000002,-8.0,-13.700000000000001
1698745590.182,16,-1.9000000000000001,-2.2,-1.4000000000000001,-2.0,6.1000000000000005,3.5,-15.299999999999999,-10.2,-21.400000000000002
1698745590.198,16,-1.8,-2.2,-1.6,-2.0,6.1000000000000005,3.4000000000000004,-15.9,-10.0,-25.400000000000002
1698745590.215,16,-1.3,-2.1,-1.9000000000000001,-1.5,6.2,3.1,-17.200000000000003,-12.200000000000001,-33.1
1698745590.231,16,-0.5,-1.9000000000000001,-2.1,-0.9,6.300000000000001,2.9000000000000004,-16.700000000000003,-14.600000000000001,-35.1
1698745590.248,16,-0.30000000000000004,-1.8,-2.2,-0.7000000000000001,6.300000000000001,2.9000000000000004,-13.100000000000001,-19.9,-33.0
1698745590.265,16,0.0,-1.9000000000000001,-2.2,-0.4,6.300000000000001,2.9000000000000004,-9.5,-27.1,-25.700000000000003
1698745590.282,16,-0.5,-1.7000000000000002,-2.3000000000000003,-0.9,6.4,2.7,-10.5,-34.800000000000004,-17.7
1698745590.298,16,-0.8,-1.4000000000000001,-2.2,-1.2000000000000002,6.7,2.8000000000000003,-12.700000000000001,-39.6,-15.100000000000001
1698745590.315,16,-1.1,-0.8,-2.2,-1.4000000000000001,7.300000000000001,3.0,-15.9,-47.300000000000004,-12.700000000000001
1698745590.333,16,-0.6000000000000001,0.2,-1.9000000000000001,-0.9,8.200000000000001,3.3000000000000003,-13.6,-43.400000000000006,-13.5
1698745590.35,16,-0.2,0.7000000000000001,-2.0,-0.5,8.700000000000001,3.1,-9.5,-37.4,-15.000000000000002
1698745590.365,16,0.6000000000000001,1.2000000000000002,-1.7000000000000002,0.30000000000000004,9.200000000000001,3.4000000000000004,1.0,-22.8,-21.200000000000003
1698745590.381,16,1.3,0.7000000000000001,-1.6,1.0,8.700000000000001,3.5,18.2,-0.2,-23.2
1698745590.398,16,1.7000000000000002,0.30000000000000004,-1.7000000000000002,1.3,8.3,3.4000000000000004,32.300000000000004,14.0,-12.5
1698745590.414,16,1.5,1.3,-2.4000000000000004,1.1,9.4,2.5,33.300000000000004,11.700000000000001,-8.600000000000001
1698745590.431,16,0.9,4.2,-0.7000000000000001,0.4,12.4,4.2,35.7,9.5,-12.3
1698745590.449,16,0.6000000000000001,4.2,0.6000000000000001,0.1,12.4,5.4,40.0,12.8,-18.0
1698745590.465,16,-0.4,2.7,3.1,-1.0,11.0,7.800000000000001,50.9,25.0,-26.700000000000003
1698745590.481,16,-0.2,1.8,4.7,-0.9,10.200000000000001,9.200000000000001,46.900000000000006,17.8,-30.7
1698745590.499,16,0.7000000000000001,1.1,5.0,-0.1,9.600000000000001,9.5,40.1,21.8,-35.0
1698745590.515,16,1.7000000000000002,-0.30000000000000004,4.3,0.7000000000000001,8.200000000000001,8.700000000000001,21.1,32.800000000000004,-55.300000000000004
1698745590.531,16,0.30000000000000004,-1.0,2.2,-0.9,7.5,6.6000000000000005,-1.4,23.1,-38.300000000000004
1698745590.548,16,0.1,-0.1,2.0,-1.1,8.3,6.4,-14.900000000000002,15.7,-25.400000000000002
1698745590.565,16,-1.2000000000000002,1.9000000000000001,2.8000000000000003,-2.5,10.4,7.4,-22.7,9.9,-22.000000000000004
1698745590.581,16,-0.6000000000000001,2.1,1.9000000000000001,-1.9000000000000001,10.600000000000001,6.5,-12.4,6.4,-14.4
1698745590.598,16,-0.1,1.4000000000000001,1.5,-1.5,9.8,6.1000000000000005,-10.700000000000001,3.9,-8.799999999999999
1698745590.615,16,0.5,0.4,0.5,-0.9,8.8,5.2,-13.4,-3.3000000000000003,-4.0
1698745590.631,16,0.7000000000000001,-0.1,-0.1,-0.6000000000000001,8.200000000000001,4.6000000000000005,-18.5,-10.5,4.0
1698745590.648,16,0.8,-0.6000000000000001,-0.4,-0.4,6.800000000000001,4.2,-18.900000000000002,-10.3,6.000000000000001
1698745590.665,16,0.9,-2.1,-0.8,-0.4,6.2,4.0,-14.900000000000002,-15.7,6.4
1698745590.681,16,0.5,-2.6,-1.1,-0.7000000000000001,5.7,3.8000000000000003,-8.0,-14.3,12.700000000000001
1698745590.698,16,0.6000000000000001,-2.5,-1.2000000000000002,-0.6000000000000001,5.800000000000001,3.7,-3.9,-12.700000000000001,17.0
1698745590.715,16,0.9,-2.1,-1.5,-0.2,6.2,3.4000000000000004,2.1,-10.4,25.1
1698745590.731,16,1.0,-1.6,-1.7000000000000002,0.0,6.7,3.1,2.8,-7.8,30.100000000000005
1698745590.748,16,1.5,-1.2000000000000002,-2.0,0.6000000000000001,7.0,2.8000000000000003,-3.7000000000000006,-4.3999999999999995,28.1
1698745590.764,16,1.5,-1.2000000000000002,-2.0,0.7000000000000001,7.0,2.8000000000000003,-8.799999999999999,-3.9,25.5
1698745590.781,16,1.1,-1.3,-2.0,0.30000000000000004,7.0,2.9000000000000004,-16.6,0.1,22.2
1698745590.798,16,0.5,-1.1,-2.1,-0.2,7.0,2.8000000000000003,-21.3,5.7,19.6
1698745590.815,16,0.4,-1.1,-2.2,-0.30000000000000004,7.1000000000000005,2.7,-22.2,8.4,16.700000000000003
1698745590.832,16,0.4,-1.0,-2.4000000000000004,-0.2,7.1000000000000005,2.6,-20.900000000000002,11.9,11.1
1698745590.849,16,0.30000000000000004,-0.7000000000000001,-2.4000000000000004,-0.30000000000000004,7.4,2.6,-14.700000000000001,13.200000000000001,7.500000000000001
1698745590.865,16,0.2,-0.30000000000000004,-2.5,-0.5,7.7,2.5,-10.3,14.700000000000001,6.8
1698745590.883,16,0.30000000000000004,0.5,-2.3000000000000003,-0.4,8.5,2.7,-1.2000000000000002,16.3,4.800000000000001
1698745590.898,16,0.5,0.7000000000000001,-1.6,-0.2,8.8,3.3000000000000003,10.5,3.3000000000000003,3.3000000000000003
1698745590.914,16,0.2,0.4,-1.5,-0.5,8.5,3.4000000000000004,17.3,-7.500000000000001,3.8
1698745590.931,16,-0.7000000000000001,0.9,-1.6,-1.4000000000000001,9.1,3.2,24.5,-17.400000000000002,4.2
1698745590.948,16,-2.3000000000000003,3.2,-2.0,-2.9000000000000004,11.4,2.7,11.5,-5.500000000000001,8.700000000000001
1698745590.965,16,-1.8,3.8000000000000003,-0.6000000000000001,-2.4000000000000004,12.100000000000001,4.1000000000000005,4.6000000000000005,3.4,7.8
1698745590.982,16,-1.2000000000000002,4.800000000000001,4.0,-1.8,13.100000000000001,8.700000000000001,30.599999999999998,-19.6,12.4
1698745590.998,16,-0.9,2.6,4.9,-1.3,11.0,9.5,45.5,-31.7,29.700000000000003
1698745591.015,16,-1.0,1.6,5.7,-1.3,10.0,10.3,38.7,-40.6,33.6
1698745591.031,16,1.0,-0.5,3.4000000000000004,0.9,8.0,8.0,-3.7000000000000006,-39.8,35.5
1698745591.048,16,2.1,0.30000000000000004,3.6,2.0,8.700000000000001,8.3,-28.900000000000002,-37.800000000000004,20.0
1698745591.065,16,1.4000000000000001,1.2000000000000002,3.2,1.4000000000000001,9.600000000000001,8.0,-25.5,-26.500000000000004,19.500000000000004
1698745591.081,16,0.7000000000000001,3.4000000000000004,3.7,0.8,11.8,8.6,-9.9,-18.2,19.6
1698745591.098,16,0.0,1.8,3.2,0.2,10.200000000000001,8.1,-8.700000000000001,-16.8,9.600000000000001
1698745591.115,16,0.0,0.8,2.6,0.2,9.200000000000001,7.5,-18.2,-11.1,5.6
1698745591.131,16,0.30000000000000004,-0.4,1.4000000000000001,0.5,8.0,6.5,-38.1,2.6,2.5
1698745591.151,16,0.4,-0.6000000000000001,-0.1,0.5,7.7,5.1000000000000005,-39.50000000000001,7.0,-1.0999999999999999
1698745591.165,16,-0.1,-1.0,-0.6000000000000001,0.1,7.2,4.5,-34.50000000000001,6.4,0.5
1698745591.181,16,-0.8,-1.8,-1.2000000000000002,-0.7000000000000001,6.4,4.0,-21.900000000000002,4.9,-0.5
1698745591.198,16,-1.1,-2.3000000000000003,-1.2000000000000002,-1.0,5.9,4.1000000000000005,-10.0,2.3000000000000003,-9.8
1698745591.215,16,-1.3,-2.4000000000000004,-1.3,-1.2000000000000002,5.7,4.0,-6.8,3.3000000000000003,-14.100000000000001
1698745591.231,16,-1.5,-2.3000000000000003,-1.5,-1.5,5.800000000000001,3.8000000000000003,-8.9,5.0,-19.1
1698745591.248,16,-1.4000000000000001,-2.3000000000000003,-1.9000000000000001,-1.4000000000000001,5.7,3.4000000000000004,-15.299999999999999,0.6000000000000001,-22.3
1698745591.265,16,-1.4000000000000001,-2.3000000000000003,-2.0,-1.4000000000000001,5.7,3.4000000000000004,-17.8,-1.8,-22.6
1698745591.282,16,-0.9,-2.0,-2.1,-1.0,6.0,3.2,-16.3,-3.9,-21.200000000000003
1698745591.298,16,-0.5,-1.5,-2.5,-0.7000000000000001,6.4,2.9000000000000004,-12.3,-12.9,-17.9
1698745591.315,16,-0.6000000000000001,-1.4000000000000001,-2.4000000000000004,-0.8,6.5,3.0,-10.9,-17.400000000000002,-14.200000000000001
1698745591.333,16,-1.3,-1.0,-2.3000000000000003,-1.4000000000000001,6.9,3.1,-10.0,-27.3,-9.4
1698745591.349,16,-1.8,-0.5,-1.9000000000000001,-1.9000000000000001,7.4,3.5,-11.700000000000001,-37.0,-8.0
1698745591.365,16,-1.8,-0.30000000000000004,-1.8,-1.9000000000000001,7.6000000000000005,3.6,-12.200000000000001,-37.800000000000004,-7.400000000000001
1698745591.381,16,-0.7000000000000001,0.30000000000000004,-2.0,-0.8,8.200000000000001,3.4000000000000004,-10.3,-31.2,-10.4
1698745591.398,16,0.9,0.30000000000000004,-2.2,0.8,8.1,3.2,-2.6,-20.8,-17.400000000000002
1698745591.415,16,1.2000000000000002,0.6000000000000001,-2.2,1.1,8.4,3.2,14.4,0.5,-16.6
1698745591.431,16,1.6,0.4,-2.4000000000000004,1.5,8.3,3.0,24.3,12.8,-12.4
1698745591.448,16,0.9,0.7000000000000001,-3.2,0.7000000000000001,8.6,2.0,38.7,22.4,0.9
1698745591.464,16,0.4,2.2,-2.3000000000000003,0.30000000000000004,10.200000000000001,2.8000000000000003,41.4,15.8,1.0999999999999999
1698745591.481,16,0.2,4.4,0.8,-0.1,12.5,5.800000000000001,56.300000000000004,10.5,-15.000000000000002
1698745591.498,16,-0.1,3.2,4.1000000000000005,-0.4,11.4,9.0,75.3,29.600000000000005,-29.700000000000003
1698745591.515,16,-0.2,2.5,3.8000000000000003,-0.7000000000000001,9.9,8.5,56.300000000000004,28.900000000000002,-34.400000000000006
1698745591.531,16,0.0,0.2,4.4,-0.6000000000000001,8.6,9.0,37.5,29.500000000000004,-37.0
1698745591.55,16,1.8,-0.5,4.4,1.1,7.9,9.1,16.2,44.6,-44.00000000000001
1698745591.565,16,1.6,0.0,4.5,0.7000000000000001,8.4,9.1,12.9,45.9,-42.6
1698745591.582,16,0.9,0.9,2.5,-0.1,9.3,7.1000000000000005,2.5,35.4,-25.700000000000003
1698745591.598,16,-0.8,2.3000000000000003,3.6,-1.9000000000000001,10.8,8.200000000000001,-6.6000000000000005,26.0,-13.6
1698745591.615,16,-0.8,2.5,2.9000000000000004,-1.8,10.600000000000001,6.9,-7.500000000000001,25.400000000000002,-8.5
1698745591.631,16,-0.5,1.5,2.0,-1.6,9.9,6.7,-16.6,18.8,-0.9
1698745591.649,16,-0.30000000000000004,0.4,0.8,-1.5,8.8,5.5,-20.4,12.5,2.3000000000000003
1698745591.665,16,0.2,-0.30000000000000004,-0.1,-1.0,8.1,4.7,-18.0,6.1000000000000005,7.400000000000001
1698745591.681,16,0.4,-0.7000000000000001,-0.4,-0.8,7.6000000000000005,4.5,-14.800000000000002,4.3999999999999995,8.4
1698745591.698,16,0.7000000000000001,-1.6,-0.8,-0.4,6.7,4.0,-8.600000000000001,4.800000000000001,9.200000000000001
1698745591.715,16,0.9,-2.3000000000000003,-1.0,-0.2,5.7,3.8000000000000003,-6.4,3.1,9.3
1698745591.731,16,1.0,-2.7,-1.1,-0.1,5.6000000000000005,3.8000000000000003,-4.0,3.9,13.0
1698745591.748,16,1.2000000000000002,-2.5,-1.1,0.2,5.800000000000001,3.7,-2.9,3.8,20.7
1698745591.765,16,1.1,-1.8,-1.4000000000000001,0.1,6.4,3.4000000000000004,-2.9,3.9,25.0
1698745591.781,16,1.1,-1.5,-1.6,0.2,6.800000000000001,3.3000000000000003,-4.5,6.9,30.200000000000003
1698745591.798,16,1.1,-1.2000000000000002,-1.8,0.30000000000000004,7.1000000000000005,3.1,-7.500000000000001,8.600000000000001,27.2
1698745591.815,16,1.0,-1.1,-1.8,0.2,7.1000000000000005,3.0,-10.700000000000001,9.700000000000001,21.700000000000003
1698745591.831,16,0.8,-1.2000000000000002,-1.9000000000000001,0.0,7.0,3.0,-12.200000000000001,11.6,19.200000000000003
1698745591.849,16,0.4,-1.1,-2.0,-0.30000000000000004,7.1000000000000005,2.9000000000000004,-15.2,15.100000000000001,14.700000000000001
1698745591.865,16,0.5,-1.4000000000000001,-2.1,-0.2,6.7,2.8000000000000003,-16.400000000000002,20.5,9.5
1698745591.881,16,0.7000000000000001,-1.5,-2.1,-0.1,6.6000000000000005,2.8000000000000003,-14.200000000000001,22.3,7.2
1698745591.898,16,0.5,-1.0,-2.3000000000000003,-0.30000000000000004,7.1000000000000005,2.6,-4.800000000000001,28.0,6.5
1698745591.915,16,0.4,0.4,-2.3000000000000003,-0.4,8.5,2.5,7.6,23.2,8.600000000000001
1698745591.931,16,0.30000000000000004,0.8,-2.2,-0.5,8.9,2.7,13.5,18.3,8.5
1698745591.948,16,0.30000000000000004,0.9,-1.3,-0.5,9.1,3.5,26.500000000000004,-1.4,7.2
1698745591.964,16,-0.7000000000000001,0.6000000000000001,-1.8,-1.4000000000000001,8.9,2.9000000000000004,28.6,-17.1,8.700000000000001
1698745591.981,16,-1.5,2.3000000000000003,-1.9000000000000001,-1.8,9.5,2.6,21.3,-16.0,9.8
1698745591.998,16,-1.2000000000000002,3.2,-1.5,-1.8,11.5,3.1,8.1,-5.6,8.9
1698745592.015,16,-0.9,4.1000000000000005,2.3000000000000003,-1.5,12.4,6.9,24.3,-10.8,15.399999999999999
1698745592.031,16,-1.1,4.4,3.2,-1.7000000000000002,12.9,7.7,45.4,-19.3,26.700000000000003
1698745592.048,16,-0.8,1.4000000000000001,4.7,-1.2000000000000002,9.9,9.1,56.900000000000006,-26.3,28.500000000000004
1698745592.065,16,-1.1,0.4,5.0,-1.4000000000000001,9.0,9.3,47.800000000000004,-38.1,37.6
1698745592.082,16,-0.1,-0.1,3.8000000000000003,-0.30000000000000004,8.5,8.1,1.3,-27.2,36.1
1698745592.098,16,1.0,0.4,3.9000000000000004,0.9,9.0,8.200000000000001,-15.2,-26.1,31.3
1698745592.115,16,1.4000000000000001,2.0,3.3000000000000003,1.4000000000000001,10.600000000000001,7.7,-22.000000000000004,-13.6,24.200000000000003
1698745592.131,16,1.5,3.2,3.3000000000000003,1.6,11.8,7.800000000000001,-20.2,-8.3,21.6
1698745592.148,16,0.8,2.2,2.7,1.0,10.8,7.2,-11.8,-9.5,12.9
1698745592.165,16,-0.4,0.4,1.9000000000000001,-0.2,9.0,6.5,-14.900000000000002,-3.3000000000000003,4.7
1698745592.182,16,-0.9,0.0,1.4000000000000001,-0.7000000000000001,8.6,6.0,-19.500000000000004,1.6,1.7
1698745592.198,16,-1.2000000000000002,-0.8,0.2,-1.1,7.800000000000001,4.800000000000001,-28.6,4.0,-1.9
1698745592.215,16,-1.6,-1.7000000000000002,-0.6000000000000001,-1.5,6.7,4.2,-30.000000000000004,-3.3000000000000003,-0.9
1698745592.231,16,-1.8,-2.1,-1.1,-1.6,6.300000000000001,3.8000000000000003,-25.400000000000002,-3.1,-6.1000000000000005
1698745592.248,16,-1.7000000000000002,-2.2,-1.2000000000000002,-1.6,6.2,3.7,-22.2,-4.1000000000000005,-11.3
1698745592.265,16,-1.4000000000000001,-2.0,-1.5,-1.3,6.4,3.4000000000000004,-17.400000000000002,-6.2,-19.1
1698745592.281,16,-0.9,-1.8,-1.7000000000000002,-1.1,6.5,3.4000000000000004,-15.2,-9.3,-21.700000000000003
1698745592.298,16,-0.8,-1.8,-1.8,-0.8,6.4,3.2,-11.6,-18.1,-25.0
1698745592.315,16,-0.7000000000000001,-1.6,-1.8,-0.8,6.6000000000000005,3.1,-10.600000000000001,-22.3,-25.2
1698745592.331,16,-0.5,-1.4000000000000001,-1.8,-0.6000000000000001,6.800000000000001,3.2,-11.1,-24.1,-25.400000000000002
1698745592.349,16,-0.4,-1.2000000000000002,-1.9000000000000001,-0.5,7.0,3.1,-14.800000000000002,-29.700000000000003,-23.0
1698745592.365,16,-0.8,-1.2000000000000002,-2.0,-0.9,6.9,3.1,-21.900000000000002,-36.5,-18.8
1698745592.381,16,-1.1,-1.0,-1.9000000000000001,-1.2000000000000002,7.1000000000000005,3.2,-28.3,-40.9,-17.400000000000002
1698745592.398,16,-0.9,-0.9,-2.0,-1.0,7.2,3.1,-28.8,-41.7,-16.8
1698745592.415,16,-0.1,-0.4,-2.0,-0.1,7.6000000000000005,3.2,-23.2,-38.400000000000006,-16.3
1698745592.431,16,1.0,0.30000000000000004,-2.0,1.0,8.3,3.2,-7.9,-26.6,-17.0
1698745592.449,16,1.1,0.8,-2.0,1.0,8.8,3.2,1.2000000000000002,-19.200000000000003,-16.0
1698745592.465,16,1.0,1.3,-1.5,0.9,9.3,3.6,17.599999999999998,4.1000000000000005,-10.700000000000001
1698745592.481,16,1.6,0.6000000000000001,-1.9000000000000001,1.5,8.700000000000001,3.2,28.6,22.2,-1.0999999999999999
1698745592.498,16,1.4000000000000001,1.0,-2.6,1.2000000000000002,9.200000000000001,2.4000000000000004,28.3,23.2,3.4
1698745592.515,16,0.2,3.3000000000000003,-1.8,0.0,11.4,3.1,18.7,9.4,2.6
1698745592.531,16,-0.4,4.4,-0.1,-0.9,12.5,5.7,21.900000000000002,6.8,-2.7
1698745592.548,16,-1.2000000000000002,2.7,1.7000000000000002,-1.4000000000000001,11.0,6.5,42.0,17.7,-16.6
1698745592.565,16,-1.0,1.0,2.7,-1.4000000000000001,9.4,7.4,48.6,13.700000000000001,-19.500000000000004
1698745592.581,16,0.1,-0.30000000000000004,3.2,-0.30000000000000004,8.200000000000001,7.800000000000001,40.6,11.6,-24.6
1698745592.598,16,1.5,-0.7000000000000001,3.6,1.1,7.800000000000001,8.1,37.4,17.200000000000003,-29.200000000000003
1698745592.615,16,2.3000000000000003,-1.0,3.6,1.7000000000000002,7.5,8.1,29.300000000000004,30.100000000000005,-48.300000000000004
1698745592.631,16,0.9,-0.4,2.5,0.1,8.200000000000001,6.9,15.7,31.6,-40.1
1698745592.648,16,0.7000000000000001,0.1,1.9000000000000001,-0.1,8.6,6.4,-0.5,26.500000000000004,-25.400000000000002
1698745592.665,16,-2.2,2.8000000000000003,3.2,-3.1,11.3,7.7,-23.1,17.0,-6.4
1698745592.681,16,-1.5,2.6,1.5,-2.4000000000000004,11.100000000000001,6.1000000000000005,-25.6,15.8,5.4
1698745592.698,16,-0.7000000000000001,1.7000000000000002,1.3,-1.6,10.100000000000001,5.9,-24.400000000000002,11.6,6.7
1698745592.715,16,-0.1,0.4,0.2,-1.0,8.8,4.9,-18.6,4.7,7.6
1698745592.732,16,0.4,-0.5,-0.4,-0.5,7.9,4.3,-13.100000000000001,0.4,10.5
1698745592.748,16,0.6000000000000001,-1.0,-0.8,-0.2,7.4,3.9000000000000004,-10.0,1.7,10.8
1698745592.765,16,1.0,-1.8,-1.2000000000000002,0.1,6.6000000000000005,3.5,-6.1000000000000005,0.0,12.700000000000001
1698745592.781,16,0.8,-2.1,-1.3,0.0,6.300000000000001,3.4000000000000004,-2.6,1.4,18.2
1698745592.798,16,0.7000000000000001,-2.2,-1.3,0.0,6.2,3.5,-1.0,2.0,21.6
1698745592.815,16,0.7000000000000001,-2.2,-1.3,0.1,6.1000000000000005,3.5,1.0999999999999999,4.0,27.5
1698745592.831,16,1.0,-2.1,-1.4000000000000001,0.4,6.300000000000001,3.3000000000000003,0.0,7.400000000000001,27.6
1698745592.848,16,1.0,-2.0,-1.5,0.4,6.4,3.2,-1.7,8.9,26.3
1698745592.865,16,0.9,-1.5,-1.7000000000000002,0.4,6.800000000000001,3.0,-6.9,12.9,24.6
1698745592.881,16,0.5,-1.0,-1.8,0.0,7.300000000000001,2.9000000000000004,-13.0,17.400000000000002,24.200000000000003
1698745592.898,16,0.2,-0.8,-2.0,-0.2,7.5,2.7,-15.8,18.0,23.6
1698745592.915,16,0.0,-1.0,-2.2,-0.4,7.300000000000001,2.5,-20.5,20.6,19.1
1698745592.932,16,0.1,-1.1,-2.3000000000000003,-0.4,7.1000000000000005,2.5,-20.4,21.0,14.200000000000001
1698745592.948,16,-0.1,-0.2,-2.1,-0.6000000000000001,8.0,2.7,-6.7,20.7,7.6
1698745592.965,16,-0.2,0.4,-2.0,-0.7000000000000001,8.6,2.8000000000000003,0.7,16.6,8.4
1698745592.981,16,-0.30000000000000004,1.1,-1.4000000000000001,-0.7000000000000001,9.3,3.4000000000000004,13.0,7.2,8.700000000000001
1698745592.999,16,-0.2,1.1,-1.0,-0.7000000000000001,9.3,3.8000000000000003,17.9,-1.0,6.9
1698745593.014,16,-0.7000000000000001,0.7000000000000001,-0.9,-1.1,9.0,3.7,18.5,-16.3,4.7
1698745593.031,16,-0.8,2.0,-2.1,-1.2000000000000002,10.3,2.6,3.9,-13.8,4.1000000000000005
1698745593.048,16,-0.5,2.9000000000000004,-1.4000000000000001,-0.8,11.200000000000001,3.3000000000000003,-12.100000000000001,-1.9,0.8
1698745593.065,16,-0.5,3.4000000000000004,0.2,-0.8,11.700000000000001,4.800000000000001,-3.7000000000000006,0.5,2.5
1698745593.081,16,-0.4,3.3000000000000003,2.2,-0.7000000000000001,11.700000000000001,6.800000000000001,36.3,-12.700000000000001,23.6
1698745593.098,16,-0.6000000000000001,2.3000000000000003,4.2,-1.6,10.8,10.700000000000001,51.400000000000006,-16.3,25.5
1698745593.115,16,-1.4000000000000001,2.0,6.300000000000001,-1.5,10.600000000000001,10.700000000000001,67.7,-35.1,37.4
1698745593.131,16,0.0,-1.4000000000000001,2.8000000000000003,0.1,7.2,7.1000000000000005,4.6000000000000005,-28.1,38.2
1698745593.148,16,2.0,-0.7000000000000001,3.4000000000000004,2.2,7.800000000000001,7.9,-51.1,-5.0,17.1
1698745593.165,16,2.6,0.9,2.9000000000000004,2.7,9.4,7.5,-48.400000000000006,7.9,16.700000000000003
1698745593.181,16,1.8,3.8000000000000003,3.2,2.1,12.3,7.9,-20.0,8.200000000000001,20.8
1698745593.198,16,-0.1,1.2000000000000002,2.3000000000000003,0.2,9.700000000000001,7.0,-3.3000000000000003,11.700000000000001,21.700000000000003
1698745593.215,16,-0.30000000000000004,0.1,2.1,0.0,8.6,6.9,-9.700000000000001,18.5,14.800000000000002
1698745593.232,16,-0.4,-0.5,1.0,-0.1,7.9,5.800000000000001,-31.099999999999998,26.0,4.300000000000001
1698745593.249,16,-0.6000000000000001,-1.1,-0.30000000000000004,-0.30000000000000004,7.300000000000001,4.7,-41.800000000000004,26.500000000000004,6.3
1698745593.264,16,-0.8,-1.6,-0.8,-0.5,6.7,4.2,-39.6,21.700000000000003,9.200000000000001
1698745593.281,16,-1.3,-2.3000000000000003,-1.1,-1.1,6.0,4.0,-27.5,17.5,13.3
1698745593.298,16,-1.8,-2.0,-1.3,-1.6,6.2,3.9000000000000004,-14.200000000000001,18.2,4.7
1698745593.315,16,-1.8,-1.8,-1.3,-1.6,6.300000000000001,3.9000000000000004,-9.9,15.5,-1.3
1698745593.331,16,-1.7000000000000002,-1.8,-1.5,-1.6,6.300000000000001,3.7,-9.0,10.5,-12.6
1698745593.348,16,-1.5,-1.6,-1.7000000000000002,-1.4000000000000001,6.5,3.4000000000000004,-17.400000000000002,6.1000000000000005,-18.400000000000002
1698745593.365,16,-1.3,-1.5,-1.8,-1.3,6.6000000000000005,3.4000000000000004,-21.1,4.0,-19.3
1698745593.381,16,-1.0,-1.5,-2.0,-1.1,6.5,3.3000000000000003,-24.200000000000003,-1.0,-18.8
1698745593.398,16,-1.0,-1.3,-2.0,-1.1,6.7,3.3000000000000003,-21.900000000000002,-11.3,-14.200000000000001
1698745593.415,16,-1.2000000000000002,-1.1,-2.1,-1.3,6.800000000000001,3.2,-20.6,-17.599999999999998,-9.600000000000001
1698745593.431,16,-1.9000000000000001,-0.8,-2.3000000000000003,-2.0,7.1000000000000005,3.1,-21.0,-27.3,-2.1999999999999997
1698745593.448,16,-1.7000000000000002,-0.4,-2.3000000000000003,-1.7000000000000002,7.4,3.1,-20.2,-34.2,-4.3999999999999995
1698745593.465,16,-1.0,-0.1,-2.3000000000000003,-0.1,7.9,2.9000000000000004,-12.200000000000001,-29.900000000000006,-14.200000000000001
1698745593.481,16,0.6000000000000001,0.30000000000000004,-2.4000000000000004,0.6000000000000001,8.1,3.0,-5.500000000000001,-25.400000000000002,-18.8
1698745593.498,16,1.6,0.7000000000000001,-1.7000000000000002,1.6,8.5,3.7,17.3,-2.8,-24.7
1698745593.515,16,1.6,0.5,-1.6,1.5,8.4,3.7,31.5,10.700000000000001,-25.1
1698745593.531,16,1.2000000000000002,1.1,-2.9000000000000004,1.1,9.0,2.3000000000000003,47.7,16.400000000000002,-9.8
1698745593.548,16,0.9,4.1000000000000005,-0.7000000000000001,0.8,12.200000000000001,4.4,40.0,1.6,-12.100000000000001
1698745593.565,16,0.8,5.2,0.7000000000000001,0.6000000000000001,13.3,5.7,42.6,1.6,-20.900000000000002
1698745593.581,16,-0.7000000000000001,3.3000000000000003,2.5,-1.0,11.600000000000001,7.4,45.3,16.900000000000002,-30.7
1698745593.598,16,-1.6,1.8,3.8000000000000003,-2.0,10.100000000000001,8.6,33.900000000000006,5.7,-30.7
1698745593.615,16,-1.1,0.7000000000000001,3.8000000000000003,-1.6,9.1,8.6,26.3,6.4,-37.0
1698745593.631,16,2.5,0.2,3.9000000000000004,1.9000000000000001,8.6,8.700000000000001,17.400000000000002,10.600000000000001,-50.0
1698745593.65,16,1.8,-0.5,3.8000000000000003,1.0,7.9,8.5,14.4,12.4,-56.6
1698745593.665,16,1.2000000000000002,-0.4,2.8000000000000003,0.30000000000000004,7.9,7.5,11.6,9.9,-47.5
1698745593.681,16,0.2,0.9,2.9000000000000004,-0.8,9.3,7.6000000000000005,-11.4,1.3,-30.299999999999997
1698745593.698,16,-1.3,2.5,2.8000000000000003,-2.4000000000000004,10.8,7.7,-18.0,-1.4,-21.5
1698745593.714,16,-0.4,1.7000000000000002,1.5,-1.4000000000000001,10.100000000000001,6.5,-23.3,-3.6,-9.5
1698745593.732,16,0.1,0.9,0.9,-1.0,9.200000000000001,5.9,-25.2,-6.1000000000000005,-8.1
1698745593.748,16,0.30000000000000004,-0.30000000000000004,-0.5,-0.8,8.0,4.6000000000000005,-27.1,-12.700000000000001,-4.1000000000000005
1698745593.765,16,0.4,-0.8,-0.7000000000000001,-0.7000000000000001,7.4,4.4,-26.1,-12.700000000000001,-2.4000000000000004
1698745593.781,16,1.1,-2.5,-1.2000000000000002,0.0,5.7,3.9000000000000004,-17.200000000000003,-11.8,-3.5
1698745593.798,16,1.3,-3.0,-1.5,0.30000000000000004,5.1000000000000005,3.6,-5.8,-10.700000000000001,-2.1
1698745593.815,16,1.1,-2.8000000000000003,-1.7000000000000002,0.1,5.300000000000001,3.5,5.500000000000001,-12.5,5.1
1698745593.831,16,0.9,-2.7,-1.7000000000000002,0.0,5.4,3.4000000000000004,9.700000000000001,-16.0,11.1
1698745593.848,16,0.8,-2.2,-1.5,-0.1,5.9,3.6,13.200000000000001,-16.8,19.500000000000004
1698745593.865,16,0.5,-1.1,-1.8,-0.30000000000000004,7.0,3.3000000000000003,8.799999999999999,-9.700000000000001,16.700000000000003
1698745593.881,16,1.0,-0.7000000000000001,-2.0,0.2,7.5,3.0,4.300000000000001,-4.9,13.700000000000001
1698745593.9,16,1.1,-0.4,-2.0,0.30000000000000004,7.7,3.0,-5.0,-3.3000000000000003,5.8
1698745593.915,16,0.9,-0.5,-1.9000000000000001,0.2,7.6000000000000005,3.1,-10.4,0.2,4.3999999999999995
1698745593.931,16,0.8,-0.7000000000000001,-1.9000000000000001,0.1,7.4,3.1,-11.3,3.1,3.5
1698745593.948,16,0.8,-1.0,-2.2,0.1,7.0,2.9000000000000004,-11.700000000000001,11.1,1.8
1698745593.965,16,0.7000000000000001,-1.2000000000000002,-2.2,-0.1,6.800000000000001,2.8000000000000003,-7.2,17.0,2.4000000000000004
1698745593.982,16,0.5,-1.0,-2.3000000000000003,-0.2,7.0,2.8000000000000003,-2.9,19.6,4.2
1698745593.998,16,0.4,0.0,-2.1,-0.4,8.0,2.9000000000000004,10.1,17.200000000000003,6.4
1698745594.015,16,0.9,0.8,-1.4000000000000001,0.2,8.9,3.5,23.6,7.699999999999999,3.3000000000000003
1698745594.031,16,0.7000000000000001,0.7000000000000001,-1.4000000000000001,0.0,8.8,3.5,30.4,-0.8,2.0
1698745594.048,16,-0.2,0.6000000000000001,-2.0,-0.9,8.8,2.8000000000000003,28.3,-4.1000000000000005,0.9
1698745594.065,16,-0.7000000000000001,2.4000000000000004,-2.4000000000000004,-1.4000000000000001,10.600000000000001,2.3000000000000003,8.799999999999999,10.600000000000001,-0.4
1698745594.081,16,-0.8,3.3000000000000003,-1.2000000000000002,-1.6,11.5,3.5,7.1000000000000005,13.0,1.0999999999999999
1698745594.098,16,-1.0,4.3,2.8000000000000003,-1.8,12.600000000000001,7.5,32.5,4.6000000000000005,12.5
1698745594.114,16,-1.3,3.4000000000000004,4.7,-1.9000000000000001,11.9,9.200000000000001,73.8,-19.1,34.2
1698745594.132,16,-1.3,1.8,6.0,-1.9000000000000001,10.3,10.4,69.10000000000001,-19.400000000000002,35.0
1698745594.148,16,-1.3,0.4,4.5,-1.7000000000000002,9.0,8.9,24.5,-30.799999999999997,40.1
1698745594.165,16,-0.30000000000000004,-0.30000000000000004,3.0,0.2,8.3,7.2,-14.500000000000002,-22.5,40.2
1698745594.181,16,1.3,0.6000000000000001,3.5,1.1,9.1,8.0,-48.300000000000004,-19.9,28.900000000000002
1698745594.198,16,1.5,2.1,3.1,1.3,10.5,7.800000000000001,-21.5,-14.0,21.3
1698745594.214,16,1.0,2.8000000000000003,2.9000000000000004,1.0,11.3,7.6000000000000005,2.5,-15.5,16.900000000000002
1698745594.231,16,0.4,1.6,2.5,0.4,10.100000000000001,7.2,1.9,-13.3,14.500000000000002
1698745594.25,16,-0.1,-0.1,1.9000000000000001,0.0,8.4,6.7,-21.200000000000003,-3.9,8.3
1698745594.265,16,-0.2,-0.8,0.6000000000000001,-0.2,7.6000000000000005,5.4,-39.400000000000006,4.300000000000001,8.700000000000001
1698745594.281,16,-0.30000000000000004,-0.8,-0.2,-0.2,7.6000000000000005,4.800000000000001,-36.7,0.30000000000000004,11.2
1698745594.298,16,-1.2000000000000002,-1.6,-1.0,-1.1,6.7,4.0,-30.200000000000003,-1.6,12.6
1698745594.315,16,-1.8,-1.7000000000000002,-1.1,-1.6,6.5,3.9000000000000004,-14.4,-6.000000000000001,2.7
1698745594.332,16,-1.8,-1.7000000000000002,-1.1,-1.7000000000000002,6.5,4.0,-4.0,-8.799999999999999,-12.3
1698745594.348,16,-1.6,-1.7000000000000002,-1.2000000000000002,-1.6,6.5,3.9000000000000004,-3.9,-9.4,-17.599999999999998
1698745594.365,16,-1.0,-1.5,-1.6,-1.0,6.6000000000000005,3.5,-10.9,-12.3,-22.5
1698745594.381,16,-0.9,-1.5,-1.5,-0.9,6.6000000000000005,3.6,-15.299999999999999,-15.399999999999999,-22.3
1698745594.398,16,-0.8,-1.5,-1.7000000000000002,-0.9,6.6000000000000005,3.4000000000000004,-19.400000000000002,-19.400000000000002,-20.4
1698745594.415,16,-0.5,-1.4000000000000001,-2.1,-0.5,6.7,3.1,-19.9,-26.200000000000003,-18.400000000000002
1698745594.431,16,-0.4,-1.4000000000000001,-2.2,-0.6000000000000001,6.5,2.9000000000000004,-19.700000000000003,-30.7,-17.200000000000003
1698745594.449,16,-0.9,-1.6,-2.5,-0.9,6.4,2.8000000000000003,-19.700000000000003,-40.3,-13.6
1698745594.465,16,-1.4000000000000001,-1.3,-2.6,-1.4000000000000001,6.7,2.7,-18.6,-48.400000000000006,-12.4
1698745594.482,16,-1.1,-0.8,-2.5,-1.1,7.1000000000000005,2.8000000000000003,-14.3,-47.0,-14.100000000000001
1698745594.498,16,-0.5,-0.5,-2.6,-0.5,7.4,2.7,-10.2,-42.7,-16.0
1698745594.515,16,0.2,0.1,-2.0,0.30000000000000004,8.0,3.3000000000000003,1.8,-30.7,-17.3
1698745594.531,16,0.30000000000000004,0.4,-1.4000000000000001,0.4,8.3,3.9000000000000004,10.1,-20.1,-16.400000000000002
1698745594.548,16,1.4000000000000001,0.30000000000000004,-1.5,1.4000000000000001,8.200000000000001,3.7,26.200000000000003,4.2,-9.1
1698745594.565,16,2.0,0.9,-2.7,2.0,8.9,2.4000000000000004,22.4,7.300000000000001,-0.8
1698745594.581,16,1.2000000000000002,4.2,-0.2,1.3,12.3,4.800000000000001,19.9,2.5,-9.9
1698745594.598,16,0.4,5.1000000000000005,0.5,0.5,13.200000000000001,5.5,29.1,11.4,-15.9
1698745594.615,16,-1.0,2.7,1.8,-1.1,10.9,6.7,44.1,18.3,-22.8
1698745594.631,16,-1.0,2.1,2.8000000000000003,-1.1,10.4,7.7,46.6,10.9,-23.700000000000003
1698745594.648,16,-0.5,1.7000000000000002,4.9,-0.7000000000000001,10.100000000000001,9.600000000000001,47.5,7.9,-24.5
1698745594.665,16,1.5,0.6000000000000001,4.6000000000000005,1.2000000000000002,9.0,9.3,29.500000000000004,25.700000000000003,-33.6
1698745594.681,16,0.9,-0.9,3.4000000000000004,0.4,7.5,8.1,-0.5,29.500000000000004,-46.1
1698745594.698,16,0.8,-0.8,3.1,0.30000000000000004,7.6000000000000005,7.800000000000001,-11.700000000000001,18.7,-38.400000000000006
1698745594.715,16,-0.30000000000000004,1.6,3.5,-1.0,9.9,8.3,-24.3,8.9,-27.7
1698745594.731,16,-0.8,2.7,3.3000000000000003,-1.3,10.9,8.5,-23.3,7.1000000000000005,-27.0
1698745594.749,16,-0.6000000000000001,1.8,2.5,-1.4000000000000001,10.200000000000001,7.5,-24.9,10.8,-13.8
1698745594.765,16,-0.1,0.2,1.3,-0.9,8.5,6.4,-39.50000000000001,8.700000000000001,-5.500000000000001
1698745594.781,16,0.6000000000000001,-0.4,-0.4,-0.30000000000000004,7.800000000000001,4.800000000000001,-45.0,7.400000000000001,2.9
1698745594.798,16,0.8,-0.8,-1.0,-0.1,7.300000000000001,4.2,-41.6,7.2,5.6
1698745594.815,16,1.1,-1.6,-1.4000000000000001,0.30000000000000004,6.5,3.9000000000000004,-26.0,6.4,9.0
1698745594.831,16,1.1,-1.9000000000000001,-1.6,0.30000000000000004,6.2,3.8000000000000003,-9.1,4.9,13.700000000000001
1698745594.849,16,1.0,-1.9000000000000001,-1.5,0.2,6.1000000000000005,3.8000000000000003,-3.5,3.3000000000000003,17.7
1698745594.869,16,0.5,-1.6,-1.4000000000000001,-0.2,6.4,3.9000000000000004,-2.4000000000000004,2.5,27.6
1698745594.881,16,0.7000000000000001,-1.5,-1.6,0.1,6.5,3.7,-5.300000000000001,4.7,27.400000000000002
1698745594.898,16,1.0,-1.3,-1.8,0.4,6.7,3.5,-9.1,5.8,26.400000000000002
1698745594.915,16,1.0,-1.0,-2.0,0.5,7.0,3.4000000000000004,-14.200000000000001,11.1,26.0
