ts,interval,accx,accy,accz,accGx,accGy,accGz,alpha,beta,gamma
1698672521001.0,16,0.0,0.0,0.0,1.2000000000000002,9.3,0.7000000000000001,0.9,0.1,-0.1
1698672521018.0,16,0.0,0.0,0.0,1.3,9.3,0.7000000000000001,0.30000000000000004,0.0,-0.1
1698672521034.0,16,0.0,0.0,0.0,1.3,9.3,0.7000000000000001,-0.2,-0.4,-0.2
1698672521051.0,16,0.0,0.0,0.0,1.3,9.3,0.7000000000000001,-0.30000000000000004,-0.30000000000000004,-0.2
1698672521068.0,16,0.0,0.0,0.0,1.3,9.3,0.7000000000000001,-0.5,-0.7,-0.5
1698672521084.0,16,0.0,0.0,0.0,1.3,9.3,0.7000000000000001,0.1,-0.4,-0.4
1698672521101.0,16,0.0,0.0,0.0,1.3,9.3,0.7000000000000001,0.4,-0.1,-0.4
1698672521117.0,16,0.0,0.0,0.0,1.3,9.3,0.7000000000000001,0.8,0.30000000000000004,-0.4
1698672521134.0,16,0.1,0.0,0.0,1.3,9.3,0.7000000000000001,1.4,0.7,0.0
1698672521151.0,16,0.0,0.0,0.0,1.3,9.3,0.7000000000000001,1.3,0.4,0.30000000000000004
1698672521168.0,16,0.0,0.0,0.0,1.3,9.3,0.6000000000000001,1.2000000000000002,0.2,0.4
1698672521184.0,16,0.0,0.0,0.0,1.2000000000000002,9.3,0.7000000000000001,0.9,-0.2,0.1
1698672521202.0,16,0.0,0.0,0.0,1.2000000000000002,9.3,0.7000000000000001,0.9,-0.5,-0.1
1698672521218.0,16,0.0,-0.1,0.0,1.3,9.200000000000001,0.7000000000000001,0.7,-0.4,-0.6000000000000001
1698672521234.0,16,0.0,-0.1,0.0,1.3,9.200000000000001,0.7000000000000001,0.30000000000000004,-0.4,-0.6000000000000001
1698672521253.0,16,0.0,0.0,0.0,1.3,9.3,0.7000000000000001,0.1,-0.5,-0.5
1698672521268.0,16,0.0,0.1,0.0,1.3,9.4,0.6000000000000001,0.1,-0.7,-0.5
1698672521284.0,16,0.0,0.1,0.0,1.3,9.4,0.7000000000000001,0.0,-0.8,-0.2
1698672521301.0,16,0.0,0.1,0.0,1.3,9.4,0.6000000000000001,0.0,-0.8,0.5
1698672521318.0,16,0.0,0.1,0.0,1.3,9.4,0.6000000000000001,0.0,-0.8,0.5
1698672521334.0,16,0.0,0.0,-0.1,1.3,9.3,0.6000000000000001,-0.30000000000000004,-0.7,0.1
1698672521351.0,16,0.0,0.1,-0.1,1.3,9.4,0.6000000000000001,-1.2000000000000002,-0.7,-0.1
1698672521368.0,16,0.1,0.1,-0.1,1.3,9.4,0.6000000000000001,-1.7,-0.5,-0.2
1698672521384.0,16,0.1,0.1,-0.1,1.3,9.4,0.6000000000000001,-2.9,-0.5,-0.2
1698672521401.0,16,0.0,0.1,-0.1,1.3,9.5,0.6000000000000001,-3.7000000000000006,-0.30000000000000004,-0.4
1698672521418.0,16,0.0,0.0,-0.1,1.3,9.4,0.5,-3.8,-0.2,-0.4
1698672521434.0,16,0.0,0.0,-0.1,1.3,9.3,0.6000000000000001,-3.8,-0.5,-0.2
1698672521451.0,16,0.0,0.0,-0.1,1.3,9.3,0.6000000000000001,-3.6,-0.6000000000000001,-0.30000000000000004
1698672521468.0,16,0.0,0.0,-0.1,1.3,9.3,0.6000000000000001,-2.8,-0.7,-0.1
1698672521485.0,16,0.0,0.0,0.0,1.3,9.4,0.7000000000000001,-1.9,-0.6000000000000001,-0.4
1698672521501.0,16,0.0,0.0,0.0,1.3,9.3,0.7000000000000001,-1.3,-0.5,-0.5
1698672521518.0,16,0.0,0.0,0.1,1.3,9.3,0.8,-0.7,-0.2,-0.5
1698672521534.0,16,0.0,0.0,0.1,1.3,9.3,0.8,-0.6000000000000001,-0.1,-0.1
1698672521551.0,16,0.0,0.0,0.1,1.3,9.3,0.8,-1.0999999999999999,-0.1,-0.1
1698672521568.0,16,0.0,-0.1,0.1,1.3,9.3,0.8,-1.5000000000000002,0.1,-0.2
1698672521584.0,16,0.0,-0.1,0.1,1.3,9.3,0.8,-2.1,0.30000000000000004,-0.6000000000000001
1698672521601.0,16,0.0,0.0,0.0,1.3,9.3,0.8,-2.8,0.5,-0.2
1698672521618.0,16,0.0,0.0,0.1,1.2000000000000002,9.3,0.8,-3.5,0.30000000000000004,-0.7
1698672521634.0,16,0.0,0.0,0.0,1.3,9.3,0.8,-3.6,0.5,-0.8
1698672521651.0,16,-0.1,0.0,0.0,1.2000000000000002,9.3,0.8,-4.1000000000000005,0.30000000000000004,-0.5
1698672521668.0,16,0.0,0.0,0.0,1.2000000000000002,9.3,0.8,-4.0,-0.1,-0.4
1698672521684.0,16,0.0,0.0,0.0,1.2000000000000002,9.4,0.8,-3.2,0.0,-0.4
1698672521701.0,16,0.0,0.0,0.0,1.2000000000000002,9.3,0.8,-2.7,-0.30000000000000004,-0.5
1698672521718.0,16,0.0,0.0,0.0,1.2000000000000002,9.3,0.8,-1.8,-0.5,-0.7
1698672521734.0,16,0.0,-0.1,0.0,1.3,9.200000000000001,0.8,-0.9,-0.8,-0.7
1698672521751.0,16,0.0,0.0,0.0,1.3,9.3,0.8,-0.2,-0.5,-0.4
1698672521768.0,16,0.0,0.0,0.0,1.3,9.3,0.8,0.1,-0.30000000000000004,-0.1
1698672521784.0,16,0.0,0.0,0.0,1.3,9.3,0.8,0.4,-0.30000000000000004,0.1
1698672521801.0,16,0.0,0.0,0.0,1.2000000000000002,9.3,0.8,0.30000000000000004,-0.2,0.0
1698672521818.0,16,0.0,0.0,0.0,1.3,9.3,0.8,0.0,-0.2,-0.2
1698672521834.0,16,0.0,0.0,0.0,1.3,9.3,0.8,-0.7,-0.2,-0.4
1698672521851.0,16,0.0,0.0,0.0,1.3,9.3,0.8,-1.4,-0.2,-0.2
1698672521868.0,16,0.0,0.0,0.0,1.2000000000000002,9.3,0.8,-2.1,-0.2,-0.1
1698672521887.0,16,0.0,0.0,0.0,1.2000000000000002,9.3,0.9,-2.3000000000000003,-0.4,-0.2
1698672521901.0,16,0.0,0.0,0.0,1.2000000000000002,9.3,0.8,-2.1999999999999997,-0.30000000000000004,-0.6000000000000001
1698672521917.0,16,0.0,0.0,0.0,1.2000000000000002,9.3,0.8,-2.3000000000000003,-0.30000000000000004,-0.6000000000000001
1698672521934.0,16,0.0,0.0,0.0,1.2000000000000002,9.3,0.9,-2.1,-0.1,-0.5
1698672521951.0,16,0.0,0.0,0.0,1.3,9.3,0.8,-2.0,-0.2,-0.2
1698672521969.0,16,0.0,0.0,0.0,1.2000000000000002,9.3,0.8,-1.8,-0.30000000000000004,-0.2
1698672521985.0,16,0.0,0.0,-0.1,1.2000000000000002,9.3,0.8,-1.0999999999999999,-0.5,-0.1
1698672522001.0,16,0.0,0.0,0.0,1.2000000000000002,9.3,0.8,-0.4,-0.6000000000000001,-0.30000000000000004
1698672522018.0,16,0.0,0.0,0.0,1.3,9.3,0.8,0.0,-0.4,-0.30000000000000004
1698672522034.0,16,0.1,0.0,0.0,1.3,9.3,0.9,0.1,-0.4,-0.2
1698672522052.0,16,0.0,0.0,0.0,1.3,9.3,0.9,0.1,-0.4,0.0
1698672522068.0,16,0.0,0.0,0.0,1.2000000000000002,9.3,0.9,0.2,-0.4,0.0
1698672522084.0,16,0.0,0.0,0.0,1.2000000000000002,9.3,0.9,0.4,0.0,-0.1
1698672522101.0,16,0.0,0.0,0.0,1.3,9.3,0.9,0.1,-0.2,-0.1
1698672522118.0,16,0.0,0.0,0.0,1.2000000000000002,9.3,0.9,0.1,0.0,-0.1
1698672522134.0,16,0.0,0.0,0.0,1.3,9.3,0.9,0.1,-0.1,0.0
1698672522151.0,16,0.0,0.0,0.0,1.3,9.3,0.9,0.0,0.0,0.1
1698672522168.0,16,0.0,0.0,0.0,1.2000000000000002,9.3,0.9,0.4,0.1,0.1
1698672522185.0,16,0.0,0.0,0.0,1.3,9.3,0.8,0.5,0.30000000000000004,0.0
1698672522201.0,16,0.0,0.0,0.0,1.3,9.3,0.9,1.0999999999999999,0.4,0.1
1698672522218.0,16,0.0,0.0,0.0,1.2000000000000002,9.3,0.9,1.5000000000000002,0.4,0.4
1698672522234.0,16,0.0,0.0,0.0,1.2000000000000002,9.3,0.8,1.7,0.30000000000000004,0.4
1698672522251.0,16,0.0,0.0,0.0,1.2000000000000002,9.3,0.8,1.7,0.1,0.2
1698672522268.0,16,0.0,0.0,0.0,1.3,9.3,0.8,1.6,0.30000000000000004,0.1
1698672522285.0,16,0.0,0.0,0.0,1.3,9.3,0.8,1.4,0.30000000000000004,0.2
1698672522301.0,16,0.0,0.0,0.0,1.2000000000000002,9.3,0.8,0.9,0.2,0.2
1698672522318.0,16,0.0,0.0,0.0,1.2000000000000002,9.3,0.8,0.6000000000000001,0.1,0.1
1698672522334.0,16,0.0,0.0,0.0,1.2000000000000002,9.3,0.8,0.6000000000000001,0.1,-0.1
1698672522351.0,16,0.0,0.0,0.0,1.3,9.3,0.8,0.5,0.30000000000000004,0.0
1698672522367.0,16,0.0,0.0,0.0,1.3,9.3,0.8,0.5,0.30000000000000004,0.0
1698672522384.0,16,0.0,0.0,0.0,1.3,9.3,0.8,0.5,0.4,0.1
1698672522401.0,16,0.0,0.0,0.0,1.2000000000000002,9.3,0.8,0.6000000000000001,0.4,-0.1
1698672522418.0,16,0.0,0.0,0.0,1.2000000000000002,9.3,0.8,0.4,0.5,-0.1
1698672522434.0,16,0.0,0.0,0.0,1.2000000000000002,9.3,0.8,0.5,0.30000000000000004,0.1
1698672522451.0,16,0.0,0.0,0.0,1.2000000000000002,9.3,0.8,0.7,0.30000000000000004,0.1
1698672522467.0,16,0.0,0.0,0.0,1.2000000000000002,9.3,0.8,1.0999999999999999,0.4,-0.1
1698672522485.0,16,0.0,0.0,0.0,1.3,9.3,0.8,1.0999999999999999,0.4,-0.1
1698672522501.0,16,0.0,0.0,0.0,1.3,9.3,0.8,1.2000000000000002,0.1,0.1
1698672522517.0,16,0.0,0.0,0.0,1.2000000000000002,9.3,0.8,1.5000000000000002,-0.1,0.1
1698672522534.0,16,0.0,0.0,0.0,1.2000000000000002,9.3,0.8,1.5000000000000002,0.1,0.1
1698672522552.0,16,0.0,0.0,0.0,1.2000000000000002,9.3,0.8,1.6,0.30000000000000004,0.1
1698672522567.0,16,0.0,0.0,0.0,1.2000000000000002,9.3,0.8,1.4,0.4,0.2
1698672522585.0,16,0.0,0.0,0.1,1.2000000000000002,9.3,0.9,1.0999999999999999,0.4,0.2
1698672522601.0,16,0.0,0.0,0.0,1.2000000000000002,9.3,0.8,0.8,0.0,0.0
1698672522618.0,16,0.0,0.0,0.0,1.2000000000000002,9.3,0.8,0.30000000000000004,0.1,0.0
1698672522634.0,16,0.0,0.0,0.0,1.2000000000000002,9.3,0.8,0.2,-0.1,0.1
1698672522651.0,16,0.0,0.0,0.0,1.2000000000000002,9.3,0.8,0.1,-0.2,0.0
1698672522668.0,16,0.0,0.0,0.0,1.2000000000000002,9.3,0.8,0.30000000000000004,0.0,-0.2
1698672522684.0,16,0.0,0.0,0.0,1.2000000000000002,9.3,0.8,0.30000000000000004,0.0,-0.2
1698672522701.0,16,0.0,0.0,0.0,1.2000000000000002,9.3,0.8,0.30000000000000004,-0.2,-0.2
1698672522718.0,16,0.0,0.0,0.0,1.3,9.3,0.7000000000000001,0.30000000000000004,-0.2,0.0
1698672522734.0,16,0.0,0.0,0.0,1.3,9.3,0.8,0.2,0.0,-0.1
1698672522751.0,16,0.0,0.0,0.0,1.2000000000000002,9.3,0.8,0.2,0.0,0.0
1698672522767.0,16,0.0,0.0,0.0,1.2000000000000002,9.3,0.8,0.4,-0.1,-0.1
1698672522784.0,16,0.0,0.0,0.0,1.2000000000000002,9.3,0.8,0.6000000000000001,0.0,0.0
1698672522801.0,16,0.0,0.0,0.0,1.2000000000000002,9.3,0.8,0.9,0.1,0.0
1698672522818.0,16,0.0,0.0,0.0,1.2000000000000002,9.3,0.8,1.0999999999999999,0.1,0.1
1698672522834.0,16,0.0,0.0,0.0,1.2000000000000002,9.3,0.7000000000000001,1.2000000000000002,0.2,0.1
1698672522851.0,16,0.0,0.0,0.0,1.2000000000000002,9.3,0.8,1.2000000000000002,0.1,0.30000000000000004
1698672522867.0,16,0.0,0.0,0.0,1.2000000000000002,9.3,0.8,1.0999999999999999,0.1,0.1
1698672522884.0,16,0.0,0.0,0.0,1.2000000000000002,9.3,0.7000000000000001,1.0,0.0,0.1
1698672522901.0,16,0.0,0.0,0.0,1.3,9.3,0.8,1.0,0.1,0.1
1698672522918.0,16,0.0,0.0,0.0,1.3,9.3,0.8,0.8,0.1,0.1
1698672522934.0,16,0.0,0.0,0.0,1.2000000000000002,9.3,0.8,0.8,0.1,0.1
1698672522951.0,16,0.0,0.0,0.0,1.2000000000000002,9.3,0.7000000000000001,0.8,0.2,0.1
1698672522968.0,16,0.0,0.0,0.0,1.3,9.3,0.8,0.8,0.30000000000000004,0.1
1698672522984.0,16,0.0,0.0,0.0,1.2000000000000002,9.3,0.7000000000000001,0.8,0.30000000000000004,0.1
1698672523001.0,16,0.0,0.0,0.0,1.3,9.3,0.7000000000000001,0.6000000000000001,0.30000000000000004,0.1
1698672523018.0,16,0.0,0.0,0.0,1.2000000000000002,9.3,0.7000000000000001,0.6000000000000001,0.30000000000000004,0.30000000000000004
1698672523034.0,16,0.0,0.0,0.0,1.3,9.3,0.7000000000000001,0.6000000000000001,0.1,0.4
1698672523052.0,16,0.0,0.0,0.0,1.2000000000000002,9.3,0.7000000000000001,0.6000000000000001,0.0,0.30000000000000004
1698672523068.0,16,0.0,0.0,0.0,1.3,9.3,0.7000000000000001,0.6000000000000001,0.2,0.2
1698672523084.0,16,0.0,0.0,-0.1,1.2000000000000002,9.3,0.7000000000000001,0.7,0.2,0.30000000000000004
1698672523101.0,16,0.0,0.0,0.0,1.2000000000000002,9.3,0.7000000000000001,0.8,0.1,0.30000000000000004
1698672523118.0,16,0.0,0.0,0.0,1.2000000000000002,9.4,0.7000000000000001,0.8,0.0,0.2
1698672523135.0,16,0.0,0.0,0.0,1.3,9.3,0.7000000000000001,0.8,0.0,0.1
1698672523151.0,16,0.0,0.0,0.0,1.3,9.3,0.7000000000000001,0.8,-0.1,-0.1
1698672523168.0,16,0.0,0.0,0.0,1.3,9.3,0.7000000000000001,0.6000000000000001,0.0,0.2
1698672523184.0,16,0.0,0.0,0.0,1.3,9.3,0.7000000000000001,0.4,0.1,0.1
1698672523201.0,16,0.0,0.0,0.0,1.3,9.3,0.7000000000000001,0.30000000000000004,0.1,0.0
1698672523218.0,16,0.0,0.0,0.0,1.3,9.3,0.7000000000000001,-0.1,0.1,0.0
1698672523234.0,16,0.0,0.0,0.0,1.3,9.3,0.7000000000000001,-0.1,0.4,-0.1
1698672523251.0,16,0.0,0.0,0.0,1.3,9.3,0.7000000000000001,0.0,0.30000000000000004,-0.1
1698672523268.0,16,0.0,0.0,0.0,1.3,9.3,0.7000000000000001,0.30000000000000004,0.30000000000000004,0.0
1698672523284.0,16,0.0,0.0,0.0,1.3,9.3,0.7000000000000001,0.6000000000000001,0.1,0.1
1698672523301.0,16,0.0,0.0,0.0,1.2000000000000002,9.3,0.7000000000000001,0.8,0.0,0.2
1698672523318.0,16,0.0,0.0,0.0,1.3,9.3,0.7000000000000001,1.4,0.1,0.1
1698672523334.0,16,0.0,0.0,0.0,1.3,9.3,0.7000000000000001,1.8,0.4,0.0
1698672523351.0,16,0.0,0.0,0.0,1.3,9.3,0.7000000000000001,1.8,0.4,0.0
1698672523368.0,16,0.0,0.0,0.0,1.3,9.3,0.7000000000000001,1.7,0.4,0.30000000000000004
1698672523384.0,16,0.0,0.0,0.0,1.2000000000000002,9.3,0.7000000000000001,1.3,0.4,0.4
1698672523401.0,16,0.0,0.0,0.0,1.2000000000000002,9.3,0.7000000000000001,0.8,0.4,0.30000000000000004
1698672523418.0,16,0.0,0.0,0.0,1.2000000000000002,9.3,0.7000000000000001,0.30000000000000004,0.30000000000000004,0.1
1698672523434.0,16,0.0,0.0,0.0,1.2000000000000002,9.3,0.7000000000000001,0.1,0.30000000000000004,0.2
1698672523451.0,16,0.0,0.0,0.0,1.2000000000000002,9.3,0.7000000000000001,-0.2,0.0,0.30000000000000004
1698672523468.0,16,0.0,0.0,0.0,1.2000000000000002,9.3,0.7000000000000001,-0.2,0.1,0.1
1698672523484.0,16,0.0,0.0,0.0,1.3,9.3,0.7000000000000001,-0.1,0.0,0.2
1698672523501.0,16,0.0,0.0,0.0,1.3,9.3,0.7000000000000001,0.1,0.0,0.1
1698672523518.0,16,0.0,0.0,0.0,1.3,9.3,0.7000000000000001,0.2,0.1,0.1
1698672523534.0,16,0.0,0.0,0.0,1.3,9.4,0.7000000000000001,0.30000000000000004,0.1,0.2
1698672523551.0,16,0.0,0.0,0.0,1.3,9.4,0.7000000000000001,0.4,0.1,0.1
1698672523568.0,16,0.0,0.0,0.0,1.3,9.3,0.7000000000000001,0.30000000000000004,0.30000000000000004,0.2
1698672523584.0,16,0.0,0.0,0.0,1.3,9.3,0.7000000000000001,0.4,0.0,0.1
1698672523601.0,16,0.0,0.0,0.0,1.3,9.3,0.7000000000000001,0.4,0.1,0.1
1698672523617.0,16,0.0,0.0,0.0,1.3,9.3,0.7000000000000001,0.6000000000000001,0.1,0.1
1698672523634.0,16,0.0,0.0,0.0,1.3,9.3,0.7000000000000001,0.6000000000000001,0.1,0.1
1698672523651.0,16,0.0,0.0,0.0,1.3,9.3,0.7000000000000001,0.5,0.0,-0.1
1698672523668.0,16,0.0,0.0,0.0,1.2000000000000002,9.3,0.7000000000000001,0.4,-0.1,-0.1
1698672523685.0,16,0.0,0.0,0.0,1.3,9.3,0.7000000000000001,0.30000000000000004,-0.1,-0.1
1698672523701.0,16,0.0,0.0,0.0,1.3,9.3,0.7000000000000001,0.1,-0.2,-0.1
1698672523718.0,16,0.0,0.0,0.0,1.3,9.3,0.6000000000000001,0.1,0.0,0.0
1698672523734.0,16,0.0,0.0,0.0,1.3,9.3,0.7000000000000001,0.0,0.1,-0.1
1698672523752.0,16,0.0,0.0,0.0,1.3,9.3,0.7000000000000001,0.1,0.0,-0.1
1698672523768.0,16,0.0,0.0,0.0,1.3,9.3,0.7000000000000001,0.1,0.1,0.0
1698672523784.0,16,0.0,0.0,0.0,1.3,9.3,0.7000000000000001,0.2,0.0,-0.1
1698672523801.0,16,0.0,0.0,0.0,1.3,9.3,0.7000000000000001,0.2,0.1,-0.1
1698672523818.0,16,0.0,0.0,0.0,1.3,9.3,0.7000000000000001,0.1,0.0,0.0
1698672523835.0,16,0.0,0.0,0.0,1.3,9.3,0.7000000000000001,0.30000000000000004,0.1,0.0
1698672523851.0,16,0.0,0.0,0.0,1.2000000000000002,9.3,0.7000000000000001,0.30000000000000004,-0.1,-0.1
1698672523868.0,16,0.0,0.0,0.0,1.3,9.3,0.7000000000000001,0.30000000000000004,-0.30000000000000004,-0.1
1698672523884.0,16,0.0,0.0,0.0,1.3,9.3,0.7000000000000001,0.2,0.1,-0.1
1698672523901.0,16,0.0,0.0,0.0,1.3,9.3,0.7000000000000001,0.0,0.0,-0.1
1698672523918.0,16,0.0,0.0,0.0,1.3,9.3,0.6000000000000001,-0.2,0.1,-0.1
1698672523934.0,16,0.0,0.0,0.0,1.2000000000000002,9.3,0.6000000000000001,-0.30000000000000004,0.0,-0.1
1698672523952.0,16,0.0,0.0,0.0,1.2000000000000002,9.3,0.6000000000000001,-0.6000000000000001,-0.2,-0.1
1698672523969.0,16,0.0,0.0,0.0,1.3,9.3,0.7000000000000001,-0.5,-0.30000000000000004,-0.1
1698672523984.0,16,0.0,0.0,0.0,1.3,9.3,0.7000000000000001,-0.2,-0.6000000000000001,-0.1
1698672524001.0,16,0.0,0.0,0.0,1.2000000000000002,9.3,0.7000000000000001,0.5,-0.7,0.1
1698672524018.0,16,0.0,0.0,0.0,1.2000000000000002,9.3,0.7000000000000001,0.7,-1.0,-0.1
1698672524034.0,16,0.0,0.0,0.0,1.2000000000000002,9.3,0.6000000000000001,0.9,-1.3,0.2
1698672524051.0,16,0.0,-0.1,0.1,1.2000000000000002,9.3,0.7000000000000001,1.0999999999999999,-1.6,0.5
1698672524068.0,16,0.0,0.0,0.1,1.2000000000000002,9.3,0.7000000000000001,1.4,-1.3,0.6000000000000001
1698672524085.0,16,0.0,-0.1,0.1,1.2000000000000002,9.3,0.7000000000000001,1.7,-0.9,0.5
1698672524101.0,16,0.0,-0.1,0.1,1.2000000000000002,9.200000000000001,0.7000000000000001,2.1,-0.5,0.8
1698672524118.0,16,0.0,-0.1,0.1,1.2000000000000002,9.3,0.7000000000000001,2.1999999999999997,-0.6000000000000001,0.9
1698672524134.0,16,0.0,0.0,0.0,1.2000000000000002,9.3,0.7000000000000001,2.1999999999999997,-0.6000000000000001,0.9
1698672524151.0,16,0.0,0.0,0.1,1.3,9.3,0.7000000000000001,2.1,-0.5,0.6000000000000001
1698672524168.0,16,0.0,0.0,0.0,1.3,9.3,0.6000000000000001,1.6,0.1,0.7
1698672524184.0,16,0.0,0.0,0.0,1.3,9.3,0.6000000000000001,1.0999999999999999,0.1,0.7
1698672524201.0,16,0.0,0.0,0.0,1.3,9.3,0.6000000000000001,0.4,-0.5,0.6000000000000001
1698672524217.0,16,0.1,0.0,-0.1,1.3,9.3,0.6000000000000001,-0.2,-0.5,0.1
1698672524234.0,16,0.1,0.0,0.0,1.4000000000000001,9.3,0.6000000000000001,-0.2,-0.2,0.0
1698672524251.0,16,0.1,0.0,0.0,1.4000000000000001,9.3,0.6000000000000001,-0.30000000000000004,0.0,0.1
1698672524268.0,16,0.1,0.1,-0.1,1.4000000000000001,9.3,0.5,-0.2,0.30000000000000004,0.4
1698672524284.0,16,0.0,0.0,-0.1,1.3,9.4,0.5,0.30000000000000004,0.0,0.6000000000000001
1698672524301.0,16,0.0,0.0,0.0,1.3,9.4,0.6000000000000001,0.8,-0.4,0.1
1698672524318.0,16,0.0,0.0,0.0,1.3,9.4,0.6000000000000001,1.3,-0.4,-0.1
1698672524335.0,16,0.0,0.0,0.0,1.3,9.4,0.6000000000000001,1.4,-0.4,0.1
1698672524351.0,16,0.0,0.1,0.0,1.3,9.4,0.6000000000000001,1.4,-0.5,0.0
1698672524367.0,16,0.0,0.1,0.0,1.3,9.4,0.6000000000000001,1.2000000000000002,-0.7,0.0
1698672524385.0,16,0.1,0.2,0.0,1.4000000000000001,9.5,0.6000000000000001,0.4,-0.6000000000000001,0.2
1698672524401.0,16,0.1,0.2,0.0,1.4000000000000001,9.600000000000001,0.6000000000000001,-1.8,0.2,0.2
1698672524417.0,16,0.0,0.1,-0.1,1.3,9.5,0.5,-4.7,0.9,0.5
1698672524434.0,16,0.0,0.1,-0.1,1.3,9.5,0.5,-6.5,0.8,0.5
1698672524452.0,16,0.0,0.1,-0.2,1.3,9.5,0.4,-9.600000000000001,-0.5,-0.1
1698672524468.0,16,0.0,0.1,-0.2,1.3,9.4,0.5,-12.100000000000001,-0.8,-0.9
1698672524485.0,16,0.0,0.0,-0.2,1.3,9.4,0.5,-12.6,-0.7,-0.7
1698672524501.0,16,0.0,-0.1,-0.2,1.3,9.3,0.5,-11.9,-0.7,-0.4
1698672524517.0,16,-0.1,-0.2,-0.1,1.2000000000000002,9.200000000000001,0.6000000000000001,-9.0,-1.2000000000000002,-0.4
1698672524534.0,16,-0.1,-0.2,-0.1,1.2000000000000002,9.1,0.7000000000000001,-6.8,-1.6,-0.5
1698672524551.0,16,0.0,-0.2,0.1,1.3,9.1,0.8,-1.9,-1.9,-0.5
1698672524567.0,16,0.0,-0.2,0.2,1.3,9.1,0.9,0.6000000000000001,-2.0,-0.5
1698672524584.0,16,0.0,-0.2,0.2,1.3,9.200000000000001,1.0,4.800000000000001,-1.5000000000000002,-0.4
1698672524601.0,16,-0.1,-0.1,0.30000000000000004,1.2000000000000002,9.200000000000001,1.1,7.0,-1.3,0.0
1698672524617.0,16,0.0,-0.1,0.4,1.2000000000000002,9.200000000000001,1.1,7.300000000000001,-1.4,0.1
1698672524635.0,16,-0.1,-0.2,0.4,1.2000000000000002,9.200000000000001,1.1,5.8,-1.6,-0.7
1698672524651.0,16,0.0,-0.2,0.4,1.3,9.200000000000001,1.1,2.3000000000000003,-1.6,-1.8
1698672524667.0,16,0.0,-0.2,0.30000000000000004,1.3,9.200000000000001,1.0,-2.1,-1.0999999999999999,-2.6
1698672524684.0,16,0.1,-0.2,0.30000000000000004,1.3,9.200000000000001,1.0,-4.300000000000001,-0.8,-2.7
1698672524701.0,16,0.0,-0.2,0.30000000000000004,1.3,9.200000000000001,1.0,-6.1000000000000005,-0.7,-2.7
1698672524718.0,16,0.0,-0.1,0.0,1.3,9.200000000000001,0.8,-8.200000000000001,-0.5,-2.7
1698672524734.0,16,-0.1,-0.1,0.0,1.2000000000000002,9.200000000000001,0.8,-7.9,-0.5,-2.7
1698672524751.0,16,-0.1,-0.1,-0.1,1.2000000000000002,9.200000000000001,0.7000000000000001,-6.1000000000000005,-1.0999999999999999,-2.8
1698672524767.0,16,0.0,0.0,-0.1,1.2000000000000002,9.3,0.7000000000000001,-2.7,-1.3,-2.6
1698672524784.0,16,-0.1,-0.1,-0.1,1.2000000000000002,9.3,0.7000000000000001,-0.9,-1.3,-2.3000000000000003
1698672524801.0,16,-0.1,0.0,-0.1,1.2000000000000002,9.3,0.7000000000000001,2.6,-1.8,-1.7
1698672524818.0,16,-0.1,0.0,-0.1,1.1,9.3,0.7000000000000001,5.300000000000001,-2.6,-1.3
1698672524834.0,16,0.0,0.1,-0.1,1.2000000000000002,9.4,0.7000000000000001,6.7,-3.2,-1.2000000000000002
1698672524851.0,16,0.0,0.1,0.0,1.2000000000000002,9.4,0.7000000000000001,6.8,-3.5,-1.2000000000000002
1698672524867.0,16,0.0,0.1,0.0,1.2000000000000002,9.4,0.7000000000000001,6.3,-3.3000000000000003,-1.0999999999999999
1698672524885.0,16,0.0,0.1,0.1,1.2000000000000002,9.4,0.8,5.300000000000001,-3.2,-1.4
1698672524901.0,16,0.0,0.1,0.1,1.2000000000000002,9.4,0.8,3.0000000000000004,-2.3000000000000003,-1.6
1698672524918.0,16,0.0,0.1,0.0,1.2000000000000002,9.4,0.7000000000000001,0.0,-1.8,-1.5000000000000002
1698672524934.0,16,0.0,0.1,0.0,1.2000000000000002,9.4,0.7000000000000001,-2.7,-1.8,-1.0999999999999999
1698672524951.0,16,0.0,0.1,0.0,1.2000000000000002,9.4,0.7000000000000001,-3.6,-1.7,-1.0999999999999999
1698672524968.0,16,0.0,0.0,0.0,1.2000000000000002,9.4,0.7000000000000001,-4.6000000000000005,-1.0999999999999999,-1.4
1698672524984.0,16,0.0,0.0,0.0,1.2000000000000002,9.3,0.7000000000000001,-4.6000000000000005,-1.0,-1.0999999999999999
1698672525001.0,16,0.1,0.0,0.0,1.2000000000000002,9.3,0.7000000000000001,-4.300000000000001,-0.9,-0.4
1698672525018.0,16,0.0,0.0,0.0,1.2000000000000002,9.3,0.7000000000000001,-3.1,-0.2,0.5
1698672525034.0,16,0.0,0.0,0.0,1.2000000000000002,9.4,0.7000000000000001,-1.8,0.1,0.7
1698672525051.0,16,0.0,0.0,-0.1,1.2000000000000002,9.4,0.7000000000000001,-1.0,0.4,0.7
1698672525067.0,16,0.0,0.0,0.0,1.2000000000000002,9.4,0.7000000000000001,0.2,0.6000000000000001,0.9
1698672525084.0,16,0.0,0.0,0.0,1.2000000000000002,9.4,0.7000000000000001,0.8,0.1,1.0
1698672525100.0,16,0.0,0.0,0.0,1.2000000000000002,9.4,0.7000000000000001,0.7,-0.7,1.0
1698672525117.0,16,0.0,0.0,0.0,1.2000000000000002,9.4,0.7000000000000001,0.2,-0.6000000000000001,0.9
1698672525134.0,16,0.0,0.0,0.1,1.2000000000000002,9.4,0.8,-0.7,-1.8,0.8
1698672525151.0,16,0.0,0.0,0.1,1.2000000000000002,9.3,0.8,-1.0,-1.0999999999999999,0.7
1698672525167.0,16,0.0,0.0,0.0,1.2000000000000002,9.3,0.7000000000000001,-1.8,-2.5,0.8
1698672525184.0,16,0.0,0.0,0.1,1.2000000000000002,9.3,0.8,-2.1999999999999997,-3.0000000000000004,1.0
1698672525200.0,16,0.0,0.0,0.0,1.2000000000000002,9.3,0.8,-2.5,-2.1999999999999997,0.7
1698672525217.0,16,0.0,0.0,0.0,1.2000000000000002,9.3,0.8,-2.7,-2.1999999999999997,0.5
1698672525234.0,16,0.0,0.0,0.1,1.2000000000000002,9.3,0.8,-2.5,-1.3,0.1
1698672525251.0,16,0.0,-0.1,0.1,1.2000000000000002,9.3,0.9,-2.1999999999999997,-0.8,0.30000000000000004
1698672525267.0,16,0.0,-0.1,0.1,1.2000000000000002,9.3,0.9,-1.9,-0.7,0.7
1698672525284.0,16,0.0,0.0,0.0,1.2000000000000002,9.3,0.8,-1.2000000000000002,-0.4,1.3
1698672525301.0,16,0.0,0.0,0.0,1.2000000000000002,9.3,0.8,-0.7,-1.0,0.9
1698672525317.0,16,0.0,0.0,0.0,1.2000000000000002,9.3,0.8,-0.7,-1.0999999999999999,0.7
1698672525336.0,16,0.0,-0.1,0.0,1.3,9.3,0.8,-0.5,-1.3,-0.2
1698672525351.0,16,0.1,0.0,0.1,1.3,9.3,0.9,-0.30000000000000004,-1.3,-0.8
1698672525368.0,16,0.1,0.0,0.0,1.4000000000000001,9.3,0.9,0.0,0.1,-1.3
1698672525384.0,16,0.1,-0.1,0.1,1.3,9.200000000000001,0.9,0.1,1.0999999999999999,-0.4
1698672525401.0,16,0.1,-0.1,0.0,1.3,9.200000000000001,0.9,0.1,1.4,0.2
1698672525417.0,16,0.0,0.0,0.0,1.2000000000000002,9.3,0.8,-0.2,2.0,0.9
1698672525434.0,16,-0.1,0.0,-0.1,1.1,9.3,0.8,-0.30000000000000004,2.1999999999999997,0.7
1698672525451.0,16,-0.1,0.1,-0.1,1.2000000000000002,9.4,0.8,-0.30000000000000004,2.8,0.4
1698672525468.0,16,0.0,0.1,-0.1,1.2000000000000002,9.4,0.7000000000000001,0.0,3.2,-0.2
1698672525484.0,16,0.0,0.1,-0.1,1.2000000000000002,9.4,0.7000000000000001,0.6000000000000001,3.8,0.6000000000000001
1698672525501.0,16,-0.1,-0.1,0.1,1.1,9.200000000000001,0.9,1.9,2.8,0.7
1698672525518.0,16,-0.1,-0.1,0.1,1.1,9.200000000000001,0.9,2.8,2.6,0.2
1698672525534.0,16,0.0,-0.1,0.1,1.3,9.3,0.9,3.9,2.8,-0.9
1698672525551.0,16,0.1,-0.1,0.1,1.3,9.200000000000001,0.9,4.2,2.9,-0.9
1698672525568.0,16,0.0,-0.30000000000000004,0.1,1.2000000000000002,9.0,0.9,4.5,1.0999999999999999,0.4
1698672525584.0,16,0.1,0.0,0.1,1.3,9.3,0.9,4.0,2.0,0.1
1698672525601.0,16,0.1,0.0,0.1,1.4000000000000001,9.3,0.9,2.6,1.6,0.1
1698672525618.0,16,0.1,0.0,0.1,1.4000000000000001,9.4,0.9,2.1999999999999997,2.4000000000000004,0.7
1698672525634.0,16,0.0,0.2,0.1,1.3,9.5,0.9,1.5000000000000002,2.7,1.0999999999999999
1698672525651.0,16,0.0,0.1,0.0,1.2000000000000002,9.4,0.8,0.6000000000000001,2.6,1.2000000000000002
1698672525668.0,16,-0.1,0.1,0.0,1.1,9.4,0.8,-0.9,3.3000000000000003,0.7
1698672525684.0,16,-0.1,0.1,-0.1,1.1,9.4,0.7000000000000001,-1.9,3.5,0.5
1698672525702.0,16,-0.1,0.0,-0.1,1.1,9.4,0.7000000000000001,-2.9,3.2,0.4
1698672525717.0,16,-0.2,0.0,-0.2,1.0,9.4,0.6000000000000001,-4.7,2.1999999999999997,1.0
1698672525734.0,16,-0.2,0.0,-0.2,1.1,9.4,0.6000000000000001,-5.6,1.2000000000000002,1.2000000000000002
1698672525751.0,16,-0.1,0.1,-0.2,1.1,9.4,0.6000000000000001,-4.7,0.4,0.2
1698672525768.0,16,-0.1,0.0,-0.2,1.1,9.4,0.6000000000000001,-3.7000000000000006,-0.1,0.1
1698672525785.0,16,0.0,0.0,-0.1,1.2000000000000002,9.3,0.7000000000000001,-0.7,-1.0999999999999999,0.9
1698672525801.0,16,0.0,0.0,0.0,1.2000000000000002,9.3,0.7000000000000001,1.0999999999999999,-1.8,1.0999999999999999
1698672525817.0,16,0.0,0.0,0.0,1.3,9.3,0.8,4.6000000000000005,-1.6,0.9
1698672525834.0,16,0.1,0.0,0.1,1.3,9.3,0.9,6.9,-1.4,0.7
1698672525856.0,16,0.1,-0.1,0.2,1.4000000000000001,9.3,1.0,7.0,-0.7,1.2000000000000002
1698672525868.0,16,0.2,0.0,0.2,1.4000000000000001,9.3,1.0,6.3,-0.4,1.2000000000000002
1698672525902.0,16,0.1,0.0,0.1,1.3,9.3,0.9,-0.30000000000000004,0.4,1.4
1698672525918.0,16,0.0,0.0,0.1,1.3,9.3,0.9,-2.1,0.4,0.9
1698672525935.0,16,0.0,0.0,0.0,1.3,9.3,0.8,-4.6000000000000005,1.0999999999999999,-0.2
1698672525951.0,16,0.0,-0.1,0.0,1.3,9.3,0.8,-5.6,1.2000000000000002,-0.5
1698672525969.0,16,0.0,-0.1,0.0,1.3,9.3,0.8,-5.7,1.4,-0.5
1698672525984.0,16,0.0,0.0,-0.1,1.2000000000000002,9.3,0.8,-4.1000000000000005,1.7,0.2
1698672526001.0,16,-0.1,0.0,-0.1,1.2000000000000002,9.3,0.7000000000000001,-1.4,1.4,0.6000000000000001
1698672526017.0,16,-0.1,0.0,-0.1,1.2000000000000002,9.3,0.7000000000000001,1.7,1.0,0.7
1698672526036.0,16,0.0,0.0,-0.1,1.2000000000000002,9.3,0.7000000000000001,2.9,0.6000000000000001,0.7
1698672526051.0,16,-0.1,0.0,0.0,1.2000000000000002,9.3,0.8,4.0,0.2,0.6000000000000001
1698672526071.0,16,0.0,0.0,0.0,1.2000000000000002,9.3,0.8,5.300000000000001,-0.8,0.5
1698672526084.0,16,0.0,0.0,0.1,1.2000000000000002,9.3,0.8,5.0,-1.5000000000000002,0.0
1698672526101.0,16,0.0,0.0,0.1,1.2000000000000002,9.4,0.8,3.4,-1.5000000000000002,0.1
1698672526117.0,16,-0.1,0.0,0.1,1.2000000000000002,9.3,0.8,0.9,-1.9,0.0
1698672526134.0,16,-0.1,0.0,0.1,1.2000000000000002,9.3,0.8,-0.2,-1.9,-0.30000000000000004
1698672526151.0,16,0.0,0.0,0.0,1.2000000000000002,9.3,0.8,-1.8,-1.6,-0.7
1698672526167.0,16,0.0,-0.1,0.0,1.2000000000000002,9.3,0.8,-2.1,-1.6,-0.7
1698672526185.0,16,0.0,-0.1,0.0,1.2000000000000002,9.200000000000001,0.8,-1.4,-1.8,-0.7
1698672526201.0,16,0.0,-0.1,0.0,1.2000000000000002,9.200000000000001,0.8,0.5,-1.5000000000000002,-0.5
1698672526217.0,16,0.1,-0.1,0.0,1.3,9.200000000000001,0.8,3.1,-0.5,0.1
1698672526234.0,16,0.1,0.0,0.0,1.3,9.3,0.7000000000000001,4.0,-0.2,0.6000000000000001
1698672526251.0,16,0.0,0.0,0.0,1.3,9.3,0.8,5.6,-0.4,1.5000000000000002
1698672526268.0,16,0.0,0.1,0.0,1.3,9.4,0.7000000000000001,6.5,-0.5,1.5000000000000002
1698672526284.0,16,0.0,0.1,0.0,1.3,9.4,0.7000000000000001,6.3,-0.30000000000000004,1.3
1698672526301.0,16,0.1,0.2,0.0,1.3,9.5,0.7000000000000001,4.7,0.8,0.9
1698672526317.0,16,0.0,0.1,0.0,1.3,9.5,0.6000000000000001,2.1,1.7,1.0
1698672526335.0,16,0.0,0.1,-0.1,1.3,9.4,0.6000000000000001,0.5,1.9,1.3
1698672526353.0,16,0.0,0.0,-0.1,1.3,9.4,0.6000000000000001,-0.9,1.8,1.8
1698672526369.0,16,0.0,0.0,-0.1,1.3,9.3,0.6000000000000001,-3.3000000000000003,0.9,2.1
1698672526384.0,16,-0.1,0.0,-0.2,1.2000000000000002,9.4,0.5,-4.1000000000000005,0.6000000000000001,1.7
1698672526401.0,16,-0.1,0.0,-0.2,1.2000000000000002,9.3,0.5,-3.3000000000000003,0.0,0.7
1698672526418.0,16,0.0,0.0,-0.1,1.3,9.3,0.6000000000000001,-2.1999999999999997,-0.7,0.1
1698672526435.0,16,0.0,0.0,-0.1,1.3,9.3,0.6000000000000001,0.8,-1.0999999999999999,0.1
1698672526451.0,16,0.0,0.0,0.0,1.3,9.3,0.7000000000000001,4.2,-1.0,0.7
1698672526467.0,16,0.1,0.0,0.1,1.4000000000000001,9.3,0.7000000000000001,5.7,-0.7,0.9
1698672526484.0,16,0.1,0.0,0.2,1.4000000000000001,9.3,0.8,7.6,0.30000000000000004,1.2000000000000002
1698672526501.0,16,0.1,0.0,0.1,1.4000000000000001,9.3,0.8,7.8,1.0999999999999999,1.3
1698672526518.0,16,0.1,0.0,0.1,1.4000000000000001,9.3,0.8,5.7,1.2000000000000002,1.3
1698672526534.0,16,0.0,0.0,0.1,1.4000000000000001,9.3,0.7000000000000001,2.4000000000000004,1.8,1.0
1698672526552.0,16,0.0,0.0,0.1,1.4000000000000001,9.3,0.7000000000000001,0.5,1.9,0.8
1698672526568.0,16,0.0,0.0,0.1,1.4000000000000001,9.3,0.7000000000000001,-2.7,2.1999999999999997,0.4
1698672526585.0,16,0.0,0.0,0.0,1.3,9.3,0.7000000000000001,-3.9,2.1999999999999997,0.6000000000000001
1698672526601.0,16,0.0,0.0,-0.1,1.3,9.3,0.6000000000000001,-5.0,2.5,0.6000000000000001
1698672526618.0,16,0.0,0.0,-0.1,1.3,9.3,0.6000000000000001,-4.5,2.3000000000000003,0.7
1698672526635.0,16,0.0,0.0,-0.1,1.3,9.3,0.6000000000000001,-3.8,2.3000000000000003,0.7
1698672526653.0,16,0.0,0.0,-0.1,1.3,9.3,0.6000000000000001,-2.0,2.3000000000000003,0.7
1698672526667.0,16,0.0,0.0,-0.1,1.3,9.4,0.6000000000000001,0.30000000000000004,2.3000000000000003,0.9
1698672526684.0,16,0.0,0.0,-0.1,1.3,9.3,0.6000000000000001,2.3000000000000003,2.3000000000000003,1.2000000000000002
1698672526701.0,16,0.0,0.0,-0.1,1.3,9.3,0.6000000000000001,3.1,2.1999999999999997,1.3
1698672526718.0,16,0.0,0.0,0.0,1.3,9.3,0.6000000000000001,3.8,1.6,1.7
1698672526735.0,16,0.0,0.0,0.0,1.3,9.3,0.7000000000000001,3.8,1.5000000000000002,1.8
1698672526751.0,16,-0.1,0.0,0.0,1.3,9.4,0.6000000000000001,3.1,1.4,2.1999999999999997
1698672526767.0,16,-0.1,0.0,0.0,1.3,9.3,0.6000000000000001,2.1,0.9,1.7
1698672526784.0,16,0.0,0.0,0.0,1.4000000000000001,9.3,0.7000000000000001,0.30000000000000004,0.6000000000000001,0.9
1698672526803.0,16,0.0,0.0,0.1,1.4000000000000001,9.3,0.7000000000000001,-0.5,0.6000000000000001,0.6000000000000001
1698672526817.0,16,0.1,0.0,0.1,1.4000000000000001,9.3,0.7000000000000001,-1.6,1.0999999999999999,0.9
1698672526834.0,16,0.0,-0.1,0.0,1.4000000000000001,9.3,0.7000000000000001,-2.1999999999999997,1.2000000000000002,1.2000000000000002
1698672526852.0,16,0.0,0.0,0.0,1.4000000000000001,9.3,0.7000000000000001,-2.1999999999999997,1.2000000000000002,1.2000000000000002
1698672526868.0,16,0.0,0.0,0.0,1.4000000000000001,9.3,0.7000000000000001,-1.5000000000000002,0.9,1.3
1698672526885.0,16,0.0,0.0,0.0,1.4000000000000001,9.3,0.7000000000000001,-0.5,0.7,1.2000000000000002
1698672526901.0,16,0.0,0.0,0.0,1.4000000000000001,9.3,0.7000000000000001,0.1,0.8,1.0999999999999999
1698672526917.0,16,0.0,0.0,0.0,1.4000000000000001,9.3,0.7000000000000001,1.0999999999999999,0.8,0.9
1698672526935.0,16,0.0,0.0,0.0,1.4000000000000001,9.3,0.7000000000000001,1.4,0.9,1.0
1698672526953.0,16,0.0,0.0,0.0,1.4000000000000001,9.3,0.7000000000000001,1.4,0.9,1.0999999999999999
1698672526968.0,16,0.0,0.0,0.0,1.4000000000000001,9.3,0.7000000000000001,1.2000000000000002,0.9,1.2000000000000002
1698672526985.0,16,0.0,0.0,0.0,1.4000000000000001,9.3,0.7000000000000001,0.7,1.0,0.9
1698672527001.0,16,0.0,0.0,0.0,1.4000000000000001,9.3,0.6000000000000001,0.1,1.0,0.9
1698672527018.0,16,0.0,0.0,0.0,1.4000000000000001,9.3,0.7000000000000001,-0.5,0.5,1.0999999999999999
1698672527034.0,16,0.0,0.0,0.0,1.4000000000000001,9.3,0.6000000000000001,-0.5,0.4,0.7
1698672527051.0,16,0.0,0.0,0.0,1.4000000000000001,9.3,0.7000000000000001,-0.4,0.6000000000000001,0.4
1698672527068.0,16,0.0,0.0,0.0,1.4000000000000001,9.3,0.6000000000000001,-0.30000000000000004,0.7,0.2
1698672527085.0,16,0.0,0.0,0.0,1.4000000000000001,9.3,0.6000000000000001,-0.1,0.8,0.30000000000000004
1698672527101.0,16,0.0,0.0,0.0,1.4000000000000001,9.3,0.6000000000000001,0.0,0.30000000000000004,0.4
1698672527117.0,16,0.0,0.0,0.0,1.4000000000000001,9.3,0.6000000000000001,0.4,0.30000000000000004,0.2
1698672527135.0,16,0.0,0.0,0.0,1.4000000000000001,9.3,0.7000000000000001,0.6000000000000001,0.0,0.0
1698672527152.0,16,0.0,0.0,0.0,1.4000000000000001,9.3,0.6000000000000001,0.9,-0.2,0.4
1698672527167.0,16,0.0,0.0,0.0,1.4000000000000001,9.3,0.6000000000000001,0.8,-0.5,-0.1
1698672527185.0,16,0.0,0.0,0.0,1.4000000000000001,9.3,0.6000000000000001,0.4,-0.8,-0.4
1698672527202.0,16,0.0,0.1,0.0,1.4000000000000001,9.4,0.7000000000000001,-0.9,-1.5000000000000002,-0.7
1698672527217.0,16,0.0,0.1,0.0,1.4000000000000001,9.4,0.7000000000000001,-1.0999999999999999,-1.3,-1.0
1698672527235.0,16,0.0,0.0,0.0,1.4000000000000001,9.3,0.7000000000000001,-1.2000000000000002,-1.2000000000000002,-1.2000000000000002
1698672527251.0,16,0.1,0.0,0.0,1.5,9.3,0.6000000000000001,-1.0999999999999999,-0.30000000000000004,-1.3
1698672527268.0,16,0.1,0.0,0.0,1.5,9.3,0.7000000000000001,-1.0999999999999999,0.1,-0.7
1698672527284.0,16,0.0,0.0,0.0,1.4000000000000001,9.3,0.7000000000000001,-0.7,1.0999999999999999,-0.30000000000000004
1698672527301.0,16,0.0,0.0,0.0,1.4000000000000001,9.3,0.6000000000000001,0.1,1.5000000000000002,-0.2
1698672527318.0,16,-0.1,0.0,0.0,1.3,9.3,0.7000000000000001,0.30000000000000004,1.4,0.0
1698672527334.0,16,-0.1,0.0,0.0,1.2000000000000002,9.3,0.6000000000000001,0.7,0.9,0.4
1698672527351.0,16,-0.1,0.0,0.0,1.3,9.3,0.7000000000000001,0.7,0.30000000000000004,0.2
1698672527367.0,16,0.0,0.0,0.0,1.3,9.3,0.7000000000000001,0.8,0.1,0.2
1698672527384.0,16,0.0,0.0,0.0,1.3,9.3,0.7000000000000001,0.8,-0.2,0.5
1698672527402.0,16,-0.1,0.0,0.0,1.3,9.3,0.7000000000000001,0.6000000000000001,-0.2,0.7
1698672527418.0,16,-0.1,0.0,0.0,1.3,9.3,0.7000000000000001,0.30000000000000004,0.0,0.6000000000000001
1698672527434.0,16,-0.1,0.0,0.0,1.3,9.3,0.7000000000000001,-0.1,0.0,0.4
1698672527451.0,16,0.0,0.0,0.0,1.3,9.3,0.7000000000000001,-1.4,-0.8,0.30000000000000004
1698672527468.0,16,0.0,0.0,0.0,1.3,9.3,0.7000000000000001,-1.8,-1.0,0.1
1698672527484.0,16,0.0,0.0,0.0,1.4000000000000001,9.3,0.7000000000000001,-2.3000000000000003,-1.3,0.0
1698672527501.0,16,0.0,0.0,0.0,1.4000000000000001,9.3,0.6000000000000001,-2.1,-1.4,-0.2
1698672527518.0,16,0.1,0.0,-0.1,1.4000000000000001,9.3,0.6000000000000001,-2.1999999999999997,-1.8,-0.1
1698672527535.0,16,0.0,0.0,-0.1,1.4000000000000001,9.3,0.6000000000000001,-2.1999999999999997,-2.6,-0.30000000000000004
1698672527554.0,16,0.0,0.0,0.0,1.4000000000000001,9.3,0.7000000000000001,-1.6,-3.3000000000000003,-0.9
1698672527567.0,16,0.1,0.0,-0.1,1.5,9.3,0.6000000000000001,-0.8,-3.4,-1.6
1698672527586.0,16,0.1,0.0,0.0,1.5,9.200000000000001,0.7000000000000001,-0.30000000000000004,-3.3000000000000003,-2.0
1698672527601.0,16,0.1,0.0,0.0,1.5,9.3,0.7000000000000001,0.30000000000000004,-2.7,-1.9
1698672527617.0,16,0.1,0.0,0.0,1.5,9.3,0.7000000000000001,0.30000000000000004,-3.0000000000000004,-1.7
1698672527634.0,16,0.0,0.1,0.0,1.4000000000000001,9.4,0.6000000000000001,0.9,-2.1999999999999997,-1.5000000000000002
1698672527651.0,16,0.0,0.0,0.0,1.4000000000000001,9.3,0.6000000000000001,0.9,-2.4000000000000004,-1.5000000000000002
1698672527668.0,16,0.0,0.0,0.0,1.3,9.3,0.7000000000000001,0.4,-3.5,-2.1
1698672527684.0,16,-0.1,0.0,0.0,1.3,9.3,0.7000000000000001,0.5,-3.2,-2.7
1698672527701.0,16,0.0,0.0,0.0,1.3,9.3,0.7000000000000001,0.2,-3.0000000000000004,-3.1
1698672527718.0,16,0.0,0.0,0.1,1.3,9.3,0.7000000000000001,0.1,-2.7,-3.3000000000000003
1698672527734.0,16,0.0,0.0,0.0,1.3,9.3,0.7000000000000001,-0.2,-2.4000000000000004,-3.4
1698672527751.0,16,0.0,0.0,0.0,1.3,9.3,0.7000000000000001,-0.30000000000000004,-2.4000000000000004,-3.3000000000000003
1698672527767.0,16,0.0,0.0,0.0,1.3,9.3,0.7000000000000001,-0.7,-2.1999999999999997,-3.7000000000000006
1698672527784.0,16,0.0,0.1,0.0,1.3,9.4,0.6000000000000001,-0.9,-2.1,-3.8
1698672527801.0,16,0.0,0.1,0.0,1.3,9.4,0.6000000000000001,-1.4,-2.1,-3.7000000000000006
1698672527817.0,16,0.0,0.30000000000000004,0.0,1.3,9.600000000000001,0.6000000000000001,-2.1,-1.6,-3.6
1698672527834.0,16,0.1,0.30000000000000004,-0.1,1.4000000000000001,9.700000000000001,0.6000000000000001,-2.5,-1.3,-3.8
1698672527851.0,16,0.1,0.2,-0.1,1.3,9.600000000000001,0.6000000000000001,-4.1000000000000005,-1.2000000000000002,-4.6000000000000005
1698672527867.0,16,0.1,0.2,-0.1,1.4000000000000001,9.600000000000001,0.6000000000000001,-4.7,-1.3,-4.6000000000000005
1698672527884.0,16,0.1,0.1,-0.2,1.3,9.5,0.5,-6.9,-0.2,-4.0
1698672527900.0,16,0.1,0.30000000000000004,-0.30000000000000004,1.3,9.700000000000001,0.4,-11.1,-0.4,-4.2
1698672527917.0,16,0.1,0.5,-0.2,1.3,9.9,0.5,-12.9,-1.6,-4.800000000000001
1698672527934.0,16,0.0,0.6000000000000001,-0.30000000000000004,1.2000000000000002,10.0,0.5,-15.100000000000001,-0.1,-4.9
1698672527950.0,16,0.0,0.5,-0.5,1.2000000000000002,10.0,0.30000000000000004,-16.6,0.7,-5.2
1698672527967.0,16,0.1,0.5,-0.30000000000000004,1.4000000000000001,10.100000000000001,0.6000000000000001,-21.400000000000002,-0.2,-8.0
1698672527984.0,16,0.30000000000000004,0.7000000000000001,-0.4,1.5,10.100000000000001,0.5,-24.6,4.1000000000000005,-9.5
1698672528000.0,16,0.30000000000000004,0.6000000000000001,-0.5,1.4000000000000001,10.0,0.5,-29.000000000000004,3.7000000000000006,-7.9
1698672528018.0,16,0.2,0.6000000000000001,-0.4,1.4000000000000001,10.0,0.7000000000000001,-30.9,3.1,-6.7
1698672528034.0,16,0.1,0.5,-0.7000000000000001,1.2000000000000002,10.0,0.5,-34.7,5.300000000000001,-5.6
1698672528050.0,16,0.1,0.9,-0.6000000000000001,1.1,10.3,0.7000000000000001,-40.6,4.5,-6.6000000000000005
1698672528067.0,16,0.1,0.8,-0.8,1.2000000000000002,10.200000000000001,0.6000000000000001,-45.9,6.2,-7.0
1698672528085.0,16,0.2,0.9,-0.8,1.2000000000000002,10.3,0.8,-53.00000000000001,7.400000000000001,-7.9
1698672528100.0,16,0.2,0.9,-0.9,1.2000000000000002,10.3,0.8,-55.6,8.700000000000001,-8.5
1698672528117.0,16,0.30000000000000004,0.9,-0.9,1.3,10.3,0.9,-58.60000000000001,11.000000000000002,-8.799999999999999
1698672528134.0,16,0.5,1.0,-1.1,1.5,10.4,0.9,-64.0,12.6,-9.3
1698672528151.0,16,0.5,0.8,-1.3,1.4000000000000001,10.100000000000001,0.9,-72.4,16.1,-8.799999999999999
1698672528168.0,16,0.6000000000000001,1.0,-1.2000000000000002,1.6,10.100000000000001,1.1,-77.4,17.5,-8.4
1698672528184.0,16,0.5,1.2000000000000002,-1.4000000000000001,1.4000000000000001,10.4,1.1,-85.1,22.1,-9.200000000000001
1698672528201.0,16,0.4,1.0,-2.0,1.2000000000000002,10.100000000000001,0.9,-97.5,25.0,-8.5
1698672528219.0,16,0.30000000000000004,1.0,-1.8,1.1,10.100000000000001,1.2000000000000002,-103.9,22.900000000000002,-8.5
1698672528234.0,16,0.2,1.4000000000000001,-2.1,1.0,10.4,1.3,-113.0,25.2,-9.4
1698672528253.0,16,0.2,1.2000000000000002,-2.4000000000000004,0.9,10.0,1.3,-121.6,24.000000000000004,-9.3
1698672528269.0,16,0.30000000000000004,1.2000000000000002,-2.2,1.0,10.0,1.7000000000000002,-125.10000000000001,22.000000000000004,-9.5
1698672528284.0,16,0.4,1.5,-1.2000000000000002,1.1,10.100000000000001,3.1,-119.20000000000002,23.0,-8.9
1698672528301.0,16,0.4,1.7000000000000002,-0.8,1.0,10.3,3.6,-109.7,28.6,-7.300000000000001
1698672528317.0,16,0.30000000000000004,2.1,0.6000000000000001,0.8,10.5,5.300000000000001,-82.60000000000001,32.0,-3.9
1698672528334.0,16,0.30000000000000004,1.7000000000000002,1.5,0.7000000000000001,10.0,6.4,-60.7,41.9,-1.3
1698672528352.0,16,0.0,0.5,1.8,0.4,8.8,6.9,-78.00000000000001,26.3,-1.6
1698672528367.0,16,-1.1,0.1,2.1,-0.7000000000000001,8.1,7.6000000000000005,-105.60000000000001,7.6,-3.8
1698672528385.0,16,-1.1,0.30000000000000004,1.8,-0.8,8.200000000000001,7.4,-105.9,4.2,-4.3999999999999995
1698672528401.0,16,-1.0,-0.6000000000000001,1.5,-0.7000000000000001,7.1000000000000005,7.300000000000001,-83.8,2.1,-4.5
1698672528417.0,16,-0.6000000000000001,-1.2000000000000002,1.6,-0.30000000000000004,6.5,7.5,-66.80000000000001,1.8,-5.7
1698672528436.0,16,0.2,-1.5,1.8,0.5,6.1000000000000005,7.9,-37.900000000000006,5.6,-2.4000000000000004
1698672528451.0,16,0.2,-1.2000000000000002,1.8,0.5,6.300000000000001,8.0,-29.500000000000004,8.4,8.1
1698672528468.0,16,-0.7000000000000001,-0.4,1.6,-0.5,7.1000000000000005,7.9,-31.6,8.700000000000001,11.3
1698672528484.0,16,-0.7000000000000001,0.4,1.2000000000000002,-0.4,7.800000000000001,7.5,-29.600000000000005,8.700000000000001,10.3
1698672528501.0,16,-0.2,0.4,0.9,0.1,7.7,7.2,-18.400000000000002,0.1,7.500000000000001
1698672528517.0,16,-0.1,0.1,1.1,0.2,7.4,7.5,-9.4,-3.8,6.000000000000001
1698672528535.0,16,-0.2,-0.1,1.4000000000000001,0.2,7.2,7.800000000000001,7.500000000000001,-5.2,3.3000000000000003
1698672528551.0,16,-0.4,-0.2,1.4000000000000001,0.0,7.2,7.800000000000001,12.4,-6.6000000000000005,2.0
1698672528568.0,16,-0.4,-0.2,1.3,-0.1,7.2,7.7,12.3,-8.4,1.4
1698672528585.0,16,-0.30000000000000004,0.0,0.9,0.0,7.4,7.2,14.100000000000001,-11.4,0.2
1698672528601.0,16,-0.30000000000000004,-0.1,0.30000000000000004,0.1,7.4,6.6000000000000005,17.5,-13.200000000000001,-1.2000000000000002
1698672528617.0,16,-0.30000000000000004,-0.2,0.1,0.2,7.300000000000001,6.4,20.5,-16.6,-2.5
1698672528635.0,16,-0.4,-0.4,-0.2,0.0,7.1000000000000005,6.0,25.700000000000003,-18.7,-5.1
1698672528653.0,16,-0.5,-0.6000000000000001,-0.4,-0.1,7.0,5.7,29.900000000000006,-19.200000000000003,-6.3
1698672528668.0,16,-0.5,-0.7000000000000001,-0.4,0.0,6.9,5.6000000000000005,33.800000000000004,-21.8,-7.2
1698672528684.0,16,-0.5,-0.9,-0.5,0.0,6.800000000000001,5.5,34.900000000000006,-20.900000000000002,-7.300000000000001
1698672528701.0,16,-0.30000000000000004,-1.2000000000000002,-0.7000000000000001,0.2,6.6000000000000005,5.1000000000000005,36.800000000000004,-19.400000000000002,-6.3
1698672528717.0,16,-0.2,-1.3,-1.1,0.30000000000000004,6.5,4.7,38.0,-19.8,-3.7000000000000006
1698672528734.0,16,-0.2,-1.4000000000000001,-1.2000000000000002,0.4,6.4,4.5,39.1,-19.200000000000003,-2.1999999999999997
1698672528751.0,16,-0.1,-1.4000000000000001,-1.2000000000000002,0.5,6.6000000000000005,4.4,44.8,-17.400000000000002,0.30000000000000004
1698672528767.0,16,-0.1,-1.3,-1.5,0.5,6.7,3.9000000000000004,52.6,-16.8,2.3000000000000003
1698672528786.0,16,0.0,-1.2000000000000002,-1.3,0.6000000000000001,6.9,4.0,58.1,-18.2,3.2
1698672528801.0,16,0.1,-0.8,-1.4000000000000001,0.8,7.300000000000001,3.8000000000000003,67.80000000000001,-16.3,4.0
1698672528817.0,16,0.1,-0.8,-1.3,0.8,7.4,3.7,70.9,-15.6,3.9
1698672528834.0,16,-0.1,-0.9,-0.9,0.7000000000000001,7.5,3.9000000000000004,75.60000000000001,-16.0,4.6000000000000005
1698672528851.0,16,-0.30000000000000004,-0.9,-0.8,0.5,7.6000000000000005,3.7,77.80000000000001,-16.900000000000002,6.3
1698672528868.0,16,-0.4,-0.8,-0.7000000000000001,0.5,7.7,3.6,74.30000000000001,-15.7,6.2
1698672528884.0,16,-0.30000000000000004,-0.8,-0.5,0.6000000000000001,7.9,3.6,68.9,-15.9,2.8
1698672528901.0,16,-0.30000000000000004,-0.9,-0.4,0.6000000000000001,7.800000000000001,3.6,66.4,-15.100000000000001,0.2
1698672528917.0,16,-0.2,-1.3,-0.6000000000000001,0.7000000000000001,7.5,3.2,61.1,-12.4,-5.1
1698672528934.0,16,-0.30000000000000004,-1.6,-0.6000000000000001,0.6000000000000001,7.2,3.1,58.00000000000001,-11.9,-6.6000000000000005
1698672528952.0,16,-0.2,-2.2,-0.4,0.7000000000000001,6.7,3.1,52.0,-13.4,-5.8
1698672528967.0,16,-0.30000000000000004,-2.3000000000000003,-0.2,0.4,6.5,3.4000000000000004,50.5,-16.6,-2.7
1698672528984.0,16,-0.6000000000000001,-2.5,0.1,0.30000000000000004,6.4,3.4000000000000004,50.9,-17.599999999999998,-0.9
1698672529001.0,16,-0.7000000000000001,-2.6,0.5,0.2,6.4,3.6,52.300000000000004,-17.200000000000003,1.3
1698672529017.0,16,-0.7000000000000001,-2.3000000000000003,1.0,0.2,6.7,3.9000000000000004,54.0,-19.500000000000004,0.1
1698672529034.0,16,-0.6000000000000001,-2.0,1.2000000000000002,0.4,7.5,4.2,51.900000000000006,-29.800000000000004,2.0
1698672529051.0,16,-0.6000000000000001,-1.0,1.5,0.4,8.0,4.2,46.800000000000004,-34.800000000000004,5.1
1698672529067.0,16,-0.8,-0.5,1.6,0.30000000000000004,8.6,4.2,30.5,-37.1,9.200000000000001
1698672529084.0,16,-0.5,-0.8,1.0,0.6000000000000001,8.200000000000001,3.6,9.0,-31.2,3.8
1698672529101.0,16,0.0,-1.0,0.8,1.1,8.0,3.4000000000000004,-0.5,-31.6,-0.7
1698672529117.0,16,1.0,-1.7000000000000002,0.2,2.1,7.300000000000001,2.8000000000000003,-15.100000000000001,-25.400000000000002,-11.5
1698672529134.0,16,1.4000000000000001,-1.4000000000000001,0.1,2.8000000000000003,8.3,3.0,-21.700000000000003,-15.8,-17.1
1698672529152.0,16,2.0,0.1,0.5,3.0,9.1,3.2,-28.500000000000004,3.8,-24.7
1698672529167.0,16,1.9000000000000001,1.3,0.4,2.8000000000000003,10.4,3.2,-26.0,9.700000000000001,-20.900000000000002
1698672529184.0,16,1.5,1.4000000000000001,-0.4,2.7,10.600000000000001,2.9000000000000004,-24.3,8.3,-13.100000000000001
1698672529200.0,16,1.0,0.7000000000000001,-0.8,1.9000000000000001,9.700000000000001,2.2,-26.0,1.7,20.7
1698672529218.0,16,0.30000000000000004,0.4,-0.9,1.4000000000000001,9.4,2.1,-26.8,2.1999999999999997,26.700000000000003
1698672529234.0,16,-0.1,0.2,-1.0,0.9,9.200000000000001,2.0,-27.3,3.1,29.300000000000004
1698672529251.0,16,-0.30000000000000004,0.30000000000000004,-0.9,0.8,9.200000000000001,2.2,-26.200000000000003,-3.8,26.1
1698672529268.0,16,-0.2,0.1,-1.1,1.0,9.0,2.0,-25.0,-4.5,11.2
1698672529285.0,16,-0.2,-0.5,-1.3,1.0,8.4,1.9000000000000001,-26.8,2.1,1.3
1698672529301.0,16,0.2,-1.2000000000000002,-1.2000000000000002,1.4000000000000001,7.6000000000000005,2.1,-30.100000000000005,3.1,-7.0
1698672529318.0,16,0.6000000000000001,-1.3,-1.5,1.7000000000000002,7.5,1.9000000000000001,-32.300000000000004,7.6,-8.4
1698672529334.0,16,0.6000000000000001,-1.4000000000000001,-1.7000000000000002,1.8,7.4,1.7000000000000002,-34.300000000000004,13.200000000000001,-8.3
1698672529351.0,16,0.9,-1.4000000000000001,-2.0,2.0,7.300000000000001,1.5,-38.6,22.2,-7.2
1698672529367.0,16,1.0,-1.2000000000000002,-2.2,2.1,7.4,1.4000000000000001,-40.9,24.7,-6.4
1698672529384.0,16,0.6000000000000001,-0.5,-2.3000000000000003,1.6,8.1,1.4000000000000001,-39.00000000000001,20.5,-2.3000000000000003
1698672529401.0,16,0.1,0.0,-2.4000000000000004,1.1,8.5,1.4000000000000001,-36.1,15.399999999999999,2.6
1698672529417.0,16,-1.1,0.4,-2.7,0.0,8.9,1.2000000000000002,-26.3,3.7000000000000006,13.3
1698672529434.0,16,-1.3,0.6000000000000001,-2.7,-0.30000000000000004,9.1,1.2000000000000002,-22.000000000000004,-1.0999999999999999,17.599999999999998
1698672529451.0,16,-0.9,1.0,-2.4000000000000004,0.2,9.5,1.5,-10.0,-12.5,15.299999999999999
1698672529468.0,16,-0.1,1.3,-2.1,1.0,9.8,1.8,6.5,-20.7,-4.1000000000000005
1698672529484.0,16,0.9,0.9,-2.0,2.0,9.5,1.8,19.6,-19.200000000000003,-18.6
1698672529500.0,16,1.6,1.0,-1.7000000000000002,2.7,9.600000000000001,2.0,25.1,-13.3,-21.400000000000002
1698672529517.0,16,1.9000000000000001,1.1,-1.3,3.0,9.8,2.4000000000000004,26.8,-9.4,-20.6
1698672529535.0,16,2.2,1.5,-0.7000000000000001,3.5,11.0,3.4000000000000004,30.599999999999998,-8.5,-18.2
1698672529551.0,16,2.7,3.1,0.1,3.8000000000000003,11.8,3.6,45.9,-20.2,-12.100000000000001
1698672529568.0,16,2.5,3.5,1.5,3.6,12.4,4.800000000000001,59.80000000000001,-22.3,-5.4
1698672529585.0,16,0.8,4.1000000000000005,2.7,1.9000000000000001,13.100000000000001,5.800000000000001,72.8,-8.3,5.0
1698672529601.0,16,-0.9,3.3000000000000003,2.1,0.30000000000000004,12.4,5.0,72.0,-16.0,8.5
1698672529618.0,16,-1.2000000000000002,1.9000000000000001,1.6,0.0,11.0,4.4,57.699999999999996,-12.100000000000001,4.2
1698672529635.0,16,-0.7000000000000001,-1.2000000000000002,1.4000000000000001,0.4,7.9,4.1000000000000005,17.200000000000003,6.9,-15.000000000000002
1698672529651.0,16,-0.5,-2.0,1.7000000000000002,0.6000000000000001,7.1000000000000005,4.5,2.9,12.000000000000002,-24.5
1698672529667.0,16,0.4,-2.8000000000000003,1.8,1.4000000000000001,6.300000000000001,4.6000000000000005,-5.7,11.1,-25.6
1698672529684.0,16,0.8,-2.9000000000000004,1.9000000000000001,1.9000000000000001,6.4,4.6000000000000005,-2.5,11.5,-13.5
1698672529701.0,16,0.8,-2.2,1.7000000000000002,1.7000000000000002,6.9,4.5,1.5000000000000002,16.900000000000002,-6.6000000000000005
1698672529717.0,16,-0.2,-0.9,1.3,0.7000000000000001,8.1,4.1000000000000005,11.000000000000002,23.1,2.7
1698672529734.0,16,-1.3,0.30000000000000004,0.6000000000000001,0.1,8.700000000000001,3.7,14.200000000000001,22.1,4.0
1698672529750.0,16,-1.7000000000000002,0.7000000000000001,0.4,-0.8,9.8,3.1,15.2,19.1,3.9
1698672529767.0,16,-2.2,0.4,0.30000000000000004,-1.3,9.5,3.0,8.200000000000001,2.8,-0.6000000000000001
1698672529784.0,16,-2.0,-0.6000000000000001,0.5,-1.2000000000000002,8.5,3.2,6.1000000000000005,-3.2,-7.1000000000000005
1698672529801.0,16,-1.6,-1.2000000000000002,0.2,-0.8,7.800000000000001,2.9000000000000004,6.1000000000000005,1.8,-17.8
1698672529817.0,16,-1.4000000000000001,-1.3,0.1,-0.7000000000000001,7.800000000000001,2.7,5.1,6.4,-22.1
1698672529834.0,16,-1.1,-1.4000000000000001,-0.1,-0.5,7.7,2.6,4.0,9.4,-24.8
1698672529851.0,16,-0.7000000000000001,-1.1,0.0,-0.1,8.0,2.7,2.9,7.8,-25.6
1698672529868.0,16,-0.4,-0.6000000000000001,0.0,0.1,8.4,2.7,4.2,4.1000000000000005,-23.6
1698672529885.0,16,0.1,-0.7000000000000001,-0.2,0.30000000000000004,8.5,2.6,4.2,3.1,-22.4
1698672529901.0,16,0.30000000000000004,-0.9,-0.4,0.6000000000000001,8.200000000000001,2.2,0.5,11.1,-17.7
1698672529918.0,16,0.30000000000000004,-0.8,-0.6000000000000001,0.6000000000000001,8.3,2.1,-1.5000000000000002,15.299999999999999,-15.6
1698672529935.0,16,0.0,-0.5,-0.9,0.30000000000000004,8.5,1.8,-6.4,16.900000000000002,-8.200000000000001
1698672529951.0,16,-0.1,-0.30000000000000004,-1.1,0.2,8.8,1.6,-9.5,15.5,-3.6
1698672529968.0,16,-0.5,-0.2,-1.4000000000000001,-0.2,8.8,1.3,-17.200000000000003,11.9,4.5
1698672529984.0,16,-0.7000000000000001,-0.6000000000000001,-1.6,-0.5,8.5,1.1,-24.8,11.5,7.9
1698672530001.0,16,-0.7000000000000001,-0.8,-1.8,-0.5,8.3,1.0,-28.0,11.700000000000001,8.5
1698672530018.0,16,-0.6000000000000001,-1.0,-1.7000000000000002,-0.30000000000000004,8.0,1.1,-30.7,11.000000000000002,6.4
1698672530034.0,16,-0.5,-1.0,-1.7000000000000002,-0.2,8.0,1.1,-27.0,9.0,4.5
1698672530051.0,16,-0.30000000000000004,-0.7000000000000001,-1.9000000000000001,-0.1,8.200000000000001,1.1,-24.200000000000003,8.700000000000001,5.7
1698672530067.0,16,-0.4,0.30000000000000004,-1.8,-0.1,9.200000000000001,1.2000000000000002,-18.2,8.200000000000001,10.700000000000001
1698672530084.0,16,-0.1,2.2,-0.6000000000000001,0.2,11.100000000000001,2.4000000000000004,-3.5,3.4,16.1
1698672530101.0,16,0.1,3.0,-0.2,0.5,12.0,2.8000000000000003,10.3,-1.6,16.5
1698672530119.0,16,0.2,3.1,-0.6000000000000001,0.7000000000000001,12.0,1.6,38.1,11.4,14.4
1698672530134.0,16,0.30000000000000004,2.8000000000000003,-1.7000000000000002,0.7000000000000001,11.9,1.1,33.900000000000006,18.6,15.100000000000001
1698672530151.0,16,0.1,3.1,-1.6,0.6000000000000001,12.100000000000001,1.1,15.8,23.8,17.599999999999998
1698672530168.0,16,0.0,3.5,-1.2000000000000002,0.5,12.600000000000001,1.5,7.400000000000001,23.400000000000002,16.700000000000003
1698672530184.0,16,-0.4,3.5,-0.30000000000000004,0.1,12.600000000000001,2.4000000000000004,1.5000000000000002,22.7,15.100000000000001
1698672530201.0,16,-0.9,1.8,0.30000000000000004,-0.30000000000000004,10.9,3.0,5.9,16.400000000000002,21.1
1698672530218.0,16,-1.0,-0.5,2.4000000000000004,-0.4,8.700000000000001,5.0,25.2,1.0999999999999999,23.5
1698672530236.0,16,-1.1,-1.3,2.9000000000000004,-0.5,7.9,5.5,42.800000000000004,-7.500000000000001,19.3
1698672530251.0,16,-1.0,-1.7000000000000002,3.0,-0.4,7.5,5.5,59.7,-14.100000000000001,12.3
1698672530267.0,16,-0.5,-1.8,2.9000000000000004,0.30000000000000004,7.800000000000001,5.2,70.3,2.1,-12.000000000000002
1698672530284.0,16,-0.4,-1.0,3.1,0.2,8.3,5.300000000000001,61.50000000000001,0.7,-12.3
1698672530300.0,16,-0.4,0.8,3.2,0.2,10.100000000000001,5.2,25.700000000000003,-6.9,-0.9
1698672530317.0,16,-0.4,1.8,2.7,0.2,11.3,3.8000000000000003,1.7,-1.0,5.300000000000001
1698672530334.0,16,-0.30000000000000004,1.4000000000000001,1.3,0.30000000000000004,10.700000000000001,3.4000000000000004,-40.3,4.5,6.8
1698672530354.0,16,0.2,0.30000000000000004,1.1,0.8,9.600000000000001,3.4000000000000004,-52.300000000000004,0.7,-3.2
1698672530367.0,16,0.4,0.1,0.8,1.0,9.3,3.2,-49.3,-1.0,-8.9
1698672530384.0,16,0.8,-0.5,0.4,1.4000000000000001,8.700000000000001,2.9000000000000004,-37.900000000000006,-1.0999999999999999,-15.000000000000002
1698672530402.0,16,1.0,-1.2000000000000002,0.30000000000000004,1.6,7.9,2.9000000000000004,-22.6,2.0,-13.700000000000001
1698672530418.0,16,1.1,-2.1,0.1,1.6,7.0,2.8000000000000003,-6.8,3.2,-7.699999999999999
1698672530435.0,16,1.1,-2.5,0.0,1.6,6.7,2.7,-0.4,3.9,-3.0000000000000004
1698672530450.0,16,0.9,-2.9000000000000004,-0.2,1.4000000000000001,6.4,2.5,4.1000000000000005,3.8,2.1999999999999997
1698672530468.0,16,0.8,-2.9000000000000004,-0.30000000000000004,1.4000000000000001,6.300000000000001,2.4000000000000004,7.500000000000001,0.4,13.6
1698672530484.0,16,0.5,-2.3000000000000003,0.1,1.1,6.800000000000001,2.7,6.000000000000001,-0.7,22.000000000000004
1698672530501.0,16,0.1,-1.3,0.2,0.8,7.800000000000001,2.8000000000000003,3.6,5.2,22.6
1698672530517.0,16,0.0,-0.8,0.2,0.6000000000000001,8.700000000000001,2.5,0.2,8.200000000000001,16.5
1698672530534.0,16,-0.30000000000000004,-0.30000000000000004,-0.5,0.5,8.700000000000001,2.2,-3.1,10.1,12.100000000000001
1698672530552.0,16,-0.30000000000000004,-0.8,-1.1,0.4,8.3,1.6,-13.100000000000001,14.700000000000001,1.5000000000000002
1698672530570.0,16,-0.30000000000000004,-1.1,-1.3,0.5,7.9,1.4000000000000001,-17.3,14.3,-3.3000000000000003
1698672530584.0,16,-0.2,-1.8,-1.7000000000000002,0.5,7.2,1.0,-22.6,7.699999999999999,-9.200000000000001
1698672530601.0,16,0.30000000000000004,-2.0,-2.0,0.9,7.0,0.8,-27.5,3.6,-11.000000000000002
1698672530617.0,16,0.8,-1.2000000000000002,-2.0,1.4000000000000001,7.7,0.9,-31.5,4.800000000000001,-12.200000000000001
1698672530634.0,16,1.2000000000000002,-0.5,-1.6,1.8,8.4,1.3,-31.0,6.000000000000001,-13.5
1698672530650.0,16,1.0,1.4000000000000001,-0.1,1.5,10.3,2.9000000000000004,-14.500000000000002,5.0,-14.800000000000002
1698672530668.0,16,0.30000000000000004,2.2,0.1,1.0,11.0,3.3000000000000003,2.5,6.8,-10.600000000000001
1698672530685.0,16,0.1,1.7000000000000002,-0.4,0.7000000000000001,10.700000000000001,2.5,33.2,18.3,5.9
1698672530701.0,16,0.30000000000000004,0.6000000000000001,-0.9,0.8,9.600000000000001,1.9000000000000001,44.3,13.0,12.3
1698672530717.0,16,0.8,0.9,-0.7000000000000001,1.4000000000000001,9.9,1.9000000000000001,38.800000000000004,-4.1000000000000005,8.4
1698672530734.0,16,1.2000000000000002,1.7000000000000002,-0.5,1.8,10.8,2.0,29.600000000000005,-2.0,5.4
1698672530751.0,16,1.4000000000000001,3.0,0.0,2.1,12.100000000000001,2.5,7.6,17.5,-0.6000000000000001
1698672530768.0,16,1.2000000000000002,3.2,0.5,1.8,12.3,3.0,0.5,17.599999999999998,-1.2000000000000002
1698672530784.0,16,0.9,2.9000000000000004,0.4,1.5,12.0,3.0,0.5,-3.9,2.7
1698672530801.0,16,0.4,1.0,0.7000000000000001,1.0,10.200000000000001,3.2,-3.1,5.4,2.0
1698672530817.0,16,-0.30000000000000004,-0.9,2.5,0.30000000000000004,8.3,5.1000000000000005,10.8,13.9,3.0000000000000004
1698672530834.0,16,-0.6000000000000001,-1.2000000000000002,3.4000000000000004,0.0,8.0,5.9,10.8,13.9,3.0000000000000004
1698672530851.0,16,-0.9,-0.7000000000000001,3.5,-0.2,8.5,5.800000000000001,63.6,-13.8,24.5
1698672530868.0,16,-0.9,-0.2,3.3000000000000003,-0.1,9.1,5.5,70.8,-13.4,32.4
1698672530887.0,16,-0.6000000000000001,0.4,3.3000000000000003,0.2,9.700000000000001,5.4,68.2,-16.400000000000002,34.2
1698672530901.0,16,-0.2,0.4,3.2,0.8,9.700000000000001,5.1000000000000005,58.3,-21.700000000000003,27.8
1698672530917.0,16,0.0,1.4000000000000001,2.2,1.0,10.700000000000001,4.2,-14.4,2.8,-3.7000000000000006
1698672530934.0,16,-0.30000000000000004,1.5,1.7000000000000002,0.6000000000000001,10.8,3.7,-35.7,7.2,-8.3
1698672530951.0,16,-1.1,0.7000000000000001,1.2000000000000002,-0.2,9.9,3.4000000000000004,-54.2,8.4,-6.4
1698672530967.0,16,-1.2000000000000002,-0.4,0.6000000000000001,-0.2,9.3,3.1,-54.9,7.300000000000001,-5.9
1698672530984.0,16,-1.1,-0.7000000000000001,0.6000000000000001,-0.30000000000000004,8.5,3.0,-46.1,-7.6,-4.300000000000001
1698672531001.0,16,-1.2000000000000002,-1.0,0.0,-0.30000000000000004,8.200000000000001,2.6,-30.9,-16.8,-4.9
1698672531017.0,16,-1.6,-1.5,-0.30000000000000004,-0.8,7.7,2.3000000000000003,-17.400000000000002,-27.0,-5.6
1698672531034.0,16,-2.1,-1.8,-0.30000000000000004,-1.0,7.5,2.3000000000000003,-10.8,-33.0,-6.2
1698672531051.0,16,-2.1,-1.8,-0.30000000000000004,-1.3,7.300000000000001,2.3000000000000003,0.4,-44.2,-9.8
1698672531067.0,16,-2.1,-1.6,-0.4,-1.3,7.5,2.2,5.0,-45.4,-19.6
1698672531084.0,16,-1.7000000000000002,-1.3,-0.30000000000000004,-0.9,7.800000000000001,2.3000000000000003,3.3000000000000003,-37.800000000000004,-34.800000000000004
1698672531101.0,16,-1.1,-1.1,-0.2,-0.4,8.0,2.3000000000000003,1.6,-35.6,-42.900000000000006
1698672531118.0,16,0.1,-0.8,-0.2,0.7000000000000001,8.3,2.3000000000000003,-1.9,-41.2,-49.7
1698672531134.0,16,0.5,-0.7000000000000001,-0.30000000000000004,1.3,8.6,2.0,-9.0,-36.4,-41.7
1698672531151.0,16,1.1,-0.4,-0.8,1.5,8.700000000000001,1.8,-13.700000000000001,-32.800000000000004,-34.50000000000001
1698672531167.0,16,1.2000000000000002,-0.8,-1.4000000000000001,1.6,8.3,1.2000000000000002,-24.6,-27.1,-17.599999999999998
1698672531185.0,16,1.0,-1.1,-1.6,1.4000000000000001,8.0,1.0,-29.600000000000005,-25.8,-9.200000000000001
1698672531202.0,16,0.4,-1.3,-2.0,0.8,7.7,0.7000000000000001,-38.1,-25.700000000000003,2.9
1698672531217.0,16,-0.2,-1.2000000000000002,-2.2,0.2,7.800000000000001,0.6000000000000001,-41.800000000000004,-32.7,6.4
1698672531236.0,16,-0.5,-0.9,-2.1,0.0,8.0,0.8,-41.2,-38.6,7.400000000000001
1698672531252.0,16,-0.7000000000000001,-0.30000000000000004,-1.4000000000000001,-0.1,8.6,1.6,-32.0,-42.800000000000004,8.9
1698672531267.0,16,-0.8,0.1,-0.8,-0.2,9.0,2.3000000000000003,-11.3,-32.300000000000004,8.5
1698672531284.0,16,-0.5,-0.1,-0.8,0.2,8.8,2.2,1.7,-26.1,7.300000000000001
1698672531301.0,16,0.8,0.1,-0.2,1.5,9.0,2.8000000000000003,25.5,-23.900000000000002,-0.30000000000000004
1698672531318.0,16,1.9000000000000001,0.9,0.4,2.6,9.9,3.2,46.1,-8.0,-8.0
1698672531334.0,16,1.9000000000000001,1.6,0.2,2.6,10.600000000000001,2.9000000000000004,53.1,15.000000000000002,-6.6000000000000005
1698672531351.0,16,1.4000000000000001,1.6,-0.4,2.1,10.700000000000001,2.2,47.0,22.3,0.5
1698672531368.0,16,-0.4,2.0,-1.8,0.30000000000000004,11.100000000000001,0.7000000000000001,10.5,21.0,24.3
1698672531385.0,16,-1.9000000000000001,2.8000000000000003,-1.7000000000000002,-1.2000000000000002,11.9,0.9,-34.1,9.4,33.0
1698672531405.0,16,-1.8,2.7,-1.0,-0.5,12.0,2.2,-49.1,0.2,28.400000000000002
1698672531417.0,16,-1.0,3.5,-0.5,-0.1,12.5,2.3000000000000003,-47.6,7.8,21.200000000000003
1698672531434.0,16,-0.5,3.5,0.1,0.30000000000000004,12.5,3.1,-40.7,32.9,3.1
1698672531451.0,16,0.0,2.9000000000000004,1.0,0.8,11.9,4.0,-28.6,37.6,-6.6000000000000005
1698672531467.0,16,1.0,1.0,1.9000000000000001,1.3,10.9,4.7,-7.300000000000001,30.100000000000005,-15.9
1698672531484.0,16,1.3,-0.8,2.2,2.0,8.200000000000001,5.1000000000000005,58.60000000000001,14.4,-19.500000000000004
1698672531500.0,16,1.0,-1.5,2.3000000000000003,1.7000000000000002,7.6000000000000005,5.1000000000000005,72.9,16.8,-13.6
1698672531517.0,16,0.0,-1.9000000000000001,2.1,0.6000000000000001,7.300000000000001,4.6000000000000005,83.30000000000001,15.7,4.6000000000000005
1698672531535.0,16,-0.7000000000000001,-1.4000000000000001,2.2,-0.4,8.4,4.7,69.5,6.2,20.2
1698672531551.0,16,-1.4000000000000001,-0.30000000000000004,2.6,-0.7000000000000001,8.9,4.9,56.5,4.300000000000001,22.2
1698672531567.0,16,-1.3,0.8,2.4000000000000004,-0.6000000000000001,10.100000000000001,4.5,19.9,3.1,11.4
1698672531584.0,16,-0.30000000000000004,0.7000000000000001,2.1,0.4,10.0,4.4,-21.200000000000003,13.0,-5.6
1698672531601.0,16,0.1,0.4,1.9000000000000001,0.8,9.600000000000001,4.2,-32.800000000000004,15.8,-10.4
1698672531617.0,16,0.6000000000000001,-0.5,1.5,1.2000000000000002,8.700000000000001,3.9000000000000004,-39.50000000000001,22.8,-17.5
1698672531635.0,16,0.8,-0.9,1.2000000000000002,1.4000000000000001,8.3,3.7,-32.2,26.500000000000004,-20.0
1698672531651.0,16,1.0,-1.6,0.7000000000000001,1.5,7.5,3.3000000000000003,-25.900000000000002,25.6,-18.6
1698672531667.0,16,0.9,-2.1,0.30000000000000004,1.4000000000000001,7.0,2.9000000000000004,-12.200000000000001,22.5,-9.5
1698672531684.0,16,0.9,-2.1,0.1,1.4000000000000001,7.0,2.8000000000000003,1.0,15.5,2.7
1698672531701.0,16,0.8,-2.0,0.30000000000000004,1.2000000000000002,7.2,3.0,7.6,11.6,8.200000000000001
1698672531717.0,16,0.30000000000000004,-1.5,0.7000000000000001,0.9,7.7,3.3000000000000003,19.700000000000003,13.200000000000001,13.200000000000001
1698672531734.0,16,0.2,-1.3,0.8,0.7000000000000001,7.800000000000001,3.3000000000000003,24.3,13.0,12.700000000000001
1698672531751.0,16,0.1,-1.2000000000000002,0.8,0.7000000000000001,7.9,3.3000000000000003,26.8,13.3,9.8
1698672531767.0,16,0.0,-1.0,0.7000000000000001,0.6000000000000001,8.1,3.1,19.1,16.6,6.6000000000000005
1698672531784.0,16,-0.1,-0.8,0.4,0.5,8.4,2.8000000000000003,5.4,18.6,4.0
1698672531801.0,16,-0.2,-0.5,0.2,0.4,8.6,2.6,-2.3000000000000003,17.9,2.0
1698672531817.0,16,-0.30000000000000004,-0.30000000000000004,-0.2,0.2,8.8,2.3000000000000003,-15.8,18.400000000000002,-3.2
1698672531834.0,16,-0.30000000000000004,-0.4,-0.30000000000000004,0.2,8.700000000000001,2.2,-20.2,19.3,-6.1000000000000005
1698672531851.0,16,-0.1,-0.7000000000000001,-0.6000000000000001,0.4,8.4,1.9000000000000001,-23.1,22.000000000000004,-11.3
1698672531867.0,16,0.5,-1.3,-0.9,0.9,7.800000000000001,1.8,-21.5,25.3,-13.700000000000001
1698672531884.0,16,1.1,-1.1,-0.7000000000000001,1.4000000000000001,8.0,2.0,-16.900000000000002,29.900000000000006,-11.700000000000001
1698672531901.0,16,1.7000000000000002,-1.1,-0.5,2.0,7.9,2.2,-3.9,34.300000000000004,-10.600000000000001
1698672531918.0,16,1.7000000000000002,-1.2000000000000002,-0.5,2.0,7.800000000000001,2.2,4.0,35.8,-9.200000000000001
1698672531934.0,16,1.8,-0.9,-0.5,2.1,8.1,2.2,18.3,53.6,-2.9
1698672531952.0,16,1.8,-0.7000000000000001,-0.6000000000000001,2.0,8.4,2.0,23.8,64.0,1.0
1698672531967.0,16,1.6,0.2,-0.7000000000000001,1.8,9.3,1.9000000000000001,30.799999999999997,67.3,10.2
1698672531984.0,16,1.3,0.9,-0.5,1.5,10.0,2.0,32.9,59.9,15.8
1698672532002.0,16,0.5,2.3000000000000003,-0.30000000000000004,0.7000000000000001,11.5,2.1,34.6,46.1,28.3
1698672532017.0,16,0.0,3.1,-0.4,0.30000000000000004,12.3,1.9000000000000001,30.299999999999997,43.400000000000006,28.900000000000002
1698672532034.0,16,0.0,2.7,0.1,0.4,11.9,2.3000000000000003,18.5,47.900000000000006,16.8
1698672532052.0,16,0.0,2.6,0.4,0.4,11.8,2.6,12.700000000000001,53.9,12.000000000000002
1698672532068.0,16,0.7000000000000001,1.9000000000000001,0.6000000000000001,1.0,11.200000000000001,2.8000000000000003,1.9,53.8,12.3
1698672532084.0,16,0.9,1.2000000000000002,1.1,1.2000000000000002,10.4,3.3000000000000003,-2.1999999999999997,54.800000000000004,13.6
1698672532101.0,16,0.7000000000000001,0.6000000000000001,1.9000000000000001,1.0,9.9,4.1000000000000005,-2.1999999999999997,65.4,17.5
1698672532117.0,16,-0.2,0.4,2.7,0.2,9.700000000000001,5.0,9.5,66.5,28.400000000000002
1698672532134.0,16,-1.0,0.30000000000000004,2.8000000000000003,-0.2,9.600000000000001,5.0,17.1,65.7,32.7
1698672532151.0,16,-1.4000000000000001,0.1,2.8000000000000003,-0.9,9.4,4.9,26.1,62.8,37.1
1698672532168.0,16,-1.6,-0.2,2.4000000000000004,-1.1,9.1,4.5,24.1,60.599999999999994,40.8
1698672532184.0,16,-1.6,-0.30000000000000004,2.0,-1.0,9.0,4.1000000000000005,10.4,60.00000000000001,38.6
1698672532201.0,16,-1.5,-0.2,1.8,-0.9,9.1,4.0,-7.9,62.4,27.2
1698672532217.0,16,-1.2000000000000002,0.2,1.6,-0.5,9.5,3.9000000000000004,-22.7,70.39999999999999,13.700000000000001
1698672532234.0,16,-0.9,0.4,1.4000000000000001,-0.30000000000000004,9.700000000000001,3.7,-27.3,74.8,8.9
1698672532250.0,16,-0.8,0.4,1.0,-0.2,9.700000000000001,3.4000000000000004,-30.7,75.7,7.9
1698672532269.0,16,-0.9,0.2,0.6000000000000001,-0.4,9.4,3.0,-30.5,75.5,10.0
1698672532284.0,16,-1.2000000000000002,-0.30000000000000004,-0.1,-0.7000000000000001,8.9,2.5,-29.300000000000004,66.5,13.3
1698672532300.0,16,-1.6,-0.2,0.1,-1.0,9.0,2.8000000000000003,-22.900000000000002,49.4,18.8
1698672532318.0,16,-1.4000000000000001,0.0,0.2,-0.7000000000000001,9.1,2.9000000000000004,-18.0,49.1,19.700000000000003
1698672532334.0,16,-1.2000000000000002,-0.4,0.4,-0.7000000000000001,8.8,3.2,-8.200000000000001,57.3,14.4
1698672532353.0,16,-0.6000000000000001,-1.0,0.6000000000000001,-0.2,8.1,3.4000000000000004,1.7,67.80000000000001,6.4
1698672532367.0,16,-0.30000000000000004,-1.2000000000000002,0.4,0.1,8.0,3.2,4.0,68.3,6.7
1698672532384.0,16,-0.30000000000000004,-1.2000000000000002,0.4,0.1,7.9,3.1,-1.8,70.39999999999999,14.100000000000001
1698672532401.0,16,-0.5,-0.5,0.6000000000000001,-0.1,8.6,3.4000000000000004,-12.200000000000001,72.30000000000001,22.6
1698672532418.0,16,-0.6000000000000001,-0.4,0.6000000000000001,-0.2,8.700000000000001,3.5,-16.3,74.0,24.400000000000002
1698672532434.0,16,-0.8,-0.6000000000000001,0.30000000000000004,-0.5,8.4,3.2,-20.2,78.00000000000001,26.400000000000002
1698672532450.0,16,-1.1,-1.0,0.0,-0.7000000000000001,8.0,3.0,-18.2,80.6,29.900000000000006
1698672532467.0,16,-1.1,-1.2000000000000002,-0.2,-0.7000000000000001,7.800000000000001,2.9000000000000004,-15.9,81.4,31.099999999999998
1698672532485.0,16,-1.0,-1.3,-0.6000000000000001,-0.6000000000000001,7.7,2.5,-10.2,79.5,30.9
1698672532501.0,16,-0.9,-1.1,-0.6000000000000001,-0.6000000000000001,8.200000000000001,2.5,-3.9,77.80000000000001,29.800000000000004
1698672532517.0,16,-1.0,-0.6000000000000001,-0.6000000000000001,-0.6000000000000001,8.4,2.5,0.30000000000000004,78.5,31.099999999999998
1698672532534.0,16,-1.2000000000000002,-0.7000000000000001,-0.7000000000000001,-0.8,8.3,2.4000000000000004,9.700000000000001,78.4,36.3
1698672532551.0,16,-1.2000000000000002,-0.9,-0.7000000000000001,-0.7000000000000001,8.0,2.4000000000000004,19.200000000000003,77.1,38.0
1698672532578.0,16,-0.8,-0.9,-0.5,-0.4,8.1,2.4000000000000004,26.0,75.5,39.00000000000001
1698672532584.0,16,-0.6000000000000001,-0.8,-0.4,-0.1,8.200000000000001,2.6,28.3,75.9,40.4
1698672532601.0,16,-0.5,-0.7000000000000001,-0.1,0.1,8.3,2.7,30.9,77.2,45.800000000000004
1698672532618.0,16,-0.5,-0.6000000000000001,0.2,0.1,8.4,3.0,31.5,77.7,49.5
1698672532635.0,16,-0.5,0.30000000000000004,1.5,0.1,9.3,4.2,40.4,75.0,53.00000000000001
1698672532650.0,16,-0.1,2.4000000000000004,2.1,0.6000000000000001,11.4,4.7,51.6,78.10000000000001,42.400000000000006
1698672532667.0,16,0.0,2.9000000000000004,1.9000000000000001,0.7000000000000001,12.0,4.4,53.50000000000001,83.50000000000001,33.400000000000006
1698672532685.0,16,-0.9,1.5,1.0,-0.2,10.600000000000001,3.4000000000000004,41.7,99.2,17.0
1698672532701.0,16,-2.2,-0.4,0.5,-1.5,8.8,2.8000000000000003,18.900000000000002,99.8,18.7
1698672532718.0,16,-2.0,-0.5,0.7000000000000001,-1.3,8.700000000000001,3.1,1.6,76.9,26.200000000000003
1698672532734.0,16,-1.4000000000000001,-0.5,1.0,-0.7000000000000001,8.6,3.4000000000000004,-4.1000000000000005,67.80000000000001,24.8
1698672532753.0,16,1.0,-0.5,1.6,1.6,8.6,4.1000000000000005,-11.000000000000002,69.7,11.8
1698672532767.0,16,3.1,0.1,2.1,3.7,9.3,4.7,-10.8,74.10000000000001,0.1
1698672532784.0,16,3.1,0.6000000000000001,2.1,3.7,9.700000000000001,4.7,-9.200000000000001,83.10000000000001,-2.1
1698672532801.0,16,2.3000000000000003,0.8,0.9,2.9000000000000004,9.9,3.6,-10.5,116.10000000000001,3.8
1698672532818.0,16,1.8,0.7000000000000001,0.4,2.3000000000000003,9.8,3.1,-15.100000000000001,122.10000000000001,14.3
1698672532834.0,16,1.2000000000000002,0.6000000000000001,-0.4,1.7000000000000002,9.700000000000001,2.4000000000000004,-25.6,104.80000000000001,45.3
1698672532851.0,16,1.1,0.6000000000000001,-0.5,1.7000000000000002,9.600000000000001,2.4000000000000004,-29.800000000000004,98.2,57.699999999999996
1698672532867.0,16,1.2000000000000002,0.4,-0.1,1.9000000000000001,9.5,2.7,-29.500000000000004,100.8,61.4
1698672532884.0,16,1.3,0.2,-0.2,2.1,9.200000000000001,2.8000000000000003,-15.000000000000002,104.3,53.2
1698672532901.0,16,1.4000000000000001,-1.0,-0.8,2.2,8.0,2.3000000000000003,-1.9,120.7,49.3
1698672532918.0,16,1.4000000000000001,-1.5,-1.0,2.2,7.4,2.1,1.2000000000000002,130.20000000000002,49.4
1698672532934.0,16,1.5,-2.1,-1.3,2.3000000000000003,6.800000000000001,1.8,3.1,144.70000000000002,49.7
1698672532951.0,16,1.6,-2.2,-1.3,2.5,6.800000000000001,1.8,3.4,147.9,48.9
1698672532968.0,16,1.9000000000000001,-1.6,-1.1,2.8000000000000003,7.300000000000001,2.0,6.5,151.10000000000002,46.7
1698672532984.0,16,1.6,-0.30000000000000004,-0.7000000000000001,2.5,8.6,2.4000000000000004,12.8,162.20000000000002,49.4
1698672533001.0,16,1.0,0.5,-0.6000000000000001,1.8,9.5,2.5,23.2,177.5,58.9
1698672533017.0,16,0.4,0.1,-1.1,1.3,9.0,1.9000000000000001,30.000000000000004,185.9,58.5
1698672533034.0,16,0.1,-0.8,-0.6000000000000001,0.9,8.200000000000001,2.4000000000000004,31.3,189.0,51.300000000000004
1698672533055.0,16,0.0,-0.4,-0.4,0.8,8.5,2.6,33.2,192.3,49.9
1698672533068.0,16,0.0,0.2,-0.4,0.7000000000000001,9.200000000000001,2.6,34.6,194.7,51.2
1698672533084.0,16,-0.30000000000000004,0.9,-0.4,0.5,9.9,2.5,33.800000000000004,189.70000000000002,60.1
1698672533100.0,16,-1.0,0.6000000000000001,0.2,-0.30000000000000004,9.600000000000001,3.0,31.0,169.8,70.0
1698672533118.0,16,-1.7000000000000002,0.6000000000000001,0.4,-1.5,9.600000000000001,3.1,29.200000000000003,154.8,85.80000000000001
1698672533134.0,16,-2.9000000000000004,0.5,0.1,-2.0,9.5,2.9000000000000004,25.400000000000002,152.2,94.5
1698672533151.0,16,-2.7,0.7000000000000001,-0.2,-1.7000000000000002,9.700000000000001,2.6,12.100000000000001,145.5,101.2
1698672533168.0,16,-1.8,1.9000000000000001,-0.30000000000000004,-0.6000000000000001,10.9,2.5,-2.4000000000000004,135.70000000000002,78.80000000000001
1698672533184.0,16,-1.5,2.6,-0.2,-0.30000000000000004,11.600000000000001,2.7,-6.9,134.1,60.00000000000001
1698672533201.0,16,-0.8,2.2,-0.8,0.4,11.200000000000001,2.1,-10.8,143.2,29.1
1698672533217.0,16,-1.0,1.1,-1.3,0.1,10.100000000000001,1.7000000000000002,-15.9,150.3,24.400000000000002
1698672533234.0,16,-1.3,0.8,-1.4000000000000001,-0.30000000000000004,9.700000000000001,1.7000000000000002,-17.8,142.8,37.4
1698672533251.0,16,-1.5,0.6000000000000001,-1.5,-0.5,9.600000000000001,1.7000000000000002,-15.7,133.70000000000002,42.900000000000006
1698672533271.0,16,-2.0,0.30000000000000004,-1.9000000000000001,-1.0,9.200000000000001,1.3,-11.6,119.30000000000001,46.900000000000006
1698672533285.0,16,-2.2,0.30000000000000004,-1.8,-1.2000000000000002,9.1,1.5,-10.700000000000001,108.7,48.6
1698672533301.0,16,-2.4000000000000004,0.1,-1.5,-1.4000000000000001,9.0,1.8,-6.000000000000001,95.60000000000001,48.6
1698672533317.0,16,-2.6,0.1,-1.3,-1.6,8.9,2.1,3.6,89.4,41.6
1698672533334.0,16,-2.7,0.0,-1.5,-1.7000000000000002,8.8,1.8,12.200000000000001,81.9,28.700000000000003
1698672533352.0,16,-2.6,-0.1,-1.5,-1.6,8.700000000000001,1.8,13.8,76.3,22.3
1698672533367.0,16,-2.5,-0.1,-1.4000000000000001,-1.5,8.700000000000001,1.8,14.100000000000001,70.0,18.8
1698672533384.0,16,-2.2,0.2,-1.3,-1.1,9.3,2.0,11.1,60.00000000000001,15.6
1698672533400.0,16,-1.9000000000000001,0.7000000000000001,-1.3,-1.0,9.5,2.0,9.4,58.1,14.600000000000001
1698672533417.0,16,-1.5,0.7000000000000001,-1.4000000000000001,-0.7000000000000001,9.600000000000001,1.8,3.3000000000000003,55.300000000000004,12.200000000000001
1698672533434.0,16,-1.3,0.5,-1.3,-0.5,9.4,1.9000000000000001,0.1,55.6,11.4
1698672533451.0,16,-1.0,0.4,-1.4000000000000001,-0.2,9.3,1.8,-3.5,50.9,10.8
1698672533467.0,16,-0.8,0.2,-1.5,0.0,9.0,1.8,-5.6,48.7,11.2
1698672533485.0,16,-0.8,0.0,-1.5,0.0,8.9,1.7000000000000002,-6.3,49.6,11.5
1698672533500.0,16,-0.9,-0.1,-1.6,-0.30000000000000004,8.700000000000001,1.7000000000000002,-4.6000000000000005,45.2,16.1
1698672533517.0,16,-1.1,0.0,-1.4000000000000001,-0.4,8.8,1.9000000000000001,-2.5,42.400000000000006,17.599999999999998
1698672533534.0,16,-1.2000000000000002,0.0,-1.5,-0.4,8.8,1.7000000000000002,2.0,44.7,19.6
1698672533557.0,16,-1.0,-0.1,-1.5,-0.30000000000000004,8.8,1.8,3.4,47.300000000000004,19.400000000000002
1698672533568.0,16,-0.7000000000000001,0.2,-1.5,0.0,9.0,1.7000000000000002,6.8,50.800000000000004,18.1
1698672533584.0,16,-0.6000000000000001,0.5,-1.8,0.1,9.3,1.5,8.4,54.4,16.900000000000002
1698672533601.0,16,-0.7000000000000001,0.6000000000000001,-1.9000000000000001,0.0,9.4,1.3,8.0,52.400000000000006,18.400000000000002
1698672533617.0,16,-1.2000000000000002,0.9,-1.6,-0.5,9.8,1.6,6.5,50.1,27.2
1698672533634.0,16,-1.4000000000000001,1.2000000000000002,-1.5,-0.7000000000000001,10.100000000000001,1.7000000000000002,7.8,52.7,30.4
1698672533650.0,16,-1.8,1.5,-1.6,-1.1,10.4,1.5,11.000000000000002,61.0,29.800000000000004
1698672533667.0,16,-1.7000000000000002,2.3000000000000003,-0.9,-1.0,11.200000000000001,2.3000000000000003,16.5,64.8,26.400000000000002
1698672533685.0,16,-1.4000000000000001,2.8000000000000003,-0.8,-0.7000000000000001,11.8,2.3000000000000003,22.6,63.4,24.5
1698672533701.0,16,-0.9,3.7,-0.9,-0.2,12.700000000000001,2.1,27.400000000000002,63.300000000000004,23.8
1698672533717.0,16,-1.5,3.7,0.2,-0.8,12.8,3.2,27.7,65.10000000000001,31.7
1698672533734.0,16,-1.9000000000000001,3.4000000000000004,1.4000000000000001,-1.1,12.5,4.2,39.400000000000006,47.6,39.300000000000004
1698672533751.0,16,-1.8,2.7,1.7000000000000002,-1.0,11.8,4.5,46.800000000000004,36.800000000000004,38.800000000000004
1698672533767.0,16,-1.4000000000000001,1.7000000000000002,1.8,-0.2,9.700000000000001,4.3,50.2,32.5,35.4
1698672533784.0,16,-0.8,-1.6,2.0,0.1,7.5,4.6000000000000005,30.9,47.400000000000006,22.6
1698672533801.0,16,-0.9,-2.2,2.1,0.0,6.7,4.4,18.900000000000002,48.6,24.5
1698672533817.0,16,-1.0,-2.5,1.9000000000000001,-0.1,6.7,4.4,11.700000000000001,49.6,25.1
1698672533834.0,16,-1.0,-1.7000000000000002,1.8,-0.1,7.5,4.4,-1.4,45.5,22.6
1698672533851.0,16,-0.8,-0.9,1.9000000000000001,0.2,8.200000000000001,4.5,-6.8,42.900000000000006,21.3
1698672533868.0,16,-0.5,0.7000000000000001,1.8,0.5,9.8,4.5,-13.3,40.1,20.8
1698672533884.0,16,-0.8,0.7000000000000001,1.4000000000000001,0.2,9.8,4.1000000000000005,-13.9,33.5,22.5
1698672533901.0,16,-1.2000000000000002,0.2,0.7000000000000001,-0.1,9.3,3.5,-13.5,26.200000000000003,23.5
1698672533918.0,16,-1.6,-0.8,-0.1,-0.5,8.3,2.7,-18.5,15.5,24.8
1698672533935.0,16,-1.5,-1.2000000000000002,-0.30000000000000004,-0.30000000000000004,7.800000000000001,2.6,-21.3,8.600000000000001,19.0
1698672533952.0,16,-1.2000000000000002,-1.1,-0.2,-0.1,7.9,2.7,-19.400000000000002,4.300000000000001,14.0
1698672533967.0,16,-0.7000000000000001,-0.9,0.0,0.5,8.1,3.0,-11.9,2.5,6.000000000000001
1698672533984.0,16,-0.30000000000000004,-0.9,-0.1,0.9,8.1,2.8000000000000003,-4.0,6.8,2.3000000000000003
1698672534001.0,16,-0.2,-1.0,-0.2,1.2000000000000002,7.800000000000001,2.7,-1.6,7.699999999999999,2.1
1698672534017.0,16,0.1,-1.3,-0.30000000000000004,1.3,7.6000000000000005,2.6,-1.4,8.4,6.4
1698672534034.0,16,0.2,-1.4000000000000001,-0.5,1.4000000000000001,7.5,2.5,-3.5,6.6000000000000005,9.3
1698672534052.0,16,0.0,-1.3,-0.7000000000000001,1.3,7.6000000000000005,2.3000000000000003,-9.1,4.0,15.9
1698672534067.0,16,-0.2,-1.2000000000000002,-0.9,1.1,7.7,2.2,-11.6,3.4,18.3
1698672534084.0,16,-0.5,-1.0,-1.0,0.8,7.9,2.1,-13.4,4.5,19.200000000000003
1698672534102.0,16,-0.8,-1.0,-1.3,0.5,7.800000000000001,1.8,-14.800000000000002,9.9,14.0
1698672534117.0,16,-0.8,-1.5,-1.7000000000000002,0.5,7.300000000000001,1.5,-14.500000000000002,12.8,5.6
1698672534134.0,16,-0.5,-2.3000000000000003,-1.8,0.8,6.5,1.3,-13.200000000000001,9.200000000000001,-0.7
1698672534151.0,16,0.0,-2.3000000000000003,-1.7000000000000002,1.3,6.4,1.5,-8.0,0.6000000000000001,-4.5
1698672534167.0,16,0.0,-1.8,-1.7000000000000002,1.3,6.9,1.5,-4.6000000000000005,1.7,-4.9
1698672534184.0,16,-0.1,0.1,-1.4000000000000001,1.1,8.9,1.8,4.3999999999999995,10.0,-0.2
1698672534201.0,16,0.0,2.5,-0.7000000000000001,1.2000000000000002,11.3,2.4000000000000004,20.7,11.000000000000002,7.2
1698672534217.0,16,0.30000000000000004,3.2,-0.5,1.6,12.0,2.6,32.0,9.8,8.1
1698672534234.0,16,0.8,2.9000000000000004,-0.5,2.1,11.8,2.4000000000000004,51.7,5.1,6.000000000000001
1698672534250.0,16,0.9,2.9000000000000004,-0.4,2.2,11.8,2.3000000000000003,58.9,-7.6,8.3
1698672534267.0,16,0.7000000000000001,4.1000000000000005,0.1,2.1,13.100000000000001,2.6,50.2,-15.000000000000002,13.3
1698672534284.0,16,0.4,4.800000000000001,0.6000000000000001,1.9000000000000001,13.9,3.1,43.50000000000001,-18.1,14.800000000000002
1698672534300.0,16,0.2,5.300000000000001,1.0,1.7000000000000002,14.4,3.4000000000000004,27.900000000000002,-30.299999999999997,11.700000000000001
1698672534317.0,16,0.0,4.4,1.7000000000000002,1.5,13.5,4.0,16.8,-25.700000000000003,5.9
1698672534334.0,16,-0.30000000000000004,0.5,2.9000000000000004,1.2000000000000002,9.700000000000001,5.2,5.300000000000001,1.0999999999999999,-5.9
1698672534351.0,16,-0.7000000000000001,-1.2000000000000002,4.3,0.8,7.9,6.6000000000000005,18.8,-20.8,3.2
1698672534370.0,16,-0.8,-2.1,3.5,0.8,7.1000000000000005,5.800000000000001,30.100000000000005,-2.7,22.000000000000004
1698672534384.0,16,-0.7000000000000001,-2.3000000000000003,3.3000000000000003,0.9,6.9,5.6000000000000005,30.4,8.600000000000001,26.0
1698672534400.0,16,-0.30000000000000004,-1.9000000000000001,3.0,1.3,7.300000000000001,5.2,28.500000000000004,10.600000000000001,21.700000000000003
1698672534417.0,16,-0.4,-0.4,3.1,1.3,8.700000000000001,5.2,21.400000000000002,16.400000000000002,14.0
1698672534434.0,16,-0.6000000000000001,0.4,2.8000000000000003,1.1,9.5,4.9,15.9,16.8,12.200000000000001
1698672534450.0,16,-0.7000000000000001,1.0,2.3000000000000003,0.6000000000000001,10.200000000000001,4.0,-4.1000000000000005,14.200000000000001,7.300000000000001
1698672534467.0,16,-1.7000000000000002,0.6000000000000001,1.6,0.0,9.8,3.8000000000000003,-15.299999999999999,15.2,3.0000000000000004
1698672534484.0,16,-2.1,-0.6000000000000001,1.0,-0.4,8.6,3.3000000000000003,-27.6,16.6,-4.0
1698672534500.0,16,-2.0,-1.4000000000000001,0.7000000000000001,-0.4,7.800000000000001,3.1,-27.1,10.9,-10.4
1698672534517.0,16,-1.9000000000000001,-1.6,0.4,-0.30000000000000004,7.5,2.8000000000000003,-24.400000000000002,9.700000000000001,-12.000000000000002
1698672534534.0,16,-1.8,-2.0,0.1,-0.2,7.1000000000000005,2.6,-17.200000000000003,4.300000000000001,-10.8
1698672534551.0,16,-1.8,-1.8,0.0,-0.4,7.300000000000001,2.6,-7.400000000000001,-3.1,-8.5
1698672534567.0,16,-2.0,-1.7000000000000002,0.1,-0.5,7.4,2.6,-2.5,-4.5,-8.5
1698672534585.0,16,-2.0,-1.5,0.1,-0.6000000000000001,7.5,2.6,6.7,-2.1,-12.000000000000002
1698672534601.0,16,-1.7000000000000002,-1.5,-0.1,-0.4,7.5,2.4000000000000004,11.6,3.6,-20.6
1698672534619.0,16,-1.0,-1.6,-0.30000000000000004,0.2,7.5,2.1,11.9,6.8,-25.6
1698672534634.0,16,-0.6000000000000001,-1.6,-0.5,0.5,7.5,2.0,7.0,10.600000000000001,-32.0
1698672534651.0,16,-0.1,-1.2000000000000002,-0.6000000000000001,0.9,7.9,1.9000000000000001,-3.5,12.3,-27.2
1698672534668.0,16,0.0,-0.8,-0.7000000000000001,1.0,8.200000000000001,1.8,-9.3,12.3,-21.1
1698672534684.0,16,-0.1,-0.6000000000000001,-0.9,0.9,8.5,1.6,-19.6,13.0,-4.1000000000000005
1698672534700.0,16,-0.7000000000000001,-1.1,-1.6,0.30000000000000004,7.9,1.0,-29.000000000000004,13.700000000000001,9.5
1698672534717.0,16,-0.9,-1.4000000000000001,-1.6,0.0,7.5,1.0,-34.800000000000004,4.0,14.3
1698672534734.0,16,-1.1,-1.4000000000000001,-1.9000000000000001,-0.1,7.6000000000000005,0.8,-34.800000000000004,-4.9,14.100000000000001
1698672534750.0,16,-1.2000000000000002,-0.30000000000000004,-2.1,-0.1,8.5,0.7000000000000001,-34.50000000000001,-15.9,10.700000000000001
1698672534767.0,16,-1.2000000000000002,0.6000000000000001,-1.9000000000000001,0.1,10.8,1.3,-33.800000000000004,-17.3,7.500000000000001
1698672534784.0,16,-0.9,3.3000000000000003,-0.9,0.30000000000000004,13.4,2.6,-9.1,-27.1,-1.8
1698672534800.0,16,-0.5,5.300000000000001,0.2,0.6000000000000001,14.200000000000001,3.1,8.0,-29.600000000000005,-3.5
1698672534817.0,16,-0.1,4.9,0.2,1.1,13.8,3.0,25.5,-26.200000000000003,-4.6000000000000005
1698672534834.0,16,1.1,3.3000000000000003,-0.30000000000000004,2.2,12.3,2.5,44.6,-5.1,-5.6
1698672534850.0,16,0.5,3.2,0.30000000000000004,1.6,12.3,2.9000000000000004,44.6,20.2,1.2000000000000002
1698672534867.0,16,0.2,3.4000000000000004,1.1,1.3,12.5,3.6,45.2,25.0,10.3
1698672534884.0,16,-0.2,3.3000000000000003,1.2000000000000002,1.0,12.5,3.6,51.400000000000006,11.5,19.9
1698672534901.0,16,-0.8,0.8,2.6,0.4,10.0,4.800000000000001,44.8,-7.9,15.9
1698672534917.0,16,-1.2000000000000002,0.0,3.9000000000000004,0.0,8.700000000000001,6.1000000000000005,51.800000000000004,-13.6,5.300000000000001
1698672534934.0,16,-1.3,-1.3,3.2,0.0,8.0,5.300000000000001,52.300000000000004,-13.8,-3.3000000000000003
1698672534951.0,16,-1.8,-2.2,3.1,-0.6000000000000001,7.0,5.0,30.599999999999998,-13.0,-13.700000000000001
1698672534967.0,16,-2.0,-1.7000000000000002,3.6,-0.8,7.6000000000000005,5.5,16.3,-5.7,-13.6
1698672534984.0,16,-1.9000000000000001,0.5,3.5,-0.8,9.8,5.5,-6.6000000000000005,10.4,-14.600000000000001
1698672535000.0,16,-1.3,1.6,2.0,-0.2,10.8,4.1000000000000005,-28.200000000000003,1.0,-18.7
1698672535017.0,16,-0.30000000000000004,0.0,1.9000000000000001,0.7000000000000001,9.3,4.0,-41.4,-4.9,-20.5
1698672535034.0,16,0.0,-0.6000000000000001,1.6,0.9,8.700000000000001,3.8000000000000003,-41.1,-3.2,-20.2
1698672535051.0,16,0.6000000000000001,-1.2000000000000002,0.5,1.5,8.0,2.9000000000000004,-37.300000000000004,-8.3,-16.3
1698672535067.0,16,0.6000000000000001,-1.4000000000000001,0.5,1.5,7.4,3.1,-35.6,-16.400000000000002,-13.4
1698672535084.0,16,0.6000000000000001,-2.0,0.7000000000000001,1.5,7.2,3.3000000000000003,-25.6,-24.000000000000004,-7.6
1698672535100.0,16,0.4,-2.3000000000000003,0.6000000000000001,1.3,6.800000000000001,3.2,-11.9,-14.4,-4.9
1698672535117.0,16,0.0,-2.6,0.30000000000000004,0.8,6.5,2.9000000000000004,-1.0,-10.9,-3.8
1698672535134.0,16,-0.2,-2.5,0.1,0.7000000000000001,6.6000000000000005,2.7,1.7,-11.2,-2.9
1698672535151.0,16,-0.2,-2.3000000000000003,0.0,0.7000000000000001,6.7,2.6,2.1,-10.2,-2.4000000000000004
1698672535167.0,16,0.0,-2.2,0.0,1.0,7.1000000000000005,2.6,-0.5,-5.8,-2.4000000000000004
1698672535185.0,16,0.2,-1.7000000000000002,0.0,1.1,7.4,2.6,-3.5,-3.5,-2.1
1698672535201.0,16,0.30000000000000004,-1.3,-0.30000000000000004,1.1,7.800000000000001,2.3000000000000003,-7.699999999999999,-3.2,1.3
1698672535217.0,16,0.1,-1.1,-0.8,1.0,8.0,1.9000000000000001,-13.3,-4.3999999999999995,4.800000000000001
1698672535234.0,16,-0.2,-1.3,-1.2000000000000002,0.7000000000000001,7.7,1.4000000000000001,-19.1,-2.1999999999999997,0.9
1698672535251.0,16,-0.2,-1.6,-1.4000000000000001,0.7000000000000001,7.4,1.3,-20.900000000000002,-2.6,-2.9
1698672535267.0,16,-0.2,-1.9000000000000001,-1.8,0.7000000000000001,7.1000000000000005,0.9,-23.2,-3.5,-10.5
1698672535284.0,16,0.0,-1.9000000000000001,-1.9000000000000001,0.9,7.1000000000000005,0.9,-24.7,-0.7,-14.600000000000001
1698672535301.0,16,0.8,-1.3,-1.6,1.6,7.6000000000000005,1.2000000000000002,-24.7,9.1,-23.2
1698672535317.0,16,1.1,0.7000000000000001,-0.7000000000000001,1.8,9.600000000000001,2.3000000000000003,-14.4,12.9,-26.0
1698672535334.0,16,1.0,1.9000000000000001,0.1,1.7000000000000002,10.8,3.0,-2.4000000000000004,13.6,-22.3
1698672535351.0,16,0.8,3.3000000000000003,0.7000000000000001,1.4000000000000001,12.3,3.6,34.800000000000004,8.3,-3.4
1698672535367.0,16,0.5,2.3000000000000003,0.0,1.2000000000000002,11.3,2.7,62.8,-6.1000000000000005,19.200000000000003
1698672535384.0,16,0.2,2.0,-0.2,0.8,11.0,2.3000000000000003,63.800000000000004,-12.200000000000001,26.1
1698672535400.0,16,0.0,2.0,0.1,0.8,11.100000000000001,2.4000000000000004,55.1,-9.1,24.8
1698672535417.0,16,-0.1,3.0,0.8,0.8,12.200000000000001,3.0,33.5,-1.9,15.9
1698672535434.0,16,0.1,3.5,0.9,1.0,12.700000000000001,3.1,22.3,-4.0,12.8
1698672535451.0,16,0.4,1.7000000000000002,1.9000000000000001,1.4000000000000001,10.9,4.1000000000000005,1.5000000000000002,7.8,6.9
1698672535467.0,16,0.30000000000000004,-0.7000000000000001,2.8000000000000003,1.3,8.5,5.0,0.9,8.1,5.7
1698672535484.0,16,0.1,-1.5,3.5,1.1,7.7,5.7,8.0,3.6,9.0
1698672535501.0,16,-0.5,-1.6,3.8000000000000003,0.6000000000000001,7.6000000000000005,6.0,28.200000000000003,8.600000000000001,22.7
1698672535517.0,16,-0.8,-0.4,4.0,0.30000000000000004,8.8,6.1000000000000005,39.00000000000001,17.8,36.800000000000004
1698672535534.0,16,-0.7000000000000001,1.1,3.8000000000000003,0.5,10.4,5.800000000000001,41.5,13.4,40.5
1698672535551.0,16,-0.6000000000000001,1.7000000000000002,3.5,0.7000000000000001,10.9,5.5,35.6,6.8,37.800000000000004
1698672535567.0,16,-0.7000000000000001,1.5,2.6,0.6000000000000001,10.8,4.6000000000000005,5.7,20.3,24.5
1698672535584.0,16,-1.1,0.8,2.3000000000000003,0.0,9.3,4.0,-27.1,34.1,8.200000000000001
1698672535601.0,16,-1.4000000000000001,-0.5,1.7000000000000002,0.0,8.8,3.9000000000000004,-35.4,33.800000000000004,2.4000000000000004
1698672535617.0,16,-1.2000000000000002,-0.8,1.1,0.1,8.4,3.4000000000000004,-39.50000000000001,32.2,-3.5
1698672535634.0,16,-1.0,-0.8,0.6000000000000001,0.30000000000000004,8.4,3.0,-38.6,30.5,-5.6
1698672535650.0,16,-1.1,-0.9,0.1,0.1,8.200000000000001,2.6,-34.6,23.0,-1.0
1698672535667.0,16,-1.3,-1.3,-0.1,-0.1,7.800000000000001,2.5,-26.0,13.700000000000001,8.5
1698672535684.0,16,-1.6,-1.7000000000000002,-0.4,-0.4,7.4,2.2,-15.100000000000001,2.5,14.200000000000001
1698672535700.0,16,-1.8,-1.8,-0.5,-0.5,7.300000000000001,2.2,-10.700000000000001,-0.5,14.500000000000002
1698672535717.0,16,-2.1,-1.6,-0.30000000000000004,-0.8,7.5,2.3000000000000003,-4.0,-1.5000000000000002,11.2
1698672535734.0,16,-2.0,-1.3,-0.2,-0.7000000000000001,7.7,2.5,-0.8,-1.3,7.0
1698672535750.0,16,-1.3,-0.9,0.2,0.0,8.200000000000001,2.8000000000000003,4.6000000000000005,1.7,-8.3
1698672535767.0,16,-0.2,-0.7000000000000001,0.30000000000000004,1.1,8.3,2.9000000000000004,6.7,2.6,-17.200000000000003
1698672535784.0,16,0.30000000000000004,-0.8,0.1,1.5,8.200000000000001,2.8000000000000003,4.5,7.6,-15.7
1698672535801.0,16,0.8,-1.2000000000000002,-0.8,2.0,7.800000000000001,1.9000000000000001,-8.1,22.5,-6.4
1698672535817.0,16,0.8,-2.0,-1.2000000000000002,2.0,7.0,1.6,-23.5,27.1,8.200000000000001
1698672535834.0,16,0.5,-2.0,-1.4000000000000001,1.7000000000000002,6.9,1.4000000000000001,-32.800000000000004,30.5,24.3
1698672535851.0,16,0.1,-1.7000000000000002,-1.5,1.4000000000000001,7.2,1.4000000000000001,-35.0,31.900000000000002,30.599999999999998
1698672535867.0,16,-0.5,-0.8,-1.4000000000000001,0.8,8.0,1.5,-32.5,28.3,39.699999999999996
1698672535884.0,16,-1.0,0.30000000000000004,-0.4,0.4,9.0,2.7,-20.6,33.6,43.2
1698672535900.0,16,-0.2,0.4,0.1,1.3,9.200000000000001,3.1,9.4,50.0,40.3
1698672535917.0,16,0.7000000000000001,0.2,-0.5,2.2,8.9,2.6,22.900000000000002,50.1,35.0
1698672535933.0,16,2.5,0.9,0.1,4.1000000000000005,9.700000000000001,3.1,36.5,48.2,23.400000000000002
1698672535950.0,16,2.4000000000000004,1.7000000000000002,0.4,3.9000000000000004,10.5,3.3000000000000003,41.6,50.5,20.4
1698672535967.0,16,0.6000000000000001,3.3000000000000003,0.0,2.2,12.200000000000001,2.9000000000000004,43.900000000000006,56.0,40.1
1698672535983.0,16,-1.3,3.7,-0.5,0.5,12.600000000000001,2.3000000000000003,27.8,53.400000000000006,76.7
1698672536001.0,16,-2.1,3.1,-0.5,-0.2,12.0,2.2,16.6,50.9,82.10000000000001
1698672536017.0,16,-3.6,1.9000000000000001,1.1,-1.6,10.700000000000001,3.8000000000000003,1.8,35.4,79.8
1698672536033.0,16,-3.2,1.5,5.0,-1.0,10.3,7.800000000000001,27.5,33.800000000000004,58.2
1698672536050.0,16,-2.6,1.4000000000000001,4.6000000000000005,-0.4,10.3,7.4,49.6,53.50000000000001,34.2
1698672536067.0,16,-0.6000000000000001,-0.7000000000000001,2.3000000000000003,1.5,8.3,4.9,58.3,73.7,-23.700000000000003
1698672536084.0,16,-0.2,-1.6,3.9000000000000004,1.8,7.4,6.4,48.9,65.5,-37.7
1698672536100.0,16,-0.30000000000000004,-1.6,3.4000000000000004,1.6,7.4,5.9,42.6,79.2,-27.400000000000002
1698672536117.0,16,0.30000000000000004,-0.9,1.9000000000000001,2.0,8.1,4.4,11.6,92.8,9.3
1698672536134.0,16,0.1,0.6000000000000001,1.9000000000000001,1.9000000000000001,9.5,4.5,-19.9,89.2,32.800000000000004
1698672536151.0,16,0.1,0.30000000000000004,1.8,1.9000000000000001,9.3,4.5,-25.2,95.4,29.700000000000003
1698672536167.0,16,0.0,-0.7000000000000001,1.9000000000000001,1.8,8.200000000000001,4.7,-16.6,101.30000000000001,19.200000000000003
1698672536183.0,16,0.9,-0.7000000000000001,1.3,2.6,8.200000000000001,4.3,0.30000000000000004,126.8,15.7
1698672536200.0,16,2.1,-0.8,1.3,3.7,8.1,4.3,16.900000000000002,143.5,11.3
1698672536217.0,16,2.5,-1.0,1.2000000000000002,4.1000000000000005,7.9,4.2,24.6,144.20000000000002,11.6
1698672536234.0,16,2.6,-1.3,0.9,4.1000000000000005,7.6000000000000005,3.9000000000000004,30.100000000000005,146.20000000000002,21.3
1698672536250.0,16,2.0,-1.3,0.6000000000000001,3.5,7.6000000000000005,3.7,20.3,149.5,45.0
1698672536267.0,16,1.5,-0.7000000000000001,0.8,2.9000000000000004,8.200000000000001,3.8000000000000003,11.700000000000001,149.0,58.800000000000004
1698672536284.0,16,0.30000000000000004,0.4,0.6000000000000001,1.9000000000000001,9.200000000000001,3.7,-4.0,161.6,68.0
1698672536300.0,16,0.2,0.4,0.30000000000000004,1.7000000000000002,8.9,3.2,-10.4,166.8,65.2
1698672536317.0,16,0.30000000000000004,-0.1,-0.30000000000000004,1.8,8.700000000000001,3.0,-19.1,175.8,56.5
1698672536334.0,16,1.0,-0.1,-0.5,2.5,8.700000000000001,2.9000000000000004,-22.6,180.10000000000002,55.800000000000004
1698672536350.0,16,1.6,0.30000000000000004,-0.8,3.1,8.9,2.8000000000000003,-22.4,191.70000000000002,63.0
1698672536367.0,16,1.9000000000000001,0.2,-1.1,3.3000000000000003,8.9,2.6,-22.000000000000004,199.5,66.2
1698672536383.0,16,1.8,0.0,-1.6,3.2,8.6,2.3000000000000003,-21.900000000000002,203.4,72.8
1698672536400.0,16,1.3,0.2,-1.7000000000000002,2.6,8.8,2.3000000000000003,-21.900000000000002,199.5,85.3
1698672536417.0,16,0.9,0.4,-1.8,2.3000000000000003,8.9,2.3000000000000003,-21.3,200.0,92.9
1698672536434.0,16,0.4,0.6000000000000001,-2.0,1.7000000000000002,9.0,2.2,-18.7,206.4,100.50000000000001
1698672536451.0,16,0.8,0.0,-2.2,2.2,8.3,2.1,-13.200000000000001,209.70000000000002,96.9
1698672536467.0,16,1.2000000000000002,-0.6000000000000001,-2.1,2.5,7.800000000000001,2.3000000000000003,-9.3,213.5,92.7
1698672536484.0,16,2.1,-0.7000000000000001,-2.2,3.4000000000000004,7.5,2.3000000000000003,0.0,235.4,88.3
1698672536500.0,16,2.6,-0.7000000000000001,-2.3000000000000003,3.8000000000000003,7.5,2.2,4.3999999999999995,246.50000000000003,86.7
1698672536518.0,16,2.9000000000000004,-0.5,-2.4000000000000004,4.0,7.7,2.2,12.700000000000001,241.8,86.9
1698672536534.0,16,1.7000000000000002,1.1,-1.6,2.7,9.4,3.0,21.900000000000002,214.9,106.3
1698672536550.0,16,0.6000000000000001,2.4000000000000004,-1.4000000000000001,0.5,11.5,3.5,23.8,207.0,121.80000000000001
1698672536567.0,16,-1.5,3.4000000000000004,-1.2000000000000002,-0.6000000000000001,11.3,3.0,24.200000000000003,208.4,140.9
1698672536583.0,16,-1.8,2.5,-1.4000000000000001,-0.6000000000000001,10.700000000000001,3.1,19.400000000000002,199.8,140.6
1698672536600.0,16,-2.8000000000000003,1.4000000000000001,0.2,-1.6,9.600000000000001,4.800000000000001,19.6,191.70000000000002,117.60000000000001
1698672536617.0,16,-3.2,1.4000000000000001,0.6000000000000001,-2.0,9.600000000000001,5.2,24.3,190.9,106.3
1698672536634.0,16,-3.5,2.2,0.1,-2.4000000000000004,10.5,4.7,21.900000000000002,189.50000000000003,84.0
1698672536650.0,16,-3.7,2.6,-0.4,-2.7,10.9,4.3,8.5,186.70000000000002,75.60000000000001
1698672536667.0,16,-3.0,1.9000000000000001,-1.0,-2.1,10.100000000000001,3.8000000000000003,-32.800000000000004,162.50000000000003,63.300000000000004
1698672536684.0,16,-2.3000000000000003,0.7000000000000001,-1.6,-1.5,8.8,3.4000000000000004,-63.10000000000001,151.50000000000003,57.00000000000001
1698672536700.0,16,-1.5,0.30000000000000004,-2.2,-0.8,8.3,3.0,-73.30000000000001,147.4,48.2
1698672536717.0,16,-1.2000000000000002,0.1,-2.5,-0.4,7.6000000000000005,2.5,-69.5,139.4,44.9
1698672536733.0,16,-0.8,-0.6000000000000001,-3.3000000000000003,-0.30000000000000004,7.2,2.2,-66.5,137.20000000000002,48.7
1698672536750.0,16,-0.6000000000000001,-1.1,-3.4000000000000004,-0.30000000000000004,6.5,2.2,-58.7,121.4,61.8
1698672536767.0,16,-0.7000000000000001,-1.0,-3.2,-0.4,6.6000000000000005,2.5,-50.5,108.7,67.3
1698672536783.0,16,-1.4000000000000001,-0.1,-3.0,-1.0,7.4,2.8000000000000003,-27.2,87.2,76.5
1698672536800.0,16,-1.9000000000000001,0.7000000000000001,-2.2,-1.5,8.200000000000001,3.6,-1.5000000000000002,73.50000000000001,83.10000000000001
1698672536817.0,16,-2.3000000000000003,1.8,-1.1,-1.9000000000000001,9.3,4.6000000000000005,29.1,61.1,82.9
1698672536834.0,16,-2.4000000000000004,1.9000000000000001,-0.9,-1.9000000000000001,9.4,4.800000000000001,40.9,58.9,80.5
1698672536850.0,16,-2.3000000000000003,0.8,-0.6000000000000001,-1.7000000000000002,8.4,4.9,46.300000000000004,59.20000000000001,72.0
1698672536867.0,16,-2.0,-0.5,0.0,-1.4000000000000001,7.2,5.4,30.4,45.5,61.7
1698672536883.0,16,-1.9000000000000001,-0.8,0.2,-1.3,6.9,5.7,15.2,43.2,56.2
1698672536900.0,16,-1.7000000000000002,-0.7000000000000001,0.2,-1.0,7.0,5.7,-24.3,57.1,48.00000000000001
1698672536917.0,16,-1.6,-0.6000000000000001,0.5,-0.9,7.1000000000000005,6.0,-40.5,62.50000000000001,44.7
1698672536934.0,16,-1.5,0.0,0.1,-0.9,7.5,5.800000000000001,-51.900000000000006,69.00000000000001,40.0
1698672536950.0,16,-1.4000000000000001,-0.1,-0.5,-0.8,7.300000000000001,5.300000000000001,-48.800000000000004,69.2,39.6
1698672536967.0,16,-1.4000000000000001,-0.8,-1.3,-0.8,6.5,4.6000000000000005,-43.400000000000006,60.20000000000001,42.900000000000006
1698672536983.0,16,-1.5,-1.1,-1.4000000000000001,-1.0,6.1000000000000005,4.6000000000000005,-42.300000000000004,55.800000000000004,45.2
1698672537000.0,16,-1.8,-0.8,-1.2000000000000002,-1.3,6.300000000000001,4.9,-37.900000000000006,42.0,45.800000000000004
1698672537017.0,16,-1.9000000000000001,-0.1,0.30000000000000004,-1.3,7.0,6.4,-32.1,24.7,38.6
1698672537033.0,16,-1.9000000000000001,1.1,1.8,-1.3,8.1,8.1,-19.8,24.5,27.7
1698672537050.0,16,-1.5,1.1,0.8,-1.0,8.1,7.1000000000000005,-20.0,37.6,20.4
1698672537067.0,16,-0.7000000000000001,-1.1,-1.2000000000000002,-0.30000000000000004,5.800000000000001,5.2,-47.800000000000004,62.6,8.4
1698672537084.0,16,-0.4,-2.4000000000000004,-1.7000000000000002,0.0,4.4,4.7,-59.60000000000001,64.8,7.400000000000001
1698672537100.0,16,0.1,-3.2,-2.0,0.4,3.4000000000000004,4.6000000000000005,-65.4,56.5,10.700000000000001
1698672537117.0,16,-0.30000000000000004,-1.7000000000000002,-1.8,-0.1,4.800000000000001,4.9,-51.400000000000006,36.2,21.400000000000002
1698672537134.0,16,-0.6000000000000001,-0.7000000000000001,-1.7000000000000002,-0.4,5.7,5.1000000000000005,-41.1,25.1,27.0
1698672537151.0,16,-1.5,0.1,-0.5,-1.3,6.5,6.300000000000001,-18.2,16.400000000000002,29.000000000000004
1698672537167.0,16,-1.6,-0.30000000000000004,0.2,-1.3,6.0,7.0,3.6,21.3,23.6
1698672537184.0,16,-1.3,-0.7000000000000001,0.0,-1.1,5.7,6.800000000000001,6.5,29.400000000000002,20.3
1698672537201.0,16,-0.4,-0.9,0.2,-0.30000000000000004,5.5,7.0,-2.3000000000000003,31.7,15.6
1698672537217.0,16,0.5,-0.7000000000000001,-0.1,0.6000000000000001,5.7,6.800000000000001,-20.900000000000002,35.8,13.700000000000001
1698672537234.0,16,0.6000000000000001,-0.8,-0.30000000000000004,0.4,5.2,6.6000000000000005,-29.1,39.00000000000001,14.3
1698672537251.0,16,0.0,-1.4000000000000001,-0.30000000000000004,0.0,4.800000000000001,6.6000000000000005,-31.4,33.7,20.900000000000002
1698672537267.0,16,-0.7000000000000001,-1.2000000000000002,-0.30000000000000004,-0.7000000000000001,4.9,6.7,-19.1,22.4,29.600000000000005
1698672537284.0,16,-1.0,-0.8,-0.1,-1.0,5.300000000000001,6.9,-12.8,19.400000000000002,31.6
1698672537300.0,16,-1.2000000000000002,-0.1,0.1,-1.2000000000000002,6.0,7.1000000000000005,-4.2,26.400000000000002,28.400000000000002
1698672537317.0,16,-1.0,-0.4,-0.2,-1.0,5.7,6.800000000000001,-1.0,37.300000000000004,18.2
1698672537334.0,16,-0.7000000000000001,-0.9,-0.30000000000000004,-0.7000000000000001,5.2,6.800000000000001,-0.8,38.6,12.6
1698672537350.0,16,0.0,-1.5,-0.30000000000000004,-0.2,4.6000000000000005,6.800000000000001,1.3,33.300000000000004,7.300000000000001
1698672537367.0,16,-0.30000000000000004,-1.7000000000000002,0.1,-0.5,4.4,7.1000000000000005,7.0,22.7,11.700000000000001
1698672537384.0,16,-0.5,-1.4000000000000001,0.30000000000000004,-0.7000000000000001,4.7,7.300000000000001,9.1,20.2,18.900000000000002
1698672537400.0,16,-1.3,0.1,0.8,-1.5,6.2,7.7,16.0,18.900000000000002,27.0
1698672537417.0,16,-2.0,0.6000000000000001,0.6000000000000001,-2.2,6.800000000000001,7.5,22.7,25.0,26.3
1698672537434.0,16,-1.7000000000000002,0.30000000000000004,0.7000000000000001,-1.9000000000000001,6.5,7.6000000000000005,25.700000000000003,24.000000000000004,23.6
1698672537450.0,16,-0.7000000000000001,-0.8,0.8,-0.9,5.5,7.6000000000000005,32.9,11.9,12.100000000000001
1698672537467.0,16,0.30000000000000004,-1.0,1.2000000000000002,-0.30000000000000004,5.4,7.800000000000001,35.199999999999996,2.7,9.4
1698672537484.0,16,0.30000000000000004,-0.8,1.6,0.1,5.6000000000000005,8.3,36.9,-3.3000000000000003,17.8
1698672537500.0,16,-0.5,0.1,1.6,-0.6000000000000001,6.6000000000000005,8.3,42.0,0.7,29.400000000000002
1698672537526.0,16,-0.7000000000000001,-0.30000000000000004,1.0,-0.8,6.300000000000001,7.6000000000000005,48.50000000000001,6.5,30.200000000000003
1698672537534.0,16,-0.5,-0.9,0.9,-0.5,5.800000000000001,7.4,53.2,5.0,29.200000000000003
1698672537550.0,16,0.2,-1.2000000000000002,1.0,0.30000000000000004,5.6000000000000005,7.300000000000001,67.0,0.5,27.0
1698672537567.0,16,0.4,-1.9000000000000001,0.8,0.5,5.1000000000000005,7.0,79.9,4.300000000000001,29.500000000000004
1698672537584.0,16,0.2,-1.8,0.8,0.30000000000000004,5.300000000000001,6.9,83.50000000000001,6.000000000000001,33.6
1698672537600.0,16,-0.4,-0.8,0.30000000000000004,-0.2,6.4,6.2,89.30000000000001,7.8,39.6
1698672537617.0,16,-0.7000000000000001,-0.8,-0.4,-0.5,6.5,5.300000000000001,96.4,7.8,39.400000000000006
1698672537634.0,16,-0.5,-0.9,-0.4,-0.2,6.6000000000000005,4.9,109.8,3.7000000000000006,33.6
1698672537651.0,16,-0.7000000000000001,-0.2,-0.4,-0.30000000000000004,7.5,4.800000000000001,119.1,1.4,29.300000000000004
1698672537667.0,16,-0.7000000000000001,2.1,0.7000000000000001,-0.30000000000000004,10.100000000000001,5.5,142.60000000000002,-5.9,23.400000000000002
1698672537683.0,16,-0.7000000000000001,3.3000000000000003,1.3,-0.30000000000000004,12.600000000000001,6.4,155.4,-7.400000000000001,21.700000000000003
1698672537700.0,16,-1.0,5.5,2.6,-0.4,13.9,6.7,174.20000000000002,-14.600000000000001,22.2
1698672537717.0,16,-1.0,7.0,2.9000000000000004,-0.30000000000000004,15.700000000000001,6.6000000000000005,161.6,-23.1,23.900000000000002
1698672537734.0,16,-0.7000000000000001,6.800000000000001,2.4000000000000004,0.0,15.600000000000001,5.800000000000001,141.3,-22.8,21.5
1698672537751.0,16,-0.2,4.3,0.7000000000000001,0.6000000000000001,13.200000000000001,3.9000000000000004,95.1,-18.5,12.100000000000001
1698672537767.0,16,-0.30000000000000004,1.7000000000000002,-0.7000000000000001,0.6000000000000001,10.700000000000001,2.2,66.1,-21.700000000000003,11.8
1698672537784.0,16,-0.4,0.6000000000000001,-1.1,0.4,9.600000000000001,1.7000000000000002,55.5,-25.5,14.4
1698672537800.0,16,-0.5,-0.4,-1.8,0.5,8.700000000000001,0.8,37.2,-30.7,17.8
1698672537817.0,16,-0.8,0.2,-1.8,0.2,9.200000000000001,0.7000000000000001,24.1,-40.1,15.7
1698672537833.0,16,-0.9,0.4,-1.8,0.2,9.600000000000001,0.6000000000000001,18.900000000000002,-44.8,12.100000000000001
1698672537851.0,16,-0.6000000000000001,0.5,-2.0,0.5,9.600000000000001,0.4,16.8,-41.1,9.5
1698672537867.0,16,0.30000000000000004,0.4,-2.0,1.5,9.5,0.30000000000000004,12.6,-33.300000000000004,0.7
1698672537884.0,16,0.7000000000000001,0.4,-1.8,1.9000000000000001,9.5,0.5,12.8,-31.5,-4.3999999999999995
1698672537901.0,16,1.0,0.6000000000000001,-1.5,2.2,9.700000000000001,0.8,17.400000000000002,-23.700000000000003,-8.3
1698672537917.0,16,1.0,1.2000000000000002,-1.6,2.2,10.4,0.6000000000000001,27.5,-22.900000000000002,-0.4
1698672537933.0,16,0.9,1.2000000000000002,-1.5,2.1,10.4,0.5,34.2,-20.5,10.8
1698672537951.0,16,0.6000000000000001,1.0,-1.5,1.8,10.200000000000001,0.4,38.400000000000006,-20.2,14.3
1698672537967.0,16,0.0,0.8,-1.5,1.3,10.0,0.30000000000000004,44.5,-18.0,16.1
1698672537985.0,16,-0.30000000000000004,0.7000000000000001,-1.5,1.2000000000000002,10.0,0.2,47.6,-18.5,14.500000000000002
1698672538001.0,16,-0.4,0.7000000000000001,-1.2000000000000002,1.0,10.0,0.30000000000000004,50.4,-19.500000000000004,8.799999999999999
1698672538018.0,16,-0.2,0.9,-0.30000000000000004,1.2000000000000002,10.200000000000001,1.0,59.00000000000001,-22.1,5.500000000000001
1698672538034.0,16,0.0,0.9,-0.1,1.7000000000000002,10.100000000000001,1.2000000000000002,64.4,-17.3,4.5
1698672538051.0,16,0.5,0.6000000000000001,0.4,2.0,10.0,1.3,74.10000000000001,-8.700000000000001,3.2
1698672538067.0,16,0.4,0.5,0.2,1.9000000000000001,9.9,0.9,77.4,-5.500000000000001,5.6
1698672538084.0,16,-0.1,0.5,0.4,1.4000000000000001,9.9,0.8,65.8,-2.3000000000000003,12.8
1698672538101.0,16,-0.30000000000000004,0.8,0.7000000000000001,1.3,10.200000000000001,1.1,59.1,-4.9,14.200000000000001
1698672538118.0,16,-0.4,1.1,0.9,1.2000000000000002,10.600000000000001,1.2000000000000002,44.8,-2.0,9.3
1698672538133.0,16,-0.1,0.9,0.9,1.4000000000000001,10.3,1.1,25.400000000000002,6.6000000000000005,0.1
1698672538150.0,16,0.1,0.6000000000000001,0.8,1.7000000000000002,10.0,1.0,14.100000000000001,9.200000000000001,-3.0000000000000004
1698672538168.0,16,0.2,0.1,0.5,1.8,9.600000000000001,0.6000000000000001,-8.200000000000001,11.4,-3.2
1698672538184.0,16,-0.1,0.1,0.1,1.5,9.600000000000001,0.30000000000000004,-27.6,9.5,-0.1
1698672538200.0,16,-0.2,0.1,0.0,1.4000000000000001,9.600000000000001,0.2,-34.6,6.6000000000000005,1.0999999999999999
1698672538217.0,16,-0.30000000000000004,-0.1,-1.4000000000000001,1.3,9.3,-1.0,-44.7,-20.7,2.1999999999999997
1698672538234.0,16,-0.5,0.1,-0.1,1.1,9.5,0.4,-30.599999999999998,-17.1,2.4000000000000004
1698672538250.0,16,-0.30000000000000004,-0.1,-0.5,1.3,9.4,0.0,0.9,7.500000000000001,-0.6000000000000001
1698672538267.0,16,-0.30000000000000004,-0.1,-0.6000000000000001,1.3,9.3,-0.1,15.299999999999999,16.2,-1.3
1698672538284.0,16,-0.4,-0.1,-0.30000000000000004,1.2000000000000002,9.3,0.1,29.600000000000005,15.5,2.3000000000000003
1698672538301.0,16,-0.5,0.1,-0.1,1.0,9.5,0.30000000000000004,31.5,13.4,4.2
1698672538317.0,16,-0.6000000000000001,0.30000000000000004,0.4,1.0,9.700000000000001,0.7000000000000001,29.000000000000004,15.5,3.9
1698672538334.0,16,-0.6000000000000001,0.2,0.0,1.0,9.600000000000001,0.2,16.400000000000002,10.8,-0.9
1698672538351.0,16,-0.5,0.1,0.30000000000000004,1.1,9.5,0.5,7.2,1.5000000000000002,-2.9
1698672538367.0,16,-0.30000000000000004,0.2,0.7000000000000001,1.3,9.600000000000001,0.9,-7.2,2.5,-3.5
1698672538384.0,16,-0.2,0.2,0.5,1.3,9.600000000000001,0.8,-16.900000000000002,4.0,-3.8
1698672538400.0,16,-0.2,0.1,0.30000000000000004,1.3,9.5,0.7000000000000001,-23.2,4.6000000000000005,-4.5
1698672538418.0,16,-0.2,0.0,0.30000000000000004,1.3,9.4,0.7000000000000001,-25.400000000000002,3.8,-4.7
1698672538436.0,16,-0.30000000000000004,-0.1,0.1,1.2000000000000002,9.4,0.6000000000000001,-26.0,3.4,-4.6000000000000005
1698672538450.0,16,-0.4,-0.1,0.0,1.1,9.3,0.5,-24.3,2.7,-2.9
1698672538467.0,16,-0.4,-0.1,-0.1,1.1,9.3,0.6000000000000001,-22.4,1.5000000000000002,-2.8
1698672538485.0,16,-0.30000000000000004,-0.2,0.0,1.2000000000000002,9.200000000000001,0.7000000000000001,-16.900000000000002,2.8,-3.0000000000000004
1698672538502.0,16,-0.2,-0.2,-0.1,1.2000000000000002,9.200000000000001,0.7000000000000001,-13.200000000000001,3.9,-3.3000000000000003
1698672538517.0,16,-0.2,-0.2,-0.1,1.3,9.200000000000001,0.7000000000000001,-5.8,2.8,-2.3000000000000003
1698672538533.0,16,-0.30000000000000004,-0.2,0.0,1.2000000000000002,9.200000000000001,0.7000000000000001,1.0999999999999999,0.9,0.1
1698672538550.0,16,-0.4,-0.2,0.0,1.0,9.200000000000001,0.7000000000000001,6.4,0.4,1.3
1698672538567.0,16,-0.4,-0.1,0.1,1.0,9.3,0.8,8.1,-0.4,1.4
1698672538584.0,16,-0.4,0.0,0.2,1.0,9.4,0.8,10.2,-1.4,0.7
1698672538600.0,16,-0.30000000000000004,0.0,0.30000000000000004,1.1,9.4,0.9,10.8,-1.6,0.1
1698672538617.0,16,-0.30000000000000004,0.0,0.30000000000000004,1.1,9.4,1.0,10.5,-1.4,-0.2
1698672538634.0,16,-0.2,-0.1,0.4,1.1,9.3,1.0,8.700000000000001,-0.7,-0.2
1698672538651.0,16,-0.2,-0.1,0.4,1.1,9.3,1.0,4.800000000000001,-0.7,0.2
1698672538670.0,16,-0.2,0.0,0.4,1.2000000000000002,9.4,1.0,2.5,-0.9,-0.1
1698672538684.0,16,-0.2,0.0,0.4,1.2000000000000002,9.4,1.0,-2.4000000000000004,-0.7,-1.2000000000000002
1698672538701.0,16,-0.2,-0.1,0.4,1.1,9.3,1.0,-4.9,-0.4,-1.8
1698672538717.0,16,-0.2,-0.1,0.30000000000000004,1.1,9.3,1.0,-9.200000000000001,0.30000000000000004,-1.8
1698672538736.0,16,-0.1,-0.1,0.2,1.2000000000000002,9.3,0.9,-12.200000000000001,0.30000000000000004,-1.9
1698672538752.0,16,-0.1,-0.1,0.1,1.2000000000000002,9.3,0.9,-13.5,0.1,-2.1999999999999997
1698672538768.0,16,0.0,-0.1,0.1,1.2000000000000002,9.3,0.9,-13.3,0.1,-2.1999999999999997
1698672538785.0,16,-0.1,-0.1,0.0,1.2000000000000002,9.3,0.9,-12.8,0.6000000000000001,-2.1
1698672538801.0,16,-0.1,-0.1,0.0,1.1,9.200000000000001,0.9,-9.0,1.4,-1.0
1698672538817.0,16,-0.1,-0.1,0.0,1.2000000000000002,9.200000000000001,0.9,-7.2,1.5000000000000002,-0.6000000000000001
1698672538834.0,16,-0.1,-0.1,-0.1,1.1,9.3,0.9,-4.0,1.0999999999999999,0.1
1698672538851.0,16,-0.2,0.0,0.0,1.1,9.3,0.9,-1.0,-0.5,0.9
1698672538867.0,16,-0.2,0.0,0.0,1.1,9.3,0.9,0.5,-0.9,1.2000000000000002
1698672538884.0,16,-0.1,0.0,0.1,1.1,9.3,1.0,2.8,-1.0,0.6000000000000001
1698672538900.0,16,-0.1,0.0,0.1,1.1,9.3,1.0,3.6,-0.5,-0.1
1698672538917.0,16,-0.1,0.0,0.2,1.2000000000000002,9.3,1.1,3.1,0.4,-0.1
1698672538934.0,16,0.0,0.0,0.2,1.2000000000000002,9.3,1.1,2.3000000000000003,1.0999999999999999,0.2
1698672538951.0,16,0.0,0.0,0.2,1.2000000000000002,9.3,1.1,0.1,2.1,0.7
1698672538967.0,16,0.0,0.0,0.2,1.2000000000000002,9.3,1.1,-1.0999999999999999,2.8,1.0
1698672538984.0,16,-0.1,0.0,0.1,1.2000000000000002,9.3,1.1,-3.8,4.0,1.0
1698672539000.0,16,-0.1,0.0,0.1,1.1,9.4,1.1,-6.1000000000000005,4.2,0.9
1698672539017.0,16,-0.2,0.0,0.0,1.1,9.3,1.0,-7.8,3.5,1.2000000000000002
1698672539034.0,16,-0.2,0.0,0.0,1.1,9.4,1.0,-8.3,3.5,1.2000000000000002
1698672539050.0,16,-0.2,-0.1,0.0,1.0,9.200000000000001,1.0,-8.200000000000001,2.8,0.6000000000000001
1698672539067.0,16,-0.2,-0.1,-0.1,1.0,9.3,1.0,-7.500000000000001,2.4000000000000004,0.4
1698672539085.0,16,-0.1,-0.1,0.0,1.1,9.200000000000001,1.1,-5.0,2.0,0.30000000000000004
1698672539100.0,16,-0.1,-0.1,0.0,1.1,9.200000000000001,1.1,-2.1,1.4,0.7
1698672539117.0,16,-0.1,-0.1,0.0,1.1,9.200000000000001,1.1,-0.6000000000000001,1.2000000000000002,0.9
1698672539134.0,16,0.0,-0.1,0.0,1.1,9.200000000000001,1.1,2.1999999999999997,1.0999999999999999,1.5000000000000002
1698672539151.0,16,0.0,-0.1,0.1,1.2000000000000002,9.200000000000001,1.2000000000000002,3.9,0.9,1.8
1698672539167.0,16,0.0,-0.1,0.1,1.2000000000000002,9.200000000000001,1.2000000000000002,4.5,0.7,1.9
1698672539184.0,16,0.0,0.0,0.1,1.2000000000000002,9.200000000000001,1.2000000000000002,4.7,0.7,2.3000000000000003
1698672539200.0,16,-0.1,0.0,0.1,1.1,9.3,1.2000000000000002,3.9,0.6000000000000001,2.3000000000000003
1698672539217.0,16,-0.1,0.0,0.1,1.1,9.3,1.2000000000000002,3.1,0.6000000000000001,2.1
1698672539234.0,16,-0.1,0.0,0.1,1.1,9.3,1.2000000000000002,0.8,0.6000000000000001,1.9
1698672539250.0,16,0.0,0.0,0.1,1.2000000000000002,9.200000000000001,1.2000000000000002,-0.8,0.5,1.3
1698672539267.0,16,0.0,-0.1,0.1,1.2000000000000002,9.200000000000001,1.2000000000000002,-2.3000000000000003,0.2,0.9
1698672539284.0,16,0.0,-0.1,0.1,1.2000000000000002,9.200000000000001,1.2000000000000002,-2.5,0.30000000000000004,0.8
1698672539300.0,16,0.0,0.0,0.0,1.2000000000000002,9.200000000000001,1.1,-3.2,0.5,0.8
1698672539317.0,16,0.0,0.0,0.0,1.2000000000000002,9.200000000000001,1.1,-3.2,0.0,0.9
1698672539334.0,16,0.0,0.0,0.0,1.2000000000000002,9.3,1.1,-2.8,0.0,0.8
1698672539351.0,16,0.0,0.0,0.0,1.2000000000000002,9.3,1.1,-1.6,0.0,0.5
1698672539367.0,16,0.0,0.0,0.0,1.3,9.3,1.1,-0.8,0.1,0.30000000000000004
1698672539384.0,16,0.0,0.0,0.0,1.2000000000000002,9.200000000000001,1.1,0.8,-0.8,0.4
1698672539400.0,16,-0.1,0.0,0.0,1.2000000000000002,9.3,1.1,1.8,-1.5000000000000002,0.6000000000000001
1698672539417.0,16,-0.1,0.0,0.0,1.1,9.3,1.1,2.3000000000000003,-2.9,0.1
1698672539433.0,16,-0.1,0.0,0.0,1.1,9.200000000000001,1.1,2.9,-3.0000000000000004,-0.4
1698672539450.0,16,-0.1,0.0,0.0,1.1,9.200000000000001,1.1,3.1,-3.1,-0.5
1698672539467.0,16,-0.1,0.0,0.0,1.1,9.3,1.1,3.1,-3.2,-0.4
1698672539483.0,16,0.0,0.0,0.0,1.2000000000000002,9.3,1.1,2.6,-3.2,-0.2
1698672539504.0,16,0.1,0.1,0.1,1.3,9.3,1.1,1.6,-2.7,-1.0
1698672539517.0,16,0.0,0.1,0.0,1.3,9.4,1.1,0.8,-2.1,-1.6
1698672539534.0,16,0.1,0.1,0.0,1.3,9.3,1.1,0.4,-1.3,-1.4
1698672539551.0,16,0.1,0.0,0.0,1.3,9.3,1.1,-0.2,-0.2,-0.9
1698672539567.0,16,0.1,0.0,0.0,1.3,9.3,1.1,-0.8,0.0,-0.2
1698672539583.0,16,0.1,0.0,0.0,1.3,9.3,1.0,-0.8,0.1,-0.2
1698672539600.0,16,0.0,0.0,0.0,1.2000000000000002,9.3,1.1,-0.1,0.4,-0.30000000000000004
1698672539617.0,16,0.0,0.0,0.0,1.2000000000000002,9.3,1.1,1.5000000000000002,0.6000000000000001,-0.1
1698672539635.0,16,0.0,-0.1,0.1,1.2000000000000002,9.200000000000001,1.1,2.1999999999999997,1.4,-0.4
1698672539650.0,16,0.0,0.0,0.0,1.2000000000000002,9.3,1.1,2.6,3.2,-0.6000000000000001
1698672539667.0,16,0.0,0.1,-0.1,1.2000000000000002,9.4,0.9,1.0999999999999999,3.8,0.6000000000000001
1698672539684.0,16,0.0,0.1,-0.1,1.2000000000000002,9.4,0.9,0.1,2.9,1.5000000000000002
1698672539701.0,16,-0.1,0.1,-0.1,1.1,9.4,1.0,-1.0,0.6000000000000001,2.7
1698672539717.0,16,-0.1,0.0,0.0,1.1,9.200000000000001,1.0,-0.9,-0.1,1.8
1698672539734.0,16,-0.1,-0.1,0.0,1.1,9.200000000000001,1.1,-0.4,0.2,0.7
1698672539751.0,16,0.1,-0.2,0.1,1.3,9.1,1.2000000000000002,1.5000000000000002,1.0999999999999999,-0.7
1698672539768.0,16,0.1,-0.1,0.1,1.3,9.1,1.2000000000000002,3.1,1.7,0.2
1698672539783.0,16,0.0,0.0,0.1,1.2000000000000002,9.3,1.1,4.2,2.1,1.2000000000000002
1698672539801.0,16,-0.1,0.1,0.1,1.1,9.4,1.1,4.2,1.7,1.4
1698672539817.0,16,-0.1,0.2,0.1,1.1,9.5,1.1,3.1,1.3,1.2000000000000002
1698672539833.0,16,-0.1,0.1,0.0,1.1,9.4,1.1,2.3000000000000003,1.4,1.0
1698672539851.0,16,-0.1,0.1,0.0,1.2000000000000002,9.4,1.1,0.1,0.9,0.2
1698672539867.0,16,0.0,0.0,0.0,1.2000000000000002,9.3,1.1,-2.4000000000000004,-0.2,-0.1
1698672539884.0,16,0.0,0.0,0.0,1.2000000000000002,9.4,1.1,-3.7000000000000006,-0.8,0.6000000000000001
1698672539900.0,16,-0.1,0.0,0.0,1.1,9.3,1.1,-3.9,-0.8,0.6000000000000001
1698672539917.0,16,-0.1,-0.1,-0.1,1.2000000000000002,9.200000000000001,1.0,-3.9,-0.7,0.5
1698672539937.0,16,0.0,-0.1,-0.1,1.2000000000000002,9.200000000000001,1.0,-3.9,-1.5000000000000002,0.7
1698672539950.0,16,-0.1,0.0,-0.1,1.1,9.3,1.0,-3.6,-1.9,0.9
1698672539967.0,16,0.0,0.0,-0.1,1.2000000000000002,9.3,1.0,-2.9,-2.6,0.8
1698672539983.0,16,-0.1,0.0,-0.1,1.2000000000000002,9.3,1.0,-2.5,-2.7,0.4
1698672540000.0,16,0.1,0.0,-0.1,1.3,9.200000000000001,1.0,-1.5000000000000002,-2.8,-0.2
1698672540017.0,16,0.1,0.0,0.0,1.3,9.3,1.0,-0.5,-3.0000000000000004,0.2
1698672540033.0,16,0.1,0.0,0.0,1.3,9.3,1.1,0.30000000000000004,-3.1,0.6000000000000001
1698672540050.0,16,0.1,0.1,0.0,1.3,9.3,1.1,0.8,-3.0000000000000004,0.6000000000000001
1698672540067.0,16,0.1,0.0,0.0,1.3,9.3,1.1,1.4,-2.9,0.7
1698672540083.0,16,0.1,0.0,0.1,1.3,9.3,1.1,1.7,-2.3000000000000003,0.2
1698672540100.0,16,0.1,0.0,0.1,1.3,9.3,1.1,1.6,-1.8,0.1
1698672540117.0,16,0.1,0.0,0.1,1.3,9.200000000000001,1.2000000000000002,0.7,-0.5,0.4
1698672540133.0,16,0.1,0.0,0.1,1.3,9.200000000000001,1.1,-0.8,0.0,0.7
1698672540150.0,16,0.0,0.0,0.0,1.3,9.200000000000001,1.1,-1.5000000000000002,-0.1,0.7
1698672540167.0,16,0.0,0.0,0.0,1.2000000000000002,9.3,1.1,-2.5,0.2,0.5
1698672540183.0,16,-0.1,0.0,-0.1,1.2000000000000002,9.200000000000001,1.0,-2.8,0.7,0.7
1698672540200.0,16,-0.1,0.0,-0.1,1.1,9.200000000000001,1.0,-2.5,0.8,0.9
1698672540217.0,16,-0.1,0.1,-0.1,1.1,9.3,1.0,-1.4,0.0,1.4
1698672540233.0,16,-0.1,0.2,-0.1,1.1,9.5,1.0,0.4,-2.0,1.6
1698672540251.0,16,0.0,0.2,-0.1,1.2000000000000002,9.5,1.0,1.6,-2.4000000000000004,1.0
1698672540267.0,16,0.1,0.0,0.0,1.4000000000000001,9.3,1.1,4.5,-2.1,-1.4
1698672540283.0,16,0.30000000000000004,-0.2,0.1,1.5,9.1,1.1,7.300000000000001,-0.2,-2.5
1698672540300.0,16,0.4,-0.2,0.1,1.6,9.1,1.1,8.600000000000001,1.2000000000000002,-2.3000000000000003
1698672540317.0,16,0.30000000000000004,-0.2,0.1,1.6,9.1,1.2000000000000002,8.700000000000001,2.5,-2.1
1698672540333.0,16,0.30000000000000004,-0.1,0.2,1.6,9.200000000000001,1.2000000000000002,8.9,5.0,-0.7
1698672540350.0,16,0.30000000000000004,-0.2,0.2,1.5,9.1,1.2000000000000002,8.9,6.2,0.0
1698672540367.0,16,0.2,-0.30000000000000004,0.2,1.4000000000000001,9.0,1.1,8.0,8.600000000000001,1.2000000000000002
1698672540383.0,16,0.1,-0.1,0.2,1.4000000000000001,9.200000000000001,1.1,6.3,9.4,1.8
1698672540400.0,16,0.1,0.0,0.1,1.4000000000000001,9.4,1.0,5.500000000000001,10.8,2.1
1698672540417.0,16,0.2,0.1,-0.2,1.5,9.4,0.8,3.4,8.700000000000001,3.1
1698672540433.0,16,-0.5,0.0,0.2,0.8,9.3,1.2000000000000002,-0.7,2.4000000000000004,3.7000000000000006
1698672540451.0,16,-0.30000000000000004,0.1,0.2,1.0,9.4,1.1,-0.30000000000000004,5.500000000000001,6.4
1698672540467.0,16,-0.4,0.1,-0.1,0.9,9.4,0.8,-0.9,8.1,5.8
1698672540484.0,16,-0.4,0.0,-0.1,1.0,9.3,0.9,-1.7,6.3,3.5
1698672540501.0,16,-0.30000000000000004,0.0,-0.1,1.0,9.3,0.8,-1.6,6.4,2.6
1698672540517.0,16,-0.2,0.1,0.0,1.1,9.4,0.9,-1.0,6.9,1.8
1698672540535.0,16,-0.2,0.1,-0.1,1.2000000000000002,9.4,0.8,-0.1,7.300000000000001,1.7
1698672540551.0,16,-0.1,0.0,-0.2,1.3,9.3,0.8,1.2000000000000002,5.1,2.3000000000000003
1698672540567.0,16,-0.1,0.0,-0.1,1.3,9.3,0.8,2.6,3.6,3.7000000000000006
1698672540585.0,16,-0.1,0.1,-0.1,1.2000000000000002,9.4,0.9,4.3999999999999995,2.8,3.9
1698672540600.0,16,-0.1,0.1,0.0,1.3,9.4,0.9,5.2,2.6,3.8
1698672540617.0,16,0.0,0.0,0.0,1.3,9.3,0.9,5.8,1.6,3.2
1698672540634.0,16,0.0,0.0,0.0,1.3,9.3,0.9,5.8,0.4,2.5
1698672540651.0,16,0.0,0.0,0.1,1.4000000000000001,9.3,0.9,5.0,-0.1,2.3000000000000003
1698672540668.0,16,0.1,0.0,0.1,1.4000000000000001,9.3,0.9,4.1000000000000005,-0.2,2.1
1698672540685.0,16,0.1,0.0,0.0,1.5,9.4,0.9,3.0000000000000004,-0.30000000000000004,2.0
1698672540701.0,16,0.1,0.0,0.1,1.4000000000000001,9.3,0.9,0.8,0.2,2.1
1698672540717.0,16,0.0,0.0,0.0,1.4000000000000001,9.3,0.9,-1.5000000000000002,0.6000000000000001,2.0
1698672540734.0,16,0.0,0.0,0.0,1.4000000000000001,9.3,0.9,-3.2,1.0,1.0
1698672540751.0,16,0.0,-0.1,0.0,1.4000000000000001,9.200000000000001,0.9,-3.8,1.3,0.8
1698672540767.0,16,0.0,-0.1,0.0,1.4000000000000001,9.200000000000001,0.8,-3.9,1.5000000000000002,0.7
1698672540783.0,16,0.0,0.0,-0.1,1.4000000000000001,9.3,0.8,-3.4,0.9,0.9
1698672540800.0,16,0.0,0.0,0.0,1.4000000000000001,9.3,0.8,-2.9,0.1,0.7
1698672540817.0,16,0.0,0.0,0.0,1.4000000000000001,9.3,0.9,-1.0999999999999999,-0.5,0.6000000000000001
1698672540833.0,16,0.0,0.0,0.0,1.4000000000000001,9.3,0.9,0.8,0.6000000000000001,0.6000000000000001
1698672540850.0,16,0.0,0.0,0.0,1.4000000000000001,9.3,0.9,2.1999999999999997,0.2,0.6000000000000001
1698672540869.0,16,0.0,0.0,0.0,1.4000000000000001,9.3,0.9,2.6,0.1,0.6000000000000001
1698672540884.0,16,0.0,0.0,0.0,1.4000000000000001,9.3,0.9,2.8,-0.1,1.0
1698672540900.0,16,0.0,0.0,0.0,1.4000000000000001,9.3,0.9,2.6,-0.2,1.0
1698672540917.0,16,0.0,-0.1,0.0,1.4000000000000001,9.200000000000001,0.9,1.8,-0.2,0.4
1698672540933.0,16,0.0,0.0,0.0,1.4000000000000001,9.3,0.9,0.5,-0.4,-0.1
1698672540951.0,16,-0.1,0.0,0.0,1.4000000000000001,9.3,0.9,-1.0999999999999999,-0.30000000000000004,-0.2
1698672540967.0,16,0.0,0.0,0.0,1.4000000000000001,9.200000000000001,0.9,-2.0,-0.2,-0.4
1698672540983.0,16,0.0,0.0,0.0,1.4000000000000001,9.3,0.9,-3.2,-1.0,-0.8
1698672541000.0,16,0.0,0.0,0.0,1.4000000000000001,9.3,0.9,-3.0000000000000004,-1.0999999999999999,-0.7
1698672541017.0,16,0.0,-0.1,0.0,1.4000000000000001,9.200000000000001,0.9,-2.4000000000000004,-1.0,-0.6000000000000001
1698672541034.0,16,0.0,-0.1,0.0,1.4000000000000001,9.200000000000001,0.9,-1.0999999999999999,-0.4,-0.5
1698672541050.0,16,0.0,0.0,0.0,1.4000000000000001,9.200000000000001,0.9,0.30000000000000004,-1.0999999999999999,-0.30000000000000004
1698672541067.0,16,0.0,0.0,-0.1,1.4000000000000001,9.3,0.9,0.9,-0.9,-0.2
1698672541084.0,16,0.0,0.0,-0.1,1.4000000000000001,9.3,0.8,1.5000000000000002,-1.5000000000000002,-0.5
1698672541100.0,16,0.0,0.0,0.0,1.4000000000000001,9.3,0.9,1.9,-2.1999999999999997,-0.9
1698672541117.0,16,0.0,0.0,0.0,1.4000000000000001,9.3,0.9,2.1999999999999997,-1.6,-0.9
1698672541133.0,16,0.0,0.0,0.0,1.4000000000000001,9.3,0.9,1.7,-1.0999999999999999,-0.2
1698672541151.0,16,0.0,0.0,0.0,1.4000000000000001,9.3,0.9,1.2000000000000002,-0.9,-0.1
1698672541169.0,16,0.0,0.0,0.0,1.4000000000000001,9.3,0.9,0.1,-1.4,-0.4
1698672541183.0,16,0.0,0.0,0.0,1.4000000000000001,9.200000000000001,0.9,-0.9,-2.1,-0.9
1698672541200.0,16,0.0,0.0,0.0,1.4000000000000001,9.3,0.9,-1.4,-2.9,-1.3
1698672541217.0,16,0.0,0.1,0.0,1.4000000000000001,9.3,0.9,-1.0,-2.4000000000000004,-1.0999999999999999
1698672541233.0,16,0.0,0.0,0.1,1.4000000000000001,9.3,1.0,-0.6000000000000001,-1.7,-1.0
1698672541250.0,16,0.1,0.0,0.0,1.5,9.3,0.9,0.1,-0.2,-0.7
1698672541267.0,16,0.0,0.0,0.0,1.4000000000000001,9.3,0.9,0.1,0.30000000000000004,0.1
1698672541283.0,16,0.0,0.1,0.0,1.4000000000000001,9.4,0.9,-0.1,0.5,0.7
1698672541300.0,16,0.0,0.0,0.0,1.3,9.3,0.9,-0.7,0.7,0.2
1698672541317.0,16,-0.1,-0.1,0.0,1.3,9.200000000000001,0.9,-1.0,0.4,0.0
1698672541333.0,16,-0.1,0.0,-0.1,1.3,9.3,0.8,-1.8,0.1,0.0
1698672541351.0,16,-0.1,0.0,-0.1,1.3,9.3,0.8,-2.1999999999999997,-1.4,0.0
1698672541367.0,16,0.0,0.0,0.0,1.3,9.3,0.8,-1.6,-2.1,-0.9
1698672541383.0,16,0.0,0.0,-0.1,1.4000000000000001,9.3,0.8,-1.4,-2.6,-1.2000000000000002
1698672541400.0,16,0.1,0.0,0.0,1.4000000000000001,9.3,0.9,-0.2,-3.3000000000000003,-1.9
1698672541417.0,16,0.1,-0.1,0.0,1.4000000000000001,9.200000000000001,0.9,0.5,-2.6,-1.9
1698672541433.0,16,0.1,-0.1,0.0,1.4000000000000001,9.200000000000001,0.9,1.7,-2.4000000000000004,-1.0
1698672541450.0,16,0.1,0.0,-0.1,1.5,9.200000000000001,0.8,1.6,-4.3999999999999995,-0.5
1698672541467.0,16,0.1,0.0,0.0,1.4000000000000001,9.3,1.0,0.8,-6.2,-1.8
1698672541484.0,16,0.0,0.0,0.1,1.4000000000000001,9.3,1.0,0.8,-5.7,-2.5
1698672541501.0,16,0.0,0.0,0.1,1.4000000000000001,9.3,1.0,1.0999999999999999,-4.3999999999999995,-2.9
1698672541517.0,16,0.1,0.0,0.1,1.5,9.3,0.9,1.2000000000000002,-1.7,-3.2
1698672541534.0,16,0.1,0.0,0.0,1.5,9.200000000000001,0.9,1.0999999999999999,-1.0999999999999999,-2.9
1698672541554.0,16,0.1,-0.1,0.0,1.5,9.200000000000001,0.9,0.30000000000000004,-1.8,-1.8
1698672541568.0,16,0.0,0.0,0.1,1.4000000000000001,9.200000000000001,1.0,-0.30000000000000004,-1.6,-1.3
1698672541584.0,16,0.0,0.0,0.1,1.4000000000000001,9.3,0.9,-0.4,-0.8,-1.5000000000000002
1698672541601.0,16,0.0,0.0,0.0,1.3,9.3,0.9,-0.8,0.30000000000000004,-1.7
1698672541617.0,16,0.0,0.0,-0.1,1.3,9.3,0.9,-1.0999999999999999,0.4,-1.8
1698672541636.0,16,0.0,0.0,-0.1,1.3,9.3,0.8,-2.1999999999999997,-1.3,-2.6
1698672541651.0,16,0.0,0.0,0.0,1.3,9.3,0.9,-2.6,-1.8,-2.9
1698672541667.0,16,0.0,0.0,-0.1,1.3,9.3,0.8,-2.1999999999999997,-1.3,-2.6
1698672541684.0,16,0.0,0.0,-0.1,1.3,9.3,0.8,-1.4,-0.8,-1.9
1698672541700.0,16,-0.1,0.0,-0.1,1.2000000000000002,9.3,0.8,-0.4,-0.2,-1.3
1698672541717.0,16,-0.1,0.0,0.0,1.2000000000000002,9.3,0.9,0.1,-0.6000000000000001,-1.2000000000000002
1698672541734.0,16,-0.1,0.0,0.0,1.2000000000000002,9.3,0.9,1.2000000000000002,-1.0,-1.5000000000000002
1698672541751.0,16,-0.1,0.0,0.0,1.2000000000000002,9.3,0.8,1.8,-1.3,-1.0999999999999999
1698672541767.0,16,0.0,0.0,0.1,1.3,9.3,0.9,1.7,-2.1,-0.9
1698672541785.0,16,0.0,0.0,0.0,1.3,9.3,0.9,1.6,-1.8,-0.9
1698672541800.0,16,0.0,0.0,0.0,1.3,9.3,0.9,0.9,-1.0999999999999999,-0.9
1698672541817.0,16,0.0,0.0,0.0,1.3,9.3,0.9,-0.2,-0.7,-0.7
1698672541834.0,16,0.0,0.0,0.0,1.3,9.3,0.9,-0.7,-0.7,-0.7
1698672541850.0,16,0.0,0.0,0.0,1.3,9.3,0.9,-1.6,0.0,-0.4
1698672541867.0,16,0.0,0.0,0.0,1.3,9.3,0.9,-2.4000000000000004,-0.4,-0.2
1698672541884.0,16,0.0,0.0,0.0,1.3,9.3,0.9,-2.5,0.0,-0.2
1698672541900.0,16,0.0,0.0,-0.1,1.3,9.3,0.8,-3.0000000000000004,0.30000000000000004,0.1
1698672541917.0,16,0.1,0.0,0.0,1.3,9.3,0.9,-2.7,0.4,-0.1
1698672541933.0,16,0.0,0.0,0.0,1.3,9.3,0.9,-2.1999999999999997,1.4,0.4
1698672541950.0,16,-0.1,0.0,-0.1,1.2000000000000002,9.3,0.9,-2.1,2.1,1.2000000000000002
1698672541967.0,16,-0.2,0.0,-0.30000000000000004,1.1,9.3,0.6000000000000001,-2.7,0.9,2.7
1698672541983.0,16,-0.2,0.0,-0.4,1.1,9.3,0.5,-4.0,-1.6,2.8
1698672542000.0,16,-0.2,0.1,-0.2,1.1,9.4,0.7000000000000001,-6.7,-9.1,2.1999999999999997
1698672542017.0,16,-0.2,0.30000000000000004,0.0,1.0,9.600000000000001,0.9,-4.3999999999999995,-10.2,1.3
1698672542033.0,16,-0.1,0.2,0.0,1.1,9.5,1.0,0.1,-9.1,-1.0
