msFromStart,interval,accx,accy,accz,accGx,accGy,accGz,rotRate_alpha,rotRate_beta,rotRate_gamma
1698924352015.0,16,0.0,0.0,0.0,-0.5,9.4,1.6,-1.3,-0.30000000000000004,0.30000000000000004
1698924352031.0,16,0.0,0.0,0.0,-0.5,9.4,1.6,-1.5000000000000002,-0.2,0.30000000000000004
1698924352048.0,16,0.0,0.0,0.0,-0.5,9.4,1.6,-1.5000000000000002,0.1,0.1
1698924352064.0,16,0.0,0.0,0.0,-0.4,9.3,1.6,-1.5000000000000002,-0.4,-0.1
1698924352081.0,16,0.0,0.0,0.0,-0.4,9.4,1.6,-1.5000000000000002,-0.4,-0.1
1698924352098.0,16,0.0,0.0,0.0,-0.4,9.3,1.7000000000000002,-1.4,-0.30000000000000004,0.2
1698924352114.0,16,0.0,0.0,0.0,-0.5,9.4,1.6,-0.9,-0.1,0.2
1698924352131.0,16,0.0,0.0,0.0,-0.5,9.4,1.6,-0.8,-0.2,0.1
1698924352148.0,16,0.0,0.0,0.0,-0.5,9.4,1.6,-0.6000000000000001,-0.4,0.0
1698924352164.0,16,0.0,0.0,0.0,-0.5,9.4,1.6,-0.8,-0.1,-0.1
1698924352181.0,16,0.0,0.0,0.0,-0.4,9.4,1.6,-1.0999999999999999,0.2,0.2
1698924352197.0,16,0.0,0.0,0.0,-0.5,9.4,1.6,-1.4,0.2,0.30000000000000004
1698924352214.0,16,0.0,0.0,0.0,-0.5,9.4,1.6,-1.5000000000000002,0.30000000000000004,0.30000000000000004
1698924352231.0,16,0.0,0.0,0.0,-0.5,9.4,1.6,-1.6,0.2,0.4
1698924352248.0,16,0.0,0.0,0.0,-0.5,9.4,1.6,-1.5000000000000002,-0.2,0.5
1698924352264.0,16,0.0,0.0,0.0,-0.5,9.4,1.6,-1.2000000000000002,-0.2,0.5
1698924352281.0,16,0.0,0.0,0.0,-0.4,9.4,1.6,-1.0999999999999999,-0.1,0.5
1698924352297.0,16,0.0,0.0,0.0,-0.5,9.4,1.7000000000000002,-0.8,0.5,0.8
1698924352314.0,16,0.0,0.0,0.0,-0.5,9.4,1.6,-0.8,0.0,0.8
1698924352331.0,16,0.0,0.0,0.0,-0.5,9.4,1.7000000000000002,-0.8,-0.2,0.7
1698924352347.0,16,0.0,0.0,0.0,-0.5,9.4,1.7000000000000002,-0.9,0.0,0.7
1698924352364.0,16,0.0,0.0,0.0,-0.4,9.4,1.7000000000000002,-0.9,0.5,0.6000000000000001
1698924352382.0,16,0.0,0.0,0.0,-0.4,9.3,1.7000000000000002,-0.8,0.2,0.6000000000000001
1698924352399.0,16,0.0,0.0,0.0,-0.4,9.4,1.7000000000000002,-0.7,0.2,0.6000000000000001
1698924352415.0,16,0.0,0.0,0.0,-0.4,9.4,1.7000000000000002,-0.8,0.0,0.5
1698924352432.0,16,0.0,0.0,0.0,-0.4,9.4,1.7000000000000002,-0.9,0.4,0.6000000000000001
1698924352448.0,16,0.0,0.0,0.0,-0.4,9.4,1.7000000000000002,-1.0,0.6000000000000001,0.6000000000000001
1698924352467.0,16,0.0,0.0,0.0,-0.5,9.3,1.7000000000000002,-0.9,1.0,0.6000000000000001
1698924352481.0,16,0.0,-0.1,0.0,-0.4,9.3,1.7000000000000002,-1.0999999999999999,0.7,0.6000000000000001
1698924352498.0,16,0.0,0.0,0.0,-0.4,9.4,1.7000000000000002,-1.0,0.30000000000000004,0.30000000000000004
1698924352514.0,16,0.0,0.0,0.0,-0.4,9.4,1.7000000000000002,-1.0,0.2,0.30000000000000004
1698924352530.0,16,0.0,0.0,0.0,-0.4,9.4,1.7000000000000002,-0.6000000000000001,0.5,0.5
1698924352548.0,16,0.0,0.0,0.0,-0.4,9.4,1.7000000000000002,-0.4,0.5,0.6000000000000001
1698924352564.0,16,0.0,0.0,0.0,-0.4,9.4,1.7000000000000002,0.2,0.2,0.5
1698924352581.0,16,0.0,0.0,0.0,-0.4,9.4,1.7000000000000002,0.2,-0.1,0.5
1698924352598.0,16,0.0,0.0,0.0,-0.4,9.3,1.7000000000000002,0.2,-0.1,0.30000000000000004
1698924352616.0,16,0.0,0.0,0.0,-0.4,9.4,1.7000000000000002,0.1,-0.2,0.2
1698924352632.0,16,0.0,0.0,0.0,-0.4,9.4,1.7000000000000002,0.0,-0.4,0.1
1698924352649.0,16,0.0,0.0,0.0,-0.4,9.4,1.7000000000000002,-0.9,0.2,0.0
1698924352664.0,16,0.0,0.0,0.0,-0.4,9.4,1.7000000000000002,-1.0999999999999999,0.4,0.0
1698924352681.0,16,0.0,0.0,0.0,-0.4,9.4,1.7000000000000002,-1.4,0.1,0.0
1698924352698.0,16,0.0,0.0,0.0,-0.4,9.4,1.6,-1.4,0.0,0.0
1698924352715.0,16,0.0,0.0,0.0,-0.4,9.4,1.7000000000000002,-1.2000000000000002,-0.2,0.2
1698924352731.0,16,0.0,0.0,0.0,-0.4,9.4,1.7000000000000002,-0.7,0.2,0.6000000000000001
1698924352748.0,16,0.0,0.0,0.0,-0.4,9.4,1.7000000000000002,-0.4,0.30000000000000004,0.7
1698924352764.0,16,0.0,0.0,0.0,-0.4,9.4,1.7000000000000002,0.30000000000000004,-0.1,0.5
1698924352781.0,16,0.0,0.0,0.0,-0.5,9.4,1.7000000000000002,0.5,-0.2,0.2
1698924352798.0,16,0.1,0.0,0.0,-0.4,9.4,1.7000000000000002,0.8,-0.4,0.0
1698924352814.0,16,0.1,0.0,0.1,-0.4,9.3,1.8,0.8,-0.1,0.0
1698924352831.0,16,0.0,0.0,0.0,-0.4,9.4,1.7000000000000002,0.30000000000000004,0.4,0.5
1698924352850.0,16,0.0,0.0,0.1,-0.4,9.4,1.8,-0.5,0.4,0.5
1698924352864.0,16,0.0,0.0,0.0,-0.4,9.3,1.7000000000000002,-0.5,0.5,0.2
1698924352881.0,16,0.0,-0.1,0.0,-0.4,9.3,1.7000000000000002,-0.8,0.4,-0.1
1698924352897.0,16,0.0,0.0,0.0,-0.4,9.3,1.7000000000000002,-0.9,0.2,-0.2
1698924352914.0,16,0.0,0.0,0.0,-0.4,9.4,1.7000000000000002,-0.5,1.0,0.30000000000000004
1698924352931.0,16,0.0,0.0,0.0,-0.4,9.3,1.7000000000000002,0.4,1.0,0.4
1698924352947.0,16,0.0,0.0,0.0,-0.4,9.4,1.7000000000000002,0.8,1.2000000000000002,0.6000000000000001
1698924352965.0,16,0.0,0.0,0.0,-0.4,9.4,1.7000000000000002,1.5000000000000002,0.8,0.5
1698924352981.0,16,0.0,0.0,0.0,-0.4,9.4,1.7000000000000002,1.4,0.5,0.0
1698924352998.0,16,0.0,0.0,0.0,-0.4,9.4,1.7000000000000002,1.2000000000000002,0.2,-0.1
1698924353014.0,16,0.0,0.0,0.0,-0.4,9.4,1.7000000000000002,0.5,0.2,-0.2
1698924353031.0,16,0.0,0.0,0.0,-0.4,9.4,1.7000000000000002,0.1,0.2,-0.1
1698924353048.0,16,0.0,0.0,0.0,-0.4,9.4,1.7000000000000002,-0.2,0.4,0.0
1698924353064.0,16,0.0,0.0,0.0,-0.4,9.4,1.7000000000000002,-0.30000000000000004,0.4,0.0
1698924353081.0,16,0.0,0.0,0.0,-0.4,9.4,1.6,0.0,0.2,-0.2
1698924353098.0,16,0.0,0.0,0.0,-0.4,9.4,1.7000000000000002,0.1,0.0,-0.2
1698924353115.0,16,0.0,0.0,0.0,-0.4,9.4,1.7000000000000002,0.4,-0.1,-0.1
1698924353131.0,16,0.0,0.0,0.0,-0.4,9.4,1.7000000000000002,0.4,-0.2,-0.30000000000000004
1698924353147.0,16,0.0,0.0,0.0,-0.4,9.4,1.7000000000000002,0.30000000000000004,0.0,-0.30000000000000004
1698924353165.0,16,0.0,0.0,0.0,-0.4,9.4,1.7000000000000002,0.2,0.0,-0.2
1698924353181.0,16,0.0,0.0,0.0,-0.4,9.4,1.7000000000000002,0.30000000000000004,-0.4,-0.2
1698924353197.0,16,0.0,0.0,0.0,-0.4,9.4,1.7000000000000002,0.30000000000000004,-0.4,-0.2
1698924353214.0,16,0.0,0.0,0.0,-0.4,9.3,1.7000000000000002,0.30000000000000004,-0.5,-0.2
1698924353231.0,16,0.0,0.1,0.0,-0.4,9.4,1.7000000000000002,0.0,-0.9,-0.30000000000000004
1698924353247.0,16,0.0,0.1,-0.1,-0.4,9.5,1.6,-0.30000000000000004,-1.0999999999999999,-0.5
1698924353264.0,16,0.0,0.1,-0.1,-0.4,9.4,1.6,-0.8,-0.7,-0.2
1698924353281.0,16,0.0,0.1,0.0,-0.4,9.5,1.7000000000000002,-2.3000000000000003,0.30000000000000004,0.30000000000000004
1698924353298.0,16,0.0,0.1,0.0,-0.5,9.5,1.7000000000000002,-2.9,0.2,0.1
1698924353314.0,16,0.0,0.0,0.0,-0.5,9.4,1.7000000000000002,-4.3999999999999995,0.7,0.30000000000000004
1698924353331.0,16,0.0,-0.1,-0.1,-0.4,9.3,1.7000000000000002,-4.3999999999999995,1.0,0.30000000000000004
1698924353350.0,16,0.0,-0.1,0.0,-0.4,9.3,1.7000000000000002,-3.1,-0.4,0.30000000000000004
1698924353364.0,16,0.0,-0.1,0.0,-0.4,9.3,1.7000000000000002,-1.8,-0.7,0.6000000000000001
1698924353381.0,16,0.0,-0.1,0.0,-0.4,9.3,1.7000000000000002,0.5,-0.8,0.8
1698924353399.0,16,-0.1,0.0,0.0,-0.5,9.3,1.7000000000000002,1.4,-1.0999999999999999,0.7
1698924353415.0,16,-0.1,0.0,0.1,-0.4,9.3,1.9000000000000001,3.3000000000000003,-1.4,0.6000000000000001
1698924353431.0,16,0.0,-0.1,0.2,-0.4,9.3,1.9000000000000001,3.5,-1.3,0.5
1698924353447.0,16,0.0,-0.1,0.2,-0.4,9.3,1.9000000000000001,2.4000000000000004,-0.5,0.5
1698924353464.0,16,0.1,-0.1,0.2,-0.4,9.3,1.9000000000000001,1.6,-0.1,0.30000000000000004
1698924353481.0,16,0.0,-0.1,0.1,-0.4,9.3,1.9000000000000001,0.7,0.5,0.30000000000000004
1698924353498.0,16,0.0,0.0,0.1,-0.4,9.3,1.8,0.2,1.3,0.30000000000000004
1698924353514.0,16,0.0,0.0,0.1,-0.4,9.3,1.8,0.2,1.6,0.1
1698924353531.0,16,0.0,0.0,0.1,-0.4,9.3,1.8,1.3,1.0,-0.7
1698924353548.0,16,0.0,0.0,0.0,-0.4,9.3,1.8,3.2,0.9,-0.8
1698924353564.0,16,0.0,0.0,0.0,-0.4,9.3,1.7000000000000002,3.9,0.6000000000000001,-1.6
1698924353581.0,16,0.1,0.0,0.0,-0.4,9.3,1.7000000000000002,4.1000000000000005,0.2,-2.0
1698924353599.0,16,0.0,0.0,0.0,-0.4,9.3,1.6,4.2,0.30000000000000004,-1.9
1698924353615.0,16,0.0,0.0,-0.1,-0.4,9.4,1.6,3.5,0.5,-1.3
1698924353632.0,16,0.0,0.1,0.0,-0.5,9.5,1.6,2.1,1.3,-0.5
1698924353647.0,16,-0.1,0.1,-0.1,-0.5,9.5,1.6,1.3,2.0,0.1
1698924353664.0,16,-0.1,0.0,-0.1,-0.5,9.3,1.6,0.7,1.8,0.30000000000000004
1698924353681.0,16,-0.1,0.0,-0.1,-0.5,9.3,1.6,0.6000000000000001,1.5000000000000002,0.30000000000000004
1698924353699.0,16,-0.1,0.0,-0.1,-0.5,9.4,1.6,0.9,1.0999999999999999,0.2
1698924353714.0,16,0.0,0.1,-0.1,-0.5,9.4,1.5,1.8,-0.2,0.30000000000000004
1698924353731.0,16,0.0,0.1,-0.1,-0.5,9.5,1.5,2.4000000000000004,-0.6000000000000001,0.6000000000000001
1698924353750.0,16,0.0,0.1,-0.1,-0.5,9.5,1.6,2.7,-1.2000000000000002,0.8
1698924353766.0,16,0.0,0.1,-0.1,-0.5,9.5,1.5,2.9,-1.3,0.7
1698924353781.0,16,0.0,0.0,0.0,-0.4,9.4,1.6,2.5,-2.1999999999999997,0.2
1698924353797.0,16,0.1,0.0,0.0,-0.4,9.4,1.6,1.9,-2.1,-0.30000000000000004
1698924353815.0,16,0.1,0.1,0.0,-0.30000000000000004,9.5,1.6,1.8,-2.5,-0.8
1698924353832.0,16,0.1,0.1,0.0,-0.30000000000000004,9.5,1.6,1.0,-2.8,-1.9
1698924353847.0,16,0.0,0.0,0.0,-0.4,9.4,1.6,-0.30000000000000004,-1.2000000000000002,-1.7
1698924353864.0,16,0.0,0.0,0.0,-0.4,9.4,1.6,-0.9,-0.1,-1.4
1698924353881.0,16,0.0,0.0,0.0,-0.5,9.4,1.6,-0.8,0.7,-1.4
1698924353897.0,16,0.0,-0.1,-0.1,-0.4,9.3,1.5,-0.8,1.4,-1.0
1698924353915.0,16,0.0,-0.1,0.0,-0.4,9.3,1.5,-0.6000000000000001,1.3,-1.0999999999999999
1698924353931.0,16,0.1,0.0,-0.1,-0.4,9.4,1.5,-0.4,1.8,-0.5
1698924353948.0,16,0.1,-0.1,0.1,-0.30000000000000004,9.3,1.7000000000000002,-0.1,4.0,0.5
1698924353964.0,16,0.1,-0.2,0.1,-0.4,9.200000000000001,1.7000000000000002,1.4,4.9,1.0
1698924353981.0,16,-0.1,-0.30000000000000004,0.2,-0.5,9.1,1.8,4.5,2.9,2.1999999999999997
1698924353998.0,16,-0.2,-0.2,0.30000000000000004,-0.6000000000000001,9.200000000000001,1.8,7.400000000000001,1.8,2.0
1698924354014.0,16,-0.1,0.0,0.2,-0.6000000000000001,9.3,1.8,8.5,1.6,1.4
1698924354030.0,16,-0.1,0.0,0.2,-0.5,9.4,1.8,8.5,1.0,0.0
1698924354049.0,16,0.0,0.1,0.1,-0.5,9.4,1.7000000000000002,5.1,2.3000000000000003,0.0
1698924354065.0,16,0.0,0.0,0.2,-0.4,9.4,1.7000000000000002,3.1,2.6,0.2
1698924354081.0,16,0.0,0.0,0.1,-0.4,9.4,1.6,0.0,1.8,0.0
1698924354098.0,16,-0.1,0.1,0.0,-0.5,9.5,1.5,-2.8,1.7,-0.1
1698924354115.0,16,-0.1,0.2,-0.1,-0.6000000000000001,9.5,1.5,-3.7000000000000006,1.5000000000000002,-0.30000000000000004
1698924354131.0,16,-0.1,0.30000000000000004,-0.2,-0.5,9.700000000000001,1.4000000000000001,-4.7,1.2000000000000002,-0.7
1698924354148.0,16,0.0,0.30000000000000004,-0.4,-0.5,9.700000000000001,1.2000000000000002,-5.8,1.7,-0.5
1698924354164.0,16,0.0,0.30000000000000004,-0.4,-0.4,9.700000000000001,1.2000000000000002,-7.300000000000001,2.7,0.9
1698924354181.0,16,0.0,0.30000000000000004,-0.5,-0.5,9.700000000000001,1.1,-7.9,1.0,1.6
1698924354197.0,16,-0.1,0.30000000000000004,-0.6000000000000001,-0.5,9.700000000000001,1.1,-8.0,0.1,1.5000000000000002
1698924354214.0,16,0.0,0.2,-0.6000000000000001,-0.5,9.5,1.1,-7.0,-0.4,0.8
1698924354231.0,16,0.0,0.1,-0.5,-0.4,9.5,1.2000000000000002,-6.2,-1.0,0.5
1698924354248.0,16,0.1,0.0,-0.4,-0.4,9.4,1.2000000000000002,-3.1,-1.8,0.8
1698924354264.0,16,0.0,0.0,-0.30000000000000004,-0.4,9.4,1.3,-1.0999999999999999,-2.1,1.3
1698924354281.0,16,0.1,-0.1,0.0,-0.4,9.3,1.5,3.5,-2.3000000000000003,2.5
1698924354297.0,16,0.1,-0.2,0.0,-0.30000000000000004,9.200000000000001,1.7000000000000002,8.3,-2.1999999999999997,2.1999999999999997
1698924354315.0,16,0.2,-0.2,0.2,-0.2,9.200000000000001,1.8,10.2,-2.7,1.3
1698924354331.0,16,0.2,-0.1,0.30000000000000004,-0.2,9.3,1.9000000000000001,10.3,-2.3000000000000003,0.8
1698924354348.0,16,0.1,-0.2,0.5,-0.30000000000000004,9.200000000000001,2.0,8.600000000000001,-0.5,0.6000000000000001
1698924354364.0,16,0.1,-0.2,0.6000000000000001,-0.30000000000000004,9.200000000000001,2.1,6.8,0.9,0.6000000000000001
1698924354381.0,16,0.0,-0.2,0.5,-0.30000000000000004,9.200000000000001,2.1,2.5,2.1,0.2
1698924354397.0,16,0.0,-0.2,0.5,-0.4,9.200000000000001,2.0,-2.5,1.6,-0.6000000000000001
1698924354414.0,16,-0.1,-0.1,0.30000000000000004,-0.5,9.3,1.9000000000000001,-6.1000000000000005,1.6,-0.8
1698924354431.0,16,-0.1,-0.1,0.30000000000000004,-0.5,9.3,1.9000000000000001,-7.1000000000000005,1.3,-1.2000000000000002
1698924354449.0,16,-0.1,0.0,0.1,-0.5,9.4,1.7000000000000002,-7.500000000000001,0.30000000000000004,-2.0
1698924354465.0,16,-0.1,0.1,0.0,-0.5,9.4,1.6,-7.300000000000001,0.0,-2.3000000000000003
1698924354482.0,16,-0.1,0.1,-0.2,-0.6000000000000001,9.5,1.5,-6.3,0.30000000000000004,-2.1999999999999997
1698924354499.0,16,-0.1,0.1,-0.2,-0.5,9.5,1.4000000000000001,-5.300000000000001,0.1,-2.1999999999999997
1698924354514.0,16,-0.1,0.2,-0.4,-0.5,9.5,1.3,-3.7000000000000006,-1.0999999999999999,-1.9
1698924354530.0,16,0.0,0.1,-0.4,-0.5,9.5,1.3,-2.6,-1.6,-1.6
1698924354547.0,16,0.0,0.1,-0.4,-0.5,9.5,1.3,-2.0,-1.9,-1.5000000000000002
1698924354564.0,16,0.0,0.1,-0.30000000000000004,-0.4,9.4,1.3,-0.30000000000000004,-3.1,-1.0999999999999999
1698924354581.0,16,0.0,0.0,-0.30000000000000004,-0.4,9.4,1.3,0.7,-3.1,-0.6000000000000001
1698924354599.0,16,0.0,0.0,-0.2,-0.4,9.4,1.4000000000000001,2.8,-2.3000000000000003,0.30000000000000004
1698924354614.0,16,0.1,0.0,0.0,-0.4,9.4,1.6,4.9,-2.4000000000000004,0.1
1698924354631.0,16,0.1,-0.1,0.1,-0.4,9.3,1.7000000000000002,7.1000000000000005,-1.6,0.2
1698924354648.0,16,0.1,-0.1,0.1,-0.4,9.3,1.7000000000000002,7.9,-0.8,0.6000000000000001
1698924354664.0,16,0.1,0.0,0.2,-0.4,9.4,1.8,8.200000000000001,-0.7,1.0999999999999999
1698924354680.0,16,0.1,0.0,0.30000000000000004,-0.4,9.4,1.8,6.9,-0.30000000000000004,0.4
1698924354697.0,16,0.0,0.0,0.30000000000000004,-0.4,9.4,1.8,5.8,0.2,0.1
1698924354714.0,16,0.0,0.0,0.30000000000000004,-0.4,9.4,1.8,2.3000000000000003,0.7,-0.30000000000000004
1698924354730.0,16,0.0,0.0,0.2,-0.5,9.4,1.8,0.2,1.0,-0.5
1698924354747.0,16,0.0,0.0,0.2,-0.4,9.4,1.7000000000000002,-2.0,0.9,-0.9
1698924354764.0,16,0.0,-0.1,0.1,-0.5,9.3,1.6,-7.2,1.4,-1.5000000000000002
1698924354780.0,16,0.0,-0.1,-0.1,-0.5,9.3,1.6,-7.8,1.3,-0.6000000000000001
1698924354798.0,16,0.0,0.0,-0.1,-0.5,9.3,1.6,-6.7,0.9,0.1
1698924354814.0,16,-0.1,0.0,-0.1,-0.5,9.4,1.6,-5.4,0.30000000000000004,-0.1
1698924354830.0,16,-0.1,0.1,-0.2,-0.5,9.5,1.5,-2.1999999999999997,-1.0,-0.9
1698924354848.0,16,0.0,0.1,-0.2,-0.5,9.4,1.5,-0.5,-1.2000000000000002,-1.2000000000000002
1698924354864.0,16,0.0,0.1,-0.1,-0.5,9.4,1.5,2.0,-1.0,-0.7
1698924354881.0,16,0.0,0.1,-0.1,-0.5,9.4,1.5,3.6,-0.9,-0.30000000000000004
1698924354897.0,16,0.0,0.1,-0.1,-0.5,9.4,1.5,3.7000000000000006,-0.9,-0.30000000000000004
1698924354914.0,16,0.0,0.0,0.0,-0.5,9.4,1.6,3.6,-0.4,0.0
1698924354931.0,16,0.0,0.0,0.0,-0.5,9.4,1.6,3.0000000000000004,-0.8,0.30000000000000004
1698924354948.0,16,0.0,0.0,0.1,-0.5,9.4,1.7000000000000002,2.3000000000000003,-0.1,0.4
1698924354964.0,16,0.0,0.0,0.1,-0.4,9.4,1.6,1.0999999999999999,-0.1,0.1
1698924354981.0,16,0.0,0.0,0.0,-0.4,9.4,1.6,-0.5,-0.4,-0.30000000000000004
1698924354998.0,16,0.0,0.1,0.0,-0.4,9.5,1.6,-1.5000000000000002,-0.1,-0.30000000000000004
1698924355014.0,16,0.0,0.1,0.0,-0.5,9.5,1.6,-2.5,0.5,0.0
1698924355031.0,16,0.0,0.0,0.0,-0.5,9.4,1.6,-2.3000000000000003,0.7,0.30000000000000004
1698924355047.0,16,0.0,0.0,0.0,-0.5,9.4,1.5,-2.0,0.8,0.4
1698924355064.0,16,0.0,0.0,-0.1,-0.5,9.4,1.5,-1.0999999999999999,0.7,0.1
1698924355081.0,16,0.0,0.0,-0.1,-0.4,9.4,1.5,-0.30000000000000004,0.7,0.1
1698924355098.0,16,0.0,0.0,-0.1,-0.4,9.4,1.5,0.8,0.30000000000000004,0.30000000000000004
1698924355115.0,16,0.0,0.0,-0.1,-0.5,9.4,1.5,1.8,0.2,0.6000000000000001
1698924355131.0,16,0.0,0.0,0.0,-0.5,9.4,1.6,1.8,0.0,0.6000000000000001
1698924355147.0,16,0.0,0.0,0.0,-0.5,9.4,1.6,1.3,-0.4,0.5
1698924355164.0,16,0.0,0.0,0.0,-0.5,9.4,1.6,1.0999999999999999,-0.7,0.5
1698924355181.0,16,0.0,0.0,0.0,-0.5,9.4,1.6,0.5,-0.9,0.5
1698924355197.0,16,0.0,0.0,0.1,-0.5,9.4,1.6,0.30000000000000004,-0.7,0.7
1698924355216.0,16,0.0,0.0,0.1,-0.5,9.4,1.6,-0.1,-0.9,0.4
1698924355231.0,16,0.0,0.0,0.1,-0.4,9.4,1.6,-0.2,-1.0,0.1
1698924355248.0,16,0.0,0.0,0.0,-0.5,9.4,1.6,-0.6000000000000001,-0.9,0.1
1698924355264.0,16,0.0,0.0,0.1,-0.4,9.4,1.6,-1.7,-0.7,0.1
1698924355281.0,16,0.0,0.0,0.0,-0.4,9.4,1.6,-1.8,-0.2,0.0
1698924355297.0,16,0.0,0.0,0.0,-0.4,9.4,1.6,-1.8,0.30000000000000004,0.0
1698924355314.0,16,0.0,0.0,0.0,-0.4,9.4,1.6,-1.4,0.1,0.0
1698924355331.0,16,0.0,-0.1,0.0,-0.4,9.3,1.6,-0.5,0.30000000000000004,0.0
1698924355347.0,16,0.0,0.0,0.0,-0.4,9.3,1.6,0.6000000000000001,0.2,0.0
1698924355365.0,16,0.0,0.0,0.0,-0.5,9.4,1.6,0.8,0.6000000000000001,0.0
1698924355381.0,16,0.0,0.0,0.0,-0.4,9.4,1.6,0.9,1.0999999999999999,0.2
1698924355397.0,16,0.0,0.0,0.0,-0.4,9.4,1.6,1.0,1.2000000000000002,0.1
1698924355415.0,16,0.0,-0.1,0.0,-0.4,9.3,1.6,0.8,1.3,-0.1
1698924355431.0,16,0.0,-0.1,0.1,-0.5,9.3,1.7000000000000002,0.5,1.8,0.2
1698924355447.0,16,-0.1,0.0,0.1,-0.5,9.3,1.7000000000000002,0.2,1.6,1.2000000000000002
1698924355464.0,16,-0.1,0.0,0.1,-0.5,9.3,1.7000000000000002,0.2,1.5000000000000002,1.6
1698924355481.0,16,-0.1,0.0,0.1,-0.6000000000000001,9.4,1.7000000000000002,-0.2,1.3,2.3000000000000003
1698924355497.0,16,0.0,0.0,0.0,-0.5,9.3,1.7000000000000002,-0.30000000000000004,1.8,1.6
1698924355515.0,16,0.1,0.0,0.0,-0.4,9.3,1.6,-0.4,1.6,1.0999999999999999
1698924355531.0,16,0.2,0.0,0.0,-0.30000000000000004,9.4,1.7000000000000002,0.0,2.9,0.7
1698924355548.0,16,0.1,0.0,0.0,-0.30000000000000004,9.4,1.6,0.4,3.8,0.9
1698924355564.0,16,0.0,-0.1,0.0,-0.4,9.3,1.6,1.3,4.300000000000001,2.0
1698924355581.0,16,0.0,-0.1,0.0,-0.4,9.3,1.6,2.4000000000000004,3.1,2.6
1698924355598.0,16,0.0,-0.1,0.0,-0.4,9.3,1.6,3.2,2.4000000000000004,2.4000000000000004
1698924355615.0,16,0.0,0.0,0.0,-0.4,9.3,1.6,4.1000000000000005,0.9,2.0
1698924355631.0,16,0.0,0.0,0.0,-0.4,9.4,1.6,4.3999999999999995,0.2,2.5
1698924355648.0,16,-0.1,0.0,0.0,-0.5,9.4,1.5,4.300000000000001,-0.2,2.9
1698924355664.0,16,0.0,0.0,0.0,-0.4,9.4,1.6,4.6000000000000005,-0.8,2.8
1698924355681.0,16,0.0,0.0,0.0,-0.4,9.4,1.5,4.6000000000000005,-1.3,2.6
1698924355697.0,16,-0.1,0.0,0.0,-0.4,9.3,1.6,4.3999999999999995,-2.1,2.1
1698924355714.0,16,-0.1,0.0,0.0,-0.4,9.3,1.5,4.300000000000001,-1.9,1.8
1698924355731.0,16,0.0,0.0,0.0,-0.30000000000000004,9.4,1.5,4.2,-2.1999999999999997,0.9
1698924355748.0,16,0.0,0.1,0.0,-0.30000000000000004,9.5,1.5,4.300000000000001,-3.7000000000000006,0.0
1698924355764.0,16,0.1,0.2,0.0,-0.30000000000000004,9.5,1.5,4.5,-3.7000000000000006,0.0
1698924355781.0,16,0.1,0.1,0.0,-0.30000000000000004,9.5,1.4000000000000001,4.7,-2.4000000000000004,0.30000000000000004
1698924355797.0,16,0.1,0.0,0.0,-0.30000000000000004,9.4,1.4000000000000001,4.9,-2.5,0.0
1698924355814.0,16,0.0,-0.1,-0.1,-0.4,9.3,1.3,4.6000000000000005,-2.1,-0.1
1698924355831.0,16,0.0,-0.1,-0.1,-0.30000000000000004,9.3,1.3,3.8,-2.1999999999999997,0.8
1698924355848.0,16,0.0,0.1,-0.1,-0.30000000000000004,9.5,1.4000000000000001,2.9,-2.1,1.2000000000000002
1698924355864.0,16,-0.1,0.2,-0.1,-0.4,9.600000000000001,1.3,1.9,-0.4,0.5
1698924355881.0,16,-0.1,0.1,-0.2,-0.4,9.5,1.2000000000000002,0.4,0.0,0.30000000000000004
1698924355897.0,16,-0.1,0.0,-0.2,-0.5,9.4,1.2000000000000002,-0.6000000000000001,-0.7,0.8
1698924355915.0,16,-0.1,0.1,-0.2,-0.5,9.5,1.2000000000000002,-0.5,-1.2000000000000002,0.8
1698924355931.0,16,-0.1,0.1,-0.2,-0.4,9.5,1.2000000000000002,-0.2,-2.3000000000000003,0.6000000000000001
1698924355948.0,16,0.0,0.1,-0.2,-0.30000000000000004,9.5,1.2000000000000002,0.5,-2.1,0.7
1698924355965.0,16,0.0,0.1,-0.2,-0.30000000000000004,9.5,1.2000000000000002,1.0,-2.5,0.8
1698924355981.0,16,0.1,0.1,-0.1,-0.30000000000000004,9.5,1.3,2.1,-2.4000000000000004,0.8
1698924355997.0,16,0.1,0.0,0.0,-0.30000000000000004,9.5,1.3,3.2,-1.5000000000000002,1.0
1698924356015.0,16,0.1,0.0,0.0,-0.2,9.5,1.3,3.5,-1.2000000000000002,1.0999999999999999
1698924356032.0,16,0.1,0.0,0.1,-0.30000000000000004,9.5,1.4000000000000001,2.7,-0.7,0.7
1698924356047.0,16,0.0,0.0,0.1,-0.30000000000000004,9.5,1.4000000000000001,2.1999999999999997,-0.4,0.5
1698924356064.0,16,0.1,0.0,0.1,-0.30000000000000004,9.5,1.4000000000000001,0.6000000000000001,-0.1,0.1
1698924356081.0,16,0.1,-0.1,0.1,-0.30000000000000004,9.4,1.4000000000000001,-0.4,0.2,0.1
1698924356097.0,16,0.0,-0.1,0.0,-0.30000000000000004,9.3,1.4000000000000001,-2.4000000000000004,1.0,0.0
1698924356114.0,16,0.0,0.0,0.0,-0.30000000000000004,9.4,1.4000000000000001,-3.3000000000000003,1.0,0.0
1698924356130.0,16,0.0,0.0,0.0,-0.4,9.4,1.4000000000000001,-3.1,0.8,0.1
1698924356147.0,16,0.0,0.0,0.0,-0.30000000000000004,9.4,1.4000000000000001,-2.6,0.6000000000000001,0.30000000000000004
1698924356164.0,16,0.0,0.0,0.0,-0.30000000000000004,9.4,1.4000000000000001,-1.7,0.4,0.0
1698924356180.0,16,0.0,0.0,0.0,-0.30000000000000004,9.4,1.4000000000000001,-1.2000000000000002,0.1,-0.2
1698924356197.0,16,0.0,0.0,0.0,-0.30000000000000004,9.5,1.3,-0.30000000000000004,0.1,-0.2
1698924356214.0,16,0.0,0.0,0.0,-0.30000000000000004,9.4,1.4000000000000001,-0.2,0.4,0.0
1698924356230.0,16,0.0,0.0,0.0,-0.4,9.4,1.4000000000000001,0.0,0.4,0.0
1698924356248.0,16,-0.1,0.0,0.0,-0.4,9.4,1.3,-0.30000000000000004,0.30000000000000004,0.1
1698924356264.0,16,-0.1,0.0,0.0,-0.4,9.4,1.3,-1.2000000000000002,-0.2,0.1
1698924356280.0,16,0.0,0.0,0.0,-0.4,9.4,1.4000000000000001,-1.7,-0.4,0.2
1698924356298.0,16,0.0,0.0,0.0,-0.30000000000000004,9.5,1.4000000000000001,-2.4000000000000004,-0.7,0.1
1698924356314.0,16,0.0,0.0,0.0,-0.30000000000000004,9.4,1.4000000000000001,-2.8,-0.9,0.0
1698924356330.0,16,0.0,0.0,0.0,-0.30000000000000004,9.4,1.4000000000000001,-2.8,-0.8,-0.1
1698924356348.0,16,0.0,0.0,0.0,-0.30000000000000004,9.4,1.4000000000000001,-2.6,-0.7,0.2
1698924356365.0,16,0.0,0.0,0.0,-0.30000000000000004,9.4,1.4000000000000001,-2.3000000000000003,-0.5,0.4
1698924356381.0,16,0.0,0.0,0.0,-0.30000000000000004,9.4,1.4000000000000001,-1.7,-0.2,0.30000000000000004
1698924356397.0,16,0.0,0.0,0.0,-0.30000000000000004,9.4,1.5,-0.5,-0.6000000000000001,0.2
1698924356414.0,16,0.0,0.1,0.0,-0.30000000000000004,9.5,1.4000000000000001,-0.1,-0.1,0.2
1698924356430.0,16,0.0,0.0,0.0,-0.30000000000000004,9.5,1.4000000000000001,-0.6000000000000001,1.0,0.30000000000000004
1698924356447.0,16,0.0,-0.1,0.0,-0.30000000000000004,9.4,1.5,-0.9,1.2000000000000002,0.2
1698924356464.0,16,0.0,-0.1,0.1,-0.30000000000000004,9.4,1.5,-1.8,0.4,-0.1
1698924356480.0,16,0.0,0.0,0.0,-0.30000000000000004,9.4,1.5,-2.0,0.6000000000000001,-0.30000000000000004
1698924356498.0,16,0.0,-0.1,0.0,-0.30000000000000004,9.4,1.5,-2.8,0.30000000000000004,0.0
1698924356514.0,16,0.0,0.0,0.0,-0.30000000000000004,9.4,1.5,-2.9,0.4,0.1
1698924356531.0,16,0.0,0.0,0.1,-0.30000000000000004,9.4,1.5,-2.8,0.4,0.0
1698924356549.0,16,0.0,0.0,0.0,-0.30000000000000004,9.4,1.4000000000000001,-2.8,0.9,0.0
1698924356564.0,16,0.0,0.0,0.0,-0.4,9.4,1.5,-2.5,0.6000000000000001,-0.1
1698924356582.0,16,0.0,0.0,0.0,-0.30000000000000004,9.4,1.5,-2.1,0.4,0.0
1698924356597.0,16,0.0,-0.1,0.0,-0.30000000000000004,9.4,1.5,-1.5000000000000002,0.4,0.0
1698924356615.0,16,0.0,0.0,0.0,-0.30000000000000004,9.4,1.5,-1.4,0.1,0.1
1698924356632.0,16,0.0,0.0,-0.1,-0.4,9.4,1.4000000000000001,-1.2000000000000002,0.30000000000000004,0.6000000000000001
1698924356648.0,16,0.0,0.0,0.0,-0.4,9.4,1.5,-1.2000000000000002,0.30000000000000004,0.6000000000000001
1698924356664.0,16,0.0,0.0,0.0,-0.30000000000000004,9.4,1.5,-0.6000000000000001,0.4,0.4
1698924356680.0,16,0.0,0.0,0.0,-0.30000000000000004,9.4,1.5,-0.30000000000000004,0.2,0.30000000000000004
1698924356698.0,16,0.0,0.0,0.0,-0.30000000000000004,9.4,1.5,-0.30000000000000004,-0.30000000000000004,0.1
1698924356714.0,16,0.0,0.0,0.0,-0.30000000000000004,9.4,1.5,-0.4,-0.7,0.0
1698924356730.0,16,0.0,0.0,0.0,-0.30000000000000004,9.4,1.5,-0.6000000000000001,0.1,0.1
1698924356747.0,16,0.0,0.0,0.0,-0.30000000000000004,9.4,1.5,-0.8,0.5,0.1
1698924356764.0,16,0.0,-0.1,0.0,-0.30000000000000004,9.3,1.5,-1.4,0.9,0.1
1698924356781.0,16,0.0,0.0,0.0,-0.30000000000000004,9.4,1.5,-1.5000000000000002,0.5,0.5
1698924356797.0,16,0.0,0.0,0.0,-0.30000000000000004,9.4,1.5,-1.8,0.2,0.8
1698924356814.0,16,0.0,0.0,0.1,-0.30000000000000004,9.4,1.6,-1.9,0.7,1.0
1698924356830.0,16,0.0,0.0,0.0,-0.30000000000000004,9.4,1.5,-1.4,1.0,0.9
1698924356847.0,16,0.0,0.0,0.0,-0.30000000000000004,9.4,1.5,-1.2000000000000002,1.0,0.8
1698924356865.0,16,0.0,0.0,0.0,-0.30000000000000004,9.4,1.5,-0.5,1.0,0.30000000000000004
1698924356880.0,16,0.0,0.0,0.0,-0.30000000000000004,9.4,1.5,0.2,0.8,0.6000000000000001
1698924356897.0,16,0.0,0.0,0.0,-0.30000000000000004,9.4,1.5,0.30000000000000004,0.8,0.9
1698924356915.0,16,0.1,0.2,0.0,-0.2,9.600000000000001,1.6,0.2,0.7,0.8
1698924356931.0,16,-0.1,-0.1,0.0,-0.4,9.3,1.6,0.5,0.1,-0.8
1698924356948.0,16,0.0,0.0,0.0,-0.30000000000000004,9.4,1.6,0.5,0.7,-0.5
1698924356964.0,16,0.0,0.0,0.0,-0.30000000000000004,9.4,1.5,0.30000000000000004,-0.1,-0.30000000000000004
1698924356981.0,16,0.0,-0.1,0.0,-0.30000000000000004,9.3,1.5,-0.4,0.1,0.1
1698924356998.0,16,0.0,-0.1,0.0,-0.30000000000000004,9.3,1.6,-0.7,0.2,0.4
1698924357015.0,16,0.0,0.0,0.0,-0.30000000000000004,9.4,1.6,-0.9,0.2,0.9
1698924357032.0,16,0.0,0.0,0.0,-0.30000000000000004,9.4,1.6,-0.9,0.2,1.0999999999999999
1698924357047.0,16,0.0,0.0,0.0,-0.30000000000000004,9.4,1.6,-0.8,0.1,0.8
1698924357064.0,16,0.0,0.0,0.0,-0.30000000000000004,9.4,1.5,-0.9,0.2,0.30000000000000004
1698924357080.0,16,0.0,0.0,0.0,-0.30000000000000004,9.4,1.5,-0.6000000000000001,0.0,0.2
1698924357097.0,16,0.0,0.0,0.0,-0.30000000000000004,9.4,1.5,-0.6000000000000001,0.2,0.4
1698924357114.0,16,0.0,0.0,0.0,-0.30000000000000004,9.4,1.5,-0.30000000000000004,0.0,0.9
1698924357130.0,16,-0.1,0.1,-0.1,-0.4,9.5,1.5,-0.9,-0.7,1.0
1698924357147.0,16,-0.1,0.2,-0.1,-0.4,9.600000000000001,1.5,-1.5000000000000002,-0.7,1.0
1698924357165.0,16,-0.1,0.2,0.0,-0.4,9.600000000000001,1.5,-2.7,-0.8,0.4
1698924357181.0,16,0.0,0.1,0.0,-0.30000000000000004,9.5,1.5,-3.3000000000000003,-0.7,-0.30000000000000004
1698924357198.0,16,0.0,0.0,-0.1,-0.30000000000000004,9.4,1.5,-3.4,0.1,-1.0
1698924357214.0,16,0.1,-0.1,-0.1,-0.2,9.3,1.5,-3.7000000000000006,0.2,-1.8
1698924357231.0,16,0.2,-0.1,0.0,-0.2,9.3,1.5,-2.8,0.2,-1.5000000000000002
1698924357247.0,16,0.2,-0.1,0.0,-0.1,9.3,1.6,-0.7,1.2000000000000002,-0.6000000000000001
1698924357265.0,16,0.1,-0.1,0.0,-0.2,9.3,1.6,0.1,2.0,-0.30000000000000004
1698924357281.0,16,0.1,-0.2,0.1,-0.2,9.200000000000001,1.7000000000000002,1.8,2.3000000000000003,-0.6000000000000001
1698924357298.0,16,0.1,-0.1,0.1,-0.2,9.200000000000001,1.7000000000000002,2.5,2.3000000000000003,-0.8
1698924357315.0,16,0.1,-0.1,0.2,-0.2,9.3,1.7000000000000002,2.6,2.5,-1.0
1698924357332.0,16,0.0,0.0,0.2,-0.30000000000000004,9.3,1.8,1.0999999999999999,3.0000000000000004,-0.7
1698924357348.0,16,-0.1,0.0,0.2,-0.30000000000000004,9.4,1.8,0.4,3.1,-0.5
1698924357364.0,16,-0.1,0.1,0.1,-0.30000000000000004,9.4,1.7000000000000002,-1.8,2.1,-0.6000000000000001
1698924357381.0,16,-0.1,0.0,0.0,-0.4,9.4,1.7000000000000002,-3.9,2.5,-0.8
1698924357397.0,16,-0.1,0.0,0.0,-0.4,9.4,1.6,-4.7,2.6,-0.9
1698924357414.0,16,-0.1,0.0,-0.1,-0.4,9.3,1.6,-4.800000000000001,2.1,-1.0999999999999999
1698924357431.0,16,-0.1,0.0,-0.1,-0.4,9.3,1.6,-3.6,0.5,-1.0
1698924357447.0,16,-0.1,0.0,-0.1,-0.5,9.3,1.6,-1.4,-1.0999999999999999,-0.1
1698924357465.0,16,-0.1,0.0,-0.1,-0.5,9.3,1.6,-0.2,-1.5000000000000002,0.0
1698924357481.0,16,-0.1,0.0,-0.1,-0.4,9.3,1.6,1.8,-1.5000000000000002,-0.7
1698924357497.0,16,0.0,0.0,0.0,-0.4,9.3,1.6,3.5,-1.6,-0.2
1698924357515.0,16,0.0,0.0,0.0,-0.30000000000000004,9.4,1.6,3.9,-1.7,0.2
1698924357531.0,16,0.0,0.0,0.1,-0.30000000000000004,9.4,1.7000000000000002,3.5,-2.3000000000000003,0.2
1698924357547.0,16,0.0,0.0,0.1,-0.30000000000000004,9.4,1.7000000000000002,2.9,-1.8,0.4
1698924357565.0,16,0.0,0.0,0.1,-0.30000000000000004,9.4,1.7000000000000002,1.6,-1.0,0.4
1698924357581.0,16,0.0,0.0,0.0,-0.30000000000000004,9.3,1.7000000000000002,0.5,-0.9,0.0
1698924357598.0,16,0.0,0.0,0.0,-0.30000000000000004,9.3,1.6,-0.30000000000000004,-1.2000000000000002,-0.2
1698924357615.0,16,0.0,-0.1,0.0,-0.30000000000000004,9.3,1.6,-1.2000000000000002,-1.0999999999999999,-0.1
1698924357632.0,16,0.0,0.0,0.0,-0.4,9.4,1.6,-0.8,-0.7,0.6000000000000001
1698924357647.0,16,-0.1,0.0,0.0,-0.4,9.4,1.6,-0.1,-0.9,0.8
1698924357664.0,16,-0.1,0.0,0.0,-0.4,9.4,1.6,1.2000000000000002,-1.3,0.7
1698924357687.0,16,0.1,0.0,0.0,-0.30000000000000004,9.3,1.6,3.0000000000000004,-1.0,0.6000000000000001
1698924357697.0,16,0.1,0.0,0.0,-0.30000000000000004,9.4,1.6,3.5,-1.0,0.7
1698924357714.0,16,0.0,0.0,0.0,-0.30000000000000004,9.4,1.6,3.5,-0.7,0.9
1698924357730.0,16,0.0,0.1,0.0,-0.4,9.4,1.6,2.1,-0.4,1.2000000000000002
1698924357747.0,16,-0.1,0.1,0.0,-0.4,9.5,1.6,1.4,-0.4,1.2000000000000002
1698924357764.0,16,0.0,0.1,0.0,-0.4,9.5,1.6,0.6000000000000001,-0.6000000000000001,0.9
1698924357780.0,16,0.0,0.0,0.0,-0.30000000000000004,9.4,1.5,-0.4,-0.8,0.6000000000000001
1698924357797.0,16,0.0,0.0,0.0,-0.30000000000000004,9.3,1.6,-0.30000000000000004,-0.9,0.30000000000000004
1698924357813.0,16,0.0,0.0,0.0,-0.30000000000000004,9.4,1.5,0.2,-0.8,0.6000000000000001
1698924357832.0,16,0.0,0.0,-0.1,-0.30000000000000004,9.4,1.5,0.30000000000000004,-0.7,0.9
1698924357847.0,16,0.0,0.1,-0.1,-0.30000000000000004,9.4,1.5,1.0,-0.4,1.0
1698924357864.0,16,0.0,0.1,0.0,-0.30000000000000004,9.5,1.6,1.4,-0.5,1.0999999999999999
1698924357881.0,16,0.0,0.1,0.0,-0.30000000000000004,9.5,1.5,1.9,-0.2,1.2000000000000002
1698924357897.0,16,0.0,0.0,0.0,-0.30000000000000004,9.4,1.6,1.9,0.4,1.2000000000000002
1698924357914.0,16,0.0,0.0,0.0,-0.30000000000000004,9.4,1.6,1.7,0.4,1.0999999999999999
1698924357931.0,16,0.0,0.0,0.0,-0.30000000000000004,9.4,1.6,1.0999999999999999,0.9,0.6000000000000001
1698924357947.0,16,0.0,0.0,0.0,-0.30000000000000004,9.4,1.5,0.2,1.0999999999999999,0.9
1698924357964.0,16,0.0,0.0,0.0,-0.30000000000000004,9.4,1.6,0.0,1.3,0.9
1698924357981.0,16,0.0,0.0,0.0,-0.30000000000000004,9.4,1.5,-0.5,1.0,0.9
1698924357997.0,16,0.0,0.0,0.0,-0.30000000000000004,9.4,1.5,-0.4,0.9,0.8
1698924358014.0,16,0.0,0.0,0.0,-0.30000000000000004,9.4,1.5,-0.1,0.8,0.7
1698924358031.0,16,0.0,0.0,0.0,-0.30000000000000004,9.4,1.6,0.5,0.5,0.6000000000000001
1698924358048.0,16,0.0,0.0,0.0,-0.30000000000000004,9.4,1.5,1.4,0.1,0.30000000000000004
1698924358064.0,16,0.1,0.0,0.0,-0.2,9.4,1.5,1.5000000000000002,-0.2,0.2
1698924358081.0,16,0.0,0.0,0.0,-0.2,9.4,1.5,1.3,-0.1,0.1
1698924358097.0,16,0.0,0.0,0.0,-0.2,9.4,1.5,0.7,0.2,0.2
1698924358114.0,16,0.0,0.0,0.0,-0.2,9.4,1.5,0.5,0.2,0.2
1698924358131.0,16,0.0,0.0,0.0,-0.2,9.4,1.5,0.5,-0.1,0.1
1698924358150.0,16,0.0,0.0,0.0,-0.2,9.4,1.5,0.0,-0.4,0.1
1698924358164.0,16,0.0,0.0,0.0,-0.2,9.4,1.6,-0.1,-0.4,0.0
1698924358181.0,16,0.0,0.0,0.0,-0.30000000000000004,9.4,1.6,0.0,-0.5,-0.1
1698924358197.0,16,0.0,0.0,0.0,-0.30000000000000004,9.4,1.5,0.30000000000000004,-1.0,-0.2
1698924358215.0,16,0.0,0.0,0.0,-0.30000000000000004,9.4,1.5,0.0,-0.9,-0.4
1698924358231.0,16,0.0,0.0,0.0,-0.30000000000000004,9.4,1.5,-0.2,-1.0,-0.4
1698924358248.0,16,0.0,0.0,0.0,-0.2,9.4,1.5,-0.7,-0.30000000000000004,-0.4
1698924358264.0,16,0.0,0.0,0.0,-0.30000000000000004,9.4,1.5,-0.9,-0.2,-0.30000000000000004
1698924358280.0,16,0.0,0.0,0.0,-0.30000000000000004,9.4,1.5,-0.5,-0.9,-0.5
1698924358297.0,16,0.0,0.0,0.0,-0.2,9.4,1.5,0.0,-0.8,-0.5
1698924358314.0,16,0.0,-0.1,0.0,-0.30000000000000004,9.3,1.5,0.6000000000000001,0.0,-0.6000000000000001
1698924358330.0,16,0.0,-0.1,0.0,-0.2,9.3,1.5,1.0999999999999999,0.7,-0.4
1698924358347.0,16,0.0,0.0,0.0,-0.30000000000000004,9.4,1.6,2.4000000000000004,-0.8,-0.2
1698924358364.0,16,0.0,0.0,0.0,-0.30000000000000004,9.4,1.6,2.9,-0.9,0.1
1698924358380.0,16,0.0,0.1,0.1,-0.30000000000000004,9.4,1.6,2.5,-0.4,-0.2
1698924358397.0,16,0.0,0.0,0.1,-0.30000000000000004,9.4,1.6,2.1,-0.30000000000000004,-0.30000000000000004
1698924358414.0,16,0.0,0.0,0.1,-0.30000000000000004,9.4,1.6,0.6000000000000001,-0.1,-0.6000000000000001
1698924358430.0,16,0.0,0.1,0.0,-0.2,9.5,1.5,-0.8,0.4,-0.6000000000000001
1698924358447.0,16,0.0,0.0,0.0,-0.30000000000000004,9.4,1.5,-1.0999999999999999,0.8,-0.5
1698924358464.0,16,0.0,0.0,-0.1,-0.30000000000000004,9.4,1.5,-1.8,1.5000000000000002,-0.4
1698924358481.0,16,0.0,0.0,-0.1,-0.30000000000000004,9.4,1.4000000000000001,-2.0,1.5000000000000002,-0.30000000000000004
1698924358497.0,16,0.0,0.0,-0.1,-0.30000000000000004,9.4,1.4000000000000001,-1.7,0.8,0.1
1698924358514.0,16,0.0,0.1,-0.1,-0.30000000000000004,9.5,1.4000000000000001,-0.8,-0.6000000000000001,0.1
1698924358531.0,16,0.0,0.0,-0.1,-0.30000000000000004,9.4,1.5,0.30000000000000004,-0.30000000000000004,-0.2
1698924358547.0,16,0.0,0.0,0.0,-0.2,9.4,1.5,1.0,-0.30000000000000004,-0.2
1698924358564.0,16,0.0,0.0,0.0,-0.2,9.4,1.5,1.9,0.2,-0.30000000000000004
1698924358580.0,16,0.1,0.0,0.0,-0.2,9.4,1.6,2.1999999999999997,0.6000000000000001,-0.1
1698924358597.0,16,0.1,-0.1,0.0,-0.2,9.3,1.5,2.7,2.0,0.1
1698924358614.0,16,0.1,0.0,0.1,-0.2,9.4,1.6,2.5,2.4000000000000004,-0.30000000000000004
1698924358630.0,16,0.1,0.0,0.1,-0.2,9.3,1.6,2.7,2.5,-0.2
1698924358647.0,16,0.0,-0.1,0.1,-0.30000000000000004,9.3,1.6,2.5,3.1,0.1
1698924358664.0,16,0.0,-0.1,0.1,-0.30000000000000004,9.3,1.6,2.0,3.7000000000000006,0.30000000000000004
1698924358680.0,16,0.0,-0.1,0.1,-0.30000000000000004,9.3,1.6,1.6,3.4,0.6000000000000001
1698924358698.0,16,0.0,-0.1,0.1,-0.30000000000000004,9.3,1.6,1.4,3.2,0.7
1698924358714.0,16,-0.1,-0.1,0.0,-0.30000000000000004,9.3,1.5,0.8,1.8,0.6000000000000001
1698924358730.0,16,-0.1,0.0,0.0,-0.4,9.4,1.5,0.7,0.1,0.30000000000000004
1698924358747.0,16,-0.1,0.1,0.1,-0.4,9.5,1.5,0.7,-0.5,0.1
1698924358764.0,16,0.0,0.1,0.0,-0.30000000000000004,9.5,1.5,1.0,-1.2000000000000002,-0.7
1698924358780.0,16,0.0,0.1,0.0,-0.30000000000000004,9.5,1.5,0.8,-1.4,-0.8
1698924358797.0,16,0.0,0.1,-0.1,-0.30000000000000004,9.5,1.4000000000000001,0.5,-0.30000000000000004,-0.9
1698924358814.0,16,0.0,0.2,0.0,-0.30000000000000004,9.600000000000001,1.4000000000000001,-0.30000000000000004,-0.7,-0.8
1698924358832.0,16,0.0,0.2,-0.1,-0.30000000000000004,9.600000000000001,1.4000000000000001,-0.4,-0.7,-0.5
1698924358848.0,16,-0.1,0.1,-0.2,-0.4,9.5,1.3,-1.5000000000000002,-1.4,-0.2
1698924358864.0,16,-0.1,0.1,-0.1,-0.4,9.5,1.3,-3.4,-2.4000000000000004,-0.9
1698924358881.0,16,0.0,0.2,-0.2,-0.30000000000000004,9.700000000000001,1.3,-4.7,-3.4,-1.7
1698924358898.0,16,0.0,0.30000000000000004,-0.30000000000000004,-0.30000000000000004,9.700000000000001,1.2000000000000002,-5.6,-4.2,-1.6
1698924358914.0,16,0.0,0.30000000000000004,-0.30000000000000004,-0.30000000000000004,9.700000000000001,1.2000000000000002,-7.0,-4.6000000000000005,-1.4
1698924358931.0,16,0.0,0.30000000000000004,-0.30000000000000004,-0.4,9.700000000000001,1.2000000000000002,-10.4,-5.4,-2.0
1698924358948.0,16,0.0,0.30000000000000004,-0.4,-0.30000000000000004,9.700000000000001,1.1,-11.4,-5.9,-2.8
1698924358964.0,16,0.1,0.5,-0.5,-0.30000000000000004,10.0,1.0,-14.200000000000001,-10.3,-4.6000000000000005
1698924358980.0,16,0.1,0.7000000000000001,-0.30000000000000004,-0.30000000000000004,10.100000000000001,1.2000000000000002,-16.400000000000002,-10.4,-4.7
1698924358997.0,16,0.0,0.9,-0.30000000000000004,-0.30000000000000004,10.3,1.3,-16.2,-9.3,-4.6000000000000005
1698924359014.0,16,0.0,0.8,-0.2,-0.30000000000000004,10.3,1.4000000000000001,-15.8,-8.3,-4.9
1698924359031.0,16,0.0,0.7000000000000001,-0.4,-0.30000000000000004,10.200000000000001,1.3,-16.3,-8.4,-5.1
1698924359048.0,16,0.0,0.4,-0.30000000000000004,-0.30000000000000004,9.9,1.4000000000000001,-20.5,-9.200000000000001,-5.7
1698924359064.0,16,0.1,0.30000000000000004,-0.5,-0.30000000000000004,9.8,1.3,-26.8,-7.400000000000001,-5.8
1698924359081.0,16,0.1,0.30000000000000004,-0.5,-0.30000000000000004,9.8,1.4000000000000001,-34.1,-6.2,-6.6000000000000005
1698924359097.0,16,0.0,0.4,-0.7000000000000001,-0.4,9.8,1.3,-38.0,-5.1,-6.8
1698924359114.0,16,0.1,0.7000000000000001,-0.7000000000000001,-0.30000000000000004,10.100000000000001,1.4000000000000001,-46.2,-1.7,-8.200000000000001
1698924359131.0,16,0.30000000000000004,0.8,-0.9,-0.2,10.100000000000001,1.4000000000000001,-51.800000000000004,1.9,-9.3
1698924359148.0,16,0.4,0.7000000000000001,-0.9,-0.1,10.100000000000001,1.5,-53.9,4.5,-9.1
1698924359164.0,16,0.5,0.6000000000000001,-1.1,0.0,9.9,1.5,-56.0,6.8,-8.9
1698924359181.0,16,0.4,0.6000000000000001,-1.0,-0.1,9.9,1.6,-55.900000000000006,7.6,-8.3
1698924359198.0,16,0.2,0.6000000000000001,-1.0,-0.2,9.8,1.8,-50.1,7.2,-5.6
1698924359214.0,16,0.2,0.6000000000000001,-1.1,-0.4,9.700000000000001,1.8,-48.00000000000001,6.7,-5.8
1698924359231.0,16,0.0,0.5,-0.7000000000000001,-0.6000000000000001,9.700000000000001,2.4000000000000004,-45.1,5.300000000000001,-7.6
1698924359247.0,16,0.0,0.5,-0.5,-0.6000000000000001,9.600000000000001,2.6,-43.2,4.800000000000001,-8.4
1698924359264.0,16,0.1,0.4,-0.6000000000000001,-0.5,9.4,2.6,-43.2,5.2,-9.700000000000001
1698924359281.0,16,0.2,0.1,-0.30000000000000004,-0.5,9.200000000000001,2.9000000000000004,-45.9,4.7,-10.700000000000001
1698924359297.0,16,0.30000000000000004,0.2,-0.30000000000000004,-0.5,9.3,3.2,-57.2,5.2,-14.100000000000001
1698924359314.0,16,0.1,0.1,-0.4,-0.6000000000000001,9.0,3.3000000000000003,-62.300000000000004,4.0,-14.800000000000002
1698924359330.0,16,0.2,0.0,-0.30000000000000004,-0.6000000000000001,8.9,3.6,-73.60000000000001,7.6,-13.0
1698924359347.0,16,0.1,0.1,-0.4,-0.7000000000000001,8.8,3.7,-80.2,8.3,-11.5
1698924359364.0,16,0.1,0.0,-0.5,-0.8,8.700000000000001,3.8000000000000003,-82.30000000000001,8.3,-11.000000000000002
1698924359380.0,16,0.1,0.0,-0.5,-0.9,8.5,3.9000000000000004,-82.0,7.8,-11.5
1698924359398.0,16,0.0,0.0,-0.5,-0.9,8.4,4.1000000000000005,-80.5,6.7,-10.9
1698924359414.0,16,0.2,0.4,-0.4,-0.8,8.700000000000001,4.4,-75.60000000000001,8.9,-8.799999999999999
1698924359431.0,16,0.2,0.4,-0.2,-0.8,8.6,4.800000000000001,-72.6,8.600000000000001,-8.0
1698924359448.0,16,0.2,0.4,0.1,-0.8,8.5,5.2,-71.6,9.700000000000001,-7.400000000000001
1698924359464.0,16,0.30000000000000004,0.8,0.6000000000000001,-0.8,8.8,5.9,-69.4,17.1,-6.000000000000001
1698924359481.0,16,0.4,0.9,0.9,-0.8,8.8,6.4,-68.60000000000001,16.700000000000003,-6.2
1698924359497.0,16,0.2,0.8,1.1,-1.0,8.6,6.7,-69.80000000000001,14.900000000000002,-6.3
1698924359516.0,16,-0.5,0.2,1.6,-1.7000000000000002,7.9,7.4,-75.0,15.000000000000002,-5.9
1698924359530.0,16,-0.8,-0.1,1.6,-2.1,7.4,7.6000000000000005,-75.5,16.8,-5.6
1698924359548.0,16,-0.8,-0.1,1.3,-2.0,7.300000000000001,7.4,-74.8,16.400000000000002,-8.0
1698924359564.0,16,-0.5,-0.6000000000000001,0.9,-1.9000000000000001,6.7,7.2,-70.5,13.9,-14.700000000000001
1698924359581.0,16,-0.5,-1.0,0.9,-1.9000000000000001,6.1000000000000005,7.300000000000001,-59.80000000000001,13.4,-16.900000000000002
1698924359598.0,16,-0.5,-1.2000000000000002,0.9,-1.9000000000000001,5.9,7.4,-52.50000000000001,12.8,-15.000000000000002
1698924359614.0,16,-0.30000000000000004,-1.4000000000000001,1.0,-1.8,5.6000000000000005,7.6000000000000005,-40.2,7.699999999999999,-10.8
1698924359630.0,16,-0.5,-1.3,1.2000000000000002,-2.0,5.5,7.9,-34.1,5.6,-9.9
1698924359648.0,16,-0.5,-1.3,1.4000000000000001,-2.1,5.5,8.1,-32.9,5.9,-8.9
1698924359664.0,16,-0.5,-0.9,1.5,-2.1,5.800000000000001,8.3,-30.5,4.5,-8.5
1698924359680.0,16,-0.4,-0.9,1.4000000000000001,-2.1,5.7,8.3,-23.8,2.3000000000000003,-5.500000000000001
1698924359697.0,16,-0.5,-0.9,1.3,-2.1,5.7,8.200000000000001,-18.8,1.0,-3.4
1698924359714.0,16,-0.4,-0.8,1.4000000000000001,-2.0,5.800000000000001,8.4,-10.2,-1.3,-1.0
1698924359730.0,16,-0.30000000000000004,-0.4,1.6,-2.0,6.1000000000000005,8.6,-2.6,-1.4,4.2
1698924359747.0,16,-0.30000000000000004,-0.30000000000000004,1.6,-1.8,6.300000000000001,8.5,2.5,-4.1000000000000005,5.9
1698924359764.0,16,-0.2,-0.30000000000000004,1.5,-1.8,6.2,8.5,3.8,-5.9,6.2
1698924359781.0,16,-0.30000000000000004,-0.4,1.5,-1.9000000000000001,6.2,8.5,7.0,-6.5,7.1000000000000005
1698924359797.0,16,-0.4,-0.4,1.5,-1.9000000000000001,6.2,8.5,9.9,-7.9,8.3
1698924359815.0,16,-0.30000000000000004,-0.30000000000000004,1.5,-1.8,6.300000000000001,8.5,17.5,-10.0,9.700000000000001
1698924359831.0,16,-0.1,-0.2,1.4000000000000001,-1.6,6.4,8.4,20.1,-11.000000000000002,9.600000000000001
1698924359849.0,16,-0.1,-0.2,1.1,-1.5,6.5,8.0,23.0,-15.6,11.1
1698924359864.0,16,-0.2,-0.2,1.1,-1.6,6.6000000000000005,8.0,24.9,-16.2,11.8
1698924359881.0,16,-0.30000000000000004,0.0,1.0,-1.6,6.9,7.9,29.900000000000006,-18.3,12.3
1698924359897.0,16,-0.2,0.4,1.0,-1.4000000000000001,7.300000000000001,7.800000000000001,33.800000000000004,-17.0,10.700000000000001
1698924359914.0,16,0.0,0.4,1.0,-1.2000000000000002,7.4,7.800000000000001,34.900000000000006,-16.400000000000002,8.9
1698924359930.0,16,0.1,0.1,0.8,-1.0,7.2,7.5,37.7,-13.700000000000001,6.7
1698924359947.0,16,0.30000000000000004,-0.1,0.5,-0.8,7.1000000000000005,7.1000000000000005,40.1,-14.100000000000001,7.0
1698924359964.0,16,0.30000000000000004,-0.1,0.2,-0.7000000000000001,7.1000000000000005,6.800000000000001,40.9,-14.0,6.6000000000000005
1698924359980.0,16,0.5,0.0,0.0,-0.5,7.300000000000001,6.5,41.800000000000004,-9.0,5.300000000000001
1698924359997.0,16,0.7000000000000001,0.0,0.0,-0.30000000000000004,7.4,6.4,43.1,-5.8,4.7
1698924360014.0,16,0.8,-0.1,-0.1,-0.2,7.4,6.2,43.1,-5.4,5.6
1698924360031.0,16,0.7000000000000001,-0.30000000000000004,-0.2,-0.30000000000000004,7.300000000000001,6.0,41.9,-2.7,7.0
1698924360047.0,16,0.6000000000000001,-0.30000000000000004,-0.4,-0.4,7.300000000000001,5.6000000000000005,40.6,-0.4,6.9
1698924360064.0,16,0.4,-0.2,-0.30000000000000004,-0.5,7.5,5.6000000000000005,42.800000000000004,2.4000000000000004,7.9
1698924360080.0,16,0.4,-0.2,-0.4,-0.5,7.5,5.5,44.8,2.3000000000000003,8.9
1698924360097.0,16,0.30000000000000004,-0.2,-0.5,-0.6000000000000001,7.6000000000000005,5.300000000000001,45.9,1.6,10.2
1698924360114.0,16,0.2,-0.30000000000000004,-0.30000000000000004,-0.7000000000000001,7.6000000000000005,5.4,45.9,2.4000000000000004,10.4
1698924360132.0,16,-0.1,-0.2,-0.2,-0.9,7.800000000000001,5.4,46.7,7.300000000000001,10.5
1698924360147.0,16,0.0,-0.30000000000000004,-0.4,-0.8,7.800000000000001,5.0,47.300000000000004,8.4,8.0
1698924360164.0,16,0.2,-0.5,-0.6000000000000001,-0.7000000000000001,7.6000000000000005,4.7,47.2,8.200000000000001,4.3999999999999995
1698924360181.0,16,0.2,-0.6000000000000001,-0.8,-0.6000000000000001,7.6000000000000005,4.4,48.00000000000001,8.5,3.4
1698924360197.0,16,0.1,-0.8,-1.0,-0.8,7.4,4.0,49.4,6.8,3.2
1698924360214.0,16,-0.1,-0.9,-1.0,-0.9,7.5,4.0,50.2,6.2,3.4
1698924360231.0,16,-0.2,-1.0,-1.2000000000000002,-1.0,7.4,3.6,51.7,4.9,3.8
1698924360247.0,16,-0.30000000000000004,-1.2000000000000002,-1.1,-1.1,7.300000000000001,3.6,52.2,5.2,3.0000000000000004
1698924360264.0,16,-0.30000000000000004,-1.1,-0.9,-1.2000000000000002,7.4,3.7,56.0,6.1000000000000005,2.1999999999999997
1698924360281.0,16,-0.2,-1.2000000000000002,-1.0,-1.0,7.5,3.4000000000000004,57.699999999999996,4.5,2.0
1698924360297.0,16,-0.2,-1.3,-1.0,-1.0,7.4,3.2,58.2,3.3000000000000003,2.5
1698924360314.0,16,-0.2,-1.4000000000000001,-1.0,-1.0,7.300000000000001,3.1,58.3,3.5,3.1
1698924360331.0,16,-0.2,-1.4000000000000001,-0.9,-1.1,7.4,3.0,58.60000000000001,2.6,4.3999999999999995
1698924360348.0,16,-0.2,-1.6,-1.0,-1.0,7.300000000000001,2.8000000000000003,58.800000000000004,0.1,6.3
1698924360364.0,16,-0.2,-1.7000000000000002,-1.0,-1.0,7.2,2.7,58.5,0.5,7.300000000000001
1698924360381.0,16,-0.2,-1.8,-0.8,-1.0,7.2,2.6,57.9,1.8,9.1
1698924360397.0,16,-0.1,-1.7000000000000002,-0.9,-0.8,7.300000000000001,2.4000000000000004,58.60000000000001,-2.1,10.1
1698924360414.0,16,0.0,-1.6,-0.8,-0.8,7.5,2.3000000000000003,56.800000000000004,-5.7,10.8
1698924360431.0,16,-0.1,-1.5,-0.6000000000000001,-0.8,7.6000000000000005,2.4000000000000004,55.6,-5.6,11.6
1698924360449.0,16,-0.2,-1.4000000000000001,-0.5,-0.9,7.7,2.3000000000000003,54.1,-4.5,13.9
1698924360464.0,16,-0.2,-1.4000000000000001,-0.5,-0.9,7.800000000000001,2.2,53.50000000000001,-5.7,14.800000000000002
1698924360480.0,16,-0.2,-1.3,-0.4,-0.8,7.9,2.1,52.0,-8.4,14.700000000000001
1698924360497.0,16,-0.1,-1.2000000000000002,-0.30000000000000004,-0.6000000000000001,8.0,2.1,49.2,-8.9,13.6
1698924360514.0,16,0.0,-1.2000000000000002,-0.30000000000000004,-0.5,8.1,1.9000000000000001,45.9,-7.6,12.700000000000001
1698924360531.0,16,0.0,-1.2000000000000002,-0.30000000000000004,-0.4,8.1,1.8,43.6,-6.7,12.5
1698924360548.0,16,0.2,-1.1,-0.1,-0.30000000000000004,8.200000000000001,1.9000000000000001,39.00000000000001,-5.2,12.5
1698924360564.0,16,0.2,-1.1,0.0,-0.2,8.200000000000001,2.0,37.5,-4.2,12.700000000000001
1698924360580.0,16,0.2,-0.9,0.0,-0.2,8.4,1.8,36.6,-2.7,13.5
1698924360597.0,16,0.2,-0.6000000000000001,-0.2,-0.1,8.700000000000001,1.6,33.7,-5.2,13.700000000000001
1698924360614.0,16,0.1,-0.30000000000000004,0.1,-0.1,9.1,1.7000000000000002,30.7,-3.5,13.3
1698924360631.0,16,0.0,-0.1,0.1,-0.2,9.3,1.7000000000000002,30.299999999999997,-2.6,13.3
1698924360647.0,16,-0.1,0.4,0.30000000000000004,-0.30000000000000004,9.8,1.8,29.600000000000005,-2.3000000000000003,13.8
1698924360664.0,16,-0.2,0.8,0.7000000000000001,-0.4,10.200000000000001,2.1,30.299999999999997,-1.5000000000000002,13.9
1698924360682.0,16,-0.2,0.8,0.8,-0.30000000000000004,10.3,2.2,32.0,0.4,13.0
1698924360697.0,16,0.0,0.7000000000000001,0.7000000000000001,-0.1,10.100000000000001,1.9000000000000001,34.2,3.2,9.0
1698924360715.0,16,0.1,0.5,0.6000000000000001,0.0,10.0,1.8,32.9,3.2,7.1000000000000005
1698924360731.0,16,0.2,0.4,0.8,0.2,9.9,1.9000000000000001,26.500000000000004,3.1,6.3
1698924360748.0,16,0.1,0.7000000000000001,0.9,0.0,10.200000000000001,2.0,19.1,2.1,10.0
1698924360764.0,16,-0.1,0.9,1.0,-0.1,10.3,2.0,14.900000000000002,0.4,12.5
1698924360781.0,16,-0.4,0.9,0.8,-0.30000000000000004,10.4,1.9000000000000001,5.2,-6.3,15.7
1698924360797.0,16,-0.1,0.6000000000000001,0.6000000000000001,-0.1,10.100000000000001,1.6,-5.0,-12.000000000000002,13.5
1698924360814.0,16,0.1,0.2,0.4,0.2,9.600000000000001,1.5,-13.200000000000001,-11.8,6.4
1698924360831.0,16,0.2,0.0,0.4,0.4,9.5,1.5,-15.9,-10.5,3.1
1698924360847.0,16,0.4,-0.2,0.30000000000000004,0.5,9.3,1.5,-19.1,-8.4,-1.6
1698924360865.0,16,0.4,-0.2,0.4,0.5,9.3,1.8,-19.3,-6.6000000000000005,-2.6
1698924360880.0,16,0.30000000000000004,0.0,0.7000000000000001,0.4,9.5,2.0,-12.8,-2.6,-2.0
1698924360897.0,16,0.30000000000000004,0.0,0.6000000000000001,0.4,9.5,1.9000000000000001,-8.600000000000001,-1.5000000000000002,-2.1
1698924360914.0,16,0.4,-0.30000000000000004,0.4,0.5,9.200000000000001,1.7000000000000002,-3.5,-2.1,-4.2
1698924360930.0,16,0.5,-0.4,0.4,0.6000000000000001,9.1,1.7000000000000002,-1.9,-3.6,-6.5
1698924360948.0,16,0.5,-0.30000000000000004,0.4,0.6000000000000001,9.200000000000001,1.7000000000000002,-2.1999999999999997,-3.5,-7.1000000000000005
1698924360964.0,16,0.30000000000000004,0.1,0.30000000000000004,0.4,9.5,1.7000000000000002,-3.8,-1.4,-6.3
1698924360980.0,16,0.30000000000000004,0.2,0.2,0.30000000000000004,9.700000000000001,1.6,-5.300000000000001,-0.1,-5.500000000000001
1698924360997.0,16,0.30000000000000004,0.2,0.30000000000000004,0.30000000000000004,9.700000000000001,1.7000000000000002,-7.500000000000001,3.5,-6.3
1698924361014.0,16,0.4,0.1,0.30000000000000004,0.5,9.5,1.7000000000000002,-6.5,5.1,-8.3
1698924361031.0,16,0.5,-0.1,0.30000000000000004,0.5,9.4,1.7000000000000002,-5.6,4.300000000000001,-8.600000000000001
1698924361047.0,16,0.6000000000000001,-0.4,0.30000000000000004,0.6000000000000001,9.0,1.7000000000000002,-4.3999999999999995,3.2,-6.9
1698924361064.0,16,0.5,-0.4,0.1,0.4,9.0,1.6,-5.500000000000001,0.5,-4.1000000000000005
1698924361081.0,16,0.4,-0.4,0.0,0.30000000000000004,9.0,1.5,-6.4,-1.5000000000000002,-3.0000000000000004
1698924361098.0,16,0.1,-0.4,0.1,0.1,9.1,1.6,-8.799999999999999,-3.7000000000000006,-1.2000000000000002
1698924361114.0,16,0.0,-0.2,0.1,-0.1,9.3,1.7000000000000002,-9.0,-3.0000000000000004,-0.1
1698924361131.0,16,-0.1,-0.1,0.2,-0.1,9.3,1.7000000000000002,-8.1,-2.6,-0.5
1698924361147.0,16,-0.1,0.0,0.30000000000000004,-0.1,9.4,1.8,-5.0,-0.30000000000000004,-2.0
1698924361164.0,16,0.0,0.2,0.4,0.0,9.700000000000001,2.0,0.1,0.5,-3.1
1698924361181.0,16,0.2,0.2,0.30000000000000004,0.1,9.700000000000001,1.9000000000000001,4.1000000000000005,-3.4,-2.1
1698924361198.0,16,0.1,0.1,0.2,0.1,9.5,1.8,4.300000000000001,-5.2,-1.3
1698924361214.0,16,-0.1,-0.30000000000000004,0.1,-0.1,9.1,1.7000000000000002,-0.30000000000000004,-5.2,-1.0999999999999999
1698924361230.0,16,-0.30000000000000004,-0.5,0.2,-0.30000000000000004,8.9,1.8,-6.9,-2.6,-4.7
1698924361248.0,16,-0.30000000000000004,-0.5,0.30000000000000004,-0.4,9.0,1.9000000000000001,-10.0,-2.3000000000000003,-10.4
1698924361264.0,16,-0.4,-0.2,0.5,-0.5,9.200000000000001,2.1,-10.0,-1.2000000000000002,-12.8
1698924361280.0,16,-0.2,0.1,0.5,-0.30000000000000004,9.5,2.1,-8.600000000000001,2.9,-15.2
1698924361297.0,16,-0.1,0.30000000000000004,0.5,-0.30000000000000004,9.700000000000001,2.2,-7.699999999999999,6.000000000000001,-15.6
1698924361314.0,16,0.30000000000000004,0.6000000000000001,0.5,0.0,10.0,2.2,-6.4,14.3,-15.100000000000001
1698924361331.0,16,0.5,0.1,-0.2,0.2,9.4,1.6,-9.0,17.3,-12.4
1698924361348.0,16,0.6000000000000001,-0.5,-0.5,0.4,8.4,1.2000000000000002,-20.8,10.2,-3.8
1698924361364.0,16,0.7000000000000001,-1.1,-0.6000000000000001,0.30000000000000004,8.3,1.2000000000000002,-27.0,7.8,0.30000000000000004
1698924361381.0,16,0.5,-0.9,-0.8,0.2,8.5,1.1,-31.900000000000002,5.9,3.7000000000000006
1698924361397.0,16,-0.30000000000000004,0.1,-1.3,-0.6000000000000001,9.4,0.7000000000000001,-40.2,0.6000000000000001,8.1
1698924361414.0,16,-1.0,0.9,-1.2000000000000002,-1.2000000000000002,10.200000000000001,1.0,-47.7,2.1,8.3
1698924361430.0,16,-0.9,1.6,-0.7000000000000001,-1.1,10.9,1.5,-45.9,12.100000000000001,4.3999999999999995
1698924361447.0,16,-0.5,1.7000000000000002,-0.8,-0.8,11.0,1.5,-40.8,15.9,0.1
1698924361464.0,16,0.0,1.2000000000000002,-1.2000000000000002,-0.30000000000000004,10.4,1.2000000000000002,-28.3,12.5,-10.5
1698924361481.0,16,0.30000000000000004,0.2,-1.5,-0.1,9.4,0.9,-19.0,10.600000000000001,-11.9
1698924361497.0,16,0.30000000000000004,-0.2,-1.6,-0.1,9.0,0.9,-16.6,13.4,-8.4
1698924361514.0,16,0.0,-0.30000000000000004,-1.5,-0.4,8.9,1.0,-11.3,16.900000000000002,1.0
1698924361530.0,16,-0.4,-0.2,-1.4000000000000001,-0.8,9.0,1.2000000000000002,-3.1,12.200000000000001,5.9
1698924361547.0,16,-0.8,-0.4,-1.2000000000000002,-1.2000000000000002,8.8,1.3,5.8,8.200000000000001,6.1000000000000005
1698924361564.0,16,-0.8,-0.5,-1.2000000000000002,-1.2000000000000002,8.700000000000001,1.3,9.0,7.500000000000001,5.2
1698924361580.0,16,-0.7000000000000001,-0.6000000000000001,-1.2000000000000002,-1.1,8.6,1.2000000000000002,11.6,6.7,2.3000000000000003
1698924361597.0,16,-0.6000000000000001,-0.6000000000000001,-1.2000000000000002,-1.0,8.6,1.2000000000000002,11.5,4.7,1.3
1698924361614.0,16,-0.4,-0.6000000000000001,-1.0,-0.8,8.6,1.4000000000000001,9.700000000000001,0.5,2.5
1698924361630.0,16,-0.4,-0.6000000000000001,-0.9,-0.7000000000000001,8.6,1.4000000000000001,7.6,-2.3000000000000003,6.7
1698924361647.0,16,-0.4,-0.6000000000000001,-0.9,-0.7000000000000001,8.700000000000001,1.4000000000000001,4.300000000000001,-6.7,10.1
1698924361665.0,16,-0.2,-0.4,-1.0,-0.6000000000000001,8.8,1.3,2.0,-8.3,10.9
1698924361680.0,16,-0.1,-0.1,-0.9,-0.4,9.1,1.4000000000000001,-2.6,-8.4,10.8
1698924361697.0,16,-0.1,0.0,-0.9,-0.30000000000000004,9.200000000000001,1.5,-4.9,-4.300000000000001,11.000000000000002
1698924361714.0,16,0.0,0.1,-0.9,-0.2,9.3,1.4000000000000001,-5.500000000000001,-4.0,11.1
1698924361730.0,16,0.0,0.30000000000000004,-0.7000000000000001,-0.2,9.5,1.6,-6.000000000000001,-3.2,10.9
1698924361747.0,16,0.1,0.30000000000000004,-0.8,-0.1,9.5,1.5,-4.7,-2.0,10.5
1698924361764.0,16,0.2,0.30000000000000004,-1.2000000000000002,0.1,9.5,1.1,-4.3999999999999995,-5.7,8.600000000000001
1698924361781.0,16,0.0,0.30000000000000004,-1.4000000000000001,-0.1,9.5,0.9,-7.8,-8.4,8.5
1698924361797.0,16,-0.2,0.30000000000000004,-1.5,-0.2,9.5,0.8,-10.5,-7.2,9.4
1698924361814.0,16,-0.30000000000000004,0.4,-1.6,-0.30000000000000004,9.600000000000001,0.8,-15.5,-6.7,10.600000000000001
1698924361831.0,16,-0.5,0.5,-1.7000000000000002,-0.5,9.600000000000001,0.8,-18.0,-10.9,10.2
1698924361848.0,16,-0.7000000000000001,0.4,-1.6,-0.7000000000000001,9.5,0.9,-18.0,-12.6,9.0
1698924361864.0,16,-0.6000000000000001,0.4,-1.5,-0.6000000000000001,9.600000000000001,1.0,-14.100000000000001,-10.4,4.300000000000001
1698924361880.0,16,-0.6000000000000001,0.5,-1.5,-0.5,9.600000000000001,1.0,-10.3,-10.1,1.0999999999999999
1698924361897.0,16,-0.5,0.5,-1.3,-0.5,9.700000000000001,1.2000000000000002,-5.9,-10.4,-1.6
1698924361915.0,16,0.0,1.2000000000000002,-0.7000000000000001,0.0,10.3,1.8,9.700000000000001,-5.4,-6.000000000000001
1698924361931.0,16,0.2,0.7000000000000001,-1.7000000000000002,0.30000000000000004,9.9,0.7000000000000001,21.900000000000002,-12.100000000000001,-10.4
1698924361948.0,16,0.2,0.30000000000000004,-1.2000000000000002,0.30000000000000004,9.5,1.2000000000000002,21.0,-13.5,-8.799999999999999
1698924361964.0,16,0.1,0.6000000000000001,-0.8,0.1,9.9,1.5,23.8,2.4000000000000004,-3.1
1698924361981.0,16,-0.1,1.0,-0.9,-0.1,10.3,1.3,24.5,0.4,-4.1000000000000005
1698924361998.0,16,-0.30000000000000004,1.1,-0.8,-0.30000000000000004,10.3,1.4000000000000001,22.900000000000002,2.0,-5.6
1698924362014.0,16,-0.30000000000000004,0.9,-0.7000000000000001,-0.30000000000000004,10.200000000000001,1.4000000000000001,16.5,10.8,-7.500000000000001
1698924362031.0,16,-0.1,1.1,-0.4,-0.2,10.4,1.7000000000000002,13.200000000000001,13.200000000000001,-10.2
1698924362048.0,16,0.0,1.5,-0.1,-0.1,10.8,1.9000000000000001,13.700000000000001,20.3,-11.9
1698924362064.0,16,0.0,1.7000000000000002,-0.1,-0.2,11.0,1.9000000000000001,14.900000000000002,26.400000000000002,-12.9
1698924362080.0,16,0.0,1.7000000000000002,-0.30000000000000004,-0.2,11.0,1.6,15.9,29.700000000000003,-11.8
1698924362097.0,16,0.1,1.7000000000000002,1.0,-0.2,10.9,2.1,19.9,26.700000000000003,-6.2
1698924362115.0,16,-0.1,1.6,0.7000000000000001,-0.4,11.0,2.5,27.3,24.1,-4.0
1698924362131.0,16,-0.4,0.8,0.8,-0.7000000000000001,10.3,2.5,31.2,3.5,3.3000000000000003
1698924362147.0,16,-1.4000000000000001,0.4,1.8,-1.1,10.0,3.0,31.5,-3.7000000000000006,6.7
1698924362164.0,16,-1.7000000000000002,0.30000000000000004,2.0,-1.9000000000000001,9.700000000000001,3.6,34.400000000000006,-4.300000000000001,10.8
1698924362181.0,16,-1.4000000000000001,-0.2,1.4000000000000001,-1.6,9.200000000000001,2.9000000000000004,31.2,-0.2,2.0
1698924362197.0,16,0.0,-0.9,1.0,-0.30000000000000004,8.6,2.4000000000000004,14.600000000000001,-2.8,-14.3
1698924362214.0,16,0.4,-1.0,1.2000000000000002,0.1,8.5,2.7,0.5,-2.7,-13.6
1698924362230.0,16,0.8,-1.3,1.2000000000000002,0.5,8.200000000000001,2.7,-2.5,1.3,-7.699999999999999
1698924362248.0,16,0.9,-1.9000000000000001,1.2000000000000002,0.5,7.6000000000000005,2.7,-3.7000000000000006,-2.7,6.6000000000000005
1698924362265.0,16,0.4,-1.8,1.6,0.30000000000000004,7.5,3.0,-0.5,-6.5,12.000000000000002
1698924362280.0,16,0.2,-1.4000000000000001,1.7000000000000002,-0.1,8.0,3.2,11.000000000000002,-12.100000000000001,14.600000000000001
1698924362297.0,16,0.0,-0.7000000000000001,1.9000000000000001,-0.2,8.700000000000001,3.3000000000000003,20.8,-17.0,10.0
1698924362314.0,16,0.0,-0.5,2.0,-0.2,9.0,3.4000000000000004,23.400000000000002,-17.5,7.0
1698924362330.0,16,0.2,-0.2,2.0,0.1,9.200000000000001,3.3000000000000003,22.900000000000002,-15.5,2.4000000000000004
1698924362348.0,16,0.5,-0.4,1.7000000000000002,0.30000000000000004,9.1,3.0,14.900000000000002,-15.2,0.1
1698924362364.0,16,0.6000000000000001,-0.6000000000000001,1.6,0.5,8.9,2.9000000000000004,0.8,-13.0,-0.7
1698924362381.0,16,0.7000000000000001,-0.5,1.5,0.6000000000000001,9.0,2.8000000000000003,-6.6000000000000005,-10.700000000000001,-0.30000000000000004
1698924362397.0,16,0.6000000000000001,-0.30000000000000004,1.1,0.5,9.1,2.4000000000000004,-17.7,-7.400000000000001,1.7
1698924362414.0,16,0.6000000000000001,-0.30000000000000004,0.9,0.5,9.1,2.3000000000000003,-21.700000000000003,-6.2,3.8
1698924362432.0,16,0.7000000000000001,-0.6000000000000001,0.7000000000000001,0.6000000000000001,8.8,2.2,-25.3,-6.000000000000001,8.3
1698924362447.0,16,0.4,-0.8,0.30000000000000004,0.4,8.6,1.9000000000000001,-24.200000000000003,-11.1,12.5
1698924362464.0,16,0.30000000000000004,-0.8,0.30000000000000004,0.30000000000000004,8.6,1.9000000000000001,-23.6,-13.200000000000001,14.3
1698924362481.0,16,0.30000000000000004,-0.2,0.5,0.30000000000000004,9.200000000000001,2.2,-18.8,-14.600000000000001,13.8
1698924362497.0,16,0.30000000000000004,0.30000000000000004,0.30000000000000004,0.4,9.700000000000001,2.1,-9.3,-12.100000000000001,7.2
1698924362514.0,16,0.4,0.2,0.1,0.5,9.600000000000001,1.9000000000000001,-2.8,-7.300000000000001,1.4
1698924362531.0,16,0.6000000000000001,0.0,0.2,0.7000000000000001,9.3,1.9000000000000001,-0.4,-2.7,0.30000000000000004
1698924362547.0,16,0.7000000000000001,-0.5,0.1,0.8,8.9,1.9000000000000001,4.9,4.2,-0.2
1698924362565.0,16,0.8,-0.6000000000000001,0.1,1.0,8.8,1.8,7.1000000000000005,5.4,0.7
1698924362580.0,16,0.9,-0.7000000000000001,-0.1,1.0,8.700000000000001,1.6,8.799999999999999,4.300000000000001,3.4
1698924362597.0,16,0.6000000000000001,-0.7000000000000001,0.0,0.8,8.6,1.7000000000000002,7.400000000000001,8.1,6.9
1698924362614.0,16,0.6000000000000001,-0.5,-0.1,0.7000000000000001,8.8,1.5,3.4,11.8,8.0
1698924362630.0,16,0.5,-0.5,-0.1,0.7000000000000001,8.9,1.6,1.0999999999999999,11.000000000000002,7.300000000000001
1698924362648.0,16,0.4,-0.6000000000000001,-0.4,0.6000000000000001,8.700000000000001,1.3,-5.0,11.2,5.500000000000001
1698924362664.0,16,0.30000000000000004,-0.7000000000000001,-0.5,0.5,8.6,1.2000000000000002,-9.4,11.8,4.2
1698924362681.0,16,0.30000000000000004,-0.7000000000000001,-0.30000000000000004,0.5,8.700000000000001,1.4000000000000001,-15.8,15.000000000000002,0.6000000000000001
1698924362697.0,16,0.30000000000000004,-0.30000000000000004,-0.6000000000000001,0.4,9.0,1.2000000000000002,-17.1,18.3,-6.5
1698924362714.0,16,0.4,-0.1,-0.9,0.5,9.200000000000001,1.0,-20.1,22.000000000000004,-15.5
1698924362730.0,16,0.5,-0.2,-1.0,0.6000000000000001,9.1,0.9,-22.2,25.8,-18.8
1698924362747.0,16,0.6000000000000001,-0.5,-1.2000000000000002,0.6000000000000001,8.8,0.7000000000000001,-26.1,33.1,-21.3
1698924362763.0,16,0.30000000000000004,-0.5,-1.0,0.2,8.700000000000001,1.0,-27.1,33.800000000000004,-17.0
1698924362780.0,16,-0.2,-0.2,-1.0,-0.4,9.0,1.1,-20.1,26.8,-8.200000000000001
1698924362797.0,16,-0.5,0.0,-1.0,-0.6000000000000001,9.200000000000001,1.1,-15.6,20.900000000000002,-4.3999999999999995
1698924362813.0,16,-0.5,0.30000000000000004,-1.2000000000000002,-0.7000000000000001,9.5,0.9,-8.5,12.000000000000002,-3.4
1698924362830.0,16,-0.4,0.7000000000000001,-1.1,-0.6000000000000001,9.9,1.1,-4.0,4.300000000000001,-8.9
1698924362847.0,16,-0.30000000000000004,0.8,-0.9,-0.6000000000000001,10.100000000000001,1.2000000000000002,-1.3,2.3000000000000003,-11.9
1698924362863.0,16,-0.30000000000000004,0.8,-1.0,-0.5,10.100000000000001,1.1,1.6,1.4,-13.9
1698924362880.0,16,0.2,0.1,-1.4000000000000001,-0.2,9.4,0.7000000000000001,-0.6000000000000001,3.1,-14.4
1698924362897.0,16,0.4,0.0,-1.5,0.1,9.200000000000001,0.6000000000000001,-3.6,5.9,-13.700000000000001
1698924362913.0,16,0.7000000000000001,-0.30000000000000004,-1.6,0.30000000000000004,9.0,0.5,-10.0,11.700000000000001,-13.3
1698924362930.0,16,0.5,0.0,-1.1,0.1,9.200000000000001,1.1,-12.9,17.1,-5.500000000000001
1698924362947.0,16,0.5,0.30000000000000004,-1.0,0.1,9.5,1.2000000000000002,-10.9,16.6,1.7
1698924362963.0,16,0.6000000000000001,0.4,-1.0,0.2,9.600000000000001,1.2000000000000002,-3.3000000000000003,1.0,14.900000000000002
1698924362980.0,16,-0.1,0.30000000000000004,-0.6000000000000001,-0.4,9.600000000000001,1.5,7.1000000000000005,-11.8,22.4
1698924362997.0,16,-0.30000000000000004,0.5,-0.8,-0.6000000000000001,9.8,1.3,11.9,-11.8,24.9
1698924363013.0,16,-0.4,1.3,-0.30000000000000004,-0.6000000000000001,10.600000000000001,1.8,17.5,-12.700000000000001,21.900000000000002
1698924363030.0,16,-0.6000000000000001,2.1,0.4,-1.1,12.700000000000001,3.3000000000000003,35.1,-23.400000000000002,19.400000000000002
1698924363046.0,16,-1.1,4.800000000000001,1.8,-1.2000000000000002,14.200000000000001,3.7,51.5,-37.0,23.3
1698924363063.0,16,-0.8,5.300000000000001,1.2000000000000002,-0.8,14.8,2.9000000000000004,76.7,-65.10000000000001,30.4
1698924363080.0,16,-0.1,1.9000000000000001,0.30000000000000004,0.1,11.4,1.8,63.10000000000001,-40.3,17.200000000000003
1698924363097.0,16,1.1,0.5,0.0,1.2000000000000002,10.0,1.3,46.5,-30.000000000000004,1.3
1698924363114.0,16,1.8,-0.5,0.1,1.9000000000000001,9.0,1.5,4.3999999999999995,-33.0,-29.1
1698924363130.0,16,1.5,0.0,0.7000000000000001,1.6,9.5,2.1,-31.3,-8.799999999999999,-28.500000000000004
1698924363147.0,16,1.2000000000000002,0.2,0.8,1.2000000000000002,9.700000000000001,2.3000000000000003,-39.400000000000006,-1.7,-9.200000000000001
1698924363163.0,16,0.0,0.2,1.2000000000000002,0.0,9.600000000000001,2.8000000000000003,-34.2,-7.0,2.1999999999999997
1698924363180.0,16,-0.5,-0.7000000000000001,0.5,-0.5,8.8,2.2,-20.900000000000002,-5.4,9.0
1698924363197.0,16,-0.6000000000000001,-1.2000000000000002,0.7000000000000001,-0.6000000000000001,8.3,2.4000000000000004,-15.2,-4.0,4.6000000000000005
1698924363213.0,16,-0.7000000000000001,-2.0,1.1,-0.7000000000000001,7.5,2.8000000000000003,3.5,-7.8,-7.699999999999999
1698924363230.0,16,-0.6000000000000001,-1.8,1.4000000000000001,-0.6000000000000001,7.6000000000000005,3.1,25.0,-16.400000000000002,-13.700000000000001
1698924363247.0,16,-0.5,-1.5,1.6,-0.6000000000000001,7.9,3.3000000000000003,33.2,-15.5,-15.000000000000002
1698924363264.0,16,-0.2,-1.1,2.1,-0.30000000000000004,8.4,3.6,46.1,-6.4,-16.400000000000002
1698924363280.0,16,0.2,-1.1,2.2,0.0,8.4,3.6,50.300000000000004,1.4,-15.8
1698924363297.0,16,0.30000000000000004,-1.3,2.2,0.1,8.200000000000001,3.5,39.2,7.0,-13.200000000000001
1698924363314.0,16,0.5,-1.7000000000000002,1.9000000000000001,0.30000000000000004,7.800000000000001,3.1,29.200000000000003,7.8,-11.700000000000001
1698924363330.0,16,0.30000000000000004,-1.7000000000000002,1.8,0.1,7.800000000000001,3.0,7.1000000000000005,5.7,-7.6
1698924363347.0,16,0.1,-1.4000000000000001,1.7000000000000002,-0.1,8.1,2.9000000000000004,-1.7,6.000000000000001,-4.9
1698924363364.0,16,-0.1,-0.8,1.3,-0.30000000000000004,8.6,2.6,-11.9,6.3,-0.2
1698924363380.0,16,-0.30000000000000004,-0.7000000000000001,1.1,-0.5,8.700000000000001,2.3000000000000003,-13.9,9.5,1.9
1698924363397.0,16,-0.4,-0.4,0.8,-0.7000000000000001,9.0,2.1,-10.600000000000001,11.5,2.6
1698924363414.0,16,-0.4,-0.2,0.7000000000000001,-0.7000000000000001,9.200000000000001,2.0,-7.6,10.9,2.5
1698924363430.0,16,-0.4,0.0,0.7000000000000001,-0.7000000000000001,9.4,2.0,-4.2,9.9,2.1999999999999997
1698924363447.0,16,-0.4,0.4,0.7000000000000001,-0.6000000000000001,9.8,2.0,4.2,9.700000000000001,1.4
1698924363464.0,16,-0.30000000000000004,0.30000000000000004,0.5,-0.5,9.700000000000001,1.8,11.5,10.0,0.30000000000000004
1698924363480.0,16,-0.1,0.1,0.30000000000000004,-0.4,9.5,1.6,15.100000000000001,13.700000000000001,-1.4
1698924363497.0,16,-0.1,0.0,0.30000000000000004,-0.4,9.3,1.5,14.700000000000001,16.8,-2.1999999999999997
1698924363514.0,16,-0.2,-0.1,0.30000000000000004,-0.5,9.3,1.5,14.0,17.0,-1.2000000000000002
1698924363530.0,16,-0.30000000000000004,-0.2,0.30000000000000004,-0.6000000000000001,9.3,1.5,12.4,13.100000000000001,2.1999999999999997
1698924363548.0,16,-0.4,-0.1,0.30000000000000004,-0.7000000000000001,9.3,1.5,11.1,10.0,4.1000000000000005
1698924363564.0,16,-0.5,0.0,0.2,-0.8,9.4,1.3,7.1000000000000005,6.1000000000000005,6.4
1698924363581.0,16,-0.5,0.0,0.1,-0.8,9.5,1.2000000000000002,0.9,5.2,6.000000000000001
1698924363597.0,16,-0.5,0.0,0.1,-0.8,9.5,1.2000000000000002,-2.7,5.300000000000001,4.7
1698924363614.0,16,-0.5,0.1,0.0,-0.8,9.5,1.1,-9.1,5.2,1.0
1698924363632.0,16,-0.5,0.0,0.0,-0.7000000000000001,9.4,1.2000000000000002,-13.8,6.2,-2.9
1698924363647.0,16,-0.4,-0.1,-0.1,-0.7000000000000001,9.3,1.1,-15.8,7.1000000000000005,-3.7000000000000006
1698924363666.0,16,-0.2,-0.4,-0.30000000000000004,-0.5,9.1,1.0,-19.500000000000004,8.4,-2.0
1698924363680.0,16,-0.1,-0.6000000000000001,-0.5,-0.4,8.8,0.9,-22.2,6.5,1.9
1698924363697.0,16,-0.1,-0.6000000000000001,-0.5,-0.4,8.8,0.8,-23.0,4.5,4.2
1698924363716.0,16,-0.1,-0.7000000000000001,-0.9,-0.4,8.700000000000001,0.5,-25.5,-1.3,8.600000000000001
1698924363735.0,16,-0.2,-0.8,-1.1,-0.5,8.5,0.5,-29.400000000000002,-7.400000000000001,12.6
1698924363749.0,16,-0.4,-0.9,-1.1,-0.6000000000000001,8.5,0.5,-31.3,-10.4,14.0
1698924363765.0,16,-0.6000000000000001,-0.6000000000000001,-0.9,-0.7000000000000001,8.8,0.7000000000000001,-32.5,-12.4,14.600000000000001
1698924363780.0,16,-0.4,-0.1,-0.9,-0.5,9.200000000000001,0.9,-30.200000000000003,-9.5,11.000000000000002
1698924363797.0,16,-0.30000000000000004,0.2,-0.9,-0.4,9.5,0.9,-25.400000000000002,-4.9,5.8
1698924363814.0,16,0.2,0.30000000000000004,-0.9,0.1,9.600000000000001,0.9,-22.2,-4.1000000000000005,4.7
1698924363830.0,16,0.5,0.1,-1.0,0.4,9.4,0.9,-15.9,-6.6000000000000005,6.3
1698924363847.0,16,0.5,0.1,-1.0,0.5,9.4,0.9,-13.4,-5.4,8.5
1698924363864.0,16,0.4,0.30000000000000004,-1.1,0.4,9.600000000000001,0.9,-9.0,1.9,10.3
1698924363881.0,16,0.2,0.7000000000000001,-1.3,0.2,9.9,0.7000000000000001,-5.8,5.9,8.5
1698924363897.0,16,0.1,0.8,-1.4000000000000001,0.2,10.100000000000001,0.6000000000000001,-4.800000000000001,1.8,5.4
1698924363914.0,16,0.1,0.7000000000000001,-1.5,0.2,10.0,0.5,-5.0,-0.9,4.0
1698924363930.0,16,-0.2,0.8,-1.5,-0.1,10.100000000000001,0.5,-7.300000000000001,-1.9,3.7000000000000006
1698924363947.0,16,-0.5,0.9,-1.7000000000000002,-0.4,10.200000000000001,0.30000000000000004,-12.000000000000002,1.0,4.1000000000000005
1698924363963.0,16,-0.7000000000000001,0.8,-1.7000000000000002,-0.6000000000000001,10.0,0.30000000000000004,-14.500000000000002,0.0,3.4
1698924363980.0,16,-1.0,0.6000000000000001,-1.4000000000000001,-0.9,9.9,0.7000000000000001,-17.7,-6.3,1.8
1698924363997.0,16,-0.5,1.2000000000000002,-0.1,-0.5,10.5,2.0,-8.600000000000001,-5.7,-3.7000000000000006
1698924364014.0,16,-0.2,1.3,-0.4,-0.1,10.600000000000001,1.7000000000000002,1.0,0.2,-10.2
1698924364030.0,16,-0.1,0.8,-1.7000000000000002,-0.1,10.100000000000001,0.4,7.2,3.2,-20.900000000000002
1698924364047.0,16,0.2,0.9,-0.2,0.1,10.200000000000001,1.9000000000000001,4.9,12.000000000000002,-22.5
1698924364065.0,16,0.30000000000000004,1.1,0.2,0.2,10.4,2.2,10.9,22.2,-22.4
1698924364080.0,16,0.7000000000000001,1.3,-0.7000000000000001,0.5,10.700000000000001,1.2000000000000002,24.1,25.5,-17.5
1698924364097.0,16,0.5,1.4000000000000001,-1.0,0.0,10.600000000000001,0.9,22.1,10.600000000000001,-5.0
1698924364114.0,16,0.1,1.2000000000000002,-0.8,-0.2,10.5,1.0,17.1,11.4,1.6
1698924364130.0,16,-0.1,1.0,-0.4,-0.4,10.4,1.4000000000000001,7.699999999999999,27.5,4.800000000000001
1698924364147.0,16,-0.2,0.9,-0.30000000000000004,-0.4,10.3,1.5,4.2,34.1,-1.0
1698924364164.0,16,-0.5,1.3,0.5,-0.8,10.700000000000001,2.3000000000000003,5.500000000000001,32.5,-3.3000000000000003
1698924364180.0,16,-0.6000000000000001,1.9000000000000001,1.4000000000000001,-0.9,11.3,3.2,21.5,29.200000000000003,-6.4
1698924364197.0,16,-0.6000000000000001,0.4,0.1,-1.0,9.9,1.7000000000000002,35.3,12.700000000000001,-4.3999999999999995
1698924364214.0,16,-0.9,-0.4,0.1,-1.2000000000000002,9.1,1.7000000000000002,34.2,2.7,-0.8
1698924364230.0,16,-1.2000000000000002,-1.5,0.7000000000000001,-1.5,7.9,2.1,29.300000000000004,3.5,6.1000000000000005
1698924364247.0,16,-1.0,-1.6,1.1,-1.3,7.9,2.5,29.300000000000004,9.700000000000001,5.300000000000001
1698924364264.0,16,-0.8,-1.3,1.3,-1.2000000000000002,8.1,2.6,31.3,5.6,1.5000000000000002
1698924364281.0,16,-0.30000000000000004,-0.4,2.1,-0.6000000000000001,9.0,3.3000000000000003,38.300000000000004,-9.5,-7.699999999999999
1698924364297.0,16,0.0,-0.30000000000000004,2.8000000000000003,-0.4,9.200000000000001,3.9000000000000004,48.1,-25.3,-8.799999999999999
1698924364314.0,16,0.0,-0.6000000000000001,3.0,-0.4,8.9,4.0,51.6,-28.6,-5.9
1698924364331.0,16,-0.1,-0.9,2.3000000000000003,-0.5,8.6,3.2,46.1,-22.3,-0.30000000000000004
1698924364348.0,16,0.0,-0.7000000000000001,1.9000000000000001,-0.4,8.8,2.7,22.1,-20.4,-0.5
1698924364365.0,16,0.1,-0.6000000000000001,1.8,-0.30000000000000004,8.9,2.6,6.6000000000000005,-20.4,-2.0
1698924364380.0,16,0.1,-0.6000000000000001,1.5,-0.30000000000000004,8.9,2.4000000000000004,-20.8,-21.900000000000002,-3.5
1698924364397.0,16,0.30000000000000004,-0.6000000000000001,1.6,-0.1,8.8,2.6,-35.199999999999996,-20.1,-2.0
1698924364413.0,16,0.5,-0.6000000000000001,1.4000000000000001,0.1,8.8,2.5,-37.1,-21.5,0.6000000000000001
1698924364430.0,16,0.6000000000000001,-0.6000000000000001,1.2000000000000002,0.2,8.8,2.4000000000000004,-35.4,-23.2,1.4
1698924364447.0,16,0.6000000000000001,-0.4,1.1,0.2,9.0,2.4000000000000004,-29.300000000000004,-24.9,1.6
1698924364464.0,16,0.6000000000000001,-0.30000000000000004,1.1,0.2,9.200000000000001,2.4000000000000004,-24.8,-24.200000000000003,1.0999999999999999
1698924364480.0,16,0.5,0.0,1.0,0.2,9.5,2.5,-13.3,-20.6,-0.4
1698924364497.0,16,0.5,0.0,0.8,0.2,9.5,2.3000000000000003,-1.5000000000000002,-16.700000000000003,-2.1
1698924364514.0,16,0.6000000000000001,-0.30000000000000004,0.7000000000000001,0.30000000000000004,9.3,2.2,3.0000000000000004,-15.299999999999999,-2.8
1698924364530.0,16,0.6000000000000001,-0.4,0.7000000000000001,0.30000000000000004,9.0,2.1,8.200000000000001,-12.000000000000002,-2.5
1698924364547.0,16,0.6000000000000001,-0.5,0.5,0.30000000000000004,8.9,1.9000000000000001,9.700000000000001,-9.0,-0.2
1698924364565.0,16,0.6000000000000001,-0.5,0.4,0.30000000000000004,8.9,1.8,4.3999999999999995,-6.6000000000000005,2.9
1698924364581.0,16,0.6000000000000001,-0.6000000000000001,0.4,0.30000000000000004,8.8,1.8,0.7,-5.9,4.7
1698924364598.0,16,0.5,-0.6000000000000001,0.4,0.30000000000000004,8.9,1.8,-6.7,-5.6,6.9
1698924364614.0,16,0.5,-0.5,0.2,0.30000000000000004,8.9,1.7000000000000002,-14.600000000000001,-6.000000000000001,6.8
1698924364631.0,16,0.5,-0.4,0.2,0.30000000000000004,9.0,1.7000000000000002,-17.9,-4.800000000000001,5.1
1698924364649.0,16,0.5,-0.30000000000000004,-0.1,0.30000000000000004,9.1,1.5,-23.5,-0.2,-0.4
1698924364664.0,16,0.5,-0.2,-0.2,0.30000000000000004,9.200000000000001,1.4000000000000001,-25.400000000000002,0.9,-2.7
1698924364680.0,16,0.6000000000000001,-0.1,-0.2,0.4,9.200000000000001,1.4000000000000001,-27.3,1.5000000000000002,-3.5
1698924364698.0,16,0.6000000000000001,0.0,-0.30000000000000004,0.4,9.3,1.5,-25.5,4.0,-1.7
1698924364714.0,16,0.5,0.0,-0.4,0.30000000000000004,9.3,1.4000000000000001,-23.1,5.1,-0.5
1698924364730.0,16,0.5,-0.1,-0.8,0.30000000000000004,9.200000000000001,1.0,-19.1,10.4,-0.6000000000000001
1698924364747.0,16,0.6000000000000001,-0.4,-1.0,0.4,8.9,0.9,-18.1,14.0,-4.9
1698924364764.0,16,0.5,-0.7000000000000001,-0.9,0.30000000000000004,8.6,1.1,-15.299999999999999,17.400000000000002,-7.1000000000000005
1698924364780.0,16,0.5,-0.7000000000000001,-0.9,0.2,8.6,1.1,-12.5,20.3,-6.6000000000000005
1698924364797.0,16,0.4,-0.8,-1.1,0.1,8.5,0.9,-8.0,22.900000000000002,-4.9
1698924364815.0,16,0.30000000000000004,-0.7000000000000001,-1.0,0.0,8.6,1.0,-4.300000000000001,19.8,-2.8
1698924364831.0,16,0.30000000000000004,-0.5,-0.9,-0.1,8.8,1.0,-1.6,17.5,-1.9
1698924364847.0,16,0.0,0.1,-0.9,-0.30000000000000004,9.4,1.1,5.2,10.9,0.2
1698924364865.0,16,-0.1,0.4,-1.0,-0.5,9.700000000000001,1.0,8.799999999999999,6.3,0.6000000000000001
1698924364880.0,16,-0.1,0.5,-0.9,-0.5,9.700000000000001,1.1,11.000000000000002,2.1999999999999997,-2.5
1698924364898.0,16,-0.1,0.4,-0.7000000000000001,-0.4,9.700000000000001,1.2000000000000002,12.200000000000001,1.5000000000000002,-3.8
1698924364914.0,16,0.0,0.2,-1.0,-0.4,9.5,0.9,11.000000000000002,2.3000000000000003,-3.0000000000000004
1698924364931.0,16,0.1,0.1,-1.1,-0.30000000000000004,9.4,0.7000000000000001,7.8,3.4,-1.8
1698924364949.0,16,0.4,-0.1,-1.2000000000000002,0.0,9.200000000000001,0.6000000000000001,-1.5000000000000002,2.4000000000000004,-0.6000000000000001
1698924364965.0,16,0.6000000000000001,-0.1,-1.2000000000000002,0.30000000000000004,9.200000000000001,0.7000000000000001,-10.5,-0.2,1.3
1698924364980.0,16,0.6000000000000001,0.0,-1.2000000000000002,0.0,9.5,0.9,-17.3,-3.1,6.1000000000000005
1698924364997.0,16,-0.1,0.8,-0.4,-0.4,10.100000000000001,1.4000000000000001,-17.9,-3.4,10.5
1698924365014.0,16,-0.30000000000000004,1.4000000000000001,-0.5,-0.6000000000000001,10.700000000000001,1.4000000000000001,-9.200000000000001,-5.2,21.900000000000002
1698924365031.0,16,-0.1,1.0,-1.3,-0.30000000000000004,10.3,0.6000000000000001,-6.9,-10.4,21.900000000000002
1698924365048.0,16,0.30000000000000004,0.1,-0.5,0.1,9.4,1.5,-9.9,-14.3,11.6
1698924365063.0,16,0.6000000000000001,0.5,-0.4,0.4,9.8,1.6,0.6000000000000001,-16.1,4.2
1698924365080.0,16,0.4,0.9,-0.9,0.1,10.5,1.0,2.4000000000000004,-11.8,5.0
1698924365097.0,16,0.2,1.7000000000000002,-0.4,0.1,11.0,1.5,1.3,-7.9,7.400000000000001
1698924365114.0,16,0.2,3.0,1.0,0.1,12.3,2.9000000000000004,14.0,-5.7,9.1
1698924365131.0,16,0.0,3.7,1.0,0.0,13.100000000000001,2.9000000000000004,27.3,-12.6,11.6
1698924365147.0,16,-0.1,3.7,0.8,-0.1,13.200000000000001,2.5,47.400000000000006,-32.7,19.400000000000002
1698924365164.0,16,-0.30000000000000004,1.0,0.30000000000000004,-0.2,10.5,1.8,46.300000000000004,-20.0,16.5
1698924365181.0,16,0.2,-0.1,-0.1,0.30000000000000004,9.4,1.4000000000000001,38.7,-12.6,8.600000000000001
1698924365197.0,16,1.0,-0.6000000000000001,-0.30000000000000004,1.1,8.9,1.2000000000000002,14.0,-6.5,-16.3
1698924365214.0,16,1.3,0.30000000000000004,0.9,1.3,9.700000000000001,2.3000000000000003,-4.7,1.0,-22.2
1698924365231.0,16,0.9,-0.2,0.5,1.1,9.700000000000001,2.2,-7.6,7.9,-17.200000000000003
1698924365247.0,16,0.7000000000000001,-0.7000000000000001,0.6000000000000001,0.7000000000000001,8.700000000000001,2.1,-9.700000000000001,6.7,-0.5
1698924365264.0,16,0.0,-1.7000000000000002,0.9,0.0,7.800000000000001,2.5,-4.0,10.1,8.4
1698924365281.0,16,-0.6000000000000001,-2.0,1.0,-0.6000000000000001,7.5,2.5,6.9,11.3,6.1000000000000005
1698924365297.0,16,-0.9,-1.9000000000000001,1.3,-0.8,7.6000000000000005,2.8000000000000003,13.5,7.8,4.2
1698924365314.0,16,-1.2000000000000002,-1.3,1.7000000000000002,-1.2000000000000002,8.200000000000001,3.1,28.3,4.6000000000000005,3.6
1698924365331.0,16,-1.2000000000000002,-0.6000000000000001,2.1,-1.2000000000000002,8.5,3.3000000000000003,34.300000000000004,4.300000000000001,3.4
1698924365348.0,16,-1.0,-0.4,2.1,-1.0,9.1,3.4000000000000004,42.300000000000004,8.600000000000001,1.2000000000000002
1698924365364.0,16,-0.2,-0.2,2.0,-0.2,9.3,3.1,41.6,11.2,-2.7
1698924365380.0,16,0.0,-0.2,2.0,0.0,9.3,3.1,29.600000000000005,9.8,-4.300000000000001
1698924365397.0,16,0.1,-0.4,1.9000000000000001,0.1,9.1,3.0,20.1,11.4,-2.8
1698924365414.0,16,-0.1,-0.30000000000000004,1.5,-0.1,9.200000000000001,2.6,-3.6,12.700000000000001,1.0999999999999999
1698924365431.0,16,-0.5,-0.2,1.3,-0.5,9.3,2.4000000000000004,-22.4,13.9,2.3000000000000003
1698924365447.0,16,-0.6000000000000001,-0.30000000000000004,1.1,-0.6000000000000001,9.200000000000001,2.3000000000000003,-28.6,14.500000000000002,2.1
1698924365464.0,16,-0.7000000000000001,-0.4,1.0,-0.8,9.0,2.3000000000000003,-32.7,14.500000000000002,1.7
1698924365480.0,16,-0.7000000000000001,-0.5,0.7000000000000001,-0.7000000000000001,8.9,2.0,-28.6,12.5,0.0
1698924365497.0,16,-0.6000000000000001,-0.5,0.5,-0.6000000000000001,8.9,2.0,-25.400000000000002,11.2,-1.0
1698924365514.0,16,-0.5,-0.30000000000000004,0.4,-0.6000000000000001,9.1,1.9000000000000001,-16.400000000000002,10.4,-2.4000000000000004
1698924365530.0,16,-0.6000000000000001,-0.2,0.30000000000000004,-0.7000000000000001,9.200000000000001,1.9000000000000001,-11.700000000000001,10.2,-2.5
1698924365547.0,16,-0.6000000000000001,-0.2,0.4,-0.7000000000000001,9.200000000000001,1.9000000000000001,-1.8,9.5,-2.0
1698924365565.0,16,-0.7000000000000001,-0.2,0.4,-0.8,9.200000000000001,2.0,8.5,8.1,-2.5
1698924365580.0,16,-0.7000000000000001,-0.2,0.30000000000000004,-0.8,9.200000000000001,1.8,15.2,8.5,-4.1000000000000005
1698924365597.0,16,-0.6000000000000001,-0.1,0.2,-0.7000000000000001,9.3,1.6,16.0,8.4,-4.9
1698924365614.0,16,-0.5,-0.2,0.1,-0.7000000000000001,9.200000000000001,1.6,13.4,5.6,-4.800000000000001
1698924365630.0,16,-0.6000000000000001,-0.30000000000000004,0.1,-0.8,9.1,1.5,6.8,4.2,-2.5
1698924365647.0,16,-0.7000000000000001,-0.4,0.0,-0.9,9.0,1.4000000000000001,2.5,3.9,-1.6
1698924365664.0,16,-0.6000000000000001,-0.4,0.0,-0.8,9.0,1.4000000000000001,-5.500000000000001,0.5,-1.7
1698924365680.0,16,-0.4,-0.6000000000000001,0.0,-0.8,8.9,1.4000000000000001,-8.5,-1.3,-2.0
1698924365697.0,16,-0.30000000000000004,-0.6000000000000001,-0.1,-0.5,8.8,1.3,-12.700000000000001,-1.3,-2.8
1698924365714.0,16,-0.2,-0.7000000000000001,-0.4,-0.4,8.6,1.1,-15.7,0.2,-2.5
1698924365730.0,16,0.0,-0.8,-0.4,-0.2,8.6,1.1,-16.6,-4.0,-0.7
1698924365748.0,16,0.0,-0.7000000000000001,-0.5,-0.2,8.6,1.1,-16.2,-4.6000000000000005,2.5
1698924365764.0,16,-0.1,-0.6000000000000001,-0.5,-0.30000000000000004,8.8,1.1,-15.000000000000002,-4.3999999999999995,4.300000000000001
1698924365780.0,16,-0.30000000000000004,-0.2,-0.6000000000000001,-0.5,9.1,1.1,-11.9,-5.6,7.400000000000001
1698924365797.0,16,-0.4,0.0,-0.6000000000000001,-0.6000000000000001,9.4,1.1,-8.700000000000001,-8.600000000000001,10.8
1698924365814.0,16,-0.5,0.1,-0.5,-0.6000000000000001,9.5,1.2000000000000002,-6.6000000000000005,-10.600000000000001,11.700000000000001
1698924365830.0,16,-0.4,0.0,-0.6000000000000001,-0.5,9.3,1.1,-3.6,-12.3,11.1
1698924365847.0,16,-0.4,-0.1,-0.6000000000000001,-0.5,9.200000000000001,1.1,-3.1,-12.6,9.5
1698924365864.0,16,-0.2,-0.4,-0.6000000000000001,-0.2,9.0,1.1,-2.4000000000000004,-12.100000000000001,5.4
1698924365880.0,16,0.0,-0.4,-0.5,-0.1,8.9,1.2000000000000002,-2.6,-10.700000000000001,3.1
1698924365897.0,16,0.1,-0.30000000000000004,-0.4,0.1,9.1,1.3,-2.3000000000000003,-8.799999999999999,3.1
1698924365915.0,16,0.2,0.0,-0.7000000000000001,0.2,9.4,1.0,-1.9,-5.9,3.6
1698924365931.0,16,0.1,0.1,-1.0,0.1,9.4,0.7000000000000001,-7.699999999999999,-8.200000000000001,6.000000000000001
1698924365947.0,16,0.0,0.1,-1.0,0.0,9.4,0.7000000000000001,-11.4,-9.8,7.400000000000001
1698924365965.0,16,-0.30000000000000004,0.2,-0.9,-0.30000000000000004,9.5,0.8,-16.900000000000002,-13.200000000000001,7.6
1698924365980.0,16,-0.5,0.4,-1.1,-0.4,9.700000000000001,0.8,-20.3,-17.0,6.6000000000000005
1698924365998.0,16,-0.7000000000000001,0.6000000000000001,-1.0,-0.5,9.8,0.7000000000000001,-21.6,-19.6,6.1000000000000005
1698924366014.0,16,-0.7000000000000001,0.7000000000000001,-0.9,-0.6000000000000001,10.0,1.0,-22.900000000000002,-22.8,5.9
1698924366031.0,16,-0.7000000000000001,0.8,-1.1,-0.5,10.100000000000001,0.9,-21.5,-20.6,3.3000000000000003
1698924366048.0,16,-0.6000000000000001,0.8,-1.2000000000000002,-0.5,10.100000000000001,0.8,-20.6,-20.3,-2.3000000000000003
1698924366063.0,16,-0.5,0.8,-1.2000000000000002,-0.30000000000000004,10.0,0.8,-20.2,-20.900000000000002,-4.9
1698924366080.0,16,-0.30000000000000004,0.8,-1.3,-0.2,10.0,0.8,-18.7,-20.8,-7.400000000000001
1698924366097.0,16,-0.30000000000000004,0.8,-1.3,-0.2,10.0,0.8,-17.5,-22.000000000000004,-7.2
1698924366114.0,16,-0.4,0.8,-1.4000000000000001,-0.30000000000000004,10.100000000000001,0.8,-14.200000000000001,-21.700000000000003,-6.3
1698924366130.0,16,-0.5,0.7000000000000001,-1.7000000000000002,-0.4,10.0,0.5,-14.4,-21.0,-7.400000000000001
1698924366148.0,16,-0.5,0.8,-1.3,-0.30000000000000004,10.100000000000001,0.9,-15.000000000000002,-21.400000000000002,-7.699999999999999
1698924366164.0,16,0.0,1.8,0.1,0.1,11.0,2.3000000000000003,-3.6,-16.1,-10.2
1698924366181.0,16,0.1,1.7000000000000002,-0.7000000000000001,0.2,11.0,1.5,16.700000000000003,-7.0,-13.3
1698924366198.0,16,0.1,1.4000000000000001,-1.2000000000000002,0.2,10.700000000000001,1.0,18.6,-7.699999999999999,-12.200000000000001
1698924366214.0,16,0.30000000000000004,0.9,0.2,0.30000000000000004,10.200000000000001,2.3000000000000003,18.0,-6.5,-9.700000000000001
1698924366231.0,16,0.30000000000000004,0.9,-0.2,0.30000000000000004,10.200000000000001,1.8,24.3,4.800000000000001,-12.9
1698924366247.0,16,0.30000000000000004,0.9,-0.9,0.2,10.200000000000001,1.1,21.200000000000003,6.3,-13.8
1698924366266.0,16,0.1,0.7000000000000001,-1.3,0.0,10.0,0.7000000000000001,-1.0999999999999999,6.8,-13.3
1698924366280.0,16,-0.30000000000000004,0.7000000000000001,-0.7000000000000001,-0.4,10.0,1.3,-20.1,15.100000000000001,-11.1
1698924366298.0,16,-0.4,0.6000000000000001,-0.8,-0.6000000000000001,10.0,1.3,-24.5,18.7,-10.700000000000001
1698924366314.0,16,-0.30000000000000004,0.6000000000000001,-0.6000000000000001,-0.6000000000000001,9.9,1.5,-27.2,17.5,-11.8
1698924366330.0,16,-0.30000000000000004,1.1,0.6000000000000001,-0.5,10.4,2.8000000000000003,-14.100000000000001,12.3,-12.100000000000001
1698924366347.0,16,-0.2,2.6,0.9,-0.5,11.9,3.0,22.7,11.2,-13.0
1698924366364.0,16,-0.4,2.3000000000000003,-0.2,-0.7000000000000001,11.700000000000001,1.9000000000000001,37.2,5.1,-15.100000000000001
1698924366380.0,16,-0.2,0.7000000000000001,0.30000000000000004,-0.6000000000000001,10.100000000000001,2.2,43.400000000000006,-6.2,-11.000000000000002
1698924366397.0,16,0.0,-0.30000000000000004,0.5,-0.4,9.1,2.3000000000000003,45.7,0.9,-6.000000000000001
1698924366414.0,16,0.2,-0.6000000000000001,0.4,-0.30000000000000004,8.8,2.1,43.7,3.4,-5.300000000000001
1698924366431.0,16,0.1,-1.0,0.4,-0.30000000000000004,8.4,2.0,32.5,5.500000000000001,-3.4
1698924366447.0,16,0.1,-1.1,0.7000000000000001,-0.30000000000000004,8.4,2.3000000000000003,26.0,2.6,-0.6000000000000001
1698924366464.0,16,0.1,-0.8,1.7000000000000002,-0.30000000000000004,8.700000000000001,3.2,19.3,-13.5,5.0
1698924366481.0,16,0.1,-0.7000000000000001,2.4000000000000004,-0.30000000000000004,8.700000000000001,3.9000000000000004,21.700000000000003,-30.299999999999997,7.699999999999999
1698924366497.0,16,-0.1,-0.8,2.7,-0.5,8.700000000000001,4.1000000000000005,23.1,-34.7,7.0
1698924366514.0,16,-0.1,-0.8,2.7,-0.4,8.700000000000001,4.1000000000000005,20.7,-31.099999999999998,5.7
1698924366532.0,16,0.30000000000000004,-0.8,2.4000000000000004,0.0,8.700000000000001,3.8000000000000003,10.1,-28.0,-0.4
1698924366547.0,16,0.8,-0.9,2.0,0.5,8.6,3.4000000000000004,-7.699999999999999,-28.400000000000002,-7.500000000000001
1698924366563.0,16,1.2000000000000002,-1.0,1.4000000000000001,0.9,8.5,3.0,-26.3,-18.7,-8.700000000000001
1698924366581.0,16,1.2000000000000002,-1.0,1.2000000000000002,0.9,8.4,2.8000000000000003,-33.2,-13.9,-7.400000000000001
1698924366597.0,16,1.2000000000000002,-1.1,1.1,0.9,8.3,2.8000000000000003,-38.900000000000006,-7.500000000000001,-2.3000000000000003
1698924366615.0,16,1.1,-1.1,0.7000000000000001,0.8,8.3,2.6,-32.7,-7.400000000000001,4.1000000000000005
1698924366631.0,16,0.8,-1.0,0.6000000000000001,0.5,8.3,2.5,-27.7,-11.8,6.2
1698924366647.0,16,0.6000000000000001,-0.9,0.7000000000000001,0.30000000000000004,8.4,2.7,-14.200000000000001,-14.500000000000002,7.2
1698924366664.0,16,0.5,-0.9,0.8,0.30000000000000004,8.5,2.8000000000000003,-6.5,-14.500000000000002,6.2
1698924366680.0,16,0.5,-0.7000000000000001,1.0,0.30000000000000004,8.6,2.9000000000000004,8.0,-14.800000000000002,3.1
1698924366697.0,16,0.5,-0.5,1.0,0.4,8.9,3.0,16.8,-13.3,0.8
1698924366714.0,16,0.6000000000000001,-0.30000000000000004,1.1,0.4,9.0,3.0,18.2,-12.200000000000001,0.0
1698924366731.0,16,0.8,-0.2,1.2000000000000002,0.7000000000000001,9.200000000000001,3.1,15.9,-9.0,-0.8
1698924366748.0,16,1.0,-0.2,1.0,0.8,9.200000000000001,2.8000000000000003,5.2,-5.500000000000001,2.6
1698924366764.0,16,0.9,-0.2,0.9,0.8,9.1,2.7,-2.5,-4.9,5.2
1698924366780.0,16,0.9,-0.30000000000000004,0.8,0.8,9.0,2.7,-16.6,-1.9,7.0
1698924366797.0,16,0.8,-0.5,0.7000000000000001,0.7000000000000001,8.8,2.7,-20.8,-1.0,6.4
1698924366815.0,16,0.7000000000000001,-0.7000000000000001,0.4,0.6000000000000001,8.6,2.5,-19.1,-0.5,7.0
1698924366831.0,16,0.6000000000000001,-0.8,0.4,0.5,8.5,2.5,-17.1,0.1,7.400000000000001
1698924366847.0,16,0.5,-0.8,0.4,0.5,8.5,2.5,-14.200000000000001,1.2000000000000002,7.1000000000000005
1698924366864.0,16,0.6000000000000001,-0.5,0.30000000000000004,0.6000000000000001,8.8,2.4000000000000004,-6.1000000000000005,2.7,4.6000000000000005
1698924366880.0,16,0.6000000000000001,-0.30000000000000004,0.30000000000000004,0.6000000000000001,9.0,2.4000000000000004,2.3000000000000003,4.6000000000000005,1.7
1698924366897.0,16,0.6000000000000001,0.0,0.5,0.6000000000000001,9.3,2.6,7.9,8.9,1.0999999999999999
1698924366914.0,16,0.4,0.5,0.6000000000000001,0.4,9.8,2.7,13.9,9.8,3.2
1698924366930.0,16,0.2,0.7000000000000001,0.7000000000000001,0.2,9.9,2.7,15.399999999999999,7.6,5.1
1698924366947.0,16,-0.30000000000000004,0.5,0.8,-0.2,9.8,2.8000000000000003,14.100000000000001,9.8,6.6000000000000005
1698924366964.0,16,-0.4,0.30000000000000004,0.6000000000000001,-0.30000000000000004,9.600000000000001,2.6,11.8,11.3,4.9
1698924366981.0,16,-0.1,-0.1,0.0,0.0,9.200000000000001,2.0,0.30000000000000004,17.599999999999998,-3.3000000000000003
1698924366997.0,16,0.6000000000000001,-0.30000000000000004,0.0,0.6000000000000001,9.0,2.0,-11.6,16.5,-6.6000000000000005
1698924367014.0,16,0.30000000000000004,-0.5,0.0,0.5,8.9,2.1,-15.2,15.5,-4.0
1698924367030.0,16,0.1,-0.7000000000000001,0.0,0.1,8.5,2.1,-18.5,11.6,4.5
1698924367046.0,16,-0.4,-0.8,0.5,-0.4,8.5,2.6,-11.9,-8.0,11.6
1698924367064.0,16,-0.7000000000000001,-0.6000000000000001,0.5,-0.8,8.8,2.7,-1.2000000000000002,-22.000000000000004,11.6
1698924367080.0,16,-0.9,-0.2,0.7000000000000001,-0.8,9.1,2.9000000000000004,7.699999999999999,-28.1,4.3999999999999995
1698924367097.0,16,-0.9,0.2,0.9,-0.8,9.4,3.0,10.8,-31.099999999999998,0.8
1698924367114.0,16,-0.8,0.4,0.5,-0.6000000000000001,9.700000000000001,2.6,10.9,-35.6,-4.1000000000000005
1698924367130.0,16,-0.6000000000000001,0.4,0.30000000000000004,-0.5,9.600000000000001,2.4000000000000004,6.4,-37.2,-7.300000000000001
1698924367146.0,16,-0.4,0.2,0.2,-0.30000000000000004,9.5,2.3000000000000003,-6.4,-38.900000000000006,-15.5
1698924367163.0,16,-0.2,0.1,0.1,-0.1,9.4,2.3000000000000003,-15.299999999999999,-42.300000000000004,-20.3
1698924367180.0,16,-0.1,0.1,0.1,-0.1,9.4,2.3000000000000003,-18.5,-45.7,-19.400000000000002
1698924367196.0,16,-0.2,0.2,0.1,-0.1,9.4,2.3000000000000003,-18.3,-48.2,-18.2
1698924367213.0,16,-0.4,0.30000000000000004,0.2,-0.4,9.600000000000001,2.4000000000000004,-14.900000000000002,-55.1,-17.1
1698924367230.0,16,-0.7000000000000001,0.4,0.2,-0.7000000000000001,9.700000000000001,2.5,-10.3,-59.400000000000006,-16.900000000000002
1698924367246.0,16,-0.7000000000000001,0.30000000000000004,0.0,-0.7000000000000001,9.600000000000001,2.3000000000000003,-9.200000000000001,-60.1,-17.200000000000003
1698924367263.0,16,-0.5,-0.2,0.0,-0.5,9.1,2.4000000000000004,-10.700000000000001,-62.4,-19.0
1698924367280.0,16,-0.1,-0.4,-0.1,-0.2,8.8,2.3000000000000003,-11.6,-62.900000000000006,-21.0
1698924367297.0,16,0.1,-0.5,-0.2,0.0,8.700000000000001,2.2,-12.000000000000002,-65.7,-20.8
1698924367314.0,16,0.0,-0.7000000000000001,-0.30000000000000004,-0.1,8.5,2.1,-12.700000000000001,-73.9,-16.6
1698924367333.0,16,-0.2,-0.6000000000000001,-0.4,-0.2,8.6,2.0,-12.5,-80.8,-13.3
1698924367346.0,16,-0.5,-0.4,-0.4,-0.5,8.700000000000001,2.1,-11.700000000000001,-85.4,-12.9
1698924367363.0,16,-0.8,-0.2,-0.5,-0.8,9.0,2.0,-9.3,-87.3,-16.8
1698924367380.0,16,-0.7000000000000001,-0.1,-0.6000000000000001,-0.7000000000000001,9.1,2.0,-7.0,-85.2,-24.8
1698924367397.0,16,-0.6000000000000001,0.0,-0.5,-0.6000000000000001,9.200000000000001,2.1,-5.7,-83.30000000000001,-28.8
1698924367413.0,16,-0.2,0.2,-0.4,-0.30000000000000004,9.4,2.2,-0.6000000000000001,-80.0,-33.7
1698924367430.0,16,0.0,0.5,-0.30000000000000004,-0.1,9.600000000000001,2.2,5.4,-78.3,-31.8
1698924367447.0,16,0.0,0.4,-0.4,-0.1,9.600000000000001,2.1,6.9,-76.4,-28.400000000000002
1698924367464.0,16,0.0,0.0,-0.6000000000000001,0.0,9.200000000000001,2.0,4.800000000000001,-73.10000000000001,-21.0
1698924367480.0,16,-0.4,-0.30000000000000004,-0.5,-0.30000000000000004,9.0,2.0,-0.2,-75.80000000000001,-14.4
1698924367497.0,16,-0.6000000000000001,-0.2,-0.7000000000000001,-0.7000000000000001,8.9,1.8,-3.3000000000000003,-78.9,-11.8
1698924367514.0,16,-1.0,-0.1,-0.8,-1.0,9.1,1.7000000000000002,-11.2,-87.5,-11.6
1698924367530.0,16,-1.1,0.1,-0.8,-1.1,9.200000000000001,1.8,-16.1,-92.50000000000001,-15.100000000000001
1698924367547.0,16,-1.2000000000000002,0.2,-0.9,-1.2000000000000002,9.3,1.7000000000000002,-16.400000000000002,-93.1,-17.0
1698924367565.0,16,-1.0,0.6000000000000001,-0.9,-1.0,9.700000000000001,1.7000000000000002,-16.700000000000003,-90.5,-20.1
1698924367580.0,16,-0.9,1.1,-0.8,-0.9,10.200000000000001,1.9000000000000001,-12.4,-88.7,-24.6
1698924367597.0,16,-0.9,1.2000000000000002,-0.9,-0.9,10.3,1.8,-8.700000000000001,-90.10000000000001,-26.8
1698924367614.0,16,-0.9,0.8,-1.3,-0.9,9.9,1.4000000000000001,-3.3000000000000003,-92.30000000000001,-29.300000000000004
1698924367630.0,16,-0.9,0.6000000000000001,-1.2000000000000002,-0.9,9.700000000000001,1.5,-3.1,-89.2,-28.500000000000004
1698924367647.0,16,-0.9,0.7000000000000001,-1.2000000000000002,-0.9,9.8,1.5,-2.6,-88.3,-27.7
1698924367663.0,16,-0.9,0.6000000000000001,-1.3,-0.9,9.700000000000001,1.4000000000000001,-1.2000000000000002,-93.4,-26.200000000000003
1698924367681.0,16,-0.9,0.6000000000000001,-1.2000000000000002,-0.9,9.700000000000001,1.5,-0.4,-96.80000000000001,-26.0
1698924367697.0,16,-0.9,0.5,-1.1,-0.9,9.600000000000001,1.6,1.5000000000000002,-101.50000000000001,-27.0
1698924367714.0,16,-0.9,0.5,-0.9,-0.9,9.700000000000001,1.7000000000000002,2.5,-100.8,-29.800000000000004
1698924367730.0,16,-0.8,0.5,-0.9,-0.9,9.700000000000001,1.7000000000000002,1.5000000000000002,-100.50000000000001,-32.2
1698924367747.0,16,-0.8,0.5,-0.9,-0.9,9.700000000000001,1.8,0.4,-100.0,-32.4
1698924367764.0,16,-0.8,0.4,-1.0,-0.9,9.600000000000001,1.6,-3.4,-101.2,-32.0
1698924367780.0,16,-0.8,0.30000000000000004,-1.0,-0.9,9.5,1.5,-6.2,-103.5,-31.5
1698924367797.0,16,-0.9,0.2,-1.0,-1.1,9.4,1.5,-11.700000000000001,-106.5,-29.800000000000004
1698924367814.0,16,-1.1,0.30000000000000004,-0.9,-1.3,9.4,1.6,-14.800000000000002,-109.8,-27.900000000000002
1698924367831.0,16,-1.0,0.2,-1.0,-1.2000000000000002,9.4,1.7000000000000002,-14.4,-116.30000000000001,-26.0
1698924367847.0,16,-1.0,0.1,-1.1,-1.2000000000000002,9.3,1.6,-14.0,-118.50000000000001,-25.900000000000002
1698924367864.0,16,-0.7000000000000001,0.2,-1.0,-0.9,9.4,1.7000000000000002,-14.100000000000001,-118.69999999999999,-28.6
1698924367880.0,16,-0.30000000000000004,0.4,-1.0,-0.5,9.5,1.7000000000000002,-12.8,-120.60000000000001,-32.2
1698924367896.0,16,-0.2,0.1,-1.0,-0.30000000000000004,9.200000000000001,1.8,-12.9,-119.60000000000002,-27.7
1698924367913.0,16,-0.2,-0.1,-1.0,-0.30000000000000004,9.0,1.8,-13.8,-117.20000000000002,-23.700000000000003
1698924367930.0,16,-0.4,-0.2,-0.6000000000000001,-0.4,8.9,2.2,-13.3,-113.80000000000001,-16.3
1698924367947.0,16,-0.2,0.2,-0.5,-0.2,9.3,2.4000000000000004,-8.4,-116.80000000000001,-17.1
1698924367963.0,16,-0.30000000000000004,0.4,-0.5,-0.30000000000000004,9.5,2.4000000000000004,-6.2,-117.60000000000001,-19.700000000000003
1698924367980.0,16,-0.4,0.6000000000000001,-0.7000000000000001,-0.4,9.700000000000001,2.2,-6.6000000000000005,-110.30000000000001,-22.900000000000002
1698924367997.0,16,-0.30000000000000004,0.6000000000000001,-0.7000000000000001,-0.30000000000000004,9.700000000000001,2.2,-8.700000000000001,-108.30000000000001,-23.700000000000003
1698924368014.0,16,-0.2,0.30000000000000004,-0.6000000000000001,-0.1,9.4,2.4000000000000004,-11.5,-108.4,-24.200000000000003
1698924368030.0,16,-0.30000000000000004,0.1,-0.7000000000000001,-0.2,9.200000000000001,2.2,-13.100000000000001,-107.2,-24.7
1698924368048.0,16,-0.6000000000000001,0.5,-0.8,-0.4,9.5,2.2,-13.6,-102.30000000000001,-24.6
1698924368064.0,16,-0.8,0.6000000000000001,-1.0,-0.6000000000000001,9.700000000000001,2.0,-13.6,-101.10000000000001,-25.5
1698924368080.0,16,-0.6000000000000001,0.5,-1.0,-0.4,9.5,2.0,-13.6,-107.2,-26.9
1698924368096.0,16,-0.30000000000000004,0.1,-1.1,-0.1,9.1,1.9000000000000001,-12.700000000000001,-112.7,-27.0
1698924368114.0,16,-0.1,-0.4,-0.8,0.1,8.6,2.3000000000000003,-12.3,-114.3,-25.900000000000002
1698924368130.0,16,-0.1,-0.30000000000000004,-0.8,0.1,8.700000000000001,2.3000000000000003,-8.4,-108.9,-24.6
1698924368146.0,16,-0.2,-0.1,-1.0,0.1,8.9,2.1,-7.2,-106.9,-26.200000000000003
1698924368164.0,16,-0.1,-0.1,-0.8,0.30000000000000004,8.9,2.3000000000000003,-7.0,-106.3,-27.7
1698924368180.0,16,0.2,0.0,-1.0,0.5,9.0,2.1,-5.1,-105.10000000000001,-29.800000000000004
1698924368196.0,16,0.30000000000000004,-0.1,-1.3,0.6000000000000001,8.9,1.8,-6.5,-106.3,-28.400000000000002
1698924368213.0,16,0.2,-0.1,-1.3,0.6000000000000001,8.9,1.8,-8.3,-105.7,-26.8
1698924368230.0,16,0.1,0.30000000000000004,-1.3,0.5,9.3,1.8,-9.8,-103.5,-25.2
1698924368246.0,16,0.1,0.5,-1.3,0.5,9.600000000000001,1.8,-7.400000000000001,-103.3,-25.8
1698924368263.0,16,0.0,0.7000000000000001,-1.3,0.6000000000000001,9.8,1.8,-3.1,-104.5,-27.400000000000002
1698924368280.0,16,0.30000000000000004,0.8,-1.2000000000000002,0.8,9.8,1.9000000000000001,-0.7,-106.00000000000001,-28.8
1698924368297.0,16,0.4,0.6000000000000001,-1.1,0.9,9.600000000000001,1.9000000000000001,3.5,-108.6,-30.9
1698924368313.0,16,0.4,0.30000000000000004,-0.9,0.9,9.4,2.0,5.1,-106.60000000000001,-29.400000000000002
1698924368330.0,16,0.5,0.2,-0.9,1.0,9.3,2.1,4.9,-104.0,-28.3
1698924368346.0,16,0.5,0.1,-1.0,1.1,9.1,1.9000000000000001,2.1999999999999997,-99.9,-27.1
1698924368363.0,16,0.5,0.1,-0.9,1.2000000000000002,9.1,2.0,-3.3000000000000003,-95.7,-25.2
1698924368380.0,16,0.7000000000000001,0.0,-0.8,1.3,9.0,2.1,-5.8,-92.50000000000001,-24.1
1698924368396.0,16,0.8,-0.1,-1.0,1.4000000000000001,8.9,1.9000000000000001,-10.5,-88.6,-22.4
1698924368413.0,16,0.8,-0.1,-1.0,1.4000000000000001,8.9,1.9000000000000001,-12.8,-87.5,-22.1
1698924368430.0,16,0.8,0.0,-1.0,1.4000000000000001,9.0,1.9000000000000001,-15.8,-83.10000000000001,-22.6
1698924368447.0,16,0.8,0.1,-1.0,1.4000000000000001,9.1,1.9000000000000001,-14.700000000000001,-79.3,-23.0
1698924368465.0,16,0.7000000000000001,0.1,-1.0,1.4000000000000001,9.1,1.9000000000000001,-13.0,-77.1,-22.4
1698924368481.0,16,0.7000000000000001,0.2,-1.0,1.4000000000000001,9.200000000000001,1.9000000000000001,-7.9,-72.7,-20.4
1698924368497.0,16,0.6000000000000001,0.2,-1.0,1.3,9.200000000000001,1.9000000000000001,-4.800000000000001,-71.4,-19.700000000000003
1698924368514.0,16,0.6000000000000001,0.2,-0.7000000000000001,1.4000000000000001,9.3,2.1,2.5,-70.39999999999999,-19.3
1698924368531.0,16,0.5,0.1,-0.6000000000000001,1.3,9.200000000000001,2.2,11.3,-69.10000000000001,-16.0
1698924368547.0,16,0.5,0.0,-0.5,1.3,9.0,2.2,15.399999999999999,-66.3,-12.3
1698924368564.0,16,0.4,-0.1,-0.4,1.3,9.0,2.2,15.9,-63.800000000000004,-12.100000000000001
1698924368580.0,16,0.30000000000000004,-0.1,-0.2,1.3,9.0,2.4000000000000004,14.3,-60.00000000000001,-13.200000000000001
1698924368597.0,16,0.30000000000000004,0.0,-0.30000000000000004,1.2000000000000002,9.1,2.2,10.4,-58.5,-14.600000000000001
1698924368613.0,16,0.30000000000000004,-0.1,-0.5,1.4000000000000001,8.9,1.9000000000000001,1.4,-55.1,-18.0
1698924368630.0,16,0.6000000000000001,-0.30000000000000004,-0.4,1.6,8.8,2.1,-2.9,-55.1,-19.700000000000003
1698924368647.0,16,0.8,-0.4,-0.2,1.7000000000000002,8.700000000000001,2.2,-5.1,-53.9,-20.6
1698924368665.0,16,0.8,-0.2,-0.30000000000000004,1.7000000000000002,8.9,2.1,-5.1,-45.2,-17.400000000000002
1698924368680.0,16,0.7000000000000001,-0.2,-0.30000000000000004,1.6,9.0,2.1,-3.7000000000000006,-42.5,-15.7
1698924368697.0,16,0.4,-0.1,-0.4,1.3,9.0,2.0,0.0,-39.9,-13.100000000000001
1698924368715.0,16,0.30000000000000004,-0.1,-0.4,1.2000000000000002,9.1,2.1,2.0,-39.1,-12.3
1698924368730.0,16,0.1,-0.1,-0.30000000000000004,0.9,9.1,2.1,6.7,-35.6,-13.3
1698924368747.0,16,0.0,0.0,-0.30000000000000004,0.8,9.1,2.0,11.2,-30.299999999999997,-15.7
1698924368764.0,16,0.0,0.0,-0.4,0.8,9.200000000000001,1.9000000000000001,12.6,-29.300000000000004,-16.6
1698924368781.0,16,0.1,0.0,-0.5,0.9,9.1,1.8,12.6,-32.300000000000004,-15.8
1698924368797.0,16,0.30000000000000004,0.0,0.0,1.1,9.1,2.2,12.6,-33.300000000000004,-13.8
1698924368814.0,16,0.4,0.1,0.1,1.2000000000000002,9.200000000000001,2.2,14.0,-32.4,-12.700000000000001
1698924368831.0,16,0.30000000000000004,0.2,0.0,1.0,9.4,2.1,16.2,-31.3,-9.3
1698924368848.0,16,0.0,0.30000000000000004,0.1,0.7000000000000001,9.600000000000001,2.2,13.8,-29.200000000000003,-5.0
1698924368864.0,16,-0.2,0.4,0.30000000000000004,0.6000000000000001,9.600000000000001,2.3000000000000003,12.4,-29.300000000000004,-2.7
1698924368880.0,16,-0.4,0.4,0.30000000000000004,0.4,9.600000000000001,2.3000000000000003,10.1,-32.5,1.0999999999999999
1698924368897.0,16,-0.5,0.2,0.2,0.30000000000000004,9.4,2.1,4.6000000000000005,-34.400000000000006,2.6
1698924368913.0,16,-0.4,0.0,-0.1,0.4,9.200000000000001,1.9000000000000001,-2.5,-33.800000000000004,1.4
1698924368930.0,16,-0.4,-0.1,-0.1,0.5,9.200000000000001,1.8,-5.9,-32.1,-0.5
1698924368948.0,16,-0.30000000000000004,0.1,-0.1,0.6000000000000001,9.4,1.8,-11.000000000000002,-23.6,-3.9
1698924368965.0,16,-0.2,0.30000000000000004,-0.1,0.7000000000000001,9.5,1.9000000000000001,-11.700000000000001,-19.8,-5.500000000000001
1698924368980.0,16,-0.1,0.4,0.0,0.8,9.600000000000001,2.0,-9.4,-18.1,-6.4
1698924368997.0,16,0.0,0.30000000000000004,0.1,0.8,9.600000000000001,2.1,-3.4,-20.900000000000002,-3.7000000000000006
1698924369014.0,16,0.0,0.2,0.0,0.8,9.4,2.0,-0.7,-21.900000000000002,-2.1999999999999997
1698924369031.0,16,0.0,0.1,0.0,0.8,9.3,2.1,2.1999999999999997,-18.3,-2.0
1698924369047.0,16,-0.1,0.2,0.1,0.8,9.4,2.1,3.9,-12.9,-4.800000000000001
1698924369065.0,16,-0.1,0.30000000000000004,0.2,0.8,9.5,2.2,4.3999999999999995,-10.9,-5.500000000000001
1698924369080.0,16,-0.1,0.4,0.1,0.7000000000000001,9.600000000000001,2.1,4.300000000000001,-10.3,-3.3000000000000003
1698924369097.0,16,-0.30000000000000004,0.2,0.1,0.5,9.5,2.1,3.3000000000000003,-10.9,0.8
1698924369114.0,16,-0.30000000000000004,0.2,0.1,0.5,9.5,2.0,1.9,-11.2,1.7
1698924369131.0,16,-0.30000000000000004,0.0,0.1,0.6000000000000001,9.3,2.1,-1.8,-13.4,1.0999999999999999
1698924369147.0,16,-0.1,-0.1,0.1,0.8,9.200000000000001,2.1,-4.1000000000000005,-14.600000000000001,0.8
1698924369163.0,16,0.0,-0.30000000000000004,0.0,0.9,9.0,2.0,-5.6,-15.9,0.2
1698924369180.0,16,-0.1,-0.4,-0.1,0.8,8.9,2.0,-6.3,-14.3,-0.4
1698924369197.0,16,-0.1,-0.6000000000000001,-0.2,0.8,8.700000000000001,1.8,-7.300000000000001,-7.9,-3.6
1698924369214.0,16,-0.1,-0.7000000000000001,-0.1,0.8,8.5,2.0,-4.3999999999999995,-7.300000000000001,-6.2
1698924369230.0,16,0.0,-0.6000000000000001,0.0,0.8,8.6,2.0,2.9,-10.9,-3.8
1698924369247.0,16,0.0,-0.30000000000000004,0.0,0.9,8.9,2.0,7.1000000000000005,-13.700000000000001,-1.3
1698924369263.0,16,-0.30000000000000004,0.0,0.0,0.7000000000000001,9.1,1.9000000000000001,12.3,-16.400000000000002,2.7
1698924369281.0,16,-0.5,0.1,0.0,0.4,9.3,1.9000000000000001,14.0,-16.0,1.6
1698924369298.0,16,-0.6000000000000001,0.1,0.0,0.30000000000000004,9.3,1.9000000000000001,17.1,-22.6,-5.2
1698924369314.0,16,-0.6000000000000001,0.1,0.0,0.2,9.3,1.9000000000000001,17.8,-24.7,-8.0
1698924369330.0,16,-0.6000000000000001,0.1,0.2,0.2,9.3,2.0,17.200000000000003,-23.2,-11.000000000000002
1698924369348.0,16,-0.8,0.2,0.5,0.0,9.5,2.2,19.200000000000003,-16.6,-11.4
1698924369364.0,16,-0.9,0.4,0.7000000000000001,-0.1,9.8,2.4000000000000004,23.400000000000002,-10.600000000000001,-10.2
1698924369380.0,16,-1.0,0.4,0.8,-0.2,9.8,2.5,25.8,-7.1000000000000005,-9.0
1698924369397.0,16,-1.1,0.2,0.7000000000000001,-0.4,9.600000000000001,2.3000000000000003,29.700000000000003,-4.5,-6.1000000000000005
1698924369416.0,16,-1.2000000000000002,-0.1,0.7000000000000001,-0.5,9.200000000000001,2.2,25.8,-8.200000000000001,-2.7
1698924369433.0,16,-1.4000000000000001,-0.2,0.7000000000000001,-0.7000000000000001,9.200000000000001,2.1,16.2,-17.5,-0.6000000000000001
1698924369447.0,16,-1.5,0.0,0.7000000000000001,-0.8,9.3,2.1,9.700000000000001,-23.5,-0.6000000000000001
1698924369463.0,16,-1.8,0.4,0.7000000000000001,-1.1,9.8,2.1,-5.0,-31.099999999999998,-2.7
1698924369480.0,16,-1.9000000000000001,0.6000000000000001,0.8,-1.2000000000000002,10.0,2.2,-10.3,-31.6,-4.6000000000000005
1698924369498.0,16,-1.8,0.8,0.4,-1.1,10.100000000000001,1.8,-16.2,-28.700000000000003,-10.2
1698924369514.0,16,-1.6,0.30000000000000004,0.1,-1.0,9.700000000000001,1.6,-19.500000000000004,-25.1,-15.000000000000002
1698924369535.0,16,-1.2000000000000002,0.0,0.0,-0.6000000000000001,9.4,1.5,-17.7,-25.2,-18.1
1698924369546.0,16,-1.0,-0.1,-0.1,-0.5,9.3,1.4000000000000001,-15.299999999999999,-27.2,-19.400000000000002
1698924369564.0,16,-0.8,0.0,-0.2,-0.30000000000000004,9.4,1.5,-9.1,-30.299999999999997,-19.400000000000002
1698924369580.0,16,-0.9,0.1,-0.30000000000000004,-0.4,9.5,1.4000000000000001,-5.9,-30.200000000000003,-17.8
1698924369606.0,16,-1.2000000000000002,0.2,-0.30000000000000004,-0.8,9.600000000000001,1.4000000000000001,1.4,-31.099999999999998,-11.9
1698924369613.0,16,-1.2000000000000002,0.1,-0.2,-0.9,9.5,1.4000000000000001,3.8,-31.4,-12.100000000000001
1698924369630.0,16,-1.2000000000000002,0.1,-0.2,-0.9,9.5,1.4000000000000001,7.1000000000000005,-30.200000000000003,-16.0
1698924369647.0,16,-1.2000000000000002,0.1,-0.2,-0.9,9.5,1.4000000000000001,8.0,-27.8,-18.900000000000002
1698924369664.0,16,-0.9,0.0,-0.30000000000000004,-0.7000000000000001,9.4,1.2000000000000002,6.5,-25.6,-23.2
1698924369680.0,16,-0.6000000000000001,-0.1,-0.30000000000000004,-0.5,9.3,1.2000000000000002,2.5,-27.6,-22.1
1698924369698.0,16,-0.6000000000000001,-0.2,-0.4,-0.4,9.200000000000001,1.2000000000000002,0.2,-28.1,-20.3
1698924369714.0,16,-0.6000000000000001,-0.30000000000000004,-0.5,-0.5,9.1,1.1,-3.7000000000000006,-26.6,-16.900000000000002
1698924369730.0,16,-0.6000000000000001,-0.2,-0.4,-0.6000000000000001,9.200000000000001,1.1,-5.300000000000001,-26.700000000000003,-15.5
1698924369747.0,16,-0.8,-0.30000000000000004,-0.6000000000000001,-0.7000000000000001,9.1,1.0,-6.5,-29.900000000000006,-12.9
1698924369764.0,16,-0.9,-0.30000000000000004,-0.4,-0.9,9.0,1.1,-5.6,-34.300000000000004,-10.3
1698924369780.0,16,-1.0,-0.2,-0.4,-1.1,9.1,1.1,-2.8,-34.1,-10.4
1698924369797.0,16,-1.0,-0.2,-0.5,-1.1,9.200000000000001,1.1,-1.4,-33.0,-11.4
1698924369814.0,16,-0.7000000000000001,-0.2,-0.6000000000000001,-0.8,9.200000000000001,1.0,-0.5,-32.6,-14.4
1698924369831.0,16,-0.30000000000000004,-0.2,-0.6000000000000001,-0.4,9.1,1.0,0.1,-36.5,-14.3
1698924369846.0,16,-0.30000000000000004,-0.2,-0.6000000000000001,-0.4,9.200000000000001,0.9,0.0,-38.1,-12.000000000000002
1698924369863.0,16,-0.30000000000000004,-0.1,-0.6000000000000001,-0.4,9.200000000000001,0.9,-1.4,-36.6,-5.300000000000001
1698924369880.0,16,-0.4,-0.1,-0.8,-0.5,9.3,0.8,-3.9,-33.7,-0.6000000000000001
1698924369897.0,16,-0.5,-0.1,-0.7000000000000001,-0.6000000000000001,9.200000000000001,0.8,-5.6,-32.300000000000004,0.6000000000000001
1698924369914.0,16,-0.5,-0.1,-0.7000000000000001,-0.6000000000000001,9.200000000000001,0.9,-6.4,-31.900000000000002,1.8
1698924369930.0,16,-0.4,0.1,-0.8,-0.5,9.5,0.8,-6.2,-34.300000000000004,1.7
1698924369947.0,16,-0.5,0.2,-0.8,-0.5,9.5,0.8,-6.7,-33.400000000000006,1.9
1698924369964.0,16,-0.5,0.2,-0.7000000000000001,-0.6000000000000001,9.5,0.9,-8.0,-28.400000000000002,4.1000000000000005
1698924369980.0,16,-0.5,0.2,-0.7000000000000001,-0.5,9.5,0.9,-7.0,-28.1,5.4
1698924369997.0,16,-0.5,0.0,-0.9,-0.5,9.4,0.7000000000000001,-5.6,-33.0,5.9
1698924370014.0,16,-0.6000000000000001,-0.30000000000000004,-1.0,-0.6000000000000001,9.1,0.6000000000000001,-6.2,-36.1,6.5
1698924370031.0,16,-0.7000000000000001,-0.4,-1.2000000000000002,-0.7000000000000001,9.0,0.30000000000000004,-10.8,-37.900000000000006,7.300000000000001
1698924370047.0,16,-0.7000000000000001,-0.5,-1.2000000000000002,-0.7000000000000001,8.9,0.5,-13.4,-37.4,7.2
1698924370063.0,16,-0.8,-0.4,-0.7000000000000001,-0.7000000000000001,8.9,1.0,-14.600000000000001,-32.0,6.8
1698924370080.0,16,-0.5,-0.1,-0.5,-0.4,9.3,1.1,-8.0,-23.6,2.5
1698924370096.0,16,-0.30000000000000004,0.2,-0.4,-0.1,9.5,1.3,2.8,-17.1,-4.3999999999999995
1698924370114.0,16,0.1,0.6000000000000001,-0.5,0.2,10.0,1.2000000000000002,8.3,-14.100000000000001,-7.300000000000001
1698924370131.0,16,0.5,1.2000000000000002,0.6000000000000001,0.6000000000000001,10.5,2.2,21.6,-4.9,-10.8
1698924370146.0,16,1.0,1.7000000000000002,0.4,1.0,11.100000000000001,1.9000000000000001,45.1,4.6000000000000005,-16.700000000000003
1698924370163.0,16,1.1,1.6,0.1,1.1,11.0,1.5,53.00000000000001,1.4,-20.2
1698924370180.0,16,0.7000000000000001,0.6000000000000001,0.0,0.7000000000000001,10.100000000000001,1.2000000000000002,54.2,3.7000000000000006,-19.500000000000004
1698924370196.0,16,0.7000000000000001,0.1,0.1,0.6000000000000001,9.5,1.2000000000000002,49.3,8.5,-14.500000000000002
1698924370214.0,16,0.0,-0.30000000000000004,0.6000000000000001,-0.1,9.200000000000001,1.6,36.7,13.700000000000001,-2.7
1698924370230.0,16,-1.1,0.1,0.7000000000000001,-1.2000000000000002,9.600000000000001,1.7000000000000002,23.2,14.4,7.500000000000001
1698924370247.0,16,-1.3,0.4,0.7000000000000001,-1.4000000000000001,9.9,1.6,16.2,12.100000000000001,9.8
1698924370264.0,16,-1.4000000000000001,0.9,1.0,-1.4000000000000001,10.4,1.8,4.5,-2.1,8.3
1698924370280.0,16,-1.1,1.0,1.1,-1.1,10.5,2.0,-1.6,-8.700000000000001,1.0999999999999999
1698924370297.0,16,-0.9,0.7000000000000001,0.9,-1.0,10.200000000000001,1.8,-4.0,-5.2,-3.8
1698924370314.0,16,0.1,0.0,0.8,0.0,9.4,1.7000000000000002,-7.6,2.1,-10.700000000000001
1698924370330.0,16,0.7000000000000001,-0.5,1.0,0.6000000000000001,9.0,1.9000000000000001,-6.1000000000000005,5.1,-7.699999999999999
1698924370348.0,16,1.0,-0.7000000000000001,0.6000000000000001,0.7000000000000001,8.8,1.7000000000000002,-4.6000000000000005,9.8,-3.0000000000000004
1698924370364.0,16,1.0,-0.8,0.6000000000000001,0.9,8.700000000000001,1.6,-3.7000000000000006,13.200000000000001,8.4
1698924370380.0,16,0.5,-0.7000000000000001,1.2000000000000002,0.5,8.700000000000001,2.2,3.5,4.9,15.000000000000002
1698924370397.0,16,-0.1,-0.6000000000000001,1.4000000000000001,-0.1,8.8,2.4000000000000004,14.3,1.0,16.5
1698924370414.0,16,-0.30000000000000004,-0.5,1.6,-0.30000000000000004,8.9,2.5,18.8,0.1,14.4
1698924370430.0,16,-0.4,-0.6000000000000001,1.8,-0.30000000000000004,8.9,2.7,25.6,0.1,5.500000000000001
1698924370447.0,16,-0.4,-0.5,1.6,-0.4,8.9,2.5,25.900000000000002,3.4,-0.30000000000000004
1698924370465.0,16,-0.30000000000000004,-0.30000000000000004,1.2000000000000002,-0.30000000000000004,9.200000000000001,2.0,17.3,5.7,-10.1
1698924370481.0,16,0.1,0.30000000000000004,0.9,0.0,9.700000000000001,1.6,-0.2,4.6000000000000005,-14.100000000000001
1698924370497.0,16,0.5,0.5,0.30000000000000004,0.5,9.9,1.2000000000000002,-22.1,4.5,-12.200000000000001
1698924370514.0,16,0.6000000000000001,0.30000000000000004,0.1,0.5,9.8,1.0,-33.300000000000004,4.7,-8.9
1698924370530.0,16,0.4,-0.1,0.1,0.30000000000000004,9.4,1.1,-50.7,1.3,2.0
1698924370547.0,16,0.30000000000000004,0.0,0.4,0.30000000000000004,9.3,1.3,-56.0,-8.200000000000001,9.8
1698924370565.0,16,0.1,0.30000000000000004,0.6000000000000001,0.1,9.700000000000001,1.9000000000000001,-53.300000000000004,-12.3,9.8
1698924370580.0,16,-0.2,0.8,0.30000000000000004,-0.2,10.200000000000001,1.8,-42.1,-15.299999999999999,5.9
1698924370597.0,16,-0.1,0.7000000000000001,-0.30000000000000004,-0.30000000000000004,10.3,1.5,-36.6,-14.0,3.6
1698924370614.0,16,0.2,0.30000000000000004,-0.5,0.2,9.700000000000001,1.1,-30.000000000000004,-10.1,-0.2
1698924370631.0,16,0.5,-0.5,-0.6000000000000001,0.5,8.9,1.2000000000000002,-25.0,-7.2,-1.0999999999999999
1698924370647.0,16,0.5,-0.7000000000000001,-0.5,0.5,8.700000000000001,1.2000000000000002,-21.5,-5.300000000000001,0.0
1698924370664.0,16,0.30000000000000004,-0.7000000000000001,-0.5,0.30000000000000004,8.6,1.3,-8.4,-3.1,8.1
1698924370681.0,16,0.0,-0.5,-0.5,0.1,8.9,1.3,-4.3999999999999995,-3.5,10.3
1698924370697.0,16,0.0,-0.2,-0.4,0.1,9.200000000000001,1.4000000000000001,3.3000000000000003,-5.9,10.4
1698924370714.0,16,-0.1,0.0,-0.4,0.0,9.3,1.4000000000000001,6.8,-7.0,8.4
1698924370731.0,16,-0.2,0.1,-0.5,-0.1,9.4,1.3,10.600000000000001,-5.7,4.2
1698924370747.0,16,-0.1,-0.2,-0.7000000000000001,0.0,9.200000000000001,1.0,7.9,-2.4000000000000004,1.3
1698924370764.0,16,0.0,-0.2,-0.9,0.2,9.1,0.8,4.2,-1.0,-0.5
1698924370780.0,16,0.30000000000000004,-0.30000000000000004,-1.1,0.5,9.1,0.6000000000000001,-5.9,2.1999999999999997,-4.7
1698924370797.0,16,0.6000000000000001,-0.30000000000000004,-1.2000000000000002,0.7000000000000001,9.1,0.5,-16.2,4.7,-5.8
1698924370814.0,16,0.6000000000000001,-0.2,-1.2000000000000002,0.7000000000000001,9.1,0.6000000000000001,-20.2,5.9,-4.9
1698924370830.0,16,0.4,-0.2,-1.1,0.5,9.200000000000001,0.8,-24.400000000000002,7.2,-1.0999999999999999
1698924370847.0,16,0.1,-0.1,-0.9,0.2,9.200000000000001,1.0,-22.6,8.4,2.7
1698924370863.0,16,-0.1,-0.1,-0.9,0.0,9.200000000000001,1.1,-16.400000000000002,9.700000000000001,2.0
1698924370880.0,16,-0.2,-0.2,-0.9,-0.1,9.1,1.1,-12.700000000000001,9.700000000000001,0.1
1698924370896.0,16,-0.1,-0.2,-1.0,0.0,9.1,1.0,-5.7,8.3,-3.6
1698924370914.0,16,0.1,-0.2,-0.9,0.2,9.1,1.1,0.5,3.8,-4.800000000000001
1698924370931.0,16,0.2,-0.2,-0.9,0.2,9.1,1.0,3.0000000000000004,2.1999999999999997,-4.800000000000001
1698924370947.0,16,0.2,-0.30000000000000004,-1.2000000000000002,0.2,8.9,0.7000000000000001,3.9,0.9,-3.8
1698924370965.0,16,0.2,-0.4,-1.4000000000000001,0.2,8.8,0.6000000000000001,-1.2000000000000002,1.5000000000000002,-2.7
1698924370980.0,16,0.30000000000000004,-0.30000000000000004,-1.3,0.30000000000000004,8.9,0.6000000000000001,-4.3999999999999995,1.6,-2.1999999999999997
1698924370997.0,16,0.30000000000000004,0.1,-0.9,0.4,9.4,1.1,-7.500000000000001,1.8,-1.3
1698924371016.0,16,0.2,0.8,-0.4,0.2,10.100000000000001,1.5,-3.1,-0.1,4.5
1698924371031.0,16,0.1,1.0,-0.4,0.2,10.3,1.6,1.6,-2.9,9.700000000000001
1698924371047.0,16,-0.1,0.9,-0.4,0.0,10.200000000000001,1.6,9.4,-6.8,18.5
1698924371063.0,16,-0.1,0.7000000000000001,-0.2,0.1,10.0,1.7000000000000002,12.4,-8.799999999999999,20.0
1698924371080.0,16,0.2,0.6000000000000001,-0.1,0.4,9.9,1.8,19.8,-15.299999999999999,15.8
1698924371097.0,16,0.30000000000000004,0.7000000000000001,-0.1,0.5,10.0,1.6,21.200000000000003,-16.400000000000002,7.1000000000000005
1698924371114.0,16,0.30000000000000004,1.1,0.2,0.6000000000000001,10.4,1.9000000000000001,18.5,-9.3,1.6
1698924371131.0,16,0.4,2.8000000000000003,1.1,0.7000000000000001,12.200000000000001,2.8000000000000003,20.1,-7.1000000000000005,1.9
1698924371147.0,16,0.30000000000000004,3.9000000000000004,1.7000000000000002,0.6000000000000001,13.3,3.3000000000000003,30.4,-14.200000000000001,11.1
1698924371163.0,16,-0.4,2.1,0.8,0.0,11.5,2.3000000000000003,29.500000000000004,-6.7,22.5
1698924371180.0,16,0.1,0.9,0.30000000000000004,0.5,10.3,1.8,20.6,3.5,20.8
1698924371197.0,16,0.7000000000000001,-0.6000000000000001,0.1,1.1,8.9,1.6,-1.2000000000000002,5.2,-2.3000000000000003
1698924371215.0,16,0.6000000000000001,-0.7000000000000001,0.30000000000000004,1.0,8.8,1.8,-10.0,3.3000000000000003,-13.5
1698924371230.0,16,0.6000000000000001,-0.5,0.30000000000000004,0.9,8.9,1.9000000000000001,-17.8,5.4,-16.8
1698924371249.0,16,0.1,-1.0,0.4,0.5,8.4,2.0,-14.800000000000002,-4.3999999999999995,-2.8
1698924371264.0,16,-0.4,-1.2000000000000002,0.6000000000000001,0.0,8.200000000000001,2.2,-9.5,-7.300000000000001,5.0
1698924371280.0,16,-0.9,-1.5,0.8,-0.5,7.9,2.4000000000000004,5.500000000000001,2.7,9.1
1698924371296.0,16,-1.0,-1.7000000000000002,1.5,-0.6000000000000001,7.7,3.0,24.6,9.700000000000001,1.0999999999999999
1698924371313.0,16,-0.9,-1.6,1.9000000000000001,-0.6000000000000001,7.800000000000001,3.3000000000000003,46.900000000000006,11.700000000000001,-4.2
1698924371331.0,16,-0.8,-1.3,2.1,-0.5,8.1,3.4000000000000004,55.5,11.8,-3.6
1698924371346.0,16,-0.5,-0.6000000000000001,2.2,-0.2,8.8,3.4000000000000004,63.0,10.700000000000001,-1.0999999999999999
1698924371364.0,16,-0.5,-0.2,2.2,-0.1,9.3,3.3000000000000003,54.0,7.9,1.6
1698924371380.0,16,-0.5,-0.2,2.2,-0.2,9.3,3.2,42.6,7.9,2.9
1698924371397.0,16,-0.6000000000000001,-0.1,1.5,-0.2,9.3,2.4000000000000004,8.3,9.4,4.2
1698924371413.0,16,-0.8,-0.1,1.4000000000000001,-0.5,9.4,2.4000000000000004,-27.900000000000002,7.300000000000001,4.300000000000001
1698924371430.0,16,-1.0,0.2,1.4000000000000001,-0.6000000000000001,9.600000000000001,2.5,-38.400000000000006,9.200000000000001,4.3999999999999995
1698924371448.0,16,-1.1,0.6000000000000001,0.8,-0.7000000000000001,10.0,2.1,-46.900000000000006,7.400000000000001,3.7000000000000006
1698924371463.0,16,-1.0,0.5,0.6000000000000001,-0.6000000000000001,9.9,2.0,-43.300000000000004,3.3000000000000003,4.1000000000000005
1698924371480.0,16,-0.8,0.30000000000000004,0.30000000000000004,-0.30000000000000004,9.4,1.7000000000000002,-32.4,0.4,1.4
1698924371497.0,16,-0.6000000000000001,-0.30000000000000004,0.2,-0.30000000000000004,9.1,1.7000000000000002,-26.1,-0.1,-0.8
1698924371514.0,16,-0.8,-0.5,0.1,-0.5,8.9,1.7000000000000002,-11.6,2.7,-3.0000000000000004
1698924371530.0,16,-1.0,-0.4,0.1,-0.7000000000000001,8.9,1.7000000000000002,-4.0,3.6,-2.9
1698924371547.0,16,-1.2000000000000002,-0.2,0.2,-0.9,9.200000000000001,1.8,11.3,1.0999999999999999,-2.1999999999999997
1698924371563.0,16,-1.1,-0.2,0.30000000000000004,-0.8,9.200000000000001,1.8,21.8,-4.7,-3.0000000000000004
1698924371581.0,16,-1.0,-0.30000000000000004,0.30000000000000004,-0.7000000000000001,9.1,1.7000000000000002,24.200000000000003,-5.7,-4.0
1698924371597.0,16,-0.7000000000000001,-0.5,0.2,-0.4,8.9,1.6,21.3,-4.800000000000001,-5.7
1698924371613.0,16,-0.5,-0.5,0.30000000000000004,-0.30000000000000004,8.9,1.6,11.2,-2.8,-5.1
1698924371630.0,16,-0.5,-0.5,0.30000000000000004,-0.30000000000000004,8.9,1.7000000000000002,4.5,-0.5,-4.0
1698924371647.0,16,-0.4,-0.4,0.2,-0.2,9.0,1.5,-8.4,3.5,-2.1999999999999997
1698924371664.0,16,-0.5,-0.5,0.0,-0.30000000000000004,8.9,1.4000000000000001,-13.9,4.1000000000000005,-1.9
1698924371680.0,16,-0.4,-0.6000000000000001,-0.1,-0.2,8.8,1.3,-22.2,6.8,-1.3
1698924371697.0,16,-0.4,-0.6000000000000001,-0.4,-0.2,8.700000000000001,1.1,-25.0,6.5,-0.30000000000000004
1698924371714.0,16,-0.6000000000000001,-0.6000000000000001,-0.5,-0.4,8.700000000000001,1.2000000000000002,-24.200000000000003,3.7000000000000006,2.1999999999999997
1698924371731.0,16,-0.7000000000000001,-0.6000000000000001,-0.5,-0.5,8.8,1.1,-19.6,2.0,6.3
1698924371746.0,16,-0.8,-0.4,-0.6000000000000001,-0.6000000000000001,8.9,1.1,-16.900000000000002,-0.2,8.200000000000001
1698924371764.0,16,-0.8,-0.1,-0.8,-0.6000000000000001,9.200000000000001,0.9,-10.3,-5.4,11.3
1698924371780.0,16,-1.0,0.0,-0.7000000000000001,-0.7000000000000001,9.3,1.0,-5.9,-9.5,13.0
1698924371796.0,16,-0.9,0.0,-0.7000000000000001,-0.7000000000000001,9.3,1.1,-3.7000000000000006,-8.600000000000001,12.9
1698924371814.0,16,-0.6000000000000001,-0.1,-0.7000000000000001,-0.30000000000000004,9.200000000000001,1.1,0.6000000000000001,-8.0,8.799999999999999
1698924371830.0,16,-0.1,-0.30000000000000004,-0.5,0.30000000000000004,9.0,1.2000000000000002,3.9,-8.700000000000001,3.1
1698924371847.0,16,0.1,-0.4,-0.5,0.5,8.9,1.2000000000000002,4.800000000000001,-6.5,2.1999999999999997
1698924371865.0,16,0.30000000000000004,-0.2,-0.6000000000000001,0.6000000000000001,9.1,1.1,3.5,1.3,3.2
1698924371880.0,16,0.1,0.1,-0.9,0.5,9.4,0.8,-1.6,5.6,5.500000000000001
1698924371897.0,16,0.0,0.30000000000000004,-1.0,0.4,9.600000000000001,0.7000000000000001,-5.9,4.800000000000001,6.1000000000000005
1698924371914.0,16,-0.30000000000000004,0.5,-1.1,0.1,9.8,0.7000000000000001,-15.000000000000002,4.9,7.1000000000000005
1698924371930.0,16,-0.5,0.30000000000000004,-1.3,-0.1,9.600000000000001,0.5,-23.2,5.1,6.3
1698924371947.0,16,-0.7000000000000001,0.2,-1.4000000000000001,-0.30000000000000004,9.5,0.4,-26.1,5.500000000000001,5.9
1698924371964.0,16,-0.8,0.1,-1.5,-0.4,9.4,0.4,-30.7,3.5,5.8
1698924371980.0,16,-0.8,0.7000000000000001,-0.30000000000000004,-0.30000000000000004,10.0,1.7000000000000002,-24.1,7.300000000000001,3.1
1698924371998.0,16,-0.5,1.3,-0.7000000000000001,-0.1,10.5,1.3,-14.0,13.200000000000001,-2.0
1698924372014.0,16,-0.2,0.9,-1.8,0.1,10.200000000000001,0.30000000000000004,-4.800000000000001,10.600000000000001,-15.9
1698924372031.0,16,0.0,0.30000000000000004,-1.0,0.30000000000000004,9.600000000000001,1.1,-4.300000000000001,13.5,-19.0
1698924372049.0,16,0.1,0.4,-0.5,0.4,9.700000000000001,1.5,11.3,32.2,-17.7
1698924372063.0,16,-0.1,1.1,-0.30000000000000004,0.1,10.4,1.6,28.700000000000003,25.700000000000003,-13.8
1698924372081.0,16,0.0,1.8,0.2,0.1,11.100000000000001,2.0,45.3,27.0,-6.7
1698924372096.0,16,-0.1,2.2,0.6000000000000001,0.0,11.600000000000001,2.3000000000000003,54.1,29.700000000000003,-3.8
1698924372113.0,16,-0.1,3.3000000000000003,0.8,0.0,12.700000000000001,2.3000000000000003,69.00000000000001,33.300000000000004,-5.2
1698924372130.0,16,-0.1,2.9000000000000004,0.6000000000000001,-0.1,12.4,1.9000000000000001,68.7,38.2,-11.000000000000002
1698924372148.0,16,-0.1,2.0,0.30000000000000004,-0.1,11.5,1.5,58.9,42.300000000000004,-8.9
1698924372164.0,16,-0.2,0.1,0.4,-0.2,9.600000000000001,1.5,26.8,40.6,2.9
1698924372180.0,16,-1.1,-0.6000000000000001,1.0,-1.1,9.0,2.1,-2.6,31.6,14.100000000000001
1698924372197.0,16,-1.4000000000000001,-0.5,1.1,-1.4000000000000001,9.0,2.2,-10.5,29.1,14.900000000000002
1698924372214.0,16,-1.5,-0.6000000000000001,0.9,-1.5,8.9,2.0,-15.399999999999999,20.0,7.2
1698924372231.0,16,-1.3,-0.8,1.1,-1.3,8.700000000000001,2.2,-13.8,16.400000000000002,0.5
1698924372249.0,16,-0.30000000000000004,-1.2000000000000002,1.7000000000000002,-0.30000000000000004,8.200000000000001,2.9000000000000004,11.000000000000002,9.600000000000001,-13.700000000000001
1698924372264.0,16,0.0,-1.1,1.8,-0.1,8.4,2.9000000000000004,22.2,8.1,-12.6
1698924372281.0,16,0.2,-0.7000000000000001,1.8,0.1,8.8,2.9000000000000004,39.2,4.300000000000001,-8.1
1698924372297.0,16,0.30000000000000004,-0.6000000000000001,1.9000000000000001,0.2,8.9,2.9000000000000004,43.300000000000004,1.5000000000000002,-5.8
1698924372314.0,16,0.4,-0.5,2.0,0.30000000000000004,9.0,2.8000000000000003,41.1,0.6000000000000001,-0.2
1698924372331.0,16,0.30000000000000004,-0.6000000000000001,1.8,0.2,8.9,2.5,24.000000000000004,0.2,6.3
1698924372347.0,16,0.1,-0.6000000000000001,1.7000000000000002,-0.1,9.1,2.2,-1.2000000000000002,3.3000000000000003,10.5
1698924372364.0,16,-0.2,-0.4,1.2000000000000002,-0.2,9.1,2.0,-13.200000000000001,2.8,9.1
1698924372381.0,16,-0.2,-0.4,1.1,-0.2,9.1,1.9000000000000001,-23.0,0.7,6.7
1698924372397.0,16,0.1,-0.4,1.0,0.0,9.1,1.9000000000000001,-34.1,-1.8,2.1999999999999997
1698924372415.0,16,0.1,-0.30000000000000004,0.9,0.1,9.200000000000001,2.0,-32.1,-1.5000000000000002,2.4000000000000004
1698924372430.0,16,0.1,-0.2,0.5,0.1,9.200000000000001,1.7000000000000002,-24.7,-0.1,3.2
1698924372446.0,16,0.30000000000000004,-0.2,0.6000000000000001,0.2,9.3,1.7000000000000002,-15.2,0.7,2.0
1698924372464.0,16,0.30000000000000004,-0.2,0.6000000000000001,0.30000000000000004,9.200000000000001,1.9000000000000001,-8.799999999999999,3.1,1.4
1698924372480.0,16,0.5,-0.4,0.4,0.5,9.0,1.7000000000000002,3.4,6.5,1.2000000000000002
1698924372497.0,16,0.5,-0.5,0.4,0.5,8.9,1.6,7.699999999999999,7.300000000000001,1.9
1698924372515.0,16,0.5,-0.6000000000000001,0.4,0.5,8.8,1.6,12.200000000000001,8.4,5.0
1698924372530.0,16,0.4,-0.6000000000000001,0.5,0.4,8.9,1.6,13.700000000000001,8.0,8.700000000000001
1698924372547.0,16,0.1,-0.4,0.4,0.2,9.0,1.5,11.8,7.9,10.5
1698924372566.0,16,0.1,-0.30000000000000004,0.2,0.2,9.1,1.3,8.4,8.5,10.0
1698924372580.0,16,0.1,-0.2,0.1,0.30000000000000004,9.200000000000001,1.2000000000000002,-0.9,6.7,6.7
1698924372597.0,16,0.1,-0.1,0.2,0.2,9.3,1.3,-5.0,6.1000000000000005,5.2
1698924372614.0,16,0.1,0.0,0.1,0.2,9.5,1.3,-10.2,7.9,3.0000000000000004
1698924372631.0,16,0.2,-0.1,-0.1,0.30000000000000004,9.3,1.0,-14.0,10.600000000000001,1.4
1698924372649.0,16,0.30000000000000004,-0.4,-0.2,0.4,9.0,1.0,-16.6,11.700000000000001,-0.5
1698924372664.0,16,0.2,-0.4,-0.2,0.4,9.0,1.1,-16.6,12.5,-0.8
