timestamp,interval,accx,accy,accz,accGx,accGy,accGz,alpha,beta,gamma
1698921415.016,16,0.0,0.1,0.0,-0.4,9.3,2.7,-5.1,3.7000000000000006,1.3
1698921415.033,16,0.0,0.1,0.0,-0.4,9.200000000000001,2.6,-5.7,3.3000000000000003,1.0999999999999999
1698921415.05,16,0.0,0.0,-0.1,-0.4,9.1,2.7,-6.3,2.8,0.9
1698921415.066,16,0.0,-0.1,-0.1,-0.5,9.0,2.7,-5.500000000000001,1.6,0.7
1698921415.083,16,0.0,-0.1,0.0,-0.4,9.0,2.7,-3.9,0.5,0.5
1698921415.099,16,0.0,-0.1,0.0,-0.5,9.0,2.8000000000000003,-3.3000000000000003,0.30000000000000004,0.30000000000000004
1698921415.116,16,0.0,-0.1,0.1,-0.5,9.0,2.8000000000000003,-2.1,-0.30000000000000004,-0.1
1698921415.133,16,0.0,-0.1,0.1,-0.4,9.0,2.8000000000000003,-0.6000000000000001,-0.5,-0.2
1698921415.15,16,0.0,0.0,0.0,-0.4,9.1,2.8000000000000003,0.30000000000000004,-0.5,-0.30000000000000004
1698921415.166,16,0.0,0.0,0.0,-0.4,9.1,2.8000000000000003,0.8,-0.5,-0.4
1698921415.183,16,0.0,0.0,0.0,-0.4,9.1,2.7,1.9,-0.2,-0.30000000000000004
1698921415.2,16,0.0,0.0,-0.1,-0.4,9.1,2.7,2.3000000000000003,-0.30000000000000004,-0.1
1698921415.216,16,0.0,0.0,0.0,-0.4,9.1,2.7,2.5,-0.5,0.1
1698921415.232,16,0.0,0.0,0.0,-0.4,9.200000000000001,2.7,2.6,-0.5,0.2
1698921415.249,16,0.0,0.0,-0.1,-0.5,9.200000000000001,2.7,2.1999999999999997,0.2,0.7
1698921415.266,16,0.0,0.0,0.0,-0.4,9.200000000000001,2.7,1.9,0.2,0.6000000000000001
1698921415.283,16,0.0,0.0,0.1,-0.4,9.1,2.8000000000000003,1.4,0.30000000000000004,0.6000000000000001
1698921415.3,16,0.0,0.0,0.1,-0.4,9.1,2.8000000000000003,1.5000000000000002,0.30000000000000004,0.5
1698921415.316,16,0.0,0.0,0.1,-0.4,9.1,2.8000000000000003,1.8,0.5,0.5
1698921415.333,16,0.0,0.0,0.1,-0.4,9.1,2.8000000000000003,2.5,0.7,0.7
1698921415.349,16,0.0,0.0,0.1,-0.4,9.200000000000001,2.8000000000000003,3.0000000000000004,0.8,0.8
1698921415.366,16,0.0,0.0,0.1,-0.4,9.200000000000001,2.8000000000000003,3.0000000000000004,0.7,0.9
1698921415.383,16,0.0,0.0,0.0,-0.4,9.200000000000001,2.7,2.5,0.5,1.0
1698921415.399,16,0.0,0.0,0.0,-0.4,9.200000000000001,2.7,2.5,0.1,1.0
1698921415.417,16,0.0,0.0,0.0,-0.5,9.200000000000001,2.7,2.1999999999999997,0.0,1.0
1698921415.432,16,0.0,0.0,0.0,-0.4,9.200000000000001,2.7,2.1,-0.1,0.9
1698921415.449,16,0.0,0.0,0.0,-0.4,9.1,2.7,1.6,-0.30000000000000004,0.9
1698921415.466,16,0.0,-0.1,0.0,-0.4,9.1,2.7,1.2000000000000002,-0.6000000000000001,0.7
1698921415.483,16,0.0,0.1,0.0,-0.4,9.200000000000001,2.7,1.2000000000000002,-1.0999999999999999,0.4
1698921415.5,16,0.0,0.1,0.0,-0.4,9.3,2.6,1.0,-1.0999999999999999,0.30000000000000004
1698921415.517,16,0.0,0.0,0.0,-0.4,9.200000000000001,2.7,0.5,-0.9,0.4
1698921415.533,16,0.0,0.1,0.0,-0.4,9.200000000000001,2.7,-0.30000000000000004,-1.0999999999999999,0.2
1698921415.549,16,0.0,0.1,0.0,-0.4,9.200000000000001,2.7,-1.0999999999999999,-1.0,0.1
1698921415.565,16,0.0,0.0,0.0,-0.4,9.200000000000001,2.6,-1.0999999999999999,-1.5000000000000002,-0.1
1698921415.583,16,0.0,0.0,0.0,-0.4,9.200000000000001,2.6,-1.0999999999999999,-1.4,-0.30000000000000004
1698921415.599,16,0.0,0.0,0.0,-0.4,9.200000000000001,2.7,-1.0999999999999999,-1.7,-0.2
1698921415.616,16,0.0,0.0,0.0,-0.4,9.1,2.7,-1.0999999999999999,-1.7,-0.1
1698921415.632,16,0.0,0.0,-0.1,-0.4,9.200000000000001,2.6,-0.7,-1.8,-0.1
1698921415.649,16,0.0,0.0,0.0,-0.4,9.200000000000001,2.7,-0.6000000000000001,-1.9,-0.1
1698921415.666,16,0.0,0.0,-0.1,-0.4,9.200000000000001,2.6,-0.5,-1.9,-0.1
1698921415.683,16,0.0,0.0,-0.1,-0.4,9.200000000000001,2.6,-0.30000000000000004,-1.8,-0.1
1698921415.699,16,0.0,0.0,-0.1,-0.4,9.200000000000001,2.6,-0.30000000000000004,-1.5000000000000002,-0.1
1698921415.716,16,0.0,0.0,-0.1,-0.4,9.200000000000001,2.6,-0.30000000000000004,-1.3,-0.1
1698921415.733,16,0.0,0.0,-0.1,-0.4,9.1,2.6,-0.2,-0.9,0.1
1698921415.75,16,0.0,0.0,0.0,-0.4,9.200000000000001,2.6,-0.30000000000000004,-0.6000000000000001,-0.30000000000000004
1698921415.766,16,0.0,0.0,0.0,-0.30000000000000004,9.200000000000001,2.6,0.0,-0.4,-0.4
1698921415.783,16,0.0,0.0,0.0,-0.30000000000000004,9.200000000000001,2.6,0.1,-0.1,-0.4
1698921415.799,16,0.0,0.0,0.0,-0.4,9.200000000000001,2.7,0.30000000000000004,0.2,-0.2
1698921415.816,16,0.0,0.0,0.0,-0.4,9.200000000000001,2.6,0.0,0.6000000000000001,-0.1
1698921415.833,16,0.0,0.0,0.0,-0.4,9.200000000000001,2.7,-0.30000000000000004,0.7,0.0
1698921415.849,16,0.0,0.0,-0.1,-0.4,9.200000000000001,2.6,-0.30000000000000004,0.6000000000000001,0.2
1698921415.866,16,0.0,0.0,0.0,-0.4,9.200000000000001,2.6,-0.30000000000000004,0.5,0.30000000000000004
1698921415.882,16,0.0,0.0,0.0,-0.30000000000000004,9.1,2.7,-0.2,0.4,0.2
1698921415.899,16,0.0,0.0,0.0,-0.30000000000000004,9.200000000000001,2.7,-0.1,0.5,0.30000000000000004
1698921415.916,16,0.0,0.0,0.0,-0.4,9.200000000000001,2.7,0.2,0.2,0.1
1698921415.932,16,0.0,0.0,0.0,-0.4,9.200000000000001,2.6,0.30000000000000004,0.30000000000000004,0.1
1698921415.949,16,0.0,0.0,0.0,-0.4,9.200000000000001,2.6,0.30000000000000004,0.2,-0.1
1698921415.966,16,0.0,0.0,0.0,-0.4,9.200000000000001,2.6,0.1,0.0,0.1
1698921415.982,16,0.0,0.0,0.0,-0.4,9.200000000000001,2.6,0.1,-0.1,0.1
1698921415.999,16,0.0,0.0,0.0,-0.30000000000000004,9.200000000000001,2.7,0.1,-0.30000000000000004,0.30000000000000004
1698921416.016,16,0.0,0.0,0.1,-0.30000000000000004,9.200000000000001,2.7,0.2,-0.2,0.4
1698921416.032,16,0.0,0.0,0.0,-0.4,9.200000000000001,2.7,0.30000000000000004,-0.2,0.2
1698921416.049,16,0.0,0.0,0.0,-0.4,9.200000000000001,2.7,0.30000000000000004,0.0,0.2
1698921416.066,16,0.0,0.0,0.1,-0.4,9.1,2.7,0.30000000000000004,0.1,0.30000000000000004
1698921416.082,16,0.0,0.0,0.0,-0.4,9.200000000000001,2.7,0.30000000000000004,0.0,0.30000000000000004
1698921416.099,16,0.0,0.0,0.0,-0.4,9.200000000000001,2.7,0.4,0.1,0.4
1698921416.116,16,0.0,0.0,0.0,-0.4,9.200000000000001,2.7,0.2,0.30000000000000004,0.4
1698921416.132,16,-0.1,0.0,0.0,-0.4,9.200000000000001,2.7,0.0,0.2,0.30000000000000004
1698921416.149,16,0.0,0.0,0.0,-0.4,9.1,2.7,0.0,0.2,0.1
1698921416.166,16,0.0,0.0,0.0,-0.4,9.200000000000001,2.7,0.0,-0.1,-0.1
1698921416.183,16,0.0,0.0,0.0,-0.4,9.200000000000001,2.6,0.1,0.0,-0.1
1698921416.199,16,0.0,0.0,0.0,-0.4,9.200000000000001,2.7,0.1,0.2,-0.2
1698921416.216,16,0.0,0.0,0.0,-0.4,9.200000000000001,2.7,-0.2,0.2,-0.6000000000000001
1698921416.232,16,0.0,0.0,0.0,-0.4,9.200000000000001,2.7,-0.2,0.1,-0.6000000000000001
1698921416.249,16,0.0,0.0,0.0,-0.4,9.200000000000001,2.7,-0.2,-0.30000000000000004,-0.6000000000000001
1698921416.266,16,0.0,0.0,0.0,-0.4,9.1,2.7,-0.2,-0.5,-0.6000000000000001
1698921416.282,16,0.0,0.0,0.0,-0.4,9.200000000000001,2.7,-0.1,-0.6000000000000001,-0.6000000000000001
1698921416.299,16,0.0,0.0,0.0,-0.4,9.200000000000001,2.7,-0.2,-0.8,-0.7
1698921416.316,16,0.0,0.0,0.0,-0.4,9.200000000000001,2.7,-0.30000000000000004,-0.7,-0.6000000000000001
1698921416.332,16,0.0,0.0,0.0,-0.30000000000000004,9.200000000000001,2.7,-0.5,-0.8,-0.7
1698921416.349,16,0.0,0.0,0.0,-0.30000000000000004,9.200000000000001,2.7,-0.5,-0.8,-0.6000000000000001
1698921416.366,16,0.0,0.0,0.0,-0.30000000000000004,9.200000000000001,2.7,-0.5,-0.5,-0.4
1698921416.382,16,0.0,0.0,0.0,-0.30000000000000004,9.200000000000001,2.7,-0.4,-0.30000000000000004,-0.4
1698921416.399,16,0.0,0.0,0.0,-0.4,9.200000000000001,2.7,-0.4,0.0,-0.30000000000000004
1698921416.416,16,0.0,0.0,0.0,-0.4,9.200000000000001,2.7,-0.4,-0.2,-0.30000000000000004
1698921416.432,16,0.0,0.0,0.0,-0.4,9.1,2.7,-0.2,-0.30000000000000004,-0.2
1698921416.449,16,0.0,0.0,0.0,-0.4,9.200000000000001,2.7,-0.2,-0.2,-0.1
1698921416.466,16,0.0,0.0,-0.1,-0.4,9.200000000000001,2.6,-0.2,-0.2,-0.1
1698921416.482,16,0.0,0.0,0.0,-0.4,9.200000000000001,2.7,-0.2,0.1,0.1
1698921416.499,16,0.0,0.0,0.0,-0.4,9.200000000000001,2.6,-0.1,0.1,0.0
1698921416.516,16,0.0,0.0,-0.1,-0.4,9.200000000000001,2.6,0.0,0.0,0.1
1698921416.533,16,0.0,0.0,0.0,-0.4,9.200000000000001,2.6,-0.30000000000000004,0.0,-0.2
1698921416.55,16,0.0,0.0,0.0,-0.4,9.1,2.6,-0.2,0.1,-0.1
1698921416.566,16,0.0,0.0,-0.1,-0.4,9.200000000000001,2.6,0.0,0.5,-0.1
1698921416.583,16,0.0,0.0,0.0,-0.4,9.200000000000001,2.6,0.0,0.5,0.1
1698921416.599,16,0.0,0.0,-0.1,-0.4,9.200000000000001,2.6,-0.2,0.5,0.0
1698921416.616,16,0.0,0.0,0.0,-0.4,9.200000000000001,2.6,-0.30000000000000004,0.5,-0.1
1698921416.633,16,0.0,0.0,0.0,-0.4,9.200000000000001,2.6,-0.2,0.30000000000000004,-0.1
1698921416.65,16,0.0,0.0,0.0,-0.4,9.200000000000001,2.6,-0.2,0.0,-0.1
1698921416.666,16,0.0,0.0,0.0,-0.4,9.200000000000001,2.6,-0.1,0.2,-0.1
1698921416.683,16,0.0,0.0,0.0,-0.4,9.1,2.7,-0.2,0.30000000000000004,-0.2
1698921416.699,16,0.0,0.0,0.0,-0.4,9.200000000000001,2.6,0.2,0.30000000000000004,-0.30000000000000004
1698921416.716,16,0.0,0.0,0.0,-0.4,9.200000000000001,2.6,0.30000000000000004,0.30000000000000004,-0.30000000000000004
1698921416.733,16,0.0,0.0,0.0,-0.4,9.200000000000001,2.6,0.2,0.5,-0.30000000000000004
1698921416.75,16,0.0,0.0,0.0,-0.4,9.200000000000001,2.7,0.1,0.5,-0.2
1698921416.766,16,0.0,0.0,0.0,-0.4,9.200000000000001,2.6,-0.2,0.30000000000000004,-0.30000000000000004
1698921416.782,16,0.0,0.0,0.0,-0.4,9.200000000000001,2.7,-0.2,0.4,-0.1
1698921416.799,16,0.0,0.0,0.0,-0.4,9.200000000000001,2.7,-0.30000000000000004,0.5,-0.2
1698921416.816,16,0.0,0.0,0.0,-0.4,9.200000000000001,2.7,-0.30000000000000004,0.30000000000000004,-0.30000000000000004
1698921416.833,16,0.0,0.0,0.0,-0.4,9.200000000000001,2.7,-0.30000000000000004,0.6000000000000001,-0.1
1698921416.85,16,0.0,0.0,0.0,-0.4,9.200000000000001,2.7,-0.30000000000000004,0.5,-0.1
1698921416.866,16,0.0,0.0,0.0,-0.4,9.200000000000001,2.7,-0.2,0.2,0.1
1698921416.883,16,0.0,0.0,0.0,-0.4,9.1,2.6,-0.30000000000000004,0.0,0.2
1698921416.899,16,0.0,0.0,0.0,-0.4,9.200000000000001,2.7,-0.2,0.1,0.2
1698921416.916,16,0.0,0.0,0.0,-0.4,9.1,2.7,-0.2,0.2,0.2
1698921416.932,16,0.0,0.0,0.0,-0.4,9.1,2.7,-0.1,0.1,0.1
1698921416.949,16,0.0,0.0,0.0,-0.4,9.200000000000001,2.7,-0.2,0.2,0.1
1698921416.966,16,0.0,0.0,0.0,-0.4,9.200000000000001,2.7,-0.2,0.2,0.1
1698921416.983,16,0.0,0.0,0.0,-0.4,9.200000000000001,2.7,-0.30000000000000004,0.2,0.1
1698921417.0,16,0.0,0.0,0.0,-0.4,9.200000000000001,2.7,-0.30000000000000004,0.1,0.1
1698921417.016,16,0.0,0.0,0.0,-0.4,9.200000000000001,2.7,-0.4,0.0,0.0
1698921417.033,16,0.0,0.0,0.0,-0.4,9.1,2.7,-0.30000000000000004,-0.1,0.1
1698921417.05,16,0.0,0.0,0.0,-0.4,9.200000000000001,2.7,-0.2,0.0,0.1
1698921417.066,16,0.0,0.0,0.0,-0.4,9.200000000000001,2.7,-0.2,0.0,0.1
1698921417.083,16,0.0,0.0,0.0,-0.4,9.200000000000001,2.7,-0.2,-0.1,0.1
1698921417.099,16,0.0,0.0,0.0,-0.4,9.200000000000001,2.7,-0.2,0.0,0.1
1698921417.116,16,0.0,0.0,0.0,-0.4,9.1,2.7,-0.30000000000000004,0.0,0.2
1698921417.133,16,0.0,0.0,0.0,-0.4,9.1,2.7,-0.2,-0.1,0.2
1698921417.149,16,0.0,0.0,0.0,-0.4,9.200000000000001,2.7,-0.1,0.0,0.2
1698921417.166,16,0.0,0.0,0.0,-0.4,9.200000000000001,2.7,-0.2,0.30000000000000004,0.2
1698921417.182,16,0.0,0.0,0.0,-0.4,9.200000000000001,2.7,0.0,0.30000000000000004,0.2
1698921417.199,16,0.0,0.0,0.0,-0.4,9.200000000000001,2.7,-0.2,0.30000000000000004,0.2
1698921417.216,16,0.0,0.0,0.0,-0.4,9.200000000000001,2.7,0.0,0.0,0.2
1698921417.233,16,0.0,0.0,0.0,-0.4,9.200000000000001,2.7,0.0,-0.1,0.2
1698921417.249,16,0.0,0.0,0.0,-0.4,9.200000000000001,2.7,0.0,0.0,0.1
1698921417.266,16,0.0,0.0,0.0,-0.4,9.200000000000001,2.7,0.0,0.1,0.2
1698921417.282,16,0.0,0.0,0.0,-0.4,9.200000000000001,2.7,-0.2,-0.1,0.1
1698921417.299,16,0.0,0.0,0.0,-0.4,9.1,2.7,-0.2,-0.30000000000000004,-0.1
1698921417.315,16,0.0,0.0,0.0,-0.4,9.200000000000001,2.7,-0.2,-0.2,-0.30000000000000004
1698921417.332,16,0.0,0.0,0.0,-0.4,9.200000000000001,2.7,-0.1,0.0,-0.2
1698921417.349,16,0.0,0.0,0.0,-0.4,9.200000000000001,2.7,0.0,0.0,-0.30000000000000004
1698921417.365,16,0.0,0.0,0.0,-0.4,9.200000000000001,2.7,0.0,0.2,-0.1
1698921417.382,16,0.0,0.0,0.0,-0.4,9.200000000000001,2.7,-0.2,0.2,0.0
1698921417.399,16,0.0,0.0,0.0,-0.4,9.200000000000001,2.7,-0.30000000000000004,-0.1,0.2
1698921417.415,16,0.0,0.0,0.0,-0.4,9.200000000000001,2.7,-0.4,-0.30000000000000004,0.2
1698921417.432,16,0.0,0.0,0.0,-0.4,9.200000000000001,2.7,-0.2,-0.2,0.1
1698921417.449,16,0.0,0.0,0.0,-0.4,9.1,2.7,-0.1,-0.2,0.1
1698921417.466,16,0.0,0.0,0.0,-0.4,9.1,2.7,-0.1,-0.2,0.1
1698921417.482,16,0.0,0.0,0.0,-0.4,9.1,2.7,0.0,0.0,0.0
1698921417.499,16,0.0,0.0,0.0,-0.4,9.200000000000001,2.7,0.2,0.2,-0.2
1698921417.516,16,0.0,0.0,0.0,-0.4,9.1,2.7,0.30000000000000004,0.2,0.0
1698921417.533,16,0.0,0.0,0.0,-0.4,9.1,2.7,0.1,0.2,-0.1
1698921417.549,16,0.0,0.0,0.0,-0.4,9.200000000000001,2.7,0.1,0.2,0.0
1698921417.565,16,0.0,0.0,0.0,-0.4,9.200000000000001,2.7,0.1,0.0,0.1
1698921417.582,16,0.0,0.0,0.0,-0.4,9.200000000000001,2.7,0.1,-0.1,0.1
1698921417.599,16,0.0,0.0,0.0,-0.4,9.200000000000001,2.7,0.0,-0.1,-0.1
1698921417.616,16,0.0,0.0,0.0,-0.4,9.1,2.7,0.0,0.2,-0.1
1698921417.632,16,0.0,0.0,0.0,-0.4,9.200000000000001,2.7,0.0,0.1,0.0
1698921417.649,16,0.0,0.0,0.0,-0.4,9.1,2.7,0.1,0.30000000000000004,0.2
1698921417.666,16,0.0,0.0,0.0,-0.4,9.200000000000001,2.7,0.1,0.2,0.30000000000000004
1698921417.683,16,0.0,0.0,0.0,-0.4,9.200000000000001,2.7,0.0,0.2,0.2
1698921417.699,16,0.0,0.0,0.0,-0.4,9.200000000000001,2.7,0.0,0.30000000000000004,0.2
1698921417.716,16,0.0,0.0,0.0,-0.4,9.1,2.7,0.0,0.30000000000000004,0.1
1698921417.732,16,0.0,0.0,0.0,-0.4,9.200000000000001,2.7,-0.1,0.30000000000000004,0.1
1698921417.75,16,0.0,0.0,0.0,-0.4,9.200000000000001,2.7,0.0,0.4,0.1
1698921417.766,16,0.0,0.0,0.0,-0.4,9.200000000000001,2.7,0.0,0.30000000000000004,0.1
1698921417.783,16,0.0,0.0,0.0,-0.4,9.200000000000001,2.7,0.0,0.2,-0.1
1698921417.8,16,0.0,0.0,0.0,-0.4,9.200000000000001,2.7,0.0,0.2,0.1
1698921417.817,16,0.0,0.0,0.0,-0.4,9.200000000000001,2.7,0.0,0.1,0.1
1698921417.832,16,0.0,0.0,0.0,-0.4,9.200000000000001,2.7,-0.2,0.0,0.1
1698921417.849,16,0.0,0.0,0.0,-0.4,9.200000000000001,2.7,0.0,0.2,0.2
1698921417.866,16,0.0,0.0,0.0,-0.4,9.200000000000001,2.7,0.0,0.2,0.1
1698921417.882,16,0.0,0.0,0.0,-0.4,9.200000000000001,2.7,0.1,0.2,0.1
1698921417.899,16,0.0,0.0,0.0,-0.4,9.200000000000001,2.7,0.30000000000000004,0.30000000000000004,0.1
1698921417.916,16,0.0,0.0,0.0,-0.4,9.200000000000001,2.7,0.30000000000000004,0.30000000000000004,0.2
1698921417.932,16,0.0,0.0,0.0,-0.4,9.1,2.7,0.0,0.4,0.2
1698921417.95,16,0.0,0.0,0.0,-0.4,9.200000000000001,2.7,0.0,0.2,0.2
1698921417.966,16,0.0,0.0,0.0,-0.4,9.1,2.7,0.0,0.2,0.30000000000000004
1698921417.982,16,0.0,0.0,0.0,-0.4,9.200000000000001,2.7,0.0,0.2,0.4
1698921417.999,16,0.0,0.0,0.0,-0.4,9.200000000000001,2.7,0.0,0.0,0.2
1698921418.016,16,0.0,0.0,0.0,-0.4,9.1,2.7,0.0,0.1,0.2
1698921418.032,16,0.0,0.0,0.0,-0.4,9.1,2.7,0.1,0.2,0.2
1698921418.049,16,0.0,0.0,0.0,-0.4,9.200000000000001,2.7,0.1,0.30000000000000004,0.30000000000000004
1698921418.066,16,0.0,0.0,0.0,-0.4,9.200000000000001,2.7,0.2,0.0,0.30000000000000004
1698921418.082,16,0.0,0.0,0.0,-0.4,9.200000000000001,2.7,0.1,0.1,0.2
1698921418.1,16,0.0,0.0,0.0,-0.4,9.200000000000001,2.7,0.1,0.0,-0.1
1698921418.116,16,0.0,0.0,0.0,-0.4,9.200000000000001,2.7,0.1,0.30000000000000004,0.0
1698921418.133,16,0.0,0.0,0.0,-0.4,9.200000000000001,2.7,0.30000000000000004,0.4,0.2
1698921418.149,16,0.0,0.0,0.0,-0.4,9.200000000000001,2.7,0.0,0.30000000000000004,0.2
1698921418.166,16,0.0,0.0,0.0,-0.4,9.200000000000001,2.7,-0.2,0.30000000000000004,0.2
1698921418.183,16,0.0,0.0,0.0,-0.4,9.200000000000001,2.7,-0.1,0.1,0.30000000000000004
1698921418.199,16,0.0,0.0,0.0,-0.4,9.200000000000001,2.7,-0.2,-0.1,0.30000000000000004
1698921418.215,16,0.0,0.0,0.0,-0.4,9.200000000000001,2.7,-0.30000000000000004,-0.2,0.2
1698921418.236,16,0.0,0.0,0.0,-0.4,9.200000000000001,2.7,-0.2,-0.30000000000000004,0.2
1698921418.25,16,0.0,0.0,0.0,-0.4,9.1,2.7,-0.2,-0.1,0.1
1698921418.266,16,0.0,0.0,0.0,-0.4,9.1,2.7,0.0,0.0,-0.1
1698921418.283,16,0.0,0.0,0.0,-0.4,9.200000000000001,2.7,0.1,0.1,-0.1
1698921418.302,16,0.0,0.0,0.0,-0.4,9.200000000000001,2.7,0.1,0.0,-0.1
1698921418.316,16,0.0,0.0,0.0,-0.4,9.200000000000001,2.7,0.0,-0.1,0.0
1698921418.335,16,0.0,0.0,0.0,-0.4,9.200000000000001,2.7,0.0,-0.2,0.0
1698921418.349,16,0.0,0.0,0.0,-0.4,9.200000000000001,2.7,0.1,-0.2,0.1
1698921418.366,16,0.0,0.0,0.0,-0.4,9.200000000000001,2.7,0.2,-0.2,0.0
1698921418.383,16,0.0,0.0,0.0,-0.4,9.200000000000001,2.6,0.0,-0.2,-0.2
1698921418.4,16,0.0,0.0,0.0,-0.4,9.200000000000001,2.7,0.1,0.0,-0.1
1698921418.417,16,0.0,0.0,0.0,-0.4,9.200000000000001,2.7,0.1,0.2,-0.1
1698921418.433,16,0.0,0.0,0.0,-0.4,9.200000000000001,2.7,0.0,0.2,0.1
1698921418.449,16,0.0,0.0,0.0,-0.4,9.1,2.7,-0.1,-0.2,0.1
1698921418.467,16,0.0,0.0,0.0,-0.4,9.1,2.7,0.1,0.2,0.1
1698921418.484,16,0.0,0.0,0.0,-0.4,9.200000000000001,2.7,0.1,0.1,0.1
1698921418.499,16,0.0,0.0,0.0,-0.4,9.200000000000001,2.7,0.2,0.2,0.1
1698921418.516,16,0.0,0.0,0.0,-0.4,9.200000000000001,2.7,0.1,0.2,0.1
1698921418.533,16,0.0,0.0,0.0,-0.4,9.1,2.7,-0.1,0.1,0.1
1698921418.55,16,0.0,0.0,0.0,-0.4,9.200000000000001,2.7,-0.2,0.1,0.0
1698921418.566,16,0.0,0.0,0.0,-0.4,9.200000000000001,2.7,0.0,0.0,0.1
1698921418.582,16,0.0,0.0,0.0,-0.4,9.200000000000001,2.7,0.0,0.2,0.0
1698921418.6,16,0.0,0.0,0.0,-0.4,9.200000000000001,2.7,0.0,0.30000000000000004,0.1
1698921418.616,16,0.0,0.0,0.0,-0.4,9.200000000000001,2.7,-0.2,0.4,0.0
1698921418.634,16,0.0,0.0,0.0,-0.4,9.200000000000001,2.6,-0.30000000000000004,0.5,0.1
1698921418.649,16,0.0,0.0,0.0,-0.4,9.200000000000001,2.6,-0.30000000000000004,0.6000000000000001,0.1
1698921418.666,16,0.0,0.0,0.0,-0.4,9.200000000000001,2.6,-1.2000000000000002,1.6,0.2
1698921418.683,16,0.0,0.0,0.0,-0.4,9.200000000000001,2.7,-1.5000000000000002,1.9,0.4
1698921418.7,16,0.0,0.0,0.0,-0.4,9.200000000000001,2.7,-1.2000000000000002,1.2000000000000002,0.4
1698921418.717,16,0.0,0.0,0.0,-0.4,9.1,2.7,-0.8,0.8,0.4
1698921418.733,16,0.0,0.0,0.0,-0.4,9.1,2.7,-0.6000000000000001,0.6000000000000001,0.4
1698921418.749,16,0.0,0.0,0.0,-0.4,9.200000000000001,2.7,-0.6000000000000001,0.30000000000000004,0.4
1698921418.766,16,0.0,0.0,0.0,-0.4,9.200000000000001,2.6,-0.5,-0.1,0.4
1698921418.789,16,0.0,0.0,0.0,-0.4,9.1,2.7,-0.5,-0.30000000000000004,0.4
1698921418.799,16,0.0,0.0,0.0,-0.4,9.200000000000001,2.7,-0.4,-0.5,0.2
1698921418.816,16,0.0,0.0,0.0,-0.4,9.200000000000001,2.7,-0.30000000000000004,-0.5,0.0
1698921418.832,16,0.0,0.0,0.0,-0.4,9.200000000000001,2.7,-0.2,-0.7,-0.1
1698921418.849,16,0.0,0.0,0.0,-0.4,9.200000000000001,2.7,-0.2,-0.8,-0.1
1698921418.865,16,0.0,0.0,0.0,-0.4,9.200000000000001,2.7,0.0,-0.7,-0.1
1698921418.882,16,0.0,0.0,0.0,-0.4,9.200000000000001,2.7,-0.4,-1.0999999999999999,-0.30000000000000004
1698921418.9,16,0.0,0.0,0.0,-0.4,9.1,2.7,-0.4,-1.2000000000000002,-0.30000000000000004
1698921418.916,16,0.0,0.0,0.0,-0.4,9.1,2.7,-0.1,-0.8,-0.4
1698921418.932,16,0.0,0.0,0.0,-0.4,9.1,2.7,0.4,-0.5,-0.30000000000000004
1698921418.95,16,0.0,0.0,0.0,-0.4,9.200000000000001,2.7,0.5,-0.7,-0.4
1698921418.966,16,0.0,0.0,0.0,-0.4,9.200000000000001,2.7,0.30000000000000004,-0.5,-0.6000000000000001
1698921418.982,16,0.0,0.0,0.0,-0.4,9.200000000000001,2.7,0.1,-0.6000000000000001,-0.30000000000000004
1698921418.999,16,0.0,0.0,0.0,-0.4,9.1,2.7,-0.1,-0.5,-0.30000000000000004
1698921419.015,16,0.0,0.0,0.0,-0.4,9.200000000000001,2.7,-0.2,-0.6000000000000001,-0.30000000000000004
1698921419.032,16,0.0,0.0,0.0,-0.4,9.1,2.7,-0.2,-0.5,-0.1
1698921419.049,16,0.0,0.0,0.0,-0.4,9.1,2.7,0.0,-0.4,-0.1
1698921419.067,16,0.0,0.0,0.0,-0.4,9.200000000000001,2.7,0.0,-0.30000000000000004,-0.1
1698921419.082,16,0.0,0.0,0.0,-0.4,9.200000000000001,2.7,0.1,-0.4,-0.30000000000000004
1698921419.098,16,0.0,0.0,0.0,-0.4,9.200000000000001,2.7,0.0,-0.30000000000000004,-0.30000000000000004
1698921419.116,16,0.0,0.0,0.0,-0.4,9.200000000000001,2.7,0.0,-0.1,-0.2
1698921419.132,16,0.0,0.0,0.0,-0.4,9.1,2.7,-0.1,0.0,0.0
1698921419.149,16,0.0,0.0,0.0,-0.4,9.1,2.7,-0.1,0.0,0.2
1698921419.166,16,0.0,0.0,0.0,-0.4,9.1,2.7,0.0,-0.1,0.2
1698921419.182,16,0.0,0.0,0.0,-0.4,9.1,2.7,0.1,-0.4,0.0
1698921419.199,16,0.0,0.0,0.0,-0.4,9.200000000000001,2.7,0.1,0.2,-0.1
1698921419.216,16,0.0,0.0,0.0,-0.4,9.200000000000001,2.7,0.30000000000000004,0.30000000000000004,-0.1
1698921419.232,16,0.0,0.0,0.0,-0.4,9.200000000000001,2.7,0.0,0.4,0.30000000000000004
1698921419.249,16,0.0,0.0,0.0,-0.4,9.200000000000001,2.7,-0.2,0.4,0.4
1698921419.266,16,0.0,0.0,0.0,-0.4,9.200000000000001,2.7,-0.1,0.30000000000000004,0.4
1698921419.282,16,0.0,0.0,0.0,-0.4,9.1,2.7,-0.30000000000000004,0.2,0.2
1698921419.299,16,0.0,0.0,0.0,-0.4,9.1,2.7,-0.30000000000000004,0.1,0.1
1698921419.316,16,0.0,0.0,0.0,-0.4,9.200000000000001,2.7,-0.30000000000000004,0.0,0.1
1698921419.332,16,0.0,0.0,0.0,-0.4,9.1,2.7,-0.30000000000000004,0.2,-0.1
1698921419.35,16,0.0,0.0,0.0,-0.4,9.1,2.7,-0.4,0.2,-0.1
1698921419.366,16,0.0,0.0,0.0,-0.4,9.1,2.7,-0.2,0.1,-0.1
1698921419.382,16,0.0,0.0,0.0,-0.4,9.200000000000001,2.7,-0.1,0.30000000000000004,0.0
1698921419.399,16,0.0,0.0,0.0,-0.4,9.200000000000001,2.7,0.0,0.6000000000000001,0.0
1698921419.416,16,0.0,0.0,0.0,-0.4,9.1,2.7,0.0,0.6000000000000001,-0.1
1698921419.432,16,0.0,0.0,0.0,-0.4,9.1,2.7,0.1,0.5,0.0
1698921419.449,16,0.0,0.0,0.0,-0.4,9.200000000000001,2.7,0.1,0.5,0.1
1698921419.465,16,0.0,0.0,0.0,-0.4,9.200000000000001,2.7,0.1,0.4,0.1
1698921419.482,16,0.0,0.0,0.0,-0.4,9.200000000000001,2.7,0.0,0.5,0.4
1698921419.499,16,0.0,0.0,0.0,-0.4,9.1,2.7,0.0,0.7,0.4
1698921419.516,16,0.0,0.0,0.0,-0.4,9.200000000000001,2.7,0.0,0.7,0.5
1698921419.533,16,0.0,0.0,0.0,-0.4,9.1,2.7,0.0,0.9,0.5
1698921419.549,16,0.0,0.0,0.0,-0.4,9.200000000000001,2.7,0.2,0.7,0.5
1698921419.566,16,0.0,0.0,0.0,-0.4,9.200000000000001,2.7,0.2,0.4,0.4
1698921419.582,16,0.0,0.0,0.0,-0.4,9.200000000000001,2.7,0.2,0.5,0.30000000000000004
1698921419.599,16,0.0,0.0,0.0,-0.4,9.1,2.7,0.2,0.5,0.30000000000000004
1698921419.615,16,0.0,0.0,0.0,-0.4,9.1,2.7,0.30000000000000004,0.5,0.4
1698921419.633,16,0.0,0.0,0.0,-0.4,9.1,2.7,0.4,0.2,0.30000000000000004
1698921419.649,16,0.0,0.0,0.0,-0.4,9.200000000000001,2.7,0.8,0.2,0.2
1698921419.665,16,0.0,0.0,0.0,-0.4,9.200000000000001,2.7,0.8,0.2,0.1
1698921419.682,16,0.0,0.0,0.0,-0.4,9.200000000000001,2.7,0.5,-0.2,0.0
1698921419.699,16,0.0,0.0,0.0,-0.4,9.200000000000001,2.7,0.2,-0.4,0.0
1698921419.715,16,0.0,0.0,0.0,-0.4,9.200000000000001,2.7,-0.30000000000000004,-0.6000000000000001,-0.1
1698921419.732,16,0.0,0.0,0.0,-0.4,9.200000000000001,2.7,-0.5,-0.5,-0.30000000000000004
1698921419.748,16,0.0,0.0,0.0,-0.4,9.200000000000001,2.7,-0.6000000000000001,-0.30000000000000004,-0.4
1698921419.765,16,0.0,0.0,0.0,-0.4,9.1,2.7,-0.6000000000000001,-0.2,-0.30000000000000004
1698921419.782,16,0.0,0.0,0.0,-0.4,9.200000000000001,2.7,-0.8,-0.5,-0.2
1698921419.799,16,0.0,0.0,0.0,-0.4,9.200000000000001,2.7,-0.9,-0.1,-0.1
1698921419.815,16,0.0,0.0,0.0,-0.4,9.1,2.7,-0.6000000000000001,0.1,-0.2
1698921419.832,16,0.0,0.0,0.0,-0.4,9.1,2.7,-0.6000000000000001,0.0,-0.1
1698921419.849,16,0.0,0.0,0.0,-0.4,9.1,2.6,-0.4,0.0,0.0
1698921419.865,16,0.0,0.0,0.0,-0.4,9.200000000000001,2.7,-0.2,-0.1,-0.1
1698921419.882,16,0.0,0.0,0.0,-0.4,9.1,2.7,0.0,0.0,-0.1
1698921419.899,16,0.0,0.0,0.0,-0.4,9.200000000000001,2.7,0.1,-0.1,-0.4
1698921419.915,16,0.0,0.0,0.0,-0.4,9.200000000000001,2.7,0.2,0.2,-0.4
1698921419.932,16,0.0,0.0,0.0,-0.4,9.200000000000001,2.7,0.2,0.30000000000000004,-0.4
1698921419.949,16,0.0,0.0,0.0,-0.4,9.200000000000001,2.7,0.1,0.5,-0.30000000000000004
1698921419.965,16,0.0,0.0,0.0,-0.4,9.200000000000001,2.7,0.0,0.5,-0.2
1698921419.982,16,0.0,0.0,0.0,-0.4,9.200000000000001,2.7,0.1,0.30000000000000004,-0.1
1698921419.999,16,0.0,0.0,0.0,-0.4,9.1,2.7,0.30000000000000004,0.2,0.1
1698921420.016,16,0.0,0.0,0.0,-0.4,9.200000000000001,2.7,0.2,0.30000000000000004,-0.1
1698921420.033,16,0.0,0.0,0.0,-0.4,9.200000000000001,2.7,0.1,0.4,-0.2
1698921420.049,16,0.0,0.0,0.0,-0.4,9.200000000000001,2.7,0.4,0.7,-0.30000000000000004
1698921420.065,16,0.0,0.0,0.0,-0.4,9.200000000000001,2.7,0.30000000000000004,0.9,-0.2
1698921420.082,16,0.0,0.0,0.0,-0.4,9.200000000000001,2.7,0.1,0.8,0.0
1698921420.099,16,0.0,0.0,0.0,-0.4,9.1,2.7,0.1,0.6000000000000001,-0.1
1698921420.115,16,0.0,0.0,0.0,-0.4,9.1,2.7,0.30000000000000004,0.6000000000000001,-0.30000000000000004
1698921420.132,16,0.0,0.0,0.0,-0.4,9.1,2.7,0.4,0.6000000000000001,-0.30000000000000004
1698921420.149,16,0.0,0.0,0.0,-0.4,9.200000000000001,2.7,0.4,0.5,-0.30000000000000004
1698921420.165,16,0.0,0.0,0.0,-0.4,9.200000000000001,2.7,0.30000000000000004,0.5,-0.30000000000000004
1698921420.182,16,0.0,0.0,0.0,-0.4,9.200000000000001,2.7,0.30000000000000004,0.5,-0.5
1698921420.199,16,0.0,0.0,0.0,-0.4,9.200000000000001,2.7,0.30000000000000004,0.4,-0.4
1698921420.215,16,0.0,0.0,0.0,-0.4,9.200000000000001,2.7,0.30000000000000004,0.30000000000000004,-0.6000000000000001
1698921420.232,16,0.0,0.0,0.0,-0.4,9.200000000000001,2.7,0.30000000000000004,0.4,-0.5
1698921420.249,16,0.0,0.0,0.0,-0.4,9.200000000000001,2.7,0.1,0.5,-0.30000000000000004
1698921420.265,16,0.0,0.0,0.0,-0.4,9.200000000000001,2.7,0.0,0.5,-0.1
1698921420.282,16,0.0,0.0,0.0,-0.4,9.200000000000001,2.7,0.0,0.5,-0.1
1698921420.299,16,0.0,0.0,0.0,-0.4,9.200000000000001,2.7,-0.2,0.5,-0.1
1698921420.315,16,0.0,0.0,0.0,-0.4,9.200000000000001,2.7,-0.2,0.6000000000000001,0.0
1698921420.332,16,0.0,0.0,0.0,-0.4,9.1,2.7,-0.2,0.8,0.0
1698921420.349,16,0.0,0.0,0.0,-0.4,9.200000000000001,2.7,-0.2,0.8,-0.1
1698921420.366,16,0.0,0.0,0.0,-0.4,9.200000000000001,2.7,-0.4,0.7,0.0
1698921420.382,16,0.0,0.0,0.0,-0.4,9.1,2.7,-0.30000000000000004,0.6000000000000001,-0.1
1698921420.399,16,0.0,0.0,0.0,-0.4,9.200000000000001,2.7,-0.2,0.5,-0.2
1698921420.416,16,0.0,0.0,0.0,-0.5,9.200000000000001,2.7,-0.30000000000000004,0.4,-0.30000000000000004
1698921420.432,16,0.0,0.0,0.0,-0.4,9.200000000000001,2.7,-0.30000000000000004,0.2,-0.4
1698921420.449,16,0.0,0.0,0.0,-0.5,9.200000000000001,2.7,-0.30000000000000004,0.30000000000000004,-0.30000000000000004
1698921420.465,16,0.0,0.0,0.0,-0.5,9.200000000000001,2.6,-0.5,0.2,-0.4
1698921420.482,16,0.0,0.0,0.0,-0.5,9.200000000000001,2.6,-0.5,0.0,-0.30000000000000004
1698921420.499,16,0.0,0.0,0.0,-0.4,9.1,2.7,-0.4,0.2,-0.30000000000000004
1698921420.516,16,0.0,0.0,0.0,-0.4,9.200000000000001,2.7,-0.2,0.0,-0.30000000000000004
1698921420.532,16,0.0,0.0,0.0,-0.4,9.200000000000001,2.7,-0.30000000000000004,0.30000000000000004,-0.1
1698921420.55,16,0.0,0.0,0.0,-0.4,9.200000000000001,2.6,-0.30000000000000004,0.30000000000000004,0.0
1698921420.566,16,0.0,0.0,0.0,-0.4,9.200000000000001,2.6,-1.0,0.9,0.1
1698921420.582,16,0.0,0.0,0.0,-0.4,9.200000000000001,2.7,-1.7,1.8,0.5
1698921420.599,16,0.0,0.0,-0.1,-0.4,9.200000000000001,2.6,-2.1,2.5,0.9
1698921420.616,16,0.0,0.0,0.0,-0.4,9.1,2.7,-2.3000000000000003,3.0000000000000004,1.2000000000000002
1698921420.632,16,0.0,0.0,0.0,-0.4,9.200000000000001,2.7,-2.4000000000000004,3.1,1.2000000000000002
1698921420.649,16,0.0,0.0,0.0,-0.4,9.200000000000001,2.7,-2.8,3.4,1.2000000000000002
1698921420.666,16,0.0,0.0,0.0,-0.4,9.1,2.7,-2.8,3.9,1.4
1698921420.682,16,0.0,0.0,0.0,-0.5,9.1,2.7,-2.8,3.9,1.6
1698921420.699,16,0.0,0.0,0.0,-0.5,9.1,2.7,-3.3000000000000003,3.4,1.4
1698921420.716,16,0.0,0.0,0.1,-0.4,9.1,2.8000000000000003,-3.3000000000000003,2.6,1.0
1698921420.732,16,0.0,0.0,0.0,-0.4,9.1,2.8000000000000003,-2.5,2.1999999999999997,0.8
1698921420.749,16,0.0,0.0,0.0,-0.4,9.1,2.8000000000000003,-2.1,2.1,0.8
1698921420.766,16,0.0,0.0,0.0,-0.4,9.1,2.8000000000000003,-1.7,2.1999999999999997,0.8
1698921420.782,16,0.0,0.0,-0.1,-0.4,9.200000000000001,2.7,-1.9,2.7,0.7
1698921420.8,16,0.0,0.1,-0.1,-0.4,9.200000000000001,2.7,-2.6,2.1999999999999997,0.6000000000000001
1698921420.816,16,0.0,0.1,-0.1,-0.4,9.200000000000001,2.7,-3.2,1.8,0.4
1698921420.834,16,0.0,0.0,0.0,-0.5,9.200000000000001,2.8000000000000003,-3.0000000000000004,1.7,0.4
1698921420.849,16,0.0,0.0,0.0,-0.5,9.1,2.8000000000000003,-2.6,1.9,0.5
1698921420.866,16,0.0,0.0,0.0,-0.5,9.1,2.8000000000000003,-2.0,1.8,0.4
1698921420.882,16,0.0,-0.1,0.0,-0.5,9.1,2.8000000000000003,-1.7,1.4,-0.30000000000000004
1698921420.899,16,0.0,-0.1,0.0,-0.4,9.1,2.8000000000000003,-1.4,1.4,-0.30000000000000004
1698921420.916,16,0.0,-0.1,0.0,-0.5,9.1,2.8000000000000003,-0.5,1.3,-0.2
1698921420.933,16,0.0,0.0,0.0,-0.5,9.1,2.8000000000000003,0.0,1.0,0.0
1698921420.949,16,0.0,0.0,0.0,-0.5,9.1,2.8000000000000003,0.1,0.8,0.1
1698921420.966,16,0.0,0.0,0.0,-0.4,9.200000000000001,2.8000000000000003,0.0,0.9,0.1
1698921420.982,16,0.0,0.0,0.0,-0.5,9.200000000000001,2.8000000000000003,0.0,0.5,0.5
1698921420.999,16,0.0,0.0,0.0,-0.5,9.200000000000001,2.8000000000000003,0.0,0.30000000000000004,0.2
1698921421.016,16,0.0,0.0,0.0,-0.5,9.1,2.9000000000000004,-0.4,-0.1,-0.6000000000000001
1698921421.032,16,0.0,0.0,0.0,-0.4,9.1,2.8000000000000003,-0.6000000000000001,0.30000000000000004,-0.5
1698921421.049,16,0.0,0.0,0.0,-0.4,9.1,2.8000000000000003,-0.6000000000000001,0.30000000000000004,-0.8
1698921421.066,16,0.0,0.0,0.0,-0.4,9.1,2.8000000000000003,-0.2,0.30000000000000004,-0.8
1698921421.083,16,0.1,0.0,0.0,-0.4,9.1,2.8000000000000003,0.0,0.0,-0.6000000000000001
1698921421.099,16,0.0,0.0,0.0,-0.4,9.1,2.9000000000000004,-0.1,-0.7,0.6000000000000001
1698921421.116,16,-0.1,0.0,0.0,-0.5,9.1,2.8000000000000003,-0.2,0.6000000000000001,0.7
1698921421.134,16,0.0,0.0,0.0,-0.4,9.1,2.8000000000000003,-0.5,0.5,-0.1
1698921421.149,16,0.0,0.0,0.0,-0.4,9.1,2.9000000000000004,-0.6000000000000001,0.30000000000000004,-0.1
1698921421.166,16,0.0,0.0,0.0,-0.4,9.1,2.8000000000000003,-0.6000000000000001,0.6000000000000001,0.1
1698921421.182,16,0.0,0.0,0.0,-0.5,9.1,2.9000000000000004,-0.4,0.2,-0.1
1698921421.199,16,0.0,0.0,0.0,-0.5,9.1,2.9000000000000004,-0.5,0.30000000000000004,0.4
1698921421.215,16,0.0,0.0,0.0,-0.4,9.1,2.8000000000000003,-0.6000000000000001,0.4,0.4
1698921421.233,16,0.1,0.0,0.0,-0.4,9.200000000000001,2.8000000000000003,-0.6000000000000001,0.30000000000000004,0.8
1698921421.249,16,-0.1,0.0,0.0,-0.5,9.1,2.8000000000000003,-0.9,0.30000000000000004,1.2000000000000002
1698921421.265,16,-0.1,0.0,0.0,-0.5,9.1,2.8000000000000003,-1.0999999999999999,0.6000000000000001,0.7
1698921421.282,16,0.0,0.0,0.0,-0.5,9.200000000000001,2.8000000000000003,-1.6,0.0,-0.1
1698921421.299,16,0.0,0.0,0.0,-0.4,9.1,2.8000000000000003,-1.7,0.0,0.2
1698921421.317,16,0.0,0.0,0.0,-0.4,9.1,2.9000000000000004,-1.3,0.1,0.2
1698921421.332,16,0.0,0.0,0.0,-0.4,9.1,2.8000000000000003,-1.3,0.0,0.2
1698921421.348,16,0.0,0.1,0.0,-0.4,9.200000000000001,2.9000000000000004,-1.6,0.0,0.4
1698921421.366,16,0.1,0.1,-0.1,-0.4,9.3,2.8000000000000003,-1.9,-0.2,0.8
1698921421.382,16,0.0,0.0,0.0,-0.5,9.200000000000001,2.8000000000000003,-2.5,-0.30000000000000004,1.3
1698921421.399,16,0.0,-0.1,0.0,-0.5,9.1,2.8000000000000003,-2.7,0.2,1.0
1698921421.416,16,-0.1,-0.1,-0.1,-0.5,9.0,2.8000000000000003,-2.4000000000000004,-0.4,0.0
1698921421.432,16,0.0,0.0,0.0,-0.4,9.1,2.8000000000000003,-2.4000000000000004,-0.8,-0.30000000000000004
1698921421.449,16,0.0,-0.1,0.0,-0.4,9.0,2.8000000000000003,-2.1,-0.8,-0.4
1698921421.466,16,0.0,-0.1,0.0,-0.4,9.0,2.9000000000000004,-1.4,-1.3,-1.0
1698921421.482,16,0.1,0.0,0.0,-0.4,9.1,2.9000000000000004,-0.30000000000000004,-2.5,-0.30000000000000004
1698921421.499,16,0.0,-0.2,0.0,-0.5,8.9,2.9000000000000004,0.6000000000000001,-2.3000000000000003,0.4
1698921421.515,16,0.0,0.0,0.0,-0.4,9.0,2.9000000000000004,1.0,-3.1,0.2
1698921421.533,16,0.1,0.0,-0.1,-0.30000000000000004,9.1,2.8000000000000003,1.6,-2.6,1.3
1698921421.549,16,0.2,-0.1,0.1,-0.2,9.0,2.9000000000000004,2.5,-1.3,1.8
1698921421.566,16,0.2,-0.1,0.1,-0.2,9.0,3.0,3.5,-0.9,2.1
1698921421.582,16,0.2,-0.1,0.2,-0.2,9.0,3.0,4.1000000000000005,0.9,2.5
1698921421.599,16,0.2,-0.1,0.2,-0.2,9.0,3.1,4.5,1.7,2.8
1698921421.615,16,0.2,0.0,0.1,-0.2,9.1,3.0,5.0,2.1999999999999997,3.3000000000000003
1698921421.632,16,0.2,0.0,0.1,-0.2,9.1,2.9000000000000004,4.3999999999999995,2.6,3.5
1698921421.649,16,0.2,0.1,0.0,-0.1,9.200000000000001,2.9000000000000004,4.1000000000000005,3.4,3.5
1698921421.665,16,0.2,0.1,0.0,-0.1,9.200000000000001,2.9000000000000004,3.6,4.2,3.6
1698921421.682,16,0.2,0.2,0.1,-0.1,9.3,2.9000000000000004,2.1,5.2,4.6000000000000005
1698921421.699,16,0.1,0.1,0.1,-0.2,9.200000000000001,3.0,1.0999999999999999,5.300000000000001,5.0
1698921421.715,16,0.1,0.1,0.1,-0.2,9.200000000000001,3.0,-1.0999999999999999,5.300000000000001,5.2
1698921421.732,16,0.1,0.2,0.2,-0.2,9.3,3.0,-3.4,5.6,5.2
1698921421.749,16,0.0,0.30000000000000004,0.2,-0.2,9.4,3.1,-5.1,5.8,4.1000000000000005
1698921421.765,16,0.1,0.2,0.1,-0.2,9.4,3.0,-6.5,7.8,3.8
1698921421.782,16,0.0,0.2,0.1,-0.2,9.3,3.0,-7.500000000000001,8.600000000000001,4.2
1698921421.799,16,-0.1,0.1,0.0,-0.30000000000000004,9.200000000000001,3.0,-9.600000000000001,8.1,5.1
1698921421.816,16,-0.2,0.0,0.0,-0.5,9.1,2.9000000000000004,-10.1,7.9,5.4
1698921421.832,16,-0.30000000000000004,-0.1,-0.1,-0.5,9.1,2.9000000000000004,-10.3,7.500000000000001,5.6
1698921421.849,16,-0.30000000000000004,0.0,-0.1,-0.5,9.1,2.9000000000000004,-9.8,6.9,4.9
1698921421.866,16,-0.30000000000000004,0.0,-0.2,-0.5,9.1,2.9000000000000004,-9.8,6.4,4.300000000000001
1698921421.882,16,-0.2,-0.1,-0.1,-0.4,9.0,2.9000000000000004,-9.5,4.3999999999999995,3.0000000000000004
1698921421.899,16,-0.2,-0.1,-0.1,-0.4,9.0,3.0,-8.799999999999999,2.8,2.4000000000000004
1698921421.916,16,-0.2,0.0,-0.1,-0.4,9.1,3.0,-8.9,2.6,2.7
1698921421.932,16,-0.2,0.0,-0.2,-0.4,9.1,3.0,-9.1,2.9,3.0000000000000004
1698921421.949,16,-0.2,0.0,-0.2,-0.4,9.1,3.0,-9.4,2.1,2.9
1698921421.965,16,-0.2,0.0,-0.2,-0.5,9.0,3.0,-9.0,0.7,2.1
1698921421.982,16,-0.2,-0.1,-0.2,-0.5,9.0,2.9000000000000004,-8.600000000000001,-0.1,1.5000000000000002
1698921421.999,16,-0.1,-0.1,-0.2,-0.4,8.9,3.0,-7.699999999999999,-1.2000000000000002,0.7
1698921422.015,16,-0.1,-0.2,-0.2,-0.30000000000000004,8.9,3.0,-6.5,-1.6,0.30000000000000004
1698921422.033,16,0.0,-0.1,-0.2,-0.30000000000000004,8.9,3.0,-5.8,-1.7,0.5
1698921422.049,16,0.0,-0.1,-0.2,-0.30000000000000004,8.9,3.0,-4.3999999999999995,-1.4,1.2000000000000002
1698921422.066,16,-0.1,-0.1,-0.1,-0.30000000000000004,8.9,3.0,-3.0000000000000004,-0.8,1.0999999999999999
1698921422.083,16,-0.1,0.0,-0.1,-0.30000000000000004,8.9,3.1,-2.7,-0.7,0.9
1698921422.099,16,-0.1,0.0,-0.2,-0.30000000000000004,9.0,3.0,-1.9,-0.30000000000000004,0.7
1698921422.115,16,0.0,0.0,-0.1,-0.30000000000000004,9.0,3.1,-1.5000000000000002,-0.30000000000000004,0.4
1698921422.133,16,0.0,0.0,-0.1,-0.30000000000000004,9.0,3.1,-1.2000000000000002,0.30000000000000004,0.2
1698921422.149,16,-0.1,0.0,-0.1,-0.30000000000000004,9.0,3.1,-0.9,2.3000000000000003,0.0
1698921422.165,16,-0.1,0.1,-0.1,-0.4,9.200000000000001,3.1,-1.3,3.4,-0.1
1698921422.182,16,-0.1,0.30000000000000004,-0.1,-0.4,9.200000000000001,3.1,-2.7,6.000000000000001,0.30000000000000004
1698921422.199,16,0.0,0.0,0.0,-0.30000000000000004,9.0,3.2,-2.5,7.6,-0.30000000000000004
1698921422.215,16,0.0,0.0,0.0,-0.30000000000000004,9.0,3.2,-1.4,8.3,-2.9
1698921422.232,16,-0.1,0.1,0.0,-0.4,9.1,3.2,-1.4,8.200000000000001,-4.5
1698921422.249,16,-0.1,0.1,0.0,-0.5,9.0,3.2,-1.5000000000000002,7.2,-6.1000000000000005
1698921422.265,16,0.0,0.2,0.1,-0.4,9.200000000000001,3.3000000000000003,-2.3000000000000003,5.300000000000001,-6.4
1698921422.282,16,-0.1,0.2,0.2,-0.5,9.200000000000001,3.4000000000000004,-2.4000000000000004,5.300000000000001,-6.7
1698921422.299,16,-0.30000000000000004,0.1,0.30000000000000004,-0.7000000000000001,9.1,3.6,-2.3000000000000003,7.6,-6.5
1698921422.315,16,-0.30000000000000004,0.2,0.5,-0.8,9.200000000000001,3.7,-2.1,8.799999999999999,-7.400000000000001
1698921422.332,16,-0.4,0.2,0.4,-0.9,9.200000000000001,3.7,-1.4,9.1,-8.1
1698921422.349,16,-0.5,-0.1,0.30000000000000004,-1.0,8.9,3.5,-1.0,9.9,-8.4
1698921422.365,16,-0.5,-0.30000000000000004,0.2,-1.1,8.700000000000001,3.4000000000000004,0.6000000000000001,8.600000000000001,-7.8
1698921422.382,16,-0.6000000000000001,-0.30000000000000004,0.1,-1.1,8.700000000000001,3.4000000000000004,1.0999999999999999,8.0,-7.0
1698921422.399,16,-0.6000000000000001,-0.1,-0.1,-1.2000000000000002,8.9,3.2,0.9,6.1000000000000005,-4.6000000000000005
1698921422.416,16,-0.6000000000000001,0.0,-0.30000000000000004,-1.2000000000000002,9.0,3.0,-1.2000000000000002,5.0,-2.1999999999999997
1698921422.432,16,-0.6000000000000001,0.0,-0.2,-1.3,9.0,3.0,-2.7,5.1,-0.9
1698921422.449,16,-0.6000000000000001,0.0,-0.1,-1.3,9.0,3.2,-3.6,3.6,0.5
1698921422.466,16,-0.6000000000000001,-0.2,-0.2,-1.2000000000000002,8.8,3.1,-2.7,-0.1,-2.4000000000000004
1698921422.483,16,-0.6000000000000001,-0.2,-0.2,-1.3,8.700000000000001,3.0,-2.1999999999999997,-1.9,-4.300000000000001
1698921422.499,16,-0.4,-0.2,-0.1,-1.0,8.8,3.2,-2.1999999999999997,-6.4,-5.6
1698921422.516,16,-0.30000000000000004,0.0,0.1,-0.9,9.0,3.4000000000000004,-2.1999999999999997,-9.3,-3.5
1698921422.532,16,-0.2,0.0,0.1,-0.9,9.0,3.4000000000000004,-2.7,-10.2,-3.7000000000000006
1698921422.549,16,-0.2,0.0,0.1,-0.8,8.9,3.4000000000000004,-3.0000000000000004,-9.9,-4.2
1698921422.566,16,0.2,-0.1,0.1,-0.5,8.8,3.4000000000000004,-1.8,-7.400000000000001,-3.0000000000000004
1698921422.582,16,0.2,-0.1,-0.1,-0.5,8.9,3.2,-0.6000000000000001,-6.9,-2.1999999999999997
1698921422.599,16,0.30000000000000004,-0.1,0.0,-0.4,8.8,3.3000000000000003,1.0,-5.6,-1.5000000000000002
1698921422.616,16,0.4,-0.1,0.0,-0.30000000000000004,8.9,3.3000000000000003,2.1999999999999997,-4.7,-1.2000000000000002
1698921422.632,16,0.30000000000000004,-0.2,-0.1,-0.30000000000000004,8.8,3.2,2.0,-3.5,-0.9
1698921422.649,16,0.30000000000000004,-0.2,-0.1,-0.4,8.8,3.2,1.4,-2.3000000000000003,-0.30000000000000004
1698921422.665,16,0.2,-0.1,-0.2,-0.5,8.8,3.1,1.7,-1.9,0.4
1698921422.682,16,0.2,-0.1,-0.1,-0.4,8.9,3.3000000000000003,2.0,-1.8,0.5
1698921422.699,16,0.2,0.0,-0.1,-0.4,8.9,3.2,2.6,-2.7,-0.2
1698921422.716,16,0.2,0.0,-0.1,-0.5,9.0,3.2,2.3000000000000003,-2.9,-1.7
1698921422.732,16,0.1,0.0,-0.1,-0.5,9.0,3.1,2.7,-4.5,-1.4
1698921422.749,16,0.1,0.0,-0.1,-0.5,9.0,3.1,3.0000000000000004,-5.500000000000001,-1.2000000000000002
1698921422.765,16,0.1,0.0,0.0,-0.5,9.0,3.2,2.6,-6.9,-1.2000000000000002
1698921422.782,16,0.1,0.1,0.0,-0.5,9.1,3.2,2.8,-7.300000000000001,-2.0
1698921422.8,16,0.1,0.0,0.0,-0.4,9.0,3.2,3.0000000000000004,-7.2,-2.6
1698921422.816,16,0.2,-0.1,0.0,-0.4,8.9,3.2,2.9,-6.8,-3.4
1698921422.832,16,0.1,0.0,0.0,-0.5,8.9,3.2,2.0,-6.5,-3.5
1698921422.849,16,0.1,0.0,-0.1,-0.5,9.0,3.1,1.9,-6.8,-3.4
1698921422.866,16,0.1,0.1,0.0,-0.5,9.1,3.2,1.8,-8.3,-3.4
1698921422.882,16,0.1,0.30000000000000004,0.0,-0.5,9.3,3.2,2.5,-9.4,-5.2
1698921422.899,16,0.1,0.2,0.0,-0.5,9.200000000000001,3.2,1.9,-8.3,-5.9
1698921422.916,16,0.0,0.0,0.0,-0.6000000000000001,9.0,3.2,0.0,-6.000000000000001,-6.5
1698921422.933,16,0.0,0.0,0.0,-0.6000000000000001,9.1,3.3000000000000003,-0.30000000000000004,-6.000000000000001,-6.5
1698921422.949,16,0.0,0.1,0.1,-0.7000000000000001,9.1,3.3000000000000003,0.1,-6.3,-7.1000000000000005
1698921422.966,16,0.0,0.1,0.0,-0.6000000000000001,9.1,3.3000000000000003,-0.5,-5.6,-6.8
1698921422.982,16,0.0,0.2,0.0,-0.6000000000000001,9.200000000000001,3.2,-2.1999999999999997,-5.6,-6.4
1698921422.999,16,0.0,0.1,0.0,-0.6000000000000001,9.1,3.2,-2.8,-4.6000000000000005,-6.1000000000000005
1698921423.015,16,0.0,-0.1,0.0,-0.7000000000000001,8.9,3.3000000000000003,-3.5,-1.0,-5.1
1698921423.032,16,-0.2,-0.1,-0.2,-0.8,8.9,3.1,-3.3000000000000003,2.1,-3.7000000000000006
1698921423.049,16,-0.2,-0.1,-0.2,-0.9,8.9,3.0,-3.6,3.8,-3.7000000000000006
1698921423.065,16,-0.4,-0.2,-0.30000000000000004,-1.1,8.8,3.0,-3.6,7.2,-3.7000000000000006
1698921423.082,16,-0.4,-0.1,-0.30000000000000004,-1.3,8.9,3.0,-3.8,8.799999999999999,-3.7000000000000006
1698921423.099,16,-0.6000000000000001,-0.1,-0.4,-1.3,8.9,2.9000000000000004,-3.6,9.9,-3.3000000000000003
1698921423.115,16,-0.7000000000000001,0.1,-0.6000000000000001,-1.5,9.1,2.7,-3.6,10.5,-0.9
1698921423.132,16,-0.8,0.2,-0.6000000000000001,-1.6,9.3,2.6,-3.6,10.5,0.7
1698921423.149,16,-0.7000000000000001,0.30000000000000004,-0.7000000000000001,-1.4000000000000001,9.3,2.4000000000000004,-3.0000000000000004,9.3,4.7
1698921423.166,16,-0.5,0.2,-0.9,-1.3,9.200000000000001,2.3000000000000003,-3.1,8.5,6.2
1698921423.182,16,-0.1,0.0,-1.0,-0.9,9.0,2.3000000000000003,-2.7,3.9,10.600000000000001
1698921423.199,16,0.0,0.1,-0.7000000000000001,-0.7000000000000001,9.0,2.5,-1.8,1.3,13.8
1698921423.216,16,0.0,0.30000000000000004,-0.7000000000000001,-0.7000000000000001,9.3,2.6,1.8,-0.6000000000000001,17.0
1698921423.232,16,0.2,0.30000000000000004,-0.5,-0.5,9.3,2.8000000000000003,0.5,-0.8,18.2
1698921423.249,16,0.4,0.30000000000000004,-0.4,-0.2,9.3,2.9000000000000004,-0.30000000000000004,-2.1999999999999997,18.5
1698921423.266,16,0.8,0.30000000000000004,-0.6000000000000001,0.2,9.4,2.6,-3.0000000000000004,-4.2,16.5
1698921423.282,16,1.1,0.1,-0.6000000000000001,0.6000000000000001,9.1,2.7,-8.200000000000001,-0.7,11.4
1698921423.299,16,1.0,0.1,-0.5,0.4,9.5,2.7,-9.4,1.0,8.200000000000001
1698921423.315,16,0.5,1.0,-0.6000000000000001,0.0,9.9,2.7,-9.700000000000001,1.9,5.0
1698921423.332,16,-0.30000000000000004,1.8,-0.5,-0.7000000000000001,10.8,2.8000000000000003,-8.3,-1.2000000000000002,15.399999999999999
1698921423.348,16,-0.30000000000000004,1.8,-0.7000000000000001,-0.7000000000000001,10.8,2.6,-7.300000000000001,-1.2000000000000002,21.5
1698921423.365,16,0.30000000000000004,1.0,-1.1,0.0,10.0,2.2,-7.2,-4.6000000000000005,22.000000000000004
1698921423.383,16,0.8,0.6000000000000001,-1.2000000000000002,0.5,9.600000000000001,2.2,-11.1,-4.0,15.7
1698921423.399,16,1.1,0.5,-1.3,0.9,9.5,2.1,-16.5,-2.5,13.4
1698921423.415,16,1.1,0.4,-1.3,1.0,9.4,2.1,-20.2,-2.5,14.4
1698921423.432,16,1.0,0.30000000000000004,-1.3,0.9,9.200000000000001,2.2,-27.7,-3.3000000000000003,18.3
1698921423.449,16,0.9,0.2,-1.3,0.8,9.1,2.2,-30.9,-4.2,20.6
1698921423.466,16,0.30000000000000004,-0.1,-1.6,0.30000000000000004,8.8,2.1,-36.7,-5.500000000000001,24.9
1698921423.482,16,0.1,-0.5,-1.6,0.2,8.4,2.1,-39.300000000000004,-9.8,23.700000000000003
1698921423.499,16,0.2,-0.7000000000000001,-1.7000000000000002,0.30000000000000004,8.0,2.1,-37.800000000000004,-13.100000000000001,17.400000000000002
1698921423.515,16,0.30000000000000004,-0.8,-1.7000000000000002,0.5,8.0,2.2,-37.2,-10.5,13.700000000000001
1698921423.532,16,0.6000000000000001,-0.8,-1.7000000000000002,0.9,7.9,2.3000000000000003,-33.800000000000004,-6.000000000000001,7.500000000000001
1698921423.549,16,1.0,-0.2,-2.0,1.3,8.5,2.1,-31.0,-5.1,4.9
1698921423.566,16,1.2000000000000002,0.1,-2.0,1.5,8.700000000000001,2.1,-31.5,-4.1000000000000005,4.6000000000000005
1698921423.582,16,1.5,0.5,-1.9000000000000001,1.8,9.1,2.3000000000000003,-31.7,-0.9,5.9
1698921423.599,16,1.1,0.6000000000000001,-2.1,1.5,9.1,2.1,-30.299999999999997,1.3,9.8
1698921423.615,16,0.8,0.4,-2.2,1.2000000000000002,8.9,2.1,-29.500000000000004,1.2000000000000002,12.3
1698921423.632,16,0.0,0.0,-2.4000000000000004,0.5,8.5,2.0,-26.200000000000003,-2.6,15.9
1698921423.65,16,-0.30000000000000004,-0.2,-2.5,0.1,8.200000000000001,1.9000000000000001,-22.8,-6.000000000000001,15.2
1698921423.666,16,-0.4,-0.2,-2.4000000000000004,0.1,8.200000000000001,2.0,-21.6,-6.7,13.100000000000001
1698921423.682,16,-0.1,-0.30000000000000004,-2.1,0.4,8.1,2.4000000000000004,-19.400000000000002,-7.500000000000001,6.5
1698921423.699,16,0.30000000000000004,-0.1,-1.7000000000000002,0.8,8.3,2.8000000000000003,-18.8,-3.8,0.1
1698921423.716,16,0.4,0.1,-1.6,1.0,8.5,2.9000000000000004,-19.8,-0.9,-1.4
1698921423.732,16,0.6000000000000001,0.6000000000000001,-1.7000000000000002,1.2000000000000002,9.0,2.9000000000000004,-24.9,2.5,-1.5000000000000002
1698921423.749,16,0.4,1.1,-2.3000000000000003,0.9,9.3,2.4000000000000004,-30.4,-1.9,0.30000000000000004
1698921423.766,16,0.2,1.4000000000000001,-2.6,0.7000000000000001,9.700000000000001,2.0,-32.4,-5.0,1.0
1698921423.782,16,-0.1,2.3000000000000003,-2.8000000000000003,0.4,10.5,1.9000000000000001,-33.6,-9.600000000000001,0.1
1698921423.799,16,-0.4,3.0,-3.2,0.2,11.200000000000001,1.7000000000000002,-29.1,-8.9,-1.7
1698921423.815,16,-0.30000000000000004,3.4000000000000004,-3.2,0.30000000000000004,11.5,1.6,-27.0,-6.7,-4.0
1698921423.832,16,0.2,3.9000000000000004,-3.0,0.7000000000000001,12.100000000000001,1.9000000000000001,-22.1,6.3,-15.9
1698921423.848,16,0.6000000000000001,5.1000000000000005,1.7000000000000002,1.1,13.3,6.6000000000000005,6.7,-4.5,-30.599999999999998
1698921423.865,16,1.7000000000000002,7.1000000000000005,3.3000000000000003,3.2,16.6,4.6000000000000005,82.10000000000001,-13.8,-25.900000000000002
1698921423.882,16,2.0,6.7,-1.3,2.4000000000000004,15.200000000000001,3.3000000000000003,75.5,24.8,-20.900000000000002
1698921423.899,16,0.7000000000000001,1.2000000000000002,2.9000000000000004,1.0,9.8,7.300000000000001,67.3,12.5,-12.6
1698921423.915,16,1.5,0.2,4.800000000000001,1.4000000000000001,9.0,8.200000000000001,65.60000000000001,12.200000000000001,-25.5
1698921423.932,16,2.0,0.2,4.7,2.2,8.9,9.0,45.3,12.200000000000001,-50.6
1698921423.949,16,1.3,0.2,2.0,1.4000000000000001,9.0,6.2,17.3,5.300000000000001,-27.8
1698921423.965,16,0.5,0.0,1.0,0.5,8.8,5.2,4.5,2.5,-5.6
1698921423.982,16,-1.1,-0.8,-0.2,-1.0,8.0,4.0,2.0,-6.9,16.2
1698921423.999,16,-1.8,-1.2000000000000002,-0.2,-1.7000000000000002,7.6000000000000005,3.9000000000000004,14.4,-12.3,10.700000000000001
1698921424.015,16,-1.9000000000000001,-0.7000000000000001,0.1,-1.8,8.1,4.2,18.900000000000002,-9.9,2.9
1698921424.032,16,-1.2000000000000002,1.0,1.0,-1.1,9.8,5.1000000000000005,6.6000000000000005,-8.9,-21.8
1698921424.049,16,-0.4,-0.4,0.5,-0.4,8.4,4.6000000000000005,-19.400000000000002,-7.400000000000001,-34.400000000000006
1698921424.066,16,-0.4,-1.8,0.1,-0.4,6.9,4.3,-25.1,-5.8,-30.7
1698921424.083,16,-0.6000000000000001,-3.5,-0.30000000000000004,-0.8,5.2,3.9000000000000004,-23.2,-6.3,-18.400000000000002
1698921424.099,16,-1.1,-3.6,-0.7000000000000001,-1.2000000000000002,5.1000000000000005,3.6,-22.1,-7.2,-11.000000000000002
1698921424.115,16,-1.5,-3.6,-0.7000000000000001,-2.1,4.800000000000001,3.8000000000000003,-26.3,-6.8,-9.1
1698921424.132,16,-2.0,-3.7,-0.8,-2.2,4.800000000000001,3.6,-24.6,-5.7,-8.4
1698921424.149,16,-2.2,-3.9000000000000004,-1.7000000000000002,-2.4000000000000004,4.6000000000000005,2.7,-15.5,-15.6,-10.9
1698921424.165,16,-2.2,-4.0,-2.2,-2.5,4.4,2.3000000000000003,-11.9,-20.0,-13.8
1698921424.183,16,-2.0,-4.2,-2.5,-2.3000000000000003,4.2,1.9000000000000001,-9.4,-21.0,-22.000000000000004
1698921424.199,16,-1.4000000000000001,-3.8000000000000003,-2.9000000000000004,-1.8,4.5,1.5,-7.1000000000000005,-26.1,-29.800000000000004
1698921424.215,16,-0.30000000000000004,-3.3000000000000003,-2.9000000000000004,-0.7000000000000001,5.0,1.6,-3.0000000000000004,-34.0,-35.1
1698921424.232,16,0.1,-3.2,-2.9000000000000004,-0.4,5.1000000000000005,1.6,-1.0999999999999999,-30.4,-35.5
1698921424.249,16,0.4,-2.7,-2.9000000000000004,-0.1,5.5,1.5,4.1000000000000005,-24.1,-30.200000000000003
1698921424.265,16,-0.2,-0.6000000000000001,-2.8000000000000003,-0.7000000000000001,7.7,1.6,12.5,-42.400000000000006,-18.0
1698921424.284,16,-0.7000000000000001,1.4000000000000001,-2.2,-1.2000000000000002,9.600000000000001,2.2,18.5,-54.4,-7.500000000000001
1698921424.299,16,-0.9,5.2,-1.2000000000000002,-1.2000000000000002,13.600000000000001,3.0,36.5,-55.900000000000006,9.200000000000001
1698921424.315,16,0.1,6.1000000000000005,-1.2000000000000002,-0.2,14.600000000000001,2.9000000000000004,46.300000000000004,-50.800000000000004,-6.000000000000001
1698921424.333,16,0.30000000000000004,5.800000000000001,-1.5,0.0,14.3,2.5,40.2,-47.0,-28.0
1698921424.349,16,1.8,4.3,-2.3000000000000003,1.4000000000000001,12.9,1.6,9.700000000000001,-33.900000000000006,-50.0
1698921424.365,16,1.8,3.8000000000000003,-2.6,1.2000000000000002,12.5,1.9000000000000001,-7.1000000000000005,-16.1,-41.7
1698921424.383,16,1.0,5.0,2.3000000000000003,0.6000000000000001,13.700000000000001,6.300000000000001,-20.5,16.400000000000002,-5.7
1698921424.399,16,2.4000000000000004,10.9,6.5,2.0,19.700000000000003,10.4,69.5,42.5,13.100000000000001
1698921424.417,16,2.5,10.200000000000001,3.1,2.4000000000000004,13.700000000000001,5.5,106.80000000000001,19.8,-2.8
1698921424.433,16,2.3000000000000003,-1.2000000000000002,2.8000000000000003,1.8,7.800000000000001,6.300000000000001,70.39999999999999,18.8,-12.000000000000002
1698921424.449,16,-1.2000000000000002,-4.1000000000000005,0.7000000000000001,-1.7000000000000002,4.9,4.1000000000000005,27.1,18.6,17.9
1698921424.467,16,-1.9000000000000001,-4.6000000000000005,2.0,-2.4000000000000004,4.4,5.4,19.1,1.5000000000000002,29.700000000000003
1698921424.482,16,-1.5,-2.2,6.2,-1.8,6.800000000000001,9.5,41.800000000000004,23.900000000000002,34.2
1698921424.499,16,-0.2,5.1000000000000005,3.0,-0.6000000000000001,14.200000000000001,6.300000000000001,37.1,50.300000000000004,-4.5
1698921424.515,16,0.7000000000000001,5.6000000000000005,2.9000000000000004,0.1,14.700000000000001,6.1000000000000005,-10.8,17.599999999999998,-42.400000000000006
1698921424.532,16,0.8,3.6,2.4000000000000004,0.2,12.700000000000001,5.7,-13.100000000000001,15.399999999999999,-33.6
1698921424.549,16,-0.2,0.30000000000000004,0.8,-0.8,9.4,4.2,-7.6,19.1,15.2
1698921424.565,16,-0.4,-1.5,1.0,-1.0,7.6000000000000005,4.4,-16.0,8.600000000000001,17.0
1698921424.583,16,0.2,-2.2,0.9,-0.4,7.0,4.4,-22.4,2.3000000000000003,8.5
1698921424.6,16,0.5,-2.4000000000000004,0.2,-0.1,6.6000000000000005,3.7,-28.200000000000003,4.7,0.4
1698921424.616,16,0.7000000000000001,-2.9000000000000004,-1.0,0.1,6.1000000000000005,2.6,-25.6,1.7,-7.400000000000001
1698921424.632,16,1.0,-3.0,-1.4000000000000001,0.4,5.9,2.2,-24.200000000000003,-1.0999999999999999,-5.9
1698921424.649,16,1.4000000000000001,-3.8000000000000003,-2.0,0.8,5.1000000000000005,1.7000000000000002,-20.0,3.1,2.9
1698921424.666,16,1.3,-4.7,-2.3000000000000003,0.8,3.4000000000000004,1.3,-16.8,7.1000000000000005,7.6
1698921424.683,16,1.3,-6.0,-2.6,0.7000000000000001,2.8000000000000003,1.1,-10.1,9.9,14.700000000000001
1698921424.699,16,1.2000000000000002,-6.4,-3.0,0.7000000000000001,2.3000000000000003,0.7000000000000001,-9.600000000000001,15.9,17.1
1698921424.716,16,1.9000000000000001,-6.4,-2.5,1.4000000000000001,2.3000000000000003,1.2000000000000002,-16.400000000000002,47.300000000000004,17.400000000000002
1698921424.732,16,2.3000000000000003,-6.0,-2.1,1.8,2.7,1.6,-19.700000000000003,71.9,15.7
1698921424.749,16,3.0,-3.2,-2.2,2.4000000000000004,5.4,1.6,-23.2,117.60000000000001,5.9
1698921424.767,16,3.1,-0.9,-2.5,2.5,7.7,1.3,-25.700000000000003,127.80000000000001,-2.4000000000000004
1698921424.782,16,2.9000000000000004,3.3000000000000003,-3.0,2.1,11.8,0.8,-34.400000000000006,117.1,-19.400000000000002
1698921424.798,16,-0.7000000000000001,6.2,-2.8000000000000003,-1.7000000000000002,14.8,1.1,-48.400000000000006,62.4,-14.700000000000001
1698921424.817,16,-2.7,5.6000000000000005,-1.8,-3.7,14.100000000000001,2.2,-54.0,25.6,45.6
1698921424.832,16,-3.1,4.1000000000000005,-1.8,-4.0,11.600000000000001,1.8,-47.0,18.6,65.5
1698921424.849,16,-2.7,2.5,-3.3000000000000003,-3.4000000000000004,11.0,0.9,-21.700000000000003,-13.200000000000001,64.10000000000001
1698921424.865,16,-2.4000000000000004,1.2000000000000002,-2.2,-3.0,9.700000000000001,2.0,-7.8,-32.800000000000004,27.900000000000002
1698921424.882,16,-0.30000000000000004,0.5,3.5,-1.1,10.3,13.3,12.700000000000001,-1.7,5.0
1698921424.899,16,-4.2,5.6000000000000005,7.300000000000001,-4.800000000000001,14.4,11.100000000000001,197.5,-29.500000000000004,-2.0
1698921424.915,16,-1.8,7.0,2.5,-2.1,16.1,5.4,309.70000000000005,-123.00000000000001,94.2
1698921424.932,16,-0.9,3.4000000000000004,6.7,0.4,9.4,9.200000000000001,212.6,22.5,36.6
1698921424.948,16,2.8000000000000003,-0.7000000000000001,8.6,2.8000000000000003,8.700000000000001,10.700000000000001,49.5,-52.800000000000004,-33.800000000000004
1698921424.965,16,3.5,-0.6000000000000001,4.6000000000000005,3.2,8.8,6.9,-58.400000000000006,-0.30000000000000004,-78.00000000000001
1698921424.982,16,2.3000000000000003,0.9,4.6000000000000005,1.9000000000000001,10.200000000000001,7.1000000000000005,-58.5,14.600000000000001,-51.800000000000004
1698921425.0,16,0.9,6.300000000000001,0.5,0.7000000000000001,15.600000000000001,3.0,-6.3,-54.7,59.00000000000001
1698921425.016,16,-1.7000000000000002,4.5,1.2000000000000002,-1.6,13.9,3.8000000000000003,-7.2,-35.7,89.2
1698921425.032,16,-1.5,-0.4,-0.1,-1.2000000000000002,9.0,2.5,-20.5,9.600000000000001,34.2
1698921425.049,16,-0.7000000000000001,-2.0,-0.6000000000000001,-0.4,7.4,2.0,-24.9,14.0,2.6
1698921425.065,16,-0.1,-3.3000000000000003,-1.4000000000000001,0.1,6.0,1.3,-35.199999999999996,32.7,-21.400000000000002
1698921425.082,16,0.30000000000000004,-4.800000000000001,-1.3,0.30000000000000004,4.5,1.6,-43.800000000000004,42.6,-11.700000000000001
1698921425.099,16,-0.1,-5.300000000000001,-1.6,-0.1,4.0,1.3,-40.5,36.2,-0.6000000000000001
1698921425.115,16,-0.9,-5.0,-2.3000000000000003,-0.9,4.1000000000000005,0.7000000000000001,-31.900000000000002,25.8,14.900000000000002
1698921425.132,16,-1.8,-5.2,-2.4000000000000004,-1.8,3.9000000000000004,0.7000000000000001,-27.8,21.0,17.3
1698921425.15,16,-2.4000000000000004,-5.4,-2.0,-2.3000000000000003,3.6,1.1,-24.5,15.8,15.7
1698921425.165,16,-3.5,-6.0,-1.4000000000000001,-3.4000000000000004,3.0,1.8,-12.200000000000001,7.2,8.5
1698921425.182,16,-4.6000000000000005,-6.1000000000000005,-1.6,-4.6000000000000005,2.9000000000000004,1.6,6.1000000000000005,-16.3,-3.9
1698921425.199,16,-5.5,-5.300000000000001,-2.0,-5.4,3.6,1.1,12.4,-40.6,-8.9
1698921425.215,16,-5.6000000000000005,-1.8,-3.1,-5.6000000000000005,7.1000000000000005,0.0,6.5,-96.9,-4.6000000000000005
1698921425.232,16,-4.6000000000000005,0.7000000000000001,-2.4000000000000004,-4.5,9.5,0.7000000000000001,-28.400000000000002,-87.2,7.2
1698921425.249,16,-2.5,1.5,-1.5,-2.4000000000000004,10.4,1.6,-47.400000000000006,-58.3,5.9
1698921425.265,16,-0.2,2.9000000000000004,0.7000000000000001,0.0,11.700000000000001,4.0,-57.2,-65.10000000000001,-35.5
1698921425.283,16,2.9000000000000004,6.0,-0.4,2.9000000000000004,14.8,3.1,-36.6,-46.7,-72.10000000000001
1698921425.299,16,3.8000000000000003,6.0,-1.9000000000000001,4.0,13.4,0.9,-31.7,-36.3,-84.60000000000001
1698921425.315,16,3.4000000000000004,2.9000000000000004,-2.4000000000000004,3.2,11.700000000000001,1.2000000000000002,-34.50000000000001,-13.4,-68.7
1698921425.332,16,3.8000000000000003,4.6000000000000005,7.7,3.5,13.4,11.3,28.500000000000004,-13.8,-15.299999999999999
1698921425.349,16,5.0,6.9,7.800000000000001,4.800000000000001,15.9,11.3,104.2,20.5,-12.9
1698921425.365,16,3.4000000000000004,2.2,1.6,3.0,11.3,4.5,185.8,8.1,-24.9
1698921425.382,16,-0.7000000000000001,-3.6,4.1000000000000005,-1.1,5.6000000000000005,6.7,101.30000000000001,-8.200000000000001,4.6000000000000005
1698921425.399,16,-2.2,-3.1,5.4,-2.6,6.2,7.9,58.60000000000001,9.700000000000001,23.2
1698921425.415,16,-2.0,3.3000000000000003,7.800000000000001,-2.3000000000000003,12.600000000000001,10.200000000000001,22.2,50.300000000000004,34.800000000000004
1698921425.432,16,0.5,8.6,3.0,0.2,18.0,5.5,14.700000000000001,52.900000000000006,-22.8
1698921425.45,16,1.3,7.800000000000001,3.3000000000000003,0.9,17.2,5.7,11.700000000000001,43.900000000000006,-53.300000000000004
1698921425.466,16,0.2,3.4000000000000004,3.3000000000000003,-0.4,12.9,5.800000000000001,0.9,36.2,-45.5
1698921425.482,16,-0.8,2.0,0.6000000000000001,-1.5,11.5,3.2,-34.300000000000004,30.9,6.7
1698921425.499,16,-1.1,1.6,0.0,-1.8,11.0,2.6,-48.9,19.9,3.9
1698921425.515,16,0.1,-0.5,0.5,-0.7000000000000001,8.8,3.3000000000000003,-60.5,-8.5,-8.4
1698921425.533,16,0.4,-2.2,0.1,-0.30000000000000004,7.1000000000000005,3.1,-56.2,2.9,-4.2
1698921425.549,16,0.7000000000000001,-3.0,-0.6000000000000001,0.1,5.5,1.7000000000000002,-49.8,7.0,-0.7
1698921425.566,16,1.0,-4.6000000000000005,-1.9000000000000001,0.30000000000000004,4.6000000000000005,1.2000000000000002,-44.4,5.9,1.9
1698921425.582,16,1.4000000000000001,-6.0,-2.7,0.6000000000000001,3.1,0.6000000000000001,-39.6,6.7,5.500000000000001
1698921425.599,16,1.9000000000000001,-7.300000000000001,-3.5,1.2000000000000002,1.7000000000000002,-0.2,-44.4,14.3,6.7
1698921425.616,16,2.3000000000000003,-7.9,-3.4000000000000004,1.6,1.0,0.1,-49.7,18.2,6.9
1698921425.632,16,3.0,-8.9,-2.5,2.4000000000000004,-0.1,1.1,-52.300000000000004,23.3,6.4
1698921425.649,16,3.3000000000000003,-9.0,-2.4000000000000004,2.6,-0.2,1.2000000000000002,-47.6,48.9,6.6000000000000005
1698921425.666,16,3.7,-7.9,-3.9000000000000004,3.0,0.7000000000000001,-0.2,-42.0,77.0,13.8
1698921425.682,16,2.5,-5.2,-5.9,1.8,3.3000000000000003,-2.1,-59.400000000000006,74.10000000000001,17.400000000000002
1698921425.699,16,1.5,-3.2,-6.1000000000000005,0.8,5.2,-2.2,-77.7,66.4,18.7
1698921425.717,16,-0.7000000000000001,0.5,-2.6,-1.5,8.8,1.6,-100.7,56.2,12.9
1698921425.733,16,-3.7,8.5,4.3,-4.6000000000000005,16.7,8.6,-36.2,69.80000000000001,2.6
1698921425.749,16,-6.5,12.9,-0.2,-7.5,21.200000000000003,4.0,30.5,68.4,8.799999999999999
1698921425.765,16,-2.5,7.7,-3.7,-3.4000000000000004,16.2,0.4,64.2,5.0,26.200000000000003
1698921425.782,16,-0.1,1.9000000000000001,1.3,-1.1,10.5,5.2,70.0,23.3,-24.8
1698921425.799,16,-1.3,2.8000000000000003,7.7,-2.5,11.5,11.200000000000001,161.1,13.3,-33.1
1698921425.815,16,-2.1,3.7,8.4,-3.2,12.600000000000001,11.5,250.70000000000002,-96.5,2.8
1698921425.832,16,-0.7000000000000001,5.5,7.0,-1.5,14.8,9.200000000000001,305.0,-70.0,88.10000000000001
1698921425.849,16,3.7,4.9,10.5,3.2,14.3,12.3,128.8,-28.8,66.2
1698921425.866,16,3.8000000000000003,3.6,11.3,3.4000000000000004,13.100000000000001,13.100000000000001,3.3000000000000003,-99.5,7.300000000000001
1698921425.882,16,-0.5,1.5,1.8,-0.9,11.0,3.9000000000000004,-72.4,-2.3000000000000003,14.900000000000002
1698921425.899,16,-0.30000000000000004,4.2,1.2000000000000002,-0.6000000000000001,13.600000000000001,3.4000000000000004,-54.2,-40.9,40.2
1698921425.915,16,-0.5,5.1000000000000005,1.0,-0.7000000000000001,14.600000000000001,3.3000000000000003,-36.800000000000004,-55.300000000000004,31.7
1698921425.932,16,-1.4000000000000001,3.8000000000000003,-0.1,-1.5,13.200000000000001,2.3000000000000003,-18.2,-28.1,2.4000000000000004
1698921425.949,16,-0.5,0.7000000000000001,0.30000000000000004,-0.7000000000000001,10.100000000000001,2.8000000000000003,-12.8,-8.700000000000001,-4.5
1698921425.966,16,-0.30000000000000004,-1.0,0.0,-0.5,8.5,2.4000000000000004,-13.5,-3.1,-1.8
1698921425.982,16,-0.4,-3.0,-0.5,-0.5,6.4,2.0,-26.400000000000002,4.2,6.000000000000001
1698921425.998,16,-0.5,-3.4000000000000004,-0.9,-0.7000000000000001,6.0,1.8,-41.0,13.5,6.4
1698921426.015,16,-0.6000000000000001,-3.6,-1.0,-0.8,5.800000000000001,1.7000000000000002,-43.2,6.6000000000000005,4.9
1698921426.032,16,-0.9,-4.2,-1.2000000000000002,-1.1,5.1000000000000005,1.6,-38.6,-16.0,-0.30000000000000004
1698921426.049,16,-1.7000000000000002,-5.1000000000000005,-1.6,-1.8,4.1000000000000005,1.3,-32.0,-25.3,-8.1
1698921426.066,16,-2.2,-5.5,-2.0,-2.4000000000000004,3.6,0.9,-30.299999999999997,-28.3,-12.5
1698921426.082,16,-3.2,-6.0,-2.3000000000000003,-3.4000000000000004,3.0,0.8,-28.900000000000002,-46.0,-21.200000000000003
1698921426.107,16,-4.1000000000000005,-5.800000000000001,-1.2000000000000002,-4.4,3.1,1.9000000000000001,-8.200000000000001,-109.0,-39.2
1698921426.115,16,-4.3,-4.7,-1.8,-4.6000000000000005,4.3,1.3,0.6000000000000001,-121.0,-39.6
1698921426.132,16,-4.7,-3.1,-2.6,-5.0,5.800000000000001,0.5,4.5,-134.9,-32.2
1698921426.149,16,-4.0,-0.6000000000000001,-4.4,-4.1000000000000005,8.3,-1.4000000000000001,-4.800000000000001,-171.70000000000002,-0.6000000000000001
1698921426.165,16,-1.3,0.30000000000000004,-5.5,-1.4000000000000001,9.200000000000001,-2.4000000000000004,-21.200000000000003,-188.1,3.5
1698921426.182,16,2.5,0.2,-4.5,2.5,9.1,-1.2000000000000002,-80.7,-131.7,-28.400000000000002
1698921426.199,16,4.6000000000000005,2.2,-2.6,4.7,10.9,1.0,-102.80000000000001,-130.0,-63.300000000000004
1698921426.216,16,4.1000000000000005,7.9,0.9,4.1000000000000005,16.6,4.7,-86.7,-58.400000000000006,-79.9
1698921426.232,16,3.0,8.5,-0.1,2.9000000000000004,17.2,3.8000000000000003,-62.50000000000001,11.5,-79.7
1698921426.249,16,2.8000000000000003,3.6,-2.6,2.5,12.200000000000001,1.4000000000000001,-33.0,34.50000000000001,-49.8
1698921426.266,16,5.0,2.9000000000000004,4.0,4.6000000000000005,11.600000000000001,8.0,-8.600000000000001,-4.9,-35.5
1698921426.282,16,7.6000000000000005,4.3,7.9,7.0,13.100000000000001,11.700000000000001,155.5,112.0,-66.60000000000001
1698921426.299,16,3.1,-1.9000000000000001,0.1,2.2,7.2,3.2,232.00000000000003,79.9,-45.7
1698921426.315,16,0.8,-4.0,0.8,-0.2,4.5,5.9,212.10000000000002,31.099999999999998,-4.5
1698921426.332,16,-0.7000000000000001,-5.2,5.9,-1.5,4.0,8.200000000000001,105.3,45.9,55.0
1698921426.348,16,-0.8,-2.3000000000000003,5.7,-1.4000000000000001,6.9,7.9,3.6,70.8,51.300000000000004
1698921426.365,16,-1.6,4.7,3.1,-2.2,14.0,5.5,-19.1,109.7,9.9
1698921426.382,16,-1.5,7.5,1.8,-2.2,16.8,4.1000000000000005,-17.5,127.9,-19.8
1698921426.399,16,0.5,9.0,2.2,-0.5,18.3,4.5,16.900000000000002,96.60000000000001,-58.60000000000001
1698921426.416,16,1.1,7.2,0.6000000000000001,0.0,16.6,2.9000000000000004,29.700000000000003,84.7,-54.6
1698921426.433,16,-0.1,1.1,-0.1,-1.3,10.600000000000001,2.1,3.9,42.400000000000006,2.8
1698921426.45,16,-2.3000000000000003,-1.0,-0.30000000000000004,-3.5,8.4,2.0,-45.2,37.1,24.6
1698921426.465,16,-2.2,-0.9,-0.8,-3.3000000000000003,8.4,1.7000000000000002,-72.10000000000001,21.900000000000002,16.5
1698921426.482,16,-1.3,-1.1,-0.9,-2.4000000000000004,8.200000000000001,1.7000000000000002,-79.7,21.0,10.2
1698921426.499,16,0.2,-1.9000000000000001,0.30000000000000004,-0.9,7.300000000000001,3.2,-76.3,6.3,-2.8
1698921426.515,16,1.7000000000000002,-2.9000000000000004,-0.6000000000000001,0.6000000000000001,6.300000000000001,2.4000000000000004,-52.50000000000001,11.4,-9.3
1698921426.532,16,2.3000000000000003,-3.5,-1.5,1.2000000000000002,5.6000000000000005,1.6,-45.3,17.7,-7.0
1698921426.549,16,3.2,-4.7,-2.5,2.1,4.3,0.7000000000000001,-45.0,24.8,4.300000000000001
1698921426.566,16,3.8000000000000003,-5.300000000000001,-2.5,2.7,3.6,0.8,-47.7,26.6,9.8
1698921426.583,16,4.2,-6.4,-2.0,3.1,2.4000000000000004,1.4000000000000001,-49.4,32.300000000000004,18.5
1698921426.599,16,3.6,-5.7,-1.8,2.6,3.0,1.7000000000000002,-47.2,53.6,28.700000000000003
1698921426.615,16,2.6,-4.800000000000001,-2.0,0.4,4.7,1.1,-47.900000000000006,85.5,40.3
1698921426.632,16,0.4,-3.1,-3.2,-0.6000000000000001,5.5,0.4,-51.900000000000006,95.4,46.4
1698921426.649,16,-0.4,-1.4000000000000001,-5.1000000000000005,-1.4000000000000001,7.1000000000000005,-1.3,-71.6,102.10000000000001,51.400000000000006
1698921426.669,16,-0.30000000000000004,-1.0,-5.1000000000000005,-0.5,8.200000000000001,-1.0,-87.00000000000001,98.10000000000001,47.400000000000006
1698921426.682,16,1.1,0.8,-4.800000000000001,0.1,9.200000000000001,-0.7000000000000001,-105.3,72.6,22.8
1698921426.7,16,-1.6,4.1000000000000005,-0.7000000000000001,-2.6,12.3,3.6,-76.3,10.8,10.600000000000001
1698921426.716,16,-3.4000000000000004,7.0,-0.5,-5.9,16.3,2.8000000000000003,-40.3,-4.6000000000000005,24.8
1698921426.734,16,-3.6,7.9,-1.2000000000000002,-4.5,16.3,3.1,24.3,-19.400000000000002,52.6
1698921426.749,16,-2.7,5.6000000000000005,2.2,-3.5,14.100000000000001,6.300000000000001,92.0,19.8,17.9
1698921426.765,16,-3.5,5.300000000000001,5.1000000000000005,-4.3,14.0,9.1,153.10000000000002,-20.4,8.700000000000001
1698921426.784,16,-1.4000000000000001,2.3000000000000003,5.7,-1.9000000000000001,11.5,8.4,319.8,-73.60000000000001,32.5
1698921426.798,16,0.5,2.1,5.300000000000001,0.0,11.4,7.6000000000000005,284.8,9.600000000000001,37.800000000000004
1698921426.816,16,3.4000000000000004,3.6,11.0,3.0,13.0,13.100000000000001,-1.6,-104.2,-14.500000000000002
1698921426.832,16,2.0,5.1000000000000005,2.3000000000000003,1.7000000000000002,14.5,4.7,-83.60000000000001,-14.100000000000001,6.9
1698921426.848,16,1.6,5.800000000000001,0.6000000000000001,1.3,15.200000000000001,3.1,-73.8,-15.399999999999999,34.1
1698921426.866,16,-1.0,4.4,0.4,-1.0,13.8,3.1,-42.7,-53.1,52.800000000000004
1698921426.882,16,-2.0,0.9,-0.7000000000000001,-2.0,10.3,2.1,-33.1,-38.6,49.1
1698921426.899,16,-1.6,-0.4,-0.8,-1.5,9.0,2.1,-30.799999999999997,-20.0,25.6
1698921426.915,16,-0.8,-2.6,-0.4,-0.7000000000000001,6.7,2.6,-35.5,-25.8,4.300000000000001
1698921426.934,16,-0.5,-3.9000000000000004,-0.6000000000000001,-0.4,5.4,2.4000000000000004,-39.8,-15.299999999999999,-4.800000000000001
1698921426.949,16,-1.0,-5.1000000000000005,-1.3,-0.9,4.1000000000000005,1.9000000000000001,-43.400000000000006,-6.3,-12.9
1698921426.966,16,-1.5,-5.6000000000000005,-1.6,-1.4000000000000001,3.5,1.6,-38.900000000000006,-17.5,-7.8
1698921426.982,16,-1.9000000000000001,-5.800000000000001,-1.7000000000000002,-2.2,3.0,1.5,-34.900000000000006,-20.0,-4.5
1698921426.999,16,-2.7,-6.1000000000000005,-1.8,-2.6,2.8000000000000003,1.5,-27.5,-19.0,-1.4
1698921427.015,16,-3.1,-6.4,-2.3000000000000003,-3.1,2.5,1.2000000000000002,-18.0,-28.500000000000004,-6.8
1698921427.032,16,-3.4000000000000004,-6.0,-2.8000000000000003,-3.4000000000000004,2.9000000000000004,0.7000000000000001,-14.700000000000001,-41.0,-12.9
1698921427.05,16,-4.0,-3.7,-4.0,-3.9000000000000004,5.1000000000000005,-0.5,-20.4,-71.9,-23.2
1698921427.066,16,-3.8000000000000003,-1.6,-2.8000000000000003,-3.7,7.1000000000000005,0.7000000000000001,-34.2,-96.80000000000001,-21.0
1698921427.082,16,-3.1,-0.5,-2.3000000000000003,-1.5,9.200000000000001,1.1,-34.2,-94.0,-16.700000000000003
1698921427.098,16,0.5,1.2000000000000002,-2.6,0.6000000000000001,9.9,1.1,-27.7,-89.6,-24.6
1698921427.115,16,4.6000000000000005,2.7,-1.3,4.7,11.4,2.4000000000000004,-28.1,-40.6,-58.60000000000001
1698921427.132,16,5.7,3.3000000000000003,-0.7000000000000001,5.7,12.0,3.1,-19.6,-19.9,-76.2
1698921427.15,16,2.1,4.0,-1.0,2.0,12.700000000000001,2.7,12.5,-17.9,-68.5
1698921427.166,16,0.8,3.9000000000000004,-1.7000000000000002,1.5,12.0,2.9000000000000004,23.400000000000002,-27.7,-35.9
1698921427.183,16,3.5,2.2,9.0,3.4000000000000004,11.100000000000001,12.5,37.7,-18.2,19.9
1698921427.199,16,5.0,3.2,10.8,4.9,12.200000000000001,14.100000000000001,137.4,22.3,5.9
1698921427.216,16,4.9,1.0,5.0,4.800000000000001,10.200000000000001,7.800000000000001,167.20000000000002,1.6,-25.8
1698921427.232,16,-1.5,-1.4000000000000001,2.8000000000000003,-1.7000000000000002,7.800000000000001,5.4,22.7,48.9,-2.1
1698921427.253,16,-3.5,-0.1,2.2,-3.7,9.1,4.9,-16.2,63.900000000000006,25.0
1698921427.265,16,-3.4000000000000004,3.8000000000000003,4.4,-3.5,13.0,7.2,-13.200000000000001,74.60000000000001,41.300000000000004
1698921427.282,16,-1.3,5.4,3.7,-1.4000000000000001,14.600000000000001,6.5,8.5,89.9,14.500000000000002
1698921427.299,16,2.8000000000000003,4.9,1.3,2.3000000000000003,14.200000000000001,4.1000000000000005,18.7,85.2,-80.9
1698921427.315,16,3.6,3.6,1.6,2.1,11.4,4.6000000000000005,-5.500000000000001,74.30000000000001,-111.0
1698921427.333,16,1.2000000000000002,1.1,1.0,0.2,10.3,3.9000000000000004,-59.300000000000004,82.10000000000001,-97.7
1698921427.349,16,-0.4,0.1,-1.1,-1.6,9.200000000000001,2.0,-69.60000000000001,79.39999999999999,-6.5
1698921427.366,16,-1.0,-1.2000000000000002,-2.1,-2.1,7.800000000000001,1.2000000000000002,-70.39999999999999,43.7,46.0
1698921427.382,16,-0.8,-2.2,-2.3000000000000003,-1.2000000000000002,6.0,0.9,-69.3,29.400000000000002,52.400000000000006
1698921427.4,16,0.30000000000000004,-3.6,-2.9000000000000004,-0.7000000000000001,5.300000000000001,0.7000000000000001,-65.60000000000001,4.1000000000000005,41.9
1698921427.415,16,0.8,-4.4,-3.0,-0.1,4.4,0.8,-63.800000000000004,-16.6,18.6
1698921427.432,16,0.8,-4.5,-2.8000000000000003,-0.1,4.2,1.1,-58.5,-11.8,4.3999999999999995
1698921427.449,16,0.6000000000000001,-4.7,-2.8000000000000003,-0.2,4.0,1.1,-55.6,0.8,4.300000000000001
1698921427.466,16,0.2,-5.2,-3.3000000000000003,-0.6000000000000001,3.3000000000000003,0.8,-49.7,30.200000000000003,13.200000000000001
1698921427.483,16,0.1,-5.1000000000000005,-4.0,-0.6000000000000001,3.6,-0.30000000000000004,-48.7,36.4,17.8
1698921427.499,16,0.6000000000000001,-4.5,-4.0,-0.2,3.9000000000000004,0.2,-55.4,26.8,15.7
1698921427.516,16,1.1,-3.1,-2.3000000000000003,0.30000000000000004,5.2,2.0,-50.4,30.200000000000003,-1.8
1698921427.533,16,2.1,0.0,-1.3,1.2000000000000002,8.3,3.1,-25.700000000000003,56.5,-21.700000000000003
1698921427.549,16,1.9000000000000001,3.3000000000000003,-0.5,0.9,11.5,3.9000000000000004,-6.000000000000001,53.9,-29.900000000000006
1698921427.565,16,-1.1,9.9,-1.7000000000000002,-2.2,18.2,2.6,44.8,29.1,-22.5
1698921427.582,16,-1.7000000000000002,8.3,-3.4000000000000004,-2.9000000000000004,16.7,0.8,51.5,28.400000000000002,-3.7000000000000006
1698921427.599,16,-1.9000000000000001,0.4,2.4000000000000004,-3.1,8.9,6.4,50.0,62.199999999999996,12.9
1698921427.615,16,-3.2,1.3,5.5,-4.4,10.0,9.200000000000001,162.3,-4.9,31.5
1698921427.632,16,-3.2,2.8000000000000003,3.6,-4.1000000000000005,11.8,6.7,249.00000000000003,-129.5,72.7
1698921427.649,16,-2.3000000000000003,2.3000000000000003,4.2,-3.1,11.5,6.9,227.4,-66.3,82.4
1698921427.666,16,0.2,3.5,5.2,-0.4,12.8,7.6000000000000005,51.800000000000004,-26.6,37.900000000000006
1698921427.682,16,0.4,5.1000000000000005,4.1000000000000005,-0.1,14.4,6.7,-48.9,-48.400000000000006,-1.0
1698921427.7,16,0.2,5.5,1.2000000000000002,-0.30000000000000004,14.8,3.9000000000000004,-46.800000000000004,-26.9,12.200000000000001
1698921427.716,16,0.30000000000000004,4.2,-0.2,0.0,13.5,2.6,-36.6,-53.1,41.7
1698921427.732,16,-0.1,1.0,-0.4,-0.2,10.3,2.5,-33.7,-45.5,29.600000000000005
1698921427.749,16,-0.2,-0.1,-0.7000000000000001,-0.30000000000000004,9.1,2.2,-34.400000000000006,-36.5,14.200000000000001
1698921427.766,16,-0.6000000000000001,-2.4000000000000004,-1.4000000000000001,-0.7000000000000001,6.800000000000001,1.7000000000000002,-35.9,-45.7,-4.6000000000000005
1698921427.784,16,-0.8,-4.2,-1.4000000000000001,-0.9,4.9,1.8,-40.5,-26.3,-12.100000000000001
1698921427.798,16,-0.6000000000000001,-5.6000000000000005,-1.6,-0.7000000000000001,3.5,1.7000000000000002,-37.300000000000004,-13.5,-12.8
1698921427.815,16,-0.7000000000000001,-5.7,-1.7000000000000002,-0.8,3.3000000000000003,1.6,-34.0,-10.3,-14.0
1698921427.832,16,-0.9,-5.7,-2.3000000000000003,-1.1,3.2,1.2000000000000002,-26.8,-5.300000000000001,-18.1
1698921427.848,16,-0.9,-5.7,-2.2,-1.1,3.1,1.3,-21.200000000000003,-12.5,-20.8
1698921427.865,16,-0.8,-5.800000000000001,-2.0,-1.1,3.0,1.5,-15.8,-25.0,-21.200000000000003
1698921427.882,16,-0.9,-5.5,-1.9000000000000001,-1.1,3.3000000000000003,1.6,-1.4,-55.0,-17.3
1698921427.898,16,-2.5,-3.1,-2.4000000000000004,-2.7,5.6000000000000005,1.0,4.5,-89.10000000000001,-1.8
1698921427.915,16,-3.8000000000000003,-1.1,-2.4000000000000004,-3.9000000000000004,7.6000000000000005,1.1,3.9,-106.4,11.700000000000001
1698921427.932,16,-3.5,3.3000000000000003,-2.5,-3.4000000000000004,12.0,0.9,-6.1000000000000005,-109.2,38.0
1698921427.949,16,-2.0,5.0,-2.1,-1.8,13.700000000000001,1.4000000000000001,-16.900000000000002,-85.9,37.300000000000004
1698921427.965,16,1.5,7.7,-1.9000000000000001,1.7000000000000002,16.5,1.6,-30.599999999999998,-65.5,-15.000000000000002
1698921427.982,16,1.9000000000000001,6.800000000000001,0.5,2.0,15.600000000000001,4.2,-28.0,-32.7,-72.6
1698921427.998,16,1.5,5.1000000000000005,-1.4000000000000001,1.6,13.9,2.2,-19.3,-2.5,-76.60000000000001
1698921428.015,16,2.4000000000000004,3.1,-2.9000000000000004,2.2,11.9,0.8,-34.800000000000004,2.8,-51.6
1698921428.032,16,5.9,6.2,11.600000000000001,5.7,15.100000000000001,15.4,27.7,0.5,-31.8
1698921428.049,16,5.6000000000000005,4.9,2.6,5.300000000000001,13.9,6.0,152.0,41.7,-57.00000000000001
1698921428.065,16,5.1000000000000005,-0.2,1.9000000000000001,4.7,9.0,5.2,120.9,37.4,-45.800000000000004
1698921428.082,16,-0.6000000000000001,-5.6000000000000005,0.30000000000000004,-1.1,3.6,3.4000000000000004,20.900000000000002,72.10000000000001,6.000000000000001
1698921428.098,16,-3.0,-5.0,1.3,-3.5,4.1000000000000005,4.5,-12.000000000000002,19.9,50.0
1698921428.116,16,-2.5,-4.4,3.5,-2.9000000000000004,4.7,6.6000000000000005,2.9,22.4,54.9
1698921428.132,16,-1.1,1.1,2.9000000000000004,-1.5,10.200000000000001,5.9,57.6,85.80000000000001,15.6
1698921428.148,16,0.8,9.200000000000001,1.9000000000000001,0.30000000000000004,18.5,4.800000000000001,64.0,92.7,-23.2
1698921428.166,16,2.4000000000000004,9.200000000000001,3.4000000000000004,1.7000000000000002,18.5,6.2,12.6,48.9,-83.0
1698921428.182,16,1.4000000000000001,2.0,0.30000000000000004,0.4,11.3,3.2,-33.300000000000004,47.800000000000004,-53.7
1698921428.199,16,0.1,-2.5,-1.4000000000000001,-0.9,6.7,1.6,-47.800000000000004,32.1,18.6
1698921428.215,16,-1.2000000000000002,-3.0,-1.4000000000000001,-2.1,6.2,1.7000000000000002,-50.0,25.5,36.4
1698921428.232,16,-1.7000000000000002,-4.1000000000000005,-1.2000000000000002,-2.6,5.0,2.1,-42.2,8.4,42.900000000000006
1698921428.248,16,-0.9,-4.9,-1.0,-1.7000000000000002,4.1000000000000005,2.3000000000000003,-26.3,15.299999999999999,21.3
1698921428.265,16,-0.6000000000000001,-4.9,-1.4000000000000001,-1.3,4.1000000000000005,1.9000000000000001,-18.8,18.3,7.9
1698921428.282,16,1.4000000000000001,-4.3,-1.5,0.6000000000000001,4.6000000000000005,1.8,-10.0,11.9,-5.9
1698921428.299,16,3.4000000000000004,-3.4000000000000004,-0.8,2.6,5.5,2.6,-5.500000000000001,34.2,-12.000000000000002
1698921428.315,16,4.1000000000000005,-2.7,-1.0,3.2,6.2,2.3000000000000003,-3.8,51.900000000000006,-15.7
1698921428.335,16,4.2,-1.6,-2.1,3.2,7.300000000000001,1.2000000000000002,-11.8,66.4,-19.8
1698921428.349,16,3.9000000000000004,-1.5,-2.2,1.8,7.1000000000000005,0.6000000000000001,-21.400000000000002,68.7,-19.0
1698921428.366,16,1.7000000000000002,-2.1,-4.0,-0.2,6.300000000000001,-1.3,-43.2,67.5,-3.3000000000000003
1698921428.382,16,0.2,-2.5,-4.6000000000000005,-0.9,6.2,-1.0,-77.4,51.400000000000006,20.900000000000002
1698921428.399,16,-0.5,-2.1,-4.4,-1.6,6.4,-0.6000000000000001,-99.0,63.70000000000001,26.9
1698921428.415,16,0.5,-0.4,-4.3,-0.6000000000000001,8.0,-0.30000000000000004,-108.10000000000001,64.10000000000001,12.6
1698921428.432,16,0.8,0.5,-3.2,-0.4,8.8,1.0,-103.7,56.1,-0.5
1698921428.449,16,0.1,1.2000000000000002,-1.4000000000000001,-1.2000000000000002,9.4,2.9000000000000004,-59.1,23.2,-7.300000000000001
1698921428.466,16,-0.6000000000000001,0.8,-0.7000000000000001,-1.9000000000000001,9.0,3.7,-25.400000000000002,6.4,4.3999999999999995
1698921428.482,16,-2.7,-2.7,3.8000000000000003,-4.0,5.6000000000000005,8.0,70.5,62.199999999999996,40.8
1698921428.498,16,-8.6,-1.2000000000000002,3.5,-9.700000000000001,7.4,7.300000000000001,212.7,-20.1,97.7
1698921428.516,16,-6.300000000000001,2.3000000000000003,2.5,-6.9,11.200000000000001,5.4,340.5,-164.8,164.5
1698921428.532,16,-0.4,4.9,5.0,-0.7000000000000001,14.0,7.4,341.1,-78.9,137.0
1698921428.549,16,5.7,13.9,16.3,5.4,23.3,18.0,176.3,-28.200000000000003,-35.5
1698921428.566,16,6.0,13.5,12.200000000000001,5.7,22.900000000000002,13.9,23.5,-168.2,-105.10000000000001
1698921428.582,16,-1.0,7.800000000000001,2.5,-1.5,17.2,4.4,-61.1,7.2,-18.8
1698921428.598,16,0.7000000000000001,4.5,2.5,0.4,14.0,4.5,-15.399999999999999,-52.400000000000006,59.7
1698921428.616,16,0.8,3.7,2.4000000000000004,0.7000000000000001,13.200000000000001,4.4,7.699999999999999,-70.5,51.400000000000006
1698921428.632,16,-0.6000000000000001,3.2,2.9000000000000004,-0.7000000000000001,12.8,4.9,15.2,-14.900000000000002,5.7
1698921428.649,16,-0.6000000000000001,3.3000000000000003,2.6,-0.7000000000000001,12.8,4.7,-8.200000000000001,-27.7,-3.5
1698921428.665,16,-1.1,0.7000000000000001,0.1,-1.1,10.3,2.3000000000000003,-36.7,-18.6,23.900000000000002
1698921428.682,16,-1.5,-0.4,-0.5,-1.5,9.200000000000001,1.7000000000000002,-44.1,-20.1,33.0
1698921428.699,16,-1.9000000000000001,-2.1,-0.7000000000000001,-1.8,7.4,1.7000000000000002,-45.800000000000004,-49.0,33.6
1698921428.715,16,-1.7000000000000002,-3.3000000000000003,-0.5,-1.5,6.2,2.0,-38.7,-49.8,12.700000000000001
1698921428.732,16,-1.8,-3.9000000000000004,-0.4,-1.6,5.5,2.1,-33.6,-45.3,-2.5
1698921428.749,16,-2.2,-4.6000000000000005,-0.7000000000000001,-2.0,4.800000000000001,1.9000000000000001,-24.9,-42.6,-28.6
1698921428.765,16,-2.4000000000000004,-5.0,-0.7000000000000001,-2.3000000000000003,4.3,2.0,-26.500000000000004,-44.6,-38.300000000000004
1698921428.782,16,-2.6,-5.2,-0.8,-2.6,4.1000000000000005,1.9000000000000001,-28.0,-47.5,-39.300000000000004
1698921428.799,16,-2.8000000000000003,-5.5,-2.1,-2.9000000000000004,3.7,0.8,-31.2,-57.3,-37.1
1698921428.815,16,-2.6,-5.5,-3.1,-2.7,3.7,-0.2,-42.2,-78.10000000000001,-32.800000000000004
1698921428.832,16,-2.6,-5.6000000000000005,-3.0,-2.7,3.5,-0.1,-47.900000000000006,-88.5,-30.299999999999997
1698921428.849,16,-1.8,-5.5,-3.0,-1.9000000000000001,3.5,0.1,-51.900000000000006,-104.2,-24.5
1698921428.865,16,-0.5,-4.5,-3.2,-0.5,4.4,0.1,-57.5,-107.5,-24.9
1698921428.882,16,0.4,-3.8000000000000003,-2.9000000000000004,0.4,5.0,0.5,-59.1,-105.10000000000001,-26.3
1698921428.899,16,2.2,-2.0,-2.7,2.2,6.7,0.8,-56.900000000000006,-95.7,-28.200000000000003
1698921428.915,16,3.0,0.5,-1.7000000000000002,3.0,9.200000000000001,1.9000000000000001,-44.7,-92.2,-24.400000000000002
1698921428.932,16,2.5,2.2,-1.1,2.6,10.8,2.6,-31.8,-83.50000000000001,-18.2
1698921428.949,16,1.0,4.4,-1.0,1.2000000000000002,13.100000000000001,2.7,2.6,-48.6,-4.6000000000000005
1698921428.966,16,0.2,1.6,-2.7,0.4,10.4,0.9,23.2,-1.2000000000000002,-5.8
1698921428.982,16,0.0,-0.1,-2.0,0.2,8.6,1.6,26.9,-0.6000000000000001,-11.1
1698921429.0,16,4.2,2.3000000000000003,3.7,4.3,11.100000000000001,7.1000000000000005,54.1,-0.8,-31.900000000000002
1698921429.015,16,5.300000000000001,4.0,5.7,5.1000000000000005,13.0,8.8,144.3,76.4,-74.7
1698921429.032,16,0.7000000000000001,1.7000000000000002,2.2,0.4,10.8,4.800000000000001,161.8,20.5,-54.7
1698921429.049,16,-2.9000000000000004,1.4000000000000001,5.6000000000000005,-3.3000000000000003,10.700000000000001,8.0,125.5,0.2,-8.5
1698921429.065,16,-3.2,5.7,8.700000000000001,-3.5,15.0,10.9,51.2,36.5,37.7
1698921429.082,16,-2.1,6.9,4.3,-2.4000000000000004,16.3,6.5,21.3,60.300000000000004,33.6
1698921429.1,16,2.1,3.7,2.0,1.7000000000000002,13.100000000000001,4.3,-19.0,51.7,-31.5
1698921429.116,16,1.2000000000000002,-0.2,2.2,0.7000000000000001,9.1,4.6000000000000005,-3.0000000000000004,44.00000000000001,-72.0
1698921429.132,16,0.8,-0.5,1.4000000000000001,0.1,8.9,3.7,11.9,46.4,-66.0
1698921429.149,16,1.3,0.7000000000000001,1.0,0.5,10.0,3.3000000000000003,26.400000000000002,35.7,-28.8
1698921429.166,16,1.2000000000000002,1.2000000000000002,1.4000000000000001,0.30000000000000004,10.600000000000001,3.5,25.8,20.900000000000002,21.5
1698921429.182,16,0.9,0.9,1.0,0.2,10.3,3.1,15.7,20.1,41.4
1698921429.199,16,0.4,0.4,0.8,-0.30000000000000004,9.8,2.9000000000000004,-0.7,23.5,50.300000000000004
1698921429.217,16,1.4000000000000001,-1.5,0.30000000000000004,0.9,7.9,2.6,-29.600000000000005,25.8,30.4
1698921429.232,16,1.9000000000000001,-3.0,0.6000000000000001,1.4000000000000001,6.4,2.9000000000000004,-27.3,33.1,0.8
1698921429.249,16,2.3000000000000003,-3.3000000000000003,0.2,1.8,6.1000000000000005,2.6,-22.2,47.0,-7.1000000000000005
1698921429.265,16,2.9000000000000004,-3.9000000000000004,-0.9,2.3000000000000003,5.4,1.5,-18.7,63.70000000000001,-13.700000000000001
1698921429.282,16,2.6,-4.0,-1.2000000000000002,2.0,5.300000000000001,1.2000000000000002,-21.900000000000002,63.0,-11.700000000000001
1698921429.299,16,2.1,-3.1,-1.0,1.5,6.1000000000000005,1.5,-32.6,56.1,4.9
1698921429.315,16,1.5,-1.3,-1.1,0.9,7.9,1.6,-40.0,60.8,20.3
1698921429.332,16,1.1,0.0,-1.1,0.5,9.1,1.6,-44.3,69.9,23.700000000000003
1698921429.349,16,0.7000000000000001,0.1,-1.2000000000000002,0.1,9.200000000000001,1.6,-44.4,74.10000000000001,23.1
1698921429.365,16,0.1,-0.6000000000000001,-2.3000000000000003,-0.5,8.5,0.6000000000000001,-46.7,81.6,20.4
1698921429.382,16,0.0,-1.1,-2.7,-0.7000000000000001,7.9,0.30000000000000004,-50.6,81.5,18.3
1698921429.399,16,-0.2,-2.4000000000000004,-2.6,-0.9,6.6000000000000005,0.5,-55.800000000000004,73.50000000000001,14.3
1698921429.415,16,-0.30000000000000004,-2.9000000000000004,-2.1,-1.0,6.0,1.1,-49.2,70.2,9.0
1698921429.432,16,-0.5,-2.6,-2.3000000000000003,-1.2000000000000002,6.2,1.0,-43.50000000000001,75.2,6.6000000000000005
1698921429.449,16,-0.7000000000000001,-1.4000000000000001,-3.2,-1.5,7.4,0.2,-37.2,80.4,2.9
1698921429.466,16,-0.7000000000000001,0.30000000000000004,-3.3000000000000003,-1.6,9.0,0.1,-35.4,71.30000000000001,0.30000000000000004
1698921429.484,16,-0.1,1.4000000000000001,-3.4000000000000004,-0.6000000000000001,11.200000000000001,0.30000000000000004,-35.199999999999996,63.6,-1.2000000000000002
1698921429.499,16,-0.2,2.8000000000000003,-2.8000000000000003,-1.2000000000000002,11.5,0.7000000000000001,-30.5,42.2,-3.4
1698921429.516,16,-0.7000000000000001,2.1,-2.8000000000000003,-1.7000000000000002,10.8,0.7000000000000001,-22.6,30.4,6.6000000000000005
1698921429.533,16,-0.30000000000000004,0.5,-1.8,-1.3,9.200000000000001,1.7000000000000002,-6.2,24.3,30.299999999999997
1698921429.549,16,-1.7000000000000002,1.5,-1.6,-2.7,10.3,1.8,35.5,42.800000000000004,17.1
1698921429.565,16,-1.2000000000000002,4.5,0.30000000000000004,-2.1,13.4,3.5,60.7,-12.6,24.5
1698921429.583,16,-2.1,4.7,4.0,-3.0,13.600000000000001,7.2,86.0,-44.7,32.300000000000004
1698921429.599,16,-1.6,2.6,5.300000000000001,-2.3000000000000003,11.700000000000001,8.1,165.6,-43.900000000000006,63.300000000000004
1698921429.615,16,0.5,2.4000000000000004,5.2,0.1,11.700000000000001,7.4,170.4,-14.100000000000001,62.300000000000004
1698921429.633,16,0.8,3.5,7.5,0.4,12.9,9.5,136.0,-19.3,44.5
1698921429.649,16,-0.8,5.2,6.7,-1.0,14.600000000000001,8.700000000000001,-16.400000000000002,-67.9,11.6
1698921429.665,16,0.2,3.3000000000000003,1.7000000000000002,0.0,12.700000000000001,3.9000000000000004,-63.800000000000004,25.700000000000003,26.9
1698921429.682,16,1.2000000000000002,0.1,1.2000000000000002,1.1,9.5,3.6,-40.0,-1.0,19.3
1698921429.699,16,1.0,-0.5,1.2000000000000002,0.9,8.8,3.6,-18.0,-25.1,10.600000000000001
1698921429.716,16,-0.30000000000000004,0.2,1.5,-0.30000000000000004,9.600000000000001,3.9000000000000004,18.0,-25.8,7.2
1698921429.733,16,-0.8,1.6,1.6,-0.8,11.0,3.9000000000000004,27.7,-2.5,6.000000000000001
1698921429.749,16,-1.1,1.5,1.5,-1.1,10.9,3.8000000000000003,21.6,-0.2,1.3
1698921429.765,16,-1.7000000000000002,-0.2,0.9,-1.8,9.3,3.2,-13.0,-1.9,-7.1000000000000005
1698921429.782,16,-1.9000000000000001,-2.3000000000000003,0.1,-2.0,7.1000000000000005,2.5,-45.1,-2.7,-5.4
1698921429.798,16,-2.0,-3.5,-0.5,-2.0,5.800000000000001,2.2,-49.3,-8.9,1.0
1698921429.816,16,-1.7000000000000002,-3.7,-0.7000000000000001,-1.8,5.6000000000000005,2.0,-44.2,-13.8,2.3000000000000003
1698921429.832,16,-1.7000000000000002,-3.3000000000000003,-1.0,-1.8,5.9,1.8,-29.1,-21.3,-7.0
1698921429.849,16,-1.9000000000000001,-3.0,-0.9,-2.0,6.2,2.0,-20.900000000000002,-23.5,-14.4
1698921429.865,16,-2.0,-2.1,-0.8,-2.1,7.1000000000000005,2.1,-4.7,-22.7,-26.500000000000004
1698921429.882,16,-1.3,-1.5,-0.9,-1.6,7.6000000000000005,2.0,3.7000000000000006,-34.1,-28.1
1698921429.899,16,-0.9,-1.4000000000000001,-0.8,-1.2000000000000002,7.7,2.0,3.5,-41.1,-25.900000000000002
1698921429.915,16,-0.8,-1.6,-0.9,-1.1,7.6000000000000005,1.9000000000000001,-3.3000000000000003,-54.2,-18.3
1698921429.932,16,-0.7000000000000001,-1.3,-1.2000000000000002,-1.0,7.800000000000001,1.6,-14.200000000000001,-55.2,-8.4
1698921429.949,16,-0.8,-1.1,-1.5,-1.0,8.0,1.5,-16.900000000000002,-58.800000000000004,-4.7
1698921429.965,16,-0.8,-1.1,-1.6,-1.1,8.0,1.3,-17.200000000000003,-71.10000000000001,0.2
1698921429.982,16,-1.0,-1.2000000000000002,-1.6,-1.1,7.800000000000001,1.4000000000000001,-15.5,-78.9,3.2
1698921429.999,16,-1.0,-1.3,-1.5,-1.1,7.7,1.5,-13.700000000000001,-80.0,4.300000000000001
1698921430.016,16,-1.0,-1.3,-1.0,-1.0,7.7,2.0,-6.8,-83.50000000000001,6.6000000000000005
1698921430.035,16,-0.5,-0.5,-0.2,-0.9,8.0,2.5,-1.7,-81.5,7.699999999999999
1698921430.049,16,0.6000000000000001,0.7000000000000001,0.4,0.8,9.700000000000001,3.4000000000000004,12.4,-47.0,1.4
1698921430.065,16,1.1,1.0,0.7000000000000001,1.3,10.0,3.7,14.4,-34.900000000000006,-1.4
1698921430.082,16,1.7000000000000002,1.3,0.4,1.9000000000000001,10.3,3.3000000000000003,11.8,-20.2,-2.8
1698921430.099,16,1.7000000000000002,1.2000000000000002,-0.1,2.0,10.200000000000001,2.8000000000000003,5.1,-15.7,-0.9
1698921430.116,16,0.6000000000000001,0.0,-1.1,0.8,9.1,1.8,-9.8,-8.9,2.6
1698921430.132,16,-0.8,-0.6000000000000001,-1.4000000000000001,-0.5,8.5,1.5,-13.4,-25.8,14.0
1698921430.149,16,-1.8,-0.7000000000000001,-0.9,-1.4000000000000001,8.3,2.0,-9.9,-40.0,25.1
1698921430.166,16,-1.3,0.4,-0.6000000000000001,-0.8,9.5,2.3000000000000003,5.500000000000001,-53.1,41.7
1698921430.182,16,-0.6000000000000001,3.2,-0.7000000000000001,0.0,12.3,2.2,3.0000000000000004,2.1999999999999997,8.0
1698921430.199,16,-0.6000000000000001,1.5,0.0,-0.1,10.600000000000001,2.9000000000000004,6.1000000000000005,-5.500000000000001,-24.9
1698921430.215,16,-0.7000000000000001,0.7000000000000001,0.6000000000000001,-0.2,9.8,3.4000000000000004,15.6,-8.9,-29.000000000000004
1698921430.232,16,-0.5,0.2,0.7000000000000001,-0.1,9.3,3.5,38.900000000000006,-17.5,-27.8
1698921430.248,16,0.6000000000000001,2.5,5.4,0.9,11.700000000000001,8.0,66.4,-21.0,-32.300000000000004
1698921430.265,16,1.4000000000000001,4.3,4.800000000000001,1.6,13.600000000000001,7.300000000000001,85.4,16.5,-47.2
1698921430.282,16,4.0,1.7000000000000002,1.8,4.1000000000000005,11.0,4.1000000000000005,59.00000000000001,14.600000000000001,-80.9
1698921430.298,16,2.2,-2.0,2.8000000000000003,2.1,7.300000000000001,5.1000000000000005,-10.4,9.700000000000001,-43.50000000000001
1698921430.315,16,1.2000000000000002,-1.8,2.1,1.1,7.5,4.5,-12.4,-0.6000000000000001,14.3
1698921430.332,16,0.5,-0.6000000000000001,2.2,0.5,8.700000000000001,4.5,-0.30000000000000004,-3.2,27.2
1698921430.348,16,0.30000000000000004,0.9,1.7000000000000002,0.30000000000000004,10.200000000000001,4.0,29.000000000000004,0.5,19.200000000000003
1698921430.368,16,0.5,0.8,1.5,0.5,10.200000000000001,3.7,37.7,3.3000000000000003,5.300000000000001
1698921430.382,16,1.3,0.5,1.4000000000000001,1.3,9.9,3.5,34.400000000000006,11.9,-12.9
1698921430.398,16,1.2000000000000002,0.4,1.0,1.1,9.8,3.1,16.1,24.6,-12.100000000000001
1698921430.415,16,1.0,0.30000000000000004,0.7000000000000001,0.9,9.700000000000001,2.8000000000000003,8.3,22.900000000000002,-6.8
1698921430.431,16,1.4000000000000001,-0.30000000000000004,0.0,1.3,9.1,2.0,-2.9,13.200000000000001,1.9
1698921430.448,16,1.8,-0.7000000000000001,0.0,1.7000000000000002,8.700000000000001,2.1,-7.1000000000000005,15.2,7.9
1698921430.465,16,1.9000000000000001,-1.2000000000000002,-0.30000000000000004,1.9000000000000001,8.200000000000001,1.8,-6.3,22.5,12.6
1698921430.481,16,1.9000000000000001,-1.4000000000000001,-0.6000000000000001,1.9000000000000001,8.0,1.6,-5.300000000000001,25.2,14.800000000000002
1698921430.498,16,1.4000000000000001,-1.7000000000000002,-0.9,1.4000000000000001,7.6000000000000005,1.2000000000000002,-7.9,22.5,16.5
1698921430.516,16,0.4,-1.3,-1.0,0.5,8.0,1.2000000000000002,-9.9,22.7,18.900000000000002
1698921430.532,16,0.1,-0.9,-1.0,0.2,8.4,1.2000000000000002,-10.0,21.900000000000002,19.200000000000003
1698921430.548,16,-0.2,-0.2,-0.9,-0.1,9.1,1.2000000000000002,-7.699999999999999,20.4,16.2
1698921430.565,16,-0.4,-0.1,-1.0,-0.2,9.200000000000001,1.2000000000000002,-4.300000000000001,21.0,9.200000000000001
1698921430.582,16,-0.30000000000000004,-0.2,-1.0,-0.2,9.1,1.1,-3.7000000000000006,22.6,4.3999999999999995
1698921430.598,16,0.2,-0.5,-1.2000000000000002,0.30000000000000004,8.8,1.0,-5.2,24.6,-5.7
1698921430.615,16,0.5,-0.7000000000000001,-1.4000000000000001,0.6000000000000001,8.5,0.8,-9.9,22.8,-10.5
1698921430.632,16,0.6000000000000001,-0.8,-1.4000000000000001,0.7000000000000001,8.5,0.8,-12.700000000000001,20.7,-10.2
1698921430.651,16,0.6000000000000001,-0.6000000000000001,-1.2000000000000002,0.6000000000000001,8.700000000000001,1.1,-16.700000000000003,19.0,-9.0
1698921430.665,16,1.3,-0.4,-1.4000000000000001,1.3,8.9,0.9,-16.8,20.2,-12.9
1698921430.682,16,1.2000000000000002,-0.4,-1.1,1.1,8.8,1.3,-15.399999999999999,18.6,-16.900000000000002
1698921430.699,16,1.2000000000000002,-0.5,-0.9,1.1,8.700000000000001,1.4000000000000001,-9.600000000000001,36.0,-18.400000000000002
1698921430.715,16,1.5,-0.6000000000000001,-1.4000000000000001,1.3,8.6,1.0,-6.9,44.8,-21.3
1698921430.732,16,1.1,-0.5,-1.4000000000000001,0.8,8.700000000000001,1.0,-7.400000000000001,39.00000000000001,-22.3
1698921430.75,16,0.5,-0.4,-1.4000000000000001,0.2,8.8,1.0,-13.200000000000001,32.0,-11.4
1698921430.765,16,0.4,-0.30000000000000004,-1.2000000000000002,0.1,8.8,1.3,-19.0,30.7,-0.30000000000000004
1698921430.782,16,0.4,-0.2,-1.1,0.0,8.9,1.4000000000000001,-17.8,27.3,1.7
1698921430.798,16,0.30000000000000004,0.30000000000000004,-1.1,-0.1,9.4,1.4000000000000001,-11.3,23.2,-0.30000000000000004
1698921430.82,16,0.6000000000000001,0.5,-1.1,0.2,9.600000000000001,1.4000000000000001,-6.6000000000000005,27.7,-7.9
1698921430.832,16,1.0,0.4,-1.1,0.6000000000000001,9.600000000000001,1.4000000000000001,-5.1,29.900000000000006,-13.5
1698921430.849,16,1.3,0.2,-0.6000000000000001,0.8,9.4,1.9000000000000001,-1.4,41.2,-21.5
1698921430.865,16,1.8,0.7000000000000001,-1.2000000000000002,0.30000000000000004,10.3,1.4000000000000001,-0.30000000000000004,47.400000000000006,-21.6
1698921430.882,16,0.4,1.9000000000000001,-0.4,-0.30000000000000004,11.100000000000001,2.1,-2.9,25.400000000000002,-7.400000000000001
1698921430.898,16,0.1,2.8000000000000003,-0.4,-0.6000000000000001,12.0,2.1,-2.1,20.8,14.900000000000002
1698921430.915,16,0.0,2.5,1.0,-0.6000000000000001,11.700000000000001,3.5,-1.6,10.1,15.5
1698921430.932,16,0.0,2.4000000000000004,2.3000000000000003,-0.6000000000000001,11.600000000000001,4.800000000000001,7.0,3.0000000000000004,11.2
1698921430.948,16,-1.9000000000000001,3.5,3.2,-2.5,12.700000000000001,5.6000000000000005,38.2,-36.1,18.3
1698921430.965,16,-3.1,2.6,1.4000000000000001,-3.4000000000000004,12.0,3.7,55.2,-36.0,53.9
1698921430.981,16,-1.8,1.9000000000000001,0.4,-2.1,11.3,2.7,43.900000000000006,-9.3,52.400000000000006
1698921430.999,16,0.7000000000000001,-1.2000000000000002,1.5,0.5,8.200000000000001,3.6,24.1,22.6,-8.9
1698921431.015,16,1.5,-2.7,2.3000000000000003,1.1,6.7,4.3,22.6,17.599999999999998,-48.300000000000004
1698921431.031,16,1.7000000000000002,-1.2000000000000002,2.0,1.2000000000000002,8.200000000000001,4.0,2.5,30.299999999999997,-30.200000000000003
1698921431.048,16,1.3,0.0,1.9000000000000001,0.7000000000000001,9.3,4.0,-14.0,33.7,-9.200000000000001
1698921431.065,16,0.4,0.4,1.8,-0.1,9.8,4.0,-33.1,33.7,13.200000000000001
1698921431.082,16,-0.4,0.30000000000000004,1.7000000000000002,-1.9000000000000001,9.5,3.8000000000000003,-29.500000000000004,16.1,33.7
1698921431.099,16,-2.4000000000000004,0.0,1.3,-2.8000000000000003,9.4,3.7,-25.1,12.6,40.9
1698921431.115,16,-2.9000000000000004,-0.2,1.0,-3.2,9.1,3.4000000000000004,-16.1,10.600000000000001,38.1
1698921431.131,16,-2.8000000000000003,-0.4,0.9,-3.0,8.700000000000001,3.3000000000000003,-13.3,11.4,25.900000000000002
1698921431.148,16,-2.7,-0.8,0.8,-3.0,8.5,3.3000000000000003,-12.4,18.1,-8.4
1698921431.165,16,-1.5,-0.9,0.7000000000000001,-2.0,8.4,3.3000000000000003,-16.6,21.1,-25.6
1698921431.181,16,-0.9,-0.6000000000000001,0.5,-1.5,8.6,3.0,-19.0,22.4,-15.5
1698921431.198,16,-0.7000000000000001,-0.6000000000000001,0.30000000000000004,-1.3,8.6,3.0,-18.400000000000002,23.700000000000003,-14.200000000000001
1698921431.215,16,-0.5,-0.8,0.2,-1.1,8.4,2.8000000000000003,-13.3,17.1,-12.200000000000001
1698921431.231,16,-0.6000000000000001,-1.1,0.2,-1.3,8.1,2.9000000000000004,-7.699999999999999,16.700000000000003,-4.6000000000000005
1698921431.248,16,-0.7000000000000001,-1.2000000000000002,0.2,-1.4000000000000001,8.0,2.9000000000000004,-5.7,16.1,-1.3
1698921431.265,16,-1.0,-1.1,0.30000000000000004,-1.7000000000000002,8.0,3.0,-3.0000000000000004,13.3,3.0000000000000004
1698921431.282,16,-1.3,-1.0,0.2,-2.0,8.200000000000001,2.9000000000000004,-2.4000000000000004,8.4,7.9
1698921431.299,16,-1.4000000000000001,-0.9,0.1,-2.1,8.3,2.8000000000000003,-2.5,5.0,10.1
1698921431.315,16,-1.6,-0.9,-0.2,-2.3000000000000003,8.3,2.5,-2.1,-0.5,12.4
1698921431.331,16,-1.7000000000000002,-0.9,-0.2,-2.3000000000000003,8.200000000000001,2.5,0.6000000000000001,-3.5,12.6
1698921431.348,16,-1.8,-0.9,-0.2,-2.4000000000000004,8.200000000000001,2.5,3.6,-5.9,12.000000000000002
1698921431.365,16,-2.1,-1.0,0.0,-2.7,8.200000000000001,2.7,12.100000000000001,-10.9,11.8
1698921431.382,16,-2.1,-0.9,0.1,-2.6,8.200000000000001,2.7,15.8,-11.700000000000001,12.000000000000002
1698921431.398,16,-1.6,-0.8,0.2,-2.1,8.4,2.8000000000000003,18.3,-15.2,10.700000000000001
1698921431.415,16,-0.5,-0.30000000000000004,0.8,-1.0,8.9,3.4000000000000004,17.8,-19.700000000000003,6.9
1698921431.432,16,0.4,0.7000000000000001,1.2000000000000002,-0.1,9.9,3.8000000000000003,15.100000000000001,-15.5,-0.6000000000000001
1698921431.448,16,1.0,1.1,1.1,0.5,10.3,3.6,13.0,-12.700000000000001,-3.9
1698921431.465,16,1.7000000000000002,0.9,0.5,1.3,10.100000000000001,3.0,6.4,-11.3,-9.0
1698921431.482,16,1.7000000000000002,0.0,0.4,1.3,9.200000000000001,2.9000000000000004,2.8,-10.3,-9.3
1698921431.498,16,1.2000000000000002,-0.2,0.5,0.8,9.0,3.0,-2.7,-2.5,-0.5
1698921431.515,16,-0.6000000000000001,-0.2,0.6000000000000001,-1.1,9.0,3.1,-3.1,8.4,13.5
1698921431.532,16,-1.4000000000000001,-0.1,0.4,-1.8,9.1,2.9000000000000004,0.6000000000000001,4.2,17.0
1698921431.549,16,-1.6,0.1,0.1,-2.0,9.3,2.6,2.5,0.30000000000000004,15.5
1698921431.565,16,-1.2000000000000002,0.1,-0.1,-1.6,9.3,2.4000000000000004,1.9,-3.1,5.4
1698921431.581,16,-0.2,-0.2,0.2,-0.6000000000000001,9.1,2.7,1.5000000000000002,-12.6,-0.7
1698921431.598,16,-0.1,0.0,0.2,-0.4,9.200000000000001,2.7,1.6,-11.5,-0.7
1698921431.615,16,0.4,0.0,0.1,0.0,9.200000000000001,2.6,1.6,-10.2,-2.6
1698921431.632,16,0.8,-0.1,0.1,0.4,9.200000000000001,2.6,1.5000000000000002,-6.6000000000000005,-2.6
1698921431.649,16,0.8,0.0,0.1,0.5,9.3,2.6,1.3,-4.1000000000000005,-1.0999999999999999
1698921431.665,16,0.6000000000000001,0.30000000000000004,0.0,0.30000000000000004,9.600000000000001,2.5,0.9,-3.3000000000000003,3.0000000000000004
1698921431.682,16,0.1,0.5,-0.2,-0.2,9.8,2.3000000000000003,-0.8,-4.1000000000000005,4.3999999999999995
1698921431.699,16,-0.1,0.4,-0.2,-0.4,9.700000000000001,2.3000000000000003,-1.6,-4.7,3.8
1698921431.715,16,-0.2,0.1,-0.30000000000000004,-0.5,9.3,2.2,-2.1999999999999997,-5.300000000000001,1.6
1698921431.732,16,-0.1,-0.1,-0.30000000000000004,-0.4,9.1,2.2,-2.3000000000000003,-5.0,-0.30000000000000004
1698921431.749,16,0.1,-0.1,-0.2,-0.2,9.1,2.3000000000000003,-1.9,-4.9,-0.9
1698921431.765,16,0.30000000000000004,0.0,-0.2,0.0,9.3,2.3000000000000003,-1.0,-5.4,-1.2000000000000002
1698921431.781,16,0.30000000000000004,0.1,-0.1,0.0,9.4,2.4000000000000004,-1.0,-5.6,-1.2000000000000002
1698921431.799,16,0.30000000000000004,0.2,-0.1,0.1,9.4,2.4000000000000004,-2.7,-4.6000000000000005,1.0999999999999999
1698921431.815,16,0.30000000000000004,0.2,-0.1,0.0,9.4,2.4000000000000004,-3.9,-4.3999999999999995,1.6
1698921431.832,16,0.2,0.0,-0.2,-0.1,9.200000000000001,2.3000000000000003,-5.0,-4.5,1.4
1698921431.849,16,0.2,0.0,-0.2,-0.1,9.200000000000001,2.3000000000000003,-4.800000000000001,-4.0,0.8
1698921431.865,16,0.0,-0.1,-0.30000000000000004,-0.2,9.1,2.3000000000000003,-2.7,-2.1999999999999997,-0.8
1698921431.882,16,0.1,0.0,-0.4,-0.2,9.200000000000001,2.1,-0.7,-1.6,-2.7
1698921431.899,16,0.0,0.0,-0.5,-0.30000000000000004,9.3,2.0,0.1,-1.6,-4.0
1698921431.915,16,0.1,0.1,-0.5,-0.2,9.3,2.1,1.4,-4.1000000000000005,-3.4
1698921431.931,16,0.0,0.1,-0.5,-0.30000000000000004,9.3,2.1,1.9,-5.9,-1.4
1698921431.948,16,0.0,0.1,-0.4,-0.30000000000000004,9.3,2.2,0.9,-5.8,-2.3000000000000003
1698921431.965,16,0.0,0.1,-0.30000000000000004,-0.30000000000000004,9.3,2.2,0.30000000000000004,-6.4,-2.7
1698921431.982,16,0.0,0.1,-0.30000000000000004,-0.30000000000000004,9.3,2.2,-1.3,-6.7,-3.3000000000000003
1698921431.998,16,0.0,0.1,-0.30000000000000004,-0.30000000000000004,9.3,2.2,-1.4,-6.9,-3.7000000000000006
1698921432.015,16,0.0,0.1,-0.4,-0.30000000000000004,9.3,2.1,-1.2000000000000002,-7.699999999999999,-4.3999999999999995
1698921432.032,16,0.0,0.1,-0.4,-0.30000000000000004,9.3,2.1,-0.8,-8.799999999999999,-5.1
1698921432.049,16,0.0,0.1,-0.4,-0.30000000000000004,9.3,2.1,-0.5,-9.200000000000001,-5.0
1698921432.065,16,0.1,0.0,-0.4,-0.2,9.3,2.1,0.0,-10.0,-4.800000000000001
1698921432.082,16,0.2,0.0,-0.30000000000000004,-0.2,9.3,2.1,0.8,-10.0,-4.2
1698921432.098,16,0.2,0.0,-0.2,-0.1,9.3,2.2,1.0,-9.700000000000001,-3.7000000000000006
1698921432.115,16,0.2,0.0,-0.2,-0.1,9.200000000000001,2.2,0.8,-8.5,-3.4
1698921432.132,16,0.2,0.0,-0.2,-0.1,9.3,2.2,0.0,-7.500000000000001,-3.2
1698921432.149,16,0.2,0.0,-0.2,-0.1,9.3,2.2,0.0,-7.0,-3.4
1698921432.165,16,0.2,0.0,-0.2,-0.1,9.200000000000001,2.2,0.5,-5.4,-3.1
1698921432.182,16,0.2,0.0,-0.2,-0.1,9.3,2.2,1.4,-4.1000000000000005,-2.5
1698921432.198,16,0.2,0.0,-0.2,-0.1,9.3,2.1,1.6,-3.4,-2.3000000000000003
1698921432.215,16,0.2,0.0,-0.2,-0.1,9.3,2.1,1.7,-2.8,-1.5000000000000002
1698921432.232,16,0.1,0.1,-0.2,-0.1,9.3,2.1,1.4,-1.0,-0.6000000000000001
1698921432.248,16,0.1,0.1,-0.1,-0.1,9.3,2.2,1.2000000000000002,-0.2,-0.4
1698921432.265,16,0.1,0.1,-0.1,-0.2,9.3,2.2,0.9,0.7,0.1
1698921432.282,16,0.1,0.0,-0.1,-0.2,9.3,2.2,0.6000000000000001,1.4,0.0
1698921432.299,16,0.1,0.0,-0.1,-0.2,9.3,2.2,0.5,2.0,0.1
1698921432.315,16,0.1,0.0,-0.1,-0.2,9.3,2.2,-0.1,3.1,0.5
1698921432.332,16,0.0,0.0,-0.1,-0.30000000000000004,9.3,2.2,-0.30000000000000004,3.9,0.4
1698921432.349,16,0.0,0.0,-0.1,-0.30000000000000004,9.3,2.2,-0.5,4.2,0.1
1698921432.365,16,0.0,0.0,-0.1,-0.2,9.3,2.2,-0.6000000000000001,4.300000000000001,0.5
1698921432.382,16,-0.1,0.0,-0.1,-0.30000000000000004,9.3,2.2,-0.8,3.7000000000000006,1.7
1698921432.399,16,-0.1,0.0,-0.1,-0.4,9.3,2.2,-0.8,3.5,1.3
1698921432.416,16,-0.1,0.1,-0.1,-0.4,9.3,2.1,-0.7,3.2,0.6000000000000001
1698921432.432,16,-0.1,0.1,-0.1,-0.4,9.4,2.1,-0.2,4.5,-1.0
1698921432.448,16,0.0,0.0,-0.1,-0.30000000000000004,9.3,2.1,-0.1,4.3999999999999995,-1.9
1698921432.465,16,0.1,0.0,-0.2,-0.2,9.3,2.1,-0.2,4.1000000000000005,-2.6
1698921432.482,16,0.0,0.1,-0.2,-0.2,9.3,2.1,-1.3,2.8,-1.8
1698921432.499,16,-0.1,0.0,-0.2,-0.4,9.3,2.1,-2.1999999999999997,2.4000000000000004,-1.7
1698921432.515,16,-0.1,0.0,-0.1,-0.5,9.3,2.1,-2.5,2.0,-1.7
1698921432.532,16,-0.2,0.0,-0.1,-0.5,9.3,2.1,-1.8,1.6,-0.7
1698921432.548,16,-0.2,0.0,0.0,-0.6000000000000001,9.3,2.2,-0.6000000000000001,1.7,-0.1
1698921432.565,16,-0.2,0.1,-0.1,-0.5,9.3,2.2,-0.30000000000000004,1.9,-0.1
1698921432.582,16,-0.1,0.0,-0.1,-0.5,9.3,2.2,-0.8,1.2000000000000002,-0.8
1698921432.599,16,-0.1,0.0,0.0,-0.4,9.3,2.2,-1.3,0.2,-1.0999999999999999
1698921432.615,16,-0.1,0.0,0.0,-0.5,9.3,2.2,-0.9,-0.1,-0.9
1698921432.632,16,-0.1,0.0,-0.1,-0.5,9.3,2.2,-0.7,-0.6000000000000001,-0.6000000000000001
1698921432.648,16,0.0,0.0,-0.1,-0.4,9.3,2.1,-1.2000000000000002,-1.3,-0.2
1698921432.665,16,0.0,0.0,-0.1,-0.4,9.3,2.2,-1.8,-1.6,-0.1
1698921432.682,16,0.0,0.0,-0.1,-0.4,9.3,2.1,-2.1999999999999997,-1.6,0.1
1698921432.698,16,-0.1,0.0,-0.1,-0.4,9.3,2.1,-2.1,-2.0,0.2
1698921432.715,16,0.0,0.0,-0.1,-0.4,9.3,2.1,-1.7,-2.9,0.4
1698921432.731,16,0.0,0.0,-0.1,-0.4,9.3,2.1,-1.5000000000000002,-3.0000000000000004,0.30000000000000004
1698921432.748,16,0.0,0.0,-0.1,-0.30000000000000004,9.3,2.2,-1.3,-2.8,0.2
1698921432.765,16,0.0,0.0,0.0,-0.30000000000000004,9.3,2.2,-1.0,-2.1999999999999997,0.2
1698921432.782,16,0.0,0.0,0.0,-0.30000000000000004,9.3,2.2,-1.0999999999999999,-1.5000000000000002,-0.1
1698921432.799,16,0.0,0.0,0.0,-0.4,9.3,2.2,-1.5000000000000002,-1.6,0.1
1698921432.815,16,0.0,0.0,0.0,-0.4,9.3,2.2,-1.8,-1.9,0.2
1698921432.832,16,0.0,0.0,-0.1,-0.4,9.3,2.2,-2.1,-2.6,0.30000000000000004
1698921432.849,16,0.0,0.0,0.0,-0.4,9.3,2.2,-1.7,-2.6,0.1
1698921432.865,16,0.0,0.0,-0.1,-0.4,9.3,2.2,-1.4,-2.4000000000000004,0.1
1698921432.883,16,0.0,0.0,-0.1,-0.4,9.3,2.2,-1.3,-2.0,-0.30000000000000004
1698921432.898,16,0.1,0.0,0.0,-0.30000000000000004,9.3,2.2,-1.3,-2.7,-0.1
1698921432.915,16,0.0,0.0,0.0,-0.30000000000000004,9.3,2.2,-1.3,-2.9,-0.1
1698921432.932,16,0.0,0.0,-0.1,-0.30000000000000004,9.3,2.2,-1.0999999999999999,-2.0,-0.30000000000000004
1698921432.949,16,0.0,0.0,-0.1,-0.30000000000000004,9.3,2.2,-1.0999999999999999,-2.1,-0.2
1698921432.965,16,0.1,0.0,-0.1,-0.30000000000000004,9.3,2.2,-1.2000000000000002,-2.1999999999999997,-0.30000000000000004
1698921432.982,16,0.0,0.0,0.0,-0.30000000000000004,9.3,2.2,-1.4,-2.5,-0.30000000000000004
1698921432.998,16,0.0,0.0,0.0,-0.30000000000000004,9.3,2.2,-1.6,-2.1999999999999997,-0.1
1698921433.015,16,0.0,0.0,0.0,-0.30000000000000004,9.3,2.2,-1.8,-2.1999999999999997,-0.2
1698921433.033,16,0.0,0.0,0.0,-0.30000000000000004,9.3,2.2,-1.8,-2.0,-0.30000000000000004
1698921433.048,16,0.0,0.1,-0.1,-0.4,9.4,2.2,-2.1,-0.9,-0.9
1698921433.065,16,0.0,0.0,-0.1,-0.4,9.3,2.2,-2.1999999999999997,-1.2000000000000002,-1.2000000000000002
1698921433.082,16,0.0,0.0,-0.1,-0.30000000000000004,9.3,2.2,-2.3000000000000003,-2.0,-1.0
1698921433.099,16,0.0,0.0,0.0,-0.4,9.3,2.2,-2.7,-3.0000000000000004,-1.0
1698921433.117,16,-0.1,0.0,0.0,-0.4,9.3,2.2,-2.1,-0.2,-1.5000000000000002
1698921433.132,16,-0.1,0.0,0.0,-0.5,9.3,2.2,-1.4,0.8,-1.0
1698921433.151,16,-0.1,0.0,-0.1,-0.5,9.3,2.2,-0.8,2.8,-0.9
1698921433.166,16,-0.1,0.0,0.0,-0.5,9.3,2.2,-1.0,3.6,-0.9
1698921433.182,16,-0.2,0.1,-0.1,-0.6000000000000001,9.4,2.2,-1.0999999999999999,5.500000000000001,-0.6000000000000001
1698921433.198,16,-0.2,0.1,-0.1,-0.6000000000000001,9.4,2.2,-2.1,6.6000000000000005,-0.30000000000000004
1698921433.215,16,-0.2,0.0,0.0,-0.7000000000000001,9.3,2.2,-3.1,6.000000000000001,0.6000000000000001
1698921433.232,16,-0.30000000000000004,0.0,-0.1,-0.7000000000000001,9.3,2.2,-3.7000000000000006,5.300000000000001,0.8
1698921433.248,16,-0.30000000000000004,0.0,0.0,-0.8,9.3,2.3000000000000003,-4.2,4.800000000000001,1.5000000000000002
1698921433.265,16,-0.4,0.0,0.0,-0.8,9.3,2.3000000000000003,-4.1000000000000005,4.7,1.5000000000000002
1698921433.282,16,-0.30000000000000004,0.0,0.0,-0.8,9.3,2.3000000000000003,-3.5,4.6000000000000005,1.2000000000000002
1698921433.299,16,-0.30000000000000004,0.0,-0.1,-0.8,9.3,2.2,-2.9,4.2,0.7
1698921433.317,16,-0.30000000000000004,0.0,-0.1,-0.8,9.200000000000001,2.2,-2.6,4.6000000000000005,0.7
1698921433.332,16,-0.2,-0.1,-0.1,-0.7000000000000001,9.1,2.2,-2.1,4.2,1.0
1698921433.349,16,-0.2,-0.1,-0.1,-0.7000000000000001,9.1,2.2,-1.7,3.9,1.3
1698921433.365,16,-0.1,-0.1,-0.1,-0.7000000000000001,9.1,2.2,-1.4,4.0,1.6
1698921433.382,16,-0.2,0.0,-0.1,-0.7000000000000001,9.200000000000001,2.3000000000000003,-0.8,4.9,2.1
1698921433.399,16,-0.2,0.0,-0.1,-0.8,9.3,2.2,-0.4,5.0,3.1
1698921433.416,16,-0.1,0.1,-0.1,-0.7000000000000001,9.4,2.2,-0.5,4.9,3.0000000000000004
1698921433.431,16,-0.1,0.2,-0.1,-0.7000000000000001,9.4,2.2,-0.8,6.6000000000000005,1.9
1698921433.448,16,0.0,0.2,-0.1,-0.6000000000000001,9.5,2.2,-1.0999999999999999,7.500000000000001,1.9
1698921433.465,16,0.0,0.2,0.0,-0.5,9.5,2.3000000000000003,-1.8,10.2,2.1
1698921433.482,16,0.1,0.1,0.0,-0.5,9.4,2.3000000000000003,-2.1,14.4,2.6
1698921433.498,16,0.0,0.1,-0.1,-0.5,9.3,2.2,-2.4000000000000004,16.900000000000002,2.5
1698921433.515,16,0.2,-0.1,-0.1,-0.4,9.1,2.2,-3.8,19.400000000000002,3.3000000000000003
1698921433.532,16,0.2,-0.2,-0.1,-0.30000000000000004,9.1,2.3000000000000003,-4.2,20.1,4.0
1698921433.549,16,0.30000000000000004,-0.4,-0.1,-0.30000000000000004,8.9,2.2,-4.1000000000000005,21.5,6.9
1698921433.565,16,0.2,-0.2,-0.1,-0.30000000000000004,9.0,2.2,-3.8,24.6,9.5
1698921433.581,16,0.2,-0.1,0.0,-0.4,9.3,2.6,-3.8,25.2,11.1
1698921433.598,16,0.1,0.0,0.2,-0.4,9.3,2.5,-1.4,26.3,12.700000000000001
1698921433.615,16,0.2,0.0,0.1,-0.30000000000000004,9.3,2.4000000000000004,-0.6000000000000001,25.5,12.8
1698921433.632,16,0.4,-0.1,0.2,-0.1,9.200000000000001,2.6,-2.8,23.700000000000003,13.3
1698921433.649,16,0.5,-0.1,0.30000000000000004,0.1,9.1,2.6,-3.9,22.8,14.0
1698921433.665,16,0.9,-0.30000000000000004,0.2,0.4,9.0,2.6,-5.300000000000001,20.0,14.600000000000001
1698921433.682,16,1.2000000000000002,-0.2,0.2,0.8,9.0,2.6,-5.0,17.5,13.100000000000001
1698921433.7,16,1.3,-0.30000000000000004,0.30000000000000004,0.9,8.9,2.6,-4.3999999999999995,18.0,11.700000000000001
1698921433.715,16,1.5,-0.5,0.2,1.1,8.8,2.6,-3.3000000000000003,22.2,7.2
1698921433.731,16,1.6,-0.5,0.2,1.3,8.9,2.7,-2.5,24.6,3.8
1698921433.749,16,1.8,-0.1,0.30000000000000004,1.4000000000000001,9.1,2.7,0.5,32.0,-0.9
1698921433.765,16,1.5,0.7000000000000001,0.0,1.2000000000000002,10.0,2.4000000000000004,0.8,44.00000000000001,-0.2
1698921433.781,16,1.9000000000000001,1.3,0.1,1.5,10.5,2.5,-0.6000000000000001,47.5,9.4
1698921433.799,16,2.0,0.8,0.0,1.7000000000000002,9.5,2.4000000000000004,-1.3,47.1,15.399999999999999
1698921433.816,16,2.0,-0.1,0.0,1.7000000000000002,9.200000000000001,2.4000000000000004,-4.7,50.2,24.5
1698921433.832,16,2.0,-0.2,0.0,1.7000000000000002,9.1,2.4000000000000004,-5.8,51.300000000000004,26.700000000000003
1698921433.849,16,1.8,0.0,0.1,1.6,9.200000000000001,2.5,-5.9,52.2,29.400000000000002
1698921433.869,16,1.6,0.2,-0.1,1.5,9.5,2.4000000000000004,-6.4,58.00000000000001,29.700000000000003
1698921433.882,16,1.4000000000000001,0.1,0.0,1.3,9.3,2.4000000000000004,-7.300000000000001,62.50000000000001,27.3
1698921433.899,16,1.3,0.0,0.0,1.2000000000000002,9.200000000000001,2.4000000000000004,-7.500000000000001,64.8,25.8
1698921433.915,16,1.2000000000000002,-0.2,-0.1,1.1,9.1,2.4000000000000004,-9.200000000000001,69.4,23.2
1698921433.932,16,1.2000000000000002,-0.2,-0.1,1.1,9.0,2.5,-12.100000000000001,73.30000000000001,20.7
1698921433.948,16,1.3,-0.30000000000000004,0.0,1.2000000000000002,8.9,2.6,-13.200000000000001,76.0,19.0
1698921433.965,16,1.3,-0.4,0.1,1.3,8.8,2.7,-13.0,77.1,18.900000000000002
1698921433.982,16,1.3,-0.5,0.1,1.2000000000000002,8.700000000000001,2.8000000000000003,-11.5,80.6,20.6
1698921433.998,16,1.3,-0.5,0.1,1.3,8.700000000000001,2.7,-10.8,81.0,21.700000000000003
1698921434.016,16,1.3,-0.5,0.1,1.3,8.700000000000001,2.8000000000000003,-10.0,82.7,21.400000000000002
1698921434.032,16,1.4000000000000001,-0.5,0.1,1.3,8.700000000000001,2.8000000000000003,-9.3,85.7,20.2
1698921434.05,16,1.5,-0.5,0.1,1.4000000000000001,8.700000000000001,2.8000000000000003,-6.000000000000001,92.60000000000001,17.9
1698921434.065,16,1.6,-0.5,-0.2,1.6,8.6,2.6,-2.1,97.60000000000001,15.6
1698921434.082,16,2.0,-0.7000000000000001,-0.4,1.9000000000000001,8.4,2.4000000000000004,-2.1999999999999997,98.2,13.0
1698921434.099,16,2.2,-0.8,-0.1,2.1,8.4,2.6,-2.5,98.5,10.700000000000001
1698921434.115,16,2.1,-0.7000000000000001,0.1,2.0,8.4,2.8000000000000003,-0.7,100.10000000000001,10.600000000000001
1698921434.131,16,1.8,-0.2,-0.1,1.6,8.9,2.6,4.2,103.4,12.6
1698921434.148,16,1.5,0.0,-0.1,1.3,9.1,2.6,4.800000000000001,104.60000000000001,14.900000000000002
1698921434.165,16,1.0,0.2,0.30000000000000004,0.7000000000000001,9.3,2.9000000000000004,4.6000000000000005,106.9,22.000000000000004
1698921434.182,16,0.5,0.9,0.7000000000000001,0.2,10.100000000000001,3.4000000000000004,6.7,104.3,28.900000000000002
1698921434.198,16,0.30000000000000004,1.4000000000000001,0.9,0.1,10.5,3.6,6.6000000000000005,99.8,31.7
1698921434.215,16,-0.4,2.1,1.5,-0.6000000000000001,11.3,4.2,2.7,89.8,37.2
1698921434.232,16,-1.5,1.1,0.9,-1.7000000000000002,10.3,3.6,-11.8,97.2,41.300000000000004
1698921434.248,16,-1.8,0.5,0.7000000000000001,-1.9000000000000001,9.700000000000001,3.4000000000000004,-20.7,103.5,41.6
1698921434.265,16,-1.3,0.2,0.2,-1.4000000000000001,9.3,2.9000000000000004,-28.400000000000002,107.6,34.300000000000004
1698921434.282,16,-0.8,0.2,-0.4,-1.0,9.3,2.4000000000000004,-27.400000000000002,104.2,19.8
1698921434.299,16,-0.4,0.1,-0.5,-0.7000000000000001,9.200000000000001,2.4000000000000004,-22.5,101.10000000000001,20.8
1698921434.315,16,-0.5,-0.1,-0.5,-0.8,9.0,2.5,-19.400000000000002,104.1,24.400000000000002
1698921434.332,16,-0.7000000000000001,-0.2,-0.6000000000000001,-1.2000000000000002,8.9,2.3000000000000003,-16.6,108.2,26.500000000000004
1698921434.348,16,-1.1,-0.30000000000000004,-0.7000000000000001,-1.4000000000000001,8.8,2.2,-14.700000000000001,107.8,26.200000000000003
1698921434.365,16,-1.5,-0.30000000000000004,-0.7000000000000001,-1.8,8.8,2.3000000000000003,-14.100000000000001,106.2,28.1
1698921434.382,16,-1.8,-0.30000000000000004,-0.7000000000000001,-2.1,8.8,2.3000000000000003,-11.3,104.5,29.800000000000004
1698921434.399,16,-1.7000000000000002,-0.2,-0.9,-2.1,8.8,2.1,-6.6000000000000005,112.60000000000001,29.700000000000003
1698921434.415,16,-1.6,-0.2,-1.0,-2.0,8.9,2.0,-5.500000000000001,115.8,25.700000000000003
1698921434.432,16,-1.0,-0.2,-1.1,-1.5,8.9,1.9000000000000001,-2.8,113.1,19.0
1698921434.448,16,-0.7000000000000001,-0.30000000000000004,-0.9,-1.2000000000000002,8.8,2.0,2.0,107.30000000000001,21.0
1698921434.465,16,-0.8,-0.2,-0.9,-1.4000000000000001,8.8,2.0,4.3999999999999995,105.60000000000001,23.900000000000002
1698921434.482,16,-1.1,-0.2,-1.0,-1.7000000000000002,8.9,2.0,6.2,103.5,27.2
1698921434.499,16,-1.0,-0.30000000000000004,-0.9,-1.7000000000000002,8.700000000000001,2.0,5.300000000000001,99.6,29.500000000000004
1698921434.515,16,-0.9,-0.4,-0.9,-1.6,8.700000000000001,2.0,4.5,97.10000000000001,31.5
1698921434.531,16,-0.9,-0.1,-0.9,-1.5,9.0,1.9000000000000001,4.0,94.0,35.0
1698921434.548,16,-1.0,0.1,-0.8,-1.6,9.200000000000001,1.9000000000000001,5.9,91.30000000000001,36.4
1698921434.565,16,-1.1,0.30000000000000004,-0.8,-1.7000000000000002,9.4,1.9000000000000001,7.400000000000001,90.8,36.2
1698921434.582,16,-1.2000000000000002,0.4,-0.7000000000000001,-1.8,9.5,2.0,9.700000000000001,91.9,35.5
1698921434.599,16,-1.2000000000000002,0.30000000000000004,-0.6000000000000001,-1.8,9.4,2.0,10.3,90.8,34.2
1698921434.615,16,-1.2000000000000002,0.2,-0.5,-1.8,9.3,2.2,9.4,89.9,32.0
1698921434.631,16,-1.2000000000000002,0.1,-0.30000000000000004,-1.7000000000000002,9.3,2.2,9.0,89.8,31.3
1698921434.648,16,-1.1,-0.1,-0.4,-1.7000000000000002,9.1,2.1,7.400000000000001,87.80000000000001,30.599999999999998
1698921434.665,16,-1.1,-0.1,-0.4,-1.6,9.1,2.1,6.3,86.2,30.599999999999998
1698921434.682,16,-1.2000000000000002,0.0,-0.30000000000000004,-1.7000000000000002,9.200000000000001,2.1,5.2,84.3,31.900000000000002
1698921434.699,16,-1.3,0.2,-0.4,-1.8,9.4,2.0,5.2,83.30000000000001,33.6
1698921434.715,16,-1.3,0.2,-0.4,-1.9000000000000001,9.4,2.0,4.7,82.60000000000001,34.400000000000006
1698921434.732,16,-1.4000000000000001,0.1,-0.30000000000000004,-1.9000000000000001,9.4,2.1,3.4,81.8,35.4
1698921434.748,16,-1.3,0.0,-0.2,-1.9000000000000001,9.3,2.1,2.5,82.2,35.5
1698921434.766,16,-1.2000000000000002,0.0,-0.1,-1.8,9.3,2.2,2.1,82.50000000000001,35.0
1698921434.782,16,-1.0,0.0,-0.1,-1.7000000000000002,9.3,2.2,1.8,81.6,33.400000000000006
1698921434.798,16,-0.9,0.1,-0.1,-1.6,9.4,2.1,1.0,79.8,32.4
1698921434.815,16,-0.9,0.2,-0.2,-1.6,9.5,2.1,0.5,79.8,32.6
1698921434.832,16,-1.0,0.2,-0.2,-1.7000000000000002,9.600000000000001,2.0,-1.6,80.8,34.0
1698921434.848,16,-1.1,0.2,-0.2,-1.8,9.5,2.0,-4.0,79.2,35.5
1698921434.866,16,-1.2000000000000002,0.0,-0.2,-1.8,9.4,2.0,-5.2,77.60000000000001,35.8
1698921434.883,16,-1.3,0.0,-0.1,-1.9000000000000001,9.3,2.1,-6.000000000000001,70.39999999999999,35.0
1698921434.899,16,-1.5,0.1,-0.2,-2.1,9.4,1.9000000000000001,-6.1000000000000005,62.900000000000006,35.4
1698921434.915,16,-1.6,0.1,-0.4,-2.2,9.5,1.7000000000000002,-6.9,57.2,35.6
1698921434.932,16,-1.6,0.30000000000000004,0.2,-2.1,9.600000000000001,2.4000000000000004,-6.1000000000000005,46.1,35.0
1698921434.948,16,-1.6,0.6000000000000001,-0.1,-2.0,10.0,2.1,-2.1,45.9,27.900000000000002
1698921434.966,16,-1.6,0.5,-0.2,-2.1,9.9,2.0,-3.1,43.2,25.1
1698921434.981,16,-1.5,0.2,0.30000000000000004,-2.0,9.600000000000001,2.5,-5.4,36.5,23.700000000000003
1698921434.998,16,-1.4000000000000001,0.7000000000000001,0.7000000000000001,-1.8,10.0,2.9000000000000004,-3.6,32.1,19.0
1698921435.015,16,-1.4000000000000001,0.6000000000000001,0.4,-1.8,10.200000000000001,3.0,-2.1,30.100000000000005,14.900000000000002
1698921435.032,16,-1.3,0.2,0.30000000000000004,-1.7000000000000002,9.600000000000001,2.5,-2.6,24.7,9.600000000000001
1698921435.048,16,-1.3,-0.30000000000000004,0.30000000000000004,-1.6,9.1,2.6,-5.2,15.7,10.1
1698921435.065,16,-1.3,-0.5,0.30000000000000004,-1.6,8.8,2.2,-5.0,11.2,11.6
1698921435.082,16,-1.4000000000000001,-0.6000000000000001,-0.1,-1.8,8.8,2.2,-4.6000000000000005,-0.9,13.9
1698921435.098,16,-1.5,-0.6000000000000001,0.1,-1.8,8.8,2.4000000000000004,-3.2,-4.1000000000000005,16.400000000000002
1698921435.115,16,-1.3,-0.4,-0.1,-1.6,8.9,2.2,0.4,-4.9,12.5
1698921435.132,16,-1.4000000000000001,-0.4,-0.1,-1.6,9.0,2.2,2.0,-7.2,8.600000000000001
1698921435.149,16,-0.8,-0.30000000000000004,0.2,-1.1,9.0,2.4000000000000004,7.2,-6.8,1.0
1698921435.165,16,-0.6000000000000001,-0.2,0.4,-0.8,9.1,2.6,10.5,-8.1,0.1
1698921435.183,16,-0.2,-0.1,0.5,-0.4,9.3,2.6,15.7,-5.9,3.0000000000000004
1698921435.199,16,0.2,-0.30000000000000004,0.6000000000000001,0.0,9.0,2.8000000000000003,15.000000000000002,-6.6000000000000005,5.4
1698921435.215,16,0.4,-0.4,0.8,0.2,8.9,3.0,13.700000000000001,-4.9,7.2
1698921435.233,16,0.5,-0.5,0.9,0.4,8.9,3.0,10.600000000000001,0.5,11.8
1698921435.249,16,0.6000000000000001,-0.4,1.0,0.5,9.0,3.1,7.699999999999999,5.9,13.5
1698921435.265,16,0.5,-0.1,0.9,0.4,9.3,3.0,7.8,18.3,12.6
1698921435.282,16,0.7000000000000001,0.1,0.9,0.6000000000000001,9.5,2.9000000000000004,9.0,21.5,12.6
1698921435.299,16,1.1,-0.1,0.8,1.0,9.3,2.8000000000000003,11.1,25.5,14.4
1698921435.315,16,1.3,-0.5,0.8,1.3,8.9,2.8000000000000003,11.700000000000001,30.000000000000004,18.0
1698921435.331,16,1.4000000000000001,-0.7000000000000001,0.9,1.4000000000000001,8.700000000000001,2.9000000000000004,12.700000000000001,32.300000000000004,19.1
1698921435.348,16,1.6,-0.9,0.9,1.7000000000000002,8.5,2.8000000000000003,14.900000000000002,39.8,19.700000000000003
1698921435.365,16,1.7000000000000002,-0.8,0.9,1.8,8.6,2.8000000000000003,16.2,47.900000000000006,20.7
1698921435.382,16,1.7000000000000002,-0.8,0.9,1.9000000000000001,8.700000000000001,2.8000000000000003,16.6,51.0,22.000000000000004
1698921435.399,16,1.6,-0.4,0.9,1.8,9.0,2.8000000000000003,16.700000000000003,55.800000000000004,26.8
1698921435.415,16,1.5,-0.30000000000000004,0.9,1.7000000000000002,9.200000000000001,2.7,16.3,57.800000000000004,29.600000000000005
1698921435.431,16,1.0,-0.1,0.9,1.4000000000000001,9.3,2.6,14.100000000000001,62.6,35.1
1698921435.448,16,0.8,-0.1,0.8,1.3,9.4,2.5,13.9,63.4,35.8
1698921435.465,16,0.7000000000000001,0.0,0.7000000000000001,1.2000000000000002,9.5,2.4000000000000004,13.9,63.800000000000004,36.3
1698921435.482,16,0.5,0.1,0.7000000000000001,1.1,9.5,2.4000000000000004,13.9,63.800000000000004,38.0
1698921435.499,16,0.30000000000000004,0.0,0.7000000000000001,1.0,9.4,2.4000000000000004,14.200000000000001,62.7,38.800000000000004
1698921435.515,16,0.0,-0.1,0.6000000000000001,0.8,9.4,2.3000000000000003,13.100000000000001,62.4,37.5
1698921435.532,16,-0.1,-0.1,0.6000000000000001,0.7000000000000001,9.4,2.2,11.700000000000001,62.199999999999996,36.1
1698921435.549,16,-0.30000000000000004,0.0,0.6000000000000001,0.6000000000000001,9.5,2.2,8.3,60.8,31.5
1698921435.566,16,-0.4,0.1,0.4,0.5,9.5,2.1,3.8,59.80000000000001,25.700000000000003
1698921435.582,16,-0.4,0.1,0.4,0.6000000000000001,9.4,2.0,-1.2000000000000002,58.7,21.0
1698921435.6,16,-0.4,0.0,0.4,0.6000000000000001,9.4,2.0,-3.3000000000000003,58.00000000000001,19.200000000000003
1698921435.616,16,-0.30000000000000004,0.0,0.30000000000000004,0.7000000000000001,9.4,2.0,-4.9,56.900000000000006,17.8
1698921435.632,16,-0.30000000000000004,-0.1,0.2,0.7000000000000001,9.3,2.0,-7.0,55.0,16.2
1698921435.648,16,-0.2,-0.2,0.2,0.8,9.200000000000001,1.9000000000000001,-8.3,52.2,15.299999999999999
1698921435.665,16,-0.2,-0.2,0.1,0.9,9.1,2.0,-8.799999999999999,51.400000000000006,15.000000000000002
1698921435.682,16,-0.2,-0.30000000000000004,0.1,0.9,9.1,1.9000000000000001,-9.200000000000001,50.7,14.500000000000002
1698921435.699,16,-0.2,-0.30000000000000004,-0.1,0.9,9.0,1.8,-10.0,49.2,13.700000000000001
1698921435.715,16,-0.2,-0.30000000000000004,-0.2,0.8,9.0,1.8,-11.1,48.400000000000006,11.5
1698921435.732,16,-0.2,-0.30000000000000004,-0.30000000000000004,0.8,9.0,1.7000000000000002,-11.3,47.900000000000006,10.4
1698921435.749,16,-0.2,-0.4,-0.4,0.8,8.9,1.7000000000000002,-11.9,47.400000000000006,8.200000000000001
1698921435.765,16,-0.1,-0.4,-0.4,0.9,8.9,1.7000000000000002,-12.5,47.6,6.3
1698921435.782,16,-0.1,-0.4,-0.4,0.9,8.9,1.7000000000000002,-12.3,48.1,5.4
1698921435.799,16,-0.2,-0.4,-0.4,0.8,8.8,1.7000000000000002,-10.5,48.300000000000004,3.8
1698921435.815,16,-0.2,-0.4,-0.5,0.8,8.8,1.6,-8.3,48.9,3.0000000000000004
1698921435.832,16,-0.2,-0.30000000000000004,-0.5,0.7000000000000001,8.9,1.6,-7.6,48.7,3.0000000000000004
1698921435.849,16,-0.30000000000000004,-0.4,-0.4,0.6000000000000001,8.8,1.8,-5.9,48.2,2.5
1698921435.865,16,-0.2,-0.30000000000000004,-0.4,0.6000000000000001,8.9,1.8,-3.5,44.1,1.8
1698921435.882,16,-0.1,-0.2,-0.4,0.7000000000000001,9.0,1.7000000000000002,-3.5,40.8,1.8
1698921435.899,16,-0.2,-0.2,-0.4,0.6000000000000001,9.0,1.8,-4.6000000000000005,40.0,2.0
1698921435.915,16,-0.4,0.0,-0.4,0.30000000000000004,9.200000000000001,1.8,-5.2,38.800000000000004,-0.1
1698921435.932,16,-0.5,0.2,-0.5,0.30000000000000004,9.3,1.7000000000000002,-4.9,38.7,-1.7
1698921435.95,16,-0.30000000000000004,0.30000000000000004,-0.5,0.4,9.4,1.7000000000000002,-5.2,37.900000000000006,-5.4
1698921435.965,16,-0.1,0.2,-0.6000000000000001,0.5,9.4,1.6,-6.000000000000001,37.900000000000006,-7.699999999999999
1698921435.982,16,0.0,0.2,-0.7000000000000001,0.7000000000000001,9.3,1.6,-6.8,38.900000000000006,-8.1
1698921435.999,16,0.30000000000000004,0.2,-0.4,0.8,9.4,1.9000000000000001,-8.5,43.800000000000004,-8.600000000000001
