msFromStart,interval,accx,accy,accz,accGx,accGy,accGz,rotRate_alpha,rotRate_beta,rotRate_gamma
1698420068013.0,16,0.0,0.0,0.0,0.2,9.5,0.1,0.0,0.1,-0.5
1698420068029.0,16,0.0,0.0,0.0,0.2,9.5,0.1,0.2,0.2,-0.5
1698420068046.0,16,0.0,0.0,0.0,0.2,9.5,0.1,0.0,0.2,-0.2
1698420068063.0,16,0.0,0.0,0.0,0.2,9.5,0.1,0.0,0.30000000000000004,-0.2
1698420068080.0,16,0.0,0.0,-0.1,0.30000000000000004,9.5,0.0,-0.2,0.30000000000000004,-0.1
1698420068096.0,16,0.0,0.0,0.0,0.2,9.5,0.0,-0.5,0.5,-0.2
1698420068113.0,16,0.0,0.0,0.1,0.2,9.4,0.2,0.0,0.4,-0.2
1698420068129.0,16,0.0,0.0,0.0,0.2,9.4,0.1,0.6000000000000001,0.2,0.2
1698420068147.0,16,0.0,0.1,-0.1,0.2,9.5,0.0,-0.6000000000000001,0.2,0.0
1698420068163.0,16,0.0,0.1,-0.1,0.30000000000000004,9.5,0.0,-1.0,0.30000000000000004,-0.1
1698420068180.0,16,0.0,0.0,-0.1,0.2,9.5,0.0,-1.6,0.6000000000000001,-0.2
1698420068196.0,16,0.0,-0.1,0.0,0.2,9.4,0.1,-1.5000000000000002,0.9,-0.4
1698420068213.0,16,0.0,0.0,0.0,0.2,9.4,0.1,-1.0999999999999999,0.9,-0.4
1698420068229.0,16,0.0,0.0,0.0,0.2,9.5,0.2,-1.2000000000000002,0.7,-0.4
1698420068246.0,16,0.0,0.0,0.0,0.2,9.5,0.2,-1.0999999999999999,0.6000000000000001,-0.2
1698420068262.0,16,0.0,0.0,0.0,0.2,9.5,0.2,-1.0999999999999999,0.8,-0.2
1698420068279.0,16,0.0,0.0,0.0,0.2,9.5,0.1,-1.0999999999999999,0.8,-0.2
1698420068297.0,16,0.0,0.0,-0.1,0.2,9.5,0.1,-1.2000000000000002,0.8,-0.2
1698420068313.0,16,0.0,0.0,-0.1,0.2,9.5,0.1,-1.3,1.0,-0.30000000000000004
1698420068331.0,16,0.0,0.0,0.0,0.2,9.5,0.1,-1.2000000000000002,0.9,-0.4
1698420068346.0,16,0.0,0.0,0.0,0.2,9.5,0.1,-1.2000000000000002,1.0999999999999999,-0.30000000000000004
1698420068365.0,16,0.0,0.0,0.0,0.2,9.5,0.1,-1.2000000000000002,1.2000000000000002,-0.4
1698420068380.0,16,0.0,0.0,0.0,0.2,9.5,0.1,-1.0,1.3,-0.4
1698420068398.0,16,0.0,0.0,0.0,0.2,9.4,0.1,-0.9,1.3,-0.30000000000000004
1698420068412.0,16,0.0,0.0,0.0,0.2,9.4,0.1,-1.0,0.9,-0.2
1698420068429.0,16,0.0,0.0,0.0,0.2,9.4,0.1,-0.9,0.9,-0.2
1698420068447.0,16,0.0,0.0,0.0,0.2,9.5,0.2,-0.9,1.0999999999999999,-0.30000000000000004
1698420068462.0,16,0.0,0.0,0.0,0.2,9.5,0.2,-1.0,1.0,-0.4
1698420068480.0,16,0.0,0.0,0.0,0.2,9.5,0.1,-0.8,1.0999999999999999,-0.2
1698420068496.0,16,0.0,0.0,0.0,0.2,9.5,0.1,-0.6000000000000001,1.0999999999999999,-0.1
1698420068513.0,16,0.0,0.0,0.0,0.2,9.5,0.1,-0.5,1.4,0.1
1698420068529.0,16,0.0,0.0,0.0,0.2,9.5,0.2,-0.4,1.3,-0.1
1698420068546.0,16,-0.1,0.0,0.1,0.2,9.4,0.2,0.6000000000000001,1.4,0.1
1698420068562.0,16,0.0,0.0,0.0,0.2,9.5,0.2,0.6000000000000001,1.0999999999999999,0.1
1698420068579.0,16,0.0,0.0,0.0,0.2,9.5,0.2,0.5,1.3,0.0
1698420068596.0,16,0.0,0.0,0.0,0.2,9.5,0.1,0.30000000000000004,1.2000000000000002,-0.1
1698420068612.0,16,0.0,0.0,0.0,0.2,9.5,0.1,0.2,1.0999999999999999,-0.2
1698420068630.0,16,0.0,0.0,-0.1,0.2,9.5,0.1,0.30000000000000004,1.2000000000000002,-0.2
1698420068646.0,16,0.0,-0.1,0.1,0.2,9.4,0.2,0.4,1.0999999999999999,-0.5
1698420068663.0,16,0.0,0.0,0.0,0.2,9.5,0.2,0.5,1.3,-0.4
1698420068680.0,16,0.0,0.0,0.1,0.2,9.5,0.2,0.4,1.0,-0.5
1698420068696.0,16,0.0,0.0,0.0,0.2,9.5,0.2,0.5,0.9,-0.30000000000000004
1698420068712.0,16,0.0,0.0,0.0,0.2,9.5,0.2,0.4,0.6000000000000001,-0.2
1698420068729.0,16,0.0,0.0,0.0,0.2,9.5,0.2,0.5,0.5,-0.30000000000000004
1698420068746.0,16,0.0,0.0,0.0,0.2,9.4,0.2,0.6000000000000001,0.5,-0.2
1698420068762.0,16,0.0,0.0,0.0,0.2,9.5,0.2,0.6000000000000001,0.4,-0.2
1698420068780.0,16,0.0,0.0,0.0,0.2,9.5,0.2,0.7,0.1,0.0
1698420068796.0,16,0.0,0.0,0.0,0.2,9.5,0.2,0.8,0.0,0.1
1698420068812.0,16,0.0,0.0,0.0,0.2,9.5,0.2,0.8,-0.1,0.1
1698420068831.0,16,0.0,0.0,0.0,0.2,9.5,0.2,0.7,-0.2,0.0
1698420068847.0,16,0.0,0.0,0.0,0.2,9.5,0.2,0.7,-0.4,0.1
1698420068863.0,16,0.0,0.0,0.0,0.2,9.5,0.1,0.5,-0.6000000000000001,0.0
1698420068879.0,16,0.0,0.0,0.0,0.2,9.5,0.2,0.30000000000000004,-0.7,0.1
1698420068896.0,16,0.0,0.0,0.0,0.2,9.5,0.1,0.30000000000000004,-0.7,0.0
1698420068912.0,16,0.0,0.0,0.0,0.2,9.5,0.2,0.30000000000000004,-0.8,-0.1
1698420068929.0,16,0.0,0.0,0.0,0.2,9.5,0.1,0.30000000000000004,-0.8,-0.2
1698420068947.0,16,0.0,0.0,0.0,0.2,9.5,0.2,0.5,-0.7,0.0
1698420068963.0,16,0.0,0.0,0.0,0.2,9.5,0.1,0.2,-0.8,-0.1
1698420068979.0,16,0.0,0.0,0.0,0.2,9.5,0.1,0.1,-0.8,-0.1
1698420068996.0,16,0.0,0.0,0.0,0.2,9.5,0.1,0.0,-0.7,-0.2
1698420069014.0,16,0.0,0.0,0.0,0.2,9.5,0.2,0.0,-0.8,-0.1
1698420069032.0,16,0.0,0.0,0.0,0.2,9.5,0.2,0.5,-0.9,-0.1
1698420069046.0,16,0.0,0.0,0.0,0.2,9.5,0.2,0.5,-0.9,-0.2
1698420069063.0,16,0.0,0.0,0.0,0.2,9.5,0.1,0.5,-0.9,-0.30000000000000004
1698420069080.0,16,0.0,0.0,0.0,0.2,9.5,0.1,0.5,-1.0999999999999999,-0.2
1698420069096.0,16,0.0,0.0,0.0,0.2,9.5,0.1,0.4,-1.3,0.0
1698420069113.0,16,0.0,0.0,0.0,0.2,9.5,0.1,0.2,-1.5000000000000002,0.1
1698420069130.0,16,0.0,0.0,0.0,0.2,9.5,0.1,0.2,-1.6,0.0
1698420069146.0,16,0.0,0.0,0.0,0.2,9.5,0.1,0.4,-1.8,0.2
1698420069163.0,16,0.0,0.0,-0.1,0.2,9.5,0.0,0.30000000000000004,-1.9,0.30000000000000004
1698420069179.0,16,0.0,0.0,0.0,0.2,9.5,0.1,0.1,-1.5000000000000002,0.2
1698420069196.0,16,0.0,0.0,0.0,0.2,9.5,0.1,0.2,-1.4,0.2
1698420069212.0,16,0.0,0.0,0.0,0.2,9.4,0.1,0.6000000000000001,-1.5000000000000002,0.30000000000000004
1698420069231.0,16,0.0,0.0,0.0,0.2,9.5,0.1,1.0,-1.5000000000000002,0.30000000000000004
1698420069246.0,16,0.0,0.0,0.0,0.2,9.5,0.1,1.0999999999999999,-1.5000000000000002,0.4
1698420069262.0,16,0.0,0.0,0.0,0.2,9.5,0.1,1.4,-1.2000000000000002,0.30000000000000004
1698420069280.0,16,0.0,0.0,0.0,0.2,9.5,0.1,1.6,-1.0999999999999999,0.2
1698420069296.0,16,0.0,0.0,0.0,0.2,9.5,0.1,1.6,-1.0999999999999999,0.1
1698420069313.0,16,0.0,0.0,0.0,0.2,9.5,0.1,1.7,-0.9,0.0
1698420069330.0,16,0.0,0.0,0.0,0.2,9.5,0.0,1.9,-0.6000000000000001,0.1
1698420069346.0,16,0.0,0.1,0.0,0.2,9.5,0.1,2.0,-0.30000000000000004,0.1
1698420069363.0,16,0.0,0.0,0.0,0.2,9.5,0.0,2.3000000000000003,-0.30000000000000004,0.2
1698420069379.0,16,0.0,0.0,0.0,0.2,9.4,0.1,2.6,-0.30000000000000004,0.4
1698420069396.0,16,0.0,0.0,0.0,0.2,9.5,0.1,2.6,-0.1,0.4
1698420069413.0,16,0.0,-0.1,0.1,0.2,9.4,0.1,2.8,0.0,0.2
1698420069430.0,16,0.0,0.0,0.1,0.2,9.5,0.1,2.8,0.1,0.1
1698420069447.0,16,0.0,0.0,0.1,0.2,9.5,0.1,2.8,0.0,0.1
1698420069465.0,16,0.0,0.0,0.0,0.2,9.5,0.1,2.8,0.2,0.1
1698420069481.0,16,0.0,0.0,0.0,0.2,9.5,0.1,2.5,0.0,0.0
1698420069496.0,16,0.0,0.1,0.0,0.2,9.5,0.0,2.1999999999999997,0.30000000000000004,-0.1
1698420069513.0,16,0.0,0.1,0.0,0.2,9.600000000000001,0.0,1.3,0.2,-0.1
1698420069529.0,16,0.0,0.1,-0.1,0.2,9.5,-0.1,0.6000000000000001,-0.1,0.2
1698420069546.0,16,0.0,0.1,-0.1,0.2,9.600000000000001,-0.1,0.30000000000000004,-0.1,0.30000000000000004
1698420069563.0,16,0.0,0.0,0.0,0.2,9.5,0.0,-0.5,-0.1,0.30000000000000004
1698420069579.0,16,0.0,0.0,0.0,0.2,9.5,0.0,-1.0999999999999999,0.0,0.1
1698420069596.0,16,0.0,0.0,0.0,0.2,9.5,0.0,-1.5000000000000002,-0.1,0.1
1698420069612.0,16,0.0,0.0,-0.1,0.2,9.5,0.0,-1.6,-0.1,0.1
1698420069629.0,16,0.0,0.0,0.0,0.2,9.5,0.0,-1.9,-0.2,0.1
1698420069645.0,16,0.0,0.0,0.0,0.2,9.5,0.0,-1.8,-0.30000000000000004,0.2
1698420069663.0,16,0.0,-0.1,0.0,0.2,9.4,0.0,-1.8,-0.2,0.1
1698420069679.0,16,0.0,0.0,0.0,0.2,9.4,0.0,-1.7,-0.1,0.2
1698420069696.0,16,0.0,0.0,0.0,0.2,9.4,0.0,-1.4,0.0,0.2
1698420069713.0,16,0.0,0.0,0.0,0.2,9.4,0.0,-1.0999999999999999,0.0,0.1
1698420069729.0,16,0.0,0.0,-0.1,0.2,9.5,0.0,-0.8,0.0,0.30000000000000004
1698420069746.0,16,0.0,0.0,-0.1,0.2,9.5,0.0,-0.30000000000000004,0.1,0.30000000000000004
1698420069763.0,16,0.0,0.0,-0.1,0.2,9.5,0.0,-0.2,0.0,0.30000000000000004
1698420069779.0,16,0.0,0.0,0.0,0.2,9.5,0.0,0.0,0.0,0.30000000000000004
1698420069796.0,16,0.0,0.0,0.0,0.2,9.5,0.0,0.0,-0.1,0.2
1698420069813.0,16,0.0,0.0,0.0,0.2,9.5,0.0,0.0,0.0,0.30000000000000004
1698420069829.0,16,0.0,0.0,0.0,0.2,9.5,0.0,0.2,-0.1,0.30000000000000004
1698420069846.0,16,0.0,0.0,0.0,0.2,9.5,0.1,0.2,0.0,0.30000000000000004
1698420069862.0,16,0.0,0.0,0.0,0.2,9.5,0.0,0.4,-0.1,0.4
1698420069879.0,16,0.0,0.0,0.0,0.2,9.5,0.0,0.30000000000000004,-0.1,0.4
1698420069896.0,16,0.0,0.0,0.0,0.2,9.5,0.1,0.2,-0.1,0.4
1698420069913.0,16,0.0,0.0,0.0,0.2,9.5,0.0,0.30000000000000004,-0.1,0.4
1698420069929.0,16,0.0,0.0,0.0,0.2,9.5,0.0,0.2,-0.30000000000000004,0.4
1698420069947.0,16,0.0,0.0,0.1,0.2,9.5,0.1,0.2,-0.1,0.4
1698420069962.0,16,0.0,0.0,0.0,0.2,9.5,0.1,0.0,-0.30000000000000004,0.2
1698420069980.0,16,0.0,0.0,0.1,0.2,9.5,0.1,0.0,-0.5,0.4
1698420069996.0,16,0.0,0.0,0.0,0.2,9.5,0.1,0.0,-0.4,0.4
1698420070013.0,16,0.0,0.0,0.0,0.2,9.5,0.1,0.2,-0.4,0.5
1698420070029.0,16,0.0,0.0,0.0,0.2,9.5,0.1,0.1,-0.4,0.30000000000000004
1698420070045.0,16,0.0,0.0,0.0,0.2,9.5,0.1,-0.1,-0.6000000000000001,0.30000000000000004
1698420070062.0,16,0.0,0.0,0.0,0.2,9.5,0.1,-0.2,-0.6000000000000001,0.30000000000000004
1698420070079.0,16,0.0,0.0,0.0,0.2,9.5,0.1,-0.1,-0.6000000000000001,0.2
1698420070096.0,16,0.0,0.0,0.0,0.2,9.5,0.1,-0.30000000000000004,-0.5,0.30000000000000004
1698420070113.0,16,0.0,0.0,0.0,0.2,9.5,0.1,-0.4,-0.6000000000000001,0.1
1698420070129.0,16,0.0,0.0,0.0,0.30000000000000004,9.5,0.1,-0.7,-0.4,0.1
1698420070146.0,16,0.0,0.1,0.0,0.30000000000000004,9.5,0.1,-0.7,-0.5,0.0
1698420070163.0,16,0.0,0.0,0.0,0.2,9.5,0.1,-0.7,-0.30000000000000004,-0.2
1698420070179.0,16,-0.1,0.0,0.0,0.2,9.5,0.0,-0.6000000000000001,-0.30000000000000004,0.1
1698420070196.0,16,0.0,0.0,0.0,0.2,9.4,0.1,-0.6000000000000001,-0.5,0.30000000000000004
1698420070213.0,16,0.0,0.0,0.0,0.2,9.5,0.1,-0.7,-0.5,0.30000000000000004
1698420070229.0,16,0.0,0.0,0.0,0.2,9.5,0.1,-0.6000000000000001,-0.5,0.1
1698420070246.0,16,0.0,0.0,0.0,0.2,9.5,0.1,-0.5,-0.6000000000000001,0.1
1698420070262.0,16,0.0,0.0,0.0,0.2,9.5,0.1,-0.5,-0.5,0.1
1698420070279.0,16,0.0,0.0,0.0,0.2,9.5,0.1,-0.4,-0.4,0.0
1698420070297.0,16,0.0,0.0,0.0,0.2,9.5,0.1,-0.30000000000000004,-0.30000000000000004,-0.1
1698420070313.0,16,0.0,0.0,0.0,0.2,9.5,0.1,-0.30000000000000004,-0.2,-0.1
1698420070329.0,16,0.0,0.0,0.0,0.2,9.5,0.1,-0.30000000000000004,0.0,-0.2
1698420070346.0,16,0.0,0.0,0.0,0.2,9.4,0.1,-0.2,-0.30000000000000004,0.0
1698420070362.0,16,0.0,0.0,0.0,0.2,9.4,0.1,-0.30000000000000004,-0.1,0.0
1698420070379.0,16,0.0,0.0,0.0,0.2,9.5,0.1,-0.30000000000000004,0.0,-0.1
1698420070396.0,16,0.0,0.0,0.0,0.2,9.5,0.1,-0.30000000000000004,0.0,-0.2
1698420070412.0,16,0.0,0.0,0.0,0.2,9.5,0.1,-0.4,-0.1,0.0
1698420070430.0,16,0.0,0.0,0.0,0.2,9.5,0.1,-0.30000000000000004,-0.1,-0.1
1698420070447.0,16,0.0,0.0,0.0,0.2,9.5,0.1,-0.30000000000000004,-0.1,0.1
1698420070463.0,16,0.0,0.0,0.0,0.2,9.5,0.1,-0.30000000000000004,0.0,0.0
1698420070479.0,16,0.0,0.0,0.0,0.30000000000000004,9.5,0.1,-0.30000000000000004,0.0,-0.1
1698420070496.0,16,0.0,0.0,0.0,0.2,9.5,0.1,-0.1,-0.2,0.0
1698420070512.0,16,0.0,0.0,0.0,0.2,9.5,0.1,-0.1,-0.30000000000000004,0.1
1698420070531.0,16,0.0,0.0,0.0,0.2,9.5,0.1,-0.1,-0.30000000000000004,0.0
1698420070546.0,16,0.0,0.0,0.0,0.2,9.5,0.1,0.0,-0.1,-0.1
1698420070563.0,16,0.0,0.0,0.0,0.2,9.5,0.1,0.0,0.1,-0.1
1698420070580.0,16,0.0,0.0,0.0,0.2,9.5,0.1,0.0,0.0,-0.1
1698420070596.0,16,0.0,0.0,0.0,0.2,9.5,0.1,0.1,-0.2,-0.1
1698420070615.0,16,0.0,0.0,0.0,0.2,9.5,0.1,0.0,-0.2,-0.1
1698420070630.0,16,0.0,0.0,0.0,0.2,9.5,0.1,0.1,-0.1,-0.1
1698420070646.0,16,0.0,0.0,0.0,0.2,9.5,0.1,0.2,-0.1,0.0
1698420070663.0,16,0.0,0.0,0.0,0.2,9.5,0.1,0.2,0.1,0.1
1698420070680.0,16,0.0,0.0,0.0,0.2,9.5,0.1,0.2,-0.1,0.1
1698420070696.0,16,0.0,0.0,0.0,0.2,9.5,0.1,0.2,-0.30000000000000004,0.1
1698420070713.0,16,0.0,0.0,0.0,0.2,9.5,0.1,0.1,-0.5,0.0
1698420070730.0,16,0.0,0.0,0.0,0.2,9.5,0.1,0.2,-0.5,0.0
1698420070747.0,16,0.0,0.0,0.0,0.2,9.5,0.1,0.30000000000000004,-0.6000000000000001,0.2
1698420070762.0,16,0.0,0.0,0.0,0.2,9.5,0.0,0.1,-0.6000000000000001,0.1
1698420070779.0,16,0.0,0.0,0.0,0.2,9.5,0.1,0.1,-0.6000000000000001,0.2
1698420070796.0,16,0.0,0.0,0.0,0.2,9.5,0.1,0.2,-0.4,0.2
1698420070813.0,16,0.0,0.0,0.0,0.2,9.5,0.1,0.30000000000000004,-0.5,0.1
1698420070829.0,16,0.0,0.0,0.0,0.2,9.5,0.1,0.30000000000000004,-0.5,0.1
1698420070845.0,16,0.0,0.0,0.0,0.2,9.5,0.1,0.30000000000000004,-0.5,0.1
1698420070862.0,16,0.0,0.0,0.0,0.2,9.5,0.1,0.2,-0.4,0.1
1698420070879.0,16,0.1,0.0,0.0,0.30000000000000004,9.5,0.1,0.2,-0.4,0.1
1698420070895.0,16,0.0,0.0,0.0,0.30000000000000004,9.5,0.1,0.30000000000000004,-0.4,-0.1
1698420070912.0,16,0.0,0.0,0.0,0.2,9.5,0.0,0.0,-0.4,-0.2
1698420070929.0,16,0.0,0.1,0.0,0.2,9.5,0.1,-0.1,-0.4,-0.2
1698420070946.0,16,0.0,0.1,0.0,0.2,9.600000000000001,0.1,-0.1,-0.30000000000000004,-0.2
1698420070962.0,16,0.0,0.0,0.0,0.2,9.5,0.0,0.0,-0.30000000000000004,-0.1
1698420070979.0,16,0.0,0.0,0.0,0.2,9.5,0.0,0.0,-0.4,-0.1
1698420070996.0,16,0.0,0.0,0.0,0.2,9.4,0.0,0.0,-0.4,0.1
1698420071013.0,16,0.0,0.0,0.0,0.2,9.4,0.1,0.1,-0.4,-0.1
1698420071029.0,16,0.0,0.0,0.0,0.2,9.4,0.1,0.2,-0.4,-0.2
1698420071046.0,16,0.0,0.0,0.0,0.2,9.4,0.1,0.1,-0.30000000000000004,-0.2
1698420071063.0,16,0.0,0.0,0.0,0.2,9.5,0.1,0.30000000000000004,-0.30000000000000004,-0.2
1698420071079.0,16,0.0,0.0,0.0,0.2,9.5,0.0,0.30000000000000004,-0.5,-0.2
1698420071096.0,16,0.0,0.0,0.0,0.2,9.5,0.0,0.5,-0.30000000000000004,-0.2
1698420071113.0,16,0.0,0.0,0.0,0.2,9.5,0.0,0.5,-0.30000000000000004,-0.2
1698420071129.0,16,0.0,0.0,0.0,0.2,9.5,0.0,0.5,-0.1,-0.2
1698420071146.0,16,0.0,0.0,0.0,0.2,9.4,0.1,0.5,-0.30000000000000004,-0.1
1698420071162.0,16,0.0,0.0,0.0,0.2,9.5,0.1,0.30000000000000004,-0.1,0.1
1698420071179.0,16,0.0,0.0,0.0,0.2,9.5,0.1,0.30000000000000004,-0.1,-0.1
1698420071196.0,16,0.0,0.0,0.0,0.2,9.5,0.1,0.4,-0.1,0.0
1698420071212.0,16,0.0,0.0,0.0,0.2,9.5,0.0,0.2,-0.1,0.1
1698420071229.0,16,0.0,0.0,0.0,0.2,9.5,0.0,0.1,-0.2,0.1
1698420071246.0,16,0.0,0.0,0.0,0.2,9.5,0.0,0.1,-0.4,0.1
1698420071263.0,16,0.0,0.0,0.0,0.2,9.5,0.1,0.2,-0.30000000000000004,0.0
1698420071279.0,16,0.0,0.0,0.0,0.2,9.5,0.1,0.30000000000000004,-0.5,0.1
1698420071296.0,16,0.0,0.0,0.0,0.2,9.5,0.1,0.0,-0.6000000000000001,0.1
1698420071313.0,16,0.0,0.0,0.0,0.2,9.5,0.1,-0.30000000000000004,-0.8,0.1
1698420071329.0,16,0.0,0.0,0.0,0.2,9.5,0.1,-0.5,-0.6000000000000001,0.1
1698420071346.0,16,0.0,0.0,0.1,0.2,9.5,0.1,-0.30000000000000004,-0.6000000000000001,0.1
1698420071362.0,16,0.0,0.0,-0.1,0.2,9.5,0.0,-0.30000000000000004,-0.6000000000000001,-0.1
1698420071379.0,16,0.0,0.0,-0.1,0.30000000000000004,9.5,0.0,-1.2000000000000002,-0.7,-0.1
1698420071396.0,16,0.0,0.0,0.0,0.30000000000000004,9.5,0.0,-1.8,-0.6000000000000001,-0.2
1698420071413.0,16,0.0,0.0,-0.1,0.2,9.5,0.0,-2.0,-0.6000000000000001,-0.2
1698420071430.0,16,0.0,0.0,0.0,0.30000000000000004,9.5,0.0,-2.0,0.0,-0.2
1698420071445.0,16,0.0,0.0,0.0,0.2,9.5,0.0,-1.9,0.0,-0.30000000000000004
1698420071462.0,16,0.0,0.0,0.0,0.2,9.5,0.1,-1.9,-0.1,-0.2
1698420071479.0,16,0.0,0.0,0.0,0.30000000000000004,9.5,0.1,-1.9,0.0,-0.4
1698420071496.0,16,0.0,0.0,0.0,0.30000000000000004,9.5,0.1,-1.9,0.2,-0.4
1698420071513.0,16,0.0,0.0,0.0,0.2,9.5,0.0,-1.6,0.2,-0.4
1698420071530.0,16,0.0,0.0,-0.1,0.2,9.5,0.0,-1.4,0.6000000000000001,-0.2
1698420071546.0,16,0.0,0.0,-0.1,0.30000000000000004,9.5,0.0,-1.2000000000000002,0.5,-0.1
1698420071562.0,16,0.0,0.0,0.0,0.30000000000000004,9.5,0.1,-1.0,0.9,-0.1
1698420071579.0,16,0.0,-0.1,0.0,0.2,9.4,0.1,-0.6000000000000001,1.0,-0.1
1698420071596.0,16,0.0,-0.1,0.0,0.2,9.4,0.1,-0.30000000000000004,1.0,-0.2
1698420071613.0,16,-0.1,0.0,0.0,0.2,9.4,0.1,0.30000000000000004,1.0,0.1
1698420071629.0,16,0.0,0.0,0.1,0.2,9.4,0.2,0.8,1.0999999999999999,0.2
1698420071646.0,16,0.0,0.0,0.0,0.2,9.4,0.1,1.0,1.2000000000000002,0.0
1698420071662.0,16,0.0,0.0,0.0,0.2,9.4,0.1,1.0999999999999999,0.7,0.2
1698420071679.0,16,0.0,0.1,0.0,0.2,9.5,0.1,0.8,0.30000000000000004,0.30000000000000004
1698420071696.0,16,0.0,0.1,0.0,0.2,9.600000000000001,0.1,0.9,0.30000000000000004,0.4
1698420071714.0,16,0.0,0.0,0.0,0.2,9.5,0.0,1.0999999999999999,0.30000000000000004,0.1
1698420071730.0,16,0.0,0.0,0.0,0.2,9.5,0.0,0.8,0.4,0.2
1698420071746.0,16,0.0,0.0,0.0,0.2,9.5,0.1,0.6000000000000001,0.2,0.30000000000000004
1698420071763.0,16,0.0,0.0,0.1,0.2,9.5,0.1,0.2,0.2,0.2
1698420071779.0,16,0.0,0.0,0.0,0.2,9.5,0.1,0.2,0.0,0.0
1698420071796.0,16,0.0,0.0,0.0,0.2,9.5,0.1,-0.4,0.0,-0.1
1698420071813.0,16,0.0,0.0,0.1,0.2,9.5,0.2,-0.30000000000000004,0.0,-0.30000000000000004
1698420071829.0,16,0.0,0.0,0.0,0.2,9.5,0.1,-0.30000000000000004,0.1,-0.2
1698420071846.0,16,0.0,0.0,0.0,0.2,9.5,0.1,-0.30000000000000004,0.0,-0.1
1698420071862.0,16,0.0,0.0,0.0,0.2,9.5,0.1,-0.5,0.0,-0.1
1698420071879.0,16,0.0,0.0,0.0,0.2,9.5,0.1,-0.7,0.2,-0.1
1698420071895.0,16,0.0,0.0,0.0,0.2,9.5,0.1,-0.7,0.2,0.1
1698420071912.0,16,0.0,0.0,0.0,0.2,9.4,0.1,-0.8,0.2,0.30000000000000004
1698420071929.0,16,0.0,0.0,0.0,0.2,9.5,0.1,-0.9,0.30000000000000004,0.2
1698420071945.0,16,0.0,0.0,0.0,0.30000000000000004,9.5,0.1,-1.2000000000000002,0.4,0.0
1698420071962.0,16,0.0,0.0,0.0,0.30000000000000004,9.5,0.1,-1.0999999999999999,0.4,0.0
1698420071979.0,16,0.0,0.0,0.0,0.2,9.5,0.1,-1.0999999999999999,0.30000000000000004,0.1
1698420071996.0,16,0.0,0.0,0.0,0.2,9.5,0.1,-0.9,0.2,0.1
1698420072012.0,16,0.0,0.0,0.0,0.2,9.5,0.1,-0.9,0.2,0.1
1698420072029.0,16,0.0,0.0,0.0,0.2,9.5,0.1,-0.9,-0.1,0.1
1698420072045.0,16,0.0,0.0,0.0,0.2,9.5,0.2,-0.9,-0.4,0.2
1698420072062.0,16,0.0,0.0,0.0,0.2,9.5,0.1,-0.9,-0.5,0.2
1698420072079.0,16,0.0,0.0,0.0,0.2,9.5,0.1,-0.8,-0.5,0.2
1698420072095.0,16,0.0,0.0,0.0,0.2,9.5,0.1,-0.8,-0.30000000000000004,0.1
1698420072112.0,16,0.0,0.0,0.0,0.2,9.5,0.1,-0.8,-0.30000000000000004,0.1
1698420072129.0,16,0.0,0.0,0.0,0.30000000000000004,9.5,0.1,-0.8,-0.30000000000000004,-0.1
1698420072145.0,16,0.0,0.0,0.0,0.2,9.5,0.1,-0.8,-0.30000000000000004,-0.1
1698420072162.0,16,0.0,0.0,0.0,0.2,9.5,0.2,-0.6000000000000001,-0.4,0.1
1698420072179.0,16,0.0,0.0,0.0,0.2,9.5,0.2,-0.4,-0.5,0.1
1698420072196.0,16,0.0,0.0,0.0,0.2,9.5,0.2,-0.2,-0.5,0.1
1698420072213.0,16,0.0,0.0,0.0,0.2,9.5,0.1,0.0,-0.5,0.30000000000000004
1698420072229.0,16,0.0,0.0,0.0,0.30000000000000004,9.5,0.1,0.0,-0.5,0.2
1698420072246.0,16,0.0,0.0,0.0,0.2,9.4,0.1,0.1,-0.4,0.1
1698420072262.0,16,0.0,0.0,0.0,0.30000000000000004,9.5,0.1,0.1,-0.5,0.0
1698420072279.0,16,0.0,0.0,0.0,0.2,9.5,0.2,0.2,-0.5,-0.1
1698420072296.0,16,0.0,0.0,0.0,0.2,9.5,0.2,0.30000000000000004,-0.8,-0.1
1698420072312.0,16,0.0,0.0,0.0,0.2,9.5,0.2,0.30000000000000004,-0.8,0.0
1698420072329.0,16,0.0,0.0,0.0,0.2,9.5,0.1,0.4,-1.0,0.1
1698420072346.0,16,0.0,0.0,0.0,0.30000000000000004,9.5,0.2,0.30000000000000004,-1.0999999999999999,0.2
1698420072362.0,16,0.0,0.0,0.0,0.30000000000000004,9.5,0.1,0.4,-0.9,0.2
1698420072379.0,16,0.0,0.0,0.0,0.30000000000000004,9.5,0.1,0.2,-0.9,0.2
1698420072396.0,16,0.0,0.0,0.0,0.30000000000000004,9.5,0.1,-0.2,-1.2000000000000002,0.30000000000000004
1698420072413.0,16,0.0,0.1,0.0,0.30000000000000004,9.5,0.1,-0.4,-1.0999999999999999,0.30000000000000004
1698420072429.0,16,0.0,0.0,0.0,0.30000000000000004,9.5,0.1,-0.4,-0.9,0.2
1698420072446.0,16,0.0,0.0,0.0,0.2,9.5,0.2,-0.2,-0.6000000000000001,0.2
1698420072462.0,16,0.0,0.0,0.0,0.2,9.5,0.1,0.0,-0.8,0.30000000000000004
1698420072479.0,16,0.0,0.0,0.0,0.2,9.5,0.1,0.0,-0.9,0.4
1698420072496.0,16,0.0,0.0,0.0,0.2,9.4,0.1,0.30000000000000004,-0.8,0.4
1698420072512.0,16,0.0,-0.1,0.0,0.2,9.4,0.2,0.5,-0.8,0.5
1698420072529.0,16,0.0,0.0,0.0,0.2,9.4,0.2,0.6000000000000001,-0.9,0.4
1698420072546.0,16,0.0,0.0,0.0,0.30000000000000004,9.5,0.1,1.0999999999999999,-0.8,0.4
1698420072563.0,16,0.0,0.0,0.0,0.30000000000000004,9.5,0.1,1.2000000000000002,-0.4,0.30000000000000004
1698420072579.0,16,0.0,0.0,0.0,0.30000000000000004,9.5,0.1,1.4,-0.30000000000000004,0.1
1698420072596.0,16,0.0,0.0,0.0,0.30000000000000004,9.5,0.1,1.9,-0.1,0.2
1698420072612.0,16,0.0,0.0,0.0,0.30000000000000004,9.4,0.1,2.1999999999999997,-0.1,0.4
1698420072629.0,16,0.0,-0.1,0.0,0.2,9.4,0.2,2.6,0.1,0.6000000000000001
1698420072646.0,16,0.0,-0.1,0.0,0.30000000000000004,9.4,0.1,3.3000000000000003,-0.1,0.6000000000000001
1698420072663.0,16,0.0,-0.1,0.1,0.30000000000000004,9.4,0.2,3.5,-0.1,0.5
1698420072679.0,16,0.0,-0.1,0.1,0.30000000000000004,9.5,0.1,3.5,-0.1,0.5
1698420072695.0,16,0.0,0.0,0.0,0.30000000000000004,9.5,0.1,3.6,-0.2,0.5
1698420072712.0,16,0.0,0.0,0.0,0.2,9.5,0.1,3.9,-0.30000000000000004,0.7
1698420072730.0,16,0.0,0.0,0.0,0.2,9.5,0.1,4.0,-0.5,0.7
1698420072745.0,16,0.0,0.0,0.0,0.30000000000000004,9.5,0.1,4.2,-0.8,0.6000000000000001
1698420072762.0,16,0.0,0.0,0.1,0.30000000000000004,9.5,0.1,4.1000000000000005,-0.9,0.30000000000000004
1698420072779.0,16,0.0,0.0,0.0,0.30000000000000004,9.5,0.1,3.9,-1.0,0.2
1698420072795.0,16,0.0,0.0,0.0,0.30000000000000004,9.5,0.0,3.0000000000000004,-0.9,-0.1
1698420072812.0,16,0.0,0.1,0.0,0.30000000000000004,9.600000000000001,0.0,2.4000000000000004,-0.8,0.0
1698420072829.0,16,0.0,0.1,0.0,0.30000000000000004,9.600000000000001,0.0,1.4,-1.0,0.1
1698420072846.0,16,0.0,0.1,-0.1,0.30000000000000004,9.600000000000001,0.0,0.5,-0.7,0.0
1698420072862.0,16,0.0,0.0,-0.1,0.30000000000000004,9.5,-0.1,-0.1,-0.30000000000000004,0.1
1698420072879.0,16,0.0,0.0,0.0,0.30000000000000004,9.5,0.0,-0.30000000000000004,0.0,0.1
1698420072896.0,16,0.0,0.0,0.0,0.30000000000000004,9.5,0.0,-0.8,0.4,0.1
1698420072913.0,16,0.0,0.0,0.0,0.30000000000000004,9.5,0.0,-1.0999999999999999,0.5,-0.1
1698420072929.0,16,0.0,0.0,0.0,0.2,9.4,0.0,-1.2000000000000002,0.6000000000000001,-0.1
1698420072946.0,16,0.0,0.0,0.0,0.30000000000000004,9.5,0.0,-1.4,0.4,0.0
1698420072962.0,16,0.0,0.0,-0.1,0.30000000000000004,9.5,0.0,-1.3,0.4,-0.1
1698420072979.0,16,0.0,0.0,0.0,0.30000000000000004,9.5,0.0,-1.4,0.5,-0.30000000000000004
1698420072996.0,16,0.0,0.0,-0.1,0.30000000000000004,9.5,-0.1,-1.2000000000000002,0.1,-0.6000000000000001
1698420073013.0,16,0.0,-0.1,-0.1,0.2,9.5,0.0,-1.2000000000000002,-0.1,-0.6000000000000001
1698420073029.0,16,0.0,0.0,-0.1,0.30000000000000004,9.5,0.0,-1.4,-0.30000000000000004,-0.8
1698420073046.0,16,0.0,0.0,0.0,0.30000000000000004,9.5,0.0,-1.3,-0.5,-0.8
1698420073062.0,16,0.0,0.0,-0.1,0.30000000000000004,9.5,-0.1,-1.3,-0.5,-0.8
1698420073079.0,16,0.0,0.0,-0.1,0.30000000000000004,9.5,-0.1,-1.4,-0.5,-0.7
1698420073096.0,16,0.0,0.0,-0.1,0.30000000000000004,9.5,0.0,-1.4,-0.7,-0.7
1698420073113.0,16,0.0,0.0,0.0,0.30000000000000004,9.4,0.0,-1.4,-0.6000000000000001,-0.6000000000000001
1698420073129.0,16,0.0,0.0,-0.1,0.30000000000000004,9.4,0.0,-1.4,-0.6000000000000001,-0.6000000000000001
1698420073146.0,16,0.1,0.0,0.0,0.30000000000000004,9.4,0.0,-1.5000000000000002,-0.6000000000000001,-0.4
1698420073163.0,16,0.1,0.0,0.0,0.30000000000000004,9.4,0.0,-1.6,-0.5,-0.4
1698420073179.0,16,0.0,0.0,0.0,0.30000000000000004,9.5,0.0,-1.4,-0.1,-0.4
1698420073196.0,16,0.0,0.0,0.0,0.30000000000000004,9.5,0.0,-1.2000000000000002,0.2,-0.30000000000000004
1698420073212.0,16,0.0,0.0,0.0,0.2,9.5,0.0,-0.9,0.30000000000000004,0.1
1698420073229.0,16,0.0,0.0,-0.1,0.30000000000000004,9.4,0.0,-0.7,0.2,0.1
1698420073246.0,16,0.0,0.0,0.0,0.30000000000000004,9.5,0.0,-0.8,0.2,-0.1
1698420073262.0,16,0.0,0.0,0.0,0.2,9.5,0.0,-0.6000000000000001,0.0,-0.1
1698420073279.0,16,0.0,0.0,0.0,0.30000000000000004,9.5,0.0,-0.6000000000000001,0.0,0.0
1698420073296.0,16,0.0,0.0,0.0,0.30000000000000004,9.5,0.0,-0.6000000000000001,-0.1,0.1
1698420073312.0,16,0.0,0.0,0.0,0.30000000000000004,9.5,0.1,-0.6000000000000001,0.2,-0.1
1698420073331.0,16,0.0,0.0,0.0,0.30000000000000004,9.5,0.0,-0.5,0.5,-0.1
1698420073346.0,16,0.0,0.0,0.0,0.30000000000000004,9.5,0.0,-0.5,0.5,-0.1
1698420073362.0,16,0.0,0.0,0.0,0.30000000000000004,9.5,0.0,-1.0,0.6000000000000001,0.1
1698420073379.0,16,0.0,-0.1,0.1,0.30000000000000004,9.4,0.1,-0.7,0.30000000000000004,0.1
1698420073397.0,16,0.0,0.0,0.0,0.2,9.4,0.1,-0.6000000000000001,0.2,0.0
1698420073413.0,16,0.0,0.0,0.0,0.30000000000000004,9.5,0.1,-0.6000000000000001,0.30000000000000004,-0.1
1698420073429.0,16,0.1,0.0,0.0,0.30000000000000004,9.5,0.1,-0.8,0.5,-0.2
1698420073446.0,16,0.0,0.1,0.0,0.30000000000000004,9.5,0.0,-0.9,0.30000000000000004,-0.2
1698420073462.0,16,0.0,0.0,0.0,0.2,9.5,0.0,-1.0999999999999999,0.4,-0.2
1698420073479.0,16,0.0,0.0,0.0,0.2,9.5,0.0,-1.2000000000000002,0.30000000000000004,0.1
1698420073496.0,16,0.0,0.0,0.0,0.2,9.5,0.0,-1.3,0.30000000000000004,0.1
1698420073512.0,16,0.0,0.0,0.0,0.2,9.5,0.1,-1.7,0.5,0.1
1698420073529.0,16,0.0,0.0,0.0,0.2,9.5,0.1,-1.7,0.4,0.1
1698420073546.0,16,0.0,0.0,0.0,0.2,9.5,0.1,-1.7,0.30000000000000004,0.1
1698420073562.0,16,0.0,0.0,0.0,0.2,9.5,0.1,-1.7,0.2,0.0
1698420073579.0,16,0.0,0.0,0.0,0.2,9.5,0.1,-1.7,0.30000000000000004,-0.2
1698420073596.0,16,0.0,0.0,0.0,0.2,9.5,0.1,-1.7,0.1,-0.4
1698420073613.0,16,0.0,0.0,0.0,0.2,9.5,0.1,-2.0,-0.1,-0.5
1698420073629.0,16,0.0,0.0,0.0,0.2,9.5,0.1,-2.1999999999999997,-0.2,-0.5
1698420073646.0,16,0.0,0.0,-0.1,0.2,9.5,0.0,-2.3000000000000003,-0.2,-0.4
1698420073662.0,16,0.0,0.1,-0.1,0.2,9.5,0.0,-2.8,-0.2,-0.4
1698420073679.0,16,-0.1,0.0,-0.1,0.2,9.5,0.0,-3.2,-0.2,-0.7
1698420073695.0,16,-0.1,0.0,-0.1,0.2,9.5,0.0,-3.4,-0.1,-0.7
1698420073712.0,16,-0.1,0.0,-0.1,0.1,9.5,0.1,-3.9,-0.1,-0.9
1698420073729.0,16,-0.1,0.0,-0.1,0.1,9.5,0.1,-4.5,-0.2,-1.3
1698420073745.0,16,-0.1,0.0,-0.1,0.1,9.5,0.1,-5.2,-0.30000000000000004,-1.6
1698420073762.0,16,-0.1,0.0,-0.1,0.1,9.5,0.1,-5.500000000000001,-0.30000000000000004,-1.8
1698420073779.0,16,-0.2,0.0,0.0,0.0,9.5,0.1,-5.7,-0.4,-2.0
1698420073797.0,16,-0.2,0.0,-0.1,0.0,9.5,0.1,-6.000000000000001,-0.30000000000000004,-1.9
1698420073813.0,16,-0.1,0.1,-0.1,0.0,9.600000000000001,0.1,-6.7,-0.30000000000000004,-2.0
1698420073829.0,16,-0.2,0.1,-0.1,0.0,9.600000000000001,0.2,-6.7,-0.30000000000000004,-1.8
1698420073847.0,16,-0.2,0.0,-0.1,-0.1,9.5,0.2,-6.3,-1.0,-1.0
1698420073863.0,16,-0.2,0.0,-0.1,-0.1,9.5,0.1,-6.2,-1.6,-0.5
1698420073879.0,16,-0.1,0.0,-0.2,0.0,9.5,0.1,-6.8,-1.7,0.0
1698420073896.0,16,-0.1,0.0,-0.2,0.0,9.5,0.1,-7.300000000000001,-1.8,0.1
1698420073912.0,16,0.0,0.0,-0.1,0.1,9.5,0.1,-7.699999999999999,-1.6,0.4
1698420073929.0,16,-0.1,0.0,-0.1,0.0,9.5,0.2,-7.6,-1.4,0.6000000000000001
1698420073945.0,16,-0.1,0.0,-0.1,0.0,9.4,0.2,-7.300000000000001,-1.3,0.7
1698420073963.0,16,-0.1,0.0,-0.1,0.0,9.5,0.2,-7.1000000000000005,-1.2000000000000002,0.9
1698420073979.0,16,-0.1,0.1,0.0,0.0,9.600000000000001,0.30000000000000004,-6.7,-1.7,1.0
1698420073996.0,16,-0.1,0.1,0.0,0.0,9.600000000000001,0.30000000000000004,-6.8,-2.3000000000000003,0.9
1698420074012.0,16,-0.1,0.0,0.0,0.0,9.5,0.4,-6.9,-2.8,0.8
1698420074029.0,16,0.0,0.1,0.0,0.1,9.5,0.4,-7.300000000000001,-3.8,0.7
1698420074046.0,16,0.0,0.0,0.0,0.1,9.5,0.4,-7.300000000000001,-3.8,0.7
1698420074062.0,16,0.0,0.0,0.0,0.1,9.5,0.4,-7.6,-4.800000000000001,0.4
1698420074079.0,16,-0.1,0.0,0.0,0.0,9.5,0.5,-7.8,-5.300000000000001,0.4
1698420074095.0,16,0.0,-0.1,0.1,0.1,9.4,0.5,-8.1,-5.2,0.6000000000000001
1698420074112.0,16,0.0,-0.1,0.1,0.1,9.4,0.6000000000000001,-8.3,-5.2,0.7
1698420074129.0,16,0.0,-0.1,0.1,0.1,9.4,0.6000000000000001,-8.700000000000001,-4.5,1.0
1698420074147.0,16,0.1,0.0,0.0,0.2,9.4,0.6000000000000001,-8.799999999999999,-3.4,1.5000000000000002
1698420074162.0,16,0.0,0.0,0.0,0.2,9.5,0.6000000000000001,-8.600000000000001,-3.1,1.5000000000000002
1698420074179.0,16,0.1,0.0,-0.1,0.2,9.5,0.5,-8.4,-2.5,1.4
1698420074196.0,16,0.0,0.0,-0.1,0.2,9.4,0.5,-8.600000000000001,-2.4000000000000004,1.3
1698420074213.0,16,0.0,-0.1,-0.1,0.1,9.4,0.5,-8.700000000000001,-2.1999999999999997,1.3
1698420074230.0,16,0.0,-0.1,-0.1,0.2,9.4,0.5,-8.9,-2.0,1.5000000000000002
1698420074246.0,16,0.1,0.0,-0.1,0.2,9.5,0.5,-9.0,-2.3000000000000003,1.7
1698420074263.0,16,0.1,0.0,-0.1,0.2,9.4,0.6000000000000001,-8.9,-2.1999999999999997,1.8
1698420074279.0,16,0.1,-0.1,-0.1,0.30000000000000004,9.4,0.6000000000000001,-9.0,-1.9,1.8
1698420074295.0,16,0.1,-0.1,-0.1,0.30000000000000004,9.4,0.6000000000000001,-9.200000000000001,-1.2000000000000002,1.5000000000000002
1698420074313.0,16,0.1,-0.1,-0.1,0.30000000000000004,9.3,0.6000000000000001,-9.4,-0.9,1.7
1698420074329.0,16,0.2,-0.2,-0.1,0.4,9.200000000000001,0.6000000000000001,-9.700000000000001,-0.4,1.8
1698420074346.0,16,0.2,-0.2,-0.2,0.5,9.200000000000001,0.6000000000000001,-9.9,0.30000000000000004,1.4
1698420074362.0,16,0.2,-0.30000000000000004,-0.30000000000000004,0.5,9.1,0.5,-9.9,1.0,0.9
1698420074380.0,16,0.1,-0.2,-0.4,0.4,9.200000000000001,0.5,-10.2,2.4000000000000004,0.4
1698420074396.0,16,0.1,-0.2,-0.4,0.30000000000000004,9.200000000000001,0.4,-10.2,2.8,0.30000000000000004
1698420074412.0,16,-0.1,0.1,-0.6000000000000001,0.2,9.5,0.30000000000000004,-9.5,2.5,0.1
1698420074430.0,16,-0.1,0.2,-0.8,0.2,9.600000000000001,0.1,-9.600000000000001,1.0,-0.30000000000000004
1698420074446.0,16,-0.1,0.0,-0.7000000000000001,0.1,9.4,0.1,-11.2,-3.3000000000000003,-0.8
1698420074462.0,16,0.0,-0.1,-0.8,0.2,9.3,0.1,-12.5,-6.2,-1.4
1698420074479.0,16,0.30000000000000004,-0.2,-0.7000000000000001,0.6000000000000001,9.1,0.2,-17.200000000000003,-13.100000000000001,-3.3000000000000003
1698420074495.0,16,0.6000000000000001,-0.6000000000000001,-0.7000000000000001,0.9,8.700000000000001,0.30000000000000004,-20.3,-21.6,-6.1000000000000005
1698420074512.0,16,0.6000000000000001,-0.6000000000000001,-0.6000000000000001,0.8,8.700000000000001,0.4,-22.1,-27.1,-10.2
1698420074530.0,16,0.4,-0.30000000000000004,-0.7000000000000001,0.6000000000000001,9.0,0.4,-22.5,-28.8,-10.9
1698420074546.0,16,0.0,0.4,-1.1,0.2,9.700000000000001,0.1,-21.900000000000002,-30.4,-10.1
1698420074562.0,16,0.0,0.7000000000000001,-1.3,0.1,10.0,-0.1,-22.1,-29.000000000000004,-8.0
1698420074579.0,16,-0.1,1.0,-1.7000000000000002,0.1,10.3,-0.5,-22.3,-28.200000000000003,-2.9
1698420074595.0,16,-0.2,0.9,-1.5,0.0,10.200000000000001,-0.2,-23.8,-23.900000000000002,1.2000000000000002
1698420074612.0,16,-0.30000000000000004,0.9,-1.6,-0.1,10.200000000000001,-0.2,-24.1,-20.0,7.8
1698420074630.0,16,-0.30000000000000004,0.5,-1.6,0.0,9.8,-0.2,-23.8,-20.4,11.1
1698420074646.0,16,-0.30000000000000004,-0.4,-1.4000000000000001,0.0,8.9,0.1,-25.3,-22.7,14.4
1698420074662.0,16,-0.4,-0.4,-1.3,0.0,8.9,0.30000000000000004,-26.3,-23.900000000000002,15.000000000000002
1698420074679.0,16,-0.2,-0.4,-1.3,0.1,8.8,0.30000000000000004,-25.5,-25.400000000000002,14.900000000000002
1698420074696.0,16,0.30000000000000004,-0.7000000000000001,-1.2000000000000002,0.8,8.5,0.4,-21.900000000000002,-28.0,16.1
1698420074712.0,16,0.6000000000000001,-0.7000000000000001,-1.3,1.3,8.9,0.30000000000000004,-20.900000000000002,-30.100000000000005,16.2
1698420074730.0,16,0.9,0.1,-1.6,1.4000000000000001,9.3,0.1,-19.3,-27.900000000000002,16.2
1698420074746.0,16,0.6000000000000001,0.6000000000000001,-1.6,1.2000000000000002,9.8,0.1,-16.3,-23.2,14.4
1698420074762.0,16,0.4,0.5,-1.7000000000000002,0.9,9.700000000000001,-0.2,-14.3,-16.900000000000002,16.5
1698420074779.0,16,0.30000000000000004,0.6000000000000001,-2.2,1.0,9.8,-0.4,-14.0,-14.200000000000001,18.2
1698420074796.0,16,0.4,0.7000000000000001,-2.3000000000000003,1.1,9.9,-0.5,-14.4,-11.8,19.200000000000003
1698420074812.0,16,0.5,0.30000000000000004,-2.1,1.4000000000000001,9.5,-0.2,-12.200000000000001,-12.100000000000001,19.700000000000003
1698420074829.0,16,0.7000000000000001,0.2,-2.3000000000000003,1.4000000000000001,9.5,-0.2,-12.200000000000001,-12.100000000000001,19.700000000000003
1698420074845.0,16,1.0,-0.2,-2.2,2.0,8.9,-0.4,-12.200000000000001,-10.4,14.3
1698420074862.0,16,0.6000000000000001,-0.8,-2.0,1.6,8.4,-0.2,-11.4,-8.700000000000001,11.2
1698420074880.0,16,0.1,-0.9,-2.0,1.2000000000000002,8.200000000000001,-0.1,-8.1,-2.5,5.6
1698420074896.0,16,-0.7000000000000001,-0.7000000000000001,-2.4000000000000004,0.4,8.4,-0.5,-5.300000000000001,2.3000000000000003,4.1000000000000005
1698420074914.0,16,-0.7000000000000001,-0.5,-2.8000000000000003,0.30000000000000004,8.6,-0.9,-5.300000000000001,6.7,5.300000000000001
1698420074929.0,16,-0.30000000000000004,-0.1,-3.0,1.4000000000000001,9.5,-1.3,-5.8,12.9,7.9
1698420074946.0,16,0.8,1.2000000000000002,-3.1,1.9000000000000001,10.4,-1.2000000000000002,-3.7000000000000006,23.8,12.5
1698420074962.0,16,1.3,3.0,-3.0,2.4000000000000004,12.200000000000001,-1.1,-0.9,27.8,16.700000000000003
1698420074979.0,16,1.2000000000000002,3.6,-2.7,2.3000000000000003,12.8,-0.8,0.5,26.500000000000004,18.900000000000002
1698420074995.0,16,0.7000000000000001,3.6,-2.4000000000000004,1.8,12.8,-0.6000000000000001,14.800000000000002,22.2,22.6
1698420075013.0,16,-0.2,3.1,-2.9000000000000004,1.1,12.3,-1.1,24.6,16.1,16.700000000000003
1698420075030.0,16,-1.2000000000000002,4.2,-1.3,0.0,13.4,0.4,23.0,9.8,8.700000000000001
1698420075046.0,16,-1.7000000000000002,1.7000000000000002,3.1,-0.4,11.0,4.7,28.900000000000002,-29.700000000000003,1.4
1698420075063.0,16,2.3000000000000003,-0.2,1.8,3.5,9.1,3.3000000000000003,31.7,19.0,-16.0
1698420075080.0,16,2.4000000000000004,0.4,1.0,3.6,9.700000000000001,2.5,23.3,34.900000000000006,-27.3
1698420075096.0,16,2.2,2.3000000000000003,2.5,3.2,11.600000000000001,4.0,5.2,51.5,-49.4
1698420075113.0,16,-0.7000000000000001,2.8000000000000003,2.5,0.1,12.200000000000001,4.0,-0.7,47.800000000000004,-56.900000000000006
1698420075130.0,16,-1.5,2.7,0.9,-0.7000000000000001,12.100000000000001,2.4000000000000004,0.8,39.50000000000001,-48.300000000000004
1698420075146.0,16,-1.3,1.8,0.6000000000000001,-0.7000000000000001,11.200000000000001,2.1,-16.1,53.8,-36.1
1698420075162.0,16,0.1,2.7,0.2,0.5,12.100000000000001,1.9000000000000001,-25.700000000000003,40.4,-31.900000000000002
1698420075179.0,16,0.4,2.9000000000000004,0.30000000000000004,0.7000000000000001,12.3,2.0,-23.400000000000002,29.000000000000004,-32.800000000000004
1698420075196.0,16,1.2000000000000002,0.30000000000000004,-0.9,1.5,9.700000000000001,0.9,-18.5,28.900000000000002,-36.4
1698420075213.0,16,1.2000000000000002,-2.0,-1.0,1.3,7.4,0.8,-21.200000000000003,41.5,-42.5
1698420075229.0,16,0.9,-3.2,-1.2000000000000002,0.9,6.2,0.7000000000000001,-25.2,54.3,-44.7
1698420075246.0,16,0.9,-3.9000000000000004,-1.1,0.8,5.4,0.8,-25.2,56.5,-44.8
1698420075262.0,16,0.0,-4.9,-1.7000000000000002,-0.4,4.4,0.30000000000000004,-22.000000000000004,57.400000000000006,-44.7
1698420075279.0,16,-0.6000000000000001,-5.2,-1.8,-1.5,3.7,-0.2,-17.7,51.900000000000006,-29.1
1698420075295.0,16,-1.1,-5.800000000000001,-2.2,-1.6,3.4000000000000004,-0.2,-16.5,46.900000000000006,-12.9
1698420075312.0,16,-1.3,-5.6000000000000005,-3.0,-1.8,3.5,-1.0,-12.5,37.300000000000004,3.5
1698420075329.0,16,-1.8,-5.300000000000001,-3.0,-2.4000000000000004,3.8000000000000003,-1.0,-14.100000000000001,29.200000000000003,-0.8
1698420075346.0,16,-2.4000000000000004,-4.1000000000000005,-2.3000000000000003,-3.1,5.0,-0.30000000000000004,-14.600000000000001,19.200000000000003,-4.9
1698420075362.0,16,-1.5,-1.8,-2.2,-2.2,7.2,-0.1,-3.7000000000000006,6.1000000000000005,-3.8
1698420075379.0,16,-0.2,0.30000000000000004,-3.6,-0.9,9.3,-1.6,10.600000000000001,-0.1,2.8
1698420075396.0,16,0.0,0.9,-4.0,-0.7000000000000001,10.0,-2.0,13.3,-10.600000000000001,-2.6
1698420075413.0,16,-0.7000000000000001,3.3000000000000003,-2.4000000000000004,-1.5,12.3,-0.5,14.100000000000001,-34.300000000000004,-24.9
1698420075429.0,16,-1.1,5.2,-1.6,-1.9000000000000001,14.3,0.30000000000000004,15.000000000000002,-25.3,-35.1
1698420075446.0,16,0.4,8.0,-1.7000000000000002,-0.6000000000000001,17.1,0.1,20.3,10.700000000000001,-47.0
1698420075462.0,16,1.0,1.2000000000000002,-4.3,0.0,10.4,-2.7,38.5,13.6,-8.600000000000001
1698420075479.0,16,-2.4000000000000004,5.1000000000000005,5.5,-3.4000000000000004,14.4,7.1000000000000005,22.4,-83.10000000000001,-9.3
1698420075496.0,16,-1.1,7.1000000000000005,15.8,-2.2,16.400000000000002,17.5,6.5,-101.7,-18.5
1698420075513.0,16,1.5,-2.1,1.7000000000000002,0.6000000000000001,7.2,3.3000000000000003,60.7,-39.2,16.2
1698420075529.0,16,-2.0,-0.5,3.1,-2.9000000000000004,8.8,4.6000000000000005,6.000000000000001,-37.800000000000004,23.900000000000002
1698420075546.0,16,-0.7000000000000001,2.9000000000000004,2.2,-1.5,12.200000000000001,3.8000000000000003,-2.0,-42.5,38.0
1698420075563.0,16,0.7000000000000001,7.6000000000000005,4.3,0.1,17.0,6.0,-21.1,-42.0,45.0
1698420075579.0,16,-0.9,4.6000000000000005,3.3000000000000003,-1.4000000000000001,14.0,5.1000000000000005,-0.2,6.4,25.5
1698420075596.0,16,-1.9000000000000001,2.6,2.2,-2.4000000000000004,12.100000000000001,4.0,-2.0,16.5,13.9
1698420075612.0,16,-2.1,2.3000000000000003,1.2000000000000002,-2.6,11.700000000000001,3.0,-9.5,21.0,16.8
1698420075629.0,16,-0.6000000000000001,0.4,-0.2,-1.1,9.9,1.6,-8.1,9.3,21.0
1698420075646.0,16,-0.30000000000000004,-1.0,-0.6000000000000001,-0.7000000000000001,8.5,1.2000000000000002,-5.9,7.0,21.900000000000002
1698420075663.0,16,-0.6000000000000001,-2.6,-1.5,-0.9,6.9,0.30000000000000004,-6.5,11.8,28.400000000000002
1698420075679.0,16,-0.8,-3.2,-0.9,-1.0,6.6000000000000005,0.5,-7.699999999999999,15.2,28.8
1698420075695.0,16,-0.8,-3.7,-0.4,-1.1,5.7,1.4000000000000001,-6.3,4.7,22.000000000000004
1698420075712.0,16,-0.4,-5.2,-0.9,-0.6000000000000001,4.2,0.9,4.2,-9.3,1.8
1698420075729.0,16,0.9,-6.5,-2.3000000000000003,0.7000000000000001,2.8000000000000003,-0.5,11.9,-20.2,-1.9
1698420075746.0,16,1.3,-6.9,-3.0,1.1,2.4000000000000004,-1.3,13.5,-22.2,1.4
1698420075763.0,16,1.6,-6.6000000000000005,-2.9000000000000004,1.5,2.6,-1.2000000000000002,13.8,-25.5,9.600000000000001
1698420075779.0,16,1.4000000000000001,-3.4000000000000004,-1.3,1.4000000000000001,5.800000000000001,0.30000000000000004,21.6,-21.900000000000002,21.400000000000002
1698420075796.0,16,1.1,-2.4000000000000004,-0.6000000000000001,1.1,6.800000000000001,0.9,29.000000000000004,-22.1,19.200000000000003
1698420075812.0,16,1.7000000000000002,-2.5,-0.1,1.8,6.7,1.3,39.6,-9.8,19.6
1698420075829.0,16,1.8,-1.8,-1.1,1.9000000000000001,7.4,0.2,50.800000000000004,38.300000000000004,32.0
1698420075845.0,16,1.2000000000000002,-0.7000000000000001,-2.2,1.4000000000000001,8.5,-1.0,61.300000000000004,39.9,41.5
1698420075862.0,16,-1.8,4.0,-4.800000000000001,-1.4000000000000001,13.3,-3.8000000000000003,52.0,-21.8,54.1
1698420075879.0,16,-6.4,5.5,-3.2,-6.1000000000000005,14.8,-2.4000000000000004,41.6,-14.100000000000001,-22.900000000000002
1698420075895.0,16,-3.4000000000000004,2.5,-2.8000000000000003,-0.5,15.600000000000001,5.300000000000001,49.3,22.900000000000002,-35.5
1698420075912.0,16,0.2,11.100000000000001,15.4,0.5,20.5,16.1,14.0,88.7,31.900000000000002
1698420075929.0,16,-1.0,-1.2000000000000002,3.7,-0.6000000000000001,8.3,4.3,95.7,-54.0,23.2
1698420075945.0,16,5.5,-1.6,-4.7,6.0,7.9,-4.3,72.5,6.1000000000000005,33.300000000000004
1698420075963.0,16,3.7,0.8,4.800000000000001,4.2,10.3,5.2,0.5,56.7,-19.500000000000004
1698420075979.0,16,-2.5,11.700000000000001,3.9000000000000004,-2.1,21.200000000000003,4.4,-26.3,29.900000000000006,-26.1
1698420075996.0,16,-1.3,8.5,1.5,-1.0,18.1,2.1,-11.700000000000001,55.7,-26.400000000000002
1698420076012.0,16,2.0,3.6,2.2,2.2,13.3,2.9000000000000004,-11.4,51.900000000000006,-12.100000000000001
1698420076029.0,16,3.6,1.2000000000000002,1.2000000000000002,3.8000000000000003,10.8,1.8,-6.3,15.5,-5.2
1698420076046.0,16,0.6000000000000001,-0.30000000000000004,0.4,0.8,9.4,1.1,-19.400000000000002,25.8,-12.6
1698420076064.0,16,-0.4,-1.3,0.9,-0.2,8.3,1.6,-21.900000000000002,37.800000000000004,-16.3
1698420076079.0,16,-1.2000000000000002,-3.4000000000000004,0.2,-1.1,6.2,1.0,-14.200000000000001,35.1,-30.799999999999997
1698420076096.0,16,-1.2000000000000002,-5.300000000000001,-0.8,-1.3,4.3,0.0,-12.000000000000002,36.6,-38.5
1698420076113.0,16,-1.3,-5.800000000000001,-0.8,-1.4000000000000001,3.7,0.0,-11.000000000000002,32.5,-35.9
1698420076129.0,16,-1.6,-5.9,-1.1,-1.8,3.6,-0.2,-11.4,27.6,-14.100000000000001
1698420076146.0,16,-1.5,-5.800000000000001,-1.6,-1.6,3.7,-0.6000000000000001,-10.9,23.700000000000003,-2.3000000000000003
1698420076163.0,16,-1.7000000000000002,-5.7,-1.6,-2.0,3.7,-0.7000000000000001,-6.9,6.1000000000000005,-2.4000000000000004
1698420076179.0,16,-1.7000000000000002,-5.6000000000000005,-1.4000000000000001,-2.0,3.8000000000000003,-0.5,-3.8,-2.5,-12.100000000000001
1698420076196.0,16,-1.2000000000000002,-5.7,-1.4000000000000001,-1.5,3.7,-0.5,-0.6000000000000001,-6.4,-7.300000000000001
1698420076213.0,16,-0.5,-4.1000000000000005,-0.7000000000000001,-0.9,5.2,0.1,8.600000000000001,-22.4,-2.4000000000000004
1698420076229.0,16,-0.6000000000000001,-2.6,-0.30000000000000004,-0.9,6.7,0.5,27.7,-31.0,-17.3
1698420076245.0,16,-0.4,-1.2000000000000002,-0.30000000000000004,-0.9,8.0,0.4,33.800000000000004,-26.9,-44.7
1698420076262.0,16,0.1,0.9,0.9,-0.5,10.100000000000001,1.6,26.9,-4.2,-59.9
1698420076279.0,16,1.6,2.2,-2.9000000000000004,0.8,11.5,-2.3000000000000003,15.5,45.1,-59.20000000000001
1698420076296.0,16,2.3000000000000003,1.9000000000000001,-3.5,-0.1,10.8,-3.4000000000000004,32.1,5.6,-13.100000000000001
1698420076313.0,16,-1.5,3.1,-5.800000000000001,-2.4000000000000004,12.4,-5.4,49.1,-40.2,-13.5
1698420076329.0,16,0.0,8.4,14.700000000000001,-0.9,17.8,15.100000000000001,-1.9,-146.1,-39.699999999999996
1698420076346.0,16,3.8000000000000003,-1.4000000000000001,7.4,2.8000000000000003,8.0,7.800000000000001,48.6,-1.2000000000000002,-16.3
1698420076363.0,16,2.1,-2.1,-2.2,1.0,7.2,-1.8,55.6,-25.1,-9.1
1698420076379.0,16,-2.7,2.9000000000000004,2.9000000000000004,-3.7,12.3,3.3000000000000003,-11.700000000000001,-55.5,12.6
1698420076396.0,16,-0.1,20.0,7.2,-1.0,29.400000000000002,7.800000000000001,-41.300000000000004,-69.9,16.3
1698420076412.0,16,2.5,17.5,5.5,1.6,27.1,6.2,-11.8,-58.5,12.9
1698420076428.0,16,-0.2,2.5,3.0,-1.1,12.100000000000001,3.6,5.7,-39.00000000000001,-19.1
1698420076445.0,16,-2.6,3.6,0.6000000000000001,-3.6,13.200000000000001,1.3,-15.2,-7.400000000000001,-6.4
1698420076462.0,16,-1.6,3.0,0.4,-2.6,12.600000000000001,1.1,-21.1,-3.8,6.9
1698420076479.0,16,-0.8,-0.7000000000000001,-0.30000000000000004,-1.7000000000000002,9.0,0.6000000000000001,-27.900000000000002,-11.9,23.6
1698420076496.0,16,-0.7000000000000001,-2.4000000000000004,-0.1,-1.6,7.2,0.8,-27.900000000000002,-13.100000000000001,31.6
1698420076514.0,16,-0.30000000000000004,-4.3,-0.2,-1.1,5.300000000000001,0.8,-26.3,-2.1999999999999997,51.0
1698420076530.0,16,1.1,-4.9,-0.7000000000000001,0.6000000000000001,4.7,0.30000000000000004,-23.1,-1.2000000000000002,49.9
1698420076546.0,16,2.1,-5.4,-1.1,1.7000000000000002,4.1000000000000005,0.0,-19.1,-6.8,28.200000000000003
1698420076563.0,16,1.9000000000000001,-6.2,-1.1,1.5,3.3000000000000003,0.0,-19.400000000000002,-12.700000000000001,10.600000000000001
1698420076579.0,16,1.8,-7.4,-1.0,1.5,2.1,0.2,-15.7,-16.3,-7.400000000000001
1698420076595.0,16,1.8,-6.300000000000001,-1.7000000000000002,1.5,3.1,-0.5,-7.300000000000001,-5.2,3.1
1698420076612.0,16,1.2000000000000002,-5.6000000000000005,-1.7000000000000002,0.9,3.7,-0.5,-0.4,2.9,9.3
1698420076629.0,16,0.2,-5.2,-1.6,-0.1,4.1000000000000005,-0.5,17.1,16.8,15.100000000000001
1698420076646.0,16,0.30000000000000004,-4.2,-1.5,0.1,5.0,-0.4,29.500000000000004,29.200000000000003,25.5
1698420076662.0,16,0.7000000000000001,-3.6,-1.3,0.5,5.6000000000000005,-0.30000000000000004,33.5,40.6,31.6
1698420076679.0,16,2.0,-2.5,-1.6,1.9000000000000001,6.800000000000001,-0.8,41.2,71.9,49.2
1698420076696.0,16,2.6,-0.6000000000000001,-2.9000000000000004,2.7,8.6,-2.2,47.7,70.10000000000001,61.4
1698420076713.0,16,1.6,1.2000000000000002,-3.3000000000000003,1.8,10.4,-2.8000000000000003,42.0,22.1,61.300000000000004
1698420076731.0,16,-6.300000000000001,5.9,-2.1,-6.0,15.200000000000001,-1.6,22.8,-30.9,8.5
1698420076748.0,16,-2.1,6.7,-0.9,-1.9000000000000001,16.0,-0.5,14.800000000000002,55.800000000000004,-13.200000000000001
1698420076762.0,16,0.8,11.600000000000001,7.0,1.0,21.0,7.5,-7.699999999999999,99.9,18.1
1698420076784.0,16,1.0,-1.8,1.5,1.3,7.6000000000000005,1.9000000000000001,70.8,-48.400000000000006,8.799999999999999
1698420076795.0,16,7.9,-1.2000000000000002,-3.3000000000000003,8.3,8.3,-3.0,42.7,-14.900000000000002,10.9
1698420076812.0,16,5.800000000000001,1.7000000000000002,3.2,6.0,11.200000000000001,3.5,-16.3,63.900000000000006,-35.1
1698420076828.0,16,4.1000000000000005,8.1,6.9,4.4,17.5,7.300000000000001,-42.400000000000006,44.2,-34.0
1698420076845.0,16,-5.7,16.400000000000002,4.1000000000000005,-5.7,26.1,4.7,-10.0,16.1,-52.1
1698420076862.0,16,-5.4,7.0,2.1,-5.4,16.7,2.6,-4.5,34.6,-36.800000000000004
1698420076880.0,16,2.6,1.1,1.4000000000000001,2.6,10.700000000000001,2.0,-16.3,57.00000000000001,-0.8
1698420076895.0,16,2.8000000000000003,1.5,-1.0,2.8000000000000003,11.200000000000001,-0.30000000000000004,-12.700000000000001,11.6,-6.6000000000000005
1698420076913.0,16,0.2,-1.3,-0.9,0.2,8.4,-0.2,-17.5,17.599999999999998,-17.0
1698420076929.0,16,0.2,-2.5,-0.7000000000000001,0.1,7.1000000000000005,0.1,-20.4,24.6,-24.6
1698420076946.0,16,0.30000000000000004,-4.9,-0.4,0.0,4.800000000000001,0.4,-23.0,26.9,-48.2
1698420076962.0,16,-0.30000000000000004,-6.300000000000001,-0.7000000000000001,-0.7000000000000001,3.2,0.1,-27.1,23.6,-40.8
1698420076979.0,16,-0.9,-5.9,-0.9,-1.4000000000000001,3.6,0.0,-26.400000000000002,19.400000000000002,-21.3
1698420076996.0,16,-1.5,-6.300000000000001,-1.0,-2.0,3.1,0.0,-26.400000000000002,6.3,4.5
1698420077013.0,16,-2.4000000000000004,-6.300000000000001,-1.3,-2.5,2.9000000000000004,-0.30000000000000004,-26.3,-0.1,4.800000000000001
1698420077032.0,16,-2.9000000000000004,-5.4,-1.0,-3.5,4.0,0.1,-19.700000000000003,-11.1,-12.3
1698420077045.0,16,-2.6,-4.2,-1.5,-3.2,5.1000000000000005,-0.30000000000000004,-14.700000000000001,-17.9,-15.9
1698420077062.0,16,-1.1,-2.3000000000000003,-1.3,-1.7000000000000002,7.0,-0.1,-2.1999999999999997,-29.600000000000005,-9.600000000000001
1698420077079.0,16,-0.30000000000000004,-1.7000000000000002,-1.9000000000000001,-1.0,7.6000000000000005,-0.7000000000000001,5.2,-32.800000000000004,0.0
1698420077096.0,16,-0.2,-1.2000000000000002,-2.8000000000000003,-0.8,8.1,-1.8,23.1,-36.800000000000004,3.2
1698420077113.0,16,-0.9,-1.2000000000000002,-3.8000000000000003,-1.5,8.1,-2.8000000000000003,34.900000000000006,-47.300000000000004,-1.9
1698420077129.0,16,-0.4,-2.2,-4.1000000000000005,-1.0,7.0,-3.3000000000000003,42.800000000000004,-80.7,-20.1
1698420077146.0,16,0.9,4.9,-1.3,0.2,14.200000000000001,-0.6000000000000001,28.8,-70.6,-45.0
1698420077162.0,16,1.9000000000000001,4.1000000000000005,-0.4,1.0,13.5,0.30000000000000004,17.599999999999998,-14.900000000000002,-40.6
1698420077179.0,16,3.7,1.6,-1.1,2.8000000000000003,11.0,-0.5,24.6,-7.2,-12.200000000000001
1698420077196.0,16,1.7000000000000002,0.0,-2.5,0.9,9.3,-2.0,42.5,-22.4,16.900000000000002
1698420077212.0,16,1.8,5.4,11.9,1.0,14.700000000000001,12.5,-14.900000000000002,-89.6,-4.300000000000001
1698420077229.0,16,3.3000000000000003,1.5,12.3,0.7000000000000001,8.6,11.4,-5.9,-6.1000000000000005,-5.8
1698420077246.0,16,-3.1,-1.7000000000000002,-2.8000000000000003,-3.9000000000000004,7.7,-2.3000000000000003,58.3,-14.200000000000001,3.4
1698420077262.0,16,-4.4,1.1,3.5,-5.1000000000000005,10.5,4.0,-10.9,-26.700000000000003,26.0
1698420077279.0,16,-1.6,7.2,2.7,-2.2,16.6,3.3000000000000003,-33.0,-25.8,35.1
1698420077296.0,16,3.9000000000000004,16.400000000000002,5.2,3.3000000000000003,25.900000000000002,5.9,-17.8,-31.5,32.2
1698420077312.0,16,1.5,4.0,2.5,1.0,13.600000000000001,3.2,10.700000000000001,6.000000000000001,-3.7000000000000006
1698420077329.0,16,-2.4000000000000004,3.9000000000000004,1.4000000000000001,-2.9000000000000004,13.5,2.1,4.3999999999999995,14.600000000000001,-11.3
1698420077346.0,16,-3.4000000000000004,3.8000000000000003,-0.2,-3.9000000000000004,13.5,0.5,-14.800000000000002,9.5,5.0
1698420077362.0,16,-1.8,-0.1,0.6000000000000001,-2.3000000000000003,9.5,1.4000000000000001,-18.6,1.5000000000000002,22.7
1698420077379.0,16,-1.1,-1.7000000000000002,0.30000000000000004,-1.6,7.9,1.1,-19.700000000000003,-2.0,27.0
1698420077396.0,16,-0.6000000000000001,-3.8000000000000003,0.4,-1.0,5.800000000000001,1.3,-18.0,-7.6,38.0
1698420077413.0,16,0.2,-4.6000000000000005,-0.1,0.0,5.0,0.8,-15.8,-10.4,47.800000000000004
1698420077430.0,16,0.9,-4.6000000000000005,-0.5,1.4000000000000001,4.7,0.30000000000000004,-8.3,-10.1,57.5
1698420077446.0,16,1.4000000000000001,-5.7,-1.0,1.4000000000000001,3.8000000000000003,0.0,-9.9,-12.100000000000001,11.000000000000002
1698420077463.0,16,2.0,-7.6000000000000005,-1.3,1.9000000000000001,1.8,-0.30000000000000004,-15.299999999999999,-6.4,-15.9
1698420077479.0,16,2.5,-7.6000000000000005,-1.2000000000000002,2.5,1.8,-0.1,-16.900000000000002,-4.1000000000000005,-8.0
1698420077496.0,16,2.6,-6.2,-0.5,2.7,3.1,0.6000000000000001,-13.5,1.0999999999999999,26.3
1698420077513.0,16,0.4,-4.3,-0.6000000000000001,0.6000000000000001,5.0,0.4,8.799999999999999,9.4,31.3
1698420077531.0,16,-1.4000000000000001,-4.2,-2.4000000000000004,-1.2000000000000002,5.1000000000000005,-1.5,32.4,26.6,15.299999999999999
1698420077546.0,16,-1.5,-4.3,-3.6,-1.3,5.0,-2.7,40.4,38.1,15.399999999999999
1698420077562.0,16,0.30000000000000004,-2.7,-3.0,0.6000000000000001,6.6000000000000005,-2.2,43.0,58.800000000000004,31.8
1698420077579.0,16,1.3,-0.1,-2.3000000000000003,1.7000000000000002,9.1,-1.6,37.900000000000006,52.7,37.300000000000004
1698420077596.0,16,0.1,3.0,-2.1,0.6000000000000001,12.3,-1.5,19.0,9.1,30.7
1698420077612.0,16,-2.3000000000000003,5.5,-3.4000000000000004,-1.8,14.8,-2.9000000000000004,12.5,-9.0,9.8
1698420077629.0,16,0.7000000000000001,3.4000000000000004,-2.3000000000000003,1.2000000000000002,12.8,-1.9000000000000001,29.500000000000004,57.1,-25.2
1698420077646.0,16,1.9000000000000001,7.9,1.4000000000000001,2.3000000000000003,17.3,1.7000000000000002,21.200000000000003,107.10000000000001,-11.5
1698420077662.0,16,-8.6,3.8000000000000003,8.8,-8.200000000000001,13.200000000000001,9.200000000000001,31.5,-50.9,-0.30000000000000004
1698420077679.0,16,2.3000000000000003,-1.9000000000000001,0.8,2.8000000000000003,7.5,1.0,52.400000000000006,5.0,40.0
1698420077696.0,16,7.300000000000001,-0.4,3.2,7.800000000000001,9.0,3.4000000000000004,19.3,22.1,35.1
1698420077713.0,16,5.1000000000000005,6.6000000000000005,1.9000000000000001,5.7,16.1,2.2,-10.600000000000001,47.0,-29.000000000000004
1698420077728.0,16,-0.7000000000000001,11.8,3.2,-0.30000000000000004,21.400000000000002,3.5,-6.1000000000000005,37.900000000000006,-43.900000000000006
1698420077745.0,16,-1.3,9.1,1.7000000000000002,-0.9,18.7,2.0,1.7,34.900000000000006,-31.099999999999998
1698420077764.0,16,1.6,2.5,1.6,1.9000000000000001,12.100000000000001,2.0,-2.4000000000000004,33.1,-1.8
1698420077779.0,16,1.7000000000000002,1.2000000000000002,1.0,2.0,10.9,1.4000000000000001,-12.5,30.5,-8.700000000000001
1698420077795.0,16,1.1,0.4,0.30000000000000004,1.3,10.0,0.7000000000000001,-14.700000000000001,35.4,-21.1
1698420077812.0,16,-0.1,-1.9000000000000001,0.5,0.1,7.800000000000001,1.0,-16.1,42.800000000000004,-41.9
1698420077829.0,16,-0.4,-4.3,0.2,-0.4,5.4,0.8,-14.3,52.2,-58.800000000000004
1698420077845.0,16,-0.5,-5.4,0.0,-0.6000000000000001,4.2,0.6000000000000001,-13.8,55.6,-66.80000000000001
1698420077862.0,16,-0.7000000000000001,-6.9,-0.6000000000000001,-1.2000000000000002,2.7,0.0,-16.3,50.800000000000004,-71.10000000000001
1698420077879.0,16,-1.5,-6.9,-0.7000000000000001,-2.1,2.6,-0.1,-19.400000000000002,28.200000000000003,-59.400000000000006
1698420077896.0,16,-2.0,-6.6000000000000005,-0.9,-2.7,2.8000000000000003,-0.2,-20.6,15.6,-49.6
1698420077912.0,16,-1.8,-5.6000000000000005,-1.1,-2.6,3.8000000000000003,-0.30000000000000004,-22.3,0.4,-8.5
1698420077928.0,16,-1.7000000000000002,-4.7,-1.7000000000000002,-2.5,4.7,-1.0,-9.600000000000001,-18.2,4.1000000000000005
1698420077946.0,16,-1.7000000000000002,-4.1000000000000005,-2.2,-2.5,5.2,-1.4000000000000001,-6.9,-21.900000000000002,-2.7
1698420077962.0,16,-1.2000000000000002,-2.7,-1.9000000000000001,-2.0,6.6000000000000005,-1.0,-4.6000000000000005,-28.400000000000002,-10.2
1698420077979.0,16,0.0,-1.7000000000000002,-1.0,-0.8,7.6000000000000005,-0.30000000000000004,14.0,-35.4,5.1
1698420077996.0,16,0.0,-1.6,-2.3000000000000003,-0.9,7.7,-1.5,27.5,-39.2,-0.4
1698420078014.0,16,0.6000000000000001,-0.7000000000000001,-3.4000000000000004,-0.30000000000000004,8.6,-2.8000000000000003,35.5,-59.80000000000001,-16.3
1698420078029.0,16,0.1,2.6,-0.8,-0.9,11.9,-0.30000000000000004,18.900000000000002,-18.8,-39.699999999999996
1698420078046.0,16,0.1,3.1,-2.4000000000000004,-1.0,12.4,-1.9000000000000001,9.700000000000001,6.3,-39.50000000000001
1698420078062.0,16,1.8,3.4000000000000004,-3.8000000000000003,0.8,12.700000000000001,-3.4000000000000004,7.1000000000000005,11.000000000000002,-19.0
1698420078079.0,16,-0.9,6.5,-3.5,-1.9000000000000001,15.8,-3.1,29.500000000000004,-56.2,6.2
1698420078095.0,16,0.1,9.9,5.7,-1.0,19.3,6.1000000000000005,-1.8,-92.30000000000001,-7.9
1698420078115.0,16,4.800000000000001,-0.4,11.100000000000001,3.7,9.0,11.5,7.500000000000001,46.1,-9.3
1698420078129.0,16,-3.3000000000000003,-3.3000000000000003,-1.6,-4.4,6.1000000000000005,-1.3,55.5,-42.1,-27.900000000000002
1698420078145.0,16,-7.300000000000001,-2.2,-3.3000000000000003,-8.4,7.2,-3.0,16.8,2.8,-11.5
1698420078162.0,16,-2.7,10.200000000000001,1.5,-3.7,19.700000000000003,1.9000000000000001,-33.1,-71.9,34.50000000000001
1698420078179.0,16,1.2000000000000002,13.5,5.9,0.2,23.0,6.4,-17.7,-61.50000000000001,24.7
1698420078196.0,16,2.0,7.0,4.0,1.0,16.6,4.6000000000000005,-1.4,-49.6,7.9
1698420078213.0,16,-0.7000000000000001,1.5,1.8,-1.7000000000000002,11.200000000000001,2.5,-10.2,-43.400000000000006,-1.3
1698420078229.0,16,-2.1,1.4000000000000001,0.30000000000000004,-3.0,11.0,1.1,-25.2,-37.6,18.1
1698420078246.0,16,-0.5,-0.30000000000000004,0.6000000000000001,-2.1,10.4,1.1,-27.900000000000002,-36.2,27.2
1698420078262.0,16,0.0,-1.9000000000000001,0.30000000000000004,-0.7000000000000001,7.800000000000001,1.2000000000000002,-22.1,-35.1,38.6
1698420078279.0,16,-0.30000000000000004,-4.6000000000000005,-0.30000000000000004,-0.9,5.0,0.7000000000000001,-15.7,-32.6,47.900000000000006
1698420078295.0,16,-0.5,-4.9,-0.4,-1.0,4.7,0.6000000000000001,-14.600000000000001,-33.5,51.800000000000004
1698420078312.0,16,0.4,-5.1000000000000005,-0.7000000000000001,0.2,4.5,0.30000000000000004,-13.8,-21.5,59.20000000000001
1698420078330.0,16,2.1,-4.9,-0.6000000000000001,2.0,4.6000000000000005,0.5,-14.600000000000001,-17.7,45.9
1698420078347.0,16,2.3000000000000003,-4.9,-0.8,2.2,4.3,0.0,-14.200000000000001,-15.8,1.7
1698420078362.0,16,1.8,-5.6000000000000005,-1.4000000000000001,1.7000000000000002,3.8000000000000003,-0.30000000000000004,-10.5,-13.0,-11.2
1698420078379.0,16,1.2000000000000002,-5.0,-1.4000000000000001,1.2000000000000002,4.4,-0.30000000000000004,6.3,0.9,4.5
1698420078396.0,16,0.9,-4.1000000000000005,-1.8,0.9,5.300000000000001,-0.8,19.0,7.400000000000001,22.7
1698420078413.0,16,-0.6000000000000001,-3.6,-2.1,-0.5,5.7,-1.1,32.1,20.1,18.6
1698420078429.0,16,0.0,-3.1,-2.3000000000000003,0.2,6.300000000000001,-1.6,45.0,47.6,18.900000000000002
1698420078447.0,16,0.8,-2.4000000000000004,-2.3000000000000003,1.0,6.9,-1.6,51.7,65.2,24.8
1698420078463.0,16,2.8000000000000003,-0.9,-2.5,3.1,8.4,-2.0,60.8,116.5,44.1
1698420078479.0,16,3.0,-1.4000000000000001,-3.8000000000000003,3.5,7.9,-3.5,53.6,82.2,51.800000000000004
1698420078495.0,16,-1.4000000000000001,2.1,-3.2,-0.8,11.4,-3.1,26.8,6.4,46.0
1698420078513.0,16,-4.2,5.300000000000001,-2.3000000000000003,-3.6,14.600000000000001,-2.2,20.1,-4.3999999999999995,17.200000000000003
1698420078529.0,16,-2.7,3.6,-2.8000000000000003,-2.1,13.0,-2.8000000000000003,38.1,45.9,-17.400000000000002
1698420078545.0,16,0.2,9.700000000000001,6.300000000000001,0.8,19.200000000000003,6.300000000000001,-13.5,55.800000000000004,27.3
1698420078562.0,16,-7.6000000000000005,6.0,10.3,-7.0,15.5,10.4,-5.4,-45.1,6.1000000000000005
1698420078579.0,16,-0.6000000000000001,-1.9000000000000001,3.2,0.0,7.5,3.1,50.5,-33.900000000000006,25.6
1698420078596.0,16,7.6000000000000005,1.9000000000000001,4.4,6.4,9.1,-2.8000000000000003,28.900000000000002,-38.400000000000006,33.5
1698420078612.0,16,6.1000000000000005,6.800000000000001,3.5,6.800000000000001,16.3,3.5,-25.0,18.5,-24.5
1698420078629.0,16,0.0,13.3,5.5,0.5,22.900000000000002,5.6000000000000005,-16.400000000000002,3.7000000000000006,-59.20000000000001
1698420078646.0,16,-0.1,5.300000000000001,1.5,0.30000000000000004,15.0,1.6,-0.5,8.600000000000001,-27.900000000000002
1698420078662.0,16,2.0,2.8000000000000003,1.2000000000000002,3.4000000000000004,11.600000000000001,1.4000000000000001,-8.799999999999999,20.4,-13.100000000000001
1698420078679.0,16,2.7,1.6,0.5,3.1,11.3,0.8,-22.000000000000004,23.5,-9.5
1698420078696.0,16,0.5,0.2,0.1,0.8,9.9,0.4,-26.500000000000004,26.0,-28.700000000000003
1698420078712.0,16,-0.30000000000000004,-0.6000000000000001,-0.1,-0.1,9.1,0.30000000000000004,-25.700000000000003,24.200000000000003,-36.0
1698420078729.0,16,-0.8,-3.3000000000000003,-0.30000000000000004,-0.8,6.4,0.2,-27.2,35.6,-48.400000000000006
1698420078745.0,16,-0.9,-5.300000000000001,-0.2,-1.0,4.3,0.4,-29.000000000000004,40.7,-61.599999999999994
1698420078768.0,16,-1.1,-6.1000000000000005,-0.6000000000000001,-1.4000000000000001,3.5,0.0,-32.300000000000004,31.8,-56.1
1698420078778.0,16,-1.0,-5.800000000000001,-1.0,-1.4000000000000001,3.7,-0.30000000000000004,-31.0,20.8,-48.300000000000004
1698420078795.0,16,-0.9,-5.7,-0.7000000000000001,-1.4000000000000001,3.8000000000000003,0.1,-28.900000000000002,3.0000000000000004,-21.6
1698420078812.0,16,-1.2000000000000002,-5.0,-0.7000000000000001,-1.7000000000000002,4.4,0.2,-21.0,-5.300000000000001,3.3000000000000003
1698420078829.0,16,-1.9000000000000001,-4.5,-0.8,-2.5,4.9,0.1,-13.0,-10.600000000000001,3.4
1698420078845.0,16,-2.9000000000000004,-3.4000000000000004,-2.1,-3.5,5.9,-1.2000000000000002,-4.800000000000001,-22.900000000000002,-8.200000000000001
1698420078862.0,16,-1.6,-2.4000000000000004,-1.4000000000000001,-2.2,6.9,-0.5,2.4000000000000004,-25.2,5.500000000000001
1698420078879.0,16,-1.1,-1.6,-1.9000000000000001,-1.6,7.7,-1.0,11.4,-28.8,9.700000000000001
1698420078895.0,16,-0.8,-1.3,-2.5,-1.3,8.1,-1.6,21.200000000000003,-37.300000000000004,11.4
1698420078912.0,16,-1.2000000000000002,-2.0,-4.1000000000000005,-1.7000000000000002,7.300000000000001,-3.5,52.300000000000004,-74.0,-2.7
1698420078929.0,16,-1.1,-1.9000000000000001,-4.2,-1.6,7.4,-3.7,56.0,-85.2,-10.3
1698420078945.0,16,0.1,0.4,-0.8,-0.5,9.8,-0.5,42.2,-68.4,-23.2
1698420078962.0,16,1.2000000000000002,1.0,0.0,0.6000000000000001,10.3,0.30000000000000004,23.700000000000003,-13.6,-22.900000000000002
1698420078979.0,16,3.3000000000000003,0.0,-2.0,2.7,9.4,-1.8,27.0,1.5000000000000002,-1.6
1698420078995.0,16,2.3000000000000003,4.2,-2.0,1.8,13.600000000000001,-2.0,41.800000000000004,-32.7,9.700000000000001
1698420079012.0,16,6.1000000000000005,6.7,8.8,5.5,16.1,8.9,-16.1,-78.5,-14.100000000000001
1698420079029.0,16,5.6000000000000005,1.0,6.5,5.0,10.4,6.7,-7.0,-1.3,-18.1
1698420079046.0,16,-1.2000000000000002,-3.6,9.4,-1.9000000000000001,5.800000000000001,9.600000000000001,53.1,-58.400000000000006,-38.5
1698420079062.0,16,-7.7,0.1,-3.4000000000000004,-8.5,9.5,-3.3000000000000003,21.900000000000002,-4.800000000000001,-25.8
1698420079079.0,16,-7.2,3.7,-0.6000000000000001,-8.1,13.100000000000001,-0.5,-16.0,-38.400000000000006,-16.0
1698420079096.0,16,-1.5,15.4,4.5,-2.4000000000000004,24.8,4.7,-29.400000000000002,-69.2,-4.7
1698420079112.0,16,4.2,6.1000000000000005,4.1000000000000005,3.3000000000000003,15.700000000000001,4.4,6.3,-55.300000000000004,4.0
1698420079129.0,16,4.7,2.7,3.1,3.8000000000000003,12.3,3.4000000000000004,8.3,-53.2,2.1
1698420079145.0,16,0.9,4.1000000000000005,1.5,0.0,13.700000000000001,1.8,-8.0,-49.7,0.2
1698420079162.0,16,0.1,2.6,1.4000000000000001,-0.8,12.200000000000001,1.8,-12.9,-43.0,18.2
1698420079179.0,16,0.0,1.2000000000000002,1.1,-0.8,10.8,1.6,-14.900000000000002,-42.1,23.400000000000002
1698420079196.0,16,0.6000000000000001,-0.6000000000000001,1.4000000000000001,-0.1,9.1,1.9000000000000001,-18.6,-35.199999999999996,32.5
1698420079213.0,16,1.0,-0.6000000000000001,1.0,0.4,9.1,1.5,-18.7,-31.2,34.7
1698420079231.0,16,1.4000000000000001,-0.8,0.30000000000000004,1.0,8.8,0.9,-20.0,-27.6,33.900000000000006
1698420079246.0,16,1.4000000000000001,-1.9000000000000001,-0.1,1.0,7.800000000000001,0.6000000000000001,-13.5,-17.200000000000003,40.9
1698420079262.0,16,1.3,-2.4000000000000004,-0.30000000000000004,1.1,7.2,0.4,-10.8,-15.000000000000002,42.2
1698420079279.0,16,1.1,-3.7,-0.5,0.9,5.9,0.2,-5.8,-2.0,37.5
1698420079296.0,16,0.7000000000000001,-4.3,-0.8,0.7000000000000001,5.300000000000001,-0.1,0.8,9.4,32.300000000000004
1698420079313.0,16,0.5,-4.6000000000000005,-1.1,0.6000000000000001,4.9,-0.4,7.699999999999999,16.700000000000003,29.200000000000003
1698420079330.0,16,0.2,-4.800000000000001,-1.3,0.4,4.7,-0.6000000000000001,10.9,18.3,26.3
1698420079346.0,16,0.1,-4.800000000000001,-1.2000000000000002,0.30000000000000004,4.7,-0.6000000000000001,17.400000000000002,27.900000000000002,22.6
1698420079362.0,16,-0.2,-4.800000000000001,-1.0,0.1,4.7,-0.4,22.5,31.8,19.200000000000003
1698420079379.0,16,0.5,-5.7,-0.9,0.8,3.7,-0.5,35.3,49.7,14.700000000000001
1698420079396.0,16,1.3,-5.6000000000000005,-1.2000000000000002,1.7000000000000002,3.8000000000000003,-0.9,45.7,63.50000000000001,14.4
1698420079412.0,16,1.9000000000000001,-5.1000000000000005,-1.5,2.2,4.2,-1.3,46.0,71.6,16.6
1698420079429.0,16,2.0,-3.1,-1.5,2.4000000000000004,6.2,-1.4000000000000001,42.5,75.4,17.599999999999998
1698420079445.0,16,-0.1,-0.9,-0.9,0.5,8.4,-0.9,34.300000000000004,56.2,18.6
1698420079462.0,16,-2.7,2.0,-1.3,-2.1,11.3,-1.4000000000000001,24.1,12.6,8.799999999999999
1698420079479.0,16,-4.1000000000000005,2.4000000000000004,-1.8,-3.6,11.700000000000001,-2.0,28.900000000000002,8.0,-18.5
1698420079496.0,16,-1.7000000000000002,4.9,-0.8,-1.3,14.3,-1.1,21.700000000000003,72.4,-24.400000000000002
1698420079513.0,16,-5.5,3.7,2.3000000000000003,-1.5,15.4,1.7000000000000002,19.200000000000003,82.0,-13.200000000000001
1698420079529.0,16,-5.5,1.0,1.4000000000000001,-5.2,10.4,1.0,41.300000000000004,-22.3,12.000000000000002
1698420079546.0,16,6.6000000000000005,0.9,3.5,7.1000000000000005,10.200000000000001,3.0,41.7,-6.2,52.300000000000004
1698420079562.0,16,7.1000000000000005,7.6000000000000005,1.6,7.800000000000001,17.0,1.1,4.6000000000000005,44.4,26.3
1698420079579.0,16,1.9000000000000001,10.200000000000001,4.2,2.6,19.6,3.7,-5.300000000000001,52.800000000000004,9.0
1698420079596.0,16,-1.7000000000000002,5.5,2.3000000000000003,-1.0,15.0,1.8,23.0,65.2,-3.0000000000000004
1698420079613.0,16,0.7000000000000001,3.2,2.4000000000000004,1.4000000000000001,12.8,1.9000000000000001,7.6,53.400000000000006,7.8
1698420079629.0,16,1.7000000000000002,3.4000000000000004,2.0,2.5,12.9,1.5,3.3000000000000003,49.8,7.400000000000001
1698420079646.0,16,0.7000000000000001,2.8000000000000003,1.6,1.5,12.4,1.1,0.30000000000000004,30.799999999999997,-6.2
1698420079662.0,16,-0.1,1.0,1.4000000000000001,0.6000000000000001,10.600000000000001,1.0,-0.8,29.200000000000003,-18.3
1698420079679.0,16,-0.30000000000000004,0.4,1.4000000000000001,0.30000000000000004,10.0,0.9,-1.7,27.6,-24.3
1698420079696.0,16,-0.7000000000000001,-0.6000000000000001,1.1,-0.1,9.0,0.6000000000000001,-2.6,22.5,-34.300000000000004
1698420079717.0,16,-1.3,-1.5,0.9,-0.9,8.1,0.5,-4.9,23.0,-42.300000000000004
1698420079729.0,16,-1.4000000000000001,-1.9000000000000001,0.7000000000000001,-1.1,7.7,0.30000000000000004,-5.8,24.6,-43.300000000000004
1698420079746.0,16,-1.4000000000000001,-2.8000000000000003,0.6000000000000001,-1.3,6.800000000000001,0.2,-8.600000000000001,21.6,-42.0
1698420079762.0,16,-1.4000000000000001,-3.0,0.4,-1.3,6.5,0.1,-10.9,11.9,-37.7
1698420079778.0,16,-1.3,-2.9000000000000004,0.30000000000000004,-1.4000000000000001,6.6000000000000005,0.0,-10.0,0.30000000000000004,-31.099999999999998
1698420079795.0,16,-1.1,-3.0,0.2,-1.2000000000000002,6.5,-0.1,-8.4,-5.1,-26.700000000000003
1698420079812.0,16,-0.9,-2.7,-0.4,-1.1,6.800000000000001,-0.6000000000000001,-6.5,-14.100000000000001,-17.599999999999998
1698420079828.0,16,-0.7000000000000001,-2.3000000000000003,-0.5,-1.0,7.2,-0.7000000000000001,-9.3,-19.1,-9.3
1698420079845.0,16,-0.7000000000000001,-2.1,-0.30000000000000004,-0.9,7.4,-0.6000000000000001,-11.1,-20.4,-4.3999999999999995
1698420079862.0,16,-0.7000000000000001,-1.7000000000000002,0.0,-1.0,7.7,-0.2,-12.200000000000001,-21.6,3.4
1698420079879.0,16,-0.9,-1.7000000000000002,-0.2,-1.2000000000000002,7.7,-0.4,-5.0,-23.900000000000002,8.9
1698420079895.0,16,-0.9,-1.7000000000000002,-0.6000000000000001,-1.1,7.7,-0.8,0.5,-28.0,10.0
1698420079912.0,16,-0.7000000000000001,-1.9000000000000001,-1.3,-0.9,7.5,-1.5,7.500000000000001,-35.8,10.1
1698420079929.0,16,-0.4,-1.2000000000000002,-2.0,-0.6000000000000001,8.200000000000001,-2.3000000000000003,11.1,-35.7,9.8
1698420079945.0,16,-0.2,-0.5,-1.8,-0.30000000000000004,8.9,-2.1,8.5,-35.9,9.8
1698420079962.0,16,0.5,1.3,-0.6000000000000001,0.4,10.700000000000001,-0.9,3.3000000000000003,-25.8,8.700000000000001
1698420079979.0,16,1.0,2.3000000000000003,-1.0,0.9,11.700000000000001,-1.3,4.0,-10.0,9.700000000000001
1698420079996.0,16,1.5,3.0,-1.2000000000000002,1.4000000000000001,12.4,-1.5,2.5,-8.3,13.6
1698420080012.0,16,2.8000000000000003,3.4000000000000004,0.2,2.8000000000000003,12.9,-0.1,3.6,-11.9,17.9
1698420080028.0,16,1.0,2.8000000000000003,0.8,1.1,12.200000000000001,0.5,14.900000000000002,-18.5,8.700000000000001
1698420080045.0,16,-0.7000000000000001,3.2,1.2000000000000002,-0.7000000000000001,12.8,0.8,14.4,-21.6,-1.7
1698420080062.0,16,-1.0,4.0,1.3,-1.0,13.5,0.9,-0.8,-29.400000000000002,-20.6
1698420080079.0,16,-0.1,1.1,2.6,-0.1,10.600000000000001,2.3000000000000003,-4.5,-33.400000000000006,-19.8
1698420080095.0,16,-0.7000000000000001,-0.1,2.7,-0.8,9.4,2.4000000000000004,3.1,-62.199999999999996,-8.0
1698420080123.0,16,-1.5,0.30000000000000004,0.9,-1.7000000000000002,9.9,0.6000000000000001,-12.700000000000001,-63.300000000000004,-11.2
1698420080128.0,16,-0.5,0.9,1.5,-0.7000000000000001,10.5,1.2000000000000002,-19.200000000000003,-59.400000000000006,-9.600000000000001
1698420080145.0,16,1.1,1.5,1.9000000000000001,0.9,11.0,1.7000000000000002,-21.400000000000002,-55.300000000000004,-4.3999999999999995
1698420080162.0,16,2.9000000000000004,0.8,2.2,2.7,10.3,2.1,-16.0,-47.300000000000004,8.700000000000001
1698420080179.0,16,1.6,-0.7000000000000001,1.5,1.5,8.9,1.4000000000000001,-8.600000000000001,-34.900000000000006,20.900000000000002
1698420080195.0,16,0.9,-0.7000000000000001,1.5,0.9,8.9,1.5,-9.3,-29.500000000000004,25.900000000000002
1698420080212.0,16,0.6000000000000001,-0.7000000000000001,0.6000000000000001,0.7000000000000001,8.9,0.6000000000000001,-9.9,-25.1,31.099999999999998
1698420080229.0,16,0.6000000000000001,-1.1,0.7000000000000001,0.8,8.5,0.8,-18.0,-26.8,29.400000000000002
1698420080245.0,16,0.7000000000000001,-1.2000000000000002,1.0,0.9,8.4,1.1,-20.6,-27.3,27.0
1698420080262.0,16,0.8,-1.3,1.0,1.1,8.3,1.2000000000000002,-24.1,-24.9,20.2
1698420080279.0,16,0.7000000000000001,-1.4000000000000001,1.0,1.1,8.1,1.2000000000000002,-23.2,-25.5,12.8
1698420080296.0,16,0.6000000000000001,-1.6,0.9,1.0,7.9,1.2000000000000002,-21.8,-25.400000000000002,9.0
1698420080313.0,16,0.6000000000000001,-1.5,0.7000000000000001,1.0,8.0,1.0,-18.1,-22.4,4.5
1698420080329.0,16,0.7000000000000001,-1.4000000000000001,0.6000000000000001,1.2000000000000002,8.1,1.0,-15.399999999999999,-21.1,3.3000000000000003
1698420080346.0,16,1.0,-1.3,0.6000000000000001,1.5,8.200000000000001,1.0,-6.4,-19.3,0.5
1698420080362.0,16,1.5,-1.3,-0.5,1.9000000000000001,8.1,-0.1,4.800000000000001,-13.9,-0.5
1698420080379.0,16,2.1,-0.8,-0.7000000000000001,2.6,8.700000000000001,-0.30000000000000004,3.5,-2.7,-1.6
1698420080396.0,16,2.1,-0.5,0.1,2.5,9.0,0.5,2.6,2.8,-2.1999999999999997
1698420080412.0,16,1.4000000000000001,-0.8,0.30000000000000004,1.9000000000000001,8.700000000000001,0.7000000000000001,10.2,3.8,-5.1
1698420080429.0,16,0.1,-1.7000000000000002,-0.4,0.5,7.7,-0.1,13.5,16.3,-15.8
1698420080446.0,16,-0.5,-1.8,-0.30000000000000004,-0.1,7.7,0.0,11.700000000000001,27.6,-20.6
1698420080462.0,16,-1.3,0.7000000000000001,0.4,-0.9,10.200000000000001,0.7000000000000001,7.0,49.3,-18.5
1698420080479.0,16,-0.6000000000000001,3.1,1.2000000000000002,-0.30000000000000004,12.5,1.5,2.5,48.1,-12.3
1698420080496.0,16,-0.6000000000000001,2.9000000000000004,1.6,-0.30000000000000004,12.8,2.2,2.5,49.5,-11.6
1698420080513.0,16,-0.7000000000000001,2.1,1.5,-0.5,11.700000000000001,1.8,5.9,45.4,-11.5
1698420080530.0,16,0.1,1.0,1.2000000000000002,-0.2,11.100000000000001,1.8,7.8,38.900000000000006,-10.1
1698420080545.0,16,0.6000000000000001,0.2,0.8,0.7000000000000001,9.700000000000001,1.1,8.9,33.0,-10.4
1698420080563.0,16,0.7000000000000001,0.0,0.9,0.8,9.5,1.1,8.5,33.300000000000004,-9.600000000000001
1698420080579.0,16,0.5,0.1,0.5,0.6000000000000001,9.600000000000001,0.7000000000000001,5.6,33.400000000000006,-8.4
1698420080595.0,16,-0.8,-0.1,0.6000000000000001,-0.8,9.4,0.9,2.9,31.7,-11.000000000000002
1698420080612.0,16,-1.3,-0.1,0.4,-1.3,9.4,0.6000000000000001,2.6,30.9,-12.8
1698420080628.0,16,-1.5,-0.1,0.2,-1.6,9.4,0.5,2.0,29.500000000000004,-16.400000000000002
1698420080645.0,16,-1.0,-0.4,0.2,-1.1,9.1,0.4,2.4000000000000004,24.6,-16.0
1698420080662.0,16,-0.8,-0.4,0.30000000000000004,-1.0,9.1,0.5,2.4000000000000004,21.8,-14.600000000000001
1698420080679.0,16,-0.6000000000000001,-0.5,0.5,-0.8,9.0,0.7000000000000001,3.5,18.5,-10.2
1698420080695.0,16,-0.6000000000000001,-0.6000000000000001,0.4,-0.8,8.9,0.6000000000000001,3.6,18.400000000000002,-5.6
1698420080712.0,16,-0.8,-0.5,0.5,-1.0,9.0,0.7000000000000001,3.3000000000000003,18.900000000000002,-3.7000000000000006
1698420080729.0,16,-1.0,-0.5,0.6000000000000001,-1.2000000000000002,9.0,0.8,3.5,19.3,-0.2
1698420080746.0,16,-0.9,-0.5,0.5,-1.2000000000000002,9.0,0.6000000000000001,5.300000000000001,19.3,1.6
1698420080763.0,16,-0.9,-0.5,0.4,-1.1,9.0,0.5,6.7,18.2,2.1
1698420080779.0,16,-0.9,-0.6000000000000001,0.2,-1.1,8.9,0.4,8.600000000000001,14.900000000000002,2.6
1698420080795.0,16,-0.7000000000000001,-0.30000000000000004,0.0,-1.1,9.0,0.4,9.3,14.600000000000001,2.8
1698420080812.0,16,-0.5,0.0,0.2,-0.8,9.5,0.2,8.4,12.9,3.9
1698420080829.0,16,-0.5,0.30000000000000004,-0.2,-0.7000000000000001,9.8,-0.2,9.4,12.000000000000002,5.0
1698420080846.0,16,-0.7000000000000001,0.30000000000000004,0.1,-1.0,9.700000000000001,0.1,9.0,13.0,5.2
1698420080862.0,16,-0.4,-0.30000000000000004,-0.4,-0.6000000000000001,9.200000000000001,-0.5,12.700000000000001,12.4,11.6
1698420080878.0,16,0.30000000000000004,-0.4,-0.5,0.2,9.1,-0.6000000000000001,15.399999999999999,6.9,15.7
1698420080897.0,16,-0.1,-0.1,-0.5,-0.2,9.4,-0.6000000000000001,13.5,2.1,12.100000000000001
1698420080912.0,16,-0.2,0.1,-0.30000000000000004,-0.30000000000000004,9.600000000000001,-0.4,12.6,1.8,10.4
1698420080929.0,16,-0.1,0.30000000000000004,-0.1,-0.1,9.8,-0.30000000000000004,10.9,0.0,7.300000000000001
1698420080945.0,16,-0.1,0.30000000000000004,0.0,-0.1,9.8,-0.2,8.600000000000001,-1.7,5.4
1698420080962.0,16,-0.1,0.30000000000000004,0.0,-0.2,9.8,-0.2,7.699999999999999,-1.9,5.1
1698420080979.0,16,-0.1,0.30000000000000004,0.0,-0.1,9.8,-0.2,6.000000000000001,-1.7,3.9
1698420080995.0,16,0.0,0.2,-0.1,-0.1,9.700000000000001,-0.30000000000000004,5.4,-1.7,3.4
1698420081012.0,16,0.0,0.2,-0.1,-0.1,9.700000000000001,-0.30000000000000004,3.8,-2.8,3.0000000000000004
1698420081029.0,16,-0.1,0.2,0.1,-0.1,9.700000000000001,-0.2,2.6,-3.5,3.6
1698420081045.0,16,-0.1,0.0,0.0,-0.1,9.5,-0.2,1.7,-2.7,5.1
1698420081062.0,16,0.0,0.0,0.0,0.0,9.5,-0.30000000000000004,1.0999999999999999,-2.3000000000000003,5.8
1698420081079.0,16,0.1,0.0,-0.1,0.2,9.5,-0.4,-0.6000000000000001,-1.0,6.2
1698420081095.0,16,0.2,0.1,-0.1,0.2,9.600000000000001,-0.4,-1.7,0.2,5.6
1698420081112.0,16,0.1,0.1,-0.1,0.2,9.700000000000001,-0.4,-1.2000000000000002,0.5,5.6
1698420081129.0,16,0.1,0.2,-0.1,0.2,9.700000000000001,-0.4,-0.5,0.0,5.9
1698420081145.0,16,0.1,0.2,-0.2,0.2,9.700000000000001,-0.5,1.0,-1.0,6.6000000000000005
1698420081162.0,16,0.1,0.1,-0.30000000000000004,0.2,9.700000000000001,-0.5,1.3,-1.2000000000000002,6.6000000000000005
1698420081180.0,16,0.1,0.0,-0.2,0.2,9.600000000000001,-0.5,1.0999999999999999,-1.6,5.9
1698420081197.0,16,0.0,0.0,-0.2,0.2,9.5,-0.5,0.30000000000000004,-1.8,4.1000000000000005
1698420081212.0,16,0.0,0.0,-0.2,0.2,9.5,-0.5,0.1,-2.4000000000000004,3.5
1698420081230.0,16,0.0,0.0,-0.2,0.2,9.5,-0.6000000000000001,-0.5,-3.6,3.4
1698420081246.0,16,0.0,-0.1,-0.30000000000000004,0.2,9.4,-0.7000000000000001,-1.7,-4.0,4.2
1698420081262.0,16,0.1,-0.1,-0.2,0.4,9.4,-0.6000000000000001,-2.9,-3.4,4.5
1698420081278.0,16,0.1,-0.1,-0.2,0.30000000000000004,9.4,-0.6000000000000001,-3.3000000000000003,-3.9,4.2
1698420081295.0,16,0.1,-0.1,-0.2,0.30000000000000004,9.4,-0.6000000000000001,-3.5,-3.6,3.5
1698420081312.0,16,0.0,-0.1,-0.30000000000000004,0.30000000000000004,9.4,-0.6000000000000001,-3.7000000000000006,-4.1000000000000005,3.1
1698420081329.0,16,0.0,-0.1,-0.30000000000000004,0.30000000000000004,9.4,-0.7000000000000001,-3.9,-4.2,3.1
1698420081345.0,16,0.1,-0.1,-0.30000000000000004,0.4,9.4,-0.6000000000000001,-4.2,-4.1000000000000005,2.9
1698420081363.0,16,0.1,0.0,-0.2,0.4,9.5,-0.6000000000000001,-3.7000000000000006,-4.3999999999999995,2.7
1698420081379.0,16,0.1,0.0,-0.2,0.4,9.5,-0.6000000000000001,-3.4,-4.300000000000001,2.3000000000000003
1698420081395.0,16,0.1,0.0,-0.30000000000000004,0.4,9.4,-0.7000000000000001,-2.8,-4.2,1.7
1698420081412.0,16,0.1,0.0,-0.2,0.4,9.4,-0.6000000000000001,-2.4000000000000004,-4.1000000000000005,1.6
1698420081428.0,16,0.1,-0.1,-0.30000000000000004,0.4,9.4,-0.7000000000000001,-2.5,-3.6,1.7
1698420081445.0,16,0.1,0.0,-0.30000000000000004,0.4,9.4,-0.7000000000000001,-2.7,-3.5,2.0
1698420081462.0,16,0.1,-0.1,-0.2,0.4,9.4,-0.6000000000000001,-2.0,-3.0000000000000004,1.8
1698420081480.0,16,0.1,-0.1,-0.1,0.4,9.4,-0.5,-1.6,-2.7,1.5000000000000002
1698420081496.0,16,0.1,-0.1,-0.1,0.4,9.4,-0.6000000000000001,-0.6000000000000001,-2.0,1.4
1698420081512.0,16,0.1,0.0,-0.2,0.4,9.4,-0.6000000000000001,-0.6000000000000001,-1.9,1.4
1698420081529.0,16,0.0,0.0,-0.2,0.4,9.4,-0.6000000000000001,-0.6000000000000001,-0.9,1.0
1698420081545.0,16,0.0,0.0,-0.1,0.4,9.4,-0.5,-0.2,-0.8,1.2000000000000002
1698420081562.0,16,0.0,-0.1,-0.2,0.4,9.4,-0.7000000000000001,0.4,-0.1,0.8
1698420081579.0,16,0.0,-0.1,-0.30000000000000004,0.4,9.3,-0.7000000000000001,-0.1,-0.8,1.2000000000000002
1698420081595.0,16,0.1,0.0,-0.1,0.4,9.4,-0.5,-0.6000000000000001,-0.4,1.5000000000000002
1698420081612.0,16,0.1,0.0,-0.1,0.4,9.4,-0.6000000000000001,-0.5,-0.4,1.5000000000000002
1698420081629.0,16,0.1,0.0,-0.1,0.5,9.4,-0.5,-0.5,-0.5,1.0999999999999999
1698420081646.0,16,0.0,0.1,-0.1,0.4,9.5,-0.6000000000000001,-0.6000000000000001,-0.6000000000000001,0.7
1698420081662.0,16,0.0,0.1,-0.2,0.4,9.5,-0.6000000000000001,-1.0,-0.8,0.4
1698420081679.0,16,0.0,0.1,-0.2,0.4,9.5,-0.6000000000000001,-1.0999999999999999,-0.8,0.4
1698420081695.0,16,0.0,0.0,-0.1,0.4,9.4,-0.6000000000000001,-1.4,-0.6000000000000001,0.4
1698420081712.0,16,0.0,-0.1,-0.1,0.4,9.4,-0.5,-1.7,-0.4,0.7
1698420081730.0,16,0.0,-0.1,0.0,0.4,9.4,-0.5,-1.7,-0.4,0.7
1698420081746.0,16,0.0,0.0,0.0,0.4,9.4,-0.5,-1.9,0.1,0.9
1698420081762.0,16,0.1,0.0,-0.2,0.5,9.4,-0.7000000000000001,-2.7,0.30000000000000004,0.8
1698420081780.0,16,0.0,0.0,-0.2,0.5,9.4,-0.7000000000000001,-3.3000000000000003,0.2,0.8
1698420081795.0,16,0.0,0.0,-0.1,0.4,9.5,-0.6000000000000001,-3.4,-0.1,0.8
1698420081812.0,16,0.0,0.0,-0.1,0.4,9.4,-0.5,-2.7,-0.1,0.7
1698420081829.0,16,0.0,0.0,0.0,0.4,9.4,-0.5,-2.5,-0.6000000000000001,0.7
1698420081846.0,16,0.0,0.0,-0.1,0.4,9.4,-0.5,-2.0,-0.9,0.4
1698420081862.0,16,0.0,0.0,-0.1,0.4,9.4,-0.5,-2.1,-0.8,0.30000000000000004
1698420081879.0,16,0.0,0.0,-0.1,0.4,9.4,-0.5,-1.9,-0.9,0.2
1698420081896.0,16,0.0,0.0,-0.1,0.4,9.4,-0.5,-1.4,-0.8,0.2
1698420081912.0,16,0.0,0.0,-0.1,0.4,9.4,-0.5,-1.0,-0.9,0.4
1698420081929.0,16,0.0,0.0,-0.1,0.4,9.5,-0.6000000000000001,-0.7,-0.8,0.2
1698420081945.0,16,0.0,0.0,-0.1,0.4,9.5,-0.5,-0.6000000000000001,-0.6000000000000001,0.1
1698420081962.0,16,0.0,0.0,-0.1,0.4,9.5,-0.6000000000000001,-0.1,-0.5,0.1
1698420081978.0,16,0.0,0.0,-0.1,0.4,9.4,-0.5,0.0,-0.1,0.0
1698420081996.0,16,0.0,0.0,-0.1,0.4,9.4,-0.6000000000000001,0.2,0.1,0.0
1698420082012.0,16,0.0,0.0,-0.2,0.4,9.4,-0.6000000000000001,0.0,0.6000000000000001,0.1
1698420082028.0,16,0.0,-0.1,-0.1,0.4,9.4,-0.6000000000000001,0.1,0.6000000000000001,0.1
1698420082045.0,16,0.0,0.0,0.0,0.4,9.4,-0.4,0.30000000000000004,1.0999999999999999,0.1
1698420082062.0,16,0.0,-0.1,-0.30000000000000004,0.4,9.3,-0.8,1.2000000000000002,1.3,-0.30000000000000004
1698420082078.0,16,-0.1,0.0,-0.1,0.30000000000000004,9.5,-0.6000000000000001,0.30000000000000004,0.7,-0.1
1698420082095.0,16,-0.1,0.0,-0.1,0.30000000000000004,9.4,-0.6000000000000001,0.5,0.4,0.2
1698420082112.0,16,0.0,0.0,-0.1,0.4,9.5,-0.6000000000000001,0.6000000000000001,0.4,0.5
1698420082129.0,16,0.0,0.0,0.0,0.4,9.5,-0.6000000000000001,0.6000000000000001,0.5,0.4
1698420082146.0,16,0.0,-0.1,0.0,0.4,9.4,-0.6000000000000001,0.30000000000000004,1.0,0.0
1698420082162.0,16,0.0,0.0,0.0,0.4,9.4,-0.5,0.0,0.9,-0.2
1698420082180.0,16,0.0,0.0,0.1,0.4,9.4,-0.5,-0.1,1.0,-0.2
1698420082196.0,16,0.0,0.1,0.0,0.4,9.5,-0.5,-0.2,1.2000000000000002,-0.1
1698420082212.0,16,-0.1,0.1,-0.1,0.30000000000000004,9.5,-0.6000000000000001,-0.5,0.9,0.1
1698420082229.0,16,-0.1,0.0,0.0,0.30000000000000004,9.5,-0.5,-0.5,0.6000000000000001,0.2
1698420082245.0,16,-0.1,0.0,0.0,0.4,9.5,-0.5,0.1,0.1,0.6000000000000001
1698420082262.0,16,0.0,0.0,0.0,0.4,9.4,-0.5,0.30000000000000004,-0.2,0.5
1698420082279.0,16,-0.1,0.0,0.0,0.4,9.4,-0.5,0.30000000000000004,-0.4,0.4
1698420082295.0,16,-0.1,0.0,0.0,0.30000000000000004,9.5,-0.5,0.5,-0.7,0.6000000000000001
1698420082312.0,16,0.0,0.0,0.0,0.4,9.4,-0.5,0.1,-1.0999999999999999,0.30000000000000004
1698420082329.0,16,0.0,0.0,0.1,0.4,9.4,-0.4,0.2,-1.0999999999999999,0.2
1698420082345.0,16,0.0,0.0,0.1,0.4,9.5,-0.5,0.2,-1.0999999999999999,0.1
1698420082362.0,16,0.0,0.0,0.0,0.4,9.5,-0.5,0.5,-1.0,0.2
1698420082379.0,16,0.0,0.0,0.0,0.4,9.4,-0.5,0.6000000000000001,-0.8,0.4
1698420082395.0,16,0.0,0.0,0.0,0.4,9.5,-0.5,0.5,-0.7,0.7
1698420082412.0,16,0.0,0.0,0.0,0.4,9.4,-0.5,0.7,-0.5,0.9
1698420082429.0,16,0.0,0.0,0.0,0.4,9.4,-0.5,0.7,-0.1,0.8
1698420082445.0,16,0.0,0.0,0.0,0.5,9.4,-0.5,0.7,0.0,0.7
1698420082462.0,16,0.0,0.0,0.0,0.4,9.4,-0.5,0.5,0.0,0.7
1698420082479.0,16,0.0,0.0,0.0,0.4,9.5,-0.5,0.30000000000000004,0.2,0.6000000000000001
1698420082495.0,16,0.0,0.0,0.0,0.4,9.5,-0.5,0.2,0.0,0.6000000000000001
1698420082512.0,16,0.0,0.0,0.0,0.4,9.5,-0.5,0.1,0.0,0.30000000000000004
1698420082529.0,16,0.0,0.0,0.0,0.4,9.5,-0.5,0.4,-0.1,0.1
1698420082545.0,16,0.0,0.0,0.0,0.4,9.5,-0.5,0.4,-0.1,0.1
1698420082562.0,16,0.0,0.0,0.0,0.4,9.4,-0.5,0.5,-0.2,-0.1
1698420082579.0,16,0.0,0.0,0.0,0.4,9.4,-0.6000000000000001,0.4,0.0,-0.1
1698420082596.0,16,0.0,0.0,0.0,0.4,9.4,-0.6000000000000001,0.2,0.1,-0.1
1698420082612.0,16,0.0,0.0,0.0,0.5,9.4,-0.6000000000000001,0.0,0.2,-0.2
1698420082629.0,16,0.0,0.0,0.0,0.4,9.4,-0.5,-0.1,0.2,-0.30000000000000004
1698420082645.0,16,0.0,0.0,0.0,0.4,9.5,-0.5,-0.1,0.4,-0.2
1698420082662.0,16,0.0,0.0,0.0,0.4,9.5,-0.5,-0.1,0.5,-0.2
1698420082679.0,16,0.0,0.0,0.0,0.4,9.4,-0.5,-0.1,0.7,-0.30000000000000004
1698420082695.0,16,0.0,0.0,0.0,0.4,9.4,-0.5,-0.30000000000000004,0.8,-0.4
1698420082712.0,16,0.0,0.0,0.0,0.4,9.4,-0.5,-0.6000000000000001,1.0,-0.30000000000000004
1698420082729.0,16,0.0,0.0,0.0,0.4,9.4,-0.5,-0.5,1.0999999999999999,-0.1
1698420082745.0,16,0.0,0.0,0.0,0.4,9.5,-0.6000000000000001,-0.6000000000000001,1.2000000000000002,-0.30000000000000004
1698420082762.0,16,0.0,0.0,0.0,0.4,9.5,-0.5,-0.7,1.0999999999999999,-0.5
1698420082779.0,16,-0.1,0.0,0.0,0.4,9.4,-0.5,-0.8,0.8,-0.7
1698420082795.0,16,-0.1,0.0,0.0,0.30000000000000004,9.5,-0.5,-0.7,0.5,-0.5
1698420082812.0,16,0.0,0.0,0.0,0.4,9.5,-0.5,-0.7,0.6000000000000001,-0.7
1698420082829.0,16,0.0,0.0,-0.1,0.4,9.5,-0.6000000000000001,-0.6000000000000001,0.6000000000000001,-0.9
1698420082845.0,16,0.0,0.0,-0.1,0.4,9.5,-0.6000000000000001,-0.8,0.5,-1.0
1698420082862.0,16,0.0,0.0,0.0,0.4,9.5,-0.5,-1.2000000000000002,0.7,-1.0999999999999999
1698420082878.0,16,0.0,0.0,0.0,0.4,9.5,-0.5,-1.0,1.0,-0.9
1698420082895.0,16,0.0,0.1,-0.1,0.4,9.5,-0.6000000000000001,-1.0999999999999999,1.3,-0.6000000000000001
1698420082912.0,16,0.0,0.1,-0.1,0.4,9.5,-0.6000000000000001,-1.0999999999999999,1.3,-0.5
1698420082929.0,16,0.0,0.0,0.0,0.4,9.5,-0.5,-1.2000000000000002,1.0999999999999999,-0.4
1698420082945.0,16,0.0,0.0,0.0,0.4,9.4,-0.5,-1.0,1.3,-0.5
1698420082962.0,16,0.0,0.0,0.0,0.4,9.4,-0.5,-1.0,1.4,-0.4
1698420082979.0,16,0.0,-0.1,0.0,0.30000000000000004,9.4,-0.5,-0.9,1.3,-0.1
1698420082995.0,16,0.0,0.0,0.0,0.4,9.4,-0.5,-0.9,0.8,0.0
1698420083012.0,16,0.0,0.0,0.0,0.4,9.5,-0.5,-1.0999999999999999,0.6000000000000001,-0.1
1698420083029.0,16,0.0,0.0,0.0,0.4,9.5,-0.5,-0.9,0.5,-0.4
1698420083045.0,16,0.0,0.0,0.0,0.4,9.5,-0.5,-0.9,0.5,-0.5
1698420083062.0,16,0.0,0.0,0.0,0.4,9.4,-0.5,-0.9,0.4,-0.5
1698420083079.0,16,0.0,0.0,0.0,0.4,9.4,-0.5,-0.6000000000000001,0.2,-0.4
1698420083096.0,16,0.0,0.0,0.0,0.4,9.4,-0.5,-0.2,0.0,-0.1
1698420083113.0,16,0.0,0.0,0.0,0.4,9.4,-0.5,-0.2,-0.1,-0.2
1698420083129.0,16,0.1,0.0,0.0,0.4,9.4,-0.5,-0.2,0.0,-0.4
1698420083145.0,16,0.0,0.0,-0.1,0.4,9.5,-0.6000000000000001,-0.30000000000000004,0.1,-0.4
1698420083162.0,16,0.0,0.1,-0.1,0.4,9.5,-0.6000000000000001,-0.5,0.0,-0.4
1698420083179.0,16,0.0,0.0,0.0,0.4,9.5,-0.5,-0.8,0.0,-0.2
1698420083195.0,16,0.0,0.0,0.0,0.4,9.5,-0.5,-1.2000000000000002,0.30000000000000004,-0.4
1698420083212.0,16,0.0,0.0,0.0,0.4,9.4,-0.5,-1.3,0.4,-0.5
1698420083229.0,16,0.0,0.0,0.1,0.4,9.4,-0.4,-1.3,0.30000000000000004,-0.7
1698420083245.0,16,0.0,0.0,0.0,0.4,9.4,-0.4,-1.4,-0.1,-0.4
1698420083262.0,16,0.0,0.0,0.1,0.4,9.4,-0.4,-1.6,-0.5,-0.2
1698420083279.0,16,0.0,0.0,0.0,0.4,9.5,-0.4,-1.7,-0.9,-0.2
1698420083295.0,16,0.0,0.0,0.1,0.4,9.5,-0.4,-1.7,-1.4,-0.2
1698420083312.0,16,0.0,0.0,0.1,0.4,9.5,-0.4,-1.9,-2.6,-0.5
1698420083328.0,16,0.0,0.0,0.1,0.30000000000000004,9.5,-0.4,-1.8,-3.1,-0.5
1698420083345.0,16,-0.1,0.0,0.1,0.30000000000000004,9.5,-0.30000000000000004,-2.0,-4.300000000000001,-0.7
1698420083362.0,16,0.0,0.0,0.1,0.4,9.5,-0.4,-2.0,-4.7,-0.8
1698420083379.0,16,0.0,0.1,0.1,0.4,9.5,-0.30000000000000004,-2.5,-5.500000000000001,-1.3
1698420083395.0,16,0.0,0.0,0.0,0.30000000000000004,9.5,-0.4,-3.1,-6.5,-1.5000000000000002
1698420083413.0,16,-0.1,0.0,0.1,0.2,9.5,-0.30000000000000004,-3.9,-7.699999999999999,-1.9
1698420083429.0,16,-0.2,0.0,0.1,0.2,9.5,-0.30000000000000004,-4.2,-8.3,-1.9
1698420083446.0,16,-0.2,0.0,0.1,0.2,9.5,-0.2,-4.7,-9.4,-1.9
1698420083463.0,16,-0.2,0.0,0.1,0.1,9.5,-0.2,-4.800000000000001,-10.2,-2.1
1698420083479.0,16,-0.2,0.0,0.1,0.0,9.5,-0.2,-5.0,-11.3,-2.1999999999999997
1698420083496.0,16,-0.2,0.1,0.2,0.1,9.5,-0.1,-5.2,-12.4,-2.3000000000000003
1698420083513.0,16,-0.1,0.1,0.1,0.1,9.5,-0.2,-5.2,-13.0,-2.5
1698420083530.0,16,-0.1,0.1,0.0,0.1,9.5,-0.30000000000000004,-5.8,-14.4,-3.0000000000000004
1698420083546.0,16,-0.2,0.0,0.1,0.0,9.5,-0.1,-6.5,-15.2,-3.4
1698420083562.0,16,-0.2,0.1,0.0,0.0,9.5,-0.2,-6.6000000000000005,-15.8,-3.4
1698420083579.0,16,-0.2,0.1,0.0,0.0,9.600000000000001,-0.2,-8.0,-15.8,-3.4
1698420083595.0,16,-0.30000000000000004,0.2,0.1,-0.1,9.700000000000001,-0.1,-9.1,-15.9,-2.9
1698420083612.0,16,-0.2,0.1,0.1,-0.1,9.600000000000001,-0.1,-9.700000000000001,-15.8,-2.6
1698420083630.0,16,-0.2,0.0,0.2,-0.1,9.5,0.1,-10.5,-14.900000000000002,-2.1999999999999997
1698420083645.0,16,-0.30000000000000004,-0.1,0.2,-0.2,9.4,0.1,-10.8,-13.200000000000001,-1.8
1698420083662.0,16,-0.5,-0.2,0.0,-0.4,9.3,0.0,-11.000000000000002,-13.200000000000001,-1.0999999999999999
1698420083679.0,16,-0.5,-0.2,0.0,-0.5,9.3,0.0,-11.4,-13.4,-0.6000000000000001
1698420083695.0,16,-0.6000000000000001,-0.2,-0.1,-0.5,9.3,-0.1,-11.700000000000001,-14.700000000000001,-0.2
1698420083712.0,16,-0.7000000000000001,0.0,-0.2,-0.6000000000000001,9.5,-0.2,-11.9,-16.3,-0.5
1698420083728.0,16,-0.7000000000000001,0.2,-0.30000000000000004,-0.6000000000000001,9.700000000000001,-0.2,-11.9,-17.9,-0.7
1698420083745.0,16,-0.5,0.4,-0.30000000000000004,-0.5,9.9,-0.2,-12.000000000000002,-21.0,-1.8
1698420083762.0,16,-0.6000000000000001,0.4,-0.4,-0.5,9.9,-0.2,-11.1,-23.400000000000002,-3.8
1698420083779.0,16,-0.6000000000000001,0.30000000000000004,-0.30000000000000004,-0.6000000000000001,9.8,-0.2,-10.5,-24.1,-4.7
1698420083795.0,16,-0.6000000000000001,0.1,-0.4,-0.6000000000000001,9.600000000000001,-0.2,-8.799999999999999,-24.8,-5.1
1698420083812.0,16,-0.6000000000000001,0.1,-0.4,-0.6000000000000001,9.600000000000001,-0.2,-7.699999999999999,-24.7,-5.9
1698420083829.0,16,-0.7000000000000001,0.0,-0.4,-0.7000000000000001,9.5,-0.2,-7.1000000000000005,-24.7,-6.5
1698420083845.0,16,-0.8,0.0,-0.30000000000000004,-0.8,9.5,-0.1,-6.1000000000000005,-24.400000000000002,-7.300000000000001
1698420083862.0,16,-0.8,0.1,-0.30000000000000004,-0.9,9.600000000000001,0.0,-4.3999999999999995,-24.6,-8.200000000000001
1698420083879.0,16,-0.9,0.0,-0.4,-0.9,9.5,-0.1,-2.8,-25.400000000000002,-8.200000000000001
1698420083896.0,16,-1.1,-0.2,-0.5,-1.2000000000000002,9.3,-0.30000000000000004,-0.6000000000000001,-27.7,-8.0
1698420083912.0,16,-1.1,-0.4,-0.4,-1.3,9.1,-0.1,-0.30000000000000004,-29.800000000000004,-5.7
1698420083928.0,16,-1.1,-0.4,-0.30000000000000004,-1.2000000000000002,9.1,-0.1,-0.5,-30.5,-3.5
1698420083945.0,16,-0.7000000000000001,-0.30000000000000004,-0.30000000000000004,-0.8,9.200000000000001,0.0,-0.8,-32.0,2.3000000000000003
1698420083962.0,16,-0.4,0.1,0.1,-0.5,9.600000000000001,0.4,-4.5,-30.5,6.7
1698420083979.0,16,-0.2,0.30000000000000004,0.2,-0.30000000000000004,9.8,0.5,-5.1,-27.6,8.600000000000001
1698420083996.0,16,0.30000000000000004,0.4,0.30000000000000004,0.30000000000000004,9.9,0.6000000000000001,-7.300000000000001,-23.400000000000002,13.200000000000001
1698420084012.0,16,0.5,0.8,0.8,0.5,10.3,1.1,-9.200000000000001,-20.2,13.6
1698420084029.0,16,0.4,0.9,0.6000000000000001,0.4,10.4,1.0,-8.600000000000001,-18.3,12.5
1698420084046.0,16,0.1,0.6000000000000001,0.30000000000000004,0.2,10.200000000000001,0.7000000000000001,-11.1,-17.0,11.700000000000001
1698420084062.0,16,-0.1,0.30000000000000004,0.5,-0.1,9.8,0.9,-16.700000000000003,-18.3,12.6
1698420084079.0,16,-0.4,0.1,0.5,-0.30000000000000004,9.600000000000001,1.0,-20.4,-18.8,12.000000000000002
1698420084096.0,16,-0.7000000000000001,-0.1,0.5,-0.6000000000000001,9.4,1.1,-27.900000000000002,-21.6,11.9
1698420084112.0,16,-0.6000000000000001,-0.4,0.5,-0.5,9.1,1.2000000000000002,-34.1,-28.8,10.3
1698420084130.0,16,-0.6000000000000001,-0.5,0.4,-0.4,9.0,1.2000000000000002,-36.800000000000004,-34.900000000000006,9.5
1698420084145.0,16,-0.4,-0.5,0.4,-0.2,9.0,1.3,-42.400000000000006,-46.900000000000006,10.1
1698420084162.0,16,0.0,-0.2,0.5,0.30000000000000004,9.3,1.6,-46.0,-59.300000000000004,11.1
1698420084179.0,16,0.30000000000000004,0.0,0.7000000000000001,0.5,9.4,1.8,-46.0,-65.8,11.4
1698420084195.0,16,0.5,0.1,0.4,0.9,9.5,1.7000000000000002,-42.900000000000006,-77.80000000000001,13.200000000000001
1698420084212.0,16,0.5,0.2,-0.1,0.9,9.600000000000001,1.2000000000000002,-42.5,-79.6,15.6
1698420084230.0,16,0.5,0.2,-0.5,1.1,9.700000000000001,1.1,-43.0,-79.00000000000001,17.5
1698420084245.0,16,0.6000000000000001,0.30000000000000004,-0.5,1.2000000000000002,9.700000000000001,1.1,-42.900000000000006,-77.4,20.6
1698420084262.0,16,0.4,0.1,-0.8,1.2000000000000002,9.5,0.9,-40.8,-74.7,22.000000000000004
1698420084278.0,16,0.30000000000000004,-0.2,-0.8,1.1,9.200000000000001,0.9,-39.699999999999996,-74.4,22.5
1698420084295.0,16,0.1,-0.4,-1.2000000000000002,1.0,8.9,0.6000000000000001,-37.7,-73.8,23.400000000000002
1698420084312.0,16,0.1,-0.1,-1.1,1.2000000000000002,9.200000000000001,0.8,-37.0,-74.5,24.1
1698420084330.0,16,0.2,0.0,-1.3,1.3,9.3,0.7000000000000001,-36.2,-75.4,24.1
1698420084346.0,16,0.2,-0.1,-1.1,1.4000000000000001,9.1,0.9,-34.400000000000006,-77.5,20.4
1698420084362.0,16,0.0,-0.5,-1.1,1.4000000000000001,8.700000000000001,1.0,-30.9,-79.10000000000001,14.4
1698420084380.0,16,-0.1,-0.6000000000000001,-1.1,1.3,8.6,1.0,-29.1,-79.9,10.9
1698420084396.0,16,-0.30000000000000004,-0.6000000000000001,-1.1,1.2000000000000002,8.6,1.0,-27.1,-83.30000000000001,4.0
1698420084413.0,16,-0.2,-0.4,-1.1,1.3,8.700000000000001,1.1,-24.3,-87.7,-1.5000000000000002
1698420084429.0,16,-0.1,-0.30000000000000004,-1.1,1.5,8.8,1.1,-21.3,-91.4,-6.000000000000001
1698420084445.0,16,-0.1,-0.2,-1.1,1.6,8.9,1.1,-20.3,-92.9,-7.699999999999999
1698420084463.0,16,-0.1,-0.1,-0.8,1.5,9.0,1.4000000000000001,-18.3,-97.2,-9.5
1698420084479.0,16,-0.1,0.2,-0.7000000000000001,1.6,9.200000000000001,1.4000000000000001,-17.200000000000003,-99.8,-9.9
1698420084496.0,16,-0.2,0.1,-0.5,1.5,9.200000000000001,1.6,-16.2,-108.7,-12.000000000000002
1698420084512.0,16,0.0,0.0,-0.4,1.8,9.1,1.7000000000000002,-14.900000000000002,-114.4,-13.100000000000001
1698420084528.0,16,0.1,-0.1,-0.4,1.9000000000000001,9.0,1.7000000000000002,-13.9,-119.20000000000002,-14.4
1698420084545.0,16,0.0,-0.1,-0.5,1.8,9.0,1.5,-13.5,-121.5,-14.600000000000001
1698420084562.0,16,0.0,-0.1,-0.6000000000000001,1.8,9.0,1.4000000000000001,-13.9,-124.50000000000001,-14.3
1698420084578.0,16,0.1,0.0,-0.6000000000000001,2.0,9.1,1.4000000000000001,-14.100000000000001,-126.20000000000002,-14.800000000000002
1698420084595.0,16,0.1,0.0,-0.6000000000000001,2.0,9.1,1.3,-14.0,-127.10000000000001,-15.399999999999999
1698420084613.0,16,0.1,-0.1,-0.6000000000000001,2.1,9.0,1.3,-13.200000000000001,-128.1,-16.8
1698420084630.0,16,0.1,-0.1,-0.7000000000000001,2.1,8.9,1.2000000000000002,-12.9,-128.60000000000002,-17.8
1698420084646.0,16,0.2,-0.2,-0.7000000000000001,2.2,8.9,1.1,-12.5,-127.9,-19.400000000000002
1698420084662.0,16,0.30000000000000004,-0.1,-0.7000000000000001,2.4000000000000004,9.0,1.1,-11.9,-126.8,-21.1
1698420084679.0,16,0.5,-0.1,-0.6000000000000001,2.5,8.9,1.1,-11.1,-126.60000000000001,-22.7
1698420084696.0,16,0.6000000000000001,-0.2,-0.6000000000000001,2.7,8.9,1.1,-11.000000000000002,-125.6,-23.6
1698420084713.0,16,0.9,-0.2,-0.5,2.9000000000000004,8.9,1.2000000000000002,-10.600000000000001,-122.60000000000001,-26.200000000000003
1698420084729.0,16,1.0,-0.30000000000000004,-0.4,3.0,8.8,1.2000000000000002,-10.3,-120.9,-27.6
1698420084746.0,16,0.9,-0.30000000000000004,-0.30000000000000004,2.9000000000000004,8.8,1.2000000000000002,-9.9,-119.0,-29.500000000000004
1698420084762.0,16,1.0,-0.4,-0.30000000000000004,2.9000000000000004,8.700000000000001,1.2000000000000002,-9.1,-115.60000000000001,-30.200000000000003
1698420084779.0,16,1.1,-0.4,-0.2,3.0,8.700000000000001,1.2000000000000002,-8.700000000000001,-112.60000000000001,-29.800000000000004
1698420084796.0,16,1.1,-0.4,-0.2,3.1,8.8,1.2000000000000002,-8.700000000000001,-111.70000000000002,-29.300000000000004
1698420084817.0,16,1.2000000000000002,-0.4,-0.1,3.1,8.8,1.2000000000000002,-8.600000000000001,-108.7,-27.900000000000002
1698420084831.0,16,1.2000000000000002,-0.30000000000000004,0.1,3.1,8.8,1.4000000000000001,-8.4,-106.7,-26.400000000000002
1698420084845.0,16,1.2000000000000002,-0.5,0.1,3.0,8.6,1.4000000000000001,-6.5,-105.5,-25.700000000000003
1698420084865.0,16,1.0,-0.4,0.1,3.0,8.700000000000001,1.3,-6.1000000000000005,-104.2,-25.2
1698420084879.0,16,1.0,-0.8,0.1,3.0,8.3,1.3,-5.8,-107.00000000000001,-25.0
1698420084895.0,16,1.1,-1.0,-0.1,3.0,8.1,1.0,-4.800000000000001,-106.5,-25.3
1698420084912.0,16,1.3,-1.1,-0.1,3.2,8.0,1.0,-5.1,-105.7,-25.6
1698420084929.0,16,1.3,-1.0,-0.2,3.2,8.1,0.8,-6.1000000000000005,-103.5,-27.6
1698420084946.0,16,1.3,-0.9,0.1,3.1,8.200000000000001,1.1,-6.7,-102.60000000000001,-28.6
1698420084962.0,16,0.5,-0.1,0.0,2.3000000000000003,9.1,1.0,-8.600000000000001,-91.9,-30.100000000000005
1698420084979.0,16,-1.5,1.2000000000000002,1.5,0.30000000000000004,10.4,2.4000000000000004,-2.7,-89.7,-25.700000000000003
1698420084995.0,16,-2.1,1.1,-0.8,-0.4,10.3,0.2,5.2,-85.3,-21.5
1698420085013.0,16,1.0,-0.1,-0.6000000000000001,2.0,8.700000000000001,-1.6,-0.6000000000000001,-62.1,-5.7
1698420085029.0,16,0.8,0.9,1.3,2.6,10.0,2.1,-2.1999999999999997,-61.900000000000006,15.6
1698420085045.0,16,-1.0,1.6,-1.5,0.8,10.8,-0.8,8.0,-108.5,26.200000000000003
1698420085062.0,16,-2.0,0.7000000000000001,-2.5,-0.1,9.9,-1.8,5.2,-115.60000000000001,23.400000000000002
1698420085078.0,16,-2.1,-0.8,-1.7000000000000002,-0.1,8.4,-1.0,-1.2000000000000002,-103.2,17.200000000000003
1698420085095.0,16,-1.6,0.9,-2.4000000000000004,0.4,10.0,-1.9000000000000001,-7.2,-80.4,10.8
1698420085112.0,16,-1.4000000000000001,2.4000000000000004,-2.0,0.7000000000000001,11.600000000000001,-1.5,-12.4,-76.4,6.3
1698420085129.0,16,-1.2000000000000002,4.0,-1.1,0.8,13.200000000000001,-0.6000000000000001,-7.699999999999999,-77.9,-7.1000000000000005
1698420085145.0,16,-2.3000000000000003,1.8,-1.8,-0.4,11.0,-1.4000000000000001,4.800000000000001,-95.2,-20.8
1698420085162.0,16,-2.5,0.8,-2.1,-0.6000000000000001,10.0,-1.7000000000000002,5.0,-99.9,-24.8
1698420085178.0,16,-2.1,0.2,-2.0,-0.30000000000000004,9.4,-1.7000000000000002,-0.8,-103.4,-31.2
1698420085195.0,16,-2.0,0.4,-1.5,-0.30000000000000004,9.700000000000001,-1.2000000000000002,-7.300000000000001,-107.00000000000001,-39.400000000000006
1698420085212.0,16,-2.2,0.6000000000000001,-1.2000000000000002,-0.6000000000000001,9.9,-1.0,-10.2,-107.5,-41.9
1698420085229.0,16,-2.1,0.7000000000000001,-0.6000000000000001,-0.6000000000000001,10.0,-0.4,-13.0,-108.2,-40.3
1698420085245.0,16,-1.3,0.1,-0.4,0.0,9.5,-0.2,-12.000000000000002,-111.10000000000001,-34.7
1698420085262.0,16,-1.0,-0.2,-0.4,0.4,8.9,-0.4,-11.8,-111.60000000000001,-32.2
1698420085279.0,16,-0.8,-0.7000000000000001,-0.5,0.4,8.700000000000001,-0.30000000000000004,-13.9,-109.7,-29.500000000000004
1698420085295.0,16,-0.9,-0.7000000000000001,-0.2,0.2,8.6,0.0,-14.700000000000001,-104.5,-28.900000000000002
1698420085312.0,16,-1.1,-0.6000000000000001,-0.1,-0.1,8.8,0.1,-13.5,-102.4,-28.400000000000002
1698420085328.0,16,-1.5,-0.2,-0.2,-0.6000000000000001,9.1,-0.1,-10.0,-100.4,-27.6
1698420085345.0,16,-1.7000000000000002,-0.1,-0.6000000000000001,-0.8,9.200000000000001,-0.4,-9.5,-103.5,-25.3
1698420085362.0,16,-1.6,-0.1,-0.6000000000000001,-0.8,9.3,-0.5,-9.5,-105.00000000000001,-24.1
1698420085379.0,16,-1.2000000000000002,0.0,-0.8,-0.5,9.4,-0.6000000000000001,-8.0,-106.80000000000001,-22.2
1698420085395.0,16,-0.9,0.30000000000000004,-1.3,-0.2,9.700000000000001,-1.2000000000000002,-7.0,-106.2,-23.8
1698420085412.0,16,-0.8,0.30000000000000004,-1.4000000000000001,-0.2,9.700000000000001,-1.3,-7.699999999999999,-104.80000000000001,-25.1
1698420085429.0,16,-0.7000000000000001,0.2,-1.4000000000000001,-0.1,9.600000000000001,-1.3,-8.600000000000001,-102.10000000000001,-24.3
1698420085445.0,16,-0.7000000000000001,0.0,-1.4000000000000001,-0.2,9.4,-1.2000000000000002,-9.700000000000001,-97.9,-20.3
1698420085462.0,16,-0.7000000000000001,0.0,-1.3,-0.2,9.4,-1.2000000000000002,-10.5,-97.00000000000001,-18.5
1698420085479.0,16,-0.6000000000000001,0.1,-1.3,-0.30000000000000004,9.5,-1.2000000000000002,-12.000000000000002,-92.9,-16.3
1698420085495.0,16,-0.5,0.1,-1.2000000000000002,-0.1,9.5,-1.0,-12.4,-91.50000000000001,-13.4
1698420085512.0,16,-0.4,-0.1,-1.0,-0.1,9.5,-0.9,-12.5,-90.2,-12.6
1698420085528.0,16,-0.5,-0.2,-1.0,-0.2,9.200000000000001,-0.9,-12.200000000000001,-88.3,-11.6
1698420085545.0,16,-0.5,-0.4,-0.9,-0.30000000000000004,9.0,-0.7000000000000001,-12.6,-86.4,-12.000000000000002
1698420085562.0,16,-0.6000000000000001,-0.4,-1.0,-0.30000000000000004,9.1,-0.7000000000000001,-12.700000000000001,-84.2,-11.1
1698420085579.0,16,-0.6000000000000001,-0.5,-1.0,-0.4,9.0,-0.7000000000000001,-13.4,-84.0,-11.000000000000002
1698420085595.0,16,-0.4,-0.30000000000000004,-0.8,-0.30000000000000004,8.9,-0.7000000000000001,-13.6,-82.60000000000001,-10.2
1698420085612.0,16,-0.30000000000000004,-0.30000000000000004,-0.9,-0.2,9.1,-0.6000000000000001,-12.6,-82.9,-6.3
1698420085629.0,16,-0.2,-0.30000000000000004,-1.0,-0.1,9.1,-0.7000000000000001,-11.6,-79.5,-2.6
1698420085645.0,16,-0.1,-0.4,-1.0,0.0,9.0,-0.6000000000000001,-9.5,-76.0,1.0
1698420085662.0,16,-0.2,-0.4,-1.1,0.0,9.0,-0.7000000000000001,-7.2,-72.4,3.4
1698420085679.0,16,-0.2,-0.30000000000000004,-1.3,0.0,9.1,-0.9,-6.4,-71.0,4.300000000000001
1698420085695.0,16,-0.5,-0.1,-1.4000000000000001,-0.30000000000000004,9.3,-1.1,-6.4,-69.10000000000001,5.9
1698420085712.0,16,-0.7000000000000001,0.1,-1.4000000000000001,-0.5,9.600000000000001,-1.1,-6.4,-67.7,7.2
1698420085729.0,16,-0.7000000000000001,0.2,-1.5,-0.5,9.600000000000001,-1.1,-6.1000000000000005,-67.2,7.400000000000001
1698420085745.0,16,-0.8,0.1,-1.6,-0.5,9.5,-1.2000000000000002,-5.500000000000001,-65.7,8.700000000000001
1698420085762.0,16,-0.7000000000000001,0.0,-1.6,-0.4,9.4,-1.2000000000000002,-5.300000000000001,-64.4,10.4
1698420085779.0,16,-0.6000000000000001,0.0,-1.5,-0.30000000000000004,9.4,-1.2000000000000002,-4.7,-64.0,10.8
1698420085795.0,16,-0.6000000000000001,-0.1,-1.8,-0.2,9.3,-1.4000000000000001,-2.1,-64.4,12.3
1698420085812.0,16,-0.5,0.1,-2.1,-0.1,9.5,-1.8,0.5,-65.0,13.6
1698420085829.0,16,-0.5,0.9,-1.9000000000000001,0.0,10.200000000000001,-1.6,0.1,-64.10000000000001,13.3
1698420085845.0,16,1.0,3.4000000000000004,0.4,1.5,12.8,0.7000000000000001,-11.9,-59.5,8.4
1698420085862.0,16,2.4000000000000004,2.2,0.9,2.9000000000000004,11.600000000000001,1.3,7.9,-49.2,7.9
1698420085878.0,16,1.4000000000000001,1.2000000000000002,0.1,1.9000000000000001,10.600000000000001,0.4,9.600000000000001,-37.1,3.2
1698420085895.0,16,-0.7000000000000001,0.5,-0.1,-0.1,10.0,0.1,3.1,-31.8,5.500000000000001
1698420085912.0,16,-0.9,1.5,-0.1,-0.30000000000000004,10.3,0.2,3.7000000000000006,-34.1,11.3
1698420085929.0,16,-1.2000000000000002,2.0,-0.2,-0.5,11.4,0.0,6.1000000000000005,-51.5,12.000000000000002
1698420085945.0,16,-1.7000000000000002,1.3,0.6000000000000001,-1.1,10.8,0.8,4.800000000000001,-62.199999999999996,1.4
1698420085962.0,16,-1.6,0.4,1.2000000000000002,-1.0,9.8,1.4000000000000001,-0.5,-70.6,-6.7
1698420085979.0,16,-1.1,0.1,1.5,-0.5,9.600000000000001,1.7000000000000002,-5.2,-75.5,-6.9
1698420085996.0,16,0.30000000000000004,0.6000000000000001,2.1,0.9,10.100000000000001,2.3000000000000003,-17.1,-86.80000000000001,-4.9
1698420086012.0,16,0.6000000000000001,0.1,2.6,1.2000000000000002,9.600000000000001,2.9000000000000004,-16.700000000000003,-82.4,-0.5
1698420086029.0,16,0.2,-0.4,2.3000000000000003,0.8,9.0,2.6,-13.100000000000001,-74.60000000000001,-0.4
1698420086046.0,16,-0.8,-1.0,1.6,-0.2,8.5,2.0,-7.300000000000001,-54.3,-1.6
1698420086062.0,16,-0.9,-1.2000000000000002,1.0,-0.30000000000000004,8.200000000000001,1.4000000000000001,-6.9,-45.1,3.2
1698420086079.0,16,-0.5,-1.2000000000000002,1.1,0.1,8.3,1.5,-7.699999999999999,-42.0,7.6
1698420086095.0,16,0.9,-1.0,1.0,1.6,8.4,1.4000000000000001,-9.3,-34.900000000000006,16.900000000000002
1698420086112.0,16,1.4000000000000001,-0.8,1.0,2.5,8.700000000000001,1.4000000000000001,-10.2,-31.8,21.3
1698420086128.0,16,1.3,-0.9,0.8,2.2,8.5,1.3,-4.2,-16.1,30.200000000000003
1698420086145.0,16,0.8,-0.8,0.7000000000000001,1.7000000000000002,8.6,1.2000000000000002,-1.0999999999999999,-9.0,30.799999999999997
1698420086161.0,16,-0.2,-0.5,0.0,0.8,8.9,0.5,3.8,0.5,30.299999999999997
1698420086178.0,16,-0.5,-0.4,-0.2,0.6000000000000001,9.0,0.30000000000000004,3.9,1.3,28.700000000000003
1698420086196.0,16,-0.8,-0.4,-0.2,0.4,9.0,0.2,2.3000000000000003,-1.6,22.8
1698420086212.0,16,-0.6000000000000001,-0.8,-0.2,0.6000000000000001,8.6,0.30000000000000004,-0.8,-5.6,15.299999999999999
1698420086229.0,16,-0.5,-0.8,-0.2,0.8,8.5,0.30000000000000004,-2.5,-5.8,11.6
1698420086245.0,16,-0.1,-0.8,0.0,1.1,8.6,0.5,-6.1000000000000005,-6.6000000000000005,6.7
1698420086262.0,16,0.2,-0.7000000000000001,0.2,1.5,8.700000000000001,0.7000000000000001,-7.2,-5.6,4.800000000000001
1698420086278.0,16,0.30000000000000004,-0.4,0.1,1.6,8.9,0.7000000000000001,-6.6000000000000005,0.6000000000000001,4.6000000000000005
1698420086295.0,16,0.30000000000000004,-0.4,0.1,1.6,9.0,0.6000000000000001,-6.1000000000000005,3.8,4.300000000000001
1698420086311.0,16,0.30000000000000004,-0.30000000000000004,-0.1,1.6,9.0,0.5,-5.300000000000001,9.600000000000001,4.300000000000001
1698420086328.0,16,0.2,-0.2,-0.2,1.5,9.1,0.4,-5.300000000000001,14.600000000000001,3.8
1698420086345.0,16,0.1,-0.2,-0.30000000000000004,1.4000000000000001,9.1,0.30000000000000004,-5.8,16.6,2.9
1698420086362.0,16,-0.1,-0.2,-0.30000000000000004,1.2000000000000002,9.1,0.30000000000000004,-6.6000000000000005,18.0,2.3000000000000003
1698420086380.0,16,-0.1,-0.1,-0.4,1.2000000000000002,9.200000000000001,0.2,-6.4,17.599999999999998,1.0
1698420086396.0,16,-0.2,-0.4,-0.6000000000000001,1.1,8.9,0.0,-6.4,18.3,-2.0
1698420086412.0,16,0.0,-0.30000000000000004,-0.7000000000000001,1.3,9.0,0.0,-6.5,19.200000000000003,-2.7
1698420086429.0,16,0.1,-0.2,-0.8,1.3,9.0,-0.1,-5.1,20.900000000000002,-5.2
1698420086445.0,16,0.1,-0.2,-0.8,1.3,9.1,-0.1,-2.5,23.2,-6.8
1698420086462.0,16,0.1,-0.2,-0.9,1.3,9.1,-0.2,-0.5,24.5,-7.6
1698420086478.0,16,0.1,-0.1,-1.0,1.3,9.200000000000001,-0.30000000000000004,0.5,25.700000000000003,-8.799999999999999
1698420086495.0,16,0.1,-0.1,-1.1,1.3,9.200000000000001,-0.4,0.8,26.8,-9.3
1698420086512.0,16,0.0,-0.1,-1.1,1.1,9.200000000000001,-0.4,2.5,28.8,-9.9
1698420086528.0,16,0.2,-0.2,-1.2000000000000002,1.2000000000000002,9.200000000000001,-0.4,3.8,30.9,-9.4
1698420086545.0,16,0.2,-0.2,-1.2000000000000002,1.3,9.1,-0.5,6.1000000000000005,32.5,-7.8
1698420086562.0,16,0.30000000000000004,0.0,-0.9,1.4000000000000001,9.3,-0.30000000000000004,8.5,30.599999999999998,-5.500000000000001
1698420086579.0,16,0.4,0.1,-1.0,1.4000000000000001,9.4,-0.30000000000000004,9.9,29.500000000000004,-4.3999999999999995
1698420086596.0,16,0.4,0.1,-1.1,1.5,9.4,-0.5,11.700000000000001,25.2,-3.2
1698420086613.0,16,0.2,0.4,-1.4000000000000001,1.2000000000000002,9.700000000000001,-0.9,16.700000000000003,27.0,-2.1999999999999997
1698420086631.0,16,0.2,0.4,-1.8,1.3,9.700000000000001,-1.3,20.7,32.2,-1.5000000000000002
1698420086647.0,16,1.1,0.6000000000000001,-2.7,2.1,9.9,-2.3000000000000003,29.500000000000004,49.6,1.2000000000000002
1698420086662.0,16,0.9,3.1,-0.9,2.0,12.5,-0.6000000000000001,16.3,68.7,15.9
1698420086678.0,16,-2.1,3.8000000000000003,1.4000000000000001,0.7000000000000001,13.200000000000001,1.5,17.9,59.300000000000004,21.6
1698420086696.0,16,-3.1,3.3000000000000003,0.5,-2.0,12.600000000000001,0.7000000000000001,31.3,14.900000000000002,17.5
1698420086712.0,16,-2.8000000000000003,1.5,0.4,-1.6,10.9,0.5,31.2,22.4,5.7
1698420086730.0,16,0.4,0.1,1.0,1.6,9.5,1.0,26.9,25.700000000000003,-1.9
1698420086746.0,16,1.6,0.1,1.3,2.7,9.5,1.3,26.0,34.0,-3.3000000000000003
1698420086762.0,16,1.0,0.7000000000000001,2.0,2.1,10.100000000000001,1.9000000000000001,16.5,31.7,-7.699999999999999
1698420086778.0,16,-1.9000000000000001,1.7000000000000002,2.7,-0.7000000000000001,11.100000000000001,2.7,1.7,28.200000000000003,-7.300000000000001
1698420086795.0,16,-2.7,1.7000000000000002,3.1,-1.6,11.200000000000001,3.1,-0.6000000000000001,26.8,-9.5
1698420086812.0,16,-1.1,0.5,1.9000000000000001,0.0,9.9,2.0,-0.8,35.5,-10.2
1698420086828.0,16,0.9,-0.2,1.7000000000000002,1.9000000000000001,9.200000000000001,1.8,-3.3000000000000003,42.0,-12.3
1698420086845.0,16,0.8,-0.5,1.3,1.8,9.0,1.4000000000000001,-4.7,40.0,-13.0
1698420086862.0,16,-0.6000000000000001,-0.4,0.9,0.4,9.0,1.1,-3.0000000000000004,23.700000000000003,-5.9
1698420086879.0,16,-1.6,-0.30000000000000004,0.2,-0.6000000000000001,9.1,0.30000000000000004,0.7,8.200000000000001,1.4
1698420086895.0,16,-1.7000000000000002,-0.30000000000000004,0.30000000000000004,-0.8,9.1,0.4,1.4,4.1000000000000005,0.5
1698420086912.0,16,-1.6,-0.7000000000000001,0.4,-0.7000000000000001,8.700000000000001,0.5,1.3,-1.6,-7.9
1698420086929.0,16,-1.6,-0.7000000000000001,0.4,-0.7000000000000001,8.6,0.5,-0.30000000000000004,-3.7000000000000006,-13.100000000000001
1698420086945.0,16,-1.5,-0.6000000000000001,0.5,-0.7000000000000001,8.8,0.7000000000000001,-3.8,-7.8,-23.700000000000003
1698420086962.0,16,-1.7000000000000002,-1.0,0.5,-1.1,8.5,0.7000000000000001,-6.1000000000000005,-14.200000000000001,-33.1
1698420086978.0,16,-1.8,-1.0,0.4,-1.2000000000000002,8.4,0.6000000000000001,-7.699999999999999,-17.8,-38.1
1698420086995.0,16,-1.7000000000000002,-0.9,0.30000000000000004,-1.2000000000000002,8.5,0.5,-7.400000000000001,-19.8,-38.800000000000004
