ts,interval,accx,accy,accz,accGx,accGy,accGz,alpha,beta,gamma
1698420073039.0,0.01666666753590107,-0.37131329263970253,0.09127601568400859,-0.2126362039864063,0.28715470774546265,-4.895843704333901,-8.630797709655761,8.005308702561459,-0.34429964413744063,-11.024527230821187
1698420073172.0,0.01666666753590107,-0.11542363786026835,-0.9177025816783309,0.5857306809544562,0.8921396128114313,-5.629966665162145,-7.9553329817622895,-32.05879060539715,-31.08949796971313,7.601319234854483
1698420073188.0,0.01666666753590107,-0.18414631482213734,-0.10043547369539738,0.5093190569251775,0.7474400499757379,-4.730943649512529,-8.084919146618246,-39.58825112754122,-31.549337040489654,7.572636709208661
1698420073206.0,0.01666666753590107,-0.3364894512135535,0.09491320314258336,0.053902855101227755,0.5110126360353082,-4.453365894538164,-8.592789173778892,-34.89309371470983,-31.946608163374275,13.310782791321216
1698420073223.0,0.01666666753590107,-0.8305764522153883,0.40647389173954723,0.3037555678039789,-0.08933343024887144,-4.048745521710813,-8.40095376575887,-31.25961407627605,-17.71535236723535,18.090987158376667
1698420073238.0,0.01666666753590107,-1.1984075287625193,0.7387371766254306,1.1285352433741092,-0.5044282161436975,-3.648016311103105,-7.614757795605063,-31.13476504843739,-7.3851983891369395,16.244322572858657
1698420073256.0,0.01666666753590107,-1.3085372979983687,0.9338023603469133,1.0889736328363417,-0.6328173532348126,-3.390938615582883,-7.686583845409751,-23.950782324701734,8.561972535012083,14.565429631470966
1698420073273.0,0.01666666753590107,-1.1352058802444487,1.038237717333436,0.7575070512861013,-0.4403833217345178,-3.22992884619832,-8.04421771839559,-17.925109184193737,10.098504697302845,4.217999970527476
1698420073289.0,0.01666666753590107,-1.1410874856289475,1.1069880129545926,0.10145254178345203,-0.41554340644516047,-3.1157550622686743,-8.719681861767173,-20.997065310582425,13.399963717540425,-14.172752664576825
1698420073306.0,0.01666666753590107,-1.1520207483798264,0.9865335413202643,0.29261516510844227,-0.35957901570424433,-3.1792016985237597,-8.549843181499838,-24.38548629933261,21.76469831856911,-31.604808421833912
1698420073322.0,0.01666666753590107,-1.0364468883939086,0.8080015592485665,0.4128764522582292,-0.12090696464218198,-3.270929549628496,-8.458115330395103,-23.644502981940022,24.574194180816306,-32.37829660948659
1698420073340.0,0.01666666753590107,-0.5776554379832,0.18835662599354983,0.25217969434559345,0.41763869822397826,-3.835661866217851,-8.635286253246665,-17.30526951701508,18.832050730492,-20.442341251856085
1698420073356.0,0.01666666753590107,-0.4524431773625314,-0.029291853196918963,0.057041737648844716,0.5906197681702673,-4.019266913770139,-8.840289770397543,-9.000745594840994,9.896776767713812,-8.755451303631034
1698420073372.0,0.01666666753590107,-0.4562928385280072,0.03198562232553959,0.08065876007974147,0.6166567842897027,-3.9390614504158497,-8.821585069927572,-3.196981031598481,6.076980240892663,-1.6653420595177981
1698420073390.0,0.01666666753590107,-0.5390658142827451,0.27590426880419255,-0.18799568372666833,0.5443817486084997,-3.6900641854986547,-9.09123203190267,-0.5802688061396296,2.2042828317327086,-0.08412154363280262
1698420073405.0,0.01666666753590107,-0.5669811184294522,0.32394027769863604,-0.305128025200963,0.5195419063843787,-3.6468189180120825,-9.20585385186076,5.359445816694374,0.7690009668113922,-0.6904502161791018
1698420073423.0,0.01666666753590107,-0.46888592424988745,0.3311339885950088,-0.3699304599791765,0.6209962017334997,-3.669115213233232,-9.25703049686849,13.249022513298668,0.33443855852323473,-1.3462002966101887
1698420073439.0,0.01666666753590107,-0.36974933125860987,0.33687983877062794,-0.1149561664789915,0.7220016573365777,-3.693655487988889,-8.988131722912192,11.988738205762717,0.41141916605921547,-0.6317990082502322
1698420073456.0,0.01666666753590107,-0.33537783670984206,0.34220950936079025,-0.06147007548511028,0.7577649715699255,-3.708170335553586,-8.92543356693685,4.837314140026866,-0.2741426090257142,-1.616176970489871
1698420073472.0,0.01666666753590107,-0.40152335666008293,0.3609221008762717,0.10441256063282489,0.6935705126222222,-3.688418464118242,-8.759784739574789,-4.029099563086549,-0.16303988384044393,-2.6916817158102333
1698420073489.0,0.01666666753590107,0.13927140030711888,-0.24818273366391658,0.4649164360970258,0.6811505549775436,-3.8184535417854786,-8.652644799804687,-6.201911657888189,-0.33944882244455643,-2.2708432386378945
1698420073506.0,0.01666666753590107,0.12599679859448223,-0.26362521746754647,0.4429723153144121,0.6937200771607458,-3.833566939765215,-8.673145151519774,-5.911682405902361,-0.012454716549386024,-1.6790250628594492
1698420073531.0,0.01666666753590107,0.04191591857895255,-0.20089783539772033,0.4420739051699638,0.659752341107279,-3.7888252962410447,-8.66371739796102,-7.299902133008174,-1.1711540741269861,-0.5352072734207052
1698420073539.0,0.01666666753590107,0.09128850983940065,-0.17156828053891657,0.40762978377640247,0.7351696934022008,-3.782241241675615,-8.687360139355063,-10.124898255803068,-3.837260893642047,0.5278725040257577
1698420073575.0,0.01666666753590107,-0.06358502181246876,-0.0985845851317048,0.5713303996801375,0.5606923204835504,-3.7066742517769335,-8.526051387023925,-6.845038855042005,-5.04750253956343,-0.5910063437625657
1698420073577.0,0.01666666753590107,-0.1048129581272602,-0.08252806108295917,0.5634989754021168,0.5193922687806188,-3.6982945459663865,-8.530839205822348,-5.437903772803488,-4.138521328024269,-1.0587188083831156
1698420073588.0,0.01666666753590107,-0.12196473006680607,-0.04730068035721779,0.5626128402173519,0.5000890178956091,-3.667169924384355,-8.53024065540731,-2.4051040537094233,-2.172708147860209,-1.449490579385647
1698420073605.0,0.01666666753590107,-0.10447693110592662,-0.08299801668226718,0.6537415563851594,0.5172973423279822,-3.7074224397957325,-8.437316287994385,-0.08917228843114855,-0.786890512908125,-1.4510587481303996
1698420073622.0,0.01666666753590107,-0.0919498232923448,-0.3473296288534999,0.7896691992223263,0.537348854297027,-3.980810049603879,-8.297254906353354,-1.6587601050354328,2.0395794366436095,-0.6918485906899562
1698420073639.0,0.01666666753590107,-0.2790554263114929,-0.4712134904146194,1.0364590172231196,0.360327495983988,-4.103962089759111,-8.050053584942221,-4.748924235090907,4.092710395487347,-0.08477766867994697
1698420073656.0,0.01666666753590107,-0.3760744426269084,-0.5898682191506028,0.9149392544448375,0.26845000727549195,-4.213496523450314,-8.174851346477865,-6.256308991985463,1.9045235448640085,0.8996247061498894
1698420073674.0,0.01666666753590107,-0.9805013484839349,-0.847464385586977,0.43204584763050075,-0.3378814900938421,-4.4503731424629684,-8.666111599621177,-11.933271947060337,3.609503113126095,7.536257414141881
1698420073689.0,0.01666666753590107,-0.43581477170996363,-0.13893500795960426,0.3007885346919298,0.21607684595957397,-3.730017425702512,-8.801384577941894,-7.600946989544718,7.967623133815914,-3.4240952802285713
1698420073705.0,0.01666666753590107,-0.3895695186898112,-0.2615942961618304,0.025672201395034788,0.28057065318003294,-3.8533191034615037,-9.074921533092855,0.8832009826820649,5.562528258173187,-5.251212504672237
1698420073722.0,0.01666666753590107,-0.7430046248115598,-0.514875814269483,0.02675824306607246,-0.05431837709955871,-4.161272999738157,-9.050680241283773,16.094346986610812,6.898097898948779,-6.489073728049859
1698420073739.0,0.01666666753590107,-0.6382999493643641,0.005297229625284672,0.6308727219730615,0.04653744089975953,-3.7262764856085178,-8.412176586040854,27.403337082211042,4.485637091173018,-8.160383878798367
1698420073755.0,0.01666666753590107,-0.5533712568804622,-0.04951835640668869,0.9358353274792433,0.12644392130747437,-3.8579578691780565,-8.07549197758138,21.62989770510974,12.806290505072088,11.922417068921893
1698420073772.0,0.01666666753590107,-1.5881117797479032,-0.8511576871469616,1.151314645937085,-0.9373298768859356,-4.7165781472906465,-7.837867462810873,9.914175820850772,5.807136115371561,31.15690852172657
1698420073789.0,0.01666666753590107,-0.27196386061534283,-0.21042554219961165,1.728472728857398,0.34581264841929077,-4.1030642641365525,-7.2512880560725925,10.213365427254011,-13.537591175542536,17.989946462437373
1698420073806.0,0.01666666753590107,-0.3377624302914366,-0.7491922274053097,1.721626223963499,0.21458046992197632,-4.66016506293416,-7.254430445751548,2.016112187315915,-25.3320992918776,14.450436566604631
1698420073823.0,0.01666666753590107,-1.8585607057556508,-1.6639891507700084,1.028203814575076,-1.3905821421416475,-5.55395047019124,-7.96176739872396,-17.199416952805514,-15.976486949840364,8.64279928610272
1698420073839.0,0.01666666753590107,-2.362277997151017,-1.2047922613635658,0.45255029099881644,-1.9198502735747023,-5.037401169751584,-8.563310565838217,-31.701066277806902,-1.073821637298483,0.1433337075276861
1698420073856.0,0.01666666753590107,-2.1556492168858647,-1.6427090468540786,0.2321089662194252,-1.676838841601461,-5.346702388983965,-8.835501367077232,-46.54231260834132,16.438318728307237,-12.77801693700282
1698420073873.0,0.01666666753590107,-1.772040944688022,-1.974042065152526,0.28587212058901784,-1.232714506707713,-5.566220461438596,-8.82323166809082,-44.405631360475404,18.576144032859133,-22.16866644193493
1698420073889.0,0.01666666753590107,-1.1486578478179872,-2.2641908401474353,0.5690858356237412,-0.5493194607390091,-5.75820579932332,-8.57438374851644,-34.37994843255594,13.098077040188679,-24.330141276487996
1698420073906.0,0.01666666753590107,-0.5006968475956469,-2.1127900261074304,0.9605646950662136,0.1506852131165564,-5.517438894873857,-8.213008935436607,-18.37706109402619,-1.484527208671991,-22.420599677018142
1698420073923.0,0.01666666753590107,-0.16043116577900945,-2.123626185159385,1.1786655941992998,0.4719571483887732,-5.501278033667803,-8.00620976704061,-0.4716380091243089,-28.53349945586908,-26.615619902969936
1698420073939.0,0.01666666753590107,0.598907886707224,-2.1288179085835814,1.4420429743856191,1.193509710250981,-5.503522597724199,-7.746438886913657,-0.5492594805035073,-21.493019006595393,-31.576493872629623
1698420073956.0,0.01666666753590107,0.16114556112606077,-1.9172472880020737,0.8852303448796272,0.7490859540192409,-5.275175029864907,-8.309824465069175,-4.881830324829247,-7.322867790318695,-29.33533122103002
1698420073973.0,0.01666666753590107,0.2561085582271218,-1.6092510138884186,0.8793301809251308,0.8565258265839889,-4.950761289435625,-8.320897647747397,-5.272503484975636,-3.246019655405057,-28.50270725554337
1698420073989.0,0.01666666753590107,0.175235497809574,-1.5940531524956225,0.48608197372257705,0.7978679224427789,-4.916195002967119,-8.719681861767173,-7.264159753081497,1.7544733601438198,-25.20512095256519
1698420074006.0,0.01666666753590107,-0.134422206710279,-1.6497721171081066,-0.07057751104831696,0.5354034923829138,-4.925921154950559,-9.28950185688436,-20.977740997873166,12.674916085255123,-18.453869986337565
1698420074023.0,0.01666666753590107,-0.12866086670458315,-1.6249632545441388,-0.4431558551877737,0.5819408602174371,-4.843920040351152,-9.679158761596678,-21.3771277718532,5.701006501613787,-15.199841507243846
1698420074040.0,0.01666666753590107,-0.022897768245637416,-1.9045517648190258,-0.2807563850104809,0.6932712374147028,-5.08453701493591,-9.529820433044433,-8.141959443512258,-8.380781276709984,-9.806806954645465
1698420074056.0,0.01666666753590107,-0.2307580630671233,-1.7580726250901817,-0.5681897635668516,0.4631286028321832,-4.936844700025022,-9.81936861179769,7.573261671517717,-6.75149258416951,-3.5537995053500557
1698420074073.0,0.01666666753590107,-0.5205705187797546,-1.5639432609140873,-0.6565683042436837,0.1607109325684607,-4.776433481055498,-9.897031112670899,21.258381518037943,-6.731803283226479,-1.6902331898440286
1698420074089.0,0.01666666753590107,-0.6966484587628394,-1.6881413029909134,-0.1858545800447464,-0.035314328356832264,-4.966173670361936,-9.40472281177938,32.01389235688807,-9.165591356685606,0.9613717506809204
1698420074106.0,0.01666666753590107,-0.8528050159625709,-1.6664774604544041,0.13722761951982973,-0.21996705833114683,-5.049222540448605,-9.045742200359701,30.893614974506335,-5.399361442203929,13.414273817625249
1698420074123.0,0.01666666753590107,-0.9197194013934582,-1.6877730542004108,0.18111001586616038,-0.31902715202011167,-5.149180752021074,-8.974664923095702,33.714206479060216,-9.635580942342415,21.09838775182498
1698420074139.0,0.01666666753590107,-0.6186288880802691,-2.0357427345231174,0.6112789637088776,-0.07332220664657652,-5.591659146338701,-8.511685592541099,42.95460889772497,-20.213738235430345,22.586744028578703
1698420074156.0,0.01666666753590107,-0.1405034628527239,-2.2434096256643534,0.5290957705408335,0.2852094554292038,-5.9594683763802045,-8.5362261595577,55.86456118383034,-37.8283026237257,18.56603706043481
1698420074175.0,0.01666666753590107,-0.19847857236154376,-2.2353166278406977,0.7374357386380433,0.11297653696909546,-6.089952074597775,-8.274509990581869,56.843815650418826,-42.92271874449018,17.732038519377692
1698420074189.0,0.01666666753590107,-0.21215965424953026,-1.4133783131763338,1.1936492283195257,-0.05820886346576735,-5.418977351599931,-7.756314968761801,36.09475963124144,-33.35619869861941,24.613131381727257
1698420074209.0,0.01666666753590107,0.33598314565923065,-3.171416159214079,2.082933817026019,0.4016274791882606,-7.2453043054878705,-6.837240806469321,20.37870608690637,-21.623461959364295,24.156731311197834
1698420074222.0,0.01666666753590107,0.6039096039846539,-3.738903035208583,2.100420373877883,0.5937621521410008,-7.842059069281816,-6.806565097698569,4.157705621855542,-25.703504488375383,14.529465270396264
1698420074239.0,0.01666666753590107,0.4264729063363746,-3.7046865850910544,1.613703609383106,0.3052608395340852,-7.7899851831734175,-7.300668465313315,-16.27291203717704,-38.34559724580036,5.737402872153493
1698420074256.0,0.01666666753590107,0.25918522572610525,-3.224752320343256,0.7231587914824485,0.030825492504984137,-7.262811905127763,-8.210614733776449,-24.224631929284225,-45.23210474061446,8.185858776855222
1698420074273.0,0.01666666753590107,0.3612938202654943,-3.2656913567140697,0.3859247324466705,0.03740954707041383,-7.250691259223222,-8.568697519573568,-20.222294754913076,-24.097445269202122,11.46828376742327
1698420074290.0,0.01666666753590107,0.3971177055796608,-2.765096581253409,-0.7217401568561792,0.023193938180617987,-6.697331400519609,-9.697713239941,-15.703516732113512,3.5921774845227112,16.036565293779795
1698420074306.0,0.01666666753590107,0.5002250653654337,-2.0669930283114315,-1.5393202763110398,0.12614460956733672,-5.963059678870439,-10.531045055279135,-17.12645174944956,11.082994503890143,19.50763157148713
1698420074323.0,0.01666666753590107,0.6539813564904033,-2.096328136128187,-1.7743395770192145,0.28760354749150574,-5.954081422644853,-10.78288514240682,-15.528327502544562,13.987535863532651,23.82338222120807
1698420074339.0,0.01666666753590107,0.5930673439854756,-1.568468044862151,-1.8659300654798745,0.23358444559946656,-5.404462211774289,-10.884040162548422,-11.63396366612027,17.19087409370112,26.57734864550306
1698420074356.0,0.01666666753590107,0.9511330690499394,-1.1491557143375277,-1.4551871181190013,0.628478081921488,-4.973655842810869,-10.479569719585776,-8.6266322283373,32.602313153884666,23.96844690144268
1698420074373.0,0.01666666753590107,1.2055906451996414,-1.2420420878276228,-0.9365636417537927,0.944363008659426,-5.051467396765947,-9.969305490764976,-7.708470388779997,37.603145437736224,21.089423128539337
1698420074389.0,0.01666666753590107,1.9023107078939676,-1.490492240256071,-0.12482581858634947,1.7120039342133326,-5.276821628028154,-9.169043585857748,-11.273579833621948,25.02089026008243,25.95428683658345
1698420074406.0,0.01666666753590107,2.1449831537038087,-1.7765519923716782,0.2185714392542839,1.9662381134033202,-5.5322527253851295,-8.838643756756186,-18.871148440848447,10.899833589786143,34.79107117907735
1698420074423.0,0.01666666753590107,1.8516325139276681,-1.7103887906342743,0.033983518144488335,1.649305778237991,-5.412692572242022,-9.044694737133383,-26.1328928682847,1.8633037801098047,37.40446206496972
1698420074440.0,0.01666666753590107,0.9829892928421496,-1.230887072084844,-0.4310656044214964,0.7574656232971697,-4.849605977033078,-9.542838320049643,-25.330886933299926,14.56992731103942,27.024970215401723
1698420074456.0,0.01666666753590107,-0.032799167198128996,-0.2723983065098524,-0.13881810358166694,-0.22325925001064315,-3.8456875856697557,-9.269300780376792,-13.687606889151757,32.216793371467055,16.81433942513666
1698420074473.0,0.01666666753590107,-0.18774532569479196,0.052795478381216523,0.4928437229424715,-0.29433710266337726,-3.5085540643990036,-8.643665959057211,2.2376933423880607,47.519343848354964,8.07988668433518
1698420074489.0,0.01666666753590107,-0.12114611629345454,0.33450492633283135,2.2303864779621363,-0.06569084411845542,-3.262100638745725,-6.892756357464194,15.906276020267217,54.08957601855703,0.20739477212474972
1698420074506.0,0.01666666753590107,0.12901267581693826,0.5519193045064806,3.863013399001956,0.30271694547124206,-3.095703623364866,-5.238363594818115,19.11887086430835,42.896436176563974,-2.797312725758596
1698420074523.0,0.01666666753590107,0.20953692279681563,0.65275196082592,4.245401774016022,0.46627084638066585,-3.0553017626106738,-4.829553076824546,20.85007110190729,27.314244094677395,1.3632343615133773
1698420074539.0,0.01666666753590107,0.5935596940796822,1.0088403579354286,4.584044530805945,0.907402502264455,-2.782662048560381,-4.454561241802573,28.288976976035332,18.11064273526067,15.728501564097417
1698420074556.0,0.01666666753590107,0.6676662560369819,1.0854489658415316,4.558723627066612,0.9988310416290536,-2.7874498673588035,-4.444685159954428,36.793966096575645,16.40954826397585,28.112793953942145
1698420074573.0,0.01666666753590107,0.732349667545408,0.9908613413915037,4.542078197214007,1.0726024168152362,-2.978687017224729,-4.418797854503989,41.217654225750294,22.387918929386924,40.91926033638536
1698420074589.0,0.01666666753590107,0.6882524594046175,0.24875877998620272,4.340151018768549,1.0378864196777342,-3.8503260591253636,-4.561851403698325,35.457130736369486,21.284822887862354,51.05923623478123
1698420074606.0,0.01666666753590107,0.6902931714519858,-0.8421905368372797,3.391418215793371,1.0051157844543457,-5.0164519052252174,-5.476885935211182,23.528020935834622,-7.943096778280044,49.02072188076132
1698420074623.0,0.01666666753590107,0.7400101191706955,-1.3422647955551743,2.384737081718445,0.9424176650116219,-5.55679329240173,-6.467786147308349,8.269764235714243,-42.052877078216135,46.10205910500981
1698420074639.0,0.01666666753590107,0.5831596614226698,-1.8843261383920906,-0.355369435185194,0.5686228851539548,-6.100426999121904,-9.209445738872885,-8.176678148837079,-48.67219098779391,41.357297443331205
1698420074656.0,0.01666666753590107,-0.14747102770986967,-1.6074536090776324,-3.2159207791119813,-0.29328972163544964,-5.7921735353767865,-12.083684831890464,-18.694820277235397,-25.54316238251475,34.53284904731585
1698420074673.0,0.01666666753590107,-0.7360369777560234,-1.2776251501232385,-4.4105186864584685,-0.9376292434250004,-5.4150867739021775,-13.2993407248348,-19.54129928145342,5.386146733707247,25.98081529131978
1698420074689.0,0.01666666753590107,-1.3878778150863944,-0.7286196872368454,-5.229805609831214,-1.56296480780337,-4.824317221997678,-14.138508991241455,-6.296913612827543,24.123150686143468,12.890020940333628
1698420074706.0,0.01666666753590107,-1.099123051733151,-0.8081231398016214,-4.448768045353889,-1.229272942285938,-4.904672615216672,-13.357849027904868,5.092157462583327,21.646252593077335,5.383277200482196
1698420074723.0,0.01666666753590107,-1.0212704351153223,-0.9195493785887956,-3.525996782109141,-1.1183914778999517,-5.035605518506467,-12.426504582104085,7.758318816890043,6.541255092648287,-1.0965341507228912
1698420074739.0,0.01666666753590107,-1.0380635298103094,-0.8122244376406073,-2.6413924601733685,-1.1427824529785662,-4.939837744361162,-11.536460114941,-4.35919919057868,-14.843061453306353,-17.470151991126478
1698420074756.0,0.01666666753590107,-1.1939781680129469,0.16859247959852217,-2.881290765094757,-1.312621096713282,-3.968689695960283,-11.771690428051352,-2.7372049266283685,-13.71232363621074,-26.34455701556881
1698420074773.0,0.01666666753590107,-1.1448297408971935,0.7612447765097021,-3.077140084931254,-1.2615946646980476,-3.39303354203552,-11.959635258373618,11.940394126817367,-8.159167251352459,-24.969429907328266
1698420074791.0,0.01666666753590107,-1.0057669418394566,1.4718743412867188,-2.67921161095798,-1.1257237022178712,-2.764106693433225,-11.52299273060262,35.303731517800166,-15.272422512458986,-13.01431672284952
1698420074806.0,0.01666666753590107,-0.841340495879203,1.4537354580059647,-1.450916601192951,-1.0046669081756845,-2.8664588144049046,-10.253168025097251,29.199082607466604,-31.227016998462165,-9.902082117151618
1698420074823.0,0.01666666753590107,-0.8871982839517295,1.3666282524392008,-1.3016834865808486,-1.109413157742284,-2.982128974372148,-10.088566660961508,-9.236797786330282,-26.556117002468078,-15.25683772832031
1698420074839.0,0.01666666753590107,-1.3248580259412526,1.3908391491100192,-1.2774030318051577,-1.536778208879102,-2.854637735968828,-10.114902879223227,-53.94605666862214,11.423801306679914,-34.2031865519306
1698420074856.0,0.01666666753590107,-0.9835682617738842,1.088242103691399,-0.40001813972890377,-1.1040261948737782,-3.034202860480547,-9.297283012279868,-51.8121143266134,26.81009075656583,-46.03158521315362
1698420074873.0,0.01666666753590107,-0.6268460237402469,0.9873337517872453,0.3815238671392202,-0.6395510956363519,-3.0362974946722385,-8.56166455219686,-34.15335690684077,20.05807651669846,-47.662408990710055
1698420074889.0,0.01666666753590107,0.30422179707624014,0.8844315957173705,2.1153747819036246,0.3705027571415296,-3.0701158853828905,-6.8583397085994475,-13.693141903700408,-9.17359463084557,-38.96132172400409
1698420074910.0,0.01666666753590107,0.9397978013694286,0.5438175388544798,3.5911259646236893,0.9937434087669942,-3.3873476053535936,-5.392938654980063,-12.523860475344767,-27.437276292196838,-29.219825891975933
1698420074923.0,0.01666666753590107,1.0713553393635897,0.3919862244427204,3.937952612391114,1.0763433226599008,-3.508703409741819,-5.059546073803305,-21.669321556999055,-29.330533013138087,-17.894347719719292
1698420074939.0,0.01666666753590107,0.9154246998742223,0.1506643164590001,4.142678481644392,0.8620623128918232,-3.66746890733093,-4.890006084221601,-32.90460025107651,-13.77138684328478,-3.5081507898059217
1698420074956.0,0.01666666753590107,0.7561720032900572,-0.04166208994835615,3.8398938046991824,0.6851906287151621,-3.7880771082222457,-5.22265106190145,-26.933896473008772,-2.8446288612338595,-1.2830376953736726
1698420074973.0,0.01666666753590107,0.7621288658678531,-0.3476423480644822,3.6550323273450136,0.6929717795440927,-4.052336531940102,-5.424661826977133,-7.776882417280491,1.3758087397753709,-3.3775445528271724
1698420074989.0,0.01666666753590107,0.5822772525649518,-0.2637815770730376,3.2932132776290177,0.5172972555630142,-3.9933796083196995,-5.776310780334472,22.751817747986863,-2.810168208993618,-3.9056024858167255
1698420075006.0,0.01666666753590107,0.5321470113376155,-0.09479688328653574,3.0147756909549233,0.4548983610954601,-3.9003053110420702,-6.023062604412436,38.56590499747913,-10.778397095211547,-3.1759455430587225
1698420075023.0,0.01666666753590107,0.5740075099349021,-0.1525552447721362,2.8837475105971095,0.4656722594330087,-4.05383349249959,-6.112845166668295,40.52212581728414,-16.45044914427318,-1.574694136730916
1698420075039.0,0.01666666753590107,0.3648330637749284,-0.41599224619120356,2.002913939371705,0.2078467229538597,-4.426430833600461,-6.944830243572592,26.326648259565037,-15.972031958954222,-4.8248840495110885
1698420075056.0,0.01666666753590107,0.039134799960441884,-0.7794421119794249,0.4608452411353588,-0.14170675596157087,-4.835091421729326,-8.466046123394369,12.094683831299724,-10.805085205619726,-9.632744706289566
1698420075073.0,0.01666666753590107,0.02972814398864284,-0.8839473193317651,-0.4619523255944252,-0.15607196592250838,-4.956746793586015,-9.380930432781577,2.5026724522294095,-4.578779100224012,-14.471372803958014
1698420075089.0,0.01666666753590107,0.06293492387328296,-0.7173617956414818,-2.4522902765095234,-0.10160387815395369,-4.799926584845781,-11.367220569610595,7.233522939559405,6.345732389920209,-10.611139422816274
1698420075106.0,0.01666666753590107,0.1032048653434962,-0.25754268268346786,-3.786288471239805,-0.0305260072349105,-4.378547092658281,-12.684030898174642,25.124681814709948,14.833760443204087,-0.10893490051594493
1698420075123.0,0.01666666753590107,0.14168942123427986,-0.09734130707234144,-4.04480672095716,0.0456395330788102,-4.29624641059041,-12.906542599487304,41.309219741763485,24.31223081293693,14.31431260399357
1698420075139.0,0.01666666753590107,0.2497447040173225,-0.8792740668237209,-3.285780497279763,0.1880945272915298,-5.2239998461619015,-12.077250414928793,48.78381676939943,14.938484318653307,30.039226611229438
1698420075156.0,0.01666666753590107,-0.08868635538383386,-2.1096374072954056,-2.4353391417086123,-0.17088608869472519,-6.550686256574094,-11.178377329143881,31.088248045095018,-2.9200516520305486,24.235194816835648
1698420075173.0,0.01666666753590107,-0.4297101712245494,-1.6200529784098268,-3.079859280762076,-0.5442319283416495,-6.10611293580383,-11.799523022350668,1.461229646856489,-3.4562819063620216,-5.362897196659347
1698420075190.0,0.01666666753590107,-0.0015688202193006873,-1.3891878747716546,-3.1983120571851726,-0.09950895170131697,-5.885397762519121,-11.91294832600057,7.871417358035345,4.289056989784058,-16.40410289566006
1698420075206.0,0.01666666753590107,1.345117700768262,-0.6655743252590298,-2.647196762537956,1.2690765722854993,-5.212028545600176,-11.335945725902913,19.765764910789425,0.32012173497094754,-10.02875139040409
1698420075223.0,0.01666666753590107,2.5482301923513413,-0.7213669396296143,-1.9809949530303477,2.4568998709305188,-5.32425674842,-10.639831593212485,8.57675562569693,-12.710027526457221,4.242486625588795
1698420075239.0,0.01666666753590107,2.6717241778120395,-0.7399930219054222,-1.765114652556181,2.541145823580958,-5.334132538007199,-10.428094383892416,-18.55659090881268,-12.534446414784641,7.272153635731351
1698420075256.0,0.01666666753590107,2.178405238573253,-0.17284312278032302,-1.9675193853855133,2.02848741136631,-4.6987718569651244,-10.666018173870444,-41.0106790033314,2.8214032298480545,3.2164434421950205
1698420075273.0,0.01666666753590107,1.612051458261907,0.420920642504096,-1.8449878152161836,1.5138837194359396,-3.974076649695635,-10.61110117329061,-40.84441853855495,30.63738384288789,-3.498110411726003
1698420075289.0,0.01666666753590107,1.246223172904551,0.7660495464429259,-1.401628546410799,1.2464812921734119,-3.5528467951118943,-10.206032179912924,-25.74444293471315,50.4940551564356,-4.090653227886704
1698420075306.0,0.01666666753590107,0.6741126556973904,1.4987670243874192,0.28188626582324505,0.8110358854431658,-2.778172920447588,-8.54191238850057,-12.813657717865592,62.11073502886115,-4.25570304163277
1698420075323.0,0.01666666753590107,0.310463833270967,1.6634110586211084,2.365966330274939,0.6420950307983905,-2.592771637128293,-6.462697884258628,-1.9287993178347034,56.40962052488111,-6.228631784808102
1698420075339.0,0.01666666753590107,0.05462638360280543,1.7902257129371164,3.3180122033208606,0.50831901303716,-2.4691709764227268,-5.503670481762289,4.309831863918298,43.697125592586225,-3.9325155655806916
1698420075357.0,0.01666666753590107,-0.16916878164913504,2.022718417777121,4.6350107479333875,0.39234983359072356,-2.2623718080267308,-4.168004646080732,7.8132651274418565,26.60343313794334,4.816003949816426
1698420075373.0,0.01666666753590107,-0.2993018397981301,2.2081270076200363,5.000101951187848,0.30840317441411313,-2.1016613138496876,-3.787776663970947,5.41794041052001,23.558801183329287,16.935923622552053
1698420075389.0,0.01666666753590107,-0.3430882649566978,2.000715260283649,4.839258478280902,0.28880064832158386,-2.326566632300615,-3.9383115088313816,6.969682550318744,18.440839692948472,27.679157196369083
1698420075406.0,0.01666666753590107,-0.22068748156018553,1.5051625706434248,4.638149045959115,0.39534262219853694,-2.864214542609453,-4.119672284588217,14.926669798936478,2.1977134704116255,38.147798382531384
1698420075423.0,0.01666666753590107,-0.1952991751404479,1.0851225103661417,4.056958346521854,0.361374813079834,-3.3291385774910447,-4.682309090203047,18.153184568506095,-13.528588986216459,41.26837179543222
1698420075439.0,0.01666666753590107,-0.13994970142748206,0.8224176226139068,3.5860423777490853,0.32576109991762786,-3.6429283403143287,-5.132569224438071,21.76082047866784,-24.00684622495649,39.76943897074873
1698420075456.0,0.01666666753590107,-0.24748638543020932,0.49050534312278027,2.4290052625119687,0.11522095489501953,-4.034829516822099,-6.26353023365438,27.175859339451062,-27.524820534336182,33.526915861829295
1698420075473.0,0.01666666753590107,-0.3238642167877406,0.25351708042919635,1.1193711091876029,-0.07811086569521576,-4.366426154492795,-7.52736885048747,32.62440540075507,-19.518150062808953,20.214289773205824
1698420075489.0,0.01666666753590107,-0.29127628118749704,0.257137609013915,0.4205634996294975,-0.10310029072416946,-4.433164818030596,-8.189665469250082,26.917101037839714,-15.563499561675542,11.818357429369456
1698420075506.0,0.01666666753590107,-0.30746633195541795,0.5912380461990833,-0.9780272865206002,-0.16729487753603606,-4.152145398169756,-9.560046644482016,7.994097800812529,-5.527549578773082,5.7801935804168
1698420075523.0,0.01666666753590107,-0.3708141109459102,0.8170107951343059,-2.185609178602695,-0.23627778546982445,-3.935470147925615,-10.762684065899252,1.2675497078221398,4.965693095005956,3.244471123454168
1698420075539.0,0.01666666753590107,-0.4339399908140301,1.039662489439547,-2.6286019521832467,-0.282815071105957,-3.7199919985115524,-11.201421520122885,6.8306450851398495,12.736787353851684,2.4439718855116155
1698420075556.0,0.01666666753590107,-0.3043815359489061,0.8869964777693152,-3.008099281930923,-0.11731586308134719,-3.912425956946611,-11.558007929882406,15.500504726960514,10.507447759705371,3.714983432025894
1698420075573.0,0.01666666753590107,-0.3675811203740537,0.399169121684134,-3.575018879431486,-0.17522563400268554,-4.420146346503496,-12.113612352642416,-0.8429390452372496,-3.284406599200998,-2.1098915383938364
1698420075588.0,0.01666666753590107,-0.9128894823081791,0.8415235973611473,-4.355685272508859,-0.7164648650680668,-3.951032166455686,-12.9092349073112,-21.77329923428145,0.13439400376034433,-17.447363064960733
1698420075606.0,0.01666666753590107,-2.2201754650712013,2.025501034232974,-5.702984847360849,-1.9433436330933123,-2.6985654229864475,-14.292335278862714,-14.234157772762531,22.858947557571224,-31.16590388086348
1698420075623.0,0.01666666753590107,-2.2330530668228863,2.7035525637492537,-4.943231478452682,-1.8734628356048837,-2.022203746253252,-13.52858553379476,17.52977271239152,14.615196097310973,-25.62631652056507
1698420075639.0,0.01666666753590107,-1.9320558578163385,2.3912369651317595,-3.903268837022781,-1.5488987999847157,-2.3915090600714084,-12.45598260552287,29.713197776482634,-18.741996393832675,-17.181721640213304
1698420075656.0,0.01666666753590107,-1.5669322135969996,1.1229895919457078,-2.220727838256955,-1.2689268433501943,-3.6990424417242407,-10.754752688378096,-12.84386935211185,-53.09015883353867,-22.071792161389347
1698420075673.0,0.01666666753590107,-2.0618097804546354,0.9555606031686067,-1.4596043500393627,-1.8451812554290516,-3.766828860749304,-10.051606172832846,-76.96972277576468,-45.58345991680367,-35.11247256066147
1698420075689.0,0.01666666753590107,-2.333502276782691,1.2393041872963309,-1.468611832359433,-2.138022009454295,-3.240852099011838,-10.18987190322876,-132.03179137363188,-16.30828729443583,-48.89439411696735
1698420075706.0,0.01666666753590107,-2.2248272363997996,1.4748565719678997,-1.996371385860443,-1.948281509620603,-2.5625448411688208,-10.929080496758221,-139.96200983023186,15.318072081776767,-50.93685632032753
1698420075723.0,0.01666666753590107,-1.7902334578521548,1.619047308498621,-1.3990321001768111,-1.4284405289581044,-2.1321870927557347,-10.452634950909017,-96.44509194870726,16.816627538508612,-38.25372778636911
1698420075739.0,0.01666666753590107,-1.515733064496517,1.5265005422264337,-0.46612230475544925,-1.102828957046382,-2.0658976342901587,-9.581744681549072,-34.87710424186283,0.4929459581789273,-22.55586815843566
1698420075756.0,0.01666666753590107,-0.7256756696742027,0.8780977165207267,1.7002373989760875,-0.34685985591728236,-2.7099381731331347,-7.418582897076011,26.38136490500601,-32.285546055652404,-11.878315391224767
1698420075772.0,0.01666666753590107,-0.118421358371526,0.2633998842790723,3.392193876340985,0.17582427574926987,-3.406052305823564,-5.697301541027427,38.142747457640155,-45.321279690418145,-15.124805049022086
1698420075789.0,0.01666666753590107,0.052314763925876466,0.09188654879778622,3.9602398475229736,0.26081843468481675,-3.6565456545174118,-5.099350260925292,27.02691852686247,-39.64691562232246,-22.63205550353257
1698420075806.0,0.01666666753590107,0.2374167172387242,-0.10488485431969165,4.738471122407913,0.3818752743927762,-3.8980604547247286,-4.30372653721273,2.48926009513362,-22.657347694029127,-29.864271315639563
1698420075823.0,0.01666666753590107,0.6889671835452318,-0.1352162796974182,4.4977240917026995,0.8282442646744661,-3.9196085619270797,-4.5482343817561866,-7.113934438042121,-7.694184194357269,-33.95487502465478
1698420075840.0,0.01666666753590107,0.7942536774683743,-0.148010587079823,4.058286964777111,0.9657611859970725,-3.9148198663458227,-4.994453716167807,-5.611173292328841,4.146197606877717,-35.17239381024999
1698420075856.0,0.01666666753590107,0.6777317960426211,0.35925066053271293,3.0414672985255717,0.8984243191041051,-3.401114264899492,-6.0128872473567725,3.24666062596998,-6.578708008075228,-34.55494129418626
1698420075873.0,0.01666666753590107,0.9118037328980862,0.4158072450131178,1.8411375695288181,1.1287165364914573,-3.3575697222054,-7.20789373550415,8.567293252375523,-22.817034101729437,-29.686075095288516
1698420075889.0,0.01666666753590107,0.9271637991152704,0.5401800591349601,1.1372662468403578,1.1071688311479053,-3.2558161516487596,-7.903109458050132,12.088198566682797,-28.972887232723295,-24.449290511464284
1698420075906.0,0.01666666753590107,0.824169288586825,0.6623147389411926,-0.23424890085756778,0.9560347874184604,-3.1832419138252734,-9.254486657604575,20.977541214839945,-15.95954637315144,-18.501966470925503
1698420075923.0,0.01666666753590107,0.8612981920849532,0.3247527631253004,-1.3382827401816844,0.9950902111329137,-3.5802307688608765,-10.332924867901205,30.12919727807143,3.4561677141368357,-16.657900772386686
1698420075938.0,0.01666666753590107,0.8503611299417912,0.11938421205431222,-1.7764052773773669,1.0304046673539093,-3.8681332262337205,-10.733953645977378,41.11261274650467,22.104787097722387,-11.532320205986725
1698420075956.0,0.01666666753590107,0.6568032820433378,-0.09478373154401779,-1.8403800291597843,0.9293993396149948,-4.233398617011308,-10.726771040996908,55.13907215056992,29.773173667584516,1.378244876153244
1698420075973.0,0.01666666753590107,0.6898270152449607,-0.8851309761583804,-1.535412747478485,1.028608997842483,-5.15845769893229,-10.35552014606893,60.76990059289595,33.24373963393515,8.517191253492541
1698420075989.0,0.01666666753590107,0.7849129446059465,-1.591206530892849,-1.070589834883809,1.1893197477478534,-6.007651100268959,-9.817124047741293,60.281098104943986,31.61555572449293,11.43498403389852
1698420076006.0,0.01666666753590107,1.298590489001572,-3.275900323778391,-0.8423609249681234,1.7486651471344754,-7.816321401435136,-9.522936518749594,10.080980993213531,3.7789383352061314,-1.9253120793765885
1698420076022.0,0.01666666753590107,0.7021484444186091,-2.465886547924578,-2.698453487044573,1.1670238909181208,-6.952613152533769,-11.406125762066244,-56.06324455659684,6.6528898388770905,-14.143622761540367
1698420076039.0,0.01666666753590107,0.07541706003397702,-1.2445359504699707,-4.002889487203955,0.6147114954408258,-5.5561950342476365,-12.79431381214559,-85.50181067183702,40.18482717040681,-24.53433831946199
1698420076056.0,0.01666666753590107,0.158324548888579,0.32391543551832436,-4.922880764341354,0.8978258417543024,-3.7737118982613085,-13.801674745178222,-39.93110613330835,57.15720180501194,-19.655348072667
1698420076072.0,0.01666666753590107,1.6125189296431839,0.608612959370017,-4.03348453195393,2.471714158099517,-3.4503450365364547,-12.919261795806884,4.591051242615233,32.75664127818111,-4.016219533859197
1698420076089.0,0.01666666753590107,2.276377829286456,0.37577977052927014,-3.4565836386650797,3.168875754016265,-3.711462655097246,-12.326097749981283,12.908540998268117,0.430828962854805,10.120413382839308
1698420076106.0,0.01666666753590107,2.7708699039578435,0.3748287534147501,-2.744229734313488,3.6032737177308647,-3.7155028703987596,-11.618162246593831,-19.05370744453184,-17.112130550307334,26.105374036118718
1698420076123.0,0.01666666753590107,2.369420854642987,0.7817784459725022,-2.0594909821182488,3.129521064227447,-3.2496807176336646,-10.966789757427572,-38.25011803139276,-15.401769219866102,33.96358693094113
1698420076139.0,0.01666666753590107,2.0698259136497974,0.9868494754016399,-1.7330115413308143,2.7667993665833026,-2.9617782602608203,-10.682478310284019,-36.52039994484371,-6.009352403486251,35.15825190357348
1698420076156.0,0.01666666753590107,1.209478373353183,1.4456196638286112,-0.8403653672367334,1.8755579447206108,-2.4293673738226294,-9.824306652721763,-15.23922437799814,16.429270435204263,33.86155073493031
1698420076173.0,0.01666666753590107,0.26687515917420385,2.037722217902541,0.6582581570267677,0.9506479158814996,-1.826178485327959,-8.329128300476073,-1.2018860834106355,26.114543565079458,35.10436512611666
1698420076189.0,0.01666666753590107,0.021692849435284732,2.1911212200224397,1.415858731815219,0.7276877401489764,-1.6889608026802538,-7.562834131622314,8.752261605288638,20.63620421861585,33.85572799866288
1698420076206.0,0.01666666753590107,-0.17012246564477682,2.1443062773555517,2.930696893298626,0.5343561022218316,-1.7823346674263476,-6.027851592254638,12.023455203540246,6.279932481890421,28.3710724347643
1698420076223.0,0.01666666753590107,-0.7342310243126005,2.3878745029613375,3.405373675909638,-0.03890555778183043,-1.568203256446123,-5.540930245098472,8.967593564157045,11.142088446815446,23.699972655736985
1698420076239.0,0.01666666753590107,-0.9726113989517092,2.3927424012586473,3.5057816770762202,-0.2563291421752423,-1.5896011415228246,-5.42720566624105,11.646609761368547,26.811629256676376,20.935474079741837
1698420076256.0,0.01666666753590107,-0.905564692378044,2.233741633608937,3.842298527753353,-0.10893602940663695,-1.8155542154610156,-5.053710207256675,28.628512509865836,42.40477866953894,27.695720405106364
1698420076273.0,0.01666666753590107,-0.5572215025678277,1.7679910847753286,4.470753082668781,0.29628252850957215,-2.370111174994707,-4.378994251903891,41.0499901570994,34.73832162811734,39.29494914420253
1698420076290.0,0.01666666753590107,-0.48373073442131276,1.4374518472030757,4.644892090478539,0.37678755933232605,-2.8116914514288305,-4.151395456585288,45.24229538285611,12.262898583952444,49.304867995517604
1698420076306.0,0.01666666753590107,-0.470893464680016,0.5323173629358411,4.369718474036455,0.30151984464116394,-3.857060043555498,-4.365677089691162,34.49305636521135,-19.326011718814616,47.1646521247562
1698420076323.0,0.01666666753590107,-0.3928543855793774,-0.40008302165865894,2.9701474446773526,0.27308869992680845,-4.857836045239866,-5.73934970768392,17.930955826123267,-28.587015695563423,36.98287888373444
1698420076339.0,0.01666666753590107,-0.41719106405433265,-0.5504983317926526,1.9679215364456175,0.15532386923525482,-5.032762404035031,-6.7356362889945505,-0.8826118788661513,-18.66868797347093,25.997062603807947
1698420076356.0,0.01666666753590107,-0.49157099959291517,-0.275502410005033,-0.09044716364443302,0.03247139654848724,-4.731242924720049,-8.810662109374999,-15.778834935638534,10.283659172870843,21.93126443431092
1698420076373.0,0.01666666753590107,-0.15104473061133175,0.015208967308700083,-1.2580571108222007,0.3830723386902362,-4.415208597840368,-9.990554615020752,-6.677913517561902,22.247314362680335,30.938069260719363
1698420076390.0,0.01666666753590107,-0.01760550705641508,0.20128040497452018,-1.3884464087545871,0.5195418333191424,-4.24477107489705,-10.11280795277059,16.582476700929526,16.60110091924886,44.27820393622506
1698420076406.0,0.01666666753590107,-0.04543901467118412,0.276050691537559,-1.2124018595844506,0.4348468765258789,-4.268114248822629,-9.88939901035726,37.45506693653035,-3.8932091075677375,49.21744840433061
1698420076423.0,0.01666666753590107,-0.5027046802867203,-0.16769056232273577,-0.9291051424413919,-0.09531911706235259,-4.794838906317949,-9.565882511028647,28.68101958911031,-11.308773237094085,37.52957063999685
1698420076439.0,0.01666666753590107,-0.7801270255036652,-0.39329029277861116,-0.8512234458595513,-0.42706572113037106,-5.065832606726884,-9.465924591717123,7.7468594670100535,-5.675516235631299,19.00375314848966
1698420076456.0,0.01666666753590107,-1.0281782417424024,-1.110141216288507,-1.088424766781926,-0.6998550727844238,-5.746833341437578,-9.72345090778768,-33.561445883178294,-6.2912368718536165,-10.03191035289522
1698420076472.0,0.01666666753590107,-1.3552965649552642,0.43227498021125793,-3.044147915911674,-1.011849476623535,-4.091990789197385,-11.738021967205405,-61.79772794976698,1.2374038141466421,-27.03249025367791
1698420076490.0,0.01666666753590107,-1.7140657255813478,2.715086934198439,-4.847585577121377,-1.2931680986266583,-1.6267115595161914,-13.63063837955892,-42.87960659044906,15.837458449284753,-31.45543559978032
1698420076506.0,0.01666666753590107,-1.7825480179160833,3.64702817684859,-4.976375038641691,-1.3002011756012215,-0.6569099572882056,-13.774889029583335,15.795092493410458,10.957092773145652,-13.283962345997868
1698420076522.0,0.01666666753590107,-1.7092833136104046,4.1181694788098335,-3.8016198958843943,-1.2247837502410635,-0.2955351442083716,-12.545467061614989,77.29452559155547,-12.826706794274902,8.093938944778836
1698420076539.0,0.01666666753590107,-1.1783042866062372,2.6786025391489265,-1.5209662889748812,-0.8271966370513663,-2.0220541086494923,-10.120439470562339,95.26176850519172,-63.1109069497828,14.996090134113196
1698420076556.0,0.01666666753590107,-1.0931851130515335,2.2399740982577203,-0.7475771934241056,-0.9322423079559579,-2.619706405805051,-9.26391382664144,38.06523164074968,-94.34952843964481,0.02864303861468316
1698420076573.0,0.01666666753590107,-1.7898669626273214,1.4136948317795992,-0.24845512086451052,-1.8279728990306379,-3.423110700391233,-8.779237628063559,-61.153101526090346,-91.03677057897274,-23.677487672989304
1698420076589.0,0.01666666753590107,-2.1672239193454383,1.4291311781033873,-0.6885352218687534,-2.3427262879302724,-3.038691696332395,-9.4165441824764,-173.81764562134094,-39.02311444542519,-52.3130472305313
1698420076606.0,0.01666666753590107,-2.086647284591198,1.2271195362448692,-1.317270347291231,-2.2429179879562,-2.81199072663635,-10.252120561870932,-189.4457604801121,-3.871441294682907,-63.15925785891732
1698420076623.0,0.01666666753590107,-1.414655201244354,1.578235405638814,-1.6609622041642664,-1.4974234642913564,-2.064251912909746,-10.765676233452558,-141.04317413433154,11.812039504387196,-55.66100105599645
1698420076640.0,0.01666666753590107,-0.776596805550903,1.4880392941460012,-0.3867734582304954,-0.7832031598547531,-1.8620912179693578,-9.603441549572349,-44.259899029249425,-1.4664470576087325,-29.358560694397234
1698420076656.0,0.01666666753590107,-0.2805095706425607,1.163894433785975,0.1544569867402315,-0.29388818985209797,-2.1431106378301976,-9.07776523208618,4.182559826471572,-20.34503666939279,-20.332615970387124
1698420076672.0,0.01666666753590107,0.42704891612604257,0.3661860127538442,1.3898293875455856,0.37020348193401004,-2.981530423957109,-7.827542468151449,26.372943281759383,-27.07739703992345,-19.833195953370375
1698420076691.0,0.01666666753590107,0.8076439779825508,0.005273848749697208,2.882169301494956,0.6977602193970233,-3.43762554795593,-6.299592896160483,29.48268230708929,-19.828148443573735,-22.37391874913569
1698420076706.0,0.01666666753590107,0.8556517106305808,0.11531506291925907,3.4695196926057337,0.7302315794128924,-3.390190427564084,-5.68832328480184,21.767259639507866,-10.199901416852622,-23.382292019703232
1698420076722.0,0.01666666753590107,1.0106566866423934,0.12078092710971831,4.113953322419524,0.8961797002487816,-3.4371766351446507,-5.023782686504721,11.185093879150786,-2.7222555635259145,-24.151656480644515
1698420076739.0,0.01666666753590107,1.1156393753133713,-0.06158201142698526,3.994087756589055,1.016637989541702,-3.6399355882391333,-5.135861251720786,5.644563952746918,-4.500637467250836,-25.25318840884915
1698420076756.0,0.01666666753590107,1.23396253400743,-0.16663871518224477,3.589636602848768,1.1406874808601568,-3.755007197791338,-5.536441116985678,3.039156063890408,-10.079387851589626,-24.71104385102668
1698420076773.0,0.01666666753590107,1.2961316976726054,-0.3273836961507797,2.296663661468029,1.1939585591301787,-3.926790874646604,-6.82497052296102,3.6787894058403503,-13.7886817360369,-23.249002585597726
1698420076789.0,0.01666666753590107,1.300344785322994,-0.2803767380431294,0.45818040584027764,1.1857285274560097,-3.8931227060616016,-8.658031169018148,7.926760673332666,-13.443390914057012,-20.68801461856498
1698420076806.0,0.01666666753590107,1.3063500170871614,-0.30632746411859985,-0.33965865583419796,1.1810897526063024,-3.9513311494022605,-9.442880400738119,19.929324035749136,-9.605175501478456,-15.652310803905925
1698420076823.0,0.01666666753590107,1.100394971365109,-0.14989216304272412,-1.300904903423786,0.966808685756009,-3.8938708940804,-10.363750214275717,41.92524816338528,-6.072899202863581,-7.795977064878907
1698420076839.0,0.01666666753590107,1.2769774998694658,-0.6952481635108589,-1.7023650586545467,1.1329063985298853,-4.549882148963213,-10.718540972790121,49.78155714297655,-6.465424624935513,-0.31583549778207365
1698420076856.0,0.01666666753590107,1.3136268762223422,-1.1091770474314688,-1.8591934507012366,1.1487679571289569,-5.075858033917844,-10.826280047497153,44.06976705332378,-6.82306016006655,9.101980951171631
1698420076872.0,0.01666666753590107,0.8088132409576326,-1.5461711651191115,-2.437218964105844,0.6147113493103533,-5.633408037787675,-11.349413110241294,34.69969349326633,1.9251959661606983,20.420221684229
1698420076890.0,0.01666666753590107,0.297930770640634,-2.4133579037860033,-2.9397154815346003,0.0833482366257347,-6.569690524512529,-11.819424823650717,24.515580912453842,-0.3815514158294109,22.378259334353235
1698420076906.0,0.01666666753590107,0.05975527092386037,-2.4438693619057537,-3.5196050352454185,-0.1779190378051251,-6.6340346941292285,-12.382810401806234,4.550371489692283,-0.33564229932317013,12.575209837524923
1698420076922.0,0.01666666753590107,-0.7573137206710875,-1.5179159614935516,-4.984317522078753,-0.9602243571959436,-5.691317790442705,-13.856291886028647,-7.801159470911655,28.07399677190918,-11.230333637118365
1698420076939.0,0.01666666753590107,-0.13702157555371522,-0.759781133697927,-4.624166113314033,-0.23119000647729263,-4.937742817908525,-13.495814898571371,13.16459881383637,48.19414263269013,-18.20947215745617
1698420076956.0,0.01666666753590107,0.7700388352748007,-0.720584264819324,-3.915917306193709,0.8011598629605258,-4.952107735608518,-12.76259064014852,31.10898108432059,42.781443111697634,-9.746770445614699
1698420076973.0,0.01666666753590107,2.2839079325303433,-0.8002966839596629,-2.8442858533024786,2.412756914818706,-5.127632644818723,-11.643601223754882,25.156160449047242,19.70577365176191,8.074304712235989
1698420076989.0,0.01666666753590107,2.8336832107454537,-0.771122027401626,-1.9981091694384812,2.975693598429253,-5.126884749060869,-10.78318441761434,-2.827649864730854,6.7970529341412576,17.92556168422625
1698420077006.0,0.01666666753590107,2.806762470594048,-0.6947305693775415,-1.8103508015990257,2.9352912536178715,-5.003283796094357,-10.618882913208008,-38.60584452865078,4.222812265684573,24.242083062613606
1698420077023.0,0.01666666753590107,2.089284355096519,-0.003496317683160305,-1.730188300603628,2.199074252252979,-4.144363950513303,-10.619032550811767,-63.81676601936859,9.2567803585208,26.334335637475885
1698420077039.0,0.01666666753590107,1.2583598931610585,1.0051911877781152,-1.3777064035534858,1.366790028005326,-2.9921546938240526,-10.332027042278646,-55.49862355376315,12.722317598095012,24.900352789157342
1698420077056.0,0.01666666753590107,0.9651032883439212,1.3515870429128407,-0.921214096930623,1.0818799482483417,-2.5414462312996386,-9.92127181995809,-31.814420097272432,16.557722387830108,27.027562272191744
1698420077073.0,0.01666666753590107,0.6640723962634801,2.165399042005837,0.34488428152799605,0.7924807951774914,-1.692103192359209,-8.67030145252645,9.694078951262634,18.427223710838053,41.702160524714316
1698420077089.0,0.01666666753590107,0.5715608839677646,2.7027748573750254,2.0803759492367506,0.6893804861870129,-1.20952162797302,-6.911311420330405,35.85365395353999,13.251182560623684,55.523342008369426
1698420077106.0,0.01666666753590107,0.5830971906457096,2.807475002777576,2.8591327093005177,0.657058772908058,-1.2093719903692601,-6.086808223614097,50.94969366087257,2.5770427535636817,65.91208364162092
1698420077123.0,0.01666666753590107,0.30541292482325805,2.858887502367794,4.225012481459975,0.26500822822458575,-1.3248925127327442,-4.6443017233699555,53.93811315861741,-12.196195810291746,69.62892915396928
1698420077139.0,0.01666666753590107,-0.16041673539485782,2.6801728572055694,5.107442381966114,-0.3064578216331545,-1.6225217066109179,-3.7036803306579587,50.42163124557137,-12.497049421531528,64.83082371487288
1698420077156.0,0.01666666753590107,-0.4379931386623531,2.6063474502772093,5.233557655841111,-0.66917940054629,-1.8058277712166309,-3.5214211447566743,49.03253469293086,-1.3225049829972393,54.197096856471376
1698420077173.0,0.01666666753590107,-0.5635899781538173,2.2897975750908253,4.942473938083649,-0.8453028601715341,-2.2789818743050096,-3.730315824127197,58.34410426765256,16.57407556825041,45.49090060826624
1698420077190.0,0.01666666753590107,-0.3129555770214647,1.8425564964160321,4.730991580307483,-0.6112696478912606,-2.8588278811350465,-3.8700773460388183,60.774859310233374,16.39504435727333,47.55962488898512
1698420077206.0,0.01666666753590107,-0.14962028729878366,1.7670730931475758,4.438588012123108,-0.4848259092468768,-3.056498571179807,-4.093186428722739,49.988573346530465,3.5163062491183283,50.049631822615794
1698420077223.0,0.01666666753590107,0.12391655825432389,1.120695051267743,3.23293211966753,-0.31334121533818543,-3.802891230994463,-5.236866634258628,20.430075939654035,-16.782290470003666,43.005118146637216
1698420077239.0,0.01666666753590107,-0.047926959029398856,0.43393385333418844,1.1590250741839407,-0.5799954252380878,-4.507684344702959,-7.294832014244794,2.1476919396948024,-23.373139566215414,32.45537529427018
1698420077255.0,0.01666666753590107,-0.34712409634403885,0.48814416694939133,0.00421674091219902,-0.962918053259328,-4.447679665595293,-8.447340838402509,-1.9909177539018537,-20.441142553656746,18.660963029519646
1698420077273.0,0.01666666753590107,-1.2356427421793341,1.1910726558297873,-1.6350900962829589,-1.900996337359771,-3.745280753546953,-10.082581741333007,4.245394151741105,-1.2450222498355568,0.14979634714298753
1698420077289.0,0.01666666753590107,-1.4982636049099265,1.3559960915267466,-2.307518232959509,-2.144157297338918,-3.591303659278154,-10.750115091705322,3.06167797234829,11.45476084664029,-12.335967093919594
1698420077306.0,0.01666666753590107,-1.326300918225944,1.1983622283160686,-2.3659750981032848,-1.910273649597168,-3.7463276322513814,-10.814608314403891,-8.541913123193401,24.729266795732276,-22.057950783036315
1698420077323.0,0.01666666753590107,-0.748053871025145,0.47514556916654105,-2.0346324351936578,-1.1941081145355477,-4.424186269544065,-10.518025999230145,-26.67335378447676,35.11313850410555,-24.25310357283942
1698420077339.0,0.01666666753590107,-0.26810020745713264,-0.03425415177941322,-2.011324624842405,-0.6226421423096209,-4.848109893256425,-10.54780388237834,-55.40171682981901,15.671814409080897,-29.160321283926784
1698420077356.0,0.01666666753590107,-0.3020338951105252,-0.010770692600309849,-2.648321382653713,-0.5961562864441424,-4.660464338141679,-11.277587060436606,-93.2808360609696,3.622023276761551,-41.7333471684646
1698420077373.0,0.01666666753590107,-1.2527176494903862,0.6239642577588558,-5.040274971622228,-1.4261960197006351,-3.7086198328867552,-13.836240447124839,-108.12893648633613,26.494810932025334,-59.73656810355389
1698420077389.0,0.01666666753590107,-1.4653715352639556,2.243106551064551,-6.227361772686242,-1.4917372764476806,-1.8758581697762011,-15.127014417156577,-71.73537998456872,41.50442313314786,-55.69893934174129
1698420077406.0,0.01666666753590107,-1.5009455374702811,2.788586470173299,-5.91747807739079,-1.3941735268302726,-1.237653205218911,-14.858863831219077,-5.6765723536317125,26.309200541330238,-29.807123122854065
1698420077423.0,0.01666666753590107,-1.2601184272661805,2.9305367343008517,-4.135868217107653,-1.1637316535728517,-1.1815399805918336,-13.038223106274009,50.83697846409443,-45.50873423218914,8.331093358045434
1698420077439.0,0.01666666753590107,-1.3829238459408282,1.7239166729882358,-2.510608025443554,-1.4604629578963852,-2.5068799448311325,-11.357343903240562,45.532045667826395,-86.01066659519213,18.6507006702917
1698420077456.0,0.01666666753590107,-1.772216301254928,1.2577204262137411,-1.707539830943942,-2.077718183003273,-3.0280677187263962,-10.522814987072348,-2.434170777496059,-90.70900346108218,9.445386640940594
1698420077473.0,0.01666666753590107,-2.927729860186577,1.2137395379289984,-1.0786930618405342,-3.435829056460596,-2.9279598695501683,-9.95329426716268,-89.54541926426796,-41.344002480111776,-28.128298483358073
1698420077489.0,0.01666666753590107,-2.8109645984590053,1.0030763875812292,-0.6358399889916181,-3.312378142956644,-2.889802572852373,-9.622745384979247,-121.3077933200649,8.7543542044956,-53.40229847860825
1698420077506.0,0.01666666753590107,-2.5445652401030063,0.8352586917474866,-0.10683131221234798,-2.924816712686233,-2.78640269639343,-9.21228885334432,-107.6719012082139,40.04670366991623,-62.973702109735584
1698420077522.0,0.01666666753590107,-1.412474203943461,0.7758323970496654,1.6720587677180767,-1.5894506271362303,-2.5996549669012428,-7.53365421436727,-47.05753768309748,32.6158130227792,-55.690589435480945
1698420077539.0,0.01666666753590107,-0.013159944090712816,0.14670885683149099,3.53206061219275,-0.10369880460659041,-3.168726481738686,-5.696702990612387,-6.354946315110556,1.693253627561055,-44.06165620368439
1698420077556.0,0.01666666753590107,0.47463425864353775,-0.05000000244379043,4.160000787845254,0.38367086170581166,-3.3789678995430465,-5.063885564312338,13.655978844426368,-28.435062769550857,-35.501598682960854
1698420077573.0,0.01666666753590107,1.0637674415178597,-0.4392939190626144,4.986721660611033,0.8876502655029296,-3.810223473578691,-4.2206776671260595,6.4458335079618,-43.89940505995074,-31.875888384707963
1698420077590.0,0.01666666753590107,1.2071471539266407,-0.5461828066810965,4.852746320885419,0.9606734709366224,-3.9124256646856663,-4.354752960094809,-11.542142018013202,-35.92320918495281,-33.76706189795236
1698420077606.0,0.01666666753590107,1.2993367773242295,-0.6611357582896947,4.540148105934262,1.0173861958268098,-3.9870948289617894,-4.680962936291098,-21.901013526476934,-18.526679802889902,-35.873003879458636
1698420077623.0,0.01666666753590107,1.3778504881992935,-0.6976143081203102,3.5355268269985913,1.1037270383972675,-3.956119844983518,-5.709871099743247,-20.300305760518377,-5.1774891503184115,-34.86130942940718
1698420077639.0,0.01666666753590107,1.348524440471828,-0.5995423486858606,2.1135224320352077,1.0890625532288103,-3.819500712750852,-7.145793545421958,-12.740506391854757,-6.683110010859812,-30.372673031414877
1698420077656.0,0.01666666753590107,1.2512135285377501,-0.3770297705903649,1.4434686232745646,0.9906009916885755,-3.581726852637529,-7.82110805118978,-0.5382056731054878,-13.783515551703431,-24.081790475624455
1698420077673.0,0.01666666753590107,0.9649734514191746,-0.00469341851323843,0.3689811964303255,0.6675334417038596,-3.244293763898313,-8.882337937054038,21.43436134200332,-21.63731358300108,-17.039119243174486
1698420077689.0,0.01666666753590107,0.677662822459638,0.060764265303313726,-0.3306552651673555,0.3437176123687997,-3.249830647498369,-9.555557516369223,35.63725648516106,-18.040146645289674,-14.831187169434285
1698420077705.0,0.01666666753590107,0.595416902786307,-0.025945465378463265,-0.5791694227427244,0.24705182993784544,-3.430592872840166,-9.769240014538168,40.29705742375388,-3.0155564796475445,-14.978748283810534
1698420077723.0,0.01666666753590107,0.5421315950615331,-0.41912499125897884,-0.8248486491531133,0.25049345829170194,-3.949984995490312,-9.969156437683106,36.3151117791498,26.361280733751585,-14.59685874693678
1698420077739.0,0.01666666753590107,0.7163137478932737,-0.87714026966542,-0.6503992602199316,0.5140052785126492,-4.487333338330686,-9.766098209381102,29.431107548666525,36.327180723413214,-10.373792056705623
1698420077756.0,0.01666666753590107,0.7789418343070894,-1.1232125870466232,-0.6224895090311765,0.6675334965027868,-4.7936412209659816,-9.715669752392172,21.14396901925106,34.301537860884196,-1.421756702982516
1698420077773.0,0.01666666753590107,0.8389202099297195,-1.5565385376155376,-0.8192290557056665,0.8215105359726586,-5.28909161927551,-9.887752996715903,21.036362803972093,28.34702675379127,9.5233848399412
1698420077789.0,0.01666666753590107,1.099967978124693,-2.654703484906256,-1.0553203695595264,1.1236288716633571,-6.440852255414426,-10.101585132488609,22.488069993186823,12.61927480295526,10.252464845157748
1698420077806.0,0.01666666753590107,0.7986899794153869,-2.2151930004835125,-2.5045512096226212,0.7975685534777199,-6.028451311713456,-11.539452867016196,-12.361645190104257,-19.980449709233973,3.0532977571235076
1698420077822.0,0.01666666753590107,0.1198318736234214,-1.170252278380096,-3.8569747033596036,0.06389537553642877,-4.913202250891923,-12.921056862530111,-43.775143428380694,-23.98978099731521,-6.258078864754143
1698420077840.0,0.01666666753590107,-0.15467515953555702,-0.09617021746635436,-5.840832644605636,-0.24630337705756536,-3.732561264966428,-14.947898789978026,-41.03947166577758,-14.476046360897595,-12.524177225367527
1698420077856.0,0.01666666753590107,0.8025274386864155,0.30909839013665913,-6.347797247359156,0.6827965229531284,-3.245191881781816,-15.486892854198812,-11.386540917210203,-15.433153939102311,-10.340629780737919
1698420077873.0,0.01666666753590107,1.1682106164846568,0.6643807315602899,-6.258902573853731,1.0136452739991246,-2.8734917817816137,-15.403843984112143,-5.700894230379305,-16.51829512084621,0.3129612688019677
1698420077889.0,0.01666666753590107,1.4911571339055896,1.4431912676379084,-5.555314159759879,1.3022961751190945,-2.0693395914375783,-14.70937586506307,-16.466045881242906,-6.461730773255005,10.034702192718463
1698420077906.0,0.01666666753590107,1.5764933842770754,1.8161507200494407,-4.5957472435593605,1.3813048481705599,-1.6087547548040746,-13.782819822582601,-36.14674078591982,13.172569644597777,16.69959736972232
1698420077923.0,0.01666666753590107,1.4064160729482769,1.9851973731562493,-4.023162459903955,1.24318926683506,-1.3470388780891895,-13.244873221588135,-36.9803141477011,25.917396984876213,18.58222460876774
1698420077939.0,0.01666666753590107,1.1211851728722453,2.2871298171862957,-2.4686311704576016,1.0112510084068869,-0.9656126261055469,-11.719466904339194,-22.175672508476072,32.14417821530606,19.947804820095897
1698420077956.0,0.01666666753590107,1.0810931087195872,2.2624933885797858,-0.5700257468223572,1.0546459523131255,-0.9629191492378711,-9.831040929412842,10.279879516938887,35.727998963379264,26.692691757564358
1698420077973.0,0.01666666753590107,1.0192766309496015,2.3344983020827175,0.5144534972041845,1.0519524594624294,-0.943914881299436,-8.72791192997396,34.26619504702396,34.71536877741151,37.673380272971464
1698420077989.0,0.01666666753590107,0.7454321442194283,2.6658853886559606,2.593934543427825,0.8156746602928732,-0.7091337732613087,-6.613382951244711,49.32956595955637,27.84801484057743,49.73994080036366
1698420078006.0,0.01666666753590107,0.4361331169441342,2.577884156858921,4.070788718953729,0.50652336635862,-0.9683061029732227,-5.071965994915366,55.36300673269796,14.436332225968556,61.99972396428093
1698420078023.0,0.01666666753590107,0.29767990115210413,2.601697870905697,4.45911875897646,0.33144735854325114,-1.0745488016426563,-4.632330715069174,52.91366674538554,6.906129347639069,67.4286725053089
1698420078039.0,0.01666666753590107,-0.18353780926866456,2.4678628164336085,4.901942021209002,-0.22535419472958892,-1.3655939409554003,-4.124311050304771,46.992128376510856,3.0157530610295935,68.0407803983471
1698420078056.0,0.01666666753590107,-0.5898663559870794,2.284125666934252,4.912589671951532,-0.6905775230850093,-1.6539456034004687,-4.068047311291099,43.306459262629005,4.4028675781503335,63.60341140026491
1698420078073.0,0.01666666753590107,-0.7211313042428344,2.1323668332368135,4.788482815289497,-0.8723872573188971,-1.9030919213995336,-4.148103429302573,41.83972394969296,5.610211089429515,56.31764861261231
1698420078089.0,0.01666666753590107,-0.9111430039670317,1.804648790565133,4.34218047876954,-1.107617524763476,-2.322226849530637,-4.551676046642661,38.46292282026826,2.2967501461597526,47.46278988202726
1698420078106.0,0.01666666753590107,-1.011199926673621,1.7024390006735919,3.693322018250823,-1.2774562232971192,-2.5245368898138403,-5.151573200115561,27.13647817624406,-10.967347448410779,32.987628030627185
1698420078123.0,0.01666666753590107,-0.9139370916649698,1.6106500670313835,3.205961695155501,-1.25022221594546,-2.662652398084104,-5.614252670940757,14.74959202206202,-23.125925991848682,20.540707928735316
1698420078139.0,0.01666666753590107,-0.6795803465187549,1.346013918955624,1.9161469255447388,-1.089960378851369,-2.944420298224687,-6.892607304382324,1.8204219315097607,-25.153004901650696,8.547508755670934
1698420078156.0,0.01666666753590107,-0.43904684896636753,1.2435507388249039,0.49891281372308727,-0.9096470297882333,-3.037344957898557,-8.311470478710532,-4.538480130347291,-9.54130811009696,-4.06084372102783
1698420078173.0,0.01666666753590107,-0.47338210315797474,1.2618261079668998,0.02202887645661831,-0.9397241881439462,-3.020436200934648,-8.787916609081625,6.920478294424796,5.816983540607427,-8.981011470781535
1698420078189.0,0.01666666753590107,-0.5527654730070382,1.374638248154521,-0.3706464992940426,-0.9698013464996591,-2.962825431226194,-9.15602511433065,26.83440281491649,14.55169412105007,-10.223321281742951
1698420078206.0,0.01666666753590107,-0.4913046037416905,1.0577969888061285,-0.15155834268927573,-0.8625111846039071,-3.348591465979814,-8.904633940014243,31.465660392967827,14.797985619878853,-10.09389602716038
1698420078223.0,0.01666666753590107,-0.5852345314679667,0.9925570393934845,0.014327216038107871,-0.9066542411804198,-3.4858091486275193,-8.704119550976158,30.176472432411675,20.516590530776,-9.200806104498898
1698420078239.0,0.01666666753590107,-0.5693870105274021,0.45288726786822076,0.6416302628308534,-0.7936778686081059,-4.103063971875608,-8.039578368157148,18.06348027904173,34.17298687051539,-4.8477408506817135
1698420078256.0,0.01666666753590107,-0.1627303095668554,-1.0611077207893131,0.38055005367100236,-0.31274262839052824,-5.63056492331624,-8.295159979900717,-9.799222029572165,19.861647106358063,-10.308695231273525
1698420078273.0,0.01666666753590107,-0.1073033867035061,-1.2491802691444753,-0.5744482394397259,-0.22804773552934637,-5.745187035535276,-9.28890330646932,-56.438932281704226,-14.21467038928684,-29.616168109133433
1698420078289.0,0.01666666753590107,-1.1518621968172489,0.08937807310819626,-4.13535266880095,-1.280748250579834,-4.163517563794553,-12.970886184582113,-92.3080531986197,-29.526911197059707,-66.63201973108612
1698420078306.0,0.01666666753590107,-2.119115137475729,2.8312498461186886,-7.509420521342754,-2.2179285720604005,-1.2340624872505663,-16.43320106037557,-64.98118349926155,-14.288647314413602,-80.36445656685525
1698420078323.0,0.01666666753590107,-2.1272595732256767,4.0428699076756835,-8.409310675215721,-2.167351016323827,0.05940525190979242,-17.37038137272298,-2.4232614712876677,-1.0770077071028825,-58.234513882419705
1698420078339.0,0.01666666753590107,-1.5016982555337248,4.846500996755063,-7.5059209887892,-1.513733920860331,0.7338216397941112,-16.40851085575521,76.96341168097159,-15.313687100329618,0.025315162343726674
1698420078356.0,0.01666666753590107,-0.9654271865360439,3.3812811449214815,-5.124012993016839,-1.0679635506339835,-0.9238637346565722,-13.934552352795004,80.6581068898416,-53.044519509504646,19.225122994584357
1698420078373.0,0.01666666753590107,-1.0811432314716278,2.5618007448032496,-4.548366483703256,-1.3563151856795883,-1.8779530962288378,-13.288117904552816,31.782045000606573,-79.16316972582257,4.2178748926883
1698420078389.0,0.01666666753590107,-1.7088012291818857,1.1487833738937974,-3.732171681126952,-2.174234309564158,-3.2550679636299606,-12.482020717620848,-54.51909929470246,-56.959474658729235,-44.6462486796512
1698420078407.0,0.01666666753590107,-1.873551646399498,1.322237029787898,-3.5261470042347907,-2.3557446863921356,-2.917934442359209,-12.355576357921958,-88.68655029689555,-18.399612671118277,-81.01763438737274
1698420078422.0,0.01666666753590107,-1.4335036940991879,1.556712725138664,-3.2270676115483043,-1.81315884475708,-2.4880253144964573,-12.152667767223715,-83.28809172032253,19.443975915969908,-99.561543342444
1698420078439.0,0.01666666753590107,0.08323388953106477,1.9301421331495046,-1.7002525965452193,-0.06120167033988982,-1.925837129431963,-10.715847495922446,-39.410860869512234,40.416343262513564,-85.65566068289155
1698420078456.0,0.01666666753590107,1.5507333584681153,1.8619333970591425,0.5125450332343578,1.5628151987407182,-1.9428955239996313,-8.525901749420166,-5.961179506156975,28.145399569492493,-58.02297609363524
1698420078473.0,0.01666666753590107,1.9290861943557858,1.5872162922129034,1.549896615383029,2.018760985388234,-2.2260101625740525,-7.484573080334067,10.96489199540416,-0.7868134064756979,-32.712221142913926
1698420078488.0,0.01666666753590107,2.16117820944041,0.6900882965296506,2.9068665203779935,2.2224178508702432,-3.1539126512274143,-6.114790455517173,5.56222815673653,-31.05029609897184,-12.510719191381662
1698420078506.0,0.01666666753590107,1.6557519221700727,-0.1792947831377387,3.5049610083431,1.6470612575640784,-4.018518433490395,-5.518933517345785,-9.257062103824063,-34.24350515860118,-8.223960133366491
1698420078523.0,0.01666666753590107,1.3040071072228252,-0.42992520221471786,3.5608272724717853,1.2307694461876992,-4.234745355445146,-5.477334263500571,-18.532972114662776,-27.331732794047216,-10.617710064797826
1698420078539.0,0.01666666753590107,0.7911851567432284,-0.6142492116913199,3.3878666607916355,0.6699276981629431,-4.358944566565752,-5.674855900463461,-17.842679046195435,-13.802456520045522,-16.162734255675563
1698420078556.0,0.01666666753590107,0.5553316337006167,-0.5712091113880277,2.8825112468004224,0.43245282099619503,-4.28352721427083,-6.193499835094809,-8.311565847208367,-1.0825426149298258,-16.74688959953549
1698420078573.0,0.01666666753590107,0.4548823872081935,-0.39731764859855173,2.7556144671589133,0.35538948245937935,-4.10815165040344,-6.321290348705649,7.725848097575802,7.571584006302833,-12.170990704707107
1698420078589.0,0.01666666753590107,0.39960685551427305,0.10018412928283214,2.746607569360733,0.33294384646199177,-3.6727062234625216,-6.3049804344177245,31.51234815103945,5.217172976283009,-1.9517269822179668
1698420078606.0,0.01666666753590107,0.595459171025455,0.20270868421196936,3.0126591371923683,0.5301662127839402,-3.6632790544256566,-5.999569500622153,46.996127452269896,-1.9941309310195214,6.508233689332213
1698420078623.0,0.01666666753590107,0.635351986278966,0.31834844904094933,3.104959235227108,0.5472248904793988,-3.6701623841986057,-5.853522614830732,56.631912446513766,-7.81690391072218,13.40504196318833
1698420078640.0,0.01666666753590107,0.6454554471421986,0.4032566832587123,3.15292276340723,0.5063737881203647,-3.7693724077522752,-5.720645591735839,60.75507908239702,-8.604078089924272,19.42683726379505
1698420078656.0,0.01666666753590107,0.6995202148068695,0.19396335995942354,2.8277485599994656,0.5199908557282761,-4.11443642976135,-5.979966390007734,57.44064782537829,-5.661484892641978,23.275319304469782
1698420078673.0,0.01666666753590107,0.6577176204092801,0.17851532319784164,2.441035307523608,0.4415806600266136,-4.256293170386552,-6.302884923443198,54.37851692611067,-1.7923203988302125,25.804410288078568
1698420078689.0,0.01666666753590107,0.45650191470142454,0.19215572601556777,1.4827724596589802,0.19707285201577468,-4.399047152112424,-7.1788634558528654,48.99156380319454,-0.24443347393112727,25.608802207985864
1698420078706.0,0.01666666753590107,0.29618191767930985,0.3619724867120385,0.2433966684311628,0.007332370448391884,-4.326772481757402,-8.364891103252768,38.788804805947905,1.5410431820724384,23.607384318895587
1698420078723.0,0.01666666753590107,0.26590229555405676,0.419766211771965,-0.42102468740046023,-0.040252405813522636,-4.344878339551389,-8.986934622082114,31.711233014386465,8.928851877411086,22.665771024823044
1698420078740.0,0.01666666753590107,0.5034228384934365,-0.36410073091238737,-1.035210478466749,0.1815104864258319,-5.20319992697835,-9.558699906048178,13.527590071050346,-2.5465905685925914,19.209070342487536
1698420078756.0,0.01666666753590107,0.7884783089373261,-0.9222302882358431,-3.226736187636852,0.4186860883850604,-5.7456362406074994,-11.757175580486654,-28.311260468202498,-20.21482594305567,9.048601315260688
1698420078773.0,0.01666666753590107,0.4757870819404721,-0.58767275493294,-4.657105675363541,0.06868376972358674,-5.306001253022253,-13.244423724254965,-60.09397141225315,-1.6338987500651154,0.6535255731957782
1698420078789.0,0.01666666753590107,-0.26119901323392986,0.7961191060140729,-6.132734108486771,-0.5765535776885226,-3.771467334204912,-14.80499429386556,-26.93613848260383,62.840288024677726,3.4226549640873447
1698420078806.0,0.01666666753590107,0.39696419551838186,0.554902704231441,-4.761398409008979,0.23747498676460235,-4.004752358466386,-13.442094998821615,17.82309177120313,75.61236611219722,13.309740333699143
1698420078823.0,0.01666666753590107,0.9928556570138781,-0.10066986697316169,-3.7867759624958035,0.9539398518326692,-4.716578439551592,-12.439074140819907,24.986529285915392,46.169698468360444,21.0158397930635
1698420078839.0,0.01666666753590107,1.4863034102641046,-1.0060200398176908,-2.8356360983788966,1.4885949190201775,-5.6304152857124805,-11.483488403210043,-25.24940277650167,6.810903277117574,14.622144107244168
1698420078856.0,0.01666666753590107,0.9618866643849759,-0.4008358858525753,-3.3337942943423986,0.9594764152014947,-4.9230780404791235,-12.035501523479818,-61.077327407438226,0.6259110650205638,3.3032767043304503
1698420078873.0,0.01666666753590107,0.8217552862476557,0.0975847604393959,-3.817280990874767,0.8285435244697873,-4.276493954633176,-12.594397389000653,-63.1558905756565,7.4158591083211265,-3.973121040196417
1698420078889.0,0.01666666753590107,0.817259290002659,0.9989423565164208,-4.0069028144985435,0.8667011060078395,-3.23022812140584,-12.854617766460775,-26.804539520317903,16.981212899391117,2.0285104747633693
1698420078906.0,0.01666666753590107,0.7881574064198881,1.9353139828294514,-2.873136684733629,0.8719384541054721,-2.267310433472693,-11.733233563885092,2.635904470057205,18.430416824275035,11.775168435700174
1698420078923.0,0.01666666753590107,0.7863047642905264,2.1364041259288786,-2.0339502981483935,0.8937855168549343,-2.092982332831621,-10.881047410473228,18.263963406654533,17.252350918873113,19.176150538235365
1698420078938.0,0.01666666753590107,0.5832779905727132,2.3457293056711555,-0.20310206744372844,0.7053917645882349,-1.9470856691658496,-9.019405982097982,20.543093372302945,11.682060150708207,20.53095612614783
1698420078956.0,0.01666666753590107,0.050603713091136884,2.524382576034963,1.3669745816588401,0.17058695961767806,-1.8092694361031054,-7.429356804546713,14.23385980575999,5.926777977741736,19.43305785858164
1698420078973.0,0.01666666753590107,-0.10935736009124666,2.6680378905147313,1.6038386334508656,-0.002094835121091455,-1.686866168488562,-7.18215548313558,4.019259394926676,3.702189633936814,20.739189810921303
1698420078989.0,0.01666666753590107,-0.2675098220822401,2.743785497677326,1.4401549686819315,-0.16699548359750768,-1.6021709924995897,-7.350348149761557,-9.175806758363006,14.800239582304958,21.125696555673983
1698420079006.0,0.01666666753590107,-0.43098033729083834,2.4953008584573864,1.427386088001728,-0.31049793646996837,-1.8222876153692602,-7.376834590148925,-14.420725243715076,20.45890104549878,17.691567940998077
1698420079023.0,0.01666666753590107,-0.5014698412621393,2.460372168417275,1.569464070162177,-0.35823234120248815,-1.8260285554632543,-7.249642042431235,-11.380719034716414,12.3353395702896,12.115502247889923
1698420079039.0,0.01666666753590107,-0.5271032450167462,2.706922332443297,2.040557149067521,-0.40342291580424644,-1.5652105043709277,-6.785765470775962,2.8197520316162037,-17.76202475738134,8.35854047322513
1698420079056.0,0.01666666753590107,-0.49849312700629234,2.6172344627335664,2.100647752892971,-0.4492120316878892,-1.6756430559456348,-6.7163336226314305,16.586458701215644,-34.591281315665306,9.78698062303221
1698420079073.0,0.01666666753590107,-0.3876636120032519,2.3964158290743827,2.4528251140385864,-0.4311058953326894,-1.9539689989387987,-6.335954833874106,31.96161408898079,-36.549028682749814,8.065465593676345
1698420079090.0,0.01666666753590107,-0.4584211192609742,2.6887787729874253,1.9671213259786366,-0.6193500054290518,-1.7672212694466114,-6.767210407909751,34.921616584683804,-35.38809459933358,0.19544146082955138
1698420079106.0,0.01666666753590107,-0.5738328474877402,2.6041253903135657,1.7852625375717877,-0.8041524095397442,-1.9264353875860571,-6.909066856274008,30.30255089430094,-26.758212054725,-4.066445329920886
1698420079123.0,0.01666666753590107,-0.6500235587753355,2.346235501627624,1.9866332511782645,-0.9484030778304673,-2.2628213053599,-6.664260321044922,20.974172224031836,-32.32290719041237,-8.612238458435145
1698420079139.0,0.01666666753590107,-0.4513123832343146,2.2951634860381485,1.3402479027748107,-0.8402151085784658,-2.354548864203691,-7.285255792126059,14.995700813330505,-62.316009534176715,-16.48186801445524
1698420079156.0,0.01666666753590107,-0.06795801273230463,2.105155585706234,0.3185872262328863,-0.5943605256011709,-2.580651283484697,-8.280046581920981,16.05415473843987,-79.23164920244112,-27.18886060453618
1698420079173.0,0.01666666753590107,-0.13531141063496469,1.8436855004459618,0.2173287457168102,-0.8279448616027831,-2.9100036493599415,-8.332120468029379,25.65304817342921,-63.488350033506876,-36.61006325317305
1698420079189.0,0.01666666753590107,-0.3790237939517945,1.7500711049422621,0.001997311297059059,-1.1426327423095703,-3.072509794782102,-8.502707336315511,28.187367666847635,-40.67105467704168,-34.522084669183904
1698420079206.0,0.01666666753590107,-0.9815104524612426,1.7946005670204757,-0.9921855757325887,-1.7712601695738732,-3.084780078290403,-9.46203342949748,15.086598678352328,-17.030982780325708,-23.913549255988702
1698420079223.0,0.01666666753590107,-1.2352312387689948,1.3468512465626001,-1.7366519436597823,-1.9955669376097618,-3.530999120441079,-10.210071810692549,-19.94506591423872,19.280544857057134,-11.62041342458061
1698420079239.0,0.01666666753590107,-1.1263089456267654,0.8470078739911318,-1.773316663712263,-1.805976166711375,-3.962255278998613,-10.292672937011718,-42.78805131971962,37.29156586817858,-12.267269051247606
1698420079256.0,0.01666666753590107,-0.7130161676526069,0.08735942676216363,-2.266849537962675,-1.2936169383727014,-4.611233566504716,-10.855011051940917,-56.714486018484635,32.042186415524846,-18.617791111323285
1698420079273.0,0.01666666753590107,-0.5542128953363746,0.07261077044159174,-2.7811580737382173,-1.025765627642721,-4.4526174142584205,-11.468524642834067,-58.75030244778239,16.345004683866524,-28.133486012032698
1698420079290.0,0.01666666753590107,-0.6163728527817874,0.04909603934139013,-3.0685435214996337,-1.0221743616851047,-4.351462394116819,-11.823016710662841,-53.10122373999409,13.399220934468186,-27.72221300134955
1698420079306.0,0.01666666753590107,-0.8346073882319033,0.07673106524199247,-3.8869548310816286,-1.1804909829955548,-4.211102321790158,-12.699742846569418,-46.93101184381758,13.954549464936074,-21.477844033806917
1698420079323.0,0.01666666753590107,-1.5862492007464168,0.6127165952965616,-4.247697775998711,-1.8640355752364732,-3.5510511438667773,-13.122170386505125,-32.393599648322,16.33365120191867,-10.306242339587843
1698420079339.0,0.01666666753590107,-1.9592700279563664,0.9039759618818759,-3.955860025003552,-2.1885995012587864,-3.2067350176155567,-12.856413417705893,-12.688351067352539,18.049560353513247,-3.9893149918316944
1698420079356.0,0.01666666753590107,-2.1783521932117638,1.2085747025117277,-2.5932828015208242,-2.3699602952819316,-2.8989304666817186,-11.496207599529622,10.288515437370721,10.355008182714442,-1.8374856650471565
1698420079372.0,0.01666666753590107,-1.6044756161801517,1.1322498799830674,-0.5580366183429956,-1.796848181550484,-3.0473703850895166,-9.427318089947104,33.825962034259966,-14.95794694269326,-3.9754603799871466
1698420079389.0,0.01666666753590107,-1.2030808543357998,1.173439676244557,0.11582418148517608,-1.4501378901717252,-3.087024934607744,-8.713546720013023,33.489243953462086,-36.3304421387419,-4.391248145711673
1698420079406.0,0.01666666753590107,-0.8581606977768241,1.189839899164438,0.07890344084501266,-1.237203634820506,-3.1425401933416723,-8.710703605541587,11.09866551916709,-48.30223379140017,-4.139808391795993
1698420079423.0,0.01666666753590107,-0.9352341467157006,1.3585516212284565,-0.5666010330706834,-1.4089875674040988,-2.9774899163946507,-9.349805811199545,-7.0750552937391165,-37.161945953204665,-5.904334403015897
1698420079439.0,0.01666666753590107,-0.9962770828299223,1.5515025892749428,-0.7995493727236985,-1.5198690317900851,-2.755278074811399,-9.594313655743003,-17.766795644516595,-12.535686094118999,-11.738602164204865
1698420079456.0,0.01666666753590107,-1.1462964524488894,1.6462752149030566,-0.8112684520900248,-1.6202759004455058,-2.608184602576494,-9.63426689594686,-15.348444225468521,28.735896743996776,-19.414708555376404
1698420079473.0,0.01666666753590107,-1.0578836441762745,1.7907932836920022,0.11379822861552238,-1.4211081767760216,-2.439692660742998,-8.725966641125082,-6.552333659482048,43.81840243148897,-22.516184759357888
1698420079490.0,0.01666666753590107,-0.7661761684972792,1.8169976922675966,0.7247258946686983,-1.008407683872897,-2.4106623810917136,-8.12053289631307,2.648806910842771,35.90750316495637,-24.275936895234775
1698420079507.0,0.01666666753590107,-0.09953899977970868,1.7277318473622203,1.8369056310474872,-0.23627762107304295,-2.522591893225908,-6.999747244152426,9.606570567616432,9.380329942869867,-22.416551082387617
1698420079523.0,0.01666666753590107,0.07117513901474885,1.6044900830969213,2.104469357007742,-0.04085088316332549,-2.6666929056465625,-6.722468179863691,7.447528134181537,-8.538095901221011,-23.80386495565476
1698420079540.0,0.01666666753590107,0.10625325659606605,1.4047668444365262,1.8748235660314558,-0.00658387190233916,-2.876484826117754,-6.947225029754638,0.5704825858020294,-15.441145260431226,-28.123515643391773
1698420079557.0,0.01666666753590107,-0.03997816458255984,1.3365765207856892,1.0834370414972305,-0.14559721492831595,-2.9336458062320947,-7.744044685253501,-7.222622811417711,-6.101936044572597,-32.42621380160882
1698420079573.0,0.01666666753590107,-0.5305181314941495,1.5719851130723952,0.4136357461929321,-0.596754585697432,-2.6801599977239965,-8.422950493511557,-8.16366322337362,8.490902709150808,-34.158482963812865
1698420079590.0,0.01666666753590107,-0.6599738749034703,1.6451280906945467,0.3961977046579122,-0.6549636152724473,-2.5899288149178026,-8.448837798961996,-6.610532420739257,18.42316828601836,-35.16748973442592
1698420079607.0,0.01666666753590107,-0.5609386964600533,1.7742364089056848,0.21804712311923502,-0.4447227300451603,-2.4405901941046118,-8.635885388183594,-5.930158067607246,20.378074294408144,-31.20612003469651
1698420079624.0,0.01666666753590107,-0.4394566353436559,1.839073038214445,0.14040508051216602,-0.24420831360761075,-2.3611329187691212,-8.719083311352133,-5.4607520362376505,21.100609270852527,-25.037707893366296
1698420079640.0,0.01666666753590107,-0.4067304237838834,1.8123469438523052,0.0031359599381685253,-0.1384145460157655,-2.371906826239824,-8.861987222942709,-7.374699534608983,20.105083586113782,-20.009148456579073
1698420079656.0,0.01666666753590107,-0.2838857325447723,1.7767945689558982,-0.5744529156148434,0.054617981100641186,-2.379089431220293,-9.450511918529868,-8.418271331290539,11.16028919340624,-9.817588408250328
1698420079673.0,0.01666666753590107,-0.25865184950176623,1.6025415793776512,-0.8309697623819112,0.11118099532183259,-2.5411466638311744,-9.711479899486898,-0.0002725939169922667,13.131174429359268,1.6707710994126062
1698420079690.0,0.01666666753590107,-0.2543367993142456,1.4828814729914068,-0.5855033019393682,0.14080924086626617,-2.6788135515511033,-9.456497422680258,15.194124638908546,14.423267781633614,11.855314729194749
1698420079707.0,0.01666666753590107,0.05621493143588304,1.1253273872435092,-0.12075287005901336,0.47689529891069976,-3.104981447058916,-8.958054564556479,24.412890725829993,16.589991616563832,13.685113870104702
1698420079723.0,0.01666666753590107,0.6617023791965096,0.9236988994836807,-0.24279285731911657,1.109263775866851,-3.352481751416623,-9.056665745434165,12.536166768681838,18.445535448002857,12.161233779477744
1698420079740.0,0.01666666753590107,0.779745040448755,0.7860784812539815,-0.6139665953576564,1.2545619256502016,-3.497480881720781,-9.42282896183431,-7.513209794561319,17.531427325717956,12.003671560609304
1698420079756.0,0.01666666753590107,0.9945119728535413,0.9252093040466308,-1.209458207347989,1.514781718588434,-3.302652721625566,-10.04262791660726,-27.73550113437981,21.44805928638378,11.70177036910557
1698420079773.0,0.01666666753590107,1.2811452870734035,1.2562053454756736,-1.7630466141104697,1.836652240808308,-2.9041677828133103,-10.626064933666587,-29.423017189594642,20.556062193989504,13.385943046721682
1698420079789.0,0.01666666753590107,1.412342832648754,1.3512109030768273,-1.8565455665409565,1.996016179214604,-2.75737329352498,-10.741884438976644,-15.066786007117413,17.458634584638546,16.31607200254235
1698420079806.0,0.01666666753590107,1.443734580734372,1.4873203322216868,-1.4646557882100344,2.0500353907044975,-2.616713653729856,-10.350582105144857,8.264162626821186,12.378562714904733,17.4759781424885
1698420079822.0,0.01666666753590107,1.1154502094168215,1.629989266012609,-0.9751794958740472,1.7275663546022026,-2.502839729529619,-9.847350843700767,12.515780361556642,9.068092113830966,16.884394967906186
1698420079839.0,0.01666666753590107,1.0594831152621655,1.5739181269615887,-0.8178378936082125,1.6741457300599663,-2.583344760352373,-9.678409989055991,5.423616724607114,9.636308357489021,15.153261324651652
1698420079856.0,0.01666666753590107,0.9173085408594459,1.4565201202884315,-0.639327831107378,1.5610197016175835,-2.695722600775957,-9.50019160297811,-10.433972853482606,22.543283534889913,9.758888908749594
1698420079873.0,0.01666666753590107,0.5874570663556457,1.363265205746889,-0.49198973646163935,1.2865843363221734,-2.753781991034746,-9.365068846783041,-20.469127546233583,33.429838383155904,8.815634661728955
1698420079889.0,0.01666666753590107,0.3367625690665096,1.3610016447290778,-0.4911807581663131,1.1097126156128942,-2.7020067956119775,-9.383025359234214,-26.950362351550382,38.45731865005426,12.96569004482726
1698420079906.0,0.01666666753590107,0.22003201332613825,1.5819310452863573,-0.4577203871130943,1.0883144382752477,-2.4048270990669725,-9.375244203838706,-21.03406786041097,34.193535494633366,11.780131421905834
1698420079922.0,0.01666666753590107,0.23938699439838526,1.2792805161148308,-0.30232874987125397,1.1689691797669977,-2.677316883252561,-9.227103560638428,-6.038996278257753,28.278726569638433,8.659144782560208
1698420079939.0,0.01666666753590107,0.1621543363098055,1.274535951936245,0.028572599011659622,1.140687672656402,-2.685995864270627,-8.889221266826986,6.297670483164945,20.669919739906327,9.739614114911818
1698420079956.0,0.01666666753590107,-0.0825816179011017,1.246309097622335,0.09729892923533916,0.9138370653565973,-2.7425588784918187,-8.805873121532798,8.499622299399975,-0.22150218100986727,7.396982173002504
1698420079972.0,0.01666666753590107,-0.0864133780837059,1.061555756817758,0.21607260817587373,0.8921396128114313,-2.945467469190061,-8.680926306915282,5.9040261907296,-9.623918394334618,2.8344621246542956
1698420079989.0,0.01666666753590107,-0.2285020277686417,1.0859230130940676,0.02079144361615181,0.7167643412049859,-2.9297558130562305,-8.875903520092368,1.8154480596901104,-17.01509063767438,1.672748332455619
1698420080006.0,0.01666666753590107,-0.14795483830459416,1.2429840448528529,-0.44458910286128517,0.7377136057313531,-2.781315310126543,-9.343521031841636,4.823535514036834,-17.363392719304596,1.3692263584061826
1698420080022.0,0.01666666753590107,0.053091173392161725,1.348647190068662,-0.6193804370999336,0.908599603094533,-2.6924302812322973,-9.513658402794599,9.567126225159608,-6.620122433220778,0.46596703112249427
1698420080039.0,0.01666666753590107,0.18499591738879678,1.460245862813294,-0.5431786564290523,1.0392333042420445,-2.6039944574102756,-9.427018814739585,9.05627674034049,4.537278870827015,0.9366477465459436
1698420080056.0,0.01666666753590107,0.45399055293500423,1.6498036812901495,-0.19634791700839996,1.3244425770081578,-2.4296669412910936,-9.07162950581014,0.7060125353987114,5.017084292094778,3.1012362935868882
1698420080072.0,0.01666666753590107,0.34675708966255187,1.5364751160129904,-0.2773082903832197,1.2176014009889216,-2.5412965936958787,-9.153331637462973,-1.3121607682209606,-2.073720777540153,1.8151795478783643
1698420080089.0,0.01666666753590107,0.5354726120963692,1.5128870274156332,-0.3178127347290516,1.390732035473734,-2.555362528449297,-9.199719294628501,1.2906057584174582,-8.808828378221037,0.4096474523411112
1698420080106.0,0.01666666753590107,0.6226267255447805,1.4654814253792166,-0.3741308342784643,1.4475943979676813,-2.5891806268990036,-9.265110927471518,4.7349129557822724,-8.634568908152856,-1.145243751510543
1698420080122.0,0.01666666753590107,0.5120324806023389,1.2031591072037815,-0.49184711312055585,1.3334209062989801,-2.8224653588995334,-9.396343690490722,2.413639442294412,-2.036774790215673,-3.05839073036681
1698420080139.0,0.01666666753590107,0.4801772797234356,0.9683920276910066,-0.5646516525685786,1.3201030864991248,-3.037644817627966,-9.476249586376547,-1.1583839682565895,8.209718335173369,-4.389523949833068
1698420080156.0,0.01666666753590107,0.20515154731944202,0.7688280712455511,-0.6280652633368968,1.1041760242737828,-3.180249161750078,-9.559298456463218,-1.5115785997666495,14.944327545488253,-2.181414291174448
1698420080172.0,0.01666666753590107,0.30319106578901406,0.7417796130612492,-0.37251170864403244,1.2487260225709527,-3.1760590165838596,-9.312695685467123,6.487387098211689,10.522646638155942,-0.024306482141533307
1698420080189.0,0.01666666753590107,0.43992257235497234,0.7164411736652254,-0.1832838527739048,1.412728909356892,-3.2136186396494506,-9.115174048504233,14.209170379457687,9.192265806715444,4.184401416226537
1698420080206.0,0.01666666753590107,0.4003993941314518,0.6804995071902871,-0.07837211044728755,1.3899839205201714,-3.274819835065305,-8.997259616741538,12.444497092283804,2.2582165667400678,10.270230167188952
1698420080222.0,0.01666666753590107,0.1349948189664632,0.3154901370003819,0.014244213929772376,1.1165960184510797,-3.6475671060308814,-8.902090100750327,5.082681001996757,-4.415977272488527,8.47610168921939
1698420080239.0,0.01666666753590107,-0.034198622199892996,0.12767156340628863,-0.011855272966623306,0.9267058262147009,-3.83655969184041,-8.929922695049642,0.1989625033879723,-8.581055229779452,2.6707798428461134
1698420080256.0,0.01666666753590107,-0.20154351289011538,-0.047676820193231106,-0.19148703297376632,0.7278375238832085,-4.006098804639279,-9.115473323711752,3.2910342305734375,-13.289835454910433,-0.805604164016902
1698420080273.0,0.01666666753590107,-0.5814553417228162,0.07047872684895992,-0.4102198002696037,0.32635983299575744,-3.896564370948076,-9.332597486767172,11.01379871118239,-13.106319370969592,-0.8336640752311953
1698420080289.0,0.01666666753590107,-0.6675523473337293,0.14244739999473094,-0.4920253922969103,0.21323380455337462,-3.8530198282539843,-9.40442353657186,16.038575076943072,-13.085648657220194,-0.36080396917355667
1698420080306.0,0.01666666753590107,-0.6320685806941241,0.113444592872262,-0.32435879537165163,0.2180220617432147,-3.9302325395330784,-9.217975082287191,17.214240170851735,-9.54427838861227,-0.709120911801302
1698420080322.0,0.01666666753590107,-0.5467725892677903,0.23738223044723272,-0.05596855545938015,0.2865562303956598,-3.845238672858476,-8.933364359936117,15.767737585784555,-4.324307169203671,1.7321174039384277
1698420080340.0,0.01666666753590107,-0.5090649360336363,0.34960867970138787,0.02798573903441429,0.3160348383363336,-3.7641347993597387,-8.83580064228475,10.130816614718883,-0.625929047627988,4.098070386438515
1698420080356.0,0.01666666753590107,-0.30132980196177955,0.40451311306059357,0.14454174192547797,0.5099650997437536,-3.7258275727972388,-8.712797947472334,1.8638655631690384,-2.4713553945546662,5.158325347054649
1698420080372.0,0.01666666753590107,-0.1240273616850376,0.5001005622029304,0.13055997832417487,0.6537669100221246,-3.6275159593880173,-8.731054319652914,2.636387492497572,-8.333355004434354,4.156494117051511
1698420080389.0,0.01666666753590107,-0.01510207286812365,0.4789253799661994,0.1438350549608469,0.721852019732818,-3.6581919604197144,-8.716838747295737,7.810443405540995,-13.231065092197058,1.8309235608020669
1698420080406.0,0.01666666753590107,-0.16016849625483154,0.5922124441891908,-0.04481529328227043,0.5199908191956579,-3.5634710649788377,-8.901341912731528,7.907262190799572,-9.81362519098443,3.2305755304746
1698420080422.0,0.01666666753590107,-0.3430814698897302,0.5022226689234376,-0.03857552210986614,0.30226810572519897,-3.6664214441046115,-8.891615468487142,9.473545803341263,-7.684612538009143,4.0647279642314516
1698420080440.0,0.01666666753590107,-0.3639780543807894,0.3149459471210837,0.0635480508029461,0.2512417559083551,-3.87172423646301,-8.783128205761313,6.587606890790108,-6.9620639011864185,2.7932899577808703
1698420080456.0,0.01666666753590107,-0.31324780143368985,0.2742661462083459,0.07773673515319823,0.2858080058442429,-3.9179625482857223,-8.767416257366538,1.5677379092263752,-6.14091593416586,1.1738938337578075
1698420080473.0,0.01666666753590107,-0.2169668170692399,0.21335896530300377,-0.05731646293699741,0.37110147651992736,-3.973328461676836,-8.90583104084432,-0.07625794150528166,-6.272493552110632,-0.02584274109625727
1698420080489.0,0.01666666753590107,-0.11514533237554132,0.18300766618102787,-0.09649462711513042,0.45744233735669404,-4.003554673114419,-8.946083556255697,3.7916902983865453,-7.102066130585578,-0.3088343671198255
1698420080506.0,0.01666666753590107,-0.09161072753109037,0.24583529375493526,-0.06921382147967815,0.45370139726269987,-3.9505835459053515,-8.915856760296226,6.768206483955355,-7.843325643752729,0.3771750254795781
1698420080522.0,0.01666666753590107,-0.13810250265821813,0.21987053915411234,0.014473931032419203,0.38007969621289517,-3.9861972956001757,-8.82921717224121,6.274767578217423,-7.498523180298498,0.5796133747835729
1698420080540.0,0.01666666753590107,-0.24158907101992516,0.20397242053747175,0.08481763332486152,0.2503438572205603,-4.017770537732542,-8.75290140980184,7.46942315933966,-4.789808893688957,-0.22634510529652366
1698420080556.0,0.01666666753590107,-0.22468126390408724,0.2419087679609656,0.11602291892766951,0.25752653526626523,-3.9954745347723364,-8.7147438208431,8.195666074729713,-2.407844667113891,-0.24733352956403237
1698420080573.0,0.01666666753590107,-0.22158885084670035,0.262624515992403,0.09475392092764377,0.25722722352612765,-3.9851498323738572,-8.731203957256675,5.799762499275709,-1.2354334112927994,-0.4743558374445922
1698420080589.0,0.01666666753590107,-0.21944292485918848,0.2820601610854268,0.07663666495680808,0.2543841455873102,-3.9703357096016405,-8.74736481846273,2.2853262278860833,-3.0134506469490647,-0.35478590550411426
1698420080606.0,0.01666666753590107,-0.10531586614809929,0.37399814780950547,0.12474573908746242,0.3643677112855017,-3.8802535798773166,-8.698582959637045,2.2557570583086286,-0.4645652415170549,0.7326507000485843
1698420080622.0,0.01666666753590107,-0.18154066236838698,0.2551490655452013,-0.07421031459271907,0.27503413490615786,-4.005051633673906,-8.895356408581137,5.773838516280926,-3.294170354619531,2.320968502852737
1698420080639.0,0.01666666753590107,-0.31858123488351703,0.1924354197397828,0.04031447473168373,0.12030881608594209,-4.084658546613157,-8.773551399120688,5.415167780603808,-3.381965392767463,-0.3594705881815232
1698420080656.0,0.01666666753590107,-0.4024551941500976,0.13882248749583959,-0.09712649527788161,0.02977802927866578,-4.145262068396806,-8.907925382775067,2.5683468555331976,0.16515194641849848,0.262174089887442
1698420080672.0,0.01666666753590107,-0.40842451435066757,0.26223054823875425,-0.14016893366873265,0.024690387283451853,-4.027497274237871,-8.948178482708334,5.33368277003191,4.242283854347811,4.065993256775196
1698420080689.0,0.01666666753590107,-0.1710966809717938,0.19345044200122355,0.007865911069512366,0.2696471446381882,-4.108600855475664,-8.793752475628256,10.735658894027484,3.354615394340028,5.779224120441481
1698420080706.0,0.01666666753590107,-0.12167323630694299,0.2068877234622836,-0.06140285546779632,0.31319168733228,-4.1192251253426075,-8.851512590679526,11.861010253188894,0.05602734807052702,5.0314396421828524
1698420080723.0,0.01666666753590107,-0.11807312945574522,0.13288432961851357,0.055151393857598305,0.2950855007447302,-4.222325142072141,-8.72162715061605,10.183812052489012,-2.545929961233804,1.353611798911593
1698420080739.0,0.01666666753590107,-0.07172054360359907,0.09905366394817829,0.07553308762907981,0.3190275538789108,-4.274399320441484,-8.693196005901694,10.542118653706003,-0.4920513101193614,0.25963293935107995
1698420080756.0,0.01666666753590107,0.008294657875597477,0.1335702660560608,0.09423311192393302,0.39115287889111783,-4.260034110480547,-8.664764861187338,10.0948821357218,0.8497847624154535,1.8211937428859721
1698420080773.0,0.01666666753590107,0.029807474568858742,0.14919687425494194,0.25341362005472184,0.405069176040776,-4.257041358405352,-8.499564946636557,2.267152802051972,-0.5357262077150675,3.7132361842588404
1698420080789.0,0.01666666753590107,0.059979727329500014,0.056034898693859574,0.291961085113883,0.4275147800721228,-4.343831168586015,-8.464549747356772,-2.555509301544747,-0.3937671024382729,4.735263856750882
1698420080806.0,0.01666666753590107,-0.0077951108556240795,0.08607230956107377,0.2303255899339914,0.36017785838022826,-4.306870388196408,-8.52964210499227,-2.3112606696080333,6.795796606220798,5.334120329025613
1698420080822.0,0.01666666753590107,-0.10706881076265126,0.15010083735734223,0.05016016144156456,0.27862540086377413,-4.239533466504514,-8.710703605541587,0.6874568324144908,8.907492168329163,3.5225347413111456
1698420080838.0,0.01666666753590107,-0.035519714735820884,0.05734481224864721,0.07345160517990589,0.3643677478181198,-4.335600808118284,-8.685115575298667,2.995424923955755,5.847494422516697,2.498166448367905
1698420080856.0,0.01666666753590107,0.058879072611220176,0.03914280060380697,0.14624094705879687,0.4644752682007849,-4.362685214398801,-8.607603296551108,4.12510897092848,1.3712385961686917,3.5633809800951144
1698420080873.0,0.01666666753590107,0.09332125777602195,0.06711947954893112,0.1022293713748455,0.48692094529736785,-4.346823628400266,-8.646060160717367,2.19622000686092,-2.9664787956966525,7.189948040202016
1698420080889.0,0.01666666753590107,-0.014945201805979013,0.05643295810073614,0.11266776328086853,0.3627217341767624,-4.361937318640947,-8.634089152416587,1.3573031959928674,-2.378901313619139,7.325056865947685
1698420080906.0,0.01666666753590107,-0.07811616292484104,0.06202507901936769,0.18007482759952545,0.28670579493418336,-4.356101159833371,-8.56735078113973,-1.943351249304827,-0.4696784918844557,6.045853788184446
1698420080923.0,0.01666666753590107,-0.17430800770111382,0.0070960957407951355,0.08514847271442413,0.19168591654673217,-4.395306504279374,-8.67015181492269,-7.23809318988779,7.110100567483628,4.2719371206294205
1698420080939.0,0.01666666753590107,-0.16183175329193472,-0.05704933643341064,-0.02935001312494278,0.22400767549145967,-4.44348981269002,-8.79180718677938,-6.146234943982007,9.683205290103974,1.8746593964917742
1698420080956.0,0.01666666753590107,-0.16940638979729264,-0.01921674164533615,-0.02797054146528244,0.23747505982983855,-4.395605779486894,-8.794500663647055,-2.5557054560399735,7.383853695644094,0.36929314725994206
1698420080972.0,0.01666666753590107,0.037552681868150826,0.007563128730654716,-0.1066518639922142,0.4550481356965378,-4.3692692689642305,-8.872461855205893,2.437784374453819,0.5116088097557524,2.158927387436062
1698420080989.0,0.01666666753590107,0.09389123968370258,0.11752455566227435,-0.018953706794977185,0.49859264185801144,-4.271256638501584,-8.779387850189208,5.3667933926940155,-3.3672576476068987,4.212247243699033
1698420081006.0,0.01666666753590107,0.06490677193552255,0.14173574459403754,0.03199146754443645,0.4513071590699255,-4.260482731030881,-8.722524976238608,4.942096498970854,-4.219014680506047,4.7699219441468195
1698420081023.0,0.01666666753590107,-0.0629641499677673,0.02431231121867895,0.0304296250551939,0.30226806919258087,-4.392313459943234,-8.717736572918295,2.7522761659188246,-1.6776214589850116,2.6837591232598417
1698420081038.0,0.01666666753590107,-0.22992877263613043,0.06265080970227718,0.07159574818015098,0.13078341181650757,-4.3552036264717575,-8.67613731907308,-1.0328648348273248,1.073583861338002,-0.007906477572818666
1698420081056.0,0.01666666753590107,-0.24554551702812313,0.06174070912003517,0.10958850196599959,0.12360080683603882,-4.3492178300604225,-8.641272341918945,-3.4627795506968195,2.8336627790779927,-2.518748369658092
1698420081072.0,0.01666666753590107,-0.05742587812822312,0.07474953603595495,0.18121289171874522,0.32965178721323607,-4.3219834939152,-8.576029762157797,-2.7737483596786405,2.6568725104789097,-3.4912038098146505
1698420081089.0,0.01666666753590107,-0.005598879452981055,0.1624330801859498,0.18145663734674453,0.39130247996225953,-4.229657384656369,-8.577675775799154,0.43298890345811575,1.9463328403209492,-1.9898624896750867
1698420081106.0,0.01666666753590107,0.034132132834941147,0.1895075495943427,0.13885726654827593,0.43320104554761196,-4.207361966218054,-8.617778653606772,3.7336699758214027,0.07386476061398554,0.4715499637170392
1698420081123.0,0.01666666753590107,0.06613894407898187,0.14014116887897252,0.10870295130312442,0.45190570948496456,-4.276194971686602,-8.638727918133139,7.595248050455988,-2.018159109632803,3.982625675313313
1698420081139.0,0.01666666753590107,-0.07157390167452395,0.1358104461982846,0.09387947618067265,0.30151991770640013,-4.297892424231767,-8.645311972698568,6.221330739472182,-0.2350018364609859,4.170049481233048
1698420081156.0,0.01666666753590107,-0.1419191748695448,0.03196808666884899,0.05877484505176544,0.23133988154307006,-4.411616710828245,-8.675389131054281,2.288182527619618,4.136650709965332,1.8802898202453917
1698420081172.0,0.01666666753590107,-0.3600399112142622,-0.005393383476138115,0.09939444020986557,0.04548997767344117,-4.453365894538164,-8.631096400341391,3.690299982139114,20.13303784283935,2.5741488877897116
1698420081189.0,0.01666666753590107,-0.5070792786417528,0.4136632187217474,-0.11854746896922588,-0.03800780522450804,-4.053982837842405,-8.83580064228475,15.120030746792247,42.915953442117285,8.23775199284804
1698420081207.0,0.01666666753590107,-0.8119215091712773,0.691238343347609,-0.18555472031533718,-0.2317885386260226,-3.8233912904486056,-8.871863304790853,29.50061496875516,49.84761531753433,14.151441620592738
1698420081267.0,0.01666666753590107,-0.7692467350490391,-0.4018126219302416,-0.511151533049345,-0.4379891200743615,-5.050868846350908,-9.139414755791424,7.334204196793625,2.5882442638025025,-2.113417836996267
1698420081271.0,0.01666666753590107,-0.7725589283369481,-0.397164211602509,-0.5137859732061624,-0.4379891566069796,-5.050868846350908,-9.139415340313315,5.243460239964272,3.230990037579855,-3.4330436818149344
1698420081290.0,0.01666666753590107,-0.16193269291575998,0.2156166811019182,-0.03676993399262428,0.19213482935801146,-4.4397488725960255,-8.660724645885825,-3.4164042737797256,10.777208642295964,-5.1174910611017275
1698420081311.0,0.01666666753590107,-0.05196070805750787,0.26741847227066756,-0.04797521861791611,0.34611188709419216,-4.374356947492063,-8.67733441990316,-7.3446808532067775,22.577557424145038,-6.453681822204968
1698420081329.0,0.01666666753590107,-0.323383666729182,0.20459727443754672,-0.16168518442809582,0.17971494477856903,-4.411018160413206,-8.799588342174888,-9.245113541644772,38.18120142266733,-10.194047090960275
1698420081340.0,0.01666666753590107,-0.3463775888256728,-0.008162555928528308,-0.16929799751937388,0.2647090671814978,-4.602255018018186,-8.811708988079427,-6.597499992916049,37.886707571318475,-17.422945138677935
1698420081355.0,0.01666666753590107,0.14945771714821457,-0.27052725194096566,0.25675650074183937,0.8191163891114294,-4.8470621377691625,-8.390628771099447,-9.809902737886773,-11.095606448192571,-18.797638529906184
