msFromStart,interval,accx,accy,accz,accGx,accGy,accGz,rotRate_alpha,rotRate_beta,rotRate_gamma
1698411730006.0,0.01666666753590107,-1.0484861396253109e-05,-0.05052081144750118,0.03928096696548164,-0.37708661534413696,-9.828795196312665,0.6823489344492554,-0.3137327866934882,0.18814301683520931,-0.17068071774735935
1698411730023.0,0.01666666753590107,0.0011252777028828858,-0.04148293398916721,0.03077149729542434,-0.37544063823539764,-9.819817524608968,0.6732206022284924,-0.24489136340978257,-0.03321597699603231,-0.31674015100155656
1698411730040.0,0.01666666753590107,0.00961987859737128,-0.04755436285734176,0.020199834398552774,-0.36616307026967404,-9.825953250885009,0.6621475656807422,-0.21655768433973338,-0.17920426022300634,-0.19174912993335125
1698411730056.0,0.01666666753590107,-0.012061499595828354,-0.03928045550882816,0.01433598386645317,-0.387411683068797,-9.817723767200112,0.6558628593880683,-0.28308599469190543,-0.22466018300564614,-0.20847274139442168
1698411730073.0,0.01666666753590107,-0.009330722925066948,-0.04612403779327869,0.014093918738886713,-0.3842692568572238,-9.82460651245117,0.6552648204296827,-0.12542136300655576,-0.17446589652758934,-0.16775571591572783
1698411730089.0,0.01666666753590107,-0.018702143186703324,-0.052044660013914106,0.02441540626697242,-0.3929482378752902,-9.830592016601562,0.6649903878912329,-0.15201214321906165,-0.018836589511257395,-0.1891292988194018
1698411730106.0,0.01666666753590107,-0.005569507228024304,-0.04661036000549793,0.017428031597658992,-0.37918154179677366,-9.82520447834432,0.6576578530460596,-0.024411656382580926,-0.18653223944942343,-0.22892195424346962
1698411730123.0,0.01666666753590107,-0.005363061403110623,-0.053307811817526814,0.015640563658997415,-0.3782837161742151,-9.83193817051351,0.6557131487190723,-0.08749314912270306,-0.24821451724525823,-0.26285444076179876
1698411730140.0,0.01666666753590107,0.0017984642567113042,-0.0471346761405468,0.04112688709311187,-0.3702032855711877,-9.82580302875936,0.6811513221625238,0.03369380342334892,0.04048802070840671,-0.37835128544027474
1698411730156.0,0.01666666753590107,0.012380904275923966,-0.04472995308637619,0.03659581953473389,-0.35927981356196104,-9.823410580664872,0.6766627055063843,-0.02229069588230685,-0.1656734820544392,-0.0025730870068171865
1698411730173.0,0.01666666753590107,-0.00038348289225250483,-0.04263268854618072,0.019457491598650813,-0.3718492992125451,-9.821313316124677,0.6596035802863538,0.04921989062384571,-0.3064756039786439,-0.15180479628494153
1698411730190.0,0.01666666753590107,0.003971387849003076,-0.040997780820727345,0.02647285025343299,-0.3664623454771936,-9.81966671796143,0.6673843703556805,0.176023286380058,-0.054140661724763055,-0.40496810574899134
1698411730206.0,0.01666666753590107,-0.005717500863969325,-0.03783960905075073,0.01693703321032226,-0.37529100063163784,-9.816525497326253,0.658107861835882,0.1132105989363729,0.1509018906333908,-0.2902373895158939
1698411730223.0,0.01666666753590107,0.00477295002285391,-0.04488017521202564,0.023733999874070287,-0.36406821688227353,-9.823560218268632,0.6654398852244019,0.26191697061778807,0.013536771259357445,-0.20675959121236498
1698411730240.0,0.01666666753590107,0.001672134463302791,-0.07006663891673087,0.026950039311125874,-0.3664624185424298,-9.848699920222163,0.6697787181463092,0.3119210790161423,0.07455107456365283,-0.14746557176914712
1698411730255.0,0.01666666753590107,-0.005498707014136016,-0.05095861834287643,0.017711086322739718,-0.37334582138061523,-9.829545722419024,0.6614001083143055,0.33993622047486033,0.1553768784991524,-0.19315041261068813
1698411730273.0,0.01666666753590107,-0.034862675599195064,-0.03931435777842998,0.028386721050739288,-0.40222580584101375,-9.817873404803871,0.6727723470043391,0.28321840964835376,0.33884048204117573,-0.20410662300877036
1698411730290.0,0.01666666753590107,-0.01752469690516591,-0.037409400939941405,0.03662256141118705,-0.38411965578608215,-9.815926946911215,0.6820493669807911,0.4188874443080955,0.26094268148528277,-0.2138325722630305
1698411730306.0,0.01666666753590107,0.004879552202485501,-0.055392801398038864,0.03495082880668342,-0.361075391741842,-9.833884043884277,0.6811520528148859,0.27107942926552214,0.17423693844804847,-0.28363259658849155
1698411730323.0,0.01666666753590107,0.01492277077846229,-0.054070612883567806,0.038293124971911306,-0.35045112187489863,-9.83253672092855,0.6851919027902186,0.3009942971284293,0.08124502680612895,-0.20688226781316074
1698411730340.0,0.01666666753590107,0.00478982809241861,-0.05996960779428482,0.030507293401286006,-0.3598782909117639,-9.83837258747518,0.6787565359804779,0.42316236899615656,0.1543351145681668,-0.15390009021497517
1698411730356.0,0.01666666753590107,-0.022595533896051345,-0.045211599123477934,0.03539038926772773,-0.3868130961211398,-9.823559049224853,0.6847427707832306,0.43924511661400945,0.17708598110559004,-0.22154228169081464
1698411730373.0,0.01666666753590107,-0.015189239694923161,-0.03942307884991169,0.03985036435127258,-0.3790320137908682,-9.817723767200112,0.6901292130619288,0.32759905788439253,0.12098085959197478,-0.22730074481094364
1698411730390.0,0.01666666753590107,0.0020023162657395004,-0.03842003928720951,0.032545009773969645,-0.36092586373593655,-9.816675719451904,0.6839950942210853,0.33938289511080993,0.06701900341514193,-0.28487982648353294
1698411730405.0,0.01666666753590107,0.001261727031506598,-0.06032148997187614,0.02205291491933167,-0.3612251389434561,-9.83852397864461,0.6745672675970942,0.28514300220999,0.05695187820771171,-0.12541825473687487
1698411730422.0,0.01666666753590107,0.006167692316882312,-0.06574059241116047,0.017711086322739718,-0.3558381852081045,-9.84391151690185,0.670976403498277,0.29730812941073803,0.16665957727564656,-0.1479956051209107
1698411730440.0,0.01666666753590107,-0.02777388638202101,-0.06470072796940803,0.03785714470744133,-0.3890577332427725,-9.842862884631753,0.6916259544257074,0.10246065491513975,0.08085384506369366,-0.21569806768009026
1698411730456.0,0.01666666753590107,-0.006748487879522144,-0.07383622058331966,0.042238647727295756,-0.36750984523613006,-9.851990193939208,0.6964141385503113,0.23634127390982243,0.015195273257947445,-0.23637374398880642
1698411730472.0,0.01666666753590107,0.0065021484356373544,-0.07833294748067855,0.049774376994371414,-0.3537432222228497,-9.856479906573892,0.7043455891367048,0.17017720473948247,-0.06464347162593943,-0.10001795515236106
1698411730490.0,0.01666666753590107,0.0007757701454684137,-0.04649170206189155,0.04716390223503113,-0.35913013942558314,-9.82460651245117,0.7023992043092846,0.07103207305785499,-0.07453273177047164,-0.11577805637321012
1698411730507.0,0.01666666753590107,-0.006879968772083521,-0.04963759887218475,0.04244447249770164,-0.3664624550750479,-9.827748902130127,0.6979099300660192,0.10745640468447518,0.040204511161944984,-0.1314061161635811
1698411730523.0,0.01666666753590107,-0.009291633023694157,-0.04605623325407505,0.04930675948262214,-0.3685573449950665,-9.824157599639893,0.705092900372669,0.07064822176258556,0.10161209729225823,-0.1478322141893593
1698411730540.0,0.01666666753590107,-0.0005099588161334395,-0.04515548502206802,0.03785480661988258,-0.35927985009457913,-9.823259774017334,0.693870883808285,0.059201038157055755,0.11395503619505142,-0.2362042699200255
1698411730557.0,0.01666666753590107,-0.0011015680337324739,-0.0717909784913063,0.04106142064146697,-0.3594293781004846,-9.849894682964681,0.6973121103033423,0.04948119872045159,0.015947838041531864,-0.16520514718883053
1698411730573.0,0.01666666753590107,0.0019513897961005568,-0.0677343965768814,0.029357027387619018,-0.35613746041562405,-9.845855052185058,0.6854910318672657,-0.052870093126688625,0.17942347994689467,0.026069177875499058
1698411730590.0,0.01666666753590107,-0.01569156319387257,-0.07075695926845073,0.03833871767930686,-0.37379462459404017,-9.848846635216473,0.6949184200998395,0.12622144229458607,0.2226259338913195,-0.07817727802290814
1698411730607.0,0.01666666753590107,-0.0005551496647298336,-0.047882864159345624,0.0277238732278347,-0.35868126314692195,-9.825953250885009,0.684592840918526,0.08600013913924703,0.31774440225295997,0.15326644342711102
1698411730623.0,0.01666666753590107,0.004652282785251737,-0.04774667055904865,0.040164837127923965,-0.3535935480864718,-9.82580361328125,0.6971626188300549,0.13459938968312074,0.23763575484009852,-0.06722304197638283
1698411730640.0,0.01666666753590107,-0.0012372136447578667,-0.056739539831876754,0.023974822892621157,-0.35927981356196104,-9.834783038550615,0.6813013981577009,0.05921363131833796,0.3109602368185655,-0.04467127812130812
1698411730657.0,0.01666666753590107,0.008003748637624085,-0.06407236693799495,0.026788492073863742,-0.35000217253100124,-9.842112943047285,0.684144731824845,-0.12843894591795268,0.23603959832800472,-0.07708095261984176
1698411730673.0,0.01666666753590107,0.002742722836881876,-0.05373217470943927,0.02729600320458412,-0.3552395617278293,-9.83178911743164,0.6844426918581128,0.054937746134924866,0.3778734390026383,-0.012971383007500465
1698411730690.0,0.01666666753590107,-0.0032393107147887347,-0.058062312868237494,0.03164360395483672,-0.36152437761835754,-9.836128023418784,0.6884834916815161,-0.2348278000392828,0.2696766791647308,0.10951335884170683
1698411730707.0,0.01666666753590107,0.0037372502995654936,-0.06748071407675743,0.02846497391872108,-0.35479061238393184,-9.845555192455649,0.6850429958388209,-0.10281296994635077,0.336258136926382,0.13022724152109277
1698411730723.0,0.01666666753590107,-0.005525923814624548,-0.06463876864910126,0.03849186241440475,-0.3643674920897931,-9.842712077984213,0.694917908643186,-0.04060123242792099,0.3466098489024917,0.16045181577417766
1698411730740.0,0.01666666753590107,-0.002530760586634278,-0.04131108455359935,0.03536467030458152,-0.36182361629325893,-9.81936861179769,0.6917764688123017,-0.09362631215183072,0.3103743880146782,0.14948226516287275
1698411730757.0,0.01666666753590107,-0.0038659547131508587,-0.04566694167554378,0.03109897568412125,-0.3634697029998526,-9.823709855872393,0.6875861044503748,0.011827166238964657,0.3722335436976325,0.059226517964311075
1698411730773.0,0.01666666753590107,-0.012184979845024644,-0.04192892419099808,0.037899230283498765,-0.371998973348923,-9.819968331256508,0.694319723554328,-0.034138886297310454,0.11555199311993856,-0.00026973911136261294
1698411730790.0,0.01666666753590107,-0.010589125488325952,-0.06301262875199318,0.046502150390669704,-0.3706522349150851,-9.841066064342856,0.7025494995001703,-0.1449809170357831,0.2377868994559115,0.061624421291088013
1698411730807.0,0.01666666753590107,-0.004355345665290952,-0.05987491524815559,0.02666223534569144,-0.36466669423207637,-9.837923090142011,0.6826477712653577,0.08671159939083907,0.20191229133577154,0.06555514179757746
1698411730823.0,0.01666666753590107,0.0018743790371343492,-0.06017652854323387,0.026683424264192578,-0.3585315890105441,-9.83822353439331,0.6826473328739404,-0.0303640862029677,0.2733578576426768,0.09820093807015255
1698411730840.0,0.01666666753590107,-0.0043795302584767335,-0.041918987318873405,0.038778278140351174,-0.3649659694395959,-9.81996657769084,0.6946192910227924,-0.08532473748399591,0.378760109614697,-0.0275974860631423
1698411730857.0,0.01666666753590107,0.008031038503348827,-0.05178630133867263,0.020959712855145335,-0.3528453235350549,-9.829843244060873,0.6765135062940418,-0.08720157208229493,0.373404280810055,0.1031855887820867
1698411730874.0,0.01666666753590107,0.017618001211807132,-0.044456396842002865,0.03435001336932182,-0.34371746623832733,-9.822511585998535,0.6896817615553736,-0.06554222847117791,0.12860245691142308,0.28107333004257307
1698411730890.0,0.01666666753590107,-0.007816482437215746,-0.05537526574134826,0.05240823262929916,-0.3697544458251446,-9.833435131072997,0.7073379028204828,-0.2952058985698286,0.44496465299195465,0.2329095574191406
1698411730907.0,0.01666666753590107,-0.015137144181504844,-0.05549158559739589,0.026218071774765848,-0.37753552815541624,-9.833584768676758,0.6804028418827801,-0.23856954308525974,0.20582118725342868,0.08858443192517128
1698411730924.0,0.01666666753590107,-0.018663053285330532,-0.05546586663424968,0.021705635851621625,-0.3811269037108868,-9.833584768676758,0.6754654585458338,-0.17230240742756134,0.1376822862784559,-0.1446868320352891
1698411730940.0,0.01666666753590107,-0.024752638864703476,-0.05348842908143997,0.04897825818061828,-0.3869627702575177,-9.83163947982788,0.7023999349616468,-0.07618830559225927,0.21656029902152502,-0.09288166144974067
1698411730957.0,0.01666666753590107,-0.01121105677895248,-0.05407645810246467,0.03317154417447746,-0.3734953493865207,-9.832237445721029,0.6863885652288794,-0.048600424482637294,0.13372032299259892,0.14852762616444445
1698411730974.0,0.01666666753590107,0.0014805208813399077,-0.04555471347272396,0.0271568139296025,-0.3612250293456018,-9.823708102306723,0.6802532042790204,-0.005867559383864079,-0.004290896258341921,0.08006062264525982
1698411730990.0,0.01666666753590107,-0.000600194382853806,-0.055262453016638756,0.03000007453151047,-0.36361934060361234,-9.833436300116777,0.6826478443305939,-0.24693708510748072,0.2944110886660213,-0.024700578720557753
1698411731007.0,0.01666666753590107,0.006225267723016441,-0.061678165277838704,0.03475567156076431,-0.35703524950556453,-9.839870132556557,0.6869882846876978,-0.07719020896613552,0.3366065032544791,0.05658216753845833
1698411731024.0,0.01666666753590107,-0.011338847877085207,-0.04208849866688251,0.02116195742897689,-0.3749916888915002,-9.820267021942138,0.6733707512889057,-0.058010744292048805,0.4001638680806807,0.08768111272701064
1698411731040.0,0.01666666753590107,-0.01649195632394403,-0.033117256703972815,0.02956855124644935,-0.3803786426268518,-9.811288181194662,0.6817497995123267,0.005619804943892444,0.3454975419239845,0.03606206479634506
1698411731057.0,0.01666666753590107,0.006359598159790039,-0.03793020994365215,0.04213343378715217,-0.3576337633879855,-9.816076584514976,0.6946185603704303,0.1321456709042201,0.38124885979352047,0.06303960447060292
1698411731074.0,0.01666666753590107,-0.0025995149739086627,-0.03826397194266319,0.03602291501760482,-0.3667616937499493,-9.816376444244383,0.6889328428842126,0.1353382774130986,0.3815857268578196,0.05530727004119313
1698411731090.0,0.01666666753590107,-0.002751782926172018,-0.035330256578326225,0.039192192703485486,-0.3672106065612286,-9.81338369216919,0.6928229821905494,0.3352611427509717,0.15127281526204744,0.17064395211971764
1698411731107.0,0.01666666753590107,-0.0005458338471129536,-0.060845806106925006,0.027044512661546467,-0.3654149187834933,-9.83882091576457,0.681600527234748,0.40113111358060444,0.11686098820220094,0.16153897645076007
1698411731124.0,0.01666666753590107,-0.011982771803811193,-0.042107203367352485,0.018957213926315306,-0.377236362545751,-9.81996774673462,0.6750161804083734,0.3986246209181949,0.12820195703005174,0.06698865443006033
1698411731140.0,0.01666666753590107,-0.005352540009096265,-0.04115151007771492,0.020925883650779725,-0.37095154665522273,-9.81892086803019,0.6781590084787458,0.3664997066111126,0.18003076647343078,0.20590068158402264
1698411731157.0,0.01666666753590107,-0.009121756349503993,-0.030459435671567916,0.00841119692735374,-0.3751413630278781,-9.808145791515708,0.6666370591197163,0.4048908125535791,0.169395388203354,0.15450907094859057
1698411731174.0,0.01666666753590107,-0.005774820541776716,-0.06454115349352359,0.009171221514418721,-0.3724479592254385,-9.842115281134843,0.6687322047680616,0.33519382803505005,0.31371829922192834,0.15960950137108434
1698411731190.0,0.01666666753590107,-0.008353694586455821,-0.07881926969289779,0.010420856249332427,-0.37544067476801574,-9.85632968444824,0.670676982160285,0.1959655711266441,0.12849666902056722,0.1444262176297708
1698411731207.0,0.01666666753590107,0.00020374241117388007,-0.06780746181309223,0.022659429445117712,-0.36736020763237026,-9.84525533272624,0.6835453046269715,0.21442146263553255,-0.0672678984433441,0.11444195397767927
1698411731224.0,0.01666666753590107,0.009665032913349568,-0.05962006370425224,0.034776641283556814,-0.35823235033564266,-9.837025264519452,0.6961150094732642,-0.048205580851672376,0.04478695111016199,0.03366266736568718
1698411731240.0,0.01666666753590107,-0.0031384441561996936,-0.06830313637554646,0.04971577867493033,-0.37110114772636443,-9.845704245537519,0.7110791351754218,0.10476667085323886,0.13353187914061534,0.0257910611102326
1698411731257.0,0.01666666753590107,-0.015315459890477359,-0.07208908465504646,0.05188457408137619,-0.38352110537104306,-9.849447523719071,0.7137718083254992,0.08487526567988411,-0.031643632764541,0.06550725043210803
1698411731274.0,0.01666666753590107,-0.014831950689852236,-0.04503098185956478,0.07134096970148385,-0.38322190322875976,-9.822363117438554,0.7335252871960402,0.15175453036151845,0.16449283316359223,0.1531995022371596
1698411731291.0,0.01666666753590107,-0.016956980019807815,-0.024134908825159073,0.05838204634189605,-0.38576566942743956,-9.801413268390297,0.7211047815620899,0.2567645800647919,0.004463668694842171,0.27429367360024787
1698411731307.0,0.01666666753590107,-0.017409290364570916,-0.031657121023535725,0.06587802812047303,-0.3865139305114746,-9.808895733100176,0.7290357937570661,-0.06280895218398276,-0.03252767868964816,0.06739659815040992
1698411731324.0,0.01666666753590107,0.003180895058438182,-0.048911622685194014,0.04752637887187302,-0.36616317986752833,-9.826104057532548,0.711229284235835,0.3043487204236989,0.023745079278376605,0.18767614939305513
1698411731341.0,0.01666666753590107,-0.0025481866454705594,-0.07214052258133888,0.035930633624270555,-0.372148684017919,-9.849297886115313,0.700006244758144,0.017346172531746522,-0.06489322709789447,0.06189330662880437
1698411731357.0,0.01666666753590107,0.01008366018421948,-0.08056991275250912,0.02168934230394661,-0.3597287629058584,-9.857677591925858,0.6863892958812415,0.2247969735520315,-0.04415235716715905,-0.01810437689047083
1698411731373.0,0.01666666753590107,0.007155022853799164,-0.07714929065406322,0.03234744137525558,-0.36272151498105376,-9.854235342517494,0.6973121833685785,0.05598895493687214,-0.10749159616695661,0.12429063319358809
1698411731390.0,0.01666666753590107,-0.014207863974757491,-0.05724339770078659,0.020022139744088053,-0.38441893099360164,-9.834332372173666,0.6847432091746479,-0.1305896817741398,-0.11340613978179097,0.06655781890382062
1698411731407.0,0.01666666753590107,-0.019352058462798593,-0.052609892681241034,0.02546177351474762,-0.3898058481963351,-9.829694190979003,0.6901301629099994,0.03012326867387186,0.16980625343039937,0.0126823806282443
1698411731424.0,0.01666666753590107,-0.027158530962653457,-0.052602293896675104,0.021970935724303125,-0.3975870035918429,-9.829693606457113,0.6865387873545289,-0.10963935715559506,0.06972984146369653,0.005884261330818876
1698411731441.0,0.01666666753590107,-0.010338694391213358,-0.07263444357812404,0.018543372428417203,-0.38082762850336727,-9.849746214404702,0.6827966782167554,-0.11771240063071212,0.003464653477128636,-0.00848416216621365
1698411731457.0,0.01666666753590107,-0.024209471898712216,-0.06276479147076607,0.039364115204289556,-0.39489363632202146,-9.839871301600336,0.7035978395093232,0.04257184872517545,0.08554299004242559,0.08854414448123878
1698411731474.0,0.01666666753590107,-0.002791384284198284,-0.04827215573787689,0.0377880980592221,-0.3736449869902804,-9.82535470046997,0.702250297357887,-0.015976105953350722,0.12298806809409905,0.05878949257913604
1698411731491.0,0.01666666753590107,0.013786496757529675,-0.052344519743323326,0.05445756637454033,-0.3574841257842257,-9.829395500293373,0.7191599311046302,0.23165773849075064,0.01871483838775394,0.15047739170843186
1698411731507.0,0.01666666753590107,-0.010534801485203206,-0.03132043641507625,0.051693946880102155,-0.38232404107358303,-9.808296598163247,0.7172143499948084,0.26365546720496785,-0.029716555588192063,0.13415275934442536
1698411731524.0,0.01666666753590107,-0.007724639435298741,-0.04498012845516205,0.03617247955612838,-0.37963049114067104,-9.821912451061605,0.7022502242926508,0.2034067153818292,-0.17937023915592296,0.08663726772276228
1698411731541.0,0.01666666753590107,0.0007856704849749803,-0.06762976715862751,0.03988200159855187,-0.37140053253173827,-9.844509482794999,0.7065899339973926,0.279857689772443,0.0338938265804098,0.19355839635167738
1698411731557.0,0.01666666753590107,-0.008340871637500823,-0.05572948600649833,0.041478769270703195,-0.38097722957450897,-9.83253672092855,0.7089841356575488,0.276474905183862,-0.11102631244393077,-0.06016545553177627
1698411731574.0,0.01666666753590107,0.004194382949918508,-0.07462181800305843,0.024975378237292168,-0.3685573449950665,-9.85139047448039,0.6929729120552539,0.12565704455356086,0.07235382138395824,0.06871028898772667
1698411731591.0,0.01666666753590107,0.018727314160577952,-0.07462532513439654,0.027863062502816317,-0.3541921715667471,-9.85139281256795,0.6958168302442878,-0.08945111889782242,-0.038184732843911634,0.022071622900763976
1698411731607.0,0.01666666753590107,0.007564809231087565,-0.03151274411678314,0.01564290174655616,-0.36526531771235166,-9.808296013641357,0.6833960323493927,-0.056750494348902114,-0.08578250690073222,-0.14272088481266257
1698411731624.0,0.01666666753590107,-0.0062087915122509,-0.03883095817565918,0.013799319706484675,-0.3785830644469708,-9.815627087181806,0.6816004541695118,-0.03328049693728381,-0.14344267038928896,-0.2232605811951753
1698411731640.0,0.01666666753590107,-0.01734608893524855,-0.0382066887974739,0.02681669525504112,-0.3890576967101544,-9.815029705810547,0.6946193640880286,-0.02368376098829855,-0.04135379721150541,-0.22803936573665703
1698411731658.0,0.01666666753590107,-0.014783216177299618,-0.05407879619002342,0.03629764030575752,-0.38606490810234095,-9.830891291809081,0.7044948614142835,0.045535243690461844,-0.23613071198431562,-0.06040878102095797
1698411731674.0,0.01666666753590107,-0.004275814155675471,-0.03491816864609718,0.03670329849720001,-0.37529103716425594,-9.811737678527832,0.70494421261698,0.02693477095066595,-0.24908541972528775,-0.08326643596522877
1698411731691.0,0.01666666753590107,0.0023725012850016355,-0.018759061005711553,0.04321830641441047,-0.3685572719298303,-9.795576817321777,0.7115275365300476,0.06631163860900927,-0.2319769697931694,0.01663690007512301
1698411731707.0,0.01666666753590107,-0.009411460011079906,-0.03720014210343361,0.04138071572370827,-0.3803787522247061,-9.813983411628007,0.7101816018138081,0.07956095161879106,-0.10947117708749671,0.020212877631594923
1698411731724.0,0.01666666753590107,-0.0021100874891504646,-0.045912440869212146,0.03592931845001876,-0.3730464731078595,-9.822660639080405,0.7052427571721375,0.19659013322930358,-0.12265739088873523,-0.09034083107849591
1698411731741.0,0.01666666753590107,-0.007741006048209965,-0.055203416305780406,0.03260923411659896,-0.3784333903105929,-9.83193817051351,0.702250297357887,0.08892914303484535,0.018734431825924755,-0.191941896014419
1698411731757.0,0.01666666753590107,-0.012165179166011512,-0.05955342820882797,0.03337378874830901,-0.3826232432158664,-9.836277076500654,0.7032976875189692,-0.11730881916008634,-0.13349895549438176,-0.06630288742913519
1698411731774.0,0.01666666753590107,0.007161306464113295,-0.062384852242469785,0.03968669822216034,-0.3633200288634747,-9.839121360015868,0.709433340729773,-0.13281174775042856,-0.15896586276351643,-0.0018497806458834141
1698411731791.0,0.01666666753590107,0.005456183046661317,-0.05202712435722351,0.01933824913315475,-0.364966005972214,-9.828795196312665,0.6886335676766931,-0.17198591086885323,0.10488167016132499,-0.04261133575631459
1698411731808.0,0.01666666753590107,-0.0054488765230402345,-0.041485856598615645,0.02351765370965004,-0.37544067476801574,-9.81832231761515,0.6920753786936402,-0.26258040610177846,0.03813831557200332,-0.13900838351406974
1698411731824.0,0.01666666753590107,-0.00441021765768528,-0.05428922407031059,0.04635609298348427,-0.37394429873041807,-9.8311905670166,0.7142204288758337,-0.26271877079332406,-0.004290896258341921,-0.16445838873305127
1698411731841.0,0.01666666753590107,0.005955949262343347,-0.04989712659120559,0.043999373789504165,-0.3633200288634747,-9.826852245551347,0.7112293573010713,-0.21786993443402208,0.09533187175256373,0.015849774134131932
1698411731858.0,0.01666666753590107,-0.011706402547843754,-0.04773498012125492,0.06287343947701156,-0.3811268671782687,-9.82475556553304,0.7290353553656488,-0.3277098350149937,0.22775481898861727,0.03153183510762832
1698411731874.0,0.01666666753590107,-0.013783464550226925,-0.039891865405440326,0.053906946754455565,-0.3832217936309054,-9.816974994659423,0.7191589812565594,-0.2539946181912344,-0.04491972958742064,0.030066972974072147
1698411731891.0,0.01666666753590107,-0.025731165040656923,-0.04283142598867416,0.04407536163516342,-0.39489363632202146,-9.819968915778398,0.7086846412543207,-0.262883389024492,0.11816123210458922,-0.19902765698935188
1698411731908.0,0.01666666753590107,-0.015543606090545654,-0.031845921593904494,0.027279490461200474,-0.38382027098070826,-9.809042448094486,0.691475732300058,-0.003794890455456108,0.2932056669992198,-0.23142142995372406
1698411731924.0,0.01666666753590107,-0.001664060754701495,-0.05173486341238021,0.015617182783409952,-0.36960477168876676,-9.828946002960205,0.6798045106634497,0.06483154195195279,0.17415096077382827,-0.08491032376023332
1698411731941.0,0.01666666753590107,0.011333404516987501,-0.044428924313187595,0.008172785061597824,-0.35658633669428524,-9.821613760375977,0.6727728584609926,0.2538192744286355,0.16701548082421447,-0.018759701524821818
1698411731958.0,0.01666666753590107,0.0015873057240620254,-0.01640168422460556,-0.008464972941204905,-0.3666121292114258,-9.79348305991292,0.6575083615727723,0.2781310926554579,0.3708200147045572,0.005856940574138825
1698411731974.0,0.01666666753590107,-0.010685608132742344,-0.04203413813114166,0.02118307328224182,-0.3790319772582501,-9.819070505633949,0.6877353767279535,0.13916931984638817,0.7024239646809574,-0.03030637644056638
1698411731991.0,0.01666666753590107,-0.01874733403529972,-0.06764028855264187,0.02511924368739128,-0.3871124443938955,-9.84465795135498,0.6919250835027545,0.08812539518817882,1.0351746127055528,-0.03716794179207888
1698411732008.0,0.01666666753590107,-0.015720862353593112,-0.08443594053089618,0.013923311412334442,-0.3842692933898419,-9.861417947497964,0.6811514682929962,0.2781475277981482,0.7624003893913682,-0.04088239076180222
1698411732024.0,0.01666666753590107,-0.01682652204055339,-0.02976034749150276,-0.0076326868355274195,-0.3856160683562979,-9.80665058452189,0.6608006811164319,0.6496793762802677,0.8121369197929019,0.09155519068815658
1698411732041.0,0.01666666753590107,-0.013686032057739793,0.003359247300028801,0.010349471513554453,-0.3824736421447247,-9.773430451965332,0.6802542271923273,0.4495881307710979,0.9825460841599004,-0.24262283347083918
1698411732057.0,0.01666666753590107,-0.054753297918103634,-0.027185528567433354,0.03482347609996796,-0.42227724474482237,-9.803956523132324,0.7056920353095978,0.13736300161518425,0.5773916423126146,-0.42114754323228215
1698411732074.0,0.01666666753590107,-0.03804280347265303,-0.15509177751243114,0.054547509680315846,-0.4046199709685519,-9.931896089825033,0.7254440528754145,-0.006939365475027173,0.4080038313503711,-0.36342353348324163
1698411732090.0,0.01666666753590107,-0.015512443767301737,-0.16252806499302386,0.0609119301456958,-0.3812765778472647,-9.939379723578691,0.7315796330209821,-0.05445085503272345,0.2856799457922029,-0.2583207426176441
1698411732108.0,0.01666666753590107,0.018033267481811343,-0.11279343548715114,0.0779167678952217,-0.34700953005366025,-9.889698870086669,0.7481891878426075,-0.06658439260856021,0.3506550551188582,-0.27598163745974014
1698411732124.0,0.01666666753590107,-0.001391783151961863,-0.009194529324769973,0.08101941008567809,-0.3655645929198712,-9.786149648284912,0.7510317908573895,-0.017653504363970653,0.5759396401446051,-0.5035721317018804
1698411732141.0,0.01666666753590107,-0.011366503068991004,0.035411505120992656,0.05928812833614647,-0.37454288567807525,-9.74155881140828,0.729634271106869,0.5056701737158379,0.5585183355319885,-0.34575135282075925
1698411732157.0,0.01666666753590107,-0.04255209759064019,0.07331833418905735,0.05496493137478828,-0.40462000750117,-9.70354969100952,0.7273891225285828,0.7142932859937057,0.9534986770020113,-0.36724689195371496
1698411732175.0,0.01666666753590107,-0.01696154659707099,-0.01820025807917118,0.06059037004113197,-0.3782837892394513,-9.794978266906737,0.7347221688304096,0.7229144788301427,1.0990676172964369,-0.23812702153223697
1698411732191.0,0.01666666753590107,-0.007432013164274394,-0.06426818177103996,0.056606268841028214,-0.3687069825988263,-9.840917595782875,0.7326271693125367,0.6333699517593351,1.4454412377031813,0.07401958712864799
1698411732208.0,0.01666666753590107,0.01895925975292921,-0.0841261439293623,0.04383322344236076,-0.34311895235590634,-9.860668590435385,0.7209545594364404,-0.04502372655465136,1.3663715527765288,0.2392619001515169
1698411732225.0,0.01666666753590107,0.03829922591913491,-0.07051555172801018,0.013854337829351424,-0.32441428841855374,-9.847052153015136,0.6907291517164558,-0.234839912952889,1.0721196395346806,0.05668558087136055
1698411732241.0,0.01666666753590107,0.04407400992829352,-0.10650865612924099,0.008099208368733525,-0.3188776970794424,-9.88311598456502,0.6838460411392152,-0.6522006232185016,1.101380703547544,0.04756853230943646
1698411732258.0,0.01666666753590107,0.056171494152955706,-0.13882570236623287,0.020841785563901066,-0.30765487679746,-9.915587929102777,0.693870226221159,-0.9067603328418488,0.8998593871809029,0.3111148765702428
1698411732275.0,0.01666666753590107,0.033667839791439474,-0.13452888195514678,0.02008651021718979,-0.3311479440551251,-9.911396322631836,0.6910285730544478,-0.7853003594919814,0.8069181750193362,0.35516700871545986
1698411732291.0,0.01666666753590107,-0.006626761195994913,-0.08995908786654472,0.03593757482171058,-0.372148684017919,-9.866953954315186,0.7046444990180433,-0.9340313572070056,0.7062764048162561,0.07712201379614116
1698411732308.0,0.01666666753590107,-0.05895743507705629,-0.0226087221711874,0.032820904105901716,-0.4245217722686007,-9.79976667022705,0.6991083460703492,-0.40153758987749955,1.1710028494698939,-0.02016431925546436
1698411732324.0,0.01666666753590107,-0.03757036365531385,0.055551206830143925,0.03027348464541137,-0.4037221453459933,-9.721655841064452,0.6955159476015716,-0.21423719427028767,1.1758447065394926,0.357086025067969
1698411732341.0,0.01666666753590107,0.006562244592420757,0.07825111441612244,0.015623028002306819,-0.3610754282744601,-9.698909756249188,0.6807024824164808,0.2034442547418378,0.85782613622438,0.7777878984569078
1698411732358.0,0.01666666753590107,-0.010973594761267304,0.036140988439321516,0.004034297017380595,-0.3811268306456506,-9.740808869823812,0.6708266928292811,0.697235262067569,0.49380325364146965,0.5127606571262516
1698411732375.0,0.01666666753590107,-0.03089030136950314,-0.034817046359181404,0.010525997124239801,-0.40237544344477355,-9.811587456402181,0.6792061063788831,0.8070986414238126,0.562925568454792,0.46561095415115444
1698411732392.0,0.01666666753590107,-0.05476732644345611,-0.08707973303794861,-0.010696750581264495,-0.4272152856688946,-9.86366251155436,0.6602028613537549,0.592831978622516,0.5019778161392113,-0.06470755801026119
1698411732408.0,0.01666666753590107,-0.04157287729494273,-0.09092647159397602,-0.03400638756342232,-0.41389746586903925,-9.867402282604575,0.638505408808589,0.6005298686213848,0.44359637400213064,-0.11840410402652135
1698411732425.0,0.01666666753590107,0.012705679250881076,-0.0673731620490551,-0.006152750476077199,-0.3595790522368625,-9.843759541210531,0.6676834263674915,0.35646866668044974,0.2822331548605794,-0.09190449083117927
1698411732441.0,0.01666666753590107,0.0062844140317291014,-0.05996025544404983,0.016801497197151183,-0.3660135057311505,-9.836278830066323,0.6916270504042505,0.2623241672861972,-0.08240249707650149,-0.018680860864675772
1698411732458.0,0.01666666753590107,0.01644745959509164,-0.07332768653929234,0.04188099339604377,-0.35568854760434476,-9.849595992279053,0.7175127484194934,0.20669577163230768,-0.2922380212928994,-0.13676023742093063
1698411732475.0,0.01666666753590107,0.012695888509228825,-0.09250351165235042,0.06779986302852631,-0.35927981356196104,-9.868749605560302,0.7438501357249915,0.04893515711282081,-0.4737413338627026,-0.13030576201612146
1698411732491.0,0.01666666753590107,-0.04301313923113048,-0.03309446035027504,0.06427176196761429,-0.41419685067441314,-9.809344645911455,0.7407078191112727,0.34479469945013436,-0.4478813305305352,-0.31807950840911375
1698411732508.0,0.01666666753590107,-0.07628723046462982,-0.0021469489008188246,0.07098433828353881,-0.4465185000212863,-9.778369077411293,0.7483388985116034,0.22594028318606815,-0.6210031472150865,-0.26183049935567865
1698411732525.0,0.01666666753590107,-0.05658602977059781,-0.015449498066306114,0.09425064758062363,-0.4260182213714346,-9.791686824145913,0.7718322214975952,-0.1049243788539574,-0.5682575983190449,-0.16714886961622805
1698411732542.0,0.01666666753590107,-0.01750215627979487,-0.09411737658977508,0.08928915271572768,-0.38576563289482146,-9.870395619201659,0.7668933768559247,-0.04106952727288999,-0.3998771868985253,-0.20073941978923343
1698411732558.0,0.01666666753590107,0.007433803262561559,-0.11277297722101211,0.09487016771845519,-0.3601776391845196,-9.889099150627851,0.7721307660527527,-0.25783457188695674,-0.33921526199145374,-0.34745444448204604
1698411732575.0,0.01666666753590107,-0.003415032607875764,-0.10657353805899619,0.0542190814435482,-0.37050267037656154,-9.882965762439369,0.7308321025893092,-0.29982676166718025,-0.0828065721350165,-0.1350368419551189
1698411732591.0,0.01666666753590107,-0.00343107042722404,-0.06778992615640163,0.051098903596401214,-0.37065227144770324,-9.84420962306559,0.7272404347728938,-0.31982400809224376,-0.19575669006800334,0.05705689236620066
1698411732608.0,0.01666666753590107,0.006695807844214141,-0.05669219355881214,0.033196167159080504,-0.36107550133969635,-9.833136440387367,0.7086855911023915,-0.21857066915418308,-0.2895314787930025,0.15090363820132296
1698411732625.0,0.01666666753590107,0.029352351212501526,-0.015412088665366171,0.008783025914430618,-0.3386298242431134,-9.791836461749673,0.6844443723585456,0.24075010765821275,-0.03394840139270379,-0.0027875175941585633
1698411732642.0,0.01666666753590107,0.030655688896030184,-0.030998364853858946,-0.0062601563733071085,-0.33698384713437407,-9.807399357062577,0.6699284288153052,0.06737786849104528,0.1751200872438164,-0.05768233492293284
1698411732658.0,0.01666666753590107,0.029653672246634958,-0.035222120028734205,0.001121112984418869,-0.33788163622431455,-9.811588040924072,0.6778595871407538,0.29958893234584627,0.24599969500474936,0.10658587573041589
1698411732675.0,0.01666666753590107,0.06366941216029226,-0.05373801992833614,-0.006028831835463643,-0.3046620516570285,-9.829993466186522,0.6718734254032374,0.22073946765907368,-0.05685284046474653,0.3154976168615696
1698411732691.0,0.01666666753590107,0.050138205338083205,-0.04359831870794296,-0.009169979405403136,-0.31857838533930477,-9.819818109130859,0.6690306762579828,0.21538358549357878,-0.12086346571561518,0.2193977623739893
1698411732708.0,0.01666666753590107,-0.01225070202499628,-0.03315934228003025,0.026021745485067367,-0.38142614238578826,-9.809343476867674,0.7044950806099921,-0.07935759340842452,0.09358122223113806,0.1079357185455661
1698411732725.0,0.01666666753590107,-0.018330533395335077,-0.053506549260020256,0.03315649273581803,-0.38786066894531246,-9.829695360022782,0.7113781181219965,-0.009638997744474713,-0.09259756826895045,0.12267401279441069
1698411732742.0,0.01666666753590107,0.0001277545655146241,-0.0801519796013832,0.0634123686593026,-0.36945513408500696,-9.85632968444824,0.741753894098103,0.02946634321393415,-0.23270537211555423,0.0368982827219956
1698411732758.0,0.01666666753590107,-0.0010501301074400543,-0.07342822430431842,0.07772979395575821,-0.3708019821166992,-9.84959774584472,0.7561202731028199,0.03447260507128904,-0.2871255980187184,0.14996415368511565
1698411732775.0,0.01666666753590107,-0.017522322284989057,-0.0367693494707346,0.07820552170872688,-0.38741171960141507,-9.812935363879799,0.7565695512402802,0.0652180879702932,-0.40999757957735367,0.04816876186317778
1698411732791.0,0.01666666753590107,-0.053700939320959144,-0.041431496062874794,0.06907755481414496,-0.4239232218535617,-9.817572960552573,0.7475900529056787,-0.056913271630645274,-0.3486267290592024,0.15757427842119245
1698411732808.0,0.01666666753590107,-0.05547843385487795,-0.04511339944601059,0.03128945675492287,-0.4261677859099582,-9.821314485168456,0.7086849335152655,-0.6872477645928651,-0.12479502665553766,0.347869058309007
1698411732825.0,0.01666666753590107,-0.07397270644456148,-0.09241758693456649,-0.06160743812918663,-0.4471171235015616,-9.868599967956543,0.6147120799627155,-0.31063959145354514,-0.014503541514185106,0.995683419419891
1698411732842.0,0.01666666753590107,-0.06264229760225862,-0.01617372068762779,0.010312208243086934,-0.43754031686093653,-9.792285959082841,0.6866880596321076,0.3270127288328293,-0.43824126556900267,0.4054896013642924
1698411732858.0,0.01666666753590107,0.0007948036395013331,-0.010723638588190079,0.06104637018032372,-0.37394433526303616,-9.78674995226562,0.7387625302623957,0.4959304840419584,-0.8247447553096579,-0.38672541752782774
1698411732875.0,0.01666666753590107,0.08593699274361133,-0.06152443602085113,0.08623802151679992,-0.2861070253234356,-9.83762556850016,0.7643502682443708,-0.4087573666344675,-1.7735035478319447,-1.0646098465422515
1698411732892.0,0.01666666753590107,0.013246946520730852,-0.11643617590367793,0.043466289826110005,-0.3558381486754864,-9.892693375727534,0.7209554362192749,-0.15253179788493798,-1.8058979611265518,-0.9933970135952293
1698411732908.0,0.01666666753590107,-0.06207677267398685,-0.12277239318788051,0.02517060854844749,-0.4293101755889132,-9.899125454601645,0.7022502242926508,-0.19502327182544676,-1.0176234811378528,-0.44091491110309244
1698411732925.0,0.01666666753590107,-0.10073993653468787,-0.07531506096422672,0.018204349732398987,-0.4680663514953106,-9.85169091873169,0.6949180547736584,0.012459625747851972,-0.5124788051012829,0.33697853512083326
1698411732942.0,0.01666666753590107,-0.042194479792006315,0.02575929515659809,0.019426000481843946,-0.4106055116515606,-9.750535898590087,0.6967135598883032,0.2870796810048059,-0.5398471063012594,0.5653019940382805
1698411732959.0,0.01666666753590107,-0.0250728107297793,0.10631167225241661,0.0026945728462189436,-0.3945942515166476,-9.669881230163574,0.6808527045421302,0.42169790706899707,-0.7429212234870207,0.45312216669719774
1698411732975.0,0.01666666753590107,0.035919162382185454,0.1072439846664667,-0.017643281783536077,-0.33309315983876586,-9.668833182415366,0.662445891040191,0.3975928354666998,-0.1939741174163358,-0.7464430397778086
1698411732992.0,0.01666666753590107,0.007258373630419373,-0.06390110202431679,-0.029105609909817573,-0.3591302490234375,-9.840020354682206,0.6518221326299012,0.20902475941757623,0.08529224072458545,-1.3989546500469572
1698411733009.0,0.01666666753590107,-0.03512845039591193,-0.147115391805768,-0.005546016754582524,-0.39833519161064174,-9.923366746410727,0.675165744946897,-0.30337632560147126,0.5438894577119963,-1.0113160148827576
1698411733025.0,0.01666666753590107,-0.08643920664470642,-0.20111878467202185,0.03615267887711525,-0.44846382540278135,-9.977536728015542,0.7151194235421717,-0.5309567079619887,0.2355642331700277,0.11048393939493621
1698411733042.0,0.01666666753590107,-0.021688794314675033,-0.1417950735658407,0.08337393732257187,-0.38456856859736144,-9.918280821448564,0.7609083841621875,-0.5704413912235977,0.12819196521034798,0.32565650939575863
1698411733059.0,0.01666666753590107,0.00158193542920053,-0.10114917492270468,0.0852373931068927,-0.3616740882873535,-9.877729030829668,0.7612074401739984,-0.6832801183761752,0.3154325699818958,-0.056423579083667096
1698411733075.0,0.01666666753590107,-0.0027562764381989834,-0.03183949185311794,0.06875497179627418,-0.36481636836845427,-9.808595288848876,0.7428020879767835,-0.275867445234554,1.050447982906759,-0.6938173393573595
1698411733092.0,0.01666666753590107,-0.04699124908186495,0.005945756661891937,0.05232515745572745,-0.40761272304374724,-9.770886028179525,0.7260430416818707,0.10976794347084848,0.8657860813717951,-0.5775758439767934
1698411733109.0,0.01666666753590107,-0.05081383957732469,0.0074298577398061744,0.037276129949092865,-0.4107551492553204,-9.769390236663817,0.7115283402476459,0.32938117696881053,0.8177724128275442,-0.22713826101389137
1698411733125.0,0.01666666753590107,-0.007050429968163371,-0.010606149688363075,0.05111402810029685,-0.36676162068471313,-9.78734674911499,0.7266411537054925,0.27503253464979927,0.6641301355733106,-0.001465662546349533
1698411733142.0,0.01666666753590107,0.03459174970332533,-0.045271220356225966,0.05015080909132957,-0.3251624399047345,-9.821913620105386,0.7270898473210632,0.7248333351000932,0.6132304453004649,-0.0030711305272727646
1698411733159.0,0.01666666753590107,0.04929850311093032,-0.07036006890535354,0.05256481143049895,-0.3106475923400372,-9.846902515411376,0.7308305682193488,0.423116745466935,0.17497394520796192,0.11850663690535088
1698411733175.0,0.01666666753590107,0.05018040051199495,-0.07433715584278107,0.04160502599887549,-0.3103483171325177,-9.850791924065351,0.7208057986155152,0.1830765772760069,-0.22138334639047963,0.09372201484149024
1698411733192.0,0.01666666753590107,0.01660462291818112,-0.03475041086375713,0.02610482065863907,-0.3441664886474609,-9.811140297156571,0.7061413134470581,0.38961952342563555,-0.1003964036612753,0.01721445126638577
1698411733209.0,0.01666666753590107,-0.009574358955211937,-0.03315875775814056,0.04110365234799683,-0.37020339516904205,-9.809494283515214,0.7220026071846485,0.2719245851340319,-0.16742485194737888,-0.11348156534735201
1698411733225.0,0.01666666753590107,-0.056400480603240426,-0.0672685326308012,0.042398806725069876,-0.4164413416655734,-9.843609319084882,0.7234992024179547,-0.025066820934373242,-0.06002900516082807,-0.04872627605418007
1698411733242.0,0.01666666753590107,-0.06618534050397575,-0.10271803167462348,0.03501403023600578,-0.425718909631297,-9.879075184741616,0.7161662291813642,-0.11133069608903268,-0.057558604445292476,-0.2113416876500915
1698411733259.0,0.01666666753590107,-0.04091255022268742,-0.09279986425042151,0.03416873851828277,-0.3999812417846173,-9.869197933849692,0.7149696398079395,-0.22951970251755152,0.06902980710472972,-0.10012742494206638
1698411733275.0,0.01666666753590107,0.013841405282542109,-0.06042202773690224,0.004435279033705592,-0.34491460360102355,-9.836876795959473,0.6845931331794709,-0.1622669118656821,-0.009572300013414614,-0.14545090608783137
1698411733291.0,0.01666666753590107,-0.0021068726187571884,-0.047967035311460494,0.024127821497246623,-0.36092575413808226,-9.824455705803633,0.7037460158083587,-0.3618823920104782,-0.028371128383618556,0.009837820282345554
1698411733308.0,0.01666666753590107,-0.019174509938806296,-0.03729015847444534,0.01664944844059646,-0.37798451403193173,-9.813832604980469,0.695517116645351,-0.2027489361482452,-0.09270154189080802,-0.04482863927648287
1698411733325.0,0.01666666753590107,-0.023358992549218235,-0.03563713057041168,0.01613631128668785,-0.38187512826230374,-9.812186591339112,0.6950677654426545,0.1110832618141784,0.032625128947239845,-0.1775092794113589
1698411733342.0,0.01666666753590107,-0.021788674492575228,-0.03025193040072918,0.044127822474762796,-0.37978016527704894,-9.80679905308187,0.7233499301403761,0.01973417742031223,-0.14997061034831544,-0.24777887924225836
1698411733359.0,0.01666666753590107,-0.008022562935948371,-0.03788520175814628,0.0400537049036473,-0.36571415745839475,-9.814430570873618,0.7194585487250238,0.07220707903850875,-0.1331173186745073,-0.03716260570678981
1698411733375.0,0.01666666753590107,0.006989310898073017,-0.04885901571512222,0.015323679729551076,-0.3503014842711389,-9.825352946904301,0.6956661697272211,0.28138751874439366,-0.22111680893029045,-0.21226072161942844
1698411733392.0,0.01666666753590107,0.008806552920490502,-0.04801555062830448,0.03167173407077789,-0.3480569567473605,-9.8244574593693,0.7130245701547712,0.41377280655851956,-0.13922289414269046,-0.16413451503643103
1698411733409.0,0.01666666753590107,0.0003787701845169067,-0.045664603587985034,0.0194236623942852,-0.3559878228118643,-9.822062673187256,0.7016511624209583,0.3077491140937339,-0.3506666344239355,-0.09036086807875639
1698411733425.0,0.01666666753590107,-0.005907507010735571,-0.04635433941781521,0.025520152638480065,-0.3621228915007785,-9.822660639080405,0.7091336271308362,0.3603759617725201,-0.07678131809064712,-0.0673394753573904
1698411733442.0,0.01666666753590107,-0.03902845350913703,-0.06989011330604553,0.03386011096052825,-0.394893490191549,-9.846154327392577,0.718261228699237,0.08352120735735553,-0.17711315511992462,-0.15777422153697399
1698411733459.0,0.01666666753590107,-0.04970708391182124,-0.08067571121454238,0.03597030804753303,-0.40536819551996883,-9.856928819385171,0.7206562340769916,0.1376961601002075,-0.09421417532791461,0.023157222772399323
1698411733475.0,0.01666666753590107,-0.017880853399075566,-0.08013327490091324,0.03455452296547591,-0.37319611071161923,-9.85632968444824,0.720206882874295,0.3412449754332847,0.2628149270502332,-0.18119029780674623
1698411733492.0,0.01666666753590107,-0.029861908169835805,-0.04139233309626579,0.049138271047919985,-0.38486777073964473,-9.817571791508794,0.7351705701850354,0.08372240445318001,0.27348082772816346,-0.18209060211671854
1698411733509.0,0.01666666753590107,-0.03465714308973401,-0.04408522544205189,0.040681554478406906,-0.3895066095214337,-9.820267606464029,0.7267904259830713,0.055699152144822614,0.30902902751117084,-0.0380926053313958
1698411733526.0,0.01666666753590107,-0.015777889770455657,-0.055035658523440355,0.043459202498197555,-0.37065227144770324,-9.8311905670166,0.7299337655100971,0.2197712349833715,0.25183622505265746,-0.04882208546554536
1698411733542.0,0.01666666753590107,-0.018874175285361706,-0.03485854741334915,0.03835274620465934,-0.3734953859191388,-9.810988905987143,0.7252947075325995,0.2903877070384871,0.4083044930759839,-0.18655589164746725
1698411733559.0,0.01666666753590107,-0.005870389870740473,-0.05853986725211143,0.03493804239034653,-0.3601776026519015,-9.834632231903075,0.72260130373016,0.34001764913637156,0.4629351208220962,-0.13069436242729818
1698411733576.0,0.01666666753590107,-0.01248947921693325,-0.06294599325656891,0.030904914416745304,-0.36631278093867004,-9.838972891455889,0.7197576047368347,0.3390339684937575,0.47090664527458864,-0.27375190086084833
1698411733592.0,0.01666666753590107,-0.003774550102651119,-0.03082826898396015,0.02416055472306907,-0.357334488180466,-9.80679905308187,0.7139222496468574,0.26403699730313657,0.24129244068656763,-0.1356598299126181
1698411733609.0,0.01666666753590107,-0.004350084968283772,-0.04835924949944019,0.033787703311443325,-0.3574841623168438,-9.824307237243652,0.7240978989634662,0.22642287873961187,0.36481694543477716,-0.25329783217418733
1698411733626.0,0.01666666753590107,-0.01504537424482405,-0.05795826797187328,0.024984730587527156,-0.36795875804740935,-9.833883459362387,0.7157176086310297,0.17989042743032818,0.30316965901822546,0.0011682558327630794
1698411733642.0,0.01666666753590107,-0.0032002573460340497,-0.0517050527960062,0.021855200390145182,-0.35613738735038786,-9.827599264526366,0.7130250085461884,0.20838856464898656,0.2898883028162828,0.017742190101475035
1698411733659.0,0.01666666753590107,-0.005915946045517921,-0.05485737934708595,0.03001052286028862,-0.35868122661430385,-9.830741654205323,0.7214047143567353,0.01881428967732903,0.21946547729630764,-0.04426146677110736
1698411733676.0,0.01666666753590107,-0.01139846910983324,-0.05427461102306842,0.026066096083447336,-0.36361930407099424,-9.830142519268392,0.7179622457526624,0.3580227481600392,0.04005572776387242,-0.13016584985984198
1698411733692.0,0.01666666753590107,-0.007097447447665035,-0.0447469042211771,0.037915596896409984,-0.3589805383544415,-9.820566297149657,0.7306807844851165,0.25636872257762205,-0.10090497260996358,-0.048912772235033146
1698411733709.0,0.01666666753590107,-0.0014032543940469622,-0.036106501647830004,0.05548274470381438,-0.3532943459441885,-9.811886731609702,0.7487886881057173,0.3406845797562263,-0.09740568793930886,-0.0377477074587366
1698411733726.0,0.01666666753590107,-0.007456453485786914,-0.03768587979376316,0.0183644356649369,-0.35927974049672484,-9.81338369216919,0.7128739827029407,0.3755647817023211,-0.21844652512993282,-0.04603147294191914
1698411733742.0,0.01666666753590107,-0.01457476105839014,-0.02997778963446617,0.036003041273355484,-0.36631281747128813,-9.80560312129557,0.7315785370424389,0.40716478529951733,-0.1321697900097267,-0.06167980985638859
1698411733759.0,0.01666666753590107,-0.03736022803597152,-0.05295417607426643,0.02981996872425079,-0.3886087838988751,-9.828497674670816,0.7267903529178351,0.3856378699850619,-0.04313624313114734,-0.11922434037673113
1698411733776.0,0.01666666753590107,-0.020405695701576767,-0.05928104100823402,0.026554756383225322,-0.3714003864012658,-9.834781284984945,0.7242473904367536,0.21621025182656187,-0.05154131450821702,-0.09333154680046236
1698411733792.0,0.01666666753590107,-0.021205760038085282,-0.05709960531592369,0.024671426854655145,-0.3719990098815411,-9.83253613640666,0.7233491264227777,0.4274986853454684,-0.1227083104826062,-0.043160659056398154
1698411733808.0,0.01666666753590107,-0.01582494378257543,-0.06867489229738712,0.03140519208908081,-0.36631274440605194,-9.84405940093994,0.7309813748668879,0.21933922551836818,-0.005618694371141656,-0.09118652055553457
1698411733826.0,0.01666666753590107,-0.009371566392108798,-0.058546296992897984,0.023505963271856306,-0.3597287629058584,-9.833884628406166,0.723798404560238,0.34830290872343506,0.11197039933369991,-0.016397976856304793
1698411733842.0,0.01666666753590107,-0.018229593771509824,-0.06534311752617358,0.035175431342795487,-0.3685573815276846,-9.840618905097246,0.7363681094065309,0.30145562838209605,0.023344992943615174,-0.144129211122581
1698411733859.0,0.01666666753590107,-0.013195618192292749,-0.04159983836710453,0.034848099084571,-0.3633200288634747,-9.816826526099442,0.7368172414135188,0.24321439188598576,0.0321125179139451,-0.13508505348570565
1698411733876.0,0.01666666753590107,-0.022230828769505023,-0.0483545733243227,0.038036081470921634,-0.372148684017919,-9.823560218268632,0.7404084708385169,0.14374810791123546,0.13128158527314737,-0.10011653932807667
1698411733892.0,0.01666666753590107,-0.0189024880643934,-0.06232172387838363,0.051337315462157126,-0.3687069460662082,-9.83747534637451,0.7544741863962262,0.34186823019504836,0.1712748641638711,-0.027972959704507885
1698411733909.0,0.01666666753590107,-0.016508870926126837,-0.05533259564340114,0.04459785113930702,-0.3660135057311505,-9.830442378997802,0.7484894128981977,0.2064849429025364,0.1461019618539511,-0.14959008076613844
1698411733926.0,0.01666666753590107,-0.013231748951599,-0.061950552478432654,0.041647184640169144,-0.36257187737729396,-9.837026433563231,0.7460946267161518,0.2106811336521572,0.1574697445103795,-0.07299900745625999
1698411733942.0,0.01666666753590107,-0.006373188293725252,-0.05825988126695156,0.03742101831249892,-0.3558381121428683,-9.833284908947348,0.742503178095445,0.08005472627101538,0.20705638427614317,0.07285410606023522
1698411733959.0,0.01666666753590107,-0.006539630901813507,-0.05859188970029354,0.03755662739090621,-0.3562869884215295,-9.833583599632977,0.7429515063848346,0.013824676406076044,0.209867700810691,0.0052287232530563235
1698411733976.0,0.01666666753590107,-0.003417589891143143,-0.05845686514377594,0.04258117755465209,-0.3531446352751925,-9.833435131072997,0.7481892609078437,0.021619389672515088,0.15645818282213006,-0.052032541179715806
1698411733992.0,0.01666666753590107,-0.016036504174023865,-0.054745151144266126,0.021200535873696205,-0.36571419399101285,-9.829694190979003,0.7272406539686024,0.20991287077266302,0.15134650659988955,-0.020385793475387316
1698411734009.0,0.01666666753590107,-0.013250453652068972,-0.04583528397977352,0.026884426729008554,-0.36302071712333706,-9.820715350231527,0.7338247815992682,0.24726637493066939,0.19075995312288943,-0.07174073186467025
1698411734026.0,0.01666666753590107,-0.025742855478450656,-0.04675239882469177,0.03825571557097137,-0.37544063823539764,-9.821613175854086,0.7454956379096954,0.03623039160678885,0.29167047526155365,-0.040950052323267656
1698411734043.0,0.01666666753590107,-0.023368710225634276,-0.06622516105771065,0.035574002206325527,-0.3730464365752414,-9.841066648864745,0.7431007055971771,0.10008401588823977,0.2138125619431965,-0.05874728414449948
1698411734059.0,0.01666666753590107,-0.011201704428717494,-0.05637187556326389,0.03782441148161888,-0.36092586373593655,-9.8311905670166,0.7456451293829828,-0.07477037432882049,0.18960028838744178,0.037191954175879706
1698411734076.0,0.01666666753590107,-0.018485577826574444,-0.04290741383433342,0.04125321688652038,-0.368258069787547,-9.817723182678222,0.7490865750737488,-0.07152475381259504,0.1400938099629332,0.0033488737665689863
1698411734092.0,0.01666666753590107,-0.020381145782209932,-0.0557873536735773,0.03020582623668015,-0.37020339516904205,-9.830593185645341,0.7381631030645222,0.09696277952010261,0.3189726090039458,0.06272082673543374
1698411734109.0,0.01666666753590107,-0.026209815403074023,-0.04878361239135265,0.022321721923351287,-0.3763385003905743,-9.823559049224853,0.7305320236641913,0.0477158349438413,0.023428666096001135,0.1350650164854452
1698411734126.0,0.01666666753590107,-0.010321268332377075,-0.04295943628251552,0.026813188123703,-0.36047687785942106,-9.817723182678222,0.7351713008373976,0.23448340909472606,0.10170625251718392,-0.02469449558332821
1698411734143.0,0.01666666753590107,-0.013529708984866738,-0.05659165579378605,0.02379924713000655,-0.36346959340199825,-9.831339035576582,0.7324764357302338,-0.01044770815046009,0.137352382805459,-0.11686677785473958
1698411734159.0,0.01666666753590107,-0.017206716997176408,-0.05540566087961197,0.024285788537934422,-0.3672106430938467,-9.830144272834062,0.7330760821238159,-0.005545740080080119,0.2565794179052611,0.0658759472451565
1698411734176.0,0.01666666753590107,-0.018523169890604912,-0.050476387783884996,0.02499291389398277,-0.3687069825988263,-9.82520506286621,0.7338246354687958,0.08247304012402303,0.12364380627505994,0.0499986655913594
1698411734193.0,0.01666666753590107,-0.01247172436453402,-0.044949733316898347,0.02205050376653671,-0.36302075365595515,-9.819668471527098,0.7308310796760022,0.08229668250521918,0.20516838391937678,0.002924761707793507
1698411734209.0,0.01666666753590107,-0.028508228538557886,-0.03137538147270679,0.02271086737141013,-0.37918150526415556,-9.806049696019292,0.7320273037232459,0.39943533235616363,0.5307451855411299,-0.10616032292861237
1698411734225.0,0.01666666753590107,-0.0397708328416571,-0.03264496301710605,0.03052833618931472,-0.39040443514399226,-9.807247965893149,0.7408566529974341,0.493276688745144,0.8427443314850513,0.014346972434170456
1698411734242.0,0.01666666753590107,-0.05701722426209598,-0.058330023893713945,0.03485496721677482,-0.4079119982512667,-9.832836580657958,0.7463934635322541,0.5376628865098835,0.9687721539249234,0.053858309441798397
1698411734259.0,0.01666666753590107,-0.03286328194290399,-0.012749006935954094,0.02402377660088241,-0.38486780727226283,-9.78704747390747,0.7378635355960578,0.862133050743749,1.324373786787178,0.35101817572277955
1698411734276.0,0.01666666753590107,-0.03630556788388639,-0.011785130339860915,0.03369176865629852,-0.3895065729888156,-9.785849204033612,0.7501353534743189,1.2720497352681204,1.5060207467729632,0.49031025221124286
1698411734293.0,0.01666666753590107,-0.03460720300078392,-0.031465397843718525,0.020494506496191025,-0.38995555886533106,-9.805154208484291,0.7410065828621387,1.2908555939306927,1.699254162190323,0.5727848931608526
1698411734309.0,0.01666666753590107,0.00632821664083749,-0.03153144881725311,-0.004395531545206904,-0.3510498184204101,-9.804855517798662,0.7200572452705353,1.8867264197644826,1.7551319397901972,0.6769566438652128
1698411734326.0,0.01666666753590107,0.015518106323108075,-0.01582651468515396,0.011192425143718718,-0.34401681451108307,-9.788693487548828,0.7407082575026899,2.029301069159798,1.6019813827953515,0.6928364067986693
1698411734343.0,0.01666666753590107,0.03724171622283756,-0.027778233763575553,-0.006420388436317443,-0.3253120775084942,-9.80006652995646,0.7293346305731684,1.7490165726055087,1.000948961661442,0.8920984780147702
1698411734359.0,0.01666666753590107,0.07586199078988283,-0.09600538229346275,-0.01429514039941132,-0.28954869020991025,-9.867851195415854,0.7258934771433472,1.7479956727680033,0.5949357836085858,1.0380012438048802
1698411734376.0,0.01666666753590107,0.08874861609824002,-0.09372574692368507,-0.02543605455160141,-0.2793733696868643,-9.865158303070068,0.718860071375221,1.4213062306624125,0.36870129536010454,0.9824795965371985
1698411734393.0,0.01666666753590107,0.05745868441928178,-0.11988193244338034,-0.021519684825465082,-0.3142389678955078,-9.890897139960527,0.7264920275583863,0.8217918190715381,-0.5282421880145847,1.1870894390691549
1698411734409.0,0.01666666753590107,0.05510170949697494,-0.18878069662451744,0.01901098994016647,-0.3194762474944815,-9.95957963104248,0.7683901182197034,0.29901050070051083,-1.1803722681855646,1.396256832046508
1698411734426.0,0.01666666753590107,0.07388060771431773,-0.187604638582468,0.03732764094062149,-0.30406361083984373,-9.958234646174311,0.7872454792067408,0.10016472417823699,-1.330064188139445,1.5074790988824667
1698411734443.0,0.01666666753590107,0.01791943184379488,-0.09364508290290832,0.0789455264210701,-0.36541499184872955,-9.86411083984375,0.8282453058540821,-0.664610970218709,-1.4552676387630084,1.915923557475583
1698411734460.0,0.01666666753590107,0.008158464275300502,-0.0475485176384449,0.1274338821928948,-0.3793312159331515,-9.818022457885741,0.874483106220141,-1.1396592180904113,-1.7520838611513732,1.7719462647011819
1698411734476.0,0.01666666753590107,-0.00026464228555560113,-0.06542495059072971,0.13961539143919943,-0.391302297299169,-9.835978970336914,0.8837609299141913,-1.245404526985666,-1.8807216162669835,1.3532843767182554
1698411734493.0,0.01666666753590107,-0.02796988387815654,-0.06061375091671943,0.1584405764836818,-0.42257655648496,-9.83134137366414,0.8984253420174121,-1.341668999704414,-2.0531296781832684,1.126766809145189
1698411734509.0,0.01666666753590107,0.0026583690216764808,-0.02801438060700893,0.14478380705304442,-0.3942950128417462,-9.798870013648271,0.8818153488043695,-1.2265108363592354,-1.8127275099663298,1.0731168471535024
1698411734526.0,0.01666666753590107,-0.01810677110943943,-0.011177812096476555,0.12128478497862816,-0.4170399651458487,-9.782109432983399,0.8562279761485755,-0.6519257614652614,-1.8763135829313866,0.7665123233542745
1698411734543.0,0.01666666753590107,-0.06037621583379805,-0.007241641691327095,0.06610577246174217,-0.4607339993132278,-9.778217101719974,0.7996643774054945,-0.5305091171279414,-1.6240816337936914,0.2328882664388372
1698411734560.0,0.01666666753590107,-0.09947119524050503,-0.008335282146930694,0.05017185187935829,-0.4996398858886212,-9.779415956115722,0.7824563452340662,-0.7661628097678403,-1.5567449332006513,-0.12649035431272887
1698411734576.0,0.01666666753590107,-0.10048815373070537,-0.015515549039840697,0.03435118241310119,-0.49949024828486144,-9.78674819869995,0.7652480208016932,-0.5290585557029599,-1.5640445911543968,-0.4555983237147389
1698411734593.0,0.01666666753590107,-0.11488489134106784,-0.0458797076433897,0.004455225843191146,-0.5116108941894024,-9.817274854388833,0.7344223091010004,-0.474079534948324,-0.9847685636827991,-0.659533898509568
1698411734610.0,0.01666666753590107,-0.09924893079195171,-0.06217968505918979,-0.001588584365695715,-0.4941034406799823,-9.833736744368077,0.7272400694467127,-0.5457958275423703,-0.49345075184727355,-0.6308473174389261
1698411734626.0,0.01666666753590107,-0.11753869378548115,-0.03554828324317932,-0.013419380478188395,-0.51071314163208,-9.807250303980707,0.7143716739147901,-0.23302511034607545,-0.2614342149816857,-0.7592974557957726
1698411734643.0,0.01666666753590107,-0.11478745884858071,-0.03409983800053596,-0.05963759936094284,-0.5051764772277325,-9.80590239650309,0.6682829996958375,0.05652459117818923,0.32667412754081115,-1.073270312966416
1698411734660.0,0.01666666753590107,-0.10786061872746795,-0.006478840625286102,-0.048889483918622134,-0.4954500329833477,-9.778367908367514,0.6793566207654774,0.18882167350248677,0.8930171918189898,-1.360795450371154
1698411734676.0,0.01666666753590107,-0.08752597896810621,0.035927053427696226,-0.04917699562311172,-0.47195692919306453,-9.73602105102539,0.6799545135933905,0.4811681507288866,1.0766848739428936,-1.2834524159223393
1698411734693.0,0.01666666753590107,-0.05464614774920046,-0.012075053197145462,-0.05642857418656349,-0.43499647759702054,-9.784054721832275,0.6744184337109327,0.6261266428662423,1.1772860898977768,-1.534520458136782
1698411734710.0,0.01666666753590107,-0.023142829047888516,-0.06769172647893429,-0.02751687941364944,-0.40028055352475495,-9.839721079474687,0.7043452238105237,0.4226201960503604,1.1761264518427554,-1.4529470819924966
1698411734726.0,0.01666666753590107,0.0011934841008856892,-0.052851884743571276,-0.008011383954808115,-0.37274723443295804,-9.82490695670247,0.7251448507331312,0.7203246631959442,1.625304130933418,-1.324640057443103
1698411734743.0,0.01666666753590107,0.007298815238662063,-0.0334533567905426,0.004244724897667766,-0.36302075365595515,-9.805451730126142,0.7399591196358204,0.943892656264623,1.6272448651530536,-1.1423325968202365
1698411734760.0,0.01666666753590107,0.006930310719832778,-0.021834815189242362,0.029313699702546,-0.361075391741842,-9.79378116607666,0.7668942536387592,0.736226304079086,1.6077585488944188,-0.9811377845304083
1698411734776.0,0.01666666753590107,0.022099274811707436,-0.01277180328965187,0.036120018716529007,-0.34386714037470517,-9.784655025812983,0.7755725770696997,0.9857018449998578,1.5021518714949742,-0.8536752488388634
1698411734793.0,0.01666666753590107,0.04207249738015234,-0.017564298263192175,0.04656527875475585,-0.321571100881882,-9.789291453441978,0.7891896720770746,1.023913018146377,1.3167423310501583,-0.8708214248939755
1698411734810.0,0.01666666753590107,0.05289345886297524,-0.034273441001772875,0.05024659761600196,-0.30870230349116023,-9.80590122745931,0.7951755415536462,0.9819818465014338,0.9828647551733638,-0.8092521787247765
1698411734826.0,0.01666666753590107,0.06906827552914618,-0.05054653041064739,0.05074921337589621,-0.2910449931822717,-9.822061504143475,0.7978687261603772,0.8063448126550253,0.7049525754168902,-0.5399793878555755
1698411734843.0,0.01666666753590107,0.0899994564095512,-0.13399930512309075,0.060921136365458366,-0.26919793956596405,-9.905409649437665,0.809839223004505,0.254644766822855,-0.23167734860418798,-0.06200253629467169
1698411734860.0,0.01666666753590107,0.0897274345351383,-0.16603753441870212,0.059012160938978195,-0.2693476137023419,-9.937433850207924,0.8081939400155097,-0.05182800903058566,-0.7970154679398755,0.05806888094127325
1698411734876.0,0.01666666753590107,0.07652513087373226,-0.1533107393145561,0.07599829398803412,-0.28251564976796506,-9.924714069366454,0.8251033545665443,-0.2185200297047898,-0.910897719931584,0.06220114538913096
1698411734893.0,0.01666666753590107,0.04318699796069413,-0.10922843648195266,0.08091419614553451,-0.315884908471629,-9.880721198382973,0.8288447330519556,-0.4713024227204792,-1.1620604242990547,0.12167032183196261
1698411734910.0,0.01666666753590107,0.00015774784497916698,-0.09270809431374072,0.08637246155142783,-0.35927981356196104,-9.864260477447509,0.8333334227733313,-0.5665935401216476,-0.9904601389738296,0.42431314914959795
1698411734926.0,0.01666666753590107,-0.02322663487382233,-0.0840863964408636,0.09982238329835236,-0.3832218301635235,-9.855732887598872,0.8453034812260418,-0.7682297957654154,-1.2639552140497148,0.3885386993503339
1698411734943.0,0.01666666753590107,-0.026792912520654497,-0.0885217485398054,0.09044994012340903,-0.3869627337248996,-9.860368146184086,0.8331827622562646,-0.7292130871836581,-1.537697883483013,0.26179917653503176
1698411734960.0,0.01666666753590107,-0.043717780369147655,-0.12860767521262167,0.09383315282091498,-0.40387174641713497,-9.900620661595463,0.83438030147776,-1.2621650641569369,-1.7506078999604158,0.29993174914524273
1698411734976.0,0.01666666753590107,-0.045907618563622236,-0.1479343069732189,0.0912287424761802,-0.4064156952789053,-9.92022611029744,0.8279458114508539,-1.6509950337227746,-1.6472027846295367,0.37419362122644106
1698411734993.0,0.01666666753590107,-0.047319969579577445,-0.14525310506522654,0.04457556624226272,-0.40866014973744746,-9.917830739593505,0.7770690261725336,-0.9153484419494935,-1.3491179613245476,0.4975248529654804
1698411735010.0,0.01666666753590107,-0.0365385363895446,-0.0519230794608593,0.08563947110176086,-0.398784104421921,-9.82460651245117,0.8162736399661749,-0.8311046752831447,-0.7376371650295167,0.4068876023491765
1698411735026.0,0.01666666753590107,-0.05633216460738331,0.007009586501121521,0.05609415460042655,-0.41928445613700893,-9.765798934173583,0.784700324768573,-0.6866752026413475,-0.451697111759898,0.16865496634885555
1698411735043.0,0.01666666753590107,-0.06868044525533915,0.05170739088356495,0.018945450423285364,-0.432003652456589,-9.721206343731284,0.7459438931338489,-0.5000890553902912,-0.05650294001212882,0.020185076627238854
1698411735060.0,0.01666666753590107,-0.057618039699457585,0.04851414780020714,-0.009814195593073963,-0.42093043324574825,-9.724498371013999,0.7158665886476635,-0.5549458264309545,0.32720045231329886,-0.1521237874635223
1698411735077.0,0.01666666753590107,-0.05174406963214278,0.060115738266706464,-0.045458267360925675,-0.41464576348569243,-9.712977444568276,0.6793561823740601,-0.1798743924940345,0.6220743663368679,-0.3415991580943469
1698411735093.0,0.01666666753590107,-0.05669833103865385,0.0030231472134590147,-0.04730418748855591,-0.4185363046508282,-9.770138424682617,0.6771120567090809,0.1269811407571913,0.9065494507512246,-0.4402516890625136
1698411735110.0,0.01666666753590107,-0.036880262499302624,0.019133155015110967,-0.08918751897215843,-0.39803595293574034,-9.753977563476562,0.6362604794260114,0.45930231395729565,0.5853823766721478,-0.3672841378290327
1698411735127.0,0.01666666753590107,-0.01821666122470051,-0.006934767699241637,-0.0735245973508805,-0.378583137512207,-9.78001626009643,0.6527204697091132,0.23442183067049016,0.5080628209986051,-0.396706938587008
1698411735143.0,0.01666666753590107,0.02145648339614272,-0.036762335208058355,-0.02690437353849411,-0.3380312372954562,-9.809792389678954,0.7004544269170612,0.4536726906164713,0.7647745738190352,-0.3527207337755375
1698411735160.0,0.01666666753590107,0.00838156897407025,-0.024851532661914824,0.0021896189987659453,-0.3507504336150363,-9.797821381378172,0.7305322428598999,0.5114568380467197,0.8548983863088245,-0.24622095578126074
1698411735177.0,0.01666666753590107,-0.010804814065620302,-0.0376841262280941,0.010541267758607864,-0.36960480822138486,-9.810540577697754,0.7405568663332611,0.8292413676610535,0.6579593264624686,-0.22094957601733092
1698411735193.0,0.01666666753590107,-0.00969440513830632,-0.0828881265670061,0.04251454205922782,-0.36795875804740935,-9.855581496429442,0.7749735882632434,0.7225679000906174,0.6889604878880986,-0.42093991615368437
1698411735210.0,0.01666666753590107,-0.0077766618834808465,-0.08786766854524612,0.07097966210842133,-0.3651156801085919,-9.860520121875405,0.8044527076605706,0.3207886922712287,0.6048082884453103,-0.43572567488117525
1698411735227.0,0.01666666753590107,0.0043446416081860655,-0.07384440388977527,0.06182363816313445,-0.35224677312001584,-9.846453602600096,0.7962232239756732,0.5791040988035837,0.4463463522362806,-0.30738289856034484
1698411735243.0,0.01666666753590107,0.01763878827150911,-0.06258592777252196,0.07249941902160643,-0.3384801501067355,-9.835081729236245,0.8086427066963165,0.47724997002282643,0.3880551166210117,0.0024257310115594504
1698411735260.0,0.01666666753590107,0.030158808757178485,-0.052366731575131414,0.07690781004838645,-0.3262098300658166,-9.824756150054931,0.8143286433782428,0.5435478948926428,0.38482702514496087,0.1410146982219081
1698411735277.0,0.01666666753590107,0.019532967987656594,-0.030821839243173596,0.06836100404262542,-0.33728308580927546,-9.803059282031654,0.8075953165352344,0.34551266972577904,0.13653849639674323,0.08742482055057649
1698411735293.0,0.01666666753590107,-0.010962342714890837,-0.04375906222760677,0.0657529404360801,-0.36795886764526364,-9.815928700476885,0.8057996652901173,0.3023131906489029,-0.08357554204581151,0.13382877892609932
1698411735310.0,0.01666666753590107,0.006173537535779178,-0.03113280488848686,0.05782324341535568,-0.3514986946990713,-9.803208919635415,0.7987664787176996,0.3049682666061867,0.015530289367661942,0.3770233472552362
1698411735327.0,0.01666666753590107,0.01957136376928538,-0.051911389023065566,0.025099296877905724,-0.3392283015929162,-9.823857739910483,0.7671925059329718,0.28224959000326977,-0.20460019755779635,0.3087162795523783
1698411735343.0,0.01666666753590107,0.012875117533653974,-0.07217910102605819,0.029097499668598172,-0.3464110161712393,-9.844059985461831,0.7718310524538159,0.14917693436263202,-0.2363067227575757,0.13336216494799638
1698411735360.0,0.01666666753590107,-0.01620875546839088,-0.08148293594419956,0.030211525325104592,-0.37573987691029903,-9.853336347851156,0.7731793252576142,-0.08893231800559236,-0.2207181233179174,0.1670648396131384
1698411735377.0,0.01666666753590107,-0.022818382866494357,-0.10496493381857872,0.015301540962979197,-0.38307215602714567,-9.876828867119551,0.7577653368961066,-0.2547735265608803,-0.46409571937246946,0.33088453895772735
1698411735393.0,0.01666666753590107,-0.007980879218690097,-0.10509937385320663,0.0007633855879306793,-0.36900625780634577,-9.8769790892452,0.7426524503730237,-0.2664179585591207,-0.1548838242184421,0.38713007955572454
1698411735410.0,0.01666666753590107,-0.034354981805384155,-0.043754970574378965,0.01628017673678696,-0.3960907006194815,-9.815629425269364,0.7579164358045906,0.023911024860760147,-0.24694009999566904,0.17919855061174703
1698411735427.0,0.01666666753590107,-0.05602682498525828,-0.04632277523577213,0.017315803394839166,-0.41838659398183226,-9.81817151096761,0.7589635337047278,0.007648851375062248,0.2038948337836471,0.10247386172623021
1698411735443.0,0.01666666753590107,-0.05892660154737532,-0.044241292786598205,0.029676249404624103,-0.42152909325864163,-9.816078338080644,0.7713825780339538,0.05581982771363499,0.21520560036876177,-0.012645241474632357
1698411735460.0,0.01666666753590107,-0.0623977847892791,-0.04410159205496311,0.031623730210587384,-0.42497072161249816,-9.815927531433104,0.7734777967475355,-0.02461408077802189,0.3133585670321655,-0.011824151350776331
1698411735477.0,0.01666666753590107,-0.04828128889240324,-0.029280455020070074,0.03301964154839516,-0.41045591058041897,-9.801113993182778,0.7749737343937159,0.1896931629518981,0.569397226054232,-0.11857971459338473
1698411735493.0,0.01666666753590107,-0.04638287139255553,-0.03935059813559055,0.029566213158890603,-0.4082112734587863,-9.811139128112792,0.7722808420479297,0.31302983749793223,0.7009614504249284,-0.2824129008935418
1698411735510.0,0.01666666753590107,-0.02355575723033398,-0.022623335218429564,0.041160862427949904,-0.3848678438048809,-9.794380301013588,0.7845506871648132,0.1606860965987944,0.6039918673960821,-0.3255189717974328
1698411735527.0,0.01666666753590107,-0.008510529115982353,-0.06863280672132968,0.01702113129720092,-0.3691558588774875,-9.840317291802167,0.7616569375071675,0.5496657166765644,0.3922312436899456,-0.16776897608767116
1698411735543.0,0.01666666753590107,-0.01719466123320162,-0.09117606244087219,0.017762378118559716,-0.37738592708427454,-9.862763516888021,0.7639016476940363,0.5517113583329831,0.21073947040458,-0.23180328021701008
1698411735560.0,0.01666666753590107,-0.014798998268321156,-0.06718202339112758,0.011787468427419661,-0.37454288567807525,-9.83867303172648,0.7594122273202986,0.4893656583933712,0.35521559377201684,-0.20040260608578717
1698411735577.0,0.01666666753590107,-0.013124452652223407,-0.0404465766787529,0.020283932485431432,-0.3722982120238244,-9.811885562565923,0.7688388849005102,0.357894175184999,-0.02453578373156467,-0.38906038172862006
1698411735594.0,0.01666666753590107,-0.014656009601056575,-0.04718026884794235,0.019019100181385872,-0.37274716136772185,-9.81862100830078,0.7680904046207666,0.2334552521812276,0.012240729524134302,-0.3970216608973575
1698411735610.0,0.01666666753590107,-0.0037031653668731447,-0.06964344506859779,0.027216581292822957,-0.3606265519957989,-9.841068402430414,0.7770688800420612,0.12250731348998008,-0.13573357461131308,-0.33449789579164924
1698411735627.0,0.01666666753590107,0.0019262188222259281,-0.0662134706199169,0.03033551703095436,-0.35434177263788874,-9.83762556850016,0.780659671075642,0.2504217622446566,-0.22698113998255465,-0.2679695587590507
1698411735644.0,0.01666666753590107,2.1700375154614448e-05,-0.07415829214453697,0.03782324243783951,-0.35568851107172667,-9.845556361499428,0.7885921445753424,0.19641620352930625,-0.25456133712936035,-0.2761054346384466
1698411735660.0,0.01666666753590107,0.0031631036734208464,-0.05453530778586864,0.05166230963282287,-0.3514986216338351,-9.82595266636312,0.8026573486763984,0.054958049939449784,-0.11595127904190664,-0.20988829809990683
1698411735677.0,0.01666666753590107,-0.025428309636563062,-0.048856677627563475,0.05022920808978378,-0.3794809631347656,-9.820268775507808,0.8016093009281903,0.16167650070887268,-0.06366888233863663,-0.22486978443580088
1698411735694.0,0.01666666753590107,-0.04059862543530762,-0.054255321800708765,0.03981872710399329,-0.3938461000304669,-9.82565397567749,0.7917335113409906,0.17898668134534443,0.09035351762127068,-0.27777995156301044
1698411735710.0,0.01666666753590107,-0.035124176079593596,-0.03885200096368789,0.05144260246753692,-0.3875612841399386,-9.810241887012124,0.8038548878978937,0.04638122665219139,-0.09511468641119188,-0.182672929104315
1698411735727.0,0.01666666753590107,-0.014444704937934875,-0.04665069201588631,0.020932897913455963,-0.3664624550750479,-9.818023042407631,0.7737773642159997,0.20928406648219872,0.003426573838484493,-0.09026569899762578
1698411735744.0,0.01666666753590107,0.0067798693984746925,-0.04308744657635689,0.026253216153383253,-0.34491456706840545,-9.814431739917397,0.7796128654364496,0.23480472147040757,-0.019317274079256957,-0.17476122216791304
1698411735760.0,0.01666666753590107,0.002966265927068889,-0.034144261664152145,0.009475172897055744,-0.3483563050201163,-9.8054540682137,0.7634526618175208,0.031302596883609764,0.07871103329416083,-0.05321413722570157
1698411735777.0,0.01666666753590107,0.01744626137409359,-0.0679834029018879,0.019739304214715956,-0.3336917833190411,-9.839270997619629,0.7740767124887555,0.10752318579186791,-0.07381341413329146,-0.1924690745605529
1698411735794.0,0.01666666753590107,-0.00038344635963439937,-0.06471358745098113,-0.010700257712602615,-0.351049781887792,-9.835979554858802,0.7441494109325111,0.2717639422864044,-0.11648584806616592,-0.06893595203460154
1698411735810.0,0.01666666753590107,-0.016126082153618333,-0.04336334090828895,0.0063303720653057095,-0.3664624185424298,-9.814580792999267,0.7619567972365766,0.008762759179156124,-0.2609794471129245,-0.10181079976821007
1698411735827.0,0.01666666753590107,-0.022752514556050298,-0.06427578055560589,0.016460063348338008,-0.37259752376396205,-9.835529473003744,0.7718317100409418,-0.09966621375031862,-0.1412437230025151,-0.18585622414436406
1698411735844.0,0.01666666753590107,-0.016790025955066085,-0.06275602364242076,0.023645006416365504,-0.36631278093867004,-9.834033096966147,0.7788652619395404,0.034463960613120743,-0.10744634616370527,-0.02444556720459298
1698411735860.0,0.01666666753590107,-0.010950031222589314,-0.053908115798234936,0.03707505441904068,-0.3601776391845196,-9.82520506286621,0.7921822049565613,-0.05769970388054877,-0.0072835613189655285,-0.0620968249217296
1698411735876.0,0.01666666753590107,-0.023194997626543045,-0.0987830303132534,0.05788045349530875,-0.37229824855644256,-9.87009634399414,0.8128320481449365,0.014398118811666215,-0.022007521508702343,-0.020509430571535123
1698411735894.0,0.01666666753590107,-0.035806386190094054,-0.10353753136396407,0.06121814655065536,-0.3847182062011212,-9.874884747314452,0.8158257500682026,-0.252186112165062,0.2898714674671958,-0.10994320719216806
1698411735910.0,0.01666666753590107,-0.013778788375109433,-0.05357201571166515,0.07916413760781288,-0.36272151498105376,-9.82505600978434,0.8319864651437848,-0.5055863438159466,-0.04725238259627214,0.004167055723942467
1698411735927.0,0.01666666753590107,-0.04625080597810447,-0.1016805053204298,0.06518463902883231,-0.39489352672416717,-9.873238733673094,0.8171727807629853,-0.1058823795861178,-0.05570574888026123,-0.1713395108371482
1698411735944.0,0.01666666753590107,-0.04468428731374442,-0.0929442411571741,0.06081599549055099,-0.3929483109405264,-9.864560337176918,0.8122341553170234,-0.43545441498550524,-0.1407734938266288,-0.2035216546589558
1698411735960.0,0.01666666753590107,-0.0015606734454631805,-0.0480582207262516,0.05966441430263221,-0.34910441997367886,-9.81981694008708,0.8095409707102924,-0.3440241420539658,-0.009131874541394448,-0.32254095595845433
1698411735977.0,0.01666666753590107,-0.018801256179623305,0.011108253991603851,0.02221285472139716,-0.3658637950621545,-9.760710086601971,0.7715328732248395,-0.2359310089923721,0.04712686453005993,-0.11180891605263936
1698411735994.0,0.01666666753590107,-0.022723544189892707,0.009667992055416106,0.035952772390842436,-0.3694552071502432,-9.762208216205238,0.7847001786381006,-0.29424140115382874,0.2938036287167132,-0.162599269937912
1698411736010.0,0.01666666753590107,-0.03536602201145142,-0.0013444003462791442,0.012432780593633652,-0.38127654131464656,-9.773281398883462,0.7607590388193726,-0.07041322056645481,0.2380339335243691,-0.3102630505951217
1698411736027.0,0.01666666753590107,-0.02195701679680496,-0.03199439015388489,-0.005487564565613865,-0.3672105700286105,-9.803955938610434,0.7428020879767835,-0.01714478867293693,0.22333974202043871,-0.26996456096607624
1698411736044.0,0.01666666753590107,-0.008342259876988828,-0.05545476071834564,-0.0008487988490611314,-0.3529949976714328,-9.827449042400717,0.747291069959104,-0.09238729982813454,0.07432754595089358,-0.2272538406212527
1698411736060.0,0.01666666753590107,0.007567622242681682,-0.04390402365624904,0.008392492226883768,-0.33653486125785853,-9.815927531433104,0.7564198405712842,-0.14557434308078085,0.29778386809468527,-0.11957782934670573
1698411736077.0,0.01666666753590107,0.0012136866386979817,-0.04974047472476959,0.010592705684900283,-0.34281971368100495,-9.821763982501626,0.7586636739753186,0.0010697250179003564,0.2526767118465393,-0.017036359419862975
1698411736094.0,0.01666666753590107,-0.0153906805511564,-0.06319090792834758,0.009622399348020554,-0.3594294146331027,-9.835231366840004,0.7574663539495319,-0.0972459122055408,0.4339640463642673,-0.03265238633790709
1698411736110.0,0.01666666753590107,-0.009585684066824614,0.017408815440535543,0.022742504618689416,-0.35344391048271206,-9.754574944847821,0.771383308686316,0.29442253456896633,0.14800187502112536,-0.16164048213317145
1698411736127.0,0.01666666753590107,-0.01551529331151396,-0.11694704803526401,0.0029178602080792188,-0.35868122661430385,-9.888949513024091,0.751630852729082,-0.03683051443882438,0.037162035412674536,-0.24150503032448428
1698411736143.0,0.01666666753590107,-0.008861169184558093,-0.13429916485249996,0.022880597915127872,-0.35134905709531156,-9.906309813147782,0.7718319292366504,0.17092049473982382,-0.34905385600616623,-0.2272406071297358
1698411736161.0,0.01666666753590107,-0.010478102861903607,-0.09775719439685344,0.027143954448029396,-0.35224677312001584,-9.869795899742842,0.7760213437505066,-0.23550486922118677,-0.1378613252801175,-0.17077500637441725
1698411736178.0,0.01666666753590107,-0.00958659738227725,-0.06193593943119049,0.04032718808278441,-0.3510497088225558,-9.834032512444256,0.7885917792491615,-0.1685606643815844,-0.04025702824634937,-0.18226194381535066
1698411736194.0,0.01666666753590107,-0.021980178476683793,-0.06342179407477379,0.05836443761996925,-0.3633199923308566,-9.835530057525634,0.8065481455698609,0.046570737721232804,0.2054026514037803,-0.011016774966113222
1698411736211.0,0.01666666753590107,-0.02399287000596523,-0.05124854120016098,0.09463526298403739,-0.36526531771235166,-9.823409411621093,0.8421610184818505,-0.08117993323570888,0.2290584513051641,-0.039645459511368775
1698411736227.0,0.01666666753590107,-0.04938059190381318,-0.07098842993676661,0.0806886437613517,-0.39055414581298825,-9.843162744361162,0.8280963258374482,0.0843932037348693,0.15453455075584588,0.04031060254265166
1698411736244.0,0.01666666753590107,-0.04499693345949053,-0.06514438008368015,0.07631985409259796,-0.38621454570610075,-9.837325708770752,0.8236069785289466,-0.041597106025420584,0.15335491572120385,-0.04836894510279733
1698411736261.0,0.01666666753590107,-0.016886727795191108,-0.0195195239841938,0.033404183886572715,-0.35793307512812317,-9.791685070580243,0.7809591654788702,0.12013665087860385,0.10690996287044771,-0.23386034109594753
1698411736277.0,0.01666666753590107,-0.029055998614430426,-0.03223521317243576,0.03845905612334609,-0.36960473515614867,-9.804404266899823,0.7861967008061707,-0.07810291967440491,0.2158417817971382,-0.22760682266312482
1698411736294.0,0.01666666753590107,-4.058773871511221e-05,-0.0754290427327156,0.04049209632091224,-0.3402758013518527,-9.847650703430174,0.7876930037785321,-0.4012323657989646,-0.054449140815324336,-0.03125510572453702
1698411736311.0,0.01666666753590107,0.015717610950581728,-0.06190729785859585,0.01362045600824058,-0.32441425188593564,-9.834182734569907,0.7601595385562628,-0.14254960981509657,0.14874725943494266,-0.12163344948261512
1698411736327.0,0.01666666753590107,-0.03755085523724556,-0.030775662013888358,0.01454641174674034,-0.37753560122065244,-9.803059282031654,0.7610581678964197,-0.09828386083554473,0.24637298085114642,-0.1865901493150231
1698411736344.0,0.01666666753590107,-0.03518748710677028,-0.026563012754917143,0.01386018304824829,-0.3749917254241183,-9.798868844604492,0.7601601961433887,-0.11817426549290778,0.41920574179558867,-0.0773749442388432
1698411736361.0,0.01666666753590107,-0.011348638618737458,-0.04538578664660454,-0.00792377873659134,-0.351049781887792,-9.817723182678222,0.7380142691783607,0.005999280649224833,0.09690609028401283,-0.07484705387442446
1698411736377.0,0.01666666753590107,-0.013045578729733824,-0.03790975167751312,-0.021173720932006836,-0.3523964107237756,-9.810241302490233,0.7249965283036232,0.2514154480471877,0.043791581105711554,-0.1569485690601958
1698411736394.0,0.01666666753590107,-0.01094257856849581,-0.04316869511902332,-0.014241364385560154,-0.34970297038871795,-9.815478034099936,0.7324770202521235,0.061923348788981855,0.048304978780394574,-0.2255053655545823
1698411736411.0,0.01666666753590107,-0.0260111875584349,-0.043945524710416795,-0.002078632904961705,-0.3643674190245568,-9.816226222118734,0.7451961435064673,0.17503861856166547,0.007065854041751331,0.0017113625934848747
1698411736428.0,0.01666666753590107,-0.005822312945313751,-0.08184066334068775,0.026313933364674448,-0.3441663790496066,-9.854085120391845,0.7740769316844641,0.26041155423603496,0.00492962233239059,-0.02088690524488411
1698411736444.0,0.01666666753590107,-0.0018520210748538375,-0.0809843387722969,0.038542131296917796,-0.33997656267695125,-9.853186710247396,0.7869443043030798,0.3394453539891185,-0.01902362263569269,-0.08305216546044607
1698411736461.0,0.01666666753590107,-0.010788447452709078,-0.077925535723567,0.045479310148954386,-0.34880518129877747,-9.850044905090332,0.7950261962108314,0.32857217307813424,-0.03779403468420567,-0.18968673296912475
1698411736477.0,0.01666666753590107,-0.02898508880268782,-0.04538227951526642,0.05176533161588013,-0.36691140441894526,-9.817425076514482,0.8023584387950599,0.38771005866579383,-0.03543584183713935,0.06746895546692974
1698411736494.0,0.01666666753590107,-0.022723251928947863,-0.03512801200449466,0.04575630045942962,-0.36032724025566126,-9.807098328289388,0.7974190096314996,0.4420923983634056,0.008417918002403123,-0.21017996852180754
1698411736511.0,0.01666666753590107,-0.028460042015276847,-0.052877603706717485,0.04262326313070953,-0.3654148822508752,-9.824754981011152,0.7957737997077405,0.32181252695564305,0.20848281325540483,-0.14441389127275303
1698411736527.0,0.01666666753590107,-0.02642586930654943,-0.06804886935353278,0.04402268159985542,-0.36317039125971495,-9.839870132556557,0.7980190944164991,0.2980240986543993,0.4219532921109321,-0.17346663451593117
1698411736544.0,0.01666666753590107,0.0009081643534824251,-0.03518003445267677,0.04640395071320236,-0.33563703563529995,-9.80694869068563,0.801160753443092,0.2550836598378812,0.2861941843315108,0.041150662449710336
1698411736561.0,0.01666666753590107,0.00829407335370779,-0.054856794825196266,0.02144830008968711,-0.3284543941222131,-9.82655063225627,0.7770686608463525,0.043900614003433834,0.27913526386558196,-0.03659951530666043
1698411736577.0,0.01666666753590107,-0.014734773925691842,-0.06817746416926383,0.03937339448928833,-0.3514986581664532,-9.839869548034667,0.79502641540654,-0.05059961551661474,0.07737826595193564,-0.08227320372994726
1698411736594.0,0.01666666753590107,-0.033214214272424575,-0.059357613375782964,0.03600888649225235,-0.36975448235776276,-9.831040929412842,0.7918840987928211,0.15275830136524587,0.07142390847073819,-0.027636359444473194
1698411736611.0,0.01666666753590107,-0.015380049559287725,-0.06391513054966926,0.015543679155781864,-0.35194768057558684,-9.835531226569413,0.77228025752604,0.2752823434826072,-0.0012655326675828705,-0.02331322322582536
1698411736626.0,0.01666666753590107,-0.0017310981089249252,-0.03614391104876995,0.009165376295521855,-0.3381809844970703,-9.807699216791987,0.7667439584478736,0.38255163833642103,0.09756565043606202,-0.027997692459822737
1698411736644.0,0.01666666753590107,-0.010406133604235946,-0.03351473158895969,0.0316927037935704,-0.34656061724238096,-9.805003986358642,0.7902376467600465,0.18258715153329316,-0.04459329790491494,-0.134949383517231
1698411736661.0,0.01666666753590107,-0.008630904092639684,-0.04969079036414623,0.028876550394296645,-0.3446153649261221,-9.821164847564697,0.7876935883004218,0.02722217250433539,0.07442525634264312,-0.10850593261955639
1698411736678.0,0.01666666753590107,-0.024107180568017063,-0.06349369026720524,0.0368470178168267,-0.35987836397700007,-9.834930922588706,0.796222785584256,0.3321954550306938,-0.019913863422315135,-0.058651448052707736
1698411736694.0,0.01666666753590107,-0.017739764427952467,-0.05291676667332649,0.025821765933558342,-0.3532943459441885,-9.824306652721763,0.7858980101205408,0.07468977276052904,0.28563386869573176,-0.11202043847349819
1698411736711.0,0.01666666753590107,-0.0282221050735563,-0.03182897045910358,0.03765943017825484,-0.36346952033676205,-9.803206581547856,0.7980175600465387,0.1308208276486492,0.3054076932297418,-0.18182262391350132
1698411736728.0,0.01666666753590107,-0.04553900444693863,-0.06315232948362827,0.03519055584669113,-0.3806780274322256,-9.834482594299315,0.7962230778452009,0.243415455579678,0.5404387714381118,0.06483573077890471
1698411736744.0,0.01666666753590107,-0.010380853032507001,-0.05616261672675609,0.0314004428487271,-0.34566275508720423,-9.827449042400717,0.7929309044320136,0.03843945087518551,0.4598821329848063,-0.14786036203925915
1698411736760.0,0.01666666753590107,-0.00592296030819416,-0.05677870279848575,0.023531536104530095,-0.3411735904417932,-9.828046423771976,0.7852990213140845,0.1591929265327797,0.17686920264072145,-0.03595536977099005
1698411736777.0,0.01666666753590107,-0.009566358311846851,-0.07249123571515083,0.009435352343320847,-0.34476496599726375,-9.843760125732421,0.7712333057563752,-0.18518869321491432,0.1987945234230723,-0.0743244376812127
1698411736794.0,0.01666666753590107,-0.007829086190462112,-0.07413374222517014,0.019775544571876524,-0.3429693512847647,-9.84540672389567,0.7815580081548541,0.027662186097272307,0.19388276363618687,-0.02802079770912442
1698411736811.0,0.01666666753590107,-0.016032302922941742,-0.03344751157164574,0.034414383842423554,-0.3511994560241699,-9.804705880194902,0.7963719847965985,0.1449850391616689,0.10873260952263619,0.01739939998250502
1698411736828.0,0.01666666753590107,-0.006892718655802309,-0.045916532522439955,0.044857305793091655,-0.34207145259696986,-9.817124047741293,0.8074462634533643,0.41697293694765564,0.0348037758645421,-0.10396903282422831
1698411736844.0,0.01666666753590107,-0.018404219686053692,-0.06631167029738426,0.03421798448748886,-0.35314474487304687,-9.83747651541829,0.7975701816052198,0.2430793088868929,0.09267283375195282,-0.060980862724799426
1698411736861.0,0.01666666753590107,-0.018909137000888584,-0.05246960742771625,0.0451999086856842,-0.3538929328918457,-9.823559049224853,0.8093906024541705,0.37853084471025206,0.1961485721716328,0.15635074074483457
1698411736878.0,0.01666666753590107,-0.0010409238876774906,-0.030135610544681547,0.03211355955414474,-0.3363852236540988,-9.801112239617108,0.7975695240180939,0.4849618939260055,0.18491216393502138,0.10748327187390566
1698411736894.0,0.01666666753590107,-0.020431268534250556,-0.044434769532084466,0.02239296052865684,-0.3558381121428683,-9.815327811974287,0.7888907621957362,0.1886494780302084,0.11245830429210625,-0.049863342468428516
1698411736911.0,0.01666666753590107,-0.032241752511076624,-0.0682616353213787,0.009539324174448848,-0.367659555905126,-9.83912077549398,0.7764712064098567,0.06274902794618648,0.2708432541306278,0.08536092948246904
1698411736928.0,0.01666666753590107,-0.009557590483501553,-0.09582651859521865,-0.001169043779373169,-0.34536351641230284,-9.866654679107665,0.7659957704290747,-0.0020944401563873865,0.03408661267179738,0.1287122735466722
1698411736944.0,0.01666666753590107,-0.0016156185030937193,-0.055579263880848884,-0.016963994282484053,-0.3377319986205548,-9.826402748218179,0.7501346228219569,-0.15413301033784318,-0.021546932304396093,0.03685434005964009
1698411736961.0,0.01666666753590107,-0.00150470547452569,-0.025638299125432966,0.01393032567501068,-0.3377319986205548,-9.796475227466225,0.780810039331764,-0.021308215858882828,0.18064539011723937,-0.00420264741282058
1698411736978.0,0.01666666753590107,-0.02627911777961999,-0.06559212385118007,0.0018388327997177838,-0.36257184084467586,-9.836427298626303,0.7686885166443884,0.22663034573565102,0.18918467404448913,-0.026358660502431238
1698411736994.0,0.01666666753590107,-0.016662490585260092,-0.07013444345593452,0.029824571834132074,-0.3531446718078106,-9.840916426739096,0.7972703218758106,0.25858223747723513,0.6054597177374003,-0.00372987025620876
1698411737011.0,0.01666666753590107,-0.0341945670792833,-0.01988075851202011,0.026810776970908043,-0.370652198382467,-9.790638776397705,0.7945763335514813,0.21992958331432472,0.5140553514999393,-0.11273664784099749
1698411737028.0,0.01666666753590107,-0.035783078379742796,-0.016802666240930558,0.014045987943932412,-0.37229824855644256,-9.78749580219686,0.7826057636421173,0.2667592012133569,0.6952982631076358,0.110781186025964
1698411737044.0,0.01666666753590107,-0.025720168722607194,-0.0663970104932785,0.00027114509157836434,-0.3627214419158175,-9.837025264519452,0.7694378737069666,0.12656145764920576,0.814545735414095,0.0941643496315279
1698411737061.0,0.01666666753590107,-0.014574322666972875,-0.08391980770230292,-0.01931625649705529,-0.3523964107237756,-9.854532864159346,0.7496851254887879,-0.17327198746479905,1.1604676028402665,0.31998534463095885
1698411737078.0,0.01666666753590107,0.004447334797680377,-0.07520750893652439,-0.009385302656516431,-0.3359362743102014,-9.845853298619389,0.7580654888864606,-0.43619138172477906,2.037825358687386,0.8463167872252324
1698411737094.0,0.01666666753590107,0.0012295417949557304,-0.0221381820499897,-0.05356792405843734,-0.34222116326596586,-9.792733702850342,0.7131734040409327,-0.10608712517865951,2.5840330252923667,1.107560317199113
1698411737111.0,0.01666666753590107,-0.021778883750922975,-0.03048457011282444,-0.0692809684317559,-0.3688566932678222,-9.800964940100908,0.697312329499051,0.20956274353642051,3.1674509221653424,1.3590567403405625
1698411737127.0,0.01666666753590107,-0.013048282143473625,-0.026335633739829063,-0.08312485793232917,-0.36616317986752833,-9.796474642944336,0.6850421190559863,1.1036423499364645,3.6118334882935383,1.624262953971814
1698411737144.0,0.01666666753590107,0.01615885191205889,0.050614334949851035,-0.08293189264349639,-0.3419218515258282,-9.719113170844317,0.6881855316482484,1.5112962141331518,3.4851550369743696,1.6121321111190483
1698411737161.0,0.01666666753590107,0.05381166968643665,0.05219195953011512,-0.09780454066991806,-0.30885194109492004,-9.71701765986979,0.6777100956674664,2.224465827286685,3.2757211598976803,1.4897219944226088
1698411737178.0,0.01666666753590107,0.07119856555610894,0.07000818672776221,-0.08296352989077567,-0.29598314370419826,-9.69846201248169,0.6997062388982623,2.065583034030906,2.074451607781344,0.7324066808683151
1698411737194.0,0.01666666753590107,0.018591376288607714,0.06907353622615336,-0.12768880680203437,-0.35000224559623744,-9.698911509814858,0.660352937348932,2.303030078214756,0.6518498289715979,0.24579951176512982
1698411737211.0,0.01666666753590107,0.030028862234577534,0.013752631020545959,-0.061189066586643456,-0.3384800770414993,-9.753826756829023,0.7318788351632655,1.4561117007340338,0.4247574049303397,-0.3821367577051957
1698411737228.0,0.01666666753590107,0.03238229349292814,0.01217617548406124,-0.09596329671740532,-0.33369181985165924,-9.75517524882853,0.7010528312016278,1.2462801785816027,0.10114222830212896,-1.0097982187831338
1698411737244.0,0.01666666753590107,-0.006668627576343715,-0.06677811876535415,-0.10469963394589722,-0.36960477168876676,-9.834033681488037,0.694917908643186,0.8321566311370324,-0.42177645424445226,-1.3216115088764369
1698411737261.0,0.01666666753590107,-0.023769692241959274,-0.15815993291139602,-0.08588372818641364,-0.3826233528137207,-9.925613064032792,0.7131748653456569,-1.611797858736541,-3.009026391914189,-1.5596792465011122
1698411737278.0,0.01666666753590107,-0.06073003424014896,-0.42809447965621944,0.20370931262187658,-0.4125508005004376,-10.197053923687339,0.9873098594550043,-7.264403932344325,-3.7500837741705895,-2.0786515337906675
1698411737294.0,0.01666666753590107,-0.14170944110900163,-0.6145546243786811,0.2004068370103836,-0.4867710154326632,-10.385448835864663,0.9626202393565326,-9.71275012713251,-4.4905172613349915,-2.3466361403102334
1698411737311.0,0.01666666753590107,-0.14115224561765788,-0.6520739154338836,0.3017687779009342,-0.4795885200500488,-10.42540207606852,1.035194477180019,-13.47874141188006,-5.178456048972792,-2.2843281664936153
1698411737328.0,0.01666666753590107,-0.17418379679955542,-0.6041226622134447,0.5819336267590522,-0.501734848873876,-10.381707311248778,1.261595733277127,-17.989784245444586,-4.543301390127674,-3.4920185233165864
1698411737345.0,0.01666666753590107,-0.1782484889551997,-0.6504740790218114,0.6783516815066337,-0.49500112017206843,-10.43168685542643,1.3091808565989136,-20.575232827442438,-3.8900112983757023,-4.299559686293422
1698411737361.0,0.01666666753590107,-0.21218542801160364,-0.6445616401076316,0.7762989185828715,-0.5158008201599121,-10.429592513495683,1.3519769555458798,-22.838839480654705,-2.331091696976342,-5.799624614831839
1698411737378.0,0.01666666753590107,-0.2871916787549853,-0.5832534771859645,0.7788648966133594,-0.5720644678420387,-10.373328189960121,1.272519680210389,-25.419028816991645,-1.8791779935145607,-4.638564172915957
1698411737395.0,0.01666666753590107,-0.28685236379802226,-0.2160439666032791,0.914589710354805,-0.5582978265624493,-10.009708812823892,1.3398556155215948,-28.01464242802177,-0.7513212889490786,-5.266028465642464
1698411737411.0,0.01666666753590107,-0.25591095329578967,-0.5376882423192262,0.7989525758743286,-0.5147533569335937,-10.334573219630121,1.1517618782479315,-28.56558085440063,-1.82296340221124,-4.5567321033568575
1698411737428.0,0.01666666753590107,-0.1916152989959344,-0.4035486519426107,0.8151461703062057,-0.4357446473495103,-10.203939007025957,1.0664676038546488,-31.103814046213476,-1.793670855295171,-4.641384614156349
1698411737445.0,0.01666666753590107,-0.06718503733212128,-0.16352642838060855,0.6235352186918258,-0.29658162105400115,-9.966015217047929,0.7938293693753891,-31.880823196383297,-1.5614930886125737,-6.377407392196143
1698411737461.0,0.01666666753590107,-0.12922580711096524,-0.43067923545241354,0.5168015216350555,-0.342071489129588,-10.23461413127482,0.6060328523494769,-32.03367258472443,-2.925141210179266,-6.790308549222693
1698411737478.0,0.01666666753590107,-0.06737418496236204,-0.4321960697561502,0.652280251660943,-0.2551320596114732,-10.237008332934975,0.6238405902799917,-37.21745148549478,-2.064894465585204,-7.775251709616151
1698411737495.0,0.01666666753590107,0.0576907213431783,-0.40595512856245036,0.29809916774379086,-0.10938501528315245,-10.210371670421958,0.17208473302791824,-38.75762157729221,-2.194890254406883,-8.771126587776212
1698411737512.0,0.01666666753590107,0.09584786277734673,-0.23747838429808615,0.33225860871076585,-0.052073803910007696,-10.040383352550863,0.10519675154676661,-40.50604755197793,-3.0556326146025943,-7.202404597700827
1698411737528.0,0.01666666753590107,0.02891344833858311,-0.43258711490035057,0.30670389621555805,-0.09412199796596542,-10.231471741595863,-0.06359455682579428,-43.32780018869071,-3.569161241123649,-7.311525407428244
1698411737545.0,0.01666666753590107,0.01118045157813467,-0.6213952840536833,0.2796382677007466,-0.09352343841777183,-10.415524240654706,-0.20455310650225728,-45.90171258118041,-3.3275992214082772,-7.180940728234062
1698411737561.0,0.01666666753590107,-0.021061410530796274,-0.6705208417505025,0.3524679050574079,-0.10833749725790694,-10.45817212677002,-0.251389713011682,-47.97777931525705,-3.594834001223023,-6.879114241924375
1698411737578.0,0.01666666753590107,0.015169073689728975,-0.4825602293372154,0.4769996726006269,-0.04893141423105262,-10.258405925750731,-0.2970294744193554,-52.394329896749035,-4.499408460087056,-8.041269648541576
1698411737595.0,0.01666666753590107,-0.05462495883069932,0.022993922096490857,0.6666285104870796,-0.09726431457968428,-9.740809454345703,-0.24809834331609307,-58.154552857806365,-4.263519766251027,-9.713131763952385
1698411737611.0,0.01666666753590107,-0.14884250785931943,-0.17715455623865126,0.6889167685322463,-0.16684581174441845,-9.925613064032792,-0.3776838505849242,-60.1219068859585,-3.5820585592673373,-10.197401567616398
1698411737628.0,0.01666666753590107,-0.1669528956979513,-0.8581167125046253,0.644277562469244,-0.15547338354142848,-10.582072062683105,-0.6265317701593041,-60.998746081037226,-3.3179607572723318,-7.700841067477093
1698411737645.0,0.01666666753590107,-0.19895466544069348,-0.869728824365139,0.7264841365128755,-0.1705867815211648,-10.571747652545572,-0.7019486840628087,-63.2968588499364,-2.9605540334784894,-6.748860400018117
1698411737661.0,0.01666666753590107,-0.17160817415788768,-0.6779933695882558,0.8678045783042907,-0.12704222056076395,-10.354473851886391,-0.7240950494192541,-66.01910587572584,-3.5643433964378515,-7.257490927130626
1698411737678.0,0.01666666753590107,-0.16865049339607358,-0.16648878531754016,1.0258053751312195,-0.09876065865124109,-9.801713128119706,-0.7984649384878575,-72.09033125535595,-3.0272533920446025,-9.26368397222439
1698411737695.0,0.01666666753590107,-0.09085595450787805,-0.21720190446674822,1.1295274692818522,0.0022446462547872216,-9.815330734583736,-0.8798683794550597,-74.98780678430208,-3.400116193599949,-10.160640635729743
1698411737712.0,0.01666666753590107,-0.06065460351691581,-0.5357277559012175,1.3825867229409514,0.05386964695136994,-10.091859272766113,-0.8168708021417259,-76.75903876062647,-1.1538558730019886,-7.674220405186968
1698411737728.0,0.01666666753590107,-0.1435512787165586,-0.891347950977087,1.524108970914781,-0.006883265840867534,-10.384400788116455,-0.9322413946405053,-77.86363744376844,2.054070750184849,-5.59889560040892
1698411737745.0,0.01666666753590107,-0.28827846934469414,-0.9927753583192824,1.4519076580569148,-0.14035998099511487,-10.433334038111568,-1.198446983990073,-79.58043281240782,2.2352839931583386,-2.847155817783353
1698411737761.0,0.01666666753590107,-0.20855476162536069,-0.7964297793984413,1.5354200540021061,-0.05207379477685317,-10.178649667468667,-1.3141159749135374,-82.18696960346809,4.810831789067434,-2.015584768645943
1698411737778.0,0.01666666753590107,-0.13530859762337058,-0.8731190513253212,1.2065092944145202,0.03307005656138062,-10.16997010192871,-1.9096736378774046,-82.62481888021176,4.160578570175179,-2.568303739964062
1698411737795.0,0.01666666753590107,0.010594002592843025,-1.0821814884781837,1.0755018645837902,0.18734637123877182,-10.308085025677084,-2.24441354200989,-85.89016839785478,3.495085278253922,-1.5758755460139167
1698411737812.0,0.01666666753590107,0.09196078307777643,-1.3014870872259139,1.0148311227828264,0.27368723207553847,-10.450092280688882,-2.5122648527398703,-86.43411100297625,2.518081358996958,-0.24393897890738891
1698411737828.0,0.01666666753590107,0.15642401249688118,-1.5039058485805987,0.43592648845613,0.3374329060761258,-10.543615783038735,-3.3616075994193553,-83.73221111072426,0.7956781382447281,1.7098593115372371
1698411737845.0,0.01666666753590107,0.02551808854555711,-1.5136433987408875,-0.06130991648733616,0.20231013161474837,-10.469693637737631,-4.052334486113488,-81.19592964546675,0.3337488428191957,2.2085166952444704
1698411737861.0,0.01666666753590107,-0.04013407666347921,-1.522512349373102,-0.035308044746518136,0.13377610909277574,-10.39397817927897,-4.2111002759635445,-76.58415176692829,2.1508799304899062,1.2002125803422765
1698411737878.0,0.01666666753590107,-0.2588966180430725,-1.2583809359490872,-0.39731706407666206,-0.08469481066279112,-10.02377474757731,-4.791395195604861,-65.76523457446564,1.6245596403138867,0.4027261495147875
1698411737895.0,0.01666666753590107,-0.3769492527000606,-1.4062988763093947,-0.5124857042625546,-0.20066393531030044,-10.10038861618042,-5.045928759600222,-56.776036268190204,3.3990617831468284,0.9686344829244653
1698411737912.0,0.01666666753590107,-0.33272520330920813,-1.5656769528388976,-0.3947884223818779,-0.1539769846709445,-10.194660891070962,-5.050867092785239,-52.43043769179631,5.699778348223655,0.2829993366668109
1698411737928.0,0.01666666753590107,-0.1567516004834324,-1.8321826941788195,-0.21863398309648036,0.03950438219150528,-10.377069130054116,-5.026625216454267,-49.7773087653128,10.175900132109199,-2.894907377818204
1698411737945.0,0.01666666753590107,-0.33498277297765017,-1.1531634886741637,-0.33572365447282787,-0.12075743663627654,-9.635614803424478,-5.252279307445884,-47.92815799093691,9.770641956763892,-0.7728827554157808
1698411737962.0,0.01666666753590107,-0.4439983704265207,-1.1940180616319178,-0.31844109576046464,-0.22011682379906997,-9.616910687476397,-5.335926143425703,-44.15015837985483,9.421994096806946,3.0543442701704007
1698411737978.0,0.01666666753590107,0.028578480763174593,-0.6557587414264678,-0.3629068449527025,0.25707743979189546,-9.004593028369545,-5.502472796410322,-40.2185853803796,8.162700166700647,3.5166876724947915
1698411737995.0,0.01666666753590107,0.22676449991893022,-0.260306302177906,-0.5275976409375668,0.4590882779328152,-8.555979492297768,-5.75236817921102,-38.355763982379926,5.370226416525593,1.3967447636853407
1698411738012.0,0.01666666753590107,0.4251528001811355,-0.6034644905656575,-0.645924160632491,0.6636428457397967,-8.831163045611977,-5.976823415806889,-35.64269673083498,3.332793153385249,-0.014719297785215487
1698411738028.0,0.01666666753590107,0.5293240994039923,-0.8360808217853307,-0.7053466559380293,0.7710826635056175,-9.016115123859047,-6.108954588970541,-32.48143588104837,2.0771187966522344,0.7130921331951354
1698411738044.0,0.01666666753590107,0.4920562258265912,-0.966957026451826,-0.7526578576892614,0.733074712150637,-9.10305457164347,-6.222230255016684,-29.829399784832063,0.5792549499347058,1.8287233861156764
1698411738061.0,0.01666666753590107,0.405404289746657,-0.9394044181376695,-0.6934101344287396,0.6414965169159695,-9.03407105178833,-6.224324596947431,-27.83739389641806,-1.938769899919041,1.7132046101266625
1698411738078.0,0.01666666753590107,0.33590091073587536,-0.7894985188305378,-0.7430138310313225,0.5630863577469252,-8.833257387542725,-6.348074895256757,-24.733506635659563,-3.885741149483975,0.31152562173536913
1698411738095.0,0.01666666753590107,0.25677768966034054,-0.655706134456396,-0.6775052938103675,0.4779426160065457,-8.664916252356766,-6.3320636716544625,-22.02452895988015,-4.048983951307749,0.004296482472628919
1698411738112.0,0.01666666753590107,0.14094119668286292,-0.6008224516242742,-0.6297346578538418,0.35359373074956235,-8.569895789447425,-6.3410425124019385,-18.78388935910695,-4.095714398061683,0.35823064204290145
1698411738128.0,0.01666666753590107,0.12320402607079595,-0.5971463934600353,-0.5965232931256294,0.3287538885254413,-8.540118490821122,-6.344334539684653,-15.989797280985426,-4.407815196430362,0.5962056651856792
1698411738145.0,0.01666666753590107,0.03614197482001036,-0.501349100959301,-0.5492243663340807,0.23298582211919128,-8.422353112140298,-6.327575128063559,-13.07051637311403,-4.81801757496111,0.6426839285488524
1698411738162.0,0.01666666753590107,-0.08827453231308609,-0.30448914277553557,-0.40089199995398517,0.09786306592412293,-8.20358293544352,-6.2095104741752145,-8.56107778023081,-5.900093709314965,-0.4310476356299512
1698411738178.0,0.01666666753590107,-0.11093321283953264,-0.21769290285408496,-0.28526947852075096,0.06658882500464096,-8.106768574854732,-6.1077574881404635,-4.715491739764165,-5.878619594564445,0.2814418934534893
1698411738195.0,0.01666666753590107,0.002293115905858576,-0.048345220974087715,-0.03944119902849197,0.16879129010625182,-7.933038147845864,-5.868187099999189,-1.149786467638836,-5.503468893080556,1.8315950537748438
1698411738212.0,0.01666666753590107,-0.04023373764567077,0.06716273416876793,0.025623101556301115,0.10863698252798057,-7.821109804755449,-5.798755251854658,4.744932416407858,-5.821666062170294,2.6900038371519375
1698411738228.0,0.01666666753590107,-0.05991020575724542,0.10477613324820995,0.09797872819304465,0.0743699895333033,-7.794175036078691,-5.7122647168815135,8.83764750765026,-5.5355490109516365,3.296600194416763
1698411738245.0,0.01666666753590107,-0.03165281017459929,0.2726408830940723,0.34488545057177544,0.08619133283086121,-7.642591558948158,-5.443516165050864,12.498108954626527,-5.461986166043307,4.775284069532102
1698411738262.0,0.01666666753590107,0.07697408021762966,0.38453064773976803,0.4572632909953594,0.16909057444692588,-7.561188702502847,-5.289688708385825,17.494441851362335,-4.414674413904347,6.61560511685846
1698411738278.0,0.01666666753590107,0.13810911506209522,0.40852877844274044,0.5109276611655951,0.20904382378393782,-7.565976521301269,-5.196314259117841,20.87068632036968,-4.847089421389623,7.204802847873148
1698411738295.0,0.01666666753590107,0.15690869074128566,0.37342005566060543,0.43148587566018104,0.20530289738967547,-7.634660765948891,-5.228785619133711,24.322658804252246,-4.652925072532732,7.6050920605972685
1698411738312.0,0.01666666753590107,-0.006328107042983174,0.40056174508631226,0.4089338521122932,0.012719252260151552,-7.658004232135415,-5.1794052098929875,27.69947530160258,-3.9198319042919776,7.647602304217782
1698411738328.0,0.01666666753590107,-0.04573474621474743,0.4528180020242929,0.36785306918323035,-0.047135805654891734,-7.64812815028727,-5.15890544269979,30.76845858815502,-2.1562106796936895,7.840908610560191
1698411738345.0,0.01666666753590107,-0.0943443902786821,0.4726473226100206,0.5180903924018144,-0.12165531249118502,-7.690177485987544,-4.916792384338379,34.086274203907486,-1.6973713778569266,8.462800749584437
1698411738362.0,0.01666666753590107,-0.0877291003247723,0.6418237395763396,0.614825258013606,-0.13542191267157905,-7.571064784350991,-4.743960367473959,37.186968351229005,-1.7513873952994434,8.295381713970022
1698411738378.0,0.01666666753590107,-0.023598861153121105,0.7843436202853917,0.6768231567651033,-0.09187737454406451,-7.481580912780761,-4.599558910802006,39.21113247780272,-2.869069199074869,8.048455861322076
1698411738395.0,0.01666666753590107,0.09515942385545931,0.7749123595952987,0.7102946337342262,-0.0023940920623019336,-7.5656789996594185,-4.446780670928955,43.55737650707318,-4.31765755315984,7.612628320572732
1698411738412.0,0.01666666753590107,0.23203060375358908,0.824936911958456,0.7858470105856656,0.11282686283271759,-7.575104999652504,-4.273348934605718,45.547775593484936,-5.080913690549017,6.18039528134218
1698411738429.0,0.01666666753590107,0.3343424292474985,0.7790063509106636,0.752919723495841,0.197222498752689,-7.682095301818848,-4.203019845360517,47.91285836719608,-5.38489894352325,4.040649412973041
1698411738445.0,0.01666666753590107,0.3473358759311959,0.6487164216995239,0.7329600545287132,0.19557643944555891,-7.875128395190835,-4.113836125780642,50.24112300618627,-5.963970065319748,3.062835689412607
1698411738462.0,0.01666666753590107,0.10394702548030764,0.5794383028119802,0.8181044355899095,-0.06524194044033065,-8.029405349189043,-3.875463422991335,52.42570095560691,-6.046559432103073,1.604364691928863
1698411738478.0,0.01666666753590107,0.0021458163896575567,0.6300146438390016,0.7362713710337877,-0.17612336829369887,-8.04362033702433,-3.836108440941572,54.420570400830435,-5.4115102143032665,0.5024670817993664
1698411738495.0,0.01666666753590107,-0.17967512422483414,0.6980833869367837,0.790365364792943,-0.3660134874648414,-8.062623728179931,-3.612550445446372,57.5457849272723,-5.869322853330411,-0.5886503553857344
1698411738512.0,0.01666666753590107,-0.10171824351493268,0.9805243640333413,0.7385662039726972,-0.29328961203759535,-7.84669666595459,-3.5292020078912376,59.71992293254657,-5.399276918612951,-0.633633234207498
1698411738528.0,0.01666666753590107,-0.037015104392729696,1.0795879648536444,0.7685685435265303,-0.23403312094872816,-7.813627340045571,-3.3596620183095336,60.81371625642158,-5.15723294367427,0.07073661401539905
1698411738545.0,0.01666666753590107,0.0017804354096762835,0.9599602994322777,0.7780202624827622,-0.20260924242548645,-8.020425339397788,-3.1566037900075314,63.70355563387564,-3.7378500515934507,1.1290680492869545
1698411738562.0,0.01666666753590107,0.16086122775934636,1.0288795218795537,0.8024141145050525,-0.04938029964286834,-8.016835205951333,-2.979283814074099,65.60205452500487,-1.8093072927394458,0.943994255328527
1698411738579.0,0.01666666753590107,0.24916569855296983,1.0723422315090894,0.7803983897909521,0.03426712085884064,-8.037484026226402,-2.843861782671511,66.92312239351206,-1.447421032067133,1.949821359439533
1698411738595.0,0.01666666753590107,0.19205422013616189,1.1250590916961432,0.7260887074545025,-0.03336907604057342,-8.066813581085205,-2.6840485295951364,67.7934660786901,-1.1999021269001584,4.133848624858334
1698411738612.0,0.01666666753590107,0.07404690419193356,1.1602706903308628,0.6811559252724051,-0.16534946082299573,-8.090455737957358,-2.564936704741418,67.97321616707733,-1.4683676214259755,6.001437068011852
1698411738628.0,0.01666666753590107,0.08549606230938807,1.183372164455056,0.6038745326712727,-0.17163422191459685,-8.123226957702636,-2.476950085991621,68.19576422080385,-2.0445697436059502,7.090196542468565
1698411738645.0,0.01666666753590107,0.11604176975861191,1.2161135735839605,0.45803252180218695,-0.16699551099697127,-8.160636943164468,-2.399736790190637,68.90598095108012,-2.2911976292513554,6.709306774534573
1698411738662.0,0.01666666753590107,0.24119574258709325,1.1459797146499155,0.41195261541157957,-0.05970529430229216,-8.28034644165039,-2.275836854277551,69.893025248417,-2.7707507604066515,6.470476403600383
1698411738679.0,0.01666666753590107,0.25065953557360915,1.1555921771258115,0.29013737681806084,-0.06703753688652068,-8.317606789508462,-2.225409274071455,68.99014254203301,-1.0272815820676624,5.755434144675504
1698411738695.0,0.01666666753590107,0.34566812538206576,1.2076812608033418,0.33216362390369175,0.013467530468851328,-8.322842936596274,-1.9545650651358066,69.46788012352955,1.198020303062114,3.2521339553726873
1698411738712.0,0.01666666753590107,0.2215276952439919,1.0221826545894146,0.2702376213446259,-0.1161186709197238,-8.547897892650962,-1.8439824375659226,69.08868851137795,1.3902445580296043,1.8532885883524504
1698411738729.0,0.01666666753590107,0.213980786995776,1.001692824268341,0.16447291545048356,-0.12853862856440246,-8.604760766601562,-1.7769455217339098,69.09295737960922,0.7997008528616012,2.4395608639682567
1698411738745.0,0.01666666753590107,0.2260265410332009,1.0944196232825516,-0.023372692281007766,-0.12554587648920715,-8.55508108215332,-1.7362438012503087,66.39673337455751,-1.1024789766217409,2.754979853613092
1698411738762.0,0.01666666753590107,0.2864815211916342,1.307473760420084,-0.30074630298539995,-0.07287340343315155,-8.369529868969321,-1.848921209142357,64.04334388470544,-1.4817513771046154,2.999669673081506
1698411738779.0,0.01666666753590107,0.3871034573698416,1.5332611224025487,-0.45322585217282174,0.018854447671584784,-8.167519688415528,-1.842337008446455,61.416275545000104,-1.1950253718327692,3.560203448027177
1698411738795.0,0.01666666753590107,0.5600681972358376,1.9710159953296182,-0.6351001304097473,0.17821842261049894,-7.75601803164184,-1.8222859348688274,58.27155399828868,-2.507360523320977,4.241389526453362
1698411738812.0,0.01666666753590107,0.6415701301414519,2.2416636587798595,-0.7262806498300284,0.24720139447636902,-7.50178140476644,-1.765572479326278,57.82155381501156,-2.7224698607111235,4.883923777809856
1698411738829.0,0.01666666753590107,0.6717103437960148,2.1943881128638982,-0.7945920425772667,0.2629133428711444,-7.562834131622314,-1.68895875685364,55.356128732203764,-3.4482888774858145,5.971684763987277
1698411738845.0,0.01666666753590107,0.6553695229131729,1.9398212311208247,-0.9974830976188183,0.2223615522522479,-7.831284577289223,-1.7105067179255187,50.6732178485542,-5.546890540068443,7.855777932383308
1698411738862.0,0.01666666753590107,0.7547400707907974,1.4773995344489812,-1.19269002789855,0.29927531711738553,-8.300997015491127,-1.7808360263664273,46.6109457642162,-7.094360396541334,8.862705764167744
1698411738879.0,0.01666666753590107,0.7848468936324119,1.1837813297778368,-1.2412784099787473,0.30541042233891785,-8.59967308807373,-1.7151451548485084,42.11863813954501,-5.532894201798618,8.806124477083358
1698411738895.0,0.01666666753590107,0.6002035160083323,0.6551648671865463,-1.4320026418864726,0.0936732495514676,-9.132532595062255,-1.7708100877188144,36.92845593642778,-0.6850821143782949,6.787656301390612
1698411738912.0,0.01666666753590107,0.28615510224886237,-0.07310965987443924,-1.556539706659317,-0.23463168963007627,-9.862764101409912,-1.8052269923118873,33.53560727754814,2.8898658444370886,4.268198872719308
1698411738929.0,0.01666666753590107,0.20103362713921813,-0.2708849793374538,-1.5604647711485624,-0.3259106279235333,-10.06193233653605,-1.7281635350440627,30.69808031894721,7.850635653711935,0.7590400430414277
1698411738945.0,0.01666666753590107,-0.1936066920088604,-0.8564531632065773,-1.4851643232315779,-0.7152676363738253,-10.648960071563721,-1.5563795750610063,26.319061626944443,8.425143355369217,-3.5676731136582327
1698411738962.0,0.01666666753590107,-0.4934293773433193,-1.2626333326965569,-1.4010305805176495,-1.0040682481627912,-11.055973769268393,-1.4113805828958108,21.842285852445873,9.58407875467958,-4.348938538898029
1698411738979.0,0.01666666753590107,-0.39466245791465043,-1.3552712843835353,-1.2021768181681631,-0.8952816736968233,-11.149049527850746,-1.1610372542565688,19.90631825107724,12.191912427908502,-3.4792505518803054
1698411738995.0,0.01666666753590107,0.20512601101938635,-1.520084245443344,-0.6479810931622981,-0.2849098514281213,-11.313948413628339,-0.5457269709386863,17.000284495101084,12.996031452667749,-2.637688856977871
1698411739011.0,0.01666666753590107,0.7682898727156221,-1.1632903304129838,-0.42711832810044287,0.2825158689636737,-10.956914844623208,-0.2880509259328246,12.723990140668018,12.407763481153829,-0.9886347709181436
1698411739028.0,0.01666666753590107,0.922929960937798,-0.8305740410625934,-0.4612462231516838,0.437390752322413,-10.623821538653969,-0.2970284697723575,7.959784637969677,7.775179992629865,0.3728001559140527
1698411739045.0,0.01666666753590107,1.1803843808159231,-0.16809388242661952,-0.40200843676328657,0.6934206558227539,-9.960926953998207,-0.21846998817380517,4.391458174028651,2.469501425081831,-0.03664121681319454
1698411739062.0,0.01666666753590107,1.0657982897583396,0.2725251477599144,-0.37549218575954435,0.5808932143280282,-9.520243626403808,-0.1833044389042072,2.3811130142497534,0.8858071267372479,-1.457036017427807
1698411739079.0,0.01666666753590107,0.8477911333233118,0.34773908643722534,-0.4355903883695602,0.3663129636017605,-9.445125549316407,-0.23971920376112682,0.47855987223958796,-1.9139865585156497,-0.5667529289892322
1698411739095.0,0.01666666753590107,0.4608475792229175,-0.03388765655457973,-0.6278782163321972,-0.02528875503540039,-9.826552970343828,-0.433498749852553,-1.6829750466338322,-5.118106205013851,3.889214727563749
1698411739112.0,0.01666666753590107,0.19902002229448407,-0.36563656217753887,-0.6177262401521205,-0.30136998784169555,-10.15769981842041,-0.4293092257408425,-3.429544490525772,-6.086873769905426,7.421122622850268
1698411739129.0,0.01666666753590107,0.05257105850819498,-0.37718729923963545,-0.7020914535343646,-0.46896417711786925,-10.168324088287353,-0.5231319484992883,-4.724206207371455,-6.448483194472942,9.224838978867234
1698411739145.0,0.01666666753590107,-0.199477118412219,-0.22648002042174337,-0.7928279555141925,-0.7534252983978018,-10.01614322978556,-0.6314700668117031,-6.0433454012117584,-8.077851287962517,10.208700408050891
1698411739162.0,0.01666666753590107,-0.464806984373182,-0.1785825432151556,-0.7691618332445621,-1.045667502008006,-9.966911289104818,-0.6221926175769884,-6.168436900765957,-14.229310045999116,11.378362619452759
1698411739179.0,0.01666666753590107,-0.5031552370658144,-0.19280512983500955,-0.7427402747869492,-1.1140519234588369,-9.979481432342528,-0.6079771822171285,-5.464333189796853,-21.205486825558072,12.532471636340862
1698411739195.0,0.01666666753590107,-0.35230756339654323,-0.1466588802099228,-0.4165326366782188,-1.0043675233703107,-9.930849211120606,-0.2947852391565218,-5.399494630892744,-23.66435321921537,11.699469449128923
1698411739212.0,0.01666666753590107,-0.44255540507659313,0.3018623014032841,0.06713934416002594,-1.1218329692564903,-9.48058966140747,0.17941637282394804,-4.578333857267492,-21.691635785017485,9.96005847037398
1698411739229.0,0.01666666753590107,-0.6327073169890791,0.5169318700164556,0.32833880491852757,-1.333420540972799,-9.264063464245199,0.43559632492000233,-1.7830493775272722,-18.638807603399417,7.4351825672567395
