ts,interval,accx,accy,accz,accGx,accGy,accGz,alpha,beta,gamma
1698411735173.0,16,1.6,0.8,0.1,-1.5,3.0,9.3,9.4,-14.800000000000002,7.8
1698411735190.0,16,1.5,0.5,0.30000000000000004,-1.2000000000000002,2.8000000000000003,9.600000000000001,0.30000000000000004,-1.0999999999999999,6.5
1698411735206.0,16,1.0,0.5,0.30000000000000004,-1.6,2.9000000000000004,9.600000000000001,-1.0,9.8,4.5
1698411735222.0,16,0.8,0.5,0.1,-1.7000000000000002,3.0,9.4,1.0,8.700000000000001,3.7000000000000006
1698411735239.0,16,0.9,0.4,-0.1,-1.5,3.0,9.200000000000001,5.6,-1.4,2.5
1698411735256.0,16,0.8,0.4,-0.4,-1.5,3.0,8.9,5.4,-3.6,-0.7
1698411735273.0,16,0.6000000000000001,0.30000000000000004,-0.5,-1.6,2.9000000000000004,8.8,3.1,-4.0,-1.9
1698411735289.0,16,0.4,0.2,-0.30000000000000004,-1.8,2.8000000000000003,8.9,-2.7,-3.7000000000000006,-3.3000000000000003
1698411735306.0,16,0.30000000000000004,0.2,0.1,-1.8,2.9000000000000004,9.3,-4.5,-5.4,-2.5
1698411735322.0,16,0.4,0.2,0.30000000000000004,-1.7000000000000002,2.8000000000000003,9.5,-3.2,-7.400000000000001,-2.3000000000000003
1698411735339.0,16,0.5,0.2,0.4,-1.6,2.8000000000000003,9.600000000000001,-1.8,-4.800000000000001,-2.3000000000000003
1698411735356.0,16,0.4,0.2,0.2,-1.6,2.8000000000000003,9.5,-3.2,2.7,-1.7
1698411735373.0,16,0.4,0.2,0.1,-1.7000000000000002,2.9000000000000004,9.4,-3.5,4.2,-1.4
1698411735389.0,16,0.30000000000000004,0.1,0.0,-1.8,2.7,9.3,-1.0,0.9,-1.7
1698411735406.0,16,0.30000000000000004,0.1,0.0,-1.8,2.7,9.3,0.4,-1.4,-1.6
1698411735423.0,16,0.4,0.2,0.0,-1.6,2.8000000000000003,9.3,-0.2,-0.9,-1.6
1698411735440.0,16,0.4,0.2,0.1,-1.6,2.9000000000000004,9.4,-1.2000000000000002,-1.8,-2.1999999999999997
1698411735456.0,16,0.2,0.0,0.2,-1.7000000000000002,2.6,9.5,-0.5,-1.6,-2.8
1698411735472.0,16,0.1,0.0,0.2,-1.8,2.6,9.5,0.0,-1.0999999999999999,-2.4000000000000004
1698411735490.0,16,0.1,0.0,0.1,-1.8,2.7,9.4,1.7,0.7,-0.8
1698411735506.0,16,0.30000000000000004,0.1,0.1,-1.7000000000000002,2.8000000000000003,9.4,1.4,2.6,0.4
1698411735522.0,16,0.30000000000000004,0.2,0.0,-1.7000000000000002,2.8000000000000003,9.3,0.9,3.2,0.4
1698411735539.0,16,0.30000000000000004,0.2,0.0,-1.6,2.9000000000000004,9.3,1.8,1.4,-0.6000000000000001
1698411735556.0,16,0.30000000000000004,0.2,-0.1,-1.6,2.9000000000000004,9.200000000000001,3.1,-0.9,-2.8
1698411735573.0,16,0.30000000000000004,0.2,-0.30000000000000004,-1.6,2.9000000000000004,9.1,2.1,-0.5,-2.9
1698411735589.0,16,0.1,0.1,-0.2,-1.8,2.8000000000000003,9.1,-1.3,-0.8,-2.8
1698411735606.0,16,0.0,0.0,0.1,-1.9000000000000001,2.7,9.4,-2.4000000000000004,-0.7,-2.0
1698411735622.0,16,0.1,0.0,0.2,-1.8,2.7,9.5,-1.3,-1.0,-1.0999999999999999
1698411735639.0,16,0.1,0.0,0.1,-1.8,2.7,9.4,1.0,-0.9,0.2
1698411735656.0,16,0.1,0.0,0.0,-1.7000000000000002,2.8000000000000003,9.4,1.4,-0.2,0.6000000000000001
1698411735673.0,16,0.1,0.0,0.1,-1.7000000000000002,2.7,9.4,0.7,1.0999999999999999,0.8
1698411735689.0,16,0.2,0.1,0.0,-1.7000000000000002,2.8000000000000003,9.3,0.9,0.7,0.6000000000000001
1698411735706.0,16,0.2,0.0,0.0,-1.6,2.8000000000000003,9.3,2.3000000000000003,-1.8,0.2
1698411735723.0,16,0.2,0.1,0.0,-1.7000000000000002,2.8000000000000003,9.3,2.3000000000000003,-2.6,0.1
1698411735739.0,16,0.30000000000000004,0.1,0.0,-1.6,2.9000000000000004,9.3,0.6000000000000001,-1.9,-0.2
1698411735756.0,16,0.2,0.0,0.0,-1.6,2.8000000000000003,9.3,-0.9,-0.4,-0.7
1698411735772.0,16,0.2,0.0,0.1,-1.7000000000000002,2.8000000000000003,9.4,-0.8,0.1,-0.7
1698411735789.0,16,0.1,0.0,0.1,-1.7000000000000002,2.8000000000000003,9.4,0.1,-0.30000000000000004,-0.9
1698411735806.0,16,0.1,0.0,0.1,-1.6,2.7,9.4,1.2000000000000002,-0.1,-0.4
1698411735822.0,16,0.0,0.1,0.1,-1.8,2.9000000000000004,9.5,3.1,-1.0,-0.6000000000000001
1698411735839.0,16,0.1,0.1,0.0,-1.7000000000000002,2.9000000000000004,9.3,4.0,-0.4,-0.30000000000000004
1698411735856.0,16,0.1,0.1,-0.1,-1.6,2.8000000000000003,9.200000000000001,3.4,-0.7,-0.30000000000000004
1698411735872.0,16,0.1,0.1,-0.2,-1.7000000000000002,2.9000000000000004,9.200000000000001,2.6,0.2,-0.4
1698411735889.0,16,0.1,0.1,-0.2,-1.6,2.9000000000000004,9.1,0.8,-0.6000000000000001,-0.2
1698411735906.0,16,0.1,0.1,-0.1,-1.7000000000000002,2.9000000000000004,9.200000000000001,0.1,-2.7,-0.5
1698411735922.0,16,0.1,0.1,0.1,-1.7000000000000002,2.9000000000000004,9.4,-0.30000000000000004,-2.4000000000000004,-1.2000000000000002
1698411735939.0,16,0.1,0.1,0.0,-1.7000000000000002,2.9000000000000004,9.3,-0.5,-1.5000000000000002,-1.2000000000000002
1698411735956.0,16,0.1,0.0,0.0,-1.7000000000000002,2.8000000000000003,9.3,-0.1,-2.6,-1.0999999999999999
1698411735972.0,16,0.0,-0.1,0.0,-1.7000000000000002,2.7,9.3,1.3,-4.3999999999999995,-0.8
1698411735989.0,16,0.0,-0.1,0.0,-1.7000000000000002,2.7,9.3,1.0,-3.5,0.0
1698411736006.0,16,0.0,0.0,0.1,-1.7000000000000002,2.8000000000000003,9.4,-0.1,-1.5000000000000002,1.0
1698411736023.0,16,0.1,0.0,0.1,-1.6,2.8000000000000003,9.4,0.7,-0.4,0.8
1698411736039.0,16,0.1,0.1,0.0,-1.5,2.9000000000000004,9.4,1.2000000000000002,-0.7,0.7
1698411736056.0,16,0.1,0.1,0.0,-1.6,2.9000000000000004,9.3,1.9,-2.4000000000000004,0.4
1698411736072.0,16,0.1,0.0,0.1,-1.5,2.9000000000000004,9.4,1.8,-1.2000000000000002,-0.2
1698411736089.0,16,0.1,0.0,0.0,-1.5,2.9000000000000004,9.4,1.3,0.4,-0.8
1698411736106.0,16,0.1,0.1,-0.1,-1.6,2.9000000000000004,9.200000000000001,0.0,2.3000000000000003,-1.0999999999999999
1698411736123.0,16,0.0,0.0,-0.1,-1.6,2.9000000000000004,9.200000000000001,0.2,-0.2,-1.3
1698411736139.0,16,0.0,0.0,-0.1,-1.6,2.8000000000000003,9.200000000000001,0.7,-2.1,-1.0999999999999999
1698411736156.0,16,0.0,0.0,0.0,-1.7000000000000002,2.8000000000000003,9.3,-0.1,-4.0,-0.8
1698411736172.0,16,-0.1,0.0,0.1,-1.7000000000000002,2.8000000000000003,9.4,-0.5,-2.3000000000000003,-0.5
1698411736189.0,16,0.0,0.0,0.2,-1.7000000000000002,2.8000000000000003,9.5,-0.2,-1.9,0.30000000000000004
1698411736206.0,16,0.1,0.0,0.2,-1.6,2.9000000000000004,9.5,1.5000000000000002,-1.2000000000000002,1.0
1698411736223.0,16,0.1,0.1,-0.1,-1.5,2.9000000000000004,9.200000000000001,1.5000000000000002,-0.1,1.2000000000000002
1698411736239.0,16,0.2,0.1,-0.1,-1.5,3.0,9.200000000000001,1.0,-0.7,0.9
1698411736256.0,16,0.2,0.1,-0.1,-1.4000000000000001,3.0,9.200000000000001,0.30000000000000004,-1.6,-1.2000000000000002
1698411736272.0,16,0.1,0.0,-0.1,-1.5,2.9000000000000004,9.200000000000001,-1.5000000000000002,-0.7,-3.5
1698411736289.0,16,0.0,0.0,0.0,-1.6,2.8000000000000003,9.3,-2.1,-0.6000000000000001,-3.8
1698411736306.0,16,0.0,0.0,0.1,-1.6,2.9000000000000004,9.4,-1.7,-2.3000000000000003,-3.8
1698411736322.0,16,0.1,0.0,0.2,-1.5,2.9000000000000004,9.5,-0.7,-1.8,-4.0
1698411736340.0,16,0.0,0.0,0.1,-1.6,2.9000000000000004,9.4,-0.6000000000000001,-0.30000000000000004,-4.2
1698411736356.0,16,0.1,0.0,0.0,-1.5,2.8000000000000003,9.3,0.1,-0.9,-3.5
1698411736372.0,16,-0.2,0.1,0.0,-1.7000000000000002,3.0,9.3,1.9,-6.3,-4.0
1698411736391.0,16,0.2,0.0,-0.1,-1.4000000000000001,2.8000000000000003,9.200000000000001,0.30000000000000004,-4.9,-4.3999999999999995
1698411736406.0,16,0.2,0.0,0.1,-1.3,2.8000000000000003,9.4,-2.4000000000000004,-5.500000000000001,-5.7
1698411736423.0,16,0.2,-0.1,0.30000000000000004,-1.4000000000000001,2.8000000000000003,9.600000000000001,-3.0000000000000004,-3.3000000000000003,-7.1000000000000005
1698411736439.0,16,0.2,-0.1,0.30000000000000004,-1.3,2.7,9.600000000000001,-1.6,-4.0,-7.500000000000001
1698411736456.0,16,0.2,0.0,0.2,-1.3,2.8000000000000003,9.5,1.0,-4.2,-7.500000000000001
1698411736472.0,16,0.2,0.2,0.0,-1.3,3.0,9.4,-0.2,-2.7,-7.2
1698411736489.0,16,0.1,0.0,-0.1,-1.4000000000000001,2.9000000000000004,9.3,-1.9,-6.5,-5.7
1698411736506.0,16,-0.1,0.1,0.0,-1.6,3.0,9.4,-0.9,-9.8,-4.7
1698411736522.0,16,0.0,0.0,-0.1,-1.5,2.8000000000000003,9.3,1.3,-9.200000000000001,-2.1
1698411736545.0,16,0.1,0.1,-0.1,-1.3,2.9000000000000004,9.3,-2.1999999999999997,-4.0,-1.9
1698411736556.0,16,0.1,0.1,-0.1,-1.3,2.9000000000000004,9.3,-5.0,-0.4,-2.5
1698411736572.0,16,0.2,0.1,-0.1,-1.3,2.8000000000000003,9.3,-9.3,4.300000000000001,-4.2
1698411736590.0,16,0.2,0.1,0.0,-1.3,2.9000000000000004,9.4,-9.5,4.300000000000001,-4.9
1698411736607.0,16,0.1,0.1,0.1,-1.4000000000000001,2.8000000000000003,9.5,-9.0,3.7000000000000006,-5.8
1698411736622.0,16,0.1,0.1,0.2,-1.4000000000000001,2.7,9.600000000000001,-7.400000000000001,2.0,-6.6000000000000005
1698411736639.0,16,0.0,0.0,0.2,-1.5,2.7,9.600000000000001,-6.2,3.8,-6.1000000000000005
1698411736656.0,16,0.0,0.1,0.1,-1.5,2.8000000000000003,9.5,-5.9,5.500000000000001,-5.8
1698411736672.0,16,0.2,0.30000000000000004,-0.1,-1.3,2.9000000000000004,9.3,-6.000000000000001,9.3,-5.4
1698411736689.0,16,0.1,0.5,-0.30000000000000004,-1.4000000000000001,3.2,9.1,-8.799999999999999,8.200000000000001,-9.1
1698411736706.0,16,0.0,0.5,-0.30000000000000004,-1.6,3.1,9.1,-10.4,5.0,-10.9
1698411736723.0,16,-0.2,0.8,-0.4,-1.8,3.3000000000000003,9.0,-12.000000000000002,0.4,-10.4
1698411736739.0,16,-0.2,0.9,-0.4,-1.8,3.5,9.0,-14.100000000000001,-2.6,-10.0
1698411736756.0,16,-0.2,0.9,-0.5,-1.8,3.5,8.9,-15.399999999999999,-3.5,-9.9
1698411736773.0,16,-0.30000000000000004,1.1,-0.4,-1.9000000000000001,3.5,9.0,-19.500000000000004,0.4,-9.8
1698411736789.0,16,-0.6000000000000001,1.0,-0.4,-2.2,3.5,9.1,-23.6,5.6,-8.200000000000001
1698411736806.0,16,-0.7000000000000001,1.1,-0.30000000000000004,-2.4000000000000004,3.5,9.200000000000001,-23.400000000000002,4.6000000000000005,-5.0
1698411736822.0,16,-0.9,1.4000000000000001,0.2,-2.5,3.8000000000000003,9.700000000000001,-17.8,0.2,2.0
1698411736839.0,16,-1.0,1.5,0.30000000000000004,-2.6,3.8000000000000003,9.8,-5.6,0.1,7.6
1698411736856.0,16,-1.0,1.4000000000000001,0.1,-2.7,3.7,9.600000000000001,1.0,-1.5000000000000002,12.3
1698411736872.0,16,-1.0,1.4000000000000001,-0.1,-2.6,3.8000000000000003,9.4,12.8,-10.4,25.0
1698411736889.0,16,-0.6000000000000001,1.4000000000000001,0.0,-2.1,3.9000000000000004,9.4,22.000000000000004,-17.1,34.1
1698411736906.0,16,-0.4,1.5,0.0,-1.9000000000000001,4.1000000000000005,9.5,24.8,-16.6,35.7
1698411736922.0,16,-0.30000000000000004,1.5,-0.1,-1.8,4.2,9.3,26.3,-3.4,33.5
1698411736939.0,16,-0.6000000000000001,1.3,-0.5,-2.0,4.0,8.9,24.3,12.6,31.0
1698411736956.0,16,-0.6000000000000001,1.1,-0.7000000000000001,-2.1,4.0,8.700000000000001,23.1,18.0,30.7
1698411736973.0,16,-0.7000000000000001,1.0,-1.0,-2.2,3.9000000000000004,8.4,17.5,25.5,29.200000000000003
1698411736990.0,16,-1.1,1.1,-1.1,-2.7,4.0,8.200000000000001,11.700000000000001,27.8,31.0
1698411737007.0,16,-1.3,1.1,-1.0,-3.1,4.1000000000000005,8.4,9.9,28.6,33.5
1698411737025.0,16,-1.4000000000000001,0.9,-0.9,-3.1,4.0,8.4,11.6,28.700000000000003,41.5
1698411737040.0,16,-1.3,0.8,-0.9,-3.1,4.0,8.3,17.8,24.1,51.2
1698411737056.0,16,-1.4000000000000001,0.6000000000000001,-1.0,-3.2,3.9000000000000004,8.0,21.6,21.700000000000003,56.6
1698411737073.0,16,-1.4000000000000001,0.6000000000000001,-1.3,-3.1,3.9000000000000004,7.9,26.3,18.2,68.4
1698411737090.0,16,-1.3,0.5,-1.3,-2.8000000000000003,3.9000000000000004,7.800000000000001,26.1,14.700000000000001,79.10000000000001
1698411737107.0,16,-1.0,0.4,-1.3,-2.7,3.9000000000000004,7.800000000000001,25.5,12.100000000000001,83.10000000000001
1698411737124.0,16,-0.8,0.6000000000000001,-1.0,-2.4000000000000004,4.3,8.1,23.900000000000002,4.0,86.3
1698411737140.0,16,-0.30000000000000004,0.5,-0.4,-1.8,4.3,8.6,23.400000000000002,-1.8,83.60000000000001
1698411737157.0,16,-0.30000000000000004,0.4,-0.30000000000000004,-1.7000000000000002,4.3,8.700000000000001,22.2,-2.7,79.6
1698411737173.0,16,-0.7000000000000001,0.4,-0.30000000000000004,-2.0,4.3,8.700000000000001,14.600000000000001,0.1,66.80000000000001
1698411737190.0,16,-1.4000000000000001,-0.2,0.2,-2.7,3.8000000000000003,9.1,4.800000000000001,0.4,59.80000000000001
1698411737206.0,16,-1.5,-0.8,0.7000000000000001,-2.8000000000000003,3.3000000000000003,9.700000000000001,1.2000000000000002,-1.0,59.300000000000004
1698411737223.0,16,-1.5,-1.6,1.8,-2.7,2.4000000000000004,10.700000000000001,-0.2,3.6,64.2
1698411737240.0,16,-0.9,-2.1,2.5,-2.0,1.9000000000000001,11.5,6.6000000000000005,7.300000000000001,69.2
1698411737258.0,16,-0.2,-2.5,2.6,-1.3,1.6,11.600000000000001,15.6,13.6,68.5
1698411737273.0,16,0.2,-2.6,2.4000000000000004,-0.9,1.5,11.4,18.0,14.500000000000002,64.8
1698411737290.0,16,0.6000000000000001,-3.0,2.2,-0.4,1.2000000000000002,11.100000000000001,14.800000000000002,11.8,52.0
1698411737308.0,16,0.6000000000000001,-3.1,2.2,-0.30000000000000004,1.0,11.200000000000001,4.800000000000001,7.300000000000001,38.5
1698411737324.0,16,0.8,-3.3000000000000003,2.4000000000000004,-0.1,0.9,11.4,-0.2,3.0000000000000004,32.300000000000004
1698411737340.0,16,1.2000000000000002,-3.2,3.3000000000000003,0.30000000000000004,0.9,12.3,-10.600000000000001,-0.4,17.5
1698411737357.0,16,1.3,-3.2,3.7,0.4,0.9,12.700000000000001,-14.900000000000002,5.8,8.700000000000001
1698411737374.0,16,1.5,-3.0,3.7,0.5,1.0,12.700000000000001,-20.900000000000002,29.900000000000006,-12.9
1698411737390.0,16,1.0,-3.0,2.5,-0.2,0.9,11.600000000000001,-26.1,52.7,-33.1
1698411737407.0,16,0.7000000000000001,-3.0,1.9000000000000001,-0.6000000000000001,0.8,11.0,-29.200000000000003,58.2,-39.1
1698411737424.0,16,0.2,-2.9000000000000004,0.7000000000000001,-1.3,0.8,9.9,-36.2,54.0,-43.800000000000004
1698411737440.0,16,-0.1,-2.5,0.4,-1.8,1.0,9.600000000000001,-44.7,31.4,-43.50000000000001
1698411737456.0,16,-0.4,-2.2,1.1,-2.1,1.0,10.3,-51.0,6.8,-37.7
1698411737474.0,16,-0.30000000000000004,-2.1,1.6,-2.1,1.1,10.9,-51.6,-1.8,-32.9
1698411737490.0,16,-0.30000000000000004,-1.8,2.1,-2.1,1.2000000000000002,11.5,-49.8,-3.8,-25.5
1698411737507.0,16,-0.4,-1.3,1.9000000000000001,-2.2,1.5,11.3,-48.7,4.7,-17.1
1698411737522.0,16,-0.2,-1.1,1.5,-2.0,1.6,11.0,-48.800000000000004,7.0,-13.200000000000001
1698411737539.0,16,0.1,-0.6000000000000001,1.0,-1.8,1.9000000000000001,10.5,-53.50000000000001,6.7,-9.0
1698411737556.0,16,0.30000000000000004,-0.1,1.1,-1.6,2.2,10.700000000000001,-61.599999999999994,1.4,-8.799999999999999
1698411737573.0,16,0.4,-0.1,1.2000000000000002,-1.5,2.2,10.8,-63.10000000000001,-2.4000000000000004,-9.700000000000001
1698411737590.0,16,-0.1,-0.1,1.3,-2.0,1.9000000000000001,11.0,-64.60000000000001,-8.200000000000001,-9.9
1698411737607.0,16,-0.30000000000000004,0.2,2.2,-2.1,2.0,11.9,-66.60000000000001,-15.6,1.7
1698411737623.0,16,0.0,0.5,2.8000000000000003,-1.8,2.2,12.600000000000001,-64.10000000000001,-17.5,8.0
1698411737641.0,16,0.7000000000000001,1.2000000000000002,3.2,-1.0,2.7,13.0,-52.900000000000006,-12.4,10.600000000000001
1698411737657.0,16,0.8,1.5,2.5,-0.9,2.8000000000000003,12.8,-47.5,-6.3,8.3
1698411737673.0,16,0.7000000000000001,1.5,2.0,-1.0,2.8000000000000003,11.9,-40.4,0.7,3.3000000000000003
1698411737690.0,16,0.6000000000000001,1.5,1.2000000000000002,-1.1,2.7,11.200000000000001,-36.800000000000004,-1.9,-0.5
1698411737707.0,16,0.4,1.4000000000000001,0.8,-1.3,2.5,10.8,-33.5,-9.5,-0.2
1698411737724.0,16,0.2,1.4000000000000001,0.8,-1.4000000000000001,2.4000000000000004,10.700000000000001,-30.100000000000005,-15.399999999999999,0.9
1698411737741.0,16,0.1,1.1,0.7000000000000001,-1.4000000000000001,2.1,10.700000000000001,-21.200000000000003,-24.9,5.300000000000001
1698411737756.0,16,0.2,1.3,0.6000000000000001,-1.2000000000000002,2.2,10.700000000000001,-15.100000000000001,-22.5,9.1
1698411737772.0,16,0.4,1.5,0.30000000000000004,-1.0,2.4000000000000004,10.3,-10.2,-12.000000000000002,7.8
1698411737789.0,16,0.4,1.4000000000000001,-0.1,-1.1,2.3000000000000003,10.0,-7.0,-7.0,5.500000000000001
1698411737806.0,16,0.0,1.3,-1.0,-1.4000000000000001,2.2,9.0,-3.5,-0.1,1.4
1698411737823.0,16,-0.1,1.2000000000000002,-1.6,-1.5,2.0,8.4,-4.1000000000000005,0.7,-0.2
1698411737840.0,16,-0.2,1.1,-1.9000000000000001,-1.6,2.0,8.200000000000001,-4.5,0.30000000000000004,-0.7
1698411737856.0,16,-0.1,1.1,-2.0,-1.5,2.0,8.0,-4.300000000000001,-3.0000000000000004,-1.8
1698411737872.0,16,-0.1,1.1,-2.0,-1.5,1.9000000000000001,8.0,-3.6,-5.6,-2.6
1698411737889.0,16,-0.1,1.0,-1.9000000000000001,-1.4000000000000001,1.9000000000000001,8.1,-1.6,-11.000000000000002,-5.2
1698411737906.0,16,-0.1,1.1,-1.5,-1.4000000000000001,1.9000000000000001,8.5,-2.3000000000000003,-13.6,-9.600000000000001
1698411737923.0,16,-0.1,1.0,-0.9,-1.4000000000000001,1.8,9.1,-2.8,-8.4,-15.6
1698411737939.0,16,-0.2,0.9,-0.8,-1.4000000000000001,1.7000000000000002,9.200000000000001,-1.4,-2.6,-18.5
1698411737956.0,16,-0.5,0.8,-0.8,-1.9000000000000001,1.6,9.1,2.4000000000000004,5.2,-22.4
1698411737973.0,16,-0.8,0.6000000000000001,-0.7000000000000001,-2.1,1.5,9.200000000000001,7.2,4.800000000000001,-20.5
1698411737990.0,16,-0.8,0.5,-0.6000000000000001,-2.1,1.4000000000000001,9.3,10.600000000000001,2.1999999999999997,-17.9
1698411738006.0,16,-0.7000000000000001,0.30000000000000004,-0.6000000000000001,-2.1,1.3,9.4,19.8,-3.3000000000000003,-12.100000000000001
1698411738023.0,16,-0.5,0.30000000000000004,-0.5,-1.9000000000000001,1.3,9.4,29.900000000000006,-11.5,-6.3
1698411738039.0,16,-0.4,0.2,-0.5,-1.7000000000000002,1.3,9.4,34.6,-13.6,-4.800000000000001
1698411738056.0,16,0.0,0.1,-0.8,-1.3,1.3,9.200000000000001,41.0,-11.6,-5.2
1698411738072.0,16,0.1,-0.1,-0.9,-1.2000000000000002,1.3,9.0,43.800000000000004,-8.0,-8.3
1698411738090.0,16,0.1,-0.2,-1.1,-1.1,1.2000000000000002,8.8,44.6,-4.2,-10.1
1698411738106.0,16,0.1,-0.4,-1.4000000000000001,-1.1,1.2000000000000002,8.4,44.6,2.1,-12.700000000000001
1698411738123.0,16,0.2,-0.5,-1.6,-1.0,1.2000000000000002,8.200000000000001,44.4,4.0,-14.700000000000001
1698411738139.0,16,0.30000000000000004,-0.6000000000000001,-1.6,-1.0,1.2000000000000002,8.1,45.2,4.300000000000001,-16.0
1698411738156.0,16,0.30000000000000004,-0.8,-1.8,-1.0,1.2000000000000002,7.9,47.900000000000006,6.8,-18.3
1698411738173.0,16,0.2,-0.9,-1.9000000000000001,-1.1,1.1,7.6000000000000005,51.2,9.3,-19.0
1698411738189.0,16,0.2,-1.2000000000000002,-2.3000000000000003,-1.1,1.0,7.300000000000001,53.50000000000001,9.9,-18.2
1698411738206.0,16,0.2,-1.4000000000000001,-2.9000000000000004,-1.2000000000000002,0.9,6.7,55.1,10.0,-15.7
1698411738223.0,16,0.30000000000000004,-1.5,-2.9000000000000004,-1.2000000000000002,0.9,6.6000000000000005,53.50000000000001,7.8,-13.8
1698411738240.0,16,0.5,-1.6,-2.8000000000000003,-0.9,1.0,6.6000000000000005,49.8,1.0999999999999999,-9.5
1698411738256.0,16,0.7000000000000001,-1.6,-2.8000000000000003,-0.7000000000000001,1.1,6.6000000000000005,45.5,-5.1,-10.600000000000001
1698411738273.0,16,0.8,-1.4000000000000001,-2.6,-0.6000000000000001,1.4000000000000001,6.800000000000001,37.4,-13.6,-15.2
1698411738289.0,16,0.8,-1.3,-2.4000000000000004,-0.5,1.5,6.9,31.4,-16.8,-18.8
1698411738306.0,16,0.8,-1.2000000000000002,-1.8,-0.5,1.7000000000000002,7.4,15.399999999999999,-22.5,-28.3
1698411738323.0,16,0.7000000000000001,-1.1,-0.8,-0.6000000000000001,1.8,8.5,-1.0,-27.8,-39.50000000000001
1698411738340.0,16,0.6000000000000001,-1.0,-0.2,-0.7000000000000001,1.8,9.1,-8.1,-27.3,-45.7
1698411738356.0,16,0.0,-0.9,0.8,-1.2000000000000002,1.9000000000000001,10.100000000000001,-20.6,-20.5,-56.6
1698411738373.0,16,-0.6000000000000001,-0.9,1.4000000000000001,-1.9000000000000001,1.8,10.8,-28.1,-8.0,-60.5
1698411738390.0,16,-0.9,-0.9,1.6,-2.2,1.7000000000000002,11.0,-28.6,-1.5000000000000002,-59.1
1698411738406.0,16,-1.4000000000000001,-0.9,1.7000000000000002,-2.7,1.6,11.200000000000001,-22.8,7.6,-49.1
1698411738423.0,16,-1.3,-0.8,1.4000000000000001,-2.8000000000000003,1.6,10.8,-9.0,13.3,-32.800000000000004
1698411738440.0,16,-1.2000000000000002,-0.8,1.0,-2.7,1.6,10.5,-0.30000000000000004,13.100000000000001,-23.3
1698411738457.0,16,-0.6000000000000001,-0.7000000000000001,0.1,-2.1,1.7000000000000002,9.5,17.599999999999998,3.9,-5.4
1698411738473.0,16,0.0,-0.30000000000000004,-0.7000000000000001,-1.5,2.2,8.700000000000001,29.500000000000004,-12.6,6.8
1698411738490.0,16,0.30000000000000004,-0.2,-0.9,-1.1,2.4000000000000004,8.5,31.8,-20.6,9.5
1698411738506.0,16,0.9,0.2,-1.2000000000000002,-0.4,2.8000000000000003,8.200000000000001,28.1,-30.299999999999997,5.6
1698411738523.0,16,1.1,0.5,-1.1,-0.1,3.2,8.3,15.7,-31.4,-6.6000000000000005
1698411738540.0,16,1.1,0.6000000000000001,-0.8,-0.1,3.3000000000000003,8.9,7.9,-29.000000000000004,-14.100000000000001
1698411738556.0,16,1.0,0.5,-0.1,-0.1,3.2,9.200000000000001,-5.2,-20.6,-29.600000000000005
1698411738573.0,16,0.7000000000000001,0.30000000000000004,0.4,-0.4,3.0,9.8,-12.700000000000001,-6.7,-42.6
1698411738590.0,16,0.5,0.30000000000000004,0.5,-0.9,2.9000000000000004,10.0,-14.3,0.4,-47.0
1698411738606.0,16,0.30000000000000004,0.1,0.6000000000000001,-0.9,2.7,10.0,-12.4,10.700000000000001,-50.0
1698411738623.0,16,0.0,0.0,0.0,-1.3,2.5,9.4,-7.400000000000001,15.100000000000001,-48.1
1698411738640.0,16,0.0,0.1,-0.5,-1.4000000000000001,2.6,8.9,-6.3,13.0,-44.5
1698411738656.0,16,0.1,0.2,-0.6000000000000001,-1.3,2.7,8.8,-6.8,3.5,-35.3
1698411738673.0,16,0.6000000000000001,0.6000000000000001,-0.4,-0.9,3.1,9.0,-8.1,-5.300000000000001,-27.0
1698411738690.0,16,0.9,1.1,-0.30000000000000004,-0.6000000000000001,3.3000000000000003,9.1,-8.700000000000001,-8.5,-24.5
1698411738707.0,16,1.0,1.3,-0.2,-0.4,3.7,9.200000000000001,-10.1,-9.5,-23.8
1698411738723.0,16,0.8,1.6,-0.30000000000000004,-0.6000000000000001,4.0,9.1,-11.6,-1.6,-24.5
1698411738740.0,16,0.5,1.7000000000000002,-0.6000000000000001,-1.0,4.0,8.8,-11.000000000000002,6.4,-22.3
1698411738758.0,16,0.30000000000000004,1.7000000000000002,-0.9,-1.1,4.0,8.5,-9.3,9.700000000000001,-19.500000000000004
1698411738773.0,16,0.2,1.8,-1.5,-1.3,4.1000000000000005,7.9,-4.5,10.1,-10.9
1698411738790.0,16,0.2,1.9000000000000001,-1.7000000000000002,-1.3,4.2,7.7,-1.9,6.2,-5.8
1698411738806.0,16,0.30000000000000004,2.1,-2.1,-1.2000000000000002,4.5,7.300000000000001,2.4000000000000004,-6.3,3.7000000000000006
1698411738822.0,16,0.5,2.4000000000000004,-2.1,-0.9,4.800000000000001,7.300000000000001,4.800000000000001,-21.200000000000003,8.600000000000001
1698411738839.0,16,0.8,2.4000000000000004,-1.5,-0.5,4.800000000000001,7.9,6.5,-30.9,8.0
1698411738856.0,16,0.8,2.3000000000000003,-1.3,-0.4,4.7,8.1,8.4,-31.7,6.9
1698411738873.0,16,0.8,2.3000000000000003,-1.1,-0.4,4.800000000000001,8.200000000000001,10.9,-28.400000000000002,2.1999999999999997
1698411738891.0,16,0.9,2.5,-0.9,-0.30000000000000004,4.9,8.3,7.500000000000001,-23.1,-6.8
1698411738906.0,16,0.8,2.6,-0.8,-0.2,5.2,8.6,3.4,-16.900000000000002,-13.8
1698411738923.0,16,0.2,2.5,-0.6000000000000001,-0.9,5.0,8.8,-6.6000000000000005,-1.7,-27.3
1698411738940.0,16,-0.5,1.9000000000000001,0.1,-1.6,4.5,9.5,-12.4,6.2,-32.9
1698411738956.0,16,-0.9,1.7000000000000002,0.4,-2.1,4.2,9.8,-11.5,8.1,-31.4
1698411738972.0,16,-1.3,1.4000000000000001,0.7000000000000001,-2.5,3.9000000000000004,10.100000000000001,-2.9,6.5,-21.200000000000003
1698411738989.0,16,-1.2000000000000002,1.5,0.8,-2.4000000000000004,4.0,10.100000000000001,6.5,2.1,-10.8
1698411739006.0,16,-1.1,1.5,0.7000000000000001,-2.3000000000000003,4.0,10.100000000000001,8.4,2.9,-7.2
1698411739023.0,16,-1.1,1.4000000000000001,0.9,-2.4000000000000004,4.0,10.3,6.3,12.3,-0.8
1698411739039.0,16,-1.1,1.0,1.3,-2.4000000000000004,3.6,10.700000000000001,7.699999999999999,18.7,7.1000000000000005
1698411739056.0,16,-1.0,0.8,1.3,-2.4000000000000004,3.4000000000000004,10.700000000000001,12.3,19.500000000000004,11.8
1698411739072.0,16,-1.0,0.6000000000000001,0.9,-2.4000000000000004,3.3000000000000003,10.3,20.900000000000002,14.700000000000001,20.8
1698411739089.0,16,-0.9,0.6000000000000001,0.7000000000000001,-2.3000000000000003,3.4000000000000004,10.100000000000001,21.0,8.4,27.1
1698411739106.0,16,-0.9,0.4,0.8,-2.3000000000000003,3.1,10.100000000000001,15.9,6.8,29.000000000000004
1698411739122.0,16,-0.9,0.0,0.9,-2.3000000000000003,2.9000000000000004,10.200000000000001,12.200000000000001,7.0,29.700000000000003
1698411739139.0,16,-0.7000000000000001,-0.1,1.2000000000000002,-2.1,2.8000000000000003,10.5,1.2000000000000002,6.6000000000000005,32.2
1698411739156.0,16,-0.5,-0.1,1.6,-1.6,2.9000000000000004,11.4,-11.3,2.8,33.400000000000006
1698411739172.0,16,-0.1,0.1,2.5,-1.4000000000000001,3.0,11.9,-16.1,-0.6000000000000001,32.4
1698411739189.0,16,-0.1,0.0,3.6,-1.4000000000000001,2.8000000000000003,13.0,-17.9,-2.9,28.6
1698411739206.0,16,-0.30000000000000004,-0.5,3.6,-1.6,2.3000000000000003,13.0,-7.6,5.1,27.7
1698411739222.0,16,-0.5,-0.8,3.2,-1.8,2.1,12.700000000000001,-0.4,11.8,29.1
1698411739239.0,16,-0.7000000000000001,-1.0,1.7000000000000002,-2.1,1.8,11.100000000000001,12.700000000000001,28.900000000000002,36.3
1698411739256.0,16,-0.7000000000000001,-1.1,0.6000000000000001,-2.1,1.8,10.100000000000001,17.3,34.800000000000004,40.9
1698411739272.0,16,-0.7000000000000001,-1.2000000000000002,-1.1,-2.2,1.8,8.3,23.400000000000002,35.199999999999996,49.8
1698411739291.0,16,-0.5,-1.3,-2.1,-2.0,1.7000000000000002,7.2,29.1,22.900000000000002,58.60000000000001
1698411739305.0,16,-0.30000000000000004,-1.3,-2.7,-1.8,1.9000000000000001,6.6000000000000005,31.6,6.4,64.2
1698411739322.0,16,-0.2,-1.1,-2.9000000000000004,-1.7000000000000002,2.2,6.4,30.200000000000003,-0.6000000000000001,65.3
1698411739339.0,16,0.0,-0.7000000000000001,-2.8000000000000003,-1.3,2.7,6.4,21.6,-9.700000000000001,61.50000000000001
1698411739356.0,16,0.1,-0.4,-2.6,-1.2000000000000002,3.0,6.6000000000000005,15.000000000000002,-10.600000000000001,56.1
1698411739372.0,16,-0.1,-0.2,-2.1,-1.3,3.3000000000000003,7.1000000000000005,1.0,-8.5,41.800000000000004
1698411739389.0,16,-0.4,-0.2,-1.1,-1.6,3.2,8.0,-10.600000000000001,-5.9,26.6
1698411739405.0,16,-0.9,-0.30000000000000004,-0.4,-2.0,3.1,8.8,-14.700000000000001,-0.8,16.700000000000003
1698411739422.0,16,-1.1,-0.4,-0.1,-2.2,3.0,9.1,-14.200000000000001,1.5000000000000002,13.9
1698411739439.0,16,-1.3,-0.5,0.2,-2.4000000000000004,2.9000000000000004,9.4,-9.4,6.5,11.6
1698411739456.0,16,-1.4000000000000001,-0.4,0.0,-2.6,2.9000000000000004,9.200000000000001,-4.300000000000001,12.700000000000001,12.6
1698411739472.0,16,-1.4000000000000001,-0.30000000000000004,-0.1,-2.6,3.0,9.1,-3.1,13.700000000000001,13.5
1698411739489.0,16,-1.0,-0.1,-0.1,-2.3000000000000003,3.2,9.1,-1.5000000000000002,13.5,13.8
1698411739511.0,16,-0.8,0.1,-0.1,-2.0,3.4000000000000004,9.1,0.1,14.0,8.5
1698411739522.0,16,-0.8,0.2,-0.1,-2.1,3.5,9.1,-0.30000000000000004,16.400000000000002,4.7
1698411739539.0,16,-1.0,0.2,-0.2,-2.4000000000000004,3.5,8.9,-3.5,22.2,-0.8
1698411739556.0,16,-1.0,0.1,-0.2,-2.5,3.4000000000000004,9.0,-4.800000000000001,25.5,-1.9
1698411739572.0,16,-1.0,0.1,-0.2,-2.5,3.4000000000000004,8.9,-3.9,25.3,-1.0
1698411739590.0,16,-0.9,0.2,-0.2,-2.5,3.5,8.9,-1.7,22.4,2.1999999999999997
1698411739607.0,16,-0.6000000000000001,0.30000000000000004,-0.1,-2.3000000000000003,3.6,9.0,1.3,17.599999999999998,4.9
1698411739623.0,16,-0.5,0.4,-0.1,-2.1,3.7,9.0,2.8,14.800000000000002,5.6
1698411739640.0,16,-0.2,0.5,0.30000000000000004,-1.9000000000000001,3.8000000000000003,9.4,5.4,9.5,8.1
1698411739656.0,16,0.2,0.6000000000000001,0.7000000000000001,-1.5,4.0,9.8,10.600000000000001,6.7,9.200000000000001
1698411739674.0,16,0.4,0.6000000000000001,0.6000000000000001,-1.3,4.0,9.700000000000001,13.5,7.0,8.600000000000001
1698411739691.0,16,0.6000000000000001,0.6000000000000001,0.30000000000000004,-1.1,4.0,9.4,16.5,5.1,7.0
1698411739706.0,16,1.0,0.7000000000000001,0.4,-0.7000000000000001,4.2,9.5,14.100000000000001,-3.5,4.2
1698411739723.0,16,1.2000000000000002,0.7000000000000001,0.6000000000000001,-0.5,4.3,9.600000000000001,11.6,-7.400000000000001,1.0
1698411739739.0,16,1.4000000000000001,0.6000000000000001,1.2000000000000002,-0.2,4.2,10.200000000000001,4.9,-12.100000000000001,-8.200000000000001
1698411739756.0,16,1.2000000000000002,0.5,2.0,-0.4,4.1000000000000005,11.100000000000001,-0.2,-14.100000000000001,-15.399999999999999
1698411739772.0,16,1.2000000000000002,0.4,2.3000000000000003,-0.4,3.9000000000000004,11.4,1.7,-14.700000000000001,-16.8
1698411739789.0,16,1.3,-0.2,2.1,-0.30000000000000004,3.4000000000000004,11.200000000000001,12.8,-20.0,-19.8
1698411739806.0,16,1.3,-0.4,1.5,-0.2,3.2,10.600000000000001,16.900000000000002,-30.200000000000003,-23.1
1698411739822.0,16,1.4000000000000001,-0.30000000000000004,1.2000000000000002,-0.1,3.3000000000000003,10.4,13.700000000000001,-34.50000000000001,-24.9
1698411739839.0,16,1.4000000000000001,0.0,1.3,0.0,3.6,10.4,1.4,-38.7,-34.0
1698411739856.0,16,1.0,0.0,1.6,-0.30000000000000004,3.6,10.8,-11.6,-30.000000000000004,-47.0
1698411739872.0,16,0.7000000000000001,-0.1,1.7000000000000002,-0.6000000000000001,3.4000000000000004,11.0,-15.2,-22.2,-52.0
1698411739889.0,16,-0.1,-0.5,1.6,-1.4000000000000001,2.9000000000000004,10.9,-11.700000000000001,-5.2,-55.1
1698411739906.0,16,-0.7000000000000001,-0.9,0.8,-2.0,2.5,10.0,4.6000000000000005,5.7,-47.800000000000004
1698411739922.0,16,-0.8,-1.1,0.1,-2.3000000000000003,2.4000000000000004,9.4,14.200000000000001,7.0,-40.7
1698411739939.0,16,-0.8,-1.3,-1.2000000000000002,-2.3000000000000003,2.2,8.0,31.0,3.7000000000000006,-23.400000000000002
1698411739956.0,16,-0.5,-1.1,-2.2,-2.0,2.5,7.0,38.800000000000004,-6.4,-10.5
1698411739973.0,16,-0.30000000000000004,-1.1,-2.4000000000000004,-1.5,2.7,6.4,39.300000000000004,-12.4,-7.1000000000000005
1698411739990.0,16,0.2,-1.0,-2.7,-1.3,2.7,6.4,34.1,-22.5,-7.1000000000000005
1698411740006.0,16,0.30000000000000004,-1.2000000000000002,-2.4000000000000004,-1.0,2.6,6.6000000000000005,21.1,-25.3,-13.700000000000001
1698411740023.0,16,0.4,-1.3,-2.0,-0.9,2.5,6.9,2.9,-17.599999999999998,-23.400000000000002
1698411740039.0,16,0.30000000000000004,-1.3,-1.7000000000000002,-1.1,2.5,7.300000000000001,-7.400000000000001,-12.3,-28.1
1698411740056.0,16,0.1,-1.3,-0.8,-1.3,2.5,8.200000000000001,-22.6,-4.2,-35.4
1698411740073.0,16,-0.1,-1.3,-0.4,-1.4000000000000001,2.4000000000000004,8.6,-24.8,-0.5,-38.300000000000004
1698411740089.0,16,-0.5,-1.4000000000000001,0.0,-1.9000000000000001,2.2,9.1,-18.7,5.2,-39.8
1698411740106.0,16,-0.8,-1.5,-0.4,-2.3000000000000003,2.0,8.700000000000001,-4.800000000000001,10.700000000000001,-34.2
1698411740123.0,16,-0.8,-1.4000000000000001,-1.5,-2.4000000000000004,2.1,7.6000000000000005,3.5,14.700000000000001,-23.8
1698411740139.0,16,-0.8,-1.1,-2.0,-2.4000000000000004,2.4000000000000004,7.1000000000000005,3.4,13.9,-18.3
1698411740156.0,16,-0.4,-0.7000000000000001,-2.2,-2.1,2.8000000000000003,6.800000000000001,-1.0,6.000000000000001,-10.2
1698411740173.0,16,0.2,-0.30000000000000004,-1.9000000000000001,-1.5,3.1,7.0,-5.8,-0.5,-8.700000000000001
1698411740189.0,16,0.30000000000000004,-0.2,-1.8,-1.4000000000000001,3.3000000000000003,7.2,-8.200000000000001,-1.5000000000000002,-10.5
1698411740206.0,16,0.2,0.1,-1.5,-1.5,3.5,7.5,-15.9,2.1,-15.6
1698411740223.0,16,0.2,0.30000000000000004,-1.3,-1.6,3.7,7.9,-27.900000000000002,11.6,-19.6
1698411740239.0,16,0.1,0.5,-0.7000000000000001,-1.7000000000000002,3.7,8.3,-33.900000000000006,14.900000000000002,-20.5
1698411740256.0,16,0.0,0.6000000000000001,0.1,-1.9000000000000001,3.8000000000000003,9.200000000000001,-37.6,18.7,-19.3
1698411740273.0,16,-0.2,0.7000000000000001,0.4,-2.2,3.8000000000000003,9.600000000000001,-35.5,19.400000000000002,-16.900000000000002
1698411740289.0,16,-0.2,0.9,0.7000000000000001,-2.2,3.8000000000000003,9.8,-27.2,18.5,-7.2
1698411740306.0,16,-0.1,1.1,0.9,-2.1,4.0,10.0,-15.299999999999999,18.0,5.6
1698411740322.0,16,0.4,1.4000000000000001,1.1,-1.7000000000000002,4.3,10.200000000000001,1.2000000000000002,16.5,18.3
1698411740339.0,16,0.7000000000000001,1.5,0.9,-1.4000000000000001,4.4,10.0,10.8,16.2,23.2
1698411740356.0,16,1.1,1.6,0.1,-1.0,4.7,9.1,25.2,14.100000000000001,28.3
1698411740373.0,16,1.4000000000000001,1.8,-0.5,-0.7000000000000001,5.0,8.5,27.2,6.1000000000000005,28.900000000000002
1698411740391.0,16,1.6,2.0,-0.6000000000000001,-0.5,5.2,8.4,24.1,-0.1,26.6
1698411740406.0,16,1.7000000000000002,2.0,0.0,-0.30000000000000004,5.4,9.0,15.2,-12.6,18.0
1698411740423.0,16,1.6,2.0,0.5,-0.6000000000000001,5.4,10.100000000000001,7.300000000000001,-19.400000000000002,5.6
1698411740440.0,16,1.1,1.9000000000000001,1.6,-0.7000000000000001,5.300000000000001,10.600000000000001,4.6000000000000005,-19.700000000000003,-0.8
1698411740457.0,16,0.9,1.4000000000000001,2.5,-1.0,4.800000000000001,11.600000000000001,2.3000000000000003,-9.9,-13.9
1698411740474.0,16,0.5,1.3,2.7,-1.8,4.6000000000000005,11.700000000000001,0.8,0.1,-19.9
1698411740490.0,16,-0.4,1.0,2.4000000000000004,-2.3000000000000003,4.4,11.4,-5.2,22.1,-27.6
1698411740506.0,16,-1.1,0.7000000000000001,2.0,-3.2,4.0,11.0,-13.8,28.900000000000002,-26.200000000000003
1698411740528.0,16,-1.3,0.4,2.4000000000000004,-3.5,3.7,11.4,-19.3,19.1,-16.0
1698411740539.0,16,-1.2000000000000002,0.30000000000000004,2.8000000000000003,-3.4000000000000004,3.6,11.9,-18.2,13.700000000000001,-9.1
1698411740556.0,16,-1.0,0.1,3.1,-3.2,3.3000000000000003,12.3,-5.6,6.7,3.6
1698411740573.0,16,-1.0,-0.4,2.6,-3.2,2.9000000000000004,11.700000000000001,12.200000000000001,4.800000000000001,15.9
1698411740590.0,16,-1.0,-0.6000000000000001,2.0,-3.3000000000000003,2.7,11.100000000000001,24.200000000000003,4.0,29.300000000000004
1698411740606.0,16,-0.9,-0.8,0.8,-3.2,2.6,9.9,28.0,2.7,35.8
1698411740623.0,16,-0.5,-0.9,-0.30000000000000004,-2.7,2.6,8.700000000000001,33.300000000000004,-0.2,45.0
1698411740640.0,16,-0.4,-0.9,-0.9,-2.4000000000000004,2.8000000000000003,7.7,33.0,-2.4000000000000004,46.5
1698411740656.0,16,-0.2,-0.9,-1.7000000000000002,-2.3000000000000003,2.8000000000000003,7.300000000000001,30.599999999999998,-4.0,45.6
1698411740673.0,16,-0.2,-1.1,-2.2,-2.2,2.7,6.800000000000001,23.400000000000002,-10.700000000000001,41.6
1698411740690.0,16,-0.4,-1.2000000000000002,-2.2,-2.3000000000000003,2.7,6.7,19.500000000000004,-16.0,39.2
1698411740706.0,16,-0.5,-1.4000000000000001,-2.0,-2.4000000000000004,2.5,7.0,11.8,-25.900000000000002,35.199999999999996
1698411740722.0,16,-0.6000000000000001,-1.5,-1.3,-2.3000000000000003,2.5,7.7,4.3999999999999995,-31.2,31.7
1698411740739.0,16,-0.5,-1.5,-0.7000000000000001,-2.2,2.4000000000000004,8.200000000000001,0.9,-30.9,29.500000000000004
1698411740756.0,16,-0.4,-1.5,0.1,-1.9000000000000001,2.4000000000000004,9.0,-2.1999999999999997,-21.700000000000003,22.5
1698411740772.0,16,-0.5,-1.6,0.5,-2.0,2.3000000000000003,9.5,-0.30000000000000004,-10.1,14.500000000000002
1698411740790.0,16,-0.7000000000000001,-1.7000000000000002,0.6000000000000001,-2.2,2.3000000000000003,9.5,3.1,-4.1000000000000005,12.000000000000002
1698411740806.0,16,-0.9,-2.0,0.2,-2.4000000000000004,2.0,9.1,12.5,3.2,11.000000000000002
1698411740823.0,16,-1.0,-2.2,-0.6000000000000001,-2.4000000000000004,1.8,8.4,20.3,5.8,14.0
1698411740844.0,16,-0.7000000000000001,-2.1,-1.3,-2.2,1.9000000000000001,7.6000000000000005,23.0,4.300000000000001,18.2
1698411740856.0,16,-0.6000000000000001,-2.0,-1.5,-2.0,2.1,7.300000000000001,22.900000000000002,2.4000000000000004,19.1
1698411740872.0,16,-0.30000000000000004,-1.7000000000000002,-1.8,-1.7000000000000002,2.4000000000000004,7.0,19.9,-3.0000000000000004,16.3
1698411740889.0,16,0.0,-1.5,-1.7000000000000002,-1.4000000000000001,2.7,7.1000000000000005,12.9,-8.1,9.1
1698411740906.0,16,0.1,-1.4000000000000001,-1.5,-1.3,2.8000000000000003,7.300000000000001,9.0,-7.699999999999999,4.3999999999999995
1698411740922.0,16,0.0,-1.3,-1.2000000000000002,-1.4000000000000001,2.8000000000000003,7.5,1.7,-3.7000000000000006,-4.6000000000000005
1698411740939.0,16,0.0,-1.2000000000000002,-1.0,-1.4000000000000001,3.0,7.800000000000001,-4.0,-1.4,-11.1
1698411740955.0,16,0.0,-1.0,-0.8,-1.4000000000000001,3.1,7.9,-6.6000000000000005,-1.0999999999999999,-14.0
1698411740972.0,16,0.1,-0.8,-0.4,-1.3,3.3000000000000003,8.4,-11.5,-2.4000000000000004,-20.4
1698411740990.0,16,0.1,-0.7000000000000001,-0.1,-1.3,3.3000000000000003,8.8,-13.0,-2.8,-22.900000000000002
1698411741006.0,16,0.1,-0.7000000000000001,0.2,-1.3,3.3000000000000003,9.0,-14.200000000000001,-5.7,-25.900000000000002
1698411741023.0,16,0.2,-0.5,0.6000000000000001,-1.2000000000000002,3.5,9.4,-14.200000000000001,-8.4,-28.1
1698411741040.0,16,0.30000000000000004,-0.2,0.8,-1.2000000000000002,3.6,9.600000000000001,-14.200000000000001,-9.1,-30.4
1698411741056.0,16,0.4,-0.1,0.9,-1.1,3.8000000000000003,9.8,-14.500000000000002,-10.2,-31.7
1698411741074.0,16,0.7000000000000001,0.0,1.0,-0.7000000000000001,3.8000000000000003,9.9,-16.700000000000003,-13.8,-33.900000000000006
1698411741089.0,16,1.1,0.30000000000000004,1.4000000000000001,-0.30000000000000004,4.0,10.3,-27.0,-21.200000000000003,-40.7
1698411741106.0,16,1.1,0.7000000000000001,1.8,-0.30000000000000004,4.3,10.8,-34.800000000000004,-23.2,-45.800000000000004
1698411741123.0,16,1.1,0.9,2.8000000000000003,-0.30000000000000004,4.4,11.8,-47.5,-18.7,-58.60000000000001
1698411741140.0,16,0.6000000000000001,0.7000000000000001,3.6,-0.8,4.0,12.8,-53.6,-5.4,-68.9
1698411741156.0,16,0.4,0.6000000000000001,3.9000000000000004,-1.1,3.8000000000000003,13.100000000000001,-52.300000000000004,3.4,-68.5
1698411741174.0,16,0.2,0.30000000000000004,3.9000000000000004,-1.4000000000000001,3.3000000000000003,13.100000000000001,-35.199999999999996,14.200000000000001,-58.3
1698411741189.0,16,0.5,0.0,2.7,-1.2000000000000002,3.0,12.0,-5.7,7.300000000000001,-41.9
1698411741207.0,16,0.8,0.0,1.9000000000000001,-0.9,2.9000000000000004,11.200000000000001,6.8,-2.9,-34.2
1698411741223.0,16,1.6,0.0,0.9,-0.1,2.9000000000000004,10.200000000000001,15.5,-31.0,-24.9
1698411741240.0,16,2.3000000000000003,0.0,1.3,0.4,3.0,10.3,12.200000000000001,-42.5,-24.1
1698411741256.0,16,2.6,-0.1,1.8,1.2000000000000002,2.9000000000000004,11.200000000000001,0.5,-47.6,-31.8
1698411741273.0,16,2.7,-0.5,2.5,1.4000000000000001,2.5,11.9,-5.0,-27.2,-49.8
1698411741289.0,16,1.8,-1.3,1.9000000000000001,0.4,1.6,11.3,-1.6,8.799999999999999,-62.8
1698411741307.0,16,1.3,-1.6,1.1,-0.1,1.3,10.600000000000001,3.8,22.5,-62.0
1698411741323.0,16,0.7000000000000001,-1.9000000000000001,-0.7000000000000001,-0.9,1.0,8.700000000000001,19.8,28.3,-49.4
1698411741339.0,16,0.9,-1.9000000000000001,-2.0,-0.8,1.1,7.300000000000001,36.2,7.0,-31.5
1698411741357.0,16,1.1,-1.8,-2.5,-0.30000000000000004,1.3,6.4,42.2,-8.1,-24.000000000000004
1698411741373.0,16,1.6,-1.6,-3.0,0.0,1.6,6.2,46.300000000000004,-39.1,-17.1
1698411741389.0,16,2.1,-1.2000000000000002,-2.9000000000000004,0.7000000000000001,2.1,6.300000000000001,38.5,-60.00000000000001,-23.5
1698411741407.0,16,2.2,-1.0,-2.6,0.9,2.3000000000000003,6.6000000000000005,31.099999999999998,-64.30000000000001,-31.7
1698411741423.0,16,1.8,-1.0,-2.0,0.6000000000000001,2.4000000000000004,7.2,11.4,-57.2,-53.7
1698411741440.0,16,1.0,-1.1,-1.2000000000000002,0.0,2.1,8.0,-9.8,-36.5,-72.6
1698411741457.0,16,0.8,-1.1,-0.9,-0.30000000000000004,2.1,8.3,-18.2,-25.3,-79.5
1698411741474.0,16,0.2,-1.1,-0.5,-0.9,2.0,8.700000000000001,-27.8,-6.5,-89.5
1698411741490.0,16,-0.6000000000000001,-1.1,-0.4,-1.8,1.9000000000000001,8.9,-29.700000000000003,2.0,-90.10000000000001
1698411741508.0,16,-1.1,-1.1,-0.4,-2.4000000000000004,1.7000000000000002,8.9,-26.400000000000002,2.3000000000000003,-81.0
1698411741523.0,16,-1.2000000000000002,-1.0,-0.4,-2.6,1.8,8.9,-23.900000000000002,0.5,-74.10000000000001
1698411741540.0,16,-1.3,-0.4,-0.5,-2.7,2.2,8.8,-21.200000000000003,-5.7,-59.80000000000001
1698411741556.0,16,-1.3,-0.1,-0.5,-2.7,2.5,8.9,-21.400000000000002,-7.9,-53.50000000000001
1698411741574.0,16,-1.3,0.30000000000000004,0.0,-2.8000000000000003,2.8000000000000003,9.3,-23.400000000000002,-7.8,-42.6
1698411741590.0,16,-1.4000000000000001,0.5,0.5,-2.9000000000000004,3.0,9.9,-22.3,-1.3,-31.5
1698411741606.0,16,-1.3,0.7000000000000001,0.7000000000000001,-2.8000000000000003,3.0,10.100000000000001,-14.600000000000001,6.5,-17.8
1698411741623.0,16,-1.1,0.8,0.6000000000000001,-2.7,3.1,10.0,-9.8,9.600000000000001,-10.0
1698411741640.0,16,-0.5,1.1,0.5,-2.1,3.5,9.9,-1.3,8.200000000000001,4.800000000000001
1698411741658.0,16,-0.1,1.3,0.6000000000000001,-1.7000000000000002,3.6,10.0,2.9,4.5,10.700000000000001
1698411741673.0,16,0.7000000000000001,1.3,1.1,-0.9,3.7,10.5,12.3,-6.2,16.400000000000002
1698411741689.0,16,1.5,1.1,1.6,0.0,3.5,11.0,25.5,-10.9,13.8
1698411741706.0,16,1.5,0.8,1.2000000000000002,0.0,3.4000000000000004,10.600000000000001,36.3,-4.0,2.1999999999999997
1698411741723.0,16,1.4000000000000001,0.6000000000000001,0.8,-0.1,3.3000000000000003,10.200000000000001,38.1,2.9,-4.6000000000000005
1698411741739.0,16,1.1,0.1,-0.2,-0.4,2.9000000000000004,9.1,33.400000000000006,16.400000000000002,-16.3
1698411741756.0,16,0.9,0.0,-0.7000000000000001,-0.6000000000000001,2.8000000000000003,8.700000000000001,17.3,16.900000000000002,-25.1
1698411741773.0,16,0.9,0.0,-0.5,-0.7000000000000001,2.8000000000000003,8.8,7.300000000000001,10.4,-27.7
1698411741789.0,16,1.1,0.0,1.0,-0.6000000000000001,2.8000000000000003,10.3,-12.100000000000001,-14.100000000000001,-35.7
1698411741806.0,16,0.8,-0.30000000000000004,3.4000000000000004,-0.8,2.4000000000000004,12.700000000000001,-19.0,-21.200000000000003,-44.00000000000001
1698411741823.0,16,0.6000000000000001,-0.7000000000000001,4.1000000000000005,-1.0,2.0,13.5,-13.200000000000001,-13.5,-47.0
1698411741839.0,16,-0.1,-1.8,3.9000000000000004,-1.8,0.9,13.3,13.3,11.1,-45.6
1698411741856.0,16,-0.5,-2.1,1.5,-2.2,0.6000000000000001,10.9,40.5,26.400000000000002,-32.300000000000004
1698411741874.0,16,-0.6000000000000001,-1.9000000000000001,0.2,-2.4000000000000004,0.9,9.600000000000001,48.800000000000004,21.700000000000003,-24.5
1698411741890.0,16,-0.1,-1.5,-1.3,-2.0,1.4000000000000001,7.9,51.0,-6.000000000000001,-12.9
1698411741906.0,16,0.30000000000000004,-1.2000000000000002,-1.6,-1.5,1.8,7.7,46.1,-22.5,-10.8
1698411741923.0,16,1.2000000000000002,-0.8,-1.0,-0.5,2.3000000000000003,8.200000000000001,28.200000000000003,-49.7,-20.3
1698411741940.0,16,1.6,-0.5,0.4,0.1,2.6,9.600000000000001,2.9,-50.9,-42.400000000000006
1698411741956.0,16,1.5,-0.8,1.8,0.1,2.2,11.100000000000001,-18.3,-32.300000000000004,-67.5
1698411741973.0,16,1.3,-1.1,2.5,-0.2,1.9000000000000001,11.8,-23.400000000000002,-19.700000000000003,-78.3
1698411741990.0,16,0.4,-1.5,2.7,-1.1,1.4000000000000001,12.100000000000001,-17.1,9.0,-90.5
1698411742006.0,16,-0.1,-1.9000000000000001,1.3,-1.8,0.9,10.700000000000001,1.5000000000000002,23.700000000000003,-88.8
1698411742023.0,16,-0.1,-1.9000000000000001,0.4,-1.9000000000000001,0.9,9.8,9.5,21.700000000000003,-84.1
1698411742040.0,16,0.4,-1.8,-0.7000000000000001,-1.5,1.0,8.6,18.400000000000002,3.7000000000000006,-72.10000000000001
1698411742056.0,16,1.2000000000000002,-1.5,-1.0,-0.7000000000000001,1.3,8.3,21.6,-20.5,-66.1
1698411742073.0,16,1.6,-1.3,-1.0,-0.30000000000000004,1.4000000000000001,8.3,21.900000000000002,-30.7,-67.7
1698411742090.0,16,2.0,-1.2000000000000002,-0.8,0.2,1.6,8.5,17.8,-40.0,-78.3
1698411742106.0,16,2.1,-1.1,-0.5,0.30000000000000004,1.6,8.9,7.0,-35.4,-94.5
1698411742125.0,16,1.7000000000000002,-1.1,-0.2,0.0,1.5,9.200000000000001,-4.6000000000000005,-26.200000000000003,-111.0
1698411742140.0,16,1.5,-1.3,0.0,-0.30000000000000004,1.3,9.4,-7.9,-24.5,-117.0
1698411742157.0,16,1.1,-1.6,0.30000000000000004,-0.7000000000000001,0.9,9.700000000000001,-8.3,-31.2,-123.80000000000001
1698411742173.0,16,0.9,-1.6,0.4,-0.9,0.8,9.8,-6.6000000000000005,-38.300000000000004,-125.00000000000001
1698411742191.0,16,0.9,-1.6,1.0,-0.8,0.7000000000000001,10.4,-3.7000000000000006,-55.4,-125.30000000000001
1698411742206.0,16,0.9,-1.6,1.7000000000000002,-0.7000000000000001,0.6000000000000001,11.200000000000001,2.4000000000000004,-65.7,-128.0
1698411742224.0,16,0.8,-1.6,1.9000000000000001,-0.8,0.5,11.4,12.6,-64.4,-132.5
1698411742241.0,16,0.5,-1.8,1.7000000000000002,-0.9,0.4,11.200000000000001,17.599999999999998,-60.20000000000001,-134.6
1698411742257.0,16,0.30000000000000004,-1.8,1.2000000000000002,-1.0,0.4,10.8,21.8,-55.300000000000004,-136.4
1698411742273.0,16,-0.1,-1.7000000000000002,0.2,-1.3,0.4,9.8,27.8,-50.9,-136.5
1698411742290.0,16,-0.2,-1.7000000000000002,-0.5,-1.4000000000000001,0.5,9.1,34.800000000000004,-64.50000000000001,-134.70000000000002
1698411742306.0,16,-0.2,-1.6,-0.6000000000000001,-1.2000000000000002,0.7000000000000001,8.9,40.0,-87.7,-135.5
1698411742323.0,16,-0.2,-1.5,-0.8,-1.0,0.8,8.700000000000001,39.699999999999996,-104.5,-140.9
1698411742340.0,16,-0.30000000000000004,-1.5,-0.8,-1.0,0.9,8.700000000000001,35.4,-111.70000000000002,-145.29999999999998
1698411742356.0,16,-0.30000000000000004,-1.3,0.0,-0.8,1.1,9.5,18.6,-121.5,-157.3
1698411742372.0,16,-0.30000000000000004,-1.4000000000000001,1.4000000000000001,-0.6000000000000001,1.1,10.200000000000001,1.3,-116.69999999999999,-172.8
1698411742390.0,16,-0.4,-1.5,2.0,-0.5,0.9,11.600000000000001,-4.9,-107.6,-181.6
1698411742406.0,16,-0.8,-1.9000000000000001,2.8000000000000003,-0.8,0.4,12.5,-12.5,-76.5,-195.9
1698411742423.0,16,-1.5,-2.3000000000000003,2.5,-1.5,0.0,12.200000000000001,-10.4,-38.300000000000004,-200.70000000000002
1698411742440.0,16,-1.9000000000000001,-2.4000000000000004,1.9000000000000001,-1.9000000000000001,-0.1,11.600000000000001,-5.7,-24.200000000000003,-198.9
1698411742456.0,16,-2.7,-2.2,0.4,-2.8000000000000003,0.0,10.0,7.1000000000000005,-16.8,-187.50000000000003
1698411742473.0,16,-3.0,-2.0,-0.8,-3.2,0.30000000000000004,8.9,15.9,-30.299999999999997,-168.2
1698411742490.0,16,-3.1,-1.8,-1.1,-3.3000000000000003,0.5,8.6,17.8,-39.400000000000006,-157.9
1698411742506.0,16,-2.9000000000000004,-1.4000000000000001,-1.1,-3.1,1.0,8.5,18.5,-56.1,-139.4
1698411742523.0,16,-2.5,-1.1,-0.5,-2.6,1.3,9.1,16.3,-63.50000000000001,-127.10000000000001
1698411742540.0,16,-2.3000000000000003,-0.9,-0.1,-2.4000000000000004,1.5,9.5,15.299999999999999,-60.599999999999994,-123.4
1698411742556.0,16,-1.9000000000000001,-0.7000000000000001,0.1,-1.9000000000000001,1.8,9.700000000000001,16.3,-49.2,-119.60000000000002
1698411742573.0,16,-1.8,-0.6000000000000001,0.1,-1.8,1.9000000000000001,9.600000000000001,17.200000000000003,-44.4,-119.4
1698411742590.0,16,-1.7000000000000002,-0.5,-0.2,-1.7000000000000002,2.1,9.3,16.700000000000003,-35.3,-121.0
1698411742606.0,16,-1.5,-0.5,-0.2,-1.5,2.1,9.3,12.000000000000002,-33.1,-122.7
1698411742623.0,16,-1.4000000000000001,-0.6000000000000001,0.2,-1.4000000000000001,2.0,9.8,6.8,-35.1,-124.7
1698411742640.0,16,-1.5,-0.7000000000000001,0.6000000000000001,-1.5,1.9000000000000001,10.100000000000001,5.6,-35.7,-125.00000000000001
1698411742656.0,16,-1.5,-0.8,1.3,-1.5,1.8,10.8,6.4,-35.3,-122.7
1698411742673.0,16,-1.3,-0.9,1.7000000000000002,-1.3,1.7000000000000002,11.200000000000001,12.8,-28.400000000000002,-118.69999999999999
1698411742691.0,16,-1.3,-1.0,1.6,-1.2000000000000002,1.8,11.0,20.900000000000002,-19.500000000000004,-114.2
1698411742706.0,16,-1.1,-0.9,1.1,-1.2000000000000002,1.8,10.600000000000001,24.400000000000002,-16.5,-111.70000000000002
1698411742723.0,16,-1.0,-0.8,0.30000000000000004,-1.1,2.0,9.8,28.400000000000002,-14.4,-107.00000000000001
1698411742741.0,16,-0.9,-0.8,0.1,-1.1,2.0,9.600000000000001,29.1,-16.2,-105.00000000000001
1698411742757.0,16,-0.6000000000000001,-0.8,-0.2,-0.8,2.1,9.3,29.500000000000004,-20.4,-100.50000000000001
1698411742774.0,16,-0.30000000000000004,-0.8,-0.5,-0.6000000000000001,2.2,8.9,29.200000000000003,-26.700000000000003,-97.9
1698411742792.0,16,-0.2,-0.8,-0.6000000000000001,-0.5,2.3000000000000003,8.8,28.3,-30.000000000000004,-97.60000000000001
1698411742810.0,16,-0.1,-0.7000000000000001,-0.5,-0.30000000000000004,2.4000000000000004,8.8,24.1,-36.5,-97.9
1698411742823.0,16,0.0,-0.7000000000000001,-0.5,-0.2,2.5,8.9,20.2,-36.6,-100.9
1698411742840.0,16,-0.1,-0.7000000000000001,-0.7000000000000001,-0.2,2.5,8.700000000000001,18.6,-35.4,-103.1
1698411742856.0,16,-0.30000000000000004,-0.6000000000000001,-0.9,-0.5,2.6,8.4,12.9,-33.7,-107.6
1698411742873.0,16,-0.7000000000000001,-0.4,-1.0,-0.9,2.8000000000000003,8.4,1.8,-29.300000000000004,-111.70000000000002
1698411742890.0,16,-1.0,-0.4,-0.8,-1.3,2.8000000000000003,8.6,-9.1,-19.3,-113.80000000000001
1698411742906.0,16,-1.2000000000000002,-0.30000000000000004,-0.7000000000000001,-1.6,2.9000000000000004,8.6,-12.6,-14.100000000000001,-113.4
1698411742923.0,16,-1.8,-0.2,-0.7000000000000001,-2.3000000000000003,3.0,8.6,-14.600000000000001,-9.3,-109.2
1698411742941.0,16,-2.4000000000000004,0.1,-0.8,-3.0,3.1,8.5,-13.5,-13.8,-99.6
1698411742956.0,16,-2.6,0.2,-0.8,-3.2,3.2,8.5,-12.8,-17.7,-93.60000000000001
1698411742972.0,16,-2.9000000000000004,0.5,-0.6000000000000001,-3.6,3.4000000000000004,8.8,-14.500000000000002,-22.6,-82.60000000000001
1698411742992.0,16,-3.2,0.6000000000000001,-0.2,-3.8000000000000003,3.5,9.200000000000001,-17.599999999999998,-21.5,-71.8
1698411743005.0,16,-3.3000000000000003,0.6000000000000001,0.1,-3.9000000000000004,3.5,9.5,-18.2,-19.6,-66.0
1698411743023.0,16,-3.5,0.5,0.7000000000000001,-4.2,3.3000000000000003,10.100000000000001,-14.600000000000001,-12.9,-53.1
1698411743040.0,16,-3.5,0.5,0.7000000000000001,-4.3,3.3000000000000003,10.100000000000001,-4.1000000000000005,-6.8,-37.7
1698411743056.0,16,-3.4000000000000004,0.5,0.5,-4.2,3.3000000000000003,10.0,2.1,-4.800000000000001,-30.100000000000005
1698411743072.0,16,-3.4000000000000004,0.5,0.30000000000000004,-4.1000000000000005,3.4000000000000004,9.4,12.100000000000001,-4.7,-15.399999999999999
1698411743089.0,16,-2.9000000000000004,0.7000000000000001,-0.4,-3.7,3.6,9.0,15.6,-9.4,-4.300000000000001
1698411743106.0,16,-2.7,0.8,-0.4,-3.5,3.7,9.0,14.500000000000002,-11.8,-1.3
1698411743124.0,16,-2.3000000000000003,0.8,0.1,-3.1,3.7,9.5,10.600000000000001,-14.0,2.3000000000000003
1698411743139.0,16,-1.8,0.5,1.0,-2.6,3.5,10.5,9.9,-12.6,2.9
1698411743157.0,16,-1.6,0.5,1.4000000000000001,-2.4000000000000004,3.4000000000000004,10.8,11.2,-7.8,2.1
1698411743173.0,16,-1.4000000000000001,0.30000000000000004,1.6,-2.2,3.3000000000000003,11.0,18.6,4.6000000000000005,0.4
1698411743190.0,16,-1.5,-0.2,1.0,-2.3000000000000003,2.9000000000000004,10.4,32.7,17.5,-0.9
1698411743205.0,16,-1.5,-0.4,0.30000000000000004,-2.4000000000000004,2.8000000000000003,9.700000000000001,40.0,22.2,-0.30000000000000004
1698411743222.0,16,-1.6,-0.6000000000000001,-1.3,-2.6,2.7,8.0,48.1,24.3,2.0
1698411743239.0,16,-1.5,-0.6000000000000001,-2.5,-2.6,2.8000000000000003,6.7,44.4,15.9,3.6
1698411743256.0,16,-1.4000000000000001,-0.6000000000000001,-2.7,-2.5,3.0,6.5,38.5,9.3,3.4
1698411743272.0,16,-1.1,-0.4,-2.5,-2.2,3.3000000000000003,6.6000000000000005,22.3,-4.300000000000001,-0.7
1698411743289.0,16,-0.8,-0.30000000000000004,-1.8,-1.9000000000000001,3.3000000000000003,7.300000000000001,4.300000000000001,-11.3,-10.5
1698411743306.0,16,-0.8,-0.30000000000000004,-1.3,-1.9000000000000001,3.4000000000000004,7.800000000000001,-5.1,-11.5,-16.8
1698411743322.0,16,-1.0,-0.2,-0.30000000000000004,-2.1,3.4000000000000004,8.8,-22.2,-4.5,-29.800000000000004
1698411743340.0,16,-1.4000000000000001,-0.30000000000000004,0.5,-2.5,3.1,9.600000000000001,-32.1,8.700000000000001,-38.800000000000004
1698411743356.0,16,-1.6,-0.4,0.7000000000000001,-2.7,3.0,9.9,-32.5,15.8,-40.5
1698411743372.0,16,-2.0,-0.6000000000000001,0.4,-3.3000000000000003,2.7,9.600000000000001,-24.5,29.300000000000004,-37.0
1698411743390.0,16,-2.1,-0.5,-0.4,-3.6,2.8000000000000003,8.8,-13.5,29.600000000000005,-24.8
1698411743406.0,16,-2.0,-0.2,-0.9,-3.6,3.0,8.3,-8.9,25.3,-17.5
1698411743423.0,16,-1.6,0.2,-1.4000000000000001,-3.2,3.4000000000000004,7.800000000000001,-4.300000000000001,13.8,-6.4
1698411743440.0,16,-1.2000000000000002,0.6000000000000001,-1.6,-2.9000000000000004,3.8000000000000003,7.6000000000000005,-6.4,5.1,-1.4
1698411743456.0,16,-1.1,0.7000000000000001,-1.4000000000000001,-2.7,3.9000000000000004,7.7,-8.9,2.3000000000000003,-0.4
1698411743472.0,16,-0.8,0.9,-1.0,-2.5,4.0,8.200000000000001,-13.8,1.9,0.1
1698411743492.0,16,-0.7000000000000001,1.0,-0.7000000000000001,-2.4000000000000004,4.1000000000000005,8.5,-16.0,6.000000000000001,0.4
1698411743506.0,16,-0.7000000000000001,1.1,-0.6000000000000001,-2.4000000000000004,4.1000000000000005,8.6,-16.0,7.0,0.7
1698411743522.0,16,-0.7000000000000001,1.2000000000000002,-0.5,-2.4000000000000004,4.2,8.700000000000001,-14.500000000000002,5.2,2.1999999999999997
1698411743539.0,16,-0.6000000000000001,1.3,-0.4,-2.3000000000000003,4.3,8.8,-9.600000000000001,-1.4,4.300000000000001
1698411743555.0,16,-0.6000000000000001,1.4000000000000001,-0.4,-2.3000000000000003,4.4,8.8,-5.300000000000001,-8.1,4.0
1698411743572.0,16,-0.7000000000000001,1.4000000000000001,-0.4,-2.4000000000000004,4.4,8.8,-4.6000000000000005,-9.3,3.7000000000000006
1698411743589.0,16,-0.8,1.4000000000000001,-0.30000000000000004,-2.5,4.3,9.0,-5.9,-10.4,2.7
1698411743606.0,16,-0.7000000000000001,1.3,0.0,-2.4000000000000004,4.3,9.200000000000001,-6.9,-10.1,1.9
1698411743623.0,16,-0.5,1.4000000000000001,0.4,-2.1,4.4,9.600000000000001,-6.9,-8.5,0.1
1698411743640.0,16,-0.5,1.6,0.6000000000000001,-2.2,4.6000000000000005,9.8,-8.0,0.9,-6.6000000000000005
1698411743656.0,16,-0.6000000000000001,1.6,0.6000000000000001,-2.3000000000000003,4.6000000000000005,9.8,-9.8,6.4,-10.4
1698411743673.0,16,-0.8,1.5,0.7000000000000001,-2.5,4.4,9.9,-14.700000000000001,13.100000000000001,-17.7
1698411743690.0,16,-1.0,1.3,0.8,-2.8000000000000003,4.2,10.100000000000001,-18.900000000000002,13.9,-22.6
1698411743706.0,16,-1.1,1.3,1.0,-2.9000000000000004,4.1000000000000005,10.3,-19.200000000000003,11.2,-23.5
1698411743723.0,16,-1.3,1.1,1.5,-3.2,3.9000000000000004,10.8,-11.700000000000001,1.7,-21.6
1698411743740.0,16,-1.3,0.8,1.7000000000000002,-3.2,3.5,11.0,2.1,-10.2,-16.8
1698411743757.0,16,-1.3,0.6000000000000001,1.7000000000000002,-3.1,3.3000000000000003,11.0,9.200000000000001,-15.299999999999999,-14.3
1698411743773.0,16,-1.0,0.4,1.3,-2.8000000000000003,3.2,10.700000000000001,19.0,-20.8,-11.000000000000002
1698411743790.0,16,-0.9,0.5,1.3,-2.6,3.4000000000000004,10.600000000000001,21.1,-22.1,-12.200000000000001
1698411743806.0,16,-0.8,0.30000000000000004,1.1,-2.5,3.2,10.4,19.0,-18.900000000000002,-17.5
1698411743823.0,16,-0.7000000000000001,0.1,1.0,-2.4000000000000004,3.1,10.4,16.400000000000002,-18.400000000000002,-19.9
1698411743840.0,16,-0.2,-0.2,1.4000000000000001,-1.9000000000000001,2.8000000000000003,10.700000000000001,7.500000000000001,-25.0,-24.8
1698411743856.0,16,0.1,-0.4,2.4000000000000004,-1.5,2.6,11.8,-1.0,-28.700000000000003,-35.0
1698411743872.0,16,0.2,-0.6000000000000001,2.8000000000000003,-1.4000000000000001,2.4000000000000004,12.200000000000001,-2.9,-24.400000000000002,-41.800000000000004
1698411743889.0,16,-0.2,-1.0,2.9000000000000004,-1.8,1.9000000000000001,12.3,-2.7,-10.5,-54.4
1698411743906.0,16,-0.6000000000000001,-1.5,2.7,-2.2,1.3,12.200000000000001,3.1,8.200000000000001,-58.2
1698411743922.0,16,-0.7000000000000001,-1.8,2.3000000000000003,-2.4000000000000004,1.1,11.8,8.600000000000001,20.7,-55.7
1698411743939.0,16,-0.7000000000000001,-2.2,0.7000000000000001,-2.6,0.7000000000000001,10.100000000000001,26.1,37.7,-41.7
1698411743955.0,16,-0.2,-2.2,-1.0,-2.3000000000000003,0.8,8.4,44.9,32.7,-22.7
1698411743972.0,16,0.1,-2.1,-1.6,-2.0,0.9,7.7,52.2,25.8,-14.100000000000001
1698411743990.0,16,0.8,-1.8,-2.6,-1.4000000000000001,1.4000000000000001,6.6000000000000005,60.7,6.8,-2.5
1698411744006.0,16,1.2000000000000002,-1.5,-2.9000000000000004,-0.9,1.9000000000000001,6.2,59.00000000000001,-12.700000000000001,-3.3000000000000003
1698411744023.0,16,1.3,-1.5,-2.9000000000000004,-0.7000000000000001,2.0,6.2,54.4,-18.0,-7.0
1698411744040.0,16,1.5,-1.4000000000000001,-2.8000000000000003,-0.5,2.1,6.2,39.699999999999996,-20.8,-16.700000000000003
1698411744056.0,16,1.4000000000000001,-1.4000000000000001,-2.5,-0.5,2.2,6.5,18.6,-16.3,-30.000000000000004
1698411744073.0,16,1.2000000000000002,-1.3,-2.3000000000000003,-0.7000000000000001,2.3000000000000003,6.7,7.500000000000001,-12.6,-36.7
1698411744089.0,16,0.5,-1.3,-1.6,-1.4000000000000001,2.3000000000000003,7.4,-11.000000000000002,-6.000000000000001,-47.800000000000004
1698411744106.0,16,-0.30000000000000004,-1.4000000000000001,-0.9,-2.3000000000000003,2.1,8.1,-19.200000000000003,-1.0999999999999999,-50.5
1698411744123.0,16,-0.5,-1.4000000000000001,-0.7000000000000001,-2.6,2.0,8.3,-19.3,0.7,-47.6
1698411744140.0,16,-0.9,-1.3,-0.6000000000000001,-3.0,2.0,8.5,-13.100000000000001,0.4,-36.7
1698411744156.0,16,-0.9,-0.9,-0.9,-3.1,2.4000000000000004,8.200000000000001,-3.7000000000000006,-1.3,-23.3
1698411744173.0,16,-0.9,-0.7000000000000001,-1.1,-3.0,2.6,7.9,-0.1,-2.7,-17.200000000000003
1698411744189.0,16,-0.6000000000000001,-0.2,-1.6,-2.8000000000000003,3.1,7.4,4.0,-8.9,-6.3
1698411744205.0,16,-0.2,0.30000000000000004,-1.6,-2.4000000000000004,3.6,7.4,4.0,-14.200000000000001,-1.9
1698411744223.0,16,-0.1,0.5,-1.6,-2.2,3.8000000000000003,7.4,2.6,-14.500000000000002,-1.7
1698411744239.0,16,0.0,0.8,-1.5,-2.1,4.1000000000000005,7.5,-2.8,-10.700000000000001,-3.4
1698411744256.0,16,-0.1,1.0,-1.1,-2.1,4.2,7.9,-7.1000000000000005,-6.8,-4.7
1698411744273.0,16,-0.2,1.1,-0.6000000000000001,-2.2,4.4,8.4,-5.300000000000001,-3.4,-3.7000000000000006
1698411744289.0,16,-0.2,1.2000000000000002,-0.5,-2.2,4.5,8.6,-2.0,-2.0,-2.1999999999999997
1698411744306.0,16,0.1,1.5,-0.6000000000000001,-2.0,4.800000000000001,8.4,5.300000000000001,0.7,-0.8
1698411744322.0,16,0.2,1.7000000000000002,-0.7000000000000001,-1.8,5.0,8.200000000000001,6.8,-0.7,-2.1
1698411744340.0,16,0.30000000000000004,2.0,-0.8,-1.8,5.300000000000001,8.200000000000001,4.1000000000000005,-2.9,-8.200000000000001
1698411744356.0,16,0.0,2.0,-0.4,-2.1,5.300000000000001,8.5,-4.0,-2.3000000000000003,-16.900000000000002
1698411744373.0,16,-0.2,1.9000000000000001,-0.1,-2.3000000000000003,5.2,8.9,-8.700000000000001,-0.7,-20.7
1698411744389.0,16,-0.6000000000000001,1.6,0.9,-2.7,4.800000000000001,9.9,-15.5,6.8,-24.8
1698411744406.0,16,-0.9,1.2000000000000002,1.4000000000000001,-3.1,4.4,10.5,-14.100000000000001,14.600000000000001,-24.3
1698411744423.0,16,-1.4000000000000001,1.1,1.6,-3.4000000000000004,4.3,10.600000000000001,-10.700000000000001,16.400000000000002,-22.3
1698411744440.0,16,-1.5,1.0,1.6,-3.9000000000000004,4.2,10.600000000000001,-1.6,14.4,-14.600000000000001
1698411744457.0,16,-1.7000000000000002,0.9,1.4000000000000001,-4.0,4.1000000000000005,10.4,7.0,13.100000000000001,-4.3999999999999995
1698411744475.0,16,-1.5,1.0,0.8,-3.9000000000000004,4.2,9.8,9.9,10.700000000000001,3.8
1698411744489.0,16,-1.5,1.1,0.5,-3.9000000000000004,4.3,9.5,7.6,7.0,5.2
1698411744506.0,16,-1.5,1.2000000000000002,0.8,-3.9000000000000004,4.5,9.8,-4.800000000000001,-4.1000000000000005,4.1000000000000005
1698411744522.0,16,-1.6,1.0,2.4000000000000004,-4.0,4.2,11.4,-22.6,-13.100000000000001,2.1999999999999997
1698411744539.0,16,-1.6,0.8,3.4000000000000004,-4.0,4.0,12.5,-27.5,-12.6,2.6
1698411744557.0,16,-2.0,0.2,4.6000000000000005,-4.4,3.3000000000000003,13.8,-19.9,0.4,7.300000000000001
1698411744572.0,16,-2.2,-0.5,3.9000000000000004,-4.6000000000000005,2.6,13.100000000000001,7.300000000000001,22.3,20.5
1698411744589.0,16,-2.1,-0.7000000000000001,2.8000000000000003,-4.6000000000000005,2.4000000000000004,12.0,21.3,31.4,29.900000000000006
1698411744606.0,16,-1.8,-0.7000000000000001,0.4,-4.3,2.6,9.5,36.4,33.400000000000006,48.2
1698411744623.0,16,-1.3,-0.4,-1.0,-3.9000000000000004,3.0,8.1,33.0,15.399999999999999,59.7
1698411744640.0,16,-1.1,-0.4,-1.0,-3.7,3.1,8.0,28.3,2.7,62.6
1698411744656.0,16,-0.7000000000000001,-0.7000000000000001,-0.2,-3.2,2.9000000000000004,8.8,22.6,-19.0,62.50000000000001
1698411744672.0,16,-0.5,-1.2000000000000002,0.5,-2.8000000000000003,2.6,9.5,23.6,-20.3,57.400000000000006
1698411744689.0,16,-0.6000000000000001,-1.3,0.5,-2.8000000000000003,2.5,9.5,24.3,-14.200000000000001,54.2
1698411744706.0,16,-0.7000000000000001,-1.3,0.0,-2.9000000000000004,2.6,9.0,22.5,0.6000000000000001,46.6
1698411744722.0,16,-0.9,-1.4000000000000001,-0.4,-3.1,2.5,8.5,16.1,12.000000000000002,37.900000000000006
1698411744740.0,16,-1.1,-1.5,-0.6000000000000001,-3.2,2.5,8.3,13.0,15.299999999999999,34.900000000000006
1698411744756.0,16,-1.1,-1.9000000000000001,-0.8,-3.3000000000000003,2.2,8.1,10.600000000000001,16.700000000000003,32.6
1698411744773.0,16,-1.2000000000000002,-1.9000000000000001,-0.9,-3.4000000000000004,2.2,7.9,12.4,17.1,32.9
1698411744790.0,16,-1.1,-1.9000000000000001,-1.1,-3.3000000000000003,2.2,7.7,13.700000000000001,18.1,33.5
1698411744806.0,16,-0.9,-1.9000000000000001,-1.3,-3.1,2.2,7.5,14.500000000000002,21.1,34.800000000000004
1698411744822.0,16,-0.7000000000000001,-1.9000000000000001,-1.5,-2.9000000000000004,2.3000000000000003,7.2,13.9,26.9,35.1
1698411744840.0,16,-0.5,-1.9000000000000001,-1.6,-2.8000000000000003,2.4000000000000004,7.1000000000000005,13.5,29.200000000000003,34.800000000000004
1698411744856.0,16,-0.30000000000000004,-1.9000000000000001,-1.9000000000000001,-2.6,2.4000000000000004,6.7,14.4,29.800000000000004,33.800000000000004
1698411744873.0,16,-0.30000000000000004,-1.7000000000000002,-2.3000000000000003,-2.6,2.7,6.300000000000001,14.3,25.6,31.2
1698411744889.0,16,-0.30000000000000004,-1.6,-2.4000000000000004,-2.6,2.8000000000000003,6.2,12.6,21.6,29.400000000000002
1698411744906.0,16,-0.30000000000000004,-1.3,-2.2,-2.7,3.1,6.2,5.4,11.8,25.5
1698411744922.0,16,-0.2,-1.1,-1.5,-2.6,3.3000000000000003,6.9,-3.9,3.7000000000000006,19.8
1698411744940.0,16,-0.2,-1.0,-0.9,-2.5,3.4000000000000004,7.5,-8.1,1.8,16.2
1698411744956.0,16,0.1,-0.9,0.2,-2.2,3.4000000000000004,8.700000000000001,-13.8,4.5,7.9
1698411744984.0,16,0.0,-0.9,0.9,-2.4000000000000004,3.4000000000000004,9.4,-16.3,16.5,-0.6000000000000001
1698411744989.0,16,-0.2,-0.9,1.1,-2.6,3.4000000000000004,9.600000000000001,-15.5,22.1,-2.7
1698411745006.0,16,-0.2,-1.0,1.0,-2.6,3.3000000000000003,9.5,-7.0,22.3,-1.6
1698411745022.0,16,0.0,-0.8,0.6000000000000001,-2.5,3.5,9.200000000000001,4.3999999999999995,8.600000000000001,2.1999999999999997
1698411745040.0,16,0.5,-0.4,0.5,-2.0,3.9000000000000004,9.0,10.8,-4.800000000000001,3.9
1698411745056.0,16,0.6000000000000001,-0.2,0.4,-1.8,4.1000000000000005,9.0,11.700000000000001,-8.0,2.1
1698411745073.0,16,0.7000000000000001,0.0,0.4,-1.7000000000000002,4.5,9.0,8.700000000000001,-8.799999999999999,-4.1000000000000005
1698411745089.0,16,0.8,0.30000000000000004,0.8,-1.7000000000000002,4.5,9.1,4.6000000000000005,-5.2,-8.799999999999999
1698411745109.0,16,1.0,0.1,0.8,-1.4000000000000001,4.5,9.3,5.500000000000001,-4.2,-10.600000000000001
1698411745122.0,16,1.4000000000000001,-0.2,0.1,-1.0,4.2,8.6,9.600000000000001,-7.400000000000001,-18.2
1698411745139.0,16,1.4000000000000001,0.1,-0.4,-1.1,4.4,8.1,6.4,-13.200000000000001,-24.9
1698411745156.0,16,1.2000000000000002,0.6000000000000001,-0.30000000000000004,-1.2000000000000002,4.9,8.200000000000001,-17.0,-25.400000000000002,-43.0
1698411745172.0,16,0.8,0.4,1.2000000000000002,-1.6,4.5,9.8,-50.2,-27.0,-64.60000000000001
1698411745189.0,16,0.1,-0.2,3.5,-1.9000000000000001,4.1000000000000005,11.0,-65.5,-17.1,-75.80000000000001
1698411745206.0,16,-0.30000000000000004,-0.7000000000000001,4.4,-2.7,3.1,13.200000000000001,-59.400000000000006,-10.9,-75.2
1698411745223.0,16,-0.9,-1.6,4.5,-3.4000000000000004,2.0,13.4,-22.4,1.4,-59.9
1698411745239.0,16,-0.7000000000000001,-1.9000000000000001,2.3000000000000003,-3.5,1.6,12.5,0.7,5.300000000000001,-45.800000000000004
1698411745256.0,16,-0.4,-1.5,0.9,-3.0,2.1,9.8,34.400000000000006,-0.2,-15.100000000000001
1698411745274.0,16,0.7000000000000001,-0.8,-1.0,-1.9000000000000001,2.9000000000000004,7.9,42.300000000000004,-24.7,-1.4
1698411745289.0,16,1.7000000000000002,-0.2,-1.1,-1.3,3.4000000000000004,7.5,26.0,-52.300000000000004,-10.2
1698411745306.0,16,2.1,-0.2,-0.4,-0.30000000000000004,3.6,8.4,13.6,-58.60000000000001,-20.900000000000002
1698411745323.0,16,2.1,-0.8,1.1,-0.2,2.9000000000000004,10.0,-7.500000000000001,-44.4,-47.1
1698411745340.0,16,0.9,-1.6,1.6,-0.7000000000000001,2.6,10.3,-16.400000000000002,-13.8,-66.9
1698411745357.0,16,0.30000000000000004,-1.9000000000000001,1.5,-2.0,1.7000000000000002,10.5,-15.8,2.4000000000000004,-69.4
1698411745375.0,16,-0.6000000000000001,-2.0,0.4,-3.1,1.5,9.4,-8.799999999999999,24.200000000000003,-60.300000000000004
1698411745390.0,16,-0.8,-2.0,-0.2,-3.3000000000000003,1.5,8.700000000000001,-3.7000000000000006,24.000000000000004,-50.4
1698411745406.0,16,-0.6000000000000001,-1.7000000000000002,-1.1,-3.2,1.7000000000000002,7.800000000000001,8.600000000000001,7.300000000000001,-27.7
1698411745423.0,16,0.1,-1.3,-1.6,-2.5,2.2,7.300000000000001,21.200000000000003,-17.9,-10.3
1698411745440.0,16,0.4,-1.0,-1.9000000000000001,-2.2,2.5,7.0,26.3,-29.200000000000003,-6.000000000000001
1698411745456.0,16,0.8,-0.7000000000000001,-2.2,-1.6,2.9000000000000004,6.6000000000000005,28.200000000000003,-42.0,-7.699999999999999
1698411745473.0,16,0.9,-0.30000000000000004,-2.3000000000000003,-1.4000000000000001,3.3000000000000003,6.6000000000000005,15.9,-40.3,-18.6
1698411745489.0,16,0.5,-0.30000000000000004,-1.8,-1.7000000000000002,3.3000000000000003,7.0,-4.800000000000001,-26.500000000000004,-33.1
1698411745508.0,16,0.30000000000000004,-0.5,-1.0,-2.0,3.0,7.9,-20.7,-10.700000000000001,-45.0
1698411745522.0,16,0.0,-0.6000000000000001,-0.8,-2.3000000000000003,2.9000000000000004,8.200000000000001,-24.3,-3.5,-48.50000000000001
1698411745539.0,16,-0.6000000000000001,-0.7000000000000001,-0.4,-2.9000000000000004,2.6,8.6,-25.3,3.7000000000000006,-48.300000000000004
1698411745556.0,16,-0.8,-0.6000000000000001,0.0,-3.1,2.6,8.8,-23.2,2.9,-44.7
1698411745572.0,16,-0.8,-0.4,0.0,-3.3000000000000003,2.8000000000000003,9.0,-15.299999999999999,-1.9,-35.0
1698411745590.0,16,-0.7000000000000001,0.0,-0.1,-3.1,3.1,8.9,-10.4,-7.300000000000001,-27.0
1698411745606.0,16,-0.6000000000000001,0.2,0.0,-3.0,3.4000000000000004,9.0,-10.9,-7.6,-24.400000000000002
1698411745622.0,16,-0.6000000000000001,0.4,0.1,-3.0,3.4000000000000004,9.1,-14.3,-1.7,-21.200000000000003
1698411745639.0,16,-0.6000000000000001,0.5,0.30000000000000004,-3.0,3.5,9.3,-15.399999999999999,5.9,-17.3
1698411745656.0,16,-0.5,0.5,0.30000000000000004,-3.0,3.5,9.3,-13.700000000000001,9.5,-14.0
1698411745673.0,16,-0.4,0.8,0.0,-2.9000000000000004,3.7,9.0,-7.6,12.000000000000002,-5.500000000000001
1698411745689.0,16,0.0,1.1,-0.2,-2.6,4.0,8.8,-1.5000000000000002,7.1000000000000005,4.0
1698411745706.0,16,0.30000000000000004,1.2000000000000002,-0.30000000000000004,-2.3000000000000003,4.1000000000000005,8.8,1.3,3.4,7.500000000000001
1698411745724.0,16,0.8,1.5,-0.30000000000000004,-1.8,4.4,8.8,5.6,-2.6,8.799999999999999
1698411745740.0,16,1.1,1.5,0.0,-1.5,4.5,9.0,6.4,-7.0,3.9
1698411745756.0,16,1.1,1.5,0.30000000000000004,-1.4000000000000001,4.5,9.3,6.4,-8.0,-0.30000000000000004
1698411745773.0,16,1.1,1.3,0.9,-1.4000000000000001,4.4,9.9,7.0,-3.0000000000000004,-11.4
1698411745790.0,16,0.9,0.9,1.0,-1.6,4.0,10.0,6.5,8.200000000000001,-22.5
1698411745806.0,16,0.8,0.8,0.9,-1.8,3.9000000000000004,9.9,3.8,14.0,-27.900000000000002
1698411745823.0,16,0.30000000000000004,0.6000000000000001,0.7000000000000001,-2.4000000000000004,3.6,9.700000000000001,-7.500000000000001,22.5,-38.1
1698411745839.0,16,-0.30000000000000004,0.4,1.4000000000000001,-3.0,3.3000000000000003,10.4,-21.400000000000002,18.7,-43.300000000000004
1698411745856.0,16,-0.30000000000000004,0.1,2.7,-3.2,3.2,11.100000000000001,-25.400000000000002,14.200000000000001,-43.0
1698411745873.0,16,-0.2,0.0,3.2,-3.1,2.7,12.3,-24.200000000000003,2.7,-38.7
1698411745890.0,16,-0.1,-0.30000000000000004,3.7,-3.0,2.4000000000000004,12.8,-20.0,-5.2,-36.800000000000004
1698411745906.0,16,-0.1,-1.0,5.2,-2.9000000000000004,1.6,14.4,-1.8,-23.400000000000002,-27.3
1698411745922.0,16,0.1,-1.2000000000000002,5.4,-2.7,1.4000000000000001,14.600000000000001,7.300000000000001,-21.0,-22.6
1698411745938.0,16,0.7000000000000001,-1.3,4.5,-2.1,1.3,13.700000000000001,27.5,-7.1000000000000005,-17.9
1698411745956.0,16,1.0,-1.5,2.6,-1.8,1.2000000000000002,11.8,40.1,4.300000000000001,-20.6
1698411745972.0,16,1.1,-1.7000000000000002,1.7000000000000002,-1.8,1.1,10.9,42.300000000000004,6.000000000000001,-21.8
1698411745989.0,16,1.1,-1.9000000000000001,0.30000000000000004,-1.8,1.0,9.5,43.0,-0.4,-22.6
1698411746006.0,16,1.2000000000000002,-2.0,-0.30000000000000004,-1.6,0.9,8.8,43.300000000000004,-18.0,-22.8
1698411746023.0,16,1.3,-2.1,-0.5,-1.4000000000000001,0.9,8.6,43.0,-27.900000000000002,-24.000000000000004
1698411746039.0,16,1.5,-1.9000000000000001,-0.4,-1.1,1.2000000000000002,8.700000000000001,37.5,-43.800000000000004,-29.900000000000006
1698411746056.0,16,1.5,-1.8,0.0,-1.1,1.4000000000000001,9.5,27.7,-46.4,-42.5
1698411746072.0,16,1.3,-1.8,0.7000000000000001,-1.2000000000000002,1.3,9.9,24.3,-41.7,-49.0
1698411746089.0,16,0.9,-2.2,1.0,-1.6,1.0,10.100000000000001,23.5,-27.6,-59.9
1698411746105.0,16,0.4,-2.4000000000000004,0.6000000000000001,-2.0,0.8,9.700000000000001,26.400000000000002,-13.4,-64.7
1698411746123.0,16,0.30000000000000004,-2.5,0.2,-2.2,0.7000000000000001,9.3,28.900000000000002,-9.3,-63.800000000000004
1698411746140.0,16,0.4,-2.6,-0.7000000000000001,-2.1,0.6000000000000001,8.4,33.5,-12.9,-58.2
1698411746156.0,16,0.8,-2.2,-1.2000000000000002,-1.7000000000000002,1.0,7.9,35.9,-27.3,-54.5
1698411746173.0,16,1.0,-2.1,-1.3,-1.4000000000000001,1.2000000000000002,7.7,35.199999999999996,-33.900000000000006,-56.1
1698411746190.0,16,1.3,-1.9000000000000001,-1.2000000000000002,-1.2000000000000002,1.4000000000000001,7.9,28.8,-38.7,-64.9
1698411746206.0,16,1.2000000000000002,-1.9000000000000001,-1.1,-1.2000000000000002,1.4000000000000001,8.0,19.500000000000004,-31.2,-77.80000000000001
1698411746223.0,16,1.0,-2.0,-1.1,-1.4000000000000001,1.3,7.9,14.700000000000001,-26.400000000000002,-84.0
1698411746240.0,16,0.7000000000000001,-2.2,-1.1,-1.8,1.0,8.0,4.300000000000001,-21.700000000000003,-92.60000000000001
1698411746257.0,16,0.5,-2.2,-0.9,-1.9000000000000001,1.0,8.200000000000001,-0.2,-21.0,-94.7
1698411746273.0,16,0.4,-2.1,-0.30000000000000004,-2.1,1.0,8.700000000000001,-4.9,-25.3,-96.4
1698411746290.0,16,0.4,-2.0,0.0,-2.0,1.0,9.200000000000001,-1.9,-32.6,-97.5
1698411746307.0,16,0.4,-1.9000000000000001,0.2,-2.1,0.9,9.3,3.4,-42.7,-97.9
1698411746323.0,16,0.30000000000000004,-2.0,0.2,-2.1,0.8,9.4,5.9,-48.00000000000001,-97.5
1698411746340.0,16,0.4,-1.9000000000000001,0.5,-1.9000000000000001,0.8,9.600000000000001,9.3,-55.7,-96.80000000000001
1698411746356.0,16,0.8,-1.8,0.6000000000000001,-1.5,0.9,9.9,9.700000000000001,-55.6,-98.9
1698411746373.0,16,0.9,-1.7000000000000002,0.5,-1.3,0.9,9.8,8.700000000000001,-53.9,-102.0
1698411746390.0,16,0.9,-1.6,0.5,-1.2000000000000002,1.0,9.8,4.0,-55.2,-112.7
1698411746406.0,16,0.4,-1.7000000000000002,1.0,-1.6,0.8,10.3,-1.0,-59.1,-123.4
1698411746424.0,16,0.2,-1.8,1.2000000000000002,-1.8,0.6000000000000001,10.600000000000001,-1.0,-61.50000000000001,-127.10000000000001
1698411746440.0,16,-0.30000000000000004,-2.0,1.5,-2.1,0.30000000000000004,11.0,3.2,-68.60000000000001,-131.4
1698411746456.0,16,-0.6000000000000001,-2.1,1.8,-2.3000000000000003,0.2,11.3,9.3,-75.1,-132.9
1698411746472.0,16,-0.6000000000000001,-2.2,2.0,-2.1,-0.1,11.5,16.0,-75.60000000000001,-132.1
1698411746488.0,16,-0.4,-2.3000000000000003,1.9000000000000001,-1.9000000000000001,-0.1,11.4,19.700000000000003,-73.8,-131.9
1698411746505.0,16,-0.1,-2.0,1.1,-1.5,0.2,10.700000000000001,24.1,-71.4,-136.5
1698411746522.0,16,0.1,-1.5,0.4,-1.1,0.6000000000000001,10.0,19.3,-72.10000000000001,-151.0
1698411746539.0,16,0.1,-1.5,0.2,-1.1,0.7000000000000001,9.9,13.9,-71.8,-161.2
1698411746556.0,16,-0.30000000000000004,-1.8,0.2,-1.4000000000000001,0.30000000000000004,9.9,1.6,-69.00000000000001,-181.3
1698411746573.0,16,-0.8,-2.0,0.5,-1.8,0.0,10.100000000000001,-3.4,-67.9,-189.0
1698411746590.0,16,-1.7000000000000002,-2.3000000000000003,1.0,-2.6,-0.4,10.700000000000001,-3.9,-62.50000000000001,-195.4
1698411746606.0,16,-2.0,-2.5,1.0,-3.3000000000000003,-0.6000000000000001,10.600000000000001,6.5,-54.6,-190.3
1698411746623.0,16,-3.0,-2.2,0.2,-3.8000000000000003,-0.4,9.9,17.3,-49.4,-178.0
1698411746640.0,16,-3.1,-2.0,-0.1,-3.9000000000000004,-0.2,9.600000000000001,21.200000000000003,-48.300000000000004,-170.3
1698411746656.0,16,-2.9000000000000004,-1.6,-0.7000000000000001,-3.8000000000000003,0.30000000000000004,9.0,24.9,-48.6,-156.6
1698411746672.0,16,-2.9000000000000004,-1.2000000000000002,-1.1,-3.7,0.4,8.8,24.1,-48.9,-151.9
1698411746689.0,16,-2.9000000000000004,-1.0,-1.2000000000000002,-3.7,0.9,8.5,16.400000000000002,-49.2,-144.3
1698411746707.0,16,-2.7,-0.8,-0.6000000000000001,-3.4000000000000004,1.0,9.1,2.7,-54.1,-137.8
1698411746722.0,16,-2.4000000000000004,-0.6000000000000001,1.2000000000000002,-3.0,1.2000000000000002,10.9,-15.8,-58.3,-132.70000000000002
1698411746739.0,16,-2.3000000000000003,-0.5,2.5,-2.9000000000000004,1.3,12.200000000000001,-21.700000000000003,-55.6,-131.0
1698411746757.0,16,-2.5,-0.6000000000000001,4.1000000000000005,-3.1,1.0,13.9,-12.5,-37.1,-127.2
1698411746774.0,16,-2.9000000000000004,-1.0,3.7,-3.4000000000000004,0.6000000000000001,13.5,16.2,-15.7,-117.20000000000002
1698411746790.0,16,-2.9000000000000004,-1.1,2.7,-3.5,0.6000000000000001,12.5,30.000000000000004,-6.4,-108.7
1698411746806.0,16,-2.7,-0.7000000000000001,0.4,-3.3000000000000003,1.1,10.3,45.7,3.9,-87.9
1698411746822.0,16,-1.8,-0.30000000000000004,-0.9,-3.0,1.4000000000000001,9.4,48.00000000000001,2.4000000000000004,-78.5
1698411746840.0,16,-1.5,-0.1,-1.2000000000000002,-2.2,2.0,8.5,48.50000000000001,-9.0,-66.5
1698411746856.0,16,-0.8,0.2,-1.5,-1.5,2.3000000000000003,8.200000000000001,45.5,-20.4,-63.6
1698411746872.0,16,-0.30000000000000004,0.2,-1.3,-1.0,2.5,8.3,39.1,-26.6,-67.0
1698411746890.0,16,-0.1,0.2,-1.1,-0.8,2.5,8.5,35.3,-27.2,-70.0
1698411746906.0,16,0.1,0.0,-0.6000000000000001,-0.5,2.4000000000000004,9.1,28.400000000000002,-23.1,-77.2
1698411746922.0,16,0.2,-0.2,-0.4,-0.5,2.3000000000000003,9.200000000000001,26.400000000000002,-18.8,-80.8
1698411746940.0,16,0.1,-0.6000000000000001,-0.5,-0.5,2.1,9.200000000000001,24.400000000000002,-9.9,-87.60000000000001
1698411746957.0,16,0.0,-0.7000000000000001,-0.7000000000000001,-0.8,1.8,8.9,22.3,-5.4,-91.8
1698411746973.0,16,-0.1,-0.9,-0.7000000000000001,-0.9,1.6,8.9,20.1,-9.1,-92.30000000000001
1698411746990.0,16,-0.1,-1.1,-0.6000000000000001,-0.9,1.5,8.9,20.0,-15.100000000000001,-91.60000000000001
1698411747005.0,16,0.0,-1.1,-0.5,-0.9,1.5,9.0,19.8,-17.7,-91.9
1698411747022.0,16,-0.1,-1.3,-0.5,-1.0,1.4000000000000001,9.0,17.1,-17.1,-93.80000000000001
1698411747039.0,16,-0.2,-1.4000000000000001,-0.5,-1.1,1.3,9.0,14.500000000000002,-14.600000000000001,-94.60000000000001
1698411747056.0,16,-0.30000000000000004,-1.5,-0.30000000000000004,-1.3,1.1,9.200000000000001,9.700000000000001,-10.2,-94.3
1698411747072.0,16,-0.5,-1.6,0.0,-1.5,1.0,9.5,10.3,-6.000000000000001,-91.0
1698411747091.0,16,-0.4,-1.6,0.0,-1.5,1.0,9.5,12.5,-3.4,-88.4
1698411747106.0,16,-0.4,-1.5,-0.5,-1.6,1.2000000000000002,9.0,17.1,2.0,-83.8
1698411747122.0,16,-0.5,-1.3,-1.1,-1.8,1.4000000000000001,8.3,18.6,2.0,-80.5
1698411747140.0,16,-0.5,-1.2000000000000002,-1.3,-1.8,1.5,8.0,17.599999999999998,0.1,-79.00000000000001
1698411747156.0,16,-0.5,-1.1,-1.5,-1.9000000000000001,1.6,7.9,14.600000000000001,-1.5000000000000002,-76.3
1698411747173.0,16,-0.5,-1.1,-1.6,-1.9000000000000001,1.6,7.800000000000001,13.100000000000001,-1.8,-75.4
1698411747189.0,16,-0.5,-0.9,-1.8,-2.0,1.8,7.6000000000000005,7.8,-1.8,-76.3
1698411747206.0,16,-0.8,-0.7000000000000001,-1.8,-2.3000000000000003,1.9000000000000001,7.6000000000000005,-3.4,3.6,-77.7
1698411747223.0,16,-1.1,-0.7000000000000001,-1.6,-2.7,1.8,7.7,-11.8,7.6,-76.60000000000001
1698411747240.0,16,-1.2000000000000002,-0.7000000000000001,-1.5,-2.9000000000000004,1.8,7.800000000000001,-14.100000000000001,7.1000000000000005,-75.3
1698411747257.0,16,-1.4000000000000001,-0.5,-1.3,-3.2,1.9000000000000001,8.1,-17.8,5.1,-70.8
1698411747273.0,16,-1.8,-0.4,-0.7000000000000001,-3.7,1.9000000000000001,8.700000000000001,-19.0,3.4,-62.50000000000001
1698411747291.0,16,-2.3000000000000003,-0.30000000000000004,-0.30000000000000004,-4.2,1.9000000000000001,9.1,-9.5,0.1,-49.7
1698411747307.0,16,-2.3000000000000003,-0.2,-0.4,-4.2,2.0,8.9,-2.1,-3.5,-42.400000000000006
1698411747323.0,16,-2.0,0.2,-1.1,-4.0,2.4000000000000004,8.3,7.8,-12.9,-30.4
1698411747341.0,16,-1.8,0.7000000000000001,-1.6,-3.7,2.9000000000000004,7.7,4.5,-26.8,-25.1
1698411747357.0,16,-1.7000000000000002,0.9,-1.7000000000000002,-3.6,3.1,7.7,-1.6,-37.4,-25.700000000000003
1698411747372.0,16,-1.2000000000000002,1.1,-0.4,-2.9000000000000004,3.2,9.0,-20.7,-63.800000000000004,-34.2
1698411747389.0,16,-0.9,1.1,2.3000000000000003,-2.5,3.1,11.8,-40.8,-74.30000000000001,-50.5
1698411747406.0,16,-1.1,1.1,3.4000000000000004,-2.5,2.9000000000000004,12.9,-44.7,-67.4,-59.7
1698411747423.0,16,-1.9000000000000001,0.5,4.4,-3.2,2.3000000000000003,14.0,-36.1,-44.2,-76.4
1698411747439.0,16,-2.3000000000000003,0.2,4.2,-3.7,1.8,13.8,-25.900000000000002,-29.800000000000004,-80.7
1698411747459.0,16,-3.3000000000000003,-0.4,0.9,-4.5,1.2000000000000002,11.8,3.7000000000000006,-2.1999999999999997,-71.8
1698411747472.0,16,-3.4000000000000004,-0.4,-0.2,-4.800000000000001,1.2000000000000002,9.5,8.700000000000001,-4.800000000000001,-64.60000000000001
1698411747489.0,16,-2.9000000000000004,-0.4,-1.5,-4.3,1.2000000000000002,8.200000000000001,13.8,-19.200000000000003,-49.8
1698411747506.0,16,-2.6,-0.30000000000000004,-1.9000000000000001,-4.0,1.3,7.800000000000001,14.700000000000001,-27.3,-45.0
1698411747524.0,16,-2.2,-0.5,-2.3000000000000003,-3.4000000000000004,1.2000000000000002,7.4,13.9,-40.6,-40.2
1698411747540.0,16,-1.9000000000000001,-0.7000000000000001,-2.4000000000000004,-3.1,1.0,7.2,11.2,-47.7,-37.5
1698411747557.0,16,-1.9000000000000001,-0.8,-2.5,-3.0,0.8,7.2,10.3,-50.5,-36.1
1698411747572.0,16,-1.8,-1.1,-2.6,-2.8000000000000003,0.6000000000000001,7.0,11.2,-57.1,-32.4
1698411747589.0,16,-1.6,-1.3,-3.0,-2.4000000000000004,0.4,6.7,13.3,-68.9,-28.0
1698411747607.0,16,-1.5,-1.4000000000000001,-3.0,-2.1,0.4,6.6000000000000005,13.0,-76.2,-26.400000000000002
1698411747623.0,16,-1.1,-1.5,-2.8000000000000003,-1.5,0.30000000000000004,6.800000000000001,9.600000000000001,-82.8,-26.6
1698411747640.0,16,-1.0,-1.5,-2.8000000000000003,-1.3,0.2,6.9,2.1999999999999997,-74.7,-32.1
1698411747656.0,16,-1.0,-1.4000000000000001,-2.9000000000000004,-1.0,0.30000000000000004,6.7,-2.3000000000000003,-69.80000000000001,-36.7
1698411747673.0,16,-1.1,-1.3,-3.1,-1.0,0.4,6.4,-14.4,-59.9,-48.7
1698411747689.0,16,-1.4000000000000001,-1.5,-3.1,-1.2000000000000002,0.1,6.4,-31.2,-45.6,-60.400000000000006
1698411747707.0,16,-1.6,-1.6,-2.8000000000000003,-1.3,-0.1,6.7,-39.6,-40.1,-64.50000000000001
1698411747723.0,16,-2.0,-1.9000000000000001,-2.3000000000000003,-1.7000000000000002,-0.6000000000000001,7.300000000000001,-50.9,-31.2,-67.3
1698411747740.0,16,-2.4000000000000004,-1.9000000000000001,-2.1,-2.1,-0.7000000000000001,7.4,-54.0,-26.1,-62.6
1698411747756.0,16,-2.5,-1.8,-2.1,-2.2,-0.8,7.4,-54.9,-24.5,-58.400000000000006
1698411747773.0,16,-2.7,-1.6,-2.0,-2.3000000000000003,-0.7000000000000001,7.6000000000000005,-63.50000000000001,-19.3,-49.5
1698411747790.0,16,-2.8000000000000003,-1.4000000000000001,-1.5,-2.4000000000000004,-0.8,8.1,-76.0,-3.8,-38.5
1698411747807.0,16,-2.9000000000000004,-1.3,-1.2000000000000002,-2.5,-0.9,8.4,-80.0,3.1,-32.6
1698411747823.0,16,-2.9000000000000004,-1.3,-0.4,-2.6,-1.1,9.1,-79.3,7.1000000000000005,-16.2
1698411747840.0,16,-2.8000000000000003,-1.3,-0.1,-2.5,-1.2000000000000002,9.4,-74.2,6.4,-4.9
1698411747857.0,16,-2.4000000000000004,-1.2000000000000002,0.2,-2.1,-1.3,9.8,-60.5,-0.4,20.2
1698411747873.0,16,-1.8,-0.7000000000000001,0.2,-1.6,-1.1,9.8,-51.5,-5.6,43.300000000000004
1698411747889.0,16,-1.1,0.0,0.4,-0.8,-0.5,10.0,-51.400000000000006,-7.400000000000001,57.6
1698411747907.0,16,-0.6000000000000001,0.30000000000000004,0.7000000000000001,-0.4,-0.30000000000000004,10.3,-53.00000000000001,-8.200000000000001,60.00000000000001
1698411747922.0,16,0.0,0.6000000000000001,1.6,0.30000000000000004,-0.2,11.100000000000001,-53.1,-12.6,59.00000000000001
1698411747939.0,16,0.2,0.7000000000000001,2.3000000000000003,0.6000000000000001,-0.2,11.8,-45.6,-15.6,56.5
1698411747956.0,16,0.30000000000000004,0.9,2.4000000000000004,0.7000000000000001,-0.1,11.9,-39.50000000000001,-11.2,52.300000000000004
1698411747973.0,16,0.4,1.5,2.5,0.8,0.4,12.100000000000001,-39.8,-4.6000000000000005,49.1
1698411747989.0,16,0.2,1.9000000000000001,2.9000000000000004,0.6000000000000001,0.6000000000000001,12.5,-44.1,9.600000000000001,41.5
1698411748006.0,16,0.1,1.9000000000000001,3.2,0.4,0.5,12.8,-43.900000000000006,15.399999999999999,38.400000000000006
1698411748023.0,16,0.0,1.8,3.4000000000000004,0.2,0.4,13.0,-31.7,21.200000000000003,35.5
1698411748040.0,16,0.1,1.6,3.0,0.2,0.1,12.600000000000001,-12.4,19.400000000000002,34.1
1698411748056.0,16,0.2,1.6,2.7,0.30000000000000004,0.1,12.3,-4.5,17.0,34.0
1698411748073.0,16,0.1,1.7000000000000002,2.3000000000000003,0.2,0.2,11.9,5.6,13.6,31.900000000000002
1698411748089.0,16,0.0,1.7000000000000002,2.1,0.0,0.2,11.700000000000001,10.0,14.500000000000002,27.7
1698411748106.0,16,0.0,1.5,2.0,-0.1,0.1,11.700000000000001,12.8,17.5,24.400000000000002
1698411748123.0,16,0.1,1.5,2.0,0.0,0.1,11.700000000000001,14.3,19.200000000000003,23.3
1698411748139.0,16,0.30000000000000004,1.4000000000000001,2.0,0.1,0.2,11.700000000000001,19.500000000000004,20.5,19.500000000000004
1698411748155.0,16,0.2,1.3,1.8,0.0,0.1,11.700000000000001,23.2,20.3,16.900000000000002
1698411748174.0,16,0.0,1.2000000000000002,1.6,-0.30000000000000004,0.1,11.4,28.8,21.0,11.6
1698411748189.0,16,-0.2,0.9,1.6,-0.6000000000000001,-0.1,11.3,31.8,20.3,8.1
1698411748207.0,16,-0.4,0.7000000000000001,1.7000000000000002,-0.9,-0.2,11.5,34.300000000000004,22.8,8.1
1698411748223.0,16,-0.5,0.7000000000000001,1.7000000000000002,-1.0,-0.1,11.5,35.1,23.8,8.799999999999999
1698411748240.0,16,-0.5,0.5,1.7000000000000002,-1.1,-0.2,11.5,38.300000000000004,23.0,11.6
1698411748257.0,16,-0.5,0.4,1.7000000000000002,-1.1,-0.2,11.5,40.5,19.200000000000003,13.4
1698411748274.0,16,-0.5,0.1,2.1,-1.2000000000000002,-0.30000000000000004,12.0,47.7,8.200000000000001,18.3
1698411748291.0,16,-0.30000000000000004,-0.1,2.2,-1.0,-0.4,12.100000000000001,58.60000000000001,1.2000000000000002,22.900000000000002
1698411748306.0,16,-0.2,-0.4,2.1,-0.9,-0.4,12.0,63.70000000000001,-1.9,24.9
1698411748324.0,16,-0.2,-0.4,2.2,-0.9,-0.30000000000000004,12.100000000000001,62.6,-1.9,25.5
1698411748340.0,16,0.1,-0.5,2.4000000000000004,-0.6000000000000001,-0.2,12.3,60.300000000000004,2.4000000000000004,24.400000000000002
1698411748356.0,16,0.0,-0.6000000000000001,2.2,-0.7000000000000001,-0.1,12.100000000000001,59.300000000000004,4.800000000000001,21.8
1698411748372.0,16,0.0,-0.7000000000000001,2.0,-0.8,-0.1,12.0,59.5,3.1,21.400000000000002
1698411748389.0,16,0.1,-0.9,2.2,-0.7000000000000001,-0.1,12.100000000000001,60.900000000000006,-4.3999999999999995,20.6
1698411748406.0,16,0.1,-1.1,2.3000000000000003,-0.5,-0.2,12.200000000000001,61.8,-6.3,19.500000000000004
1698411748423.0,16,0.4,-1.6,2.2,-0.30000000000000004,-0.5,12.100000000000001,60.7,-5.7,17.200000000000003
1698411748439.0,16,0.4,-1.9000000000000001,2.1,-0.2,-0.6000000000000001,12.0,57.00000000000001,-6.6000000000000005,14.3
1698411748456.0,16,0.30000000000000004,-2.0,2.1,-0.30000000000000004,-0.5,12.0,52.1,-7.6,10.8
1698411748473.0,16,0.2,-2.0,2.1,-0.30000000000000004,-0.5,12.0,50.1,-7.9,9.1
1698411748488.0,16,0.1,-2.1,2.2,-0.4,-0.4,12.100000000000001,48.50000000000001,-7.6,5.1
1698411748506.0,16,0.0,-2.2,2.0,-0.5,-0.4,11.9,50.300000000000004,-6.2,1.4
1698411748522.0,16,0.0,-2.4000000000000004,1.7000000000000002,-0.5,-0.4,11.600000000000001,51.300000000000004,-6.6000000000000005,0.0
1698411748540.0,16,-0.2,-2.4000000000000004,1.1,-0.7000000000000001,-0.30000000000000004,11.0,49.0,-9.200000000000001,-1.9
1698411748556.0,16,-0.2,-2.3000000000000003,0.9,-0.7000000000000001,-0.1,10.700000000000001,44.5,-12.100000000000001,-2.5
1698411748573.0,16,-0.30000000000000004,-2.2,0.6000000000000001,-0.7000000000000001,0.2,10.4,39.300000000000004,-10.1,-6.6000000000000005
1698411748589.0,16,-0.4,-2.1,0.5,-0.8,0.30000000000000004,10.3,35.7,-7.2,-9.4
1698411748606.0,16,-0.5,-2.0,0.4,-0.9,0.5,10.200000000000001,31.7,-3.9,-11.9
1698411748624.0,16,-0.8,-1.9000000000000001,0.5,-1.2000000000000002,0.6000000000000001,10.3,26.700000000000003,1.0,-15.7
1698411748640.0,16,-1.0,-1.9000000000000001,0.30000000000000004,-1.4000000000000001,0.6000000000000001,10.100000000000001,27.3,0.7,-15.7
1698411748656.0,16,-1.0,-1.8,-0.30000000000000004,-1.5,0.8,9.5,31.4,-10.1,-12.3
1698411748673.0,16,-0.7000000000000001,-1.3,-0.5,-1.3,1.1,9.3,32.0,-18.400000000000002,-10.8
1698411748690.0,16,-0.7000000000000001,-1.3,-0.2,-1.0,1.5,9.5,28.900000000000002,-30.4,-9.9
1698411748706.0,16,-0.5,-1.4000000000000001,0.1,-0.7000000000000001,1.5,9.8,22.5,-31.8,-10.9
1698411748722.0,16,-0.2,-0.9,0.4,-0.6000000000000001,1.6,9.9,18.3,-29.700000000000003,-9.1
1698411748740.0,16,-0.1,-1.0,0.4,-0.2,2.0,10.0,6.6000000000000005,-17.9,-16.1
1698411748756.0,16,0.1,-0.5,0.4,0.0,2.4000000000000004,10.100000000000001,-6.7,-8.600000000000001,-19.500000000000004
1698411748772.0,16,-0.1,-0.4,0.6000000000000001,-0.30000000000000004,2.5,10.3,-12.6,-2.6,-23.700000000000003
1698411748789.0,16,-0.4,-0.8,0.30000000000000004,-0.6000000000000001,2.0,10.0,-13.5,3.1,-24.5
1698411748806.0,16,-0.30000000000000004,-1.0,-0.2,-0.5,1.8,9.5,-4.9,-6.8,-20.1
1698411748822.0,16,0.0,-1.0,-0.5,0.2,2.0,9.0,-0.1,-17.0,-16.6
1698411748840.0,16,0.6000000000000001,-0.5,-0.9,0.6000000000000001,2.3000000000000003,8.8,6.8,-38.300000000000004,-14.700000000000001
1698411748856.0,16,0.8,-0.2,-0.8,0.9,2.7,8.9,2.6,-44.5,-22.5
1698411748872.0,16,0.6000000000000001,-0.1,-1.2000000000000002,0.8,2.7,8.5,-8.9,-28.900000000000002,-33.0
1698411748890.0,16,1.0,-0.5,-1.3,1.2000000000000002,2.3000000000000003,8.3,-17.3,-23.700000000000003,-33.900000000000006
1698411748906.0,16,-0.4,0.8,-0.4,-0.2,3.4000000000000004,9.3,-34.1,-4.6000000000000005,-42.6
1698411748922.0,16,0.2,-0.1,-0.7000000000000001,0.30000000000000004,2.4000000000000004,9.0,-30.4,9.5,-38.5
1698411748940.0,16,0.0,-0.1,-0.4,0.1,2.5,9.3,-23.6,2.1,-40.1
1698411748956.0,16,-0.7000000000000001,0.0,-0.5,-0.7000000000000001,2.5,9.200000000000001,-3.8,7.2,-40.0
1698411748972.0,16,-0.4,-0.1,-1.0,-0.5,2.4000000000000004,8.700000000000001,10.9,10.4,-31.3
1698411748990.0,16,-0.30000000000000004,0.0,-1.1,-0.4,2.5,8.6,19.3,9.3,-28.8
1698411749006.0,16,-0.2,0.0,-2.0,-0.30000000000000004,2.6,7.7,29.200000000000003,8.799999999999999,-24.9
1698411749022.0,16,-0.30000000000000004,-0.2,-2.8000000000000003,-0.4,2.5,6.800000000000001,27.5,1.5000000000000002,-21.0
1698411749040.0,16,-0.5,-0.2,-3.0,-0.6000000000000001,2.6,6.6000000000000005,22.000000000000004,-4.300000000000001,-18.8
1698411749056.0,16,-0.4,-0.1,-2.8000000000000003,-0.5,2.7,6.7,12.200000000000001,-20.6,-14.4
1698411749072.0,16,-0.2,-0.1,-2.2,-0.2,2.7,7.300000000000001,10.4,-45.9,-15.7
1698411749091.0,16,-0.30000000000000004,-0.4,-1.7000000000000002,-0.2,2.5,7.800000000000001,10.1,-53.2,-19.400000000000002
1698411749107.0,16,-0.8,-0.30000000000000004,-1.5,-0.6000000000000001,2.6,7.9,4.0,-40.5,-20.8
1698411749123.0,16,-1.1,-0.8,-1.5,-0.8,2.1,8.0,-2.3000000000000003,-32.6,-18.7
1698411749141.0,16,-0.9,-0.1,-1.1,-0.7000000000000001,2.7,8.3,-18.0,0.9,-11.4
1698411749156.0,16,-0.5,0.4,-0.4,-0.30000000000000004,3.2,9.1,-28.1,9.9,-5.8
1698411749172.0,16,-0.4,0.9,-0.5,-0.2,3.6,9.0,-30.7,25.6,-10.3
1698411749189.0,16,-0.6000000000000001,1.3,-0.4,-0.6000000000000001,3.9000000000000004,9.1,-43.7,39.400000000000006,-21.8
1698411749206.0,16,-0.7000000000000001,1.4000000000000001,0.2,-0.8,3.8000000000000003,9.700000000000001,-45.3,31.6,-23.400000000000002
1698411749223.0,16,-0.4,1.3,0.5,-0.6000000000000001,3.6,10.100000000000001,-35.3,19.400000000000002,-24.000000000000004
1698411749240.0,16,-0.2,1.3,1.2000000000000002,-0.4,3.6,10.8,4.1000000000000005,-21.5,-32.800000000000004
1698411749257.0,16,-1.4000000000000001,1.3,0.5,-1.5,3.8000000000000003,10.100000000000001,34.900000000000006,-34.0,-34.7
1698411749273.0,16,-1.7000000000000002,0.9,0.1,-1.8,3.5,9.600000000000001,37.4,-33.1,-31.2
1698411749289.0,16,-1.9000000000000001,0.5,-0.6000000000000001,-1.9000000000000001,3.2,9.0,21.3,-11.000000000000002,-14.0
1698411749307.0,16,-1.5,0.7000000000000001,-0.8,-1.6,3.4000000000000004,8.700000000000001,13.8,-0.1,-8.3
1698411749323.0,16,-0.6000000000000001,1.0,-0.6000000000000001,-1.0,3.5,8.700000000000001,7.0,7.1000000000000005,-4.800000000000001
1698411749340.0,16,-0.5,1.1,-0.5,-0.5,3.8000000000000003,9.0,2.8,7.2,-8.600000000000001
1698411749356.0,16,-0.5,0.7000000000000001,-0.7000000000000001,-0.7000000000000001,3.5,8.8,12.5,-1.9,-16.6
1698411749372.0,16,-1.0,0.30000000000000004,-1.0,-1.1,3.1,8.5,19.200000000000003,-14.200000000000001,-19.3
1698411749391.0,16,-0.8,-0.5,-0.9,-0.9,2.4000000000000004,8.5,24.400000000000002,-25.3,-13.8
1698411749406.0,16,-0.4,-0.8,-1.0,-0.4,2.2,8.5,24.5,-23.0,-10.0
1698411749422.0,16,0.1,-0.4,-1.4000000000000001,0.1,2.6,8.0,10.3,-3.6,-9.4
1698411749439.0,16,0.4,0.5,-1.0,0.30000000000000004,3.5,8.4,-14.600000000000001,12.8,-17.3
1698411749455.0,16,0.30000000000000004,0.9,-0.9,0.2,3.9000000000000004,8.5,-25.6,18.3,-25.400000000000002
1698411749472.0,16,-0.8,1.9000000000000001,0.6000000000000001,-1.0,4.7,10.0,-45.7,10.600000000000001,-41.7
1698411749491.0,16,-1.1,1.6,2.4000000000000004,-1.3,4.3,11.9,-50.300000000000004,9.600000000000001,-34.0
1698411749506.0,16,-1.2000000000000002,1.7000000000000002,3.4000000000000004,-1.5,4.2,13.0,-44.00000000000001,7.9,-29.200000000000003
1698411749523.0,16,-1.5,1.5,3.6,-1.9000000000000001,4.0,13.200000000000001,-24.5,21.3,-19.0
1698411749539.0,16,-1.5,1.3,3.1,-1.9000000000000001,3.5,11.8,-3.3000000000000003,31.3,-9.3
1698411749556.0,16,-1.2000000000000002,0.8,1.3,-1.8,3.3000000000000003,11.0,7.0,34.1,-7.400000000000001
1698411749573.0,16,-1.0,0.4,-1.4000000000000001,-1.7000000000000002,3.0,8.200000000000001,23.400000000000002,35.1,-15.000000000000002
1698411749591.0,16,-1.1,-0.2,-3.2,-1.9000000000000001,2.4000000000000004,6.300000000000001,14.200000000000001,23.700000000000003,-20.2
1698411749606.0,16,-1.2000000000000002,-0.4,-3.8000000000000003,-2.0,2.2,5.800000000000001,4.7,18.1,-21.0
1698411749622.0,16,-1.4000000000000001,-0.4,-3.3000000000000003,-2.3000000000000003,2.2,6.2,-17.200000000000003,-0.8,-17.7
1698411749640.0,16,-1.3,-0.4,-2.3000000000000003,-2.2,2.1,7.2,-26.200000000000003,-9.4,-13.9
1698411749657.0,16,-1.1,-0.4,-0.1,-2.0,2.0,9.4,-37.7,-10.700000000000001,-6.1000000000000005
1698411749672.0,16,-1.0,-0.2,1.4000000000000001,-1.9000000000000001,2.1,11.0,-40.0,-3.4,-0.1
1698411749689.0,16,-0.7000000000000001,-0.2,2.6,-1.6,1.9000000000000001,12.200000000000001,-40.9,8.799999999999999,13.200000000000001
1698411749707.0,16,-0.5,0.0,2.4000000000000004,-1.4000000000000001,2.1,12.0,-31.5,20.900000000000002,16.3
1698411749722.0,16,-0.2,0.4,1.5,-1.2000000000000002,2.4000000000000004,11.200000000000001,-5.9,18.5,16.1
1698411749739.0,16,-0.30000000000000004,0.30000000000000004,0.9,-1.2000000000000002,2.3000000000000003,10.5,7.0,10.4,14.900000000000002
1698411749756.0,16,-0.5,-0.30000000000000004,0.4,-1.4000000000000001,1.8,10.0,21.400000000000002,-6.3,12.6
1698411749773.0,16,-0.30000000000000004,-0.7000000000000001,-0.5,-1.2000000000000002,1.5,9.200000000000001,20.7,-2.1,17.0
1698411749790.0,16,-0.1,-0.4,-0.9,-1.0,1.9000000000000001,8.700000000000001,13.8,0.9,21.6
1698411749807.0,16,0.1,-0.30000000000000004,-0.9,-0.8,2.0,8.700000000000001,10.3,0.2,21.3
1698411749829.0,16,0.4,0.0,-0.7000000000000001,-0.6000000000000001,2.1,8.8,5.2,-4.2,19.400000000000002
1698411749839.0,16,0.6000000000000001,0.2,-0.4,-0.2,2.5,9.200000000000001,1.9,-13.5,14.3
1698411749855.0,16,0.2,-0.1,0.6000000000000001,-0.6000000000000001,2.2,10.3,-1.4,-13.9,10.3
1698411749872.0,16,-0.1,-0.30000000000000004,0.9,-0.8,2.0,10.5,-3.7000000000000006,-5.9,6.5
1698411749890.0,16,0.0,-0.2,0.7000000000000001,-0.7000000000000001,2.1,10.3,2.3000000000000003,-6.2,11.5
1698411749906.0,16,0.1,-0.1,0.5,-0.7000000000000001,2.2,10.100000000000001,5.500000000000001,-8.5,12.8
1698411749925.0,16,0.2,-0.2,0.1,-0.4,2.1,9.700000000000001,10.1,-12.6,12.4
1698411749940.0,16,0.30000000000000004,-0.2,-0.1,-0.4,2.2,9.5,10.0,-11.3,11.3
1698411749955.0,16,-0.2,-0.4,-0.6000000000000001,-0.8,2.0,9.0,7.0,-10.5,9.4
1698411749973.0,16,-0.1,-0.4,-0.7000000000000001,-0.7000000000000001,2.0,8.9,6.000000000000001,-16.900000000000002,11.700000000000001
1698411749989.0,16,0.0,-0.1,-0.1,-0.4,2.3000000000000003,9.5,1.0999999999999999,-17.400000000000002,11.5
1698411750006.0,16,0.2,0.1,0.5,-0.2,2.5,10.100000000000001,-4.5,-4.9,8.799999999999999
1698411750022.0,16,0.30000000000000004,0.30000000000000004,0.6000000000000001,-0.1,2.7,10.200000000000001,-4.7,-0.1,7.8
1698411750039.0,16,0.4,0.4,0.30000000000000004,0.0,2.8000000000000003,9.9,1.3,0.0,4.300000000000001
1698411750055.0,16,0.4,0.4,0.0,0.0,2.8000000000000003,9.600000000000001,5.300000000000001,-2.6,-0.8
1698411750072.0,16,0.4,0.30000000000000004,-0.1,0.0,2.7,9.5,4.0,-0.1,-3.9
1698411750089.0,16,0.1,0.2,-0.2,-0.30000000000000004,2.6,9.4,-1.8,8.700000000000001,-9.5
1698411750105.0,16,-0.1,0.0,-0.4,-0.6000000000000001,2.1,9.200000000000001,-5.9,12.8,-10.700000000000001
1698411750123.0,16,-0.2,-0.30000000000000004,-0.30000000000000004,-0.7000000000000001,2.1,9.3,-7.300000000000001,13.3,-9.1
1698411750139.0,16,-0.2,-0.1,0.0,-0.7000000000000001,2.3000000000000003,9.600000000000001,-9.1,14.4,-8.5
1698411750156.0,16,-0.2,-0.1,0.0,-0.8,2.3000000000000003,9.600000000000001,-8.799999999999999,14.100000000000001,-9.4
1698411750172.0,16,-0.5,-0.2,0.1,-1.1,2.2,9.700000000000001,-4.800000000000001,7.300000000000001,-10.700000000000001
1698411750189.0,16,-0.8,-0.4,0.2,-1.5,1.9000000000000001,9.8,0.9,0.7,-8.799999999999999
1698411750206.0,16,-0.8,-0.4,0.2,-1.5,1.9000000000000001,9.8,2.3000000000000003,0.30000000000000004,-6.5
1698411750224.0,16,-0.6000000000000001,-0.2,0.1,-1.3,2.1,9.700000000000001,2.1,3.0000000000000004,-2.1
1698411750240.0,16,-0.4,-0.2,-0.1,-1.1,2.1,9.5,2.9,2.1999999999999997,-0.7
1698411750267.0,16,-0.30000000000000004,-0.1,-0.2,-1.0,2.2,9.4,2.1999999999999997,-1.9,0.8
1698411750272.0,16,-0.30000000000000004,-0.1,-0.2,-1.0,2.2,9.4,2.1999999999999997,-1.9,0.8
1698411750289.0,16,-0.1,0.0,0.0,-0.8,2.4000000000000004,9.600000000000001,2.3000000000000003,-3.2,1.4
1698411750306.0,16,-0.1,0.1,0.1,-0.8,2.4000000000000004,9.700000000000001,2.3000000000000003,-2.3000000000000003,0.30000000000000004
1698411750323.0,16,-0.2,-0.1,0.2,-0.9,2.3000000000000003,9.8,0.9,4.5,0.0
1698411750339.0,16,-0.2,-0.1,0.2,-0.9,2.2,9.8,-1.6,12.000000000000002,2.1999999999999997
1698411750356.0,16,-0.1,-0.1,0.2,-0.9,2.3000000000000003,9.8,0.1,15.7,3.9
1698411750373.0,16,-0.2,-0.1,0.2,-1.0,2.2,9.8,0.5,17.9,4.3999999999999995
1698411750389.0,16,-0.2,-0.2,0.1,-1.0,2.2,9.700000000000001,0.6000000000000001,20.1,5.6
1698411750405.0,16,-0.2,0.2,-0.9,-1.2000000000000002,2.6,8.6,6.1000000000000005,12.200000000000001,4.300000000000001
1698411750423.0,16,-0.5,0.2,-1.2000000000000002,-1.6,2.1,8.8,13.700000000000001,-11.000000000000002,1.5000000000000002
1698411750439.0,16,-0.4,-0.4,-0.2,-1.2000000000000002,2.0,9.4,6.7,-20.4,3.5
1698411750455.0,16,0.1,0.0,0.0,-0.8,2.5,9.600000000000001,-5.6,2.1,3.9
1698411750472.0,16,0.30000000000000004,0.1,0.1,-0.5,2.5,9.600000000000001,-6.6000000000000005,4.3999999999999995,3.0000000000000004
1698411750489.0,16,0.4,0.2,0.6000000000000001,-0.4,2.6,10.200000000000001,-4.9,5.9,0.0
1698411750505.0,16,0.30000000000000004,0.0,0.5,-0.6000000000000001,2.4000000000000004,10.100000000000001,-3.3000000000000003,15.000000000000002,-4.1000000000000005
1698411750523.0,16,0.1,0.30000000000000004,0.0,-0.8,2.7,9.600000000000001,5.7,1.8,-5.8
