ts,interval,accx,accy,accz,accGx,accGy,accGz,alpha,beta,gamma
1698675165007.0,16,0.1,0.0,0.0,-1.1,9.3,2.1,0.2,-5.8,-0.8
1698675165024.0,16,0.1,0.0,0.1,-1.1,9.3,2.2,1.2000000000000002,-4.3999999999999995,-0.4
1698675165040.0,16,0.1,0.0,0.1,-1.1,9.200000000000001,2.2,1.5000000000000002,-4.300000000000001,-0.5
1698675165057.0,16,0.1,0.0,0.0,-1.1,9.3,2.1,1.6,-4.300000000000001,-0.4
1698675165073.0,16,0.1,0.0,0.0,-1.1,9.3,2.1,0.7,-3.2,-0.30000000000000004
1698675165090.0,16,0.1,0.0,0.0,-1.1,9.3,2.1,-0.30000000000000004,-2.5,0.0
1698675165107.0,16,0.1,0.0,0.0,-1.1,9.3,2.1,-0.4,-2.0,-0.1
1698675165125.0,16,0.0,0.0,0.0,-1.1,9.3,2.1,0.7,-1.4,0.5
1698675165140.0,16,0.0,-0.1,0.0,-1.1,9.200000000000001,2.1,1.3,-1.2000000000000002,0.30000000000000004
1698675165156.0,16,0.0,0.0,0.0,-1.1,9.200000000000001,2.1,0.9,-0.30000000000000004,0.1
1698675165176.0,16,0.0,0.0,0.0,-1.1,9.3,2.1,0.5,0.0,0.1
1698675165190.0,16,0.0,0.0,0.0,-1.2000000000000002,9.3,2.1,0.1,0.9,-0.30000000000000004
1698675165207.0,16,0.0,0.0,0.0,-1.2000000000000002,9.3,2.1,0.0,1.0999999999999999,-0.4
1698675165223.0,16,0.0,0.0,0.0,-1.2000000000000002,9.3,2.1,-0.5,1.2000000000000002,-0.4
1698675165240.0,16,-0.1,0.1,0.0,-1.2000000000000002,9.3,2.1,-0.6000000000000001,2.1,-0.4
1698675165257.0,16,-0.1,0.0,0.0,-1.2000000000000002,9.3,2.1,-0.7,1.9,-0.6000000000000001
1698675165274.0,16,-0.1,0.0,0.0,-1.2000000000000002,9.3,2.1,-1.0,1.3,-0.8
1698675165290.0,16,-0.1,0.0,0.0,-1.3,9.3,2.1,-1.3,1.0999999999999999,-0.9
1698675165307.0,16,-0.1,0.0,0.0,-1.3,9.3,2.1,-1.5000000000000002,1.0,-1.0999999999999999
1698675165324.0,16,-0.1,0.0,0.0,-1.3,9.3,2.2,-1.8,1.0,-1.0999999999999999
1698675165340.0,16,-0.1,0.0,0.0,-1.3,9.3,2.1,-1.7,0.9,-1.2000000000000002
1698675165357.0,16,-0.1,0.0,0.0,-1.3,9.3,2.1,-1.5000000000000002,1.0,-0.8
1698675165373.0,16,-0.1,0.0,0.0,-1.3,9.3,2.1,-1.6,0.7,-0.7
1698675165390.0,16,0.0,0.0,0.0,-1.3,9.3,2.2,-1.6,0.4,-0.7
1698675165407.0,16,0.0,0.0,0.0,-1.3,9.3,2.2,-1.5000000000000002,0.4,-0.6000000000000001
1698675165425.0,16,-0.1,0.0,0.0,-1.3,9.3,2.2,-1.4,0.5,-0.4
1698675165440.0,16,0.0,0.0,0.0,-1.3,9.3,2.1,-1.6,-0.1,-0.30000000000000004
1698675165457.0,16,0.0,0.0,0.0,-1.3,9.3,2.1,-1.9,-0.7,-0.2
1698675165474.0,16,0.0,-0.1,0.0,-1.2000000000000002,9.200000000000001,2.1,-2.1999999999999997,-0.9,-0.1
1698675165490.0,16,0.0,0.0,0.0,-1.2000000000000002,9.200000000000001,2.1,-2.0,-1.0999999999999999,-0.1
1698675165507.0,16,0.0,0.0,0.0,-1.2000000000000002,9.200000000000001,2.2,-1.6,-1.3,0.0
1698675165523.0,16,0.0,0.0,0.0,-1.2000000000000002,9.200000000000001,2.2,-1.3,-1.3,0.1
1698675165540.0,16,0.0,0.0,0.0,-1.2000000000000002,9.200000000000001,2.2,-0.9,-1.2000000000000002,0.0
1698675165557.0,16,0.0,0.0,0.0,-1.3,9.3,2.2,-1.0,-1.3,-0.2
1698675165574.0,16,0.0,0.0,0.0,-1.2000000000000002,9.3,2.2,-1.0,-1.5000000000000002,-0.30000000000000004
1698675165590.0,16,0.0,0.0,0.0,-1.2000000000000002,9.3,2.2,-0.9,-2.0,-0.4
1698675165607.0,16,0.0,0.0,0.0,-1.2000000000000002,9.200000000000001,2.2,-0.8,-2.1,-0.6000000000000001
1698675165624.0,16,0.0,0.0,0.0,-1.2000000000000002,9.200000000000001,2.2,-0.4,-2.6,-0.5
1698675165640.0,16,-0.1,0.0,0.0,-1.3,9.200000000000001,2.2,-0.2,-3.8,-0.8
1698675165657.0,16,0.0,0.0,0.0,-1.2000000000000002,9.3,2.2,-0.2,-5.0,-1.3
1698675165673.0,16,0.0,0.0,0.1,-1.2000000000000002,9.3,2.3000000000000003,-0.1,-5.300000000000001,-1.7
1698675165690.0,16,0.1,0.0,0.0,-1.1,9.3,2.3000000000000003,-0.4,-3.9,-1.2000000000000002
1698675165706.0,16,0.1,-0.1,0.0,-1.2000000000000002,9.200000000000001,2.3000000000000003,-0.4,-1.4,0.1
1698675165724.0,16,0.1,-0.1,0.0,-1.2000000000000002,9.200000000000001,2.2,-0.1,-0.9,0.6000000000000001
1698675165740.0,16,0.0,0.0,0.0,-1.2000000000000002,9.200000000000001,2.2,0.1,-1.2000000000000002,0.7
1698675165757.0,16,0.0,0.0,0.0,-1.2000000000000002,9.3,2.2,0.2,-1.4,0.30000000000000004
1698675165774.0,16,-0.1,0.0,0.0,-1.3,9.3,2.2,0.1,-1.5000000000000002,0.0
1698675165791.0,16,-0.1,0.0,0.0,-1.3,9.3,2.2,0.30000000000000004,-1.7,0.1
1698675165807.0,16,-0.1,0.0,0.0,-1.3,9.200000000000001,2.2,0.4,-2.5,0.0
1698675165823.0,16,-0.1,-0.1,0.0,-1.3,9.200000000000001,2.2,0.7,-2.3000000000000003,0.4
1698675165840.0,16,0.0,-0.1,0.1,-1.3,9.200000000000001,2.3000000000000003,1.4,-2.1999999999999997,0.7
1698675165856.0,16,0.0,-0.1,0.1,-1.2000000000000002,9.1,2.3000000000000003,3.0000000000000004,-1.8,0.7
1698675165873.0,16,0.0,0.0,0.1,-1.2000000000000002,9.200000000000001,2.3000000000000003,3.5,-1.6,1.0
1698675165890.0,16,0.0,0.0,0.0,-1.2000000000000002,9.200000000000001,2.2,3.0000000000000004,-0.30000000000000004,1.0
1698675165907.0,16,0.0,0.0,0.0,-1.2000000000000002,9.3,2.2,1.8,0.4,1.3
1698675165924.0,16,0.0,0.1,0.0,-1.2000000000000002,9.3,2.1,0.9,-0.2,1.5000000000000002
1698675165940.0,16,0.0,0.1,-0.1,-1.2000000000000002,9.4,2.1,0.6000000000000001,-0.6000000000000001,1.3
1698675165957.0,16,0.0,0.1,-0.1,-1.2000000000000002,9.3,2.1,0.7,-1.2000000000000002,0.30000000000000004
1698675165974.0,16,0.0,0.1,-0.1,-1.2000000000000002,9.3,2.1,0.7,-1.4,0.2
1698675165991.0,16,0.0,0.0,0.0,-1.2000000000000002,9.3,2.1,1.0,-1.8,-0.2
1698675166007.0,16,0.0,0.0,0.0,-1.2000000000000002,9.3,2.2,1.0999999999999999,-2.0,-0.2
1698675166024.0,16,0.0,0.0,-0.1,-1.2000000000000002,9.200000000000001,2.1,0.7,-1.5000000000000002,-0.1
1698675166041.0,16,0.1,0.0,0.0,-1.1,9.3,2.1,-0.4,-1.3,0.0
1698675166057.0,16,0.1,0.0,0.0,-1.1,9.3,2.2,-0.6000000000000001,-1.2000000000000002,-0.30000000000000004
1698675166074.0,16,0.1,0.0,0.0,-1.1,9.200000000000001,2.1,-0.1,-0.8,-0.30000000000000004
1698675166090.0,16,0.1,0.0,-0.1,-1.1,9.200000000000001,2.1,0.2,-0.6000000000000001,0.0
1698675166107.0,16,0.0,0.0,0.0,-1.2000000000000002,9.3,2.1,0.4,-0.30000000000000004,0.0
1698675166124.0,16,0.0,0.0,0.0,-1.1,9.3,2.1,0.5,-0.5,-0.2
1698675166141.0,16,0.0,0.0,0.0,-1.1,9.3,2.1,0.5,-0.9,-0.5
1698675166157.0,16,0.1,0.0,0.0,-1.1,9.3,2.1,0.30000000000000004,-0.5,-0.30000000000000004
1698675166174.0,16,0.1,0.0,0.0,-1.1,9.200000000000001,2.1,0.7,-0.1,-0.2
1698675166190.0,16,0.0,0.0,0.0,-1.1,9.200000000000001,2.1,1.0,0.30000000000000004,-0.2
1698675166207.0,16,0.0,0.0,0.0,-1.1,9.200000000000001,2.1,1.3,0.5,-0.30000000000000004
1698675166224.0,16,0.0,0.0,0.0,-1.1,9.200000000000001,2.1,1.5000000000000002,1.0,0.1
1698675166240.0,16,0.0,0.0,0.0,-1.2000000000000002,9.3,2.2,1.6,1.3,0.1
1698675166257.0,16,0.0,0.0,0.0,-1.2000000000000002,9.3,2.1,1.3,1.5000000000000002,0.2
1698675166275.0,16,0.0,0.0,0.0,-1.2000000000000002,9.3,2.1,1.0,1.2000000000000002,0.0
1698675166291.0,16,0.0,0.0,0.0,-1.2000000000000002,9.3,2.1,0.9,1.3,0.30000000000000004
1698675166307.0,16,0.0,0.0,0.0,-1.2000000000000002,9.3,2.1,0.9,1.0,0.30000000000000004
1698675166324.0,16,0.0,0.0,0.0,-1.2000000000000002,9.200000000000001,2.1,0.9,1.0999999999999999,0.4
1698675166340.0,16,0.0,0.0,0.0,-1.2000000000000002,9.200000000000001,2.1,1.0,1.2000000000000002,0.6000000000000001
1698675166358.0,16,0.0,0.0,0.0,-1.2000000000000002,9.200000000000001,2.1,0.9,1.5000000000000002,0.6000000000000001
1698675166374.0,16,0.0,0.0,0.0,-1.2000000000000002,9.200000000000001,2.1,0.9,1.6,0.7
1698675166390.0,16,0.0,0.1,-0.1,-1.2000000000000002,9.3,2.0,0.5,2.4000000000000004,0.6000000000000001
1698675166407.0,16,0.0,0.1,-0.1,-1.2000000000000002,9.4,2.0,-0.6000000000000001,3.5,0.4
1698675166423.0,16,0.0,0.1,-0.1,-1.1,9.3,2.0,-1.5000000000000002,5.4,1.0999999999999999
1698675166441.0,16,0.0,0.0,0.0,-1.2000000000000002,9.3,2.1,-1.8,5.500000000000001,2.1999999999999997
1698675166457.0,16,-0.1,0.1,-0.1,-1.2000000000000002,9.4,2.0,-2.1,5.6,2.5
1698675166473.0,16,0.0,0.1,-0.1,-1.2000000000000002,9.4,2.0,-3.3000000000000003,5.4,3.2
1698675166490.0,16,0.0,0.1,-0.1,-1.2000000000000002,9.4,2.0,-3.8,4.6000000000000005,2.9
1698675166507.0,16,0.0,0.1,-0.1,-1.2000000000000002,9.4,2.0,-4.0,3.3000000000000003,2.0
1698675166524.0,16,0.0,0.0,-0.1,-1.1,9.3,2.0,-4.300000000000001,3.6,1.7
1698675166540.0,16,0.0,0.1,-0.2,-1.1,9.4,2.0,-3.7000000000000006,4.3999999999999995,2.1
1698675166557.0,16,0.0,0.0,-0.1,-1.2000000000000002,9.3,2.0,-3.0000000000000004,4.0,2.1999999999999997
1698675166574.0,16,0.0,-0.2,0.0,-1.2000000000000002,9.1,2.1,-1.5000000000000002,3.6,1.9
1698675166591.0,16,0.0,-0.2,0.0,-1.2000000000000002,9.1,2.1,-0.7,3.2,1.9
1698675166607.0,16,0.0,-0.1,0.0,-1.2000000000000002,9.1,2.2,-0.30000000000000004,4.0,2.4000000000000004
1698675166623.0,16,-0.1,-0.1,0.0,-1.2000000000000002,9.200000000000001,2.1,-0.2,3.2,2.3000000000000003
1698675166641.0,16,-0.1,-0.1,0.0,-1.2000000000000002,9.200000000000001,2.1,-0.4,2.7,2.1999999999999997
1698675166657.0,16,0.0,0.0,0.0,-1.2000000000000002,9.200000000000001,2.1,-0.30000000000000004,1.3,1.9
1698675166674.0,16,0.0,0.0,0.0,-1.2000000000000002,9.3,2.1,0.4,1.0999999999999999,1.8
1698675166690.0,16,0.0,0.0,0.0,-1.1,9.3,2.1,1.0,1.0999999999999999,1.8
1698675166707.0,16,-0.1,0.1,0.0,-1.2000000000000002,9.3,2.1,1.3,1.8,1.9
1698675166724.0,16,-0.1,0.2,0.0,-1.3,9.4,2.2,0.9,0.7,1.3
1698675166740.0,16,-0.1,0.2,0.1,-1.2000000000000002,9.5,2.2,-0.6000000000000001,-0.7,1.0999999999999999
1698675166757.0,16,-0.1,0.2,0.0,-1.2000000000000002,9.5,2.2,-1.3,-1.0999999999999999,0.8
1698675166774.0,16,-0.1,0.2,0.1,-1.3,9.5,2.2,-3.3000000000000003,-0.9,0.9
1698675166790.0,16,-0.2,0.1,0.1,-1.3,9.4,2.3000000000000003,-3.6,-1.7,1.0999999999999999
1698675166807.0,16,-0.2,-0.2,0.0,-1.4000000000000001,9.1,2.2,-4.2,-3.1,2.7
1698675166823.0,16,-0.4,-0.2,-0.1,-1.5,9.1,2.0,-4.3999999999999995,-6.4,4.6000000000000005
1698675166841.0,16,-0.6000000000000001,-0.2,-0.30000000000000004,-1.7000000000000002,9.1,1.9000000000000001,-3.7000000000000006,-13.3,4.300000000000001
1698675166857.0,16,-0.7000000000000001,-0.2,-0.2,-1.8,9.1,1.9000000000000001,-2.7,-16.700000000000003,3.3000000000000003
1698675166873.0,16,-0.7000000000000001,-0.2,-0.2,-1.8,9.1,2.0,0.8,-21.700000000000003,0.6000000000000001
1698675166890.0,16,-0.7000000000000001,-0.2,-0.2,-1.7000000000000002,9.1,1.9000000000000001,3.1,-25.8,-2.8
1698675166908.0,16,-0.5,-0.1,-0.2,-1.6,9.200000000000001,2.0,3.5,-27.400000000000002,-4.3999999999999995
1698675166923.0,16,-0.5,0.0,-0.2,-1.5,9.3,2.0,3.7000000000000006,-32.1,-6.3
1698675166940.0,16,-0.4,0.1,-0.30000000000000004,-1.5,9.4,1.9000000000000001,4.0,-38.300000000000004,-7.9
1698675166957.0,16,-0.30000000000000004,0.0,-0.30000000000000004,-1.4000000000000001,9.3,1.9000000000000001,3.7000000000000006,-40.8,-8.700000000000001
1698675166973.0,16,-0.1,-0.1,-0.1,-1.2000000000000002,9.200000000000001,2.1,3.2,-43.800000000000004,-10.8
1698675166991.0,16,-0.1,-0.1,-0.1,-1.2000000000000002,9.200000000000001,2.1,3.5,-44.1,-11.8
1698675167007.0,16,0.2,0.0,-0.1,-0.9,9.3,2.1,3.6,-43.6,-13.3
1698675167023.0,16,0.30000000000000004,0.1,0.0,-0.8,9.4,2.2,3.6,-43.800000000000004,-14.500000000000002
1698675167040.0,16,0.4,0.1,0.0,-0.7000000000000001,9.4,2.2,3.5,-42.300000000000004,-14.100000000000001
1698675167056.0,16,0.5,0.0,0.1,-0.6000000000000001,9.3,2.3000000000000003,3.3000000000000003,-41.9,-12.100000000000001
1698675167073.0,16,0.5,0.0,0.1,-0.7000000000000001,9.3,2.3000000000000003,3.2,-41.1,-11.9
1698675167090.0,16,0.5,0.1,0.1,-0.6000000000000001,9.3,2.3000000000000003,2.9,-39.00000000000001,-10.1
1698675167107.0,16,0.5,0.1,0.1,-0.6000000000000001,9.3,2.3000000000000003,2.8,-37.6,-8.700000000000001
1698675167123.0,16,0.4,0.1,0.1,-0.7000000000000001,9.3,2.3000000000000003,2.3000000000000003,-35.0,-7.500000000000001
1698675167140.0,16,0.1,0.0,0.1,-1.0,9.3,2.4000000000000004,1.3,-31.900000000000002,-8.5
1698675167157.0,16,0.30000000000000004,0.0,0.1,-0.8,9.3,2.3000000000000003,-0.5,-25.2,-11.9
1698675167173.0,16,0.5,0.1,0.0,-0.6000000000000001,9.4,2.3000000000000003,-1.0999999999999999,-26.1,-12.700000000000001
1698675167190.0,16,0.30000000000000004,0.1,0.0,-0.8,9.4,2.3000000000000003,-2.1,-26.8,-12.8
1698675167207.0,16,0.30000000000000004,0.1,0.0,-0.8,9.4,2.3000000000000003,-2.3000000000000003,-26.3,-11.3
1698675167223.0,16,0.30000000000000004,-0.1,0.0,-0.8,9.200000000000001,2.3000000000000003,-2.0,-25.3,-6.8
1698675167240.0,16,0.30000000000000004,-0.1,0.0,-0.8,9.1,2.3000000000000003,-1.3,-25.6,-5.2
1698675167256.0,16,0.2,-0.1,0.0,-0.9,9.200000000000001,2.3000000000000003,0.0,-22.900000000000002,-4.3999999999999995
1698675167273.0,16,0.1,-0.1,0.0,-0.9,9.200000000000001,2.3000000000000003,0.1,-22.000000000000004,-5.0
1698675167291.0,16,0.1,0.0,0.0,-0.9,9.3,2.3000000000000003,0.30000000000000004,-20.8,-5.6
1698675167307.0,16,0.1,0.0,-0.1,-0.9,9.3,2.3000000000000003,0.1,-20.3,-5.9
1698675167324.0,16,0.1,0.0,-0.1,-0.9,9.3,2.3000000000000003,-0.9,-19.200000000000003,-6.1000000000000005
1698675167340.0,16,0.2,0.0,-0.1,-0.9,9.3,2.3000000000000003,-1.8,-17.8,-6.000000000000001
1698675167357.0,16,0.1,0.0,-0.1,-0.9,9.200000000000001,2.3000000000000003,-2.3000000000000003,-14.800000000000002,-6.2
1698675167373.0,16,0.4,0.0,-0.1,-0.8,9.200000000000001,2.3000000000000003,-2.0,-11.8,-6.3
1698675167390.0,16,0.30000000000000004,0.0,-0.1,-0.8,9.200000000000001,2.3000000000000003,-0.5,-10.2,-5.2
1698675167407.0,16,0.2,0.0,0.0,-0.8,9.200000000000001,2.3000000000000003,0.30000000000000004,-10.9,-2.9
1698675167423.0,16,0.1,-0.1,-0.1,-0.9,9.200000000000001,2.3000000000000003,0.5,-8.3,-2.1999999999999997
1698675167440.0,16,0.1,-0.1,0.0,-0.9,9.200000000000001,2.3000000000000003,0.0,-7.6,-1.4
1698675167457.0,16,0.1,0.0,0.0,-0.9,9.200000000000001,2.3000000000000003,-0.7,-5.500000000000001,-0.5
1698675167473.0,16,0.1,0.0,0.0,-0.9,9.3,2.3000000000000003,-0.5,-4.3999999999999995,-0.1
1698675167490.0,16,0.0,0.0,-0.1,-1.0,9.200000000000001,2.3000000000000003,-0.30000000000000004,-2.3000000000000003,0.5
1698675167507.0,16,0.0,0.0,-0.1,-1.0,9.200000000000001,2.3000000000000003,-0.1,-1.6,0.5
1698675167524.0,16,-0.1,0.0,-0.1,-1.1,9.200000000000001,2.3000000000000003,-0.4,0.0,0.9
1698675167540.0,16,-0.1,0.0,-0.1,-1.1,9.3,2.2,-0.9,0.7,0.9
1698675167557.0,16,-0.1,0.0,-0.1,-1.1,9.200000000000001,2.3000000000000003,-0.9,1.2000000000000002,1.0
1698675167573.0,16,-0.1,0.0,-0.1,-1.1,9.200000000000001,2.3000000000000003,-0.8,1.6,1.0999999999999999
1698675167590.0,16,-0.1,0.0,-0.1,-1.1,9.200000000000001,2.3000000000000003,-0.30000000000000004,2.4000000000000004,1.0999999999999999
1698675167607.0,16,-0.1,-0.1,-0.1,-1.1,9.1,2.3000000000000003,0.2,3.0000000000000004,0.8
1698675167624.0,16,-0.1,-0.1,-0.1,-1.1,9.1,2.3000000000000003,0.4,3.2,0.8
1698675167640.0,16,-0.1,0.0,-0.1,-1.1,9.200000000000001,2.3000000000000003,0.9,3.2,0.5
1698675167657.0,16,-0.1,0.0,0.0,-1.1,9.200000000000001,2.3000000000000003,1.2000000000000002,3.3000000000000003,0.5
1698675167674.0,16,-0.1,0.0,0.0,-1.1,9.200000000000001,2.3000000000000003,1.3,3.6,0.2
1698675167690.0,16,0.0,0.0,0.0,-1.1,9.200000000000001,2.3000000000000003,1.2000000000000002,4.0,0.0
1698675167707.0,16,0.0,0.1,0.0,-1.1,9.3,2.3000000000000003,0.8,5.2,0.2
1698675167723.0,16,-0.1,0.1,0.0,-1.1,9.3,2.3000000000000003,0.5,6.3,0.7
1698675167740.0,16,-0.1,0.0,0.0,-1.1,9.3,2.3000000000000003,0.4,6.8,0.8
1698675167756.0,16,-0.1,0.0,0.0,-1.1,9.200000000000001,2.3000000000000003,0.5,7.1000000000000005,0.7
1698675167773.0,16,0.0,0.0,-0.1,-1.1,9.3,2.2,0.30000000000000004,7.500000000000001,0.7
1698675167790.0,16,-0.1,0.0,0.0,-1.1,9.3,2.3000000000000003,0.0,7.6,0.7
1698675167807.0,16,0.0,0.0,0.0,-1.1,9.3,2.3000000000000003,0.2,7.699999999999999,0.5
1698675167823.0,16,0.0,0.0,0.0,-1.1,9.200000000000001,2.3000000000000003,0.4,8.5,0.5
1698675167840.0,16,0.0,0.0,0.0,-1.1,9.200000000000001,2.3000000000000003,0.4,9.1,0.5
1698675167856.0,16,0.0,0.0,0.0,-1.1,9.200000000000001,2.3000000000000003,0.0,10.1,0.9
1698675167873.0,16,0.0,0.0,0.0,-1.1,9.3,2.3000000000000003,-0.4,10.5,1.3
1698675167890.0,16,0.0,0.0,0.0,-1.1,9.200000000000001,2.2,-0.30000000000000004,10.1,1.0999999999999999
1698675167907.0,16,-0.1,-0.1,0.0,-1.2000000000000002,9.200000000000001,2.3000000000000003,-0.1,10.1,0.8
1698675167923.0,16,0.0,-0.1,0.0,-1.1,9.1,2.3000000000000003,0.9,10.1,0.2
1698675167940.0,16,0.0,-0.1,0.0,-1.1,9.200000000000001,2.2,1.3,10.2,-0.1
1698675167957.0,16,0.0,0.0,0.0,-1.1,9.3,2.2,2.0,11.3,0.0
1698675167974.0,16,0.0,0.1,0.0,-1.2000000000000002,9.3,2.3000000000000003,2.3000000000000003,11.5,0.1
1698675167990.0,16,0.0,0.0,0.0,-1.2000000000000002,9.3,2.2,2.5,11.5,0.4
1698675168007.0,16,0.0,0.0,0.0,-1.1,9.200000000000001,2.3000000000000003,1.9,11.000000000000002,0.5
1698675168023.0,16,0.0,0.1,0.0,-1.2000000000000002,9.3,2.3000000000000003,1.3,12.100000000000001,1.0
1698675168040.0,16,0.0,0.1,0.0,-1.2000000000000002,9.3,2.2,1.0999999999999999,12.4,1.3
1698675168057.0,16,0.0,0.1,0.0,-1.2000000000000002,9.3,2.2,0.8,12.100000000000001,1.6
1698675168073.0,16,0.0,0.0,0.0,-1.2000000000000002,9.200000000000001,2.2,1.2000000000000002,11.3,1.8
1698675168090.0,16,0.0,-0.1,0.0,-1.2000000000000002,9.1,2.2,1.3,11.2,2.1
1698675168107.0,16,0.0,-0.1,0.1,-1.2000000000000002,9.1,2.2,1.8,11.5,2.4000000000000004
1698675168124.0,16,0.0,0.0,0.0,-1.2000000000000002,9.200000000000001,2.2,2.3000000000000003,11.9,2.8
1698675168143.0,16,0.0,0.0,0.1,-1.2000000000000002,9.200000000000001,2.2,2.4000000000000004,12.000000000000002,2.8
1698675168157.0,16,0.0,0.0,0.0,-1.2000000000000002,9.3,2.2,2.0,11.8,2.8
1698675168174.0,16,-0.1,0.1,0.0,-1.3,9.3,2.1,0.9,12.200000000000001,3.0000000000000004
1698675168191.0,16,0.0,0.1,0.0,-1.2000000000000002,9.4,2.1,0.1,12.4,3.2
1698675168210.0,16,-0.1,0.1,0.0,-1.3,9.4,2.1,-0.6000000000000001,11.5,3.2
1698675168224.0,16,-0.1,0.1,0.0,-1.3,9.4,2.1,-0.9,10.5,3.2
1698675168240.0,16,-0.2,0.1,0.0,-1.3,9.4,2.1,-1.3,9.1,4.1000000000000005
1698675168257.0,16,-0.2,0.1,0.0,-1.4000000000000001,9.4,2.1,-1.8,9.0,3.6
1698675168274.0,16,-0.1,0.1,0.0,-1.3,9.4,2.2,-2.0,9.200000000000001,3.0000000000000004
1698675168290.0,16,0.0,0.1,0.0,-1.2000000000000002,9.3,2.2,-2.1,9.4,1.0999999999999999
1698675168307.0,16,0.0,0.0,0.0,-1.1,9.3,2.1,-2.8,10.9,0.5
1698675168323.0,16,0.1,-0.1,0.0,-1.1,9.200000000000001,2.1,-3.4,8.4,3.2
1698675168340.0,16,0.1,-0.1,-0.1,-1.1,9.200000000000001,2.1,-3.5,9.5,4.300000000000001
1698675168357.0,16,0.1,0.0,0.0,-1.1,9.3,2.1,-3.4,12.4,5.0
1698675168374.0,16,0.1,0.0,0.0,-1.0,9.200000000000001,2.1,-2.3000000000000003,14.800000000000002,4.2
1698675168392.0,16,0.1,-0.1,0.0,-1.1,9.200000000000001,2.2,-2.1,16.3,3.6
1698675168409.0,16,0.2,0.0,0.0,-1.0,9.3,2.2,-2.1999999999999997,20.6,2.1999999999999997
1698675168425.0,16,0.2,-0.1,0.0,-1.0,9.200000000000001,2.2,-2.6,21.700000000000003,3.2
1698675168440.0,16,0.1,0.0,0.0,-1.0,9.3,2.1,-3.3000000000000003,22.900000000000002,4.7
1698675168457.0,16,0.1,0.0,-0.1,-1.0,9.3,2.1,-3.5,23.1,5.2
1698675168474.0,16,0.1,0.0,-0.1,-1.0,9.3,2.0,-3.4,21.1,5.7
1698675168490.0,16,-0.2,0.0,0.0,-1.3,9.3,2.1,-2.6,19.500000000000004,7.9
1698675168507.0,16,-0.2,0.0,0.0,-1.3,9.3,2.1,-1.8,22.8,6.9
1698675168524.0,16,-0.2,0.0,0.0,-1.4000000000000001,9.3,2.1,-1.4,23.1,5.4
1698675168540.0,16,-0.1,0.0,0.0,-1.3,9.3,2.1,-1.8,22.7,2.6
1698675168557.0,16,0.0,0.0,0.0,-1.2000000000000002,9.3,2.2,-2.7,20.900000000000002,2.7
1698675168575.0,16,0.0,-0.1,0.0,-1.2000000000000002,9.200000000000001,2.2,-3.4,21.0,3.4
1698675168590.0,16,0.0,-0.1,0.0,-1.2000000000000002,9.200000000000001,2.2,-3.5,21.5,3.9
1698675168607.0,16,-0.1,-0.1,0.0,-1.3,9.200000000000001,2.1,-3.5,22.000000000000004,4.300000000000001
1698675168624.0,16,-0.1,-0.1,-0.1,-1.3,9.200000000000001,2.1,-3.3000000000000003,21.400000000000002,4.3999999999999995
1698675168640.0,16,-0.2,0.0,0.0,-1.4000000000000001,9.200000000000001,2.2,-1.3,17.400000000000002,3.9
1698675168657.0,16,-0.2,0.0,0.0,-1.4000000000000001,9.200000000000001,2.2,-0.7,16.2,3.6
1698675168674.0,16,-0.1,0.0,0.1,-1.3,9.3,2.2,-0.6000000000000001,14.500000000000002,4.1000000000000005
1698675168691.0,16,-0.2,0.0,0.1,-1.4000000000000001,9.3,2.3000000000000003,-0.8,13.4,4.300000000000001
1698675168707.0,16,-0.2,0.1,0.1,-1.4000000000000001,9.3,2.2,-2.0,16.0,3.0000000000000004
1698675168724.0,16,-0.1,0.1,0.0,-1.4000000000000001,9.3,2.2,-3.3000000000000003,12.6,2.7
1698675168740.0,16,-0.1,0.1,0.0,-1.4000000000000001,9.3,2.2,-4.5,11.6,2.6
1698675168757.0,16,-0.2,0.0,0.0,-1.4000000000000001,9.200000000000001,2.2,-4.2,10.9,2.4000000000000004
1698675168775.0,16,-0.2,-0.1,0.0,-1.4000000000000001,9.200000000000001,2.2,-3.4,9.8,2.0
1698675168790.0,16,-0.1,-0.1,0.0,-1.4000000000000001,9.200000000000001,2.2,-2.3000000000000003,8.799999999999999,1.4
1698675168806.0,16,-0.1,0.0,0.1,-1.4000000000000001,9.200000000000001,2.3000000000000003,-2.0,8.799999999999999,1.7
1698675168824.0,16,-0.1,0.0,0.0,-1.4000000000000001,9.200000000000001,2.2,-2.9,8.0,1.9
1698675168840.0,16,-0.1,0.0,0.0,-1.4000000000000001,9.200000000000001,2.2,-4.0,5.9,1.3
1698675168857.0,16,-0.1,0.0,0.0,-1.4000000000000001,9.3,2.2,-4.0,4.7,1.3
1698675168875.0,16,-0.1,0.0,-0.1,-1.4000000000000001,9.200000000000001,2.2,-3.5,3.2,0.4
1698675168890.0,16,-0.1,-0.1,0.0,-1.4000000000000001,9.1,2.2,-2.9,2.4000000000000004,0.1
1698675168907.0,16,-0.1,-0.2,0.1,-1.4000000000000001,9.1,2.3000000000000003,-0.4,0.5,-0.6000000000000001
1698675168924.0,16,-0.1,-0.2,0.1,-1.4000000000000001,9.1,2.3000000000000003,-0.4,0.5,-0.6000000000000001
1698675168940.0,16,0.0,-0.1,0.1,-1.3,9.1,2.3000000000000003,0.9,0.4,-0.4
1698675168957.0,16,0.0,0.0,0.1,-1.3,9.200000000000001,2.3000000000000003,1.0999999999999999,0.30000000000000004,-0.5
1698675168973.0,16,0.1,0.0,0.1,-1.3,9.200000000000001,2.3000000000000003,1.6,-0.2,-0.8
1698675168990.0,16,0.0,0.0,0.0,-1.3,9.200000000000001,2.3000000000000003,2.1,-0.5,-0.9
1698675169008.0,16,0.0,0.0,0.0,-1.3,9.200000000000001,2.3000000000000003,2.1,-0.5,-0.6000000000000001
1698675169024.0,16,0.1,0.0,0.0,-1.2000000000000002,9.200000000000001,2.3000000000000003,2.1,-0.30000000000000004,-0.6000000000000001
1698675169040.0,16,0.1,0.0,0.1,-1.2000000000000002,9.3,2.3000000000000003,2.1,0.1,-0.7
1698675169057.0,16,0.1,0.0,0.1,-1.2000000000000002,9.3,2.3000000000000003,1.8,0.30000000000000004,-0.30000000000000004
1698675169073.0,16,0.1,0.0,0.1,-1.2000000000000002,9.200000000000001,2.3000000000000003,1.8,-0.1,0.1
1698675169090.0,16,0.1,0.0,0.1,-1.2000000000000002,9.200000000000001,2.3000000000000003,1.8,0.0,0.5
1698675169107.0,16,0.0,0.1,0.0,-1.3,9.3,2.3000000000000003,1.7,-0.1,0.6000000000000001
1698675169123.0,16,0.1,0.1,0.0,-1.2000000000000002,9.3,2.2,1.2000000000000002,-0.4,0.0
1698675169140.0,16,0.0,0.1,0.0,-1.3,9.3,2.2,0.5,-0.7,-0.30000000000000004
1698675169157.0,16,0.1,0.0,0.0,-1.2000000000000002,9.3,2.2,0.2,-0.4,-0.30000000000000004
1698675169173.0,16,0.1,0.0,0.0,-1.2000000000000002,9.3,2.3000000000000003,0.1,-0.1,-0.2
1698675169190.0,16,0.1,0.0,0.0,-1.2000000000000002,9.200000000000001,2.2,0.5,0.5,0.0
1698675169207.0,16,0.1,0.0,0.0,-1.2000000000000002,9.200000000000001,2.2,0.5,0.7,0.0
1698675169223.0,16,0.1,0.1,0.0,-1.2000000000000002,9.3,2.3000000000000003,0.6000000000000001,0.4,1.3
1698675169240.0,16,0.1,0.0,0.0,-1.2000000000000002,9.3,2.2,0.6000000000000001,-0.1,2.7
1698675169256.0,16,0.0,0.0,0.0,-1.3,9.3,2.2,0.7,0.2,2.3000000000000003
1698675169273.0,16,0.0,0.0,0.0,-1.3,9.200000000000001,2.2,0.9,2.0,1.0999999999999999
1698675169290.0,16,0.1,0.0,0.0,-1.2000000000000002,9.3,2.3000000000000003,0.6000000000000001,2.4000000000000004,-0.1
1698675169307.0,16,0.1,0.0,0.0,-1.2000000000000002,9.3,2.2,-0.1,1.4,0.2
1698675169323.0,16,0.0,0.0,0.0,-1.2000000000000002,9.200000000000001,2.2,-0.7,2.1,0.30000000000000004
1698675169340.0,16,0.0,0.0,0.0,-1.2000000000000002,9.200000000000001,2.2,-0.2,2.0,0.7
1698675169357.0,16,0.0,0.0,0.0,-1.2000000000000002,9.200000000000001,2.2,0.30000000000000004,2.7,0.6000000000000001
1698675169373.0,16,0.0,0.0,0.0,-1.2000000000000002,9.200000000000001,2.2,0.5,3.0000000000000004,0.5
1698675169390.0,16,0.0,0.0,0.0,-1.3,9.200000000000001,2.2,0.8,2.9,0.5
1698675169406.0,16,0.0,0.0,0.0,-1.3,9.3,2.2,0.6000000000000001,2.7,0.2
1698675169424.0,16,0.0,0.0,0.0,-1.3,9.3,2.2,0.4,2.4000000000000004,0.1
1698675169440.0,16,0.0,0.0,0.0,-1.3,9.3,2.2,0.1,2.4000000000000004,0.2
1698675169457.0,16,0.0,0.0,0.0,-1.3,9.3,2.2,-0.2,2.7,0.30000000000000004
1698675169473.0,16,0.0,0.0,0.0,-1.3,9.3,2.2,-0.2,2.6,0.2
1698675169490.0,16,0.0,0.0,0.0,-1.3,9.3,2.2,-0.1,2.3000000000000003,0.2
1698675169507.0,16,0.0,0.0,0.0,-1.3,9.3,2.2,-0.2,2.4000000000000004,0.2
1698675169523.0,16,0.0,0.0,0.0,-1.3,9.200000000000001,2.2,-0.2,2.1999999999999997,0.2
1698675169540.0,16,0.0,0.0,0.0,-1.3,9.3,2.2,-0.1,1.9,0.1
1698675169557.0,16,0.0,0.0,0.0,-1.3,9.3,2.2,0.0,1.8,0.0
1698675169573.0,16,0.0,0.0,0.0,-1.3,9.200000000000001,2.2,-0.2,1.6,-0.2
1698675169590.0,16,0.0,0.0,0.0,-1.3,9.200000000000001,2.2,-0.2,1.5000000000000002,-0.1
1698675169608.0,16,0.0,0.0,0.0,-1.3,9.200000000000001,2.2,0.2,0.8,-0.1
1698675169624.0,16,0.0,0.0,0.0,-1.3,9.200000000000001,2.2,0.6000000000000001,0.9,0.0
1698675169640.0,16,0.0,0.0,0.0,-1.3,9.3,2.2,0.7,1.0999999999999999,0.2
1698675169657.0,16,0.0,0.1,0.0,-1.3,9.3,2.1,0.4,0.7,0.30000000000000004
1698675169673.0,16,0.0,0.0,0.0,-1.3,9.3,2.2,0.4,-0.6000000000000001,-0.2
1698675169691.0,16,0.0,0.0,0.0,-1.3,9.3,2.2,0.1,-0.7,-0.30000000000000004
1698675169707.0,16,0.0,-0.1,0.0,-1.3,9.200000000000001,2.2,0.2,-0.5,-0.30000000000000004
1698675169724.0,16,0.0,-0.1,0.0,-1.3,9.1,2.2,0.6000000000000001,-0.1,-0.30000000000000004
1698675169740.0,16,0.0,-0.1,0.0,-1.2000000000000002,9.1,2.2,1.0999999999999999,0.2,-0.30000000000000004
1698675169760.0,16,0.0,-0.1,0.0,-1.3,9.200000000000001,2.2,1.3,0.2,-0.2
1698675169774.0,16,0.0,0.0,0.1,-1.3,9.200000000000001,2.2,1.3,0.2,0.0
1698675169790.0,16,0.0,0.0,0.0,-1.3,9.3,2.2,1.4,0.2,0.30000000000000004
1698675169807.0,16,0.0,0.0,0.0,-1.2000000000000002,9.3,2.2,1.0,-0.1,0.30000000000000004
1698675169823.0,16,0.0,0.0,0.0,-1.2000000000000002,9.3,2.2,1.0,-0.30000000000000004,0.30000000000000004
1698675169841.0,16,0.0,0.1,0.0,-1.3,9.3,2.2,0.9,-0.6000000000000001,0.30000000000000004
1698675169856.0,16,0.0,0.1,0.0,-1.3,9.3,2.2,0.4,-0.6000000000000001,0.30000000000000004
1698675169876.0,16,0.0,0.0,0.0,-1.2000000000000002,9.3,2.2,0.2,-0.5,0.4
1698675169890.0,16,0.0,0.0,0.0,-1.2000000000000002,9.200000000000001,2.2,0.2,-0.8,0.4
1698675169907.0,16,0.0,0.0,0.0,-1.2000000000000002,9.200000000000001,2.2,0.2,-0.8,0.2
1698675169923.0,16,0.0,0.0,0.0,-1.2000000000000002,9.3,2.1,0.5,-0.9,0.0
1698675169940.0,16,0.0,0.0,0.0,-1.2000000000000002,9.3,2.2,0.5,-0.7,0.0
1698675169957.0,16,0.0,0.1,0.0,-1.3,9.3,2.2,0.2,-0.9,-0.1
1698675169973.0,16,0.0,0.1,0.0,-1.3,9.3,2.2,0.0,-0.9,-0.1
1698675169990.0,16,0.0,0.0,0.0,-1.2000000000000002,9.3,2.2,-0.7,-1.0999999999999999,-0.30000000000000004
1698675170006.0,16,0.0,0.0,0.0,-1.2000000000000002,9.3,2.1,-0.8,-0.9,-0.30000000000000004
1698675170023.0,16,0.0,0.0,0.0,-1.2000000000000002,9.3,2.1,-0.7,-0.5,0.0
1698675170040.0,16,0.0,0.0,0.0,-1.2000000000000002,9.3,2.2,-0.6000000000000001,-0.2,0.0
1698675170057.0,16,0.0,0.0,0.0,-1.2000000000000002,9.3,2.1,-0.4,-0.30000000000000004,0.30000000000000004
1698675170073.0,16,0.0,0.0,0.0,-1.2000000000000002,9.3,2.1,-0.7,-0.2,0.30000000000000004
1698675170090.0,16,0.0,0.0,0.0,-1.2000000000000002,9.3,2.2,-0.7,-0.2,0.30000000000000004
1698675170106.0,16,0.0,0.0,0.0,-1.2000000000000002,9.200000000000001,2.2,-0.5,0.2,0.30000000000000004
1698675170123.0,16,0.0,0.0,0.0,-1.2000000000000002,9.3,2.2,-0.5,0.4,0.30000000000000004
1698675170140.0,16,0.0,0.0,0.0,-1.2000000000000002,9.3,2.1,-0.4,0.7,0.5
1698675170157.0,16,0.0,0.0,0.0,-1.3,9.3,2.1,-0.5,0.5,0.4
1698675170173.0,16,0.0,0.0,0.0,-1.2000000000000002,9.3,2.1,-0.6000000000000001,0.4,0.4
1698675170190.0,16,0.0,0.0,0.0,-1.2000000000000002,9.3,2.2,-0.30000000000000004,1.0,0.5
1698675170208.0,16,0.0,0.0,0.0,-1.3,9.200000000000001,2.1,0.0,0.8,0.6000000000000001
1698675170224.0,16,0.0,0.0,0.0,-1.3,9.3,2.1,0.4,0.2,0.30000000000000004
1698675170240.0,16,0.0,0.0,0.0,-1.3,9.200000000000001,2.2,0.1,-0.2,0.2
1698675170257.0,16,0.0,0.0,0.0,-1.2000000000000002,9.3,2.2,0.1,-0.7,-0.2
1698675170274.0,16,0.0,0.0,0.0,-1.2000000000000002,9.3,2.2,0.1,-1.0,-0.4
1698675170290.0,16,0.0,0.0,0.0,-1.2000000000000002,9.3,2.2,0.1,-0.7,-0.30000000000000004
1698675170306.0,16,0.0,0.0,0.1,-1.2000000000000002,9.3,2.2,-0.2,-0.30000000000000004,-0.2
1698675170323.0,16,0.0,0.0,0.1,-1.2000000000000002,9.3,2.2,-0.5,-0.4,-0.2
1698675170340.0,16,0.0,-0.1,0.0,-1.2000000000000002,9.200000000000001,2.2,-0.6000000000000001,-0.5,-0.30000000000000004
1698675170356.0,16,0.0,0.0,0.0,-1.3,9.200000000000001,2.2,-0.4,-0.9,-0.6000000000000001
1698675170373.0,16,0.0,0.0,0.0,-1.2000000000000002,9.200000000000001,2.2,-0.1,-1.0,-0.7
1698675170390.0,16,0.0,0.0,0.0,-1.2000000000000002,9.3,2.2,-0.1,-1.0999999999999999,-0.7
1698675170407.0,16,0.0,0.0,0.0,-1.2000000000000002,9.3,2.2,-0.30000000000000004,-0.9,-0.6000000000000001
1698675170423.0,16,0.0,0.0,0.0,-1.2000000000000002,9.3,2.2,-0.6000000000000001,-0.30000000000000004,-0.30000000000000004
1698675170441.0,16,0.0,0.0,0.0,-1.2000000000000002,9.3,2.2,-0.7,-0.2,-0.30000000000000004
1698675170457.0,16,0.0,0.0,0.0,-1.2000000000000002,9.3,2.2,-1.0,0.0,-0.2
1698675170473.0,16,0.0,0.0,0.0,-1.2000000000000002,9.3,2.2,-0.9,-0.30000000000000004,-0.5
1698675170491.0,16,0.0,0.0,0.0,-1.3,9.3,2.2,-1.2000000000000002,-0.1,-0.7
1698675170508.0,16,0.0,-0.1,0.0,-1.3,9.200000000000001,2.2,-1.0,0.2,-0.2
1698675170523.0,16,0.0,-0.1,0.0,-1.3,9.200000000000001,2.2,-0.9,0.4,-0.1
1698675170540.0,16,0.0,-0.1,0.0,-1.3,9.200000000000001,2.2,-0.30000000000000004,0.4,0.0
1698675170557.0,16,0.0,0.0,0.0,-1.3,9.200000000000001,2.2,-0.2,0.6000000000000001,-0.1
1698675170573.0,16,0.0,0.0,0.0,-1.2000000000000002,9.200000000000001,2.2,-0.1,1.0999999999999999,-0.2
1698675170590.0,16,0.0,0.0,0.0,-1.2000000000000002,9.200000000000001,2.2,-0.1,1.3,0.0
1698675170608.0,16,0.0,0.0,-0.1,-1.3,9.3,2.2,-0.4,1.5000000000000002,0.5
1698675170623.0,16,-0.1,0.1,0.0,-1.3,9.4,2.2,-0.7,1.9,0.7
1698675170640.0,16,0.0,0.1,0.0,-1.3,9.3,2.2,-1.7,1.7,1.0999999999999999
1698675170657.0,16,-0.1,0.0,0.0,-1.3,9.3,2.2,-1.4,1.6,0.8
1698675170673.0,16,0.0,0.0,0.0,-1.3,9.3,2.2,-1.8,1.5000000000000002,1.0999999999999999
1698675170692.0,16,0.0,0.0,0.0,-1.3,9.200000000000001,2.2,-1.5000000000000002,0.7,0.5
1698675170707.0,16,-0.1,-0.1,0.0,-1.3,9.1,2.2,-0.7,-0.30000000000000004,0.8
1698675170724.0,16,0.0,-0.1,0.0,-1.2000000000000002,9.200000000000001,2.2,-0.2,-0.6000000000000001,0.30000000000000004
1698675170740.0,16,0.0,-0.1,0.0,-1.3,9.1,2.2,0.2,-0.30000000000000004,0.2
1698675170757.0,16,0.0,0.0,0.0,-1.3,9.200000000000001,2.2,0.9,0.9,0.5
1698675170774.0,16,0.0,0.0,0.1,-1.3,9.200000000000001,2.3000000000000003,1.0999999999999999,1.0,0.30000000000000004
1698675170790.0,16,0.0,0.0,0.0,-1.3,9.200000000000001,2.2,0.9,1.0,0.0
1698675170806.0,16,0.0,0.0,0.0,-1.2000000000000002,9.200000000000001,2.2,-0.1,1.0999999999999999,0.30000000000000004
1698675170824.0,16,0.0,0.0,0.0,-1.3,9.3,2.2,-0.30000000000000004,1.0,0.5
1698675170840.0,16,0.0,0.0,0.0,-1.3,9.200000000000001,2.2,-0.2,0.1,0.5
1698675170857.0,16,0.0,0.0,0.0,-1.3,9.200000000000001,2.2,-0.1,-0.4,0.5
1698675170873.0,16,0.0,0.0,0.0,-1.3,9.3,2.2,0.1,-0.7,0.1
1698675170890.0,16,0.0,0.0,0.0,-1.3,9.3,2.2,-0.1,-0.6000000000000001,-0.30000000000000004
1698675170906.0,16,0.0,0.0,0.0,-1.3,9.3,2.2,-0.30000000000000004,-0.6000000000000001,-0.4
1698675170923.0,16,0.0,0.0,0.0,-1.3,9.3,2.2,-0.6000000000000001,-0.7,-0.6000000000000001
1698675170940.0,16,0.0,0.0,0.0,-1.3,9.200000000000001,2.2,-0.5,-0.9,-0.6000000000000001
1698675170957.0,16,0.0,0.0,0.0,-1.3,9.200000000000001,2.2,-0.2,-1.0,-0.6000000000000001
1698675170973.0,16,0.0,0.0,0.0,-1.3,9.200000000000001,2.2,0.30000000000000004,-1.2000000000000002,-0.8
1698675170990.0,16,0.0,0.0,0.0,-1.3,9.200000000000001,2.3000000000000003,0.4,-1.0999999999999999,-0.9
1698675171007.0,16,0.0,0.0,0.0,-1.3,9.3,2.3000000000000003,0.5,-0.9,-0.8
1698675171023.0,16,0.0,0.0,0.0,-1.2000000000000002,9.3,2.2,-0.1,-1.2000000000000002,-0.8
1698675171040.0,16,0.0,0.0,0.0,-1.2000000000000002,9.3,2.2,-0.5,-1.2000000000000002,-0.8
1698675171058.0,16,0.0,0.0,0.0,-1.3,9.3,2.2,-0.9,-1.0999999999999999,-0.6000000000000001
1698675171073.0,16,0.0,0.0,0.0,-1.3,9.3,2.2,-0.9,-1.0,-0.4
1698675171091.0,16,0.0,-0.1,0.0,-1.3,9.200000000000001,2.2,-0.7,-1.0,-0.30000000000000004
1698675171106.0,16,0.0,-0.1,0.0,-1.3,9.200000000000001,2.2,-0.5,-1.0999999999999999,-0.1
1698675171123.0,16,0.0,0.0,0.0,-1.3,9.3,2.2,-0.5,-0.5,0.0
1698675171140.0,16,0.0,0.0,0.0,-1.3,9.3,2.2,-0.6000000000000001,-0.4,0.1
1698675171157.0,16,0.0,0.0,0.0,-1.3,9.3,2.2,-0.6000000000000001,-0.7,-0.2
1698675171173.0,16,0.0,-0.1,0.0,-1.3,9.200000000000001,2.2,-0.6000000000000001,-1.4,-0.1
1698675171190.0,16,0.0,0.0,0.0,-1.3,9.200000000000001,2.3000000000000003,-0.1,-1.4,0.30000000000000004
1698675171207.0,16,0.0,-0.1,0.0,-1.3,9.200000000000001,2.2,0.2,-1.4,0.4
1698675171223.0,16,0.0,0.0,0.0,-1.2000000000000002,9.200000000000001,2.3000000000000003,0.4,-1.2000000000000002,0.5
1698675171240.0,16,0.0,0.1,0.0,-1.2000000000000002,9.3,2.2,0.5,-1.3,0.4
1698675171257.0,16,0.0,0.1,0.0,-1.3,9.3,2.2,0.1,-1.4,0.2
1698675171273.0,16,0.0,0.0,0.0,-1.3,9.200000000000001,2.2,-0.5,-1.5000000000000002,0.1
1698675171290.0,16,0.0,0.0,0.0,-1.3,9.200000000000001,2.2,-0.5,-1.6,0.1
1698675171306.0,16,0.0,-0.1,0.0,-1.3,9.200000000000001,2.2,0.2,-1.8,0.0
1698675171323.0,16,0.0,0.0,0.0,-1.3,9.200000000000001,2.2,1.0,-1.7,-0.1
1698675171340.0,16,0.0,0.0,0.0,-1.2000000000000002,9.200000000000001,2.2,1.0,-1.2000000000000002,-0.1
1698675171356.0,16,0.0,0.0,0.0,-1.2000000000000002,9.200000000000001,2.2,0.4,-0.9,0.0
1698675171373.0,16,0.0,0.0,0.0,-1.2000000000000002,9.3,2.2,-0.2,-0.9,0.2
1698675171390.0,16,0.0,0.0,0.0,-1.3,9.3,2.2,-0.8,-1.2000000000000002,0.2
1698675171407.0,16,0.0,0.1,-0.1,-1.3,9.3,2.2,-0.7,-1.4,0.2
1698675171425.0,16,-0.1,0.0,-0.1,-1.3,9.3,2.1,-0.5,-2.4000000000000004,-0.1
1698675171440.0,16,0.0,0.0,-0.1,-1.3,9.200000000000001,2.2,-0.6000000000000001,-2.3000000000000003,-0.1
1698675171456.0,16,0.0,0.0,-0.1,-1.3,9.200000000000001,2.2,-0.6000000000000001,-2.3000000000000003,0.0
1698675171473.0,16,-0.1,0.0,-0.1,-1.3,9.3,2.1,-0.7,-2.8,-0.4
1698675171493.0,16,0.0,0.1,-0.1,-1.3,9.3,2.1,-1.5000000000000002,-3.1,-0.7
1698675171506.0,16,-0.1,0.1,-0.1,-1.3,9.3,2.1,-1.9,-3.1,-0.8
1698675171523.0,16,-0.1,0.1,-0.1,-1.3,9.4,2.1,-2.3000000000000003,-3.6,-1.4
1698675171540.0,16,-0.2,0.1,-0.1,-1.4000000000000001,9.4,2.2,-3.1,-3.6,-1.2000000000000002
1698675171556.0,16,-0.2,0.1,-0.1,-1.5,9.4,2.2,-3.5,-4.2,-1.2000000000000002
1698675171574.0,16,-0.2,0.1,0.0,-1.4000000000000001,9.4,2.2,-4.6000000000000005,-6.6000000000000005,-1.9
1698675171591.0,16,-0.2,0.1,0.0,-1.5,9.4,2.3000000000000003,-6.2,-8.1,-2.4000000000000004
1698675171607.0,16,-0.2,0.1,0.0,-1.5,9.4,2.3000000000000003,-7.0,-7.8,-2.6
1698675171623.0,16,-0.1,0.1,-0.1,-1.4000000000000001,9.4,2.2,-8.4,-5.1,-3.1
1698675171641.0,16,0.0,0.1,-0.30000000000000004,-1.4000000000000001,9.4,2.0,-9.200000000000001,-2.9,-3.1
1698675171657.0,16,0.0,0.0,-0.5,-1.4000000000000001,9.3,1.8,-9.600000000000001,-2.6,-2.4000000000000004
1698675171674.0,16,-0.1,0.0,-0.7000000000000001,-1.5,9.200000000000001,1.7000000000000002,-10.5,-2.8,-0.9
1698675171690.0,16,-0.30000000000000004,0.1,-0.5,-1.6,9.3,1.9000000000000001,-9.5,-4.9,-0.1
1698675171707.0,16,-0.30000000000000004,0.1,-0.5,-1.5,9.4,2.0,-8.200000000000001,-6.6000000000000005,0.2
1698675171725.0,16,-0.1,0.2,-0.30000000000000004,-1.4000000000000001,9.4,2.1,-7.400000000000001,-8.600000000000001,1.0999999999999999
1698675171740.0,16,0.1,0.0,-0.2,-1.2000000000000002,9.200000000000001,2.2,-8.5,-7.400000000000001,2.7
1698675171757.0,16,0.2,-0.1,-0.4,-1.1,9.1,2.0,-12.100000000000001,-1.8,4.6000000000000005
1698675171773.0,16,0.2,-0.1,-0.5,-1.1,9.1,2.0,-13.5,-0.9,5.6
1698675171790.0,16,0.2,0.0,-0.6000000000000001,-1.0,9.200000000000001,1.9000000000000001,-14.200000000000001,-0.2,6.9
1698675171809.0,16,0.2,0.4,-0.7000000000000001,-1.1,9.600000000000001,1.9000000000000001,-12.700000000000001,0.0,11.2
1698675171824.0,16,0.2,0.5,-0.6000000000000001,-1.0,9.700000000000001,2.0,-12.100000000000001,-4.300000000000001,12.9
1698675171840.0,16,0.2,0.2,0.0,-1.0,9.4,2.6,-10.9,-13.8,14.800000000000002
1698675171856.0,16,-0.1,-0.5,0.2,-1.2000000000000002,8.700000000000001,2.9000000000000004,-10.0,-31.3,10.600000000000001
1698675171873.0,16,-0.4,-0.9,0.1,-1.5,8.3,2.8000000000000003,-10.9,-39.300000000000004,7.9
1698675171890.0,16,-0.8,-1.5,-0.5,-1.8,7.6000000000000005,2.3000000000000003,-19.700000000000003,-24.9,-4.0
1698675171906.0,16,-0.9,0.30000000000000004,-1.1,-1.9000000000000001,9.4,1.8,-25.0,-7.2,-17.8
1698675171923.0,16,-0.7000000000000001,1.6,-1.4000000000000001,-1.8,10.700000000000001,1.5,-25.5,-5.2,-16.400000000000002
1698675171940.0,16,0.2,2.8000000000000003,-1.6,-0.9,11.9,1.3,-25.0,-11.5,-5.500000000000001
1698675171956.0,16,0.8,2.1,-1.5,0.1,10.4,1.6,-23.400000000000002,-17.599999999999998,-0.30000000000000004
1698675171973.0,16,1.3,0.7000000000000001,-1.3,0.2,9.8,1.7000000000000002,-20.2,-19.400000000000002,5.0
1698675171990.0,16,1.2000000000000002,0.0,-1.1,0.2,9.0,2.0,-19.400000000000002,-16.400000000000002,6.000000000000001
1698675172006.0,16,0.9,-0.30000000000000004,-1.1,-0.1,8.8,2.1,-20.1,-12.3,7.9
1698675172023.0,16,0.7000000000000001,-0.4,-1.2000000000000002,-0.30000000000000004,8.700000000000001,2.0,-21.5,-9.5,8.4
1698675172040.0,16,0.2,-0.6000000000000001,-1.5,-0.7000000000000001,8.4,1.7000000000000002,-26.6,-6.4,8.700000000000001
1698675172057.0,16,0.0,-0.7000000000000001,-2.0,-0.9,8.3,1.3,-31.6,-8.9,7.8
1698675172073.0,16,-0.1,-0.7000000000000001,-2.2,-0.9,8.3,1.2000000000000002,-33.1,-10.9,7.0
1698675172090.0,16,-0.1,-0.5,-2.3000000000000003,-0.9,8.4,1.1,-32.2,-10.2,4.9
1698675172106.0,16,-0.1,-0.30000000000000004,-2.6,-0.9,8.6,0.9,-28.0,-5.6,1.3
1698675172123.0,16,0.0,-0.2,-2.7,-0.7000000000000001,8.700000000000001,0.8,-25.1,-5.0,0.1
1698675172143.0,16,0.2,-0.1,-2.8000000000000003,-0.6000000000000001,8.700000000000001,0.8,-15.000000000000002,-8.5,-2.3000000000000003
1698675172156.0,16,0.30000000000000004,-0.1,-2.6,-0.5,8.700000000000001,1.0,-10.700000000000001,-8.700000000000001,-3.6
1698675172173.0,16,0.5,-0.30000000000000004,-2.4000000000000004,-0.30000000000000004,8.5,1.2000000000000002,-0.6000000000000001,-3.9,-5.8
1698675172190.0,16,0.7000000000000001,-0.5,-2.5,-0.2,8.3,1.1,3.7000000000000006,-0.1,-5.9
1698675172206.0,16,1.0,-0.7000000000000001,-2.4000000000000004,0.2,8.1,1.2000000000000002,8.200000000000001,7.1000000000000005,-4.2
1698675172223.0,16,1.0,-0.6000000000000001,-2.2,0.0,8.5,1.4000000000000001,12.100000000000001,11.3,2.3000000000000003
1698675172240.0,16,0.5,0.30000000000000004,-2.0,-0.30000000000000004,9.1,1.4000000000000001,13.3,13.0,8.5
1698675172257.0,16,0.1,0.9,-2.2,-0.7000000000000001,9.700000000000001,1.2000000000000002,12.3,18.8,19.0
1698675172273.0,16,0.1,1.3,-2.7,-0.7000000000000001,10.200000000000001,0.7000000000000001,4.0,16.3,22.1
1698675172290.0,16,0.30000000000000004,1.6,-2.6,-0.4,10.5,0.7000000000000001,-2.3000000000000003,14.900000000000002,23.5
1698675172306.0,16,0.8,2.3000000000000003,-2.3000000000000003,0.2,11.200000000000001,1.0,-12.5,12.700000000000001,26.9
1698675172324.0,16,1.0,2.8000000000000003,-2.1,0.30000000000000004,12.200000000000001,1.8,-15.100000000000001,9.9,27.3
1698675172340.0,16,0.8,4.1000000000000005,-1.4000000000000001,0.2,13.0,2.0,-13.700000000000001,4.0,24.8
1698675172357.0,16,-0.30000000000000004,6.0,-0.5,-0.8,15.0,3.0,-8.5,-12.3,20.5
1698675172373.0,16,-1.3,5.6000000000000005,0.8,-1.6,14.600000000000001,4.2,-3.8,-28.700000000000003,10.8
1698675172391.0,16,-1.5,4.1000000000000005,1.5,-1.8,13.100000000000001,5.0,-3.9,-31.900000000000002,0.9
1698675172407.0,16,-2.0,1.0,3.6,-2.4000000000000004,10.0,7.1000000000000005,-3.1,-27.400000000000002,-15.6
1698675172423.0,16,-1.4000000000000001,0.1,3.2,-1.8,9.1,6.800000000000001,8.1,-43.7,-10.5
1698675172450.0,16,-0.2,-0.6000000000000001,1.2000000000000002,0.2,8.200000000000001,5.4,-4.1000000000000005,-26.200000000000003,-6.4
1698675172456.0,16,0.6000000000000001,-0.8,1.8,0.2,8.200000000000001,5.4,-11.000000000000002,-10.3,-14.500000000000002
1698675172473.0,16,1.7000000000000002,-0.4,3.2,1.2000000000000002,8.6,6.800000000000001,5.1,-15.5,-27.5
1698675172490.0,16,2.2,0.0,3.0,1.8,9.3,6.2,24.5,-27.2,-25.5
1698675172507.0,16,2.2,0.6000000000000001,2.4000000000000004,1.7000000000000002,9.700000000000001,6.0,22.900000000000002,-20.8,-20.2
1698675172524.0,16,1.5,0.9,2.0,0.9,10.0,5.5,3.9,-1.0999999999999999,-9.700000000000001
1698675172544.0,16,1.1,0.6000000000000001,2.0,0.6000000000000001,9.700000000000001,5.5,-6.3,5.0,-9.600000000000001
1698675172557.0,16,0.6000000000000001,-0.4,1.2000000000000002,0.0,8.6,4.800000000000001,-15.100000000000001,13.4,-16.6
1698675172573.0,16,0.4,-1.9000000000000001,0.1,-0.30000000000000004,7.1000000000000005,3.8000000000000003,-15.7,20.5,-18.3
1698675172590.0,16,0.4,-2.7,-0.30000000000000004,-0.4,5.5,3.1,-13.9,29.400000000000002,-14.100000000000001
1698675172607.0,16,0.4,-4.1000000000000005,-0.8,-0.4,4.9,2.9000000000000004,-11.4,32.9,-11.1
1698675172623.0,16,0.4,-4.4,-0.9,-0.4,4.5,2.8000000000000003,-8.4,36.7,-7.8
1698675172640.0,16,0.30000000000000004,-4.7,-1.2000000000000002,-0.6000000000000001,4.2,2.4000000000000004,-2.3000000000000003,49.0,-0.9
1698675172657.0,16,-0.2,-3.9000000000000004,-1.3,-1.2000000000000002,4.9,2.4000000000000004,1.8,55.5,3.9
1698675172674.0,16,-0.8,-2.6,-1.8,-1.8,6.2,1.8,4.7,48.300000000000004,5.4
1698675172690.0,16,-1.0,-2.2,-2.0,-2.0,6.6000000000000005,1.5,4.0,42.0,4.9
1698675172707.0,16,-0.9,-1.8,-2.3000000000000003,-1.9000000000000001,7.0,1.2000000000000002,1.4,33.7,3.2
1698675172724.0,16,-0.8,-1.8,-2.4000000000000004,-1.9000000000000001,7.0,1.1,1.2000000000000002,32.300000000000004,1.6
1698675172741.0,16,-0.4,-2.0,-2.8000000000000003,-1.5,6.800000000000001,0.7000000000000001,1.2000000000000002,35.3,-0.6000000000000001
1698675172757.0,16,0.1,-2.3000000000000003,-3.1,-1.1,6.5,0.4,-0.8,39.300000000000004,0.5
1698675172773.0,16,0.2,-2.3000000000000003,-3.1,-1.0,6.4,0.30000000000000004,-1.2000000000000002,38.2,3.2
1698675172790.0,16,-0.2,-1.2000000000000002,-1.9000000000000001,-1.4000000000000001,7.5,1.4000000000000001,11.4,26.400000000000002,10.4
1698675172807.0,16,-0.4,-0.5,-1.9000000000000001,-1.6,8.200000000000001,1.4000000000000001,21.700000000000003,24.3,11.9
1698675172823.0,16,-0.4,1.3,-1.7000000000000002,-1.6,10.100000000000001,1.5,40.2,19.1,14.0
1698675172840.0,16,-0.2,2.8000000000000003,-1.3,-1.4000000000000001,11.600000000000001,1.8,48.9,18.3,12.4
1698675172857.0,16,0.0,6.1000000000000005,-0.5,-1.2000000000000002,15.100000000000001,2.4000000000000004,65.4,23.900000000000002,6.000000000000001
1698675172873.0,16,-0.9,7.800000000000001,-0.4,-2.1,16.900000000000002,2.2,68.0,25.6,2.1
1698675172890.0,16,-1.7000000000000002,7.6000000000000005,-0.8,-2.9000000000000004,16.8,1.8,56.6,21.8,1.3
1698675172908.0,16,-2.4000000000000004,6.5,-1.7000000000000002,-3.6,15.8,0.8,6.7,18.5,-0.30000000000000004
1698675172923.0,16,-1.5,5.4,-0.4,-2.7,14.700000000000001,2.1,-42.800000000000004,14.0,0.1
1698675172940.0,16,-0.8,5.5,0.6000000000000001,-2.1,14.8,3.2,-50.300000000000004,12.3,0.4
1698675172957.0,16,-0.1,5.0,0.30000000000000004,-1.4000000000000001,14.200000000000001,3.1,-39.1,33.400000000000006,0.9
1698675172973.0,16,0.0,-0.4,-0.2,-1.3,8.9,2.7,-21.900000000000002,31.2,3.6
1698675172990.0,16,0.2,-2.7,0.9,-1.1,6.5,3.7,-7.2,11.700000000000001,4.9
1698675173008.0,16,-0.5,-5.300000000000001,2.8000000000000003,-1.8,3.9000000000000004,5.6000000000000005,39.50000000000001,-4.1000000000000005,10.5
1698675173023.0,16,-1.3,-4.7,3.2,-2.5,4.5,5.800000000000001,77.1,14.500000000000002,5.8
1698675173040.0,16,-0.6000000000000001,-0.6000000000000001,2.8000000000000003,-2.0,8.700000000000001,5.2,39.300000000000004,15.5,-9.4
1698675173057.0,16,-0.6000000000000001,2.2,3.1,-1.9000000000000001,11.4,5.5,0.6000000000000001,6.2,-10.9
1698675173073.0,16,-1.3,4.2,3.8000000000000003,-2.7,13.5,6.4,-35.6,18.8,-6.9
1698675173090.0,16,-1.5,3.2,2.5,-3.0,12.5,5.1000000000000005,-33.1,29.300000000000004,-7.699999999999999
1698675173107.0,16,-1.0,-0.30000000000000004,-0.6000000000000001,-2.5,9.0,2.1,-28.0,0.7,-4.800000000000001
1698675173123.0,16,-0.9,-1.9000000000000001,-1.0,-2.4000000000000004,7.300000000000001,1.8,-29.800000000000004,-22.900000000000002,5.7
1698675173140.0,16,-0.4,-2.3000000000000003,-0.8,-1.8,6.800000000000001,2.1,-20.3,-19.700000000000003,-0.7
1698675173157.0,16,-0.2,-2.6,-0.7000000000000001,-1.6,6.5,2.2,-11.1,-23.0,-5.1
1698675173173.0,16,0.5,-3.3000000000000003,-1.0,-0.9,5.800000000000001,1.9000000000000001,3.1,-25.700000000000003,-11.5
1698675173191.0,16,1.2000000000000002,-4.2,-1.0,-0.30000000000000004,4.9,1.9000000000000001,6.2,-19.200000000000003,-18.6
1698675173209.0,16,1.4000000000000001,-4.7,-1.0,0.0,4.4,1.9000000000000001,6.000000000000001,-17.3,-20.3
1698675173223.0,16,2.0,-5.2,-1.4000000000000001,0.5,3.8000000000000003,1.5,2.3000000000000003,-16.1,-19.1
1698675173240.0,16,2.3000000000000003,-5.2,-1.5,0.8,3.7,1.3,-2.1999999999999997,-13.9,-16.8
1698675173257.0,16,2.6,-4.800000000000001,-1.3,1.1,4.2,1.6,-10.9,-7.9,-11.1
1698675173273.0,16,2.3000000000000003,-3.5,-0.8,0.8,5.4,2.1,-9.4,-2.7,-5.6
1698675173290.0,16,2.1,-2.2,-1.1,0.6000000000000001,6.6000000000000005,1.8,-3.8,1.0,-4.3999999999999995
1698675173307.0,16,2.0,-1.7000000000000002,-1.6,0.4,7.2,1.3,6.3,13.6,-5.2
1698675173323.0,16,1.4000000000000001,-0.5,-2.2,-0.1,8.4,0.6000000000000001,4.1000000000000005,36.3,0.9
1698675173340.0,16,-0.5,3.0,-1.7000000000000002,-1.0,9.700000000000001,0.7000000000000001,-0.30000000000000004,51.0,8.200000000000001
1698675173357.0,16,-1.7000000000000002,5.7,-1.5,-3.2,14.600000000000001,1.3,0.8,50.300000000000004,28.700000000000003
1698675173373.0,16,-1.4000000000000001,9.4,-1.5,-2.9000000000000004,18.400000000000002,1.3,16.8,-11.2,37.5
1698675173390.0,16,-1.1,9.600000000000001,-1.2000000000000002,-2.3000000000000003,18.0,1.3,25.700000000000003,-32.9,15.5
1698675173407.0,16,-1.0,7.800000000000001,-1.9000000000000001,-2.3000000000000003,16.900000000000002,0.7000000000000001,20.0,-20.900000000000002,2.1
1698675173423.0,16,0.1,4.9,0.2,-1.3,14.100000000000001,2.8000000000000003,-1.6,-10.2,-15.9
1698675173440.0,16,0.30000000000000004,3.9000000000000004,1.6,-1.1,13.200000000000001,4.2,-1.7,-16.6,-18.1
1698675173456.0,16,0.6000000000000001,0.6000000000000001,3.8000000000000003,-1.2000000000000002,7.5,7.7,22.1,-40.0,-7.6
1698675173473.0,16,-0.2,-3.3000000000000003,5.9,-1.5,6.0,8.4,63.70000000000001,-30.5,16.8
1698675173490.0,16,0.4,-3.3000000000000003,4.4,-0.8,6.1000000000000005,6.7,88.10000000000001,-69.80000000000001,34.50000000000001
1698675173506.0,16,0.7000000000000001,-2.5,3.7,-0.4,6.9,6.0,71.6,-89.0,31.2
1698675173523.0,16,0.7000000000000001,-1.4000000000000001,3.3000000000000003,-0.30000000000000004,8.0,5.4,14.500000000000002,-32.9,20.900000000000002
1698675173540.0,16,0.5,3.2,4.4,-0.4,12.600000000000001,6.6000000000000005,-26.9,10.9,16.5
1698675173556.0,16,1.2000000000000002,5.7,3.8000000000000003,0.30000000000000004,15.100000000000001,6.2,-19.400000000000002,-30.799999999999997,7.1000000000000005
1698675173573.0,16,1.1,2.9000000000000004,2.2,0.2,12.3,4.6000000000000005,-11.000000000000002,-40.5,-2.7
1698675173590.0,16,0.7000000000000001,-1.1,0.6000000000000001,-0.2,8.3,3.1,-10.8,-15.2,-11.5
1698675173607.0,16,0.6000000000000001,-1.8,0.2,-0.2,7.5,2.7,-10.600000000000001,-4.9,-7.8
1698675173623.0,16,0.30000000000000004,-3.0,-0.2,-0.6000000000000001,6.4,2.3000000000000003,-6.8,3.5,-5.2
1698675173640.0,16,-0.1,-3.8000000000000003,-0.7000000000000001,-1.0,5.5,1.8,-1.2000000000000002,-2.0,-3.4
1698675173657.0,16,-0.4,-4.2,-1.0,-1.6,4.800000000000001,1.3,-0.2,-8.0,2.1
1698675173673.0,16,-1.0,-4.7,-1.3,-1.9000000000000001,4.5,1.1,-1.0,-11.4,4.0
1698675173690.0,16,-1.4000000000000001,-5.2,-1.5,-2.3000000000000003,4.0,1.0,-2.0,-18.900000000000002,4.6000000000000005
1698675173707.0,16,-1.6,-5.4,-1.7000000000000002,-2.5,3.8000000000000003,0.8,-2.1,-20.7,2.8
1698675173723.0,16,-1.6,-5.5,-2.2,-2.4000000000000004,3.6,0.30000000000000004,-3.4,-17.3,-3.7000000000000006
1698675173740.0,16,-1.1,-5.2,-2.5,-2.0,3.9000000000000004,0.0,-7.8,-11.3,-14.900000000000002
1698675173756.0,16,-0.9,-4.7,-2.4000000000000004,-1.4000000000000001,4.9,0.2,-8.4,-12.100000000000001,-22.7
1698675173773.0,16,0.0,-3.3000000000000003,-2.3000000000000003,-1.0,5.7,0.2,-6.5,-18.2,-23.900000000000002
1698675173790.0,16,0.0,-0.5,-1.4000000000000001,-1.0,8.5,1.2000000000000002,-1.2000000000000002,-26.6,-25.5
1698675173806.0,16,-0.4,3.7,-0.9,-1.5,12.700000000000001,1.5,12.4,-22.6,-20.2
1698675173825.0,16,0.30000000000000004,6.0,-0.8,-0.9,15.0,1.6,18.2,-19.400000000000002,-17.3
1698675173840.0,16,3.2,9.600000000000001,0.1,2.0,18.8,2.5,26.8,-10.0,-24.6
1698675173856.0,16,4.3,9.9,-0.1,2.5,18.3,1.1,23.0,2.4000000000000004,-32.1
1698675173874.0,16,1.7000000000000002,8.0,-2.1,0.4,17.2,0.2,6.000000000000001,9.1,-18.2
1698675173890.0,16,-1.1,6.7,-2.7,-2.2,15.9,-0.30000000000000004,-41.9,25.400000000000002,35.1
1698675173906.0,16,-2.6,5.800000000000001,-1.4000000000000001,-3.7,15.100000000000001,1.0,-59.80000000000001,30.200000000000003,49.1
1698675173923.0,16,-2.8000000000000003,3.2,3.0,-3.8000000000000003,12.5,5.6000000000000005,-42.5,27.7,70.6
1698675173940.0,16,-1.6,-1.0,3.7,-2.4000000000000004,8.3,6.300000000000001,21.3,18.400000000000002,61.4
1698675173956.0,16,-1.5,-3.1,4.2,-1.9000000000000001,4.7,7.0,82.30000000000001,-6.7,27.8
1698675173973.0,16,-1.2000000000000002,-5.800000000000001,5.7,-1.8,3.6,8.0,98.8,0.4,4.5
1698675173990.0,16,-1.2000000000000002,-3.2,4.4,-2.0,6.2,6.5,61.8,22.8,-34.6
1698675174006.0,16,0.6000000000000001,2.9000000000000004,1.6,-1.3,9.700000000000001,4.6000000000000005,16.700000000000003,15.100000000000001,-38.800000000000004
1698675174023.0,16,0.8,4.7,1.8,-0.2,14.100000000000001,4.1000000000000005,-62.8,47.800000000000004,-54.9
1698675174040.0,16,-1.9000000000000001,3.6,1.9000000000000001,-3.3000000000000003,12.9,4.3,-70.39999999999999,69.5,-68.60000000000001
1698675174056.0,16,-1.6,-1.1,-1.1,-3.1,8.1,1.5,-47.5,0.4,-13.5
1698675174073.0,16,-0.30000000000000004,-2.6,-1.3,-1.7000000000000002,6.6000000000000005,1.4000000000000001,-40.8,-18.1,24.000000000000004
1698675174090.0,16,0.1,-2.8000000000000003,-1.0,-1.3,6.4,1.8,-34.2,-12.200000000000001,22.6
1698675174106.0,16,0.6000000000000001,-3.6,-0.7000000000000001,-0.7000000000000001,5.6000000000000005,2.1,-10.3,3.2,1.8
1698675174123.0,16,0.9,-3.9000000000000004,-0.9,-0.4,5.2,1.9000000000000001,2.4000000000000004,8.200000000000001,-5.6
1698675174140.0,16,1.8,-4.3,-1.1,0.4,4.800000000000001,1.6,18.7,19.9,-12.3
1698675174157.0,16,2.4000000000000004,-4.6000000000000005,-1.2000000000000002,1.0,4.5,1.5,20.900000000000002,28.700000000000003,-13.4
1698675174173.0,16,2.7,-4.5,-1.2000000000000002,1.3,4.5,1.4000000000000001,11.6,27.6,-9.4
1698675174190.0,16,2.7,-4.2,-1.1,1.2000000000000002,4.800000000000001,1.5,3.2,23.5,-6.7
1698675174208.0,16,2.3000000000000003,-3.1,0.0,0.8,5.9,2.6,-14.0,17.3,1.0999999999999999
1698675174223.0,16,1.8,-2.6,0.4,0.4,6.4,3.0,-16.8,31.099999999999998,11.000000000000002
1698675174240.0,16,1.2000000000000002,-2.5,-0.6000000000000001,-0.30000000000000004,6.5,2.0,-16.5,40.4,14.900000000000002
1698675174256.0,16,0.9,-2.1,-2.2,-0.6000000000000001,6.9,0.4,-21.1,52.400000000000006,18.2
1698675174273.0,16,0.8,-1.5,-2.7,-0.6000000000000001,7.5,0.0,-26.6,52.2,21.3
1698675174290.0,16,0.0,1.7000000000000002,-1.5,-1.4000000000000001,10.600000000000001,1.2000000000000002,-36.0,56.800000000000004,29.200000000000003
1698675174307.0,16,-3.0,6.4,-2.1,-4.3,15.3,0.6000000000000001,-25.700000000000003,57.5,40.1
1698675174323.0,16,-2.8000000000000003,8.4,-2.1,-4.0,17.400000000000002,0.7000000000000001,-13.100000000000001,-7.6,40.4
1698675174340.0,16,-2.3000000000000003,6.9,-1.6,-3.5,15.9,1.2000000000000002,-7.0,-17.599999999999998,28.400000000000002
1698675174356.0,16,-1.7000000000000002,3.7,-0.2,-2.9000000000000004,12.8,2.6,-0.2,18.400000000000002,-2.7
1698675174379.0,16,-2.1,3.8000000000000003,6.7,-3.4000000000000004,13.0,9.5,45.6,19.9,-6.6000000000000005
1698675174390.0,16,-2.8000000000000003,3.2,8.3,-4.1000000000000005,12.4,10.9,96.5,-12.8,8.1
1698675174406.0,16,-1.9000000000000001,0.0,6.7,-3.0,9.3,9.0,150.9,-109.8,39.300000000000004
1698675174423.0,16,1.8,-1.5,0.7000000000000001,0.9,7.9,2.7,59.60000000000001,-79.8,30.100000000000005
1698675174439.0,16,3.0,-1.9000000000000001,0.8,2.1,7.5,2.8000000000000003,-2.8,-10.1,14.900000000000002
1698675174456.0,16,2.3000000000000003,1.2000000000000002,4.7,1.4000000000000001,10.600000000000001,7.0,-70.7,57.699999999999996,2.9
1698675174473.0,16,1.4000000000000001,4.6000000000000005,5.9,-0.2,16.400000000000002,7.5,-63.70000000000001,26.9,10.4
1698675174490.0,16,-0.1,6.800000000000001,2.9000000000000004,-0.9,16.2,5.4,-19.8,-29.200000000000003,27.8
1698675174506.0,16,-0.7000000000000001,1.8,1.1,-1.4000000000000001,11.200000000000001,3.7,-17.8,-14.200000000000001,30.200000000000003
1698675174523.0,16,-0.6000000000000001,-1.9000000000000001,0.8,-1.2000000000000002,9.3,3.8000000000000003,-18.1,-13.6,23.1
1698675174540.0,16,-0.8,-3.4000000000000004,0.0,-1.4000000000000001,6.0,2.7,-10.700000000000001,-4.2,3.9
1698675174556.0,16,-1.3,-5.2,-1.2000000000000002,-1.9000000000000001,4.1000000000000005,1.5,-9.200000000000001,2.5,-5.1
1698675174573.0,16,-0.9,-5.5,-1.4000000000000001,-1.5,3.8000000000000003,1.3,-9.9,-0.4,-7.699999999999999
1698675174591.0,16,-1.0,-5.6000000000000005,-1.6,-1.7000000000000002,3.6,1.1,-7.9,-7.400000000000001,-11.1
1698675174606.0,16,-1.2000000000000002,-5.7,-1.7000000000000002,-1.9000000000000001,3.5,1.0,-5.9,-13.3,-10.8
1698675174623.0,16,-1.4000000000000001,-5.7,-1.8,-2.1,3.4000000000000004,0.9,-3.4,-20.0,-9.8
1698675174641.0,16,-1.6,-5.7,-1.8,-2.3000000000000003,3.4000000000000004,0.9,2.1,-26.700000000000003,-8.3
1698675174656.0,16,-1.5,-5.300000000000001,-1.8,-2.2,3.7,0.9,8.200000000000001,-18.3,-9.700000000000001
1698675174673.0,16,-1.1,-4.1000000000000005,-2.2,-1.9000000000000001,4.9,0.5,8.5,-6.5,-18.3
1698675174690.0,16,-0.9,-3.1,-2.3000000000000003,-1.7000000000000002,5.9,0.30000000000000004,5.300000000000001,-8.3,-21.400000000000002
1698675174706.0,16,-0.7000000000000001,-0.8,-2.3000000000000003,-1.6,8.200000000000001,0.30000000000000004,-3.2,-34.800000000000004,-18.900000000000002
1698675174723.0,16,-1.4000000000000001,1.2000000000000002,-1.4000000000000001,-2.3000000000000003,10.200000000000001,1.3,-4.5,-48.00000000000001,-10.5
1698675174741.0,16,-1.6,2.1,-1.8,-2.5,11.100000000000001,0.8,-2.1,-45.7,-7.500000000000001
1698675174756.0,16,-0.7000000000000001,4.7,-1.9000000000000001,-1.6,13.700000000000001,0.7000000000000001,-3.2,-43.800000000000004,-13.4
1698675174773.0,16,1.6,9.3,-0.30000000000000004,0.7000000000000001,18.3,2.4000000000000004,-1.0,-34.1,-31.5
1698675174791.0,16,2.9000000000000004,10.5,0.2,1.9000000000000001,19.700000000000003,2.9000000000000004,5.300000000000001,-20.8,-41.7
1698675174806.0,16,1.8,8.200000000000001,-1.3,0.7000000000000001,17.400000000000002,1.3,9.1,5.0,-33.0
1698675174823.0,16,-0.1,4.2,-2.6,-1.2000000000000002,13.4,0.0,-21.8,27.8,22.4
1698675174840.0,16,-2.0,2.6,2.4000000000000004,-3.0,11.8,5.1000000000000005,-29.800000000000004,36.0,37.7
1698675174858.0,16,-2.5,2.1,4.0,-3.5,11.3,6.7,-3.8,29.500000000000004,34.6
1698675174873.0,16,-1.7000000000000002,-1.1,5.800000000000001,-2.6,8.1,8.4,63.50000000000001,-19.9,13.9
1698675174890.0,16,-0.6000000000000001,-2.4000000000000004,7.300000000000001,-1.5,6.9,9.9,84.7,-44.4,-8.3
1698675174906.0,16,0.2,-2.1,7.0,-0.9,7.300000000000001,9.4,67.9,-24.3,-68.9
1698675174923.0,16,0.8,-0.6000000000000001,1.0,-0.5,8.700000000000001,3.3000000000000003,-15.000000000000002,42.7,-69.3
1698675174940.0,16,1.9000000000000001,-1.0,0.7000000000000001,0.5,8.3,3.1,-53.300000000000004,84.3,-60.7
1698675174956.0,16,1.5,0.9,3.2,-0.2,10.100000000000001,5.800000000000001,-65.0,85.60000000000001,-51.2
1698675174973.0,16,-2.1,1.3,1.3,-3.9000000000000004,10.5,4.0,-14.200000000000001,-23.1,-10.600000000000001
1698675174990.0,16,-0.7000000000000001,1.1,-0.30000000000000004,-2.4000000000000004,10.3,2.4000000000000004,-2.4000000000000004,-43.300000000000004,17.200000000000003
1698675175006.0,16,-0.2,0.1,-0.1,-1.8,9.200000000000001,2.6,0.6000000000000001,-14.700000000000001,12.100000000000001
1698675175023.0,16,0.4,-2.1,-0.4,-1.3,7.1000000000000005,2.3000000000000003,19.3,8.9,-11.3
1698675175040.0,16,1.1,-3.0,-0.8,-0.6000000000000001,6.2,1.9000000000000001,25.0,8.4,-14.200000000000001
1698675175056.0,16,2.0,-4.3,-1.3,0.30000000000000004,4.800000000000001,1.2000000000000002,20.0,13.0,-12.700000000000001
1698675175073.0,16,2.4000000000000004,-5.300000000000001,-1.6,0.6000000000000001,3.9000000000000004,0.9,6.000000000000001,17.9,-9.3
1698675175090.0,16,2.6,-5.300000000000001,-1.7000000000000002,0.8,3.8000000000000003,0.8,-0.4,17.3,-5.6
1698675175106.0,16,2.6,-4.9,-1.6,0.9,4.2,0.8,-10.1,17.7,2.4000000000000004
1698675175123.0,16,2.3000000000000003,-3.6,-1.1,0.6000000000000001,5.4,1.4000000000000001,-13.6,15.8,12.000000000000002
1698675175140.0,16,1.9000000000000001,-2.9000000000000004,-0.7000000000000001,0.2,6.1000000000000005,1.8,-11.2,15.000000000000002,15.100000000000001
1698675175157.0,16,1.3,-1.9000000000000001,-0.2,-0.30000000000000004,7.1000000000000005,2.3000000000000003,0.7,21.3,15.2
1698675175173.0,16,1.1,-1.8,-0.5,-0.5,7.2,2.0,10.9,37.6,8.799999999999999
1698675175189.0,16,1.3,-1.8,-1.6,-0.4,7.1000000000000005,1.5,12.200000000000001,51.1,3.5
1698675175206.0,16,1.3,-1.5,-1.9000000000000001,-0.4,7.5,0.5,6.7,56.6,5.2
1698675175223.0,16,1.3,1.1,-1.7000000000000002,-0.4,10.100000000000001,0.6000000000000001,-8.700000000000001,75.5,12.6
1698675175240.0,16,-0.1,3.1,-1.6,-1.7000000000000002,12.100000000000001,0.7000000000000001,-13.100000000000001,73.8,17.1
1698675175256.0,16,-2.7,7.4,-2.0,-4.3,16.5,0.30000000000000004,-12.6,37.0,33.5
1698675175273.0,16,-3.0,9.0,-1.8,-4.6000000000000005,18.1,0.5,-5.7,-7.2,37.0
1698675175290.0,16,-2.8000000000000003,7.6000000000000005,-2.2,-4.3,16.8,0.1,-4.2,-9.600000000000001,26.700000000000003
1698675175307.0,16,-0.9,4.1000000000000005,-2.7,-2.4000000000000004,13.4,-0.30000000000000004,-21.400000000000002,1.8,-7.6
1698675175323.0,16,0.6000000000000001,1.5,2.9000000000000004,-1.0,10.700000000000001,5.300000000000001,-15.9,10.600000000000001,-26.1
1698675175340.0,16,1.3,-1.9000000000000001,5.5,-0.4,7.300000000000001,7.9,45.6,2.1999999999999997,-13.6
1698675175356.0,16,0.6000000000000001,-4.4,5.9,-1.0,4.9,8.0,117.60000000000001,-0.2,25.400000000000002
1698675175383.0,16,-0.9,-0.30000000000000004,5.9,-2.3000000000000003,9.1,7.7,112.4,-64.60000000000001,64.10000000000001
1698675175390.0,16,-1.2000000000000002,1.9000000000000001,4.5,-2.5,11.3,6.1000000000000005,77.9,-93.7,71.10000000000001
1698675175406.0,16,-1.9000000000000001,2.0,3.2,-2.7,11.600000000000001,4.5,-17.7,-29.400000000000002,72.9
1698675175423.0,16,-0.4,3.3000000000000003,3.0,-1.3,12.8,4.800000000000001,-52.50000000000001,8.9,63.0
1698675175440.0,16,2.0,4.800000000000001,3.4000000000000004,1.2000000000000002,14.200000000000001,5.5,-64.60000000000001,5.9,11.700000000000001
1698675175456.0,16,0.9,2.6,2.8000000000000003,0.1,12.100000000000001,4.9,-45.0,-24.9,-16.700000000000003
1698675175473.0,16,0.1,0.6000000000000001,0.1,-0.8,10.0,2.3000000000000003,-16.6,-44.1,-22.000000000000004
1698675175490.0,16,-0.30000000000000004,-0.5,-0.4,-1.2000000000000002,8.9,1.9000000000000001,-17.599999999999998,-12.100000000000001,-9.8
1698675175506.0,16,-0.7000000000000001,-1.4000000000000001,-0.2,-1.6,8.0,2.1,-14.0,-5.6,-8.1
1698675175523.0,16,-0.9,-2.6,-0.7000000000000001,-1.8,6.7,1.7000000000000002,-3.1,-14.500000000000002,-10.600000000000001
1698675175540.0,16,-0.5,-3.7,-1.2000000000000002,-1.5,5.6000000000000005,1.1,1.2000000000000002,-34.1,-15.5
1698675175557.0,16,-0.4,-4.2,-1.4000000000000001,-1.4000000000000001,5.1000000000000005,1.0,-0.2,-38.900000000000006,-19.0
1698675175573.0,16,-0.4,-5.2,-1.6,-1.4000000000000001,4.1000000000000005,0.7000000000000001,-3.4,-40.6,-24.200000000000003
1698675175590.0,16,-0.4,-5.4,-1.8,-1.4000000000000001,3.8000000000000003,0.5,-4.9,-36.2,-26.3
1698675175606.0,16,-0.4,-5.300000000000001,-1.9000000000000001,-1.5,3.8000000000000003,0.5,-5.1,-32.0,-26.8
1698675175623.0,16,-0.6000000000000001,-4.9,-2.3000000000000003,-1.7000000000000002,4.2,0.1,-4.9,-21.8,-27.5
1698675175640.0,16,-0.7000000000000001,-4.5,-2.7,-2.2,4.9,-0.5,-10.5,-21.6,-25.900000000000002
1698675175656.0,16,-0.8,-3.9000000000000004,-2.9000000000000004,-2.1,5.2,-0.5,-14.700000000000001,-28.700000000000003,-23.5
1698675175673.0,16,-0.2,-2.9000000000000004,-2.1,-1.5,6.1000000000000005,0.30000000000000004,-17.5,-46.6,-16.900000000000002
1698675175690.0,16,0.5,-0.7000000000000001,-1.1,-0.8,8.3,1.4000000000000001,-7.8,-44.6,-8.700000000000001
1698675175707.0,16,0.8,1.1,-1.0,-0.5,10.100000000000001,1.5,-0.9,-33.400000000000006,-5.8
1698675175723.0,16,2.6,4.800000000000001,-0.2,1.4000000000000001,13.8,2.3000000000000003,10.700000000000001,-10.1,-7.6
1698675175740.0,16,5.300000000000001,7.5,0.8,4.1000000000000005,16.6,3.2,24.200000000000003,13.4,-17.599999999999998
1698675175757.0,16,4.9,8.3,0.6000000000000001,3.6,17.400000000000002,2.9000000000000004,26.200000000000003,24.7,-19.6
1698675175773.0,16,-0.9,8.3,-1.5,-2.2,17.5,0.8,6.9,30.000000000000004,11.1
1698675175790.0,16,-4.2,7.6000000000000005,-2.2,-5.5,16.900000000000002,0.2,-36.7,41.5,45.6
1698675175807.0,16,-5.2,6.4,-0.9,-6.4,15.700000000000001,1.5,-48.1,33.1,54.7
1698675175823.0,16,-3.3000000000000003,3.7,2.6,-4.4,13.0,5.1000000000000005,-24.9,24.3,57.800000000000004
1698675175840.0,16,-0.30000000000000004,0.5,4.0,-1.3,9.9,6.5,32.0,23.2,21.6
1698675175861.0,16,0.4,-3.3000000000000003,5.5,-0.6000000000000001,6.1000000000000005,7.800000000000001,81.5,-7.6,-36.6
1698675175873.0,16,-0.4,-3.2,2.3000000000000003,-1.6,6.2,4.4,44.9,-21.3,-49.9
1698675175889.0,16,-0.5,-2.9000000000000004,0.8,-1.8,6.5,3.0,-1.6,-2.6,-41.800000000000004
1698675175906.0,16,0.0,-1.7000000000000002,1.3,-0.5,10.200000000000001,5.7,-69.10000000000001,39.400000000000006,-31.0
1698675175923.0,16,0.6000000000000001,3.6,4.4,-0.9,12.9,6.800000000000001,-64.8,47.5,-38.2
1698675175940.0,16,-0.5,3.2,1.4000000000000001,-2.1,12.4,3.9000000000000004,-28.900000000000002,3.5,-35.6
1698675175956.0,16,1.4000000000000001,-0.4,-0.4,-0.30000000000000004,8.9,2.3000000000000003,-23.3,-11.9,2.8
1698675175974.0,16,1.3,-1.7000000000000002,-0.6000000000000001,-0.30000000000000004,7.5,2.1,-25.700000000000003,-0.4,14.800000000000002
1698675175990.0,16,0.8,-3.3000000000000003,-1.1,-0.8,6.5,1.9000000000000001,-24.9,4.7,21.3
1698675176006.0,16,0.9,-4.0,-1.4000000000000001,-0.5,5.1000000000000005,1.4000000000000001,-15.6,2.7,19.3
1698675176024.0,16,1.0,-4.3,-1.5,-0.4,4.800000000000001,1.3,-13.9,5.8,16.3
1698675176040.0,16,1.5,-4.9,-1.5,0.1,4.2,1.3,-10.4,17.400000000000002,7.2
1698675176057.0,16,1.5,-5.0,-1.4000000000000001,0.1,4.0,1.4000000000000001,-7.6,22.900000000000002,3.6
1698675176073.0,16,1.3,-5.300000000000001,-1.8,-0.1,3.7,1.0,-1.3,25.6,3.7000000000000006
1698675176090.0,16,1.4000000000000001,-4.9,-2.0,0.0,4.1000000000000005,0.8,1.6,15.9,9.9
1698675176107.0,16,1.1,-3.8000000000000003,-1.2000000000000002,-0.30000000000000004,5.2,1.5,4.6000000000000005,13.5,14.3
1698675176123.0,16,0.8,-3.1,-1.1,-0.5,5.800000000000001,1.6,8.5,19.200000000000003,16.3
1698675176140.0,16,0.6000000000000001,-1.9000000000000001,-1.7000000000000002,-0.7000000000000001,7.1000000000000005,1.0,12.8,32.9,13.5
1698675176157.0,16,0.9,-1.5,-1.9000000000000001,-0.4,7.5,0.8,12.700000000000001,33.7,9.9
1698675176174.0,16,1.4000000000000001,-0.5,-2.0,0.1,8.5,0.5,10.8,27.1,2.7
1698675176190.0,16,0.2,1.9000000000000001,-1.6,-1.1,10.9,0.9,6.5,39.699999999999996,5.2
1698675176206.0,16,-1.9000000000000001,6.4,-2.0,-3.2,15.4,0.5,8.200000000000001,38.900000000000006,18.5
1698675176224.0,16,-2.4000000000000004,8.8,-2.4000000000000004,-3.7,17.900000000000002,0.1,9.5,12.6,26.700000000000003
1698675176240.0,16,-1.9000000000000001,9.600000000000001,-1.7000000000000002,-3.1,18.8,0.7000000000000001,12.6,-43.7,29.000000000000004
1698675176257.0,16,-1.3,7.300000000000001,-2.0,-2.5,16.5,0.4,10.4,-37.900000000000006,16.700000000000003
1698675176273.0,16,-0.2,3.3000000000000003,-2.5,-1.3,12.5,-0.1,-13.100000000000001,-8.799999999999999,-16.900000000000002
1698675176290.0,16,0.7000000000000001,0.7000000000000001,2.4000000000000004,-0.5,9.9,4.800000000000001,-17.5,-1.9,-27.1
1698675176307.0,16,0.6000000000000001,-2.0,7.1000000000000005,-0.7000000000000001,7.2,9.600000000000001,45.7,-9.5,-11.700000000000001
1698675176323.0,16,-0.1,-3.0,7.4,-2.2,6.0,9.1,123.9,-52.300000000000004,34.300000000000004
1698675176340.0,16,-1.7000000000000002,-1.6,6.5,-2.8000000000000003,7.7,8.5,127.2,-87.2,60.8
1698675176357.0,16,-1.8,0.9,3.2,-2.5,10.4,5.0,101.60000000000001,-100.9,76.3
1698675176373.0,16,-1.7000000000000002,1.0,2.8000000000000003,-2.4000000000000004,10.5,4.6000000000000005,0.4,-16.900000000000002,75.5
1698675176390.0,16,0.4,4.2,3.8000000000000003,-0.1,13.600000000000001,5.800000000000001,-70.9,51.0,43.2
1698675176407.0,16,1.2000000000000002,4.3,2.6,0.7000000000000001,13.700000000000001,4.9,-57.1,-8.4,-10.3
1698675176424.0,16,0.0,2.3000000000000003,1.4000000000000001,-0.5,11.700000000000001,3.7,-38.900000000000006,-37.2,-13.6
1698675176440.0,16,-0.1,1.0,-0.7000000000000001,-0.6000000000000001,10.4,1.7000000000000002,-27.7,-17.7,-0.6000000000000001
1698675176456.0,16,-0.5,0.4,-0.5,-1.2000000000000002,9.1,2.4000000000000004,-17.9,-2.3000000000000003,-2.6
1698675176473.0,16,-0.7000000000000001,-1.2000000000000002,0.0,-1.2000000000000002,8.200000000000001,2.6,-7.2,-2.7,-7.6
1698675176490.0,16,-0.8,-3.1,-0.6000000000000001,-1.4000000000000001,6.300000000000001,1.9000000000000001,11.000000000000002,-10.3,-17.1
1698675176506.0,16,-0.9,-5.0,-1.1,-1.6,4.3,1.4000000000000001,15.9,-11.5,-21.400000000000002
1698675176523.0,16,-0.7000000000000001,-5.7,-1.2000000000000002,-1.3,2.9000000000000004,1.1,13.5,-7.500000000000001,-24.5
1698675176540.0,16,-0.6000000000000001,-6.7,-1.4000000000000001,-1.3,2.5,0.9,11.2,-4.300000000000001,-26.3
1698675176557.0,16,-0.4,-6.9,-1.6,-1.2000000000000002,2.4000000000000004,0.8,8.200000000000001,-0.1,-27.400000000000002
1698675176573.0,16,-0.30000000000000004,-6.4,-1.7000000000000002,-1.2000000000000002,2.8000000000000003,0.6000000000000001,-0.6000000000000001,12.200000000000001,-26.3
1698675176591.0,16,-0.1,-5.2,-1.9000000000000001,-1.1,3.9000000000000004,0.4,-10.600000000000001,20.0,-16.3
1698675176608.0,16,-0.2,-4.5,-2.2,-1.2000000000000002,4.6000000000000005,0.1,-14.700000000000001,14.500000000000002,-9.200000000000001
1698675176623.0,16,-0.5,-3.0,-3.2,-1.5,6.1000000000000005,-0.8,-24.9,-9.3,5.500000000000001
1698675176640.0,16,-1.0,-1.2000000000000002,-3.5,-1.9000000000000001,7.800000000000001,-1.0,-40.3,-40.2,12.4
1698675176656.0,16,-1.9000000000000001,1.7000000000000002,-1.9000000000000001,-2.8000000000000003,10.700000000000001,0.7000000000000001,-45.800000000000004,-54.800000000000004,13.9
1698675176673.0,16,-1.8,6.300000000000001,0.7000000000000001,-2.6,15.3,3.4000000000000004,-23.2,-25.2,8.1
1698675176690.0,16,-1.0,8.6,0.8,-1.8,17.6,3.5,-0.6000000000000001,-1.4,-1.5000000000000002
1698675176706.0,16,2.5,9.9,0.2,1.6,19.1,2.8000000000000003,39.00000000000001,18.8,-30.200000000000003
1698675176723.0,16,3.1,8.6,-0.5,1.4000000000000001,16.8,0.7000000000000001,42.800000000000004,11.000000000000002,-37.5
1698675176740.0,16,0.1,6.4,-2.3000000000000003,-0.9,15.600000000000001,0.1,24.400000000000002,8.1,-22.2
1698675176756.0,16,-3.5,4.9,-0.2,-4.5,14.200000000000001,2.2,-21.200000000000003,28.500000000000004,31.3
1698675176773.0,16,-3.5,2.4000000000000004,2.6,-4.9,13.200000000000001,3.9000000000000004,-27.5,44.00000000000001,45.2
1698675176790.0,16,-2.1,1.0,4.0,-2.9000000000000004,10.4,6.5,2.7,19.0,46.1
1698675176806.0,16,1.5,-1.3,6.2,0.6000000000000001,8.1,8.6,57.699999999999996,-23.3,-4.9
1698675176823.0,16,0.2,-2.1,3.5,-0.7000000000000001,7.300000000000001,5.800000000000001,62.7,-27.900000000000002,-68.5
1698675176840.0,16,-0.2,-2.0,1.3,-1.2000000000000002,7.4,3.6,33.400000000000006,-8.200000000000001,-68.1
1698675176856.0,16,0.6000000000000001,-1.0,1.9000000000000001,-0.7000000000000001,8.4,4.2,-42.2,38.300000000000004,-49.5
1698675176873.0,16,0.2,3.7,4.2,-1.2000000000000002,12.9,6.7,-50.6,36.9,-47.5
1698675176890.0,16,-0.6000000000000001,3.7,2.1,-1.8,11.5,3.2,-36.2,12.100000000000001,-42.300000000000004
1698675176906.0,16,1.1,0.9,0.2,-0.5,10.100000000000001,2.8000000000000003,-28.500000000000004,-15.9,-5.8
1698675176923.0,16,1.2000000000000002,-1.4000000000000001,-0.2,-0.30000000000000004,7.800000000000001,2.5,-25.1,11.4,13.700000000000001
1698675176940.0,16,0.9,-2.2,-0.5,-0.6000000000000001,7.0,2.2,-18.900000000000002,13.9,16.6
1698675176956.0,16,1.0,-3.6,-1.2000000000000002,-0.5,5.6000000000000005,1.6,-9.600000000000001,11.000000000000002,18.900000000000002
1698675176973.0,16,1.2000000000000002,-4.9,-1.3,-0.2,4.3,1.5,-9.3,18.2,19.1
1698675176990.0,16,1.5,-5.2,-1.3,0.1,4.0,1.5,-9.8,24.000000000000004,18.7
1698675177006.0,16,1.6,-5.5,-1.7000000000000002,0.30000000000000004,3.5,1.1,-12.100000000000001,33.6,14.600000000000001
1698675177023.0,16,1.5,-5.300000000000001,-1.8,0.2,3.7,1.0,-14.100000000000001,32.9,12.700000000000001
1698675177040.0,16,1.2000000000000002,-5.0,-1.9000000000000001,-0.1,4.0,1.0,-14.200000000000001,28.6,13.3
1698675177056.0,16,0.9,-3.9000000000000004,-1.6,-0.4,5.1000000000000005,1.3,-12.8,16.3,14.800000000000002
1698675177073.0,16,0.2,-2.6,-1.2000000000000002,-1.0,6.300000000000001,1.6,-6.5,13.5,12.100000000000001
1698675177090.0,16,-0.1,-2.1,-1.2000000000000002,-1.3,6.800000000000001,1.6,-2.6,17.400000000000002,8.5
1698675177106.0,16,-0.2,-1.3,-1.5,-1.4000000000000001,7.6000000000000005,1.3,3.8,29.1,-0.30000000000000004
1698675177123.0,16,0.2,-0.6000000000000001,-2.3000000000000003,-1.3,7.9,0.8,4.9,35.3,-2.6
1698675177140.0,16,0.30000000000000004,0.1,-2.5,-1.0,9.0,0.30000000000000004,-1.0999999999999999,43.50000000000001,-0.1
1698675177156.0,16,0.1,3.4000000000000004,-1.8,-1.3,12.4,0.9,-8.700000000000001,48.800000000000004,6.4
1698675177173.0,16,-1.3,8.3,-1.4000000000000001,-2.6,17.2,1.3,0.1,24.5,12.4
1698675177190.0,16,-1.5,10.0,-1.1,-2.8000000000000003,19.0,1.6,9.4,-3.0000000000000004,14.700000000000001
1698675177206.0,16,-1.7000000000000002,7.300000000000001,-2.0,-3.0,16.400000000000002,0.6000000000000001,21.200000000000003,-24.1,5.500000000000001
1698675177223.0,16,-0.9,3.0,-2.2,-2.2,12.100000000000001,0.4,2.3000000000000003,0.8,-14.4
1698675177240.0,16,-0.4,2.2,-0.5,-1.7000000000000002,11.3,2.1,-6.3,5.500000000000001,-18.5
1698675177256.0,16,0.5,0.4,5.1000000000000005,-0.9,9.5,7.7,17.8,-16.2,-7.400000000000001
1698675177273.0,16,-0.1,-1.8,7.6000000000000005,-1.4000000000000001,7.4,10.100000000000001,94.1,-40.4,22.7
1698675177290.0,16,-0.1,-2.1,6.9,-1.4000000000000001,7.2,9.1,114.9,-51.300000000000004,38.900000000000006
1698675177306.0,16,0.2,-0.1,3.6,-0.8,9.3,5.7,69.3,-57.9,51.300000000000004
1698675177323.0,16,0.8,1.3,2.2,-0.1,10.700000000000001,4.3,18.900000000000002,-23.400000000000002,47.300000000000004
1698675177345.0,16,0.8,4.2,3.8000000000000003,0.0,13.600000000000001,6.1000000000000005,-66.7,51.0,23.5
1698675177356.0,16,1.2000000000000002,4.9,3.0,0.4,14.3,5.5,-54.5,21.900000000000002,15.7
1698675177374.0,16,0.30000000000000004,1.7000000000000002,0.7000000000000001,-0.5,11.0,3.2,-23.0,-33.300000000000004,5.7
1698675177390.0,16,-0.1,0.30000000000000004,-0.1,-0.9,9.600000000000001,2.5,-13.9,-14.800000000000002,-0.2
1698675177406.0,16,-0.2,-0.4,0.2,-0.9,8.9,2.8000000000000003,-9.200000000000001,-4.7,-4.0
1698675177423.0,16,-0.5,-2.3000000000000003,0.1,-1.3,7.0,2.7,6.8,4.300000000000001,-13.4
1698675177440.0,16,-0.6000000000000001,-4.2,-0.7000000000000001,-1.4000000000000001,5.1000000000000005,1.8,13.4,4.6000000000000005,-17.0
1698675177456.0,16,-0.6000000000000001,-5.0,-1.1,-1.4000000000000001,4.3,1.4000000000000001,11.5,3.6,-18.6
1698675177473.0,16,-0.7000000000000001,-6.2,-1.7000000000000002,-1.7000000000000002,3.0,0.8,3.8,-1.5000000000000002,-20.5
1698675177492.0,16,-0.8,-6.7,-2.2,-1.8,2.5,0.30000000000000004,-3.8,-7.300000000000001,-18.5
1698675177506.0,16,-0.8,-6.6000000000000005,-2.2,-1.9000000000000001,2.5,0.30000000000000004,-6.8,-8.4,-16.6
1698675177523.0,16,-0.8,-6.300000000000001,-2.2,-1.9000000000000001,2.8000000000000003,0.30000000000000004,-8.5,-6.9,-14.200000000000001
1698675177540.0,16,-0.9,-5.4,-2.4000000000000004,-2.0,3.6,0.1,-7.8,1.5000000000000002,-9.1
1698675177557.0,16,-0.9,-4.0,-2.8000000000000003,-2.0,5.0,-0.30000000000000004,-7.300000000000001,-0.6000000000000001,-5.2
1698675177573.0,16,-1.1,-2.3000000000000003,-2.9000000000000004,-2.1,5.800000000000001,-0.30000000000000004,-7.0,-8.9,-4.1000000000000005
1698675177590.0,16,-1.1,-0.30000000000000004,-2.7,-2.2,8.6,-0.2,-4.2,-42.1,-1.8
1698675177607.0,16,-0.8,1.2000000000000002,-2.5,-1.9000000000000001,10.100000000000001,0.0,-3.0000000000000004,-45.5,-2.4000000000000004
1698675177623.0,16,0.30000000000000004,6.1000000000000005,-1.0,-0.8,15.100000000000001,1.6,1.0,-30.7,-8.600000000000001
1698675177640.0,16,1.8,11.5,1.0,0.6000000000000001,20.6,3.5,27.400000000000002,5.9,-17.9
1698675177656.0,16,3.2,11.5,0.8,2.1,20.700000000000003,3.2,41.6,9.5,-22.4
1698675177673.0,16,1.9000000000000001,6.7,-1.5,0.8,15.9,0.7000000000000001,32.2,3.3000000000000003,-13.100000000000001
1698675177691.0,16,-1.3,4.4,-2.2,-2.5,13.700000000000001,0.1,-30.299999999999997,29.900000000000006,13.100000000000001
1698675177706.0,16,-2.6,3.8000000000000003,-0.4,-3.8000000000000003,13.0,2.0,-51.900000000000006,39.50000000000001,21.5
1698675177723.0,16,-2.9000000000000004,2.7,2.9000000000000004,-4.0,11.9,5.4,-28.400000000000002,15.8,29.900000000000006
1698675177740.0,16,-1.5,0.1,5.4,-2.6,9.5,7.9,37.6,-17.8,13.3
1698675177757.0,16,-0.1,-1.1,7.0,-0.1,7.6000000000000005,9.700000000000001,91.10000000000001,-28.8,-41.0
1698675177773.0,16,0.4,-1.5,5.300000000000001,-0.8,7.800000000000001,7.5,83.50000000000001,-27.8,-69.5
1698675177790.0,16,0.2,-1.2000000000000002,2.2,-1.1,8.200000000000001,4.3,45.9,-14.200000000000001,-72.5
1698675177806.0,16,1.1,-1.1,1.7000000000000002,-0.2,10.5,6.2,-76.7,67.7,-45.2
1698675177823.0,16,-0.2,3.4000000000000004,3.8000000000000003,-2.0,12.600000000000001,6.300000000000001,-67.7,52.0,-44.2
1698675177840.0,16,-1.9000000000000001,3.8000000000000003,1.7000000000000002,-3.3000000000000003,12.100000000000001,2.6,-47.7,7.699999999999999,-33.2
1698675177857.0,16,0.1,1.6,-0.6000000000000001,-1.7000000000000002,10.8,2.0,-30.9,-51.300000000000004,10.2
1698675177873.0,16,0.0,-0.9,-0.8,-1.7000000000000002,8.3,1.9000000000000001,-25.8,-19.8,8.600000000000001
1698675177890.0,16,0.6000000000000001,-3.0,-1.5,-1.0,6.1000000000000005,1.3,-8.5,-20.0,2.9
1698675177907.0,16,1.1,-3.9000000000000004,-1.7000000000000002,-0.1,4.7,1.1,-0.8,-20.8,1.0
1698675177923.0,16,1.8,-5.0,-1.7000000000000002,0.2,4.1000000000000005,1.1,-0.9,-13.3,-1.0999999999999999
1698675177940.0,16,2.1,-5.6000000000000005,-1.8,0.5,3.5,1.0,-3.7000000000000006,1.6,-3.6
1698675177956.0,16,2.3000000000000003,-5.6000000000000005,-1.8,0.7000000000000001,3.4000000000000004,0.9,-7.400000000000001,5.8,-2.6
1698675177973.0,16,2.4000000000000004,-5.5,-1.8,0.8,3.5,1.0,-8.700000000000001,4.1000000000000005,-1.4
1698675177989.0,16,2.4000000000000004,-4.6000000000000005,-1.6,0.8,4.4,1.2000000000000002,-9.5,-1.4,2.1
1698675178006.0,16,2.4000000000000004,-3.9000000000000004,-1.4000000000000001,0.8,5.0,1.5,-8.700000000000001,-2.5,2.8
1698675178023.0,16,2.2,-2.3000000000000003,-0.8,0.7000000000000001,6.6000000000000005,2.0,-3.1,6.6000000000000005,3.3000000000000003
1698675178040.0,16,1.7000000000000002,-1.1,-0.5,0.2,7.800000000000001,2.3000000000000003,7.1000000000000005,25.700000000000003,4.300000000000001
1698675178056.0,16,1.6,-0.6000000000000001,-0.9,0.0,8.6,1.0,14.500000000000002,40.9,4.9
1698675178073.0,16,1.2000000000000002,0.0,-2.3000000000000003,-0.30000000000000004,8.9,0.4,11.3,47.0,6.9
1698675178090.0,16,0.8,0.5,-2.7,-0.7000000000000001,9.4,0.0,3.8,53.1,11.000000000000002
1698675178107.0,16,-0.5,3.9000000000000004,-2.2,-2.0,12.8,0.4,-11.5,52.50000000000001,22.1
1698675178123.0,16,-1.3,8.700000000000001,-1.9000000000000001,-2.8000000000000003,17.7,0.7000000000000001,-11.5,17.200000000000003,30.599999999999998
1698675178140.0,16,-2.1,9.1,-1.6,-3.5,18.2,1.1,2.1,-30.9,23.8
1698675178157.0,16,-1.9000000000000001,7.1000000000000005,-2.2,-2.5,13.9,0.1,-0.7,-19.500000000000004,0.6000000000000001
1698675178175.0,16,-0.5,2.9000000000000004,-1.2000000000000002,-1.9000000000000001,12.100000000000001,1.4000000000000001,-8.4,-6.1000000000000005,-13.6
1698675178190.0,16,0.2,0.5,3.3000000000000003,-1.2000000000000002,9.600000000000001,5.9,9.9,3.0000000000000004,-18.6
1698675178207.0,16,0.1,-2.8000000000000003,6.7,-1.2000000000000002,7.9,8.1,39.2,-6.5,-10.600000000000001
1698675178223.0,16,-0.1,-3.5,6.300000000000001,-1.7000000000000002,6.2,8.1,117.20000000000002,-45.800000000000004,42.7
1698675178240.0,16,-0.4,-3.0,5.9,-1.7000000000000002,6.2,8.1,117.20000000000002,-45.800000000000004,42.7
1698675178257.0,16,0.1,1.8,3.5,-1.0,11.200000000000001,5.5,56.7,-75.3,59.00000000000001
1698675178273.0,16,0.0,2.8000000000000003,3.4000000000000004,-0.9,12.200000000000001,5.5,-36.7,11.000000000000002,52.800000000000004
1698675178290.0,16,1.2000000000000002,4.5,3.5,0.4,13.9,5.800000000000001,-62.900000000000006,28.1,33.6
1698675178306.0,16,1.6,4.2,2.6,0.9,13.600000000000001,5.0,-51.400000000000006,-3.2,16.900000000000002
1698675178323.0,16,-0.1,1.3,0.8,-0.8,10.700000000000001,3.4000000000000004,-23.0,-29.200000000000003,-3.1
1698675178340.0,16,-0.5,0.5,-0.30000000000000004,-1.2000000000000002,9.9,2.3000000000000003,-16.8,-7.8,0.7
1698675178357.0,16,-0.9,-1.3,-0.4,-1.6,8.0,2.3000000000000003,-10.9,-5.7,-3.3000000000000003
1698675178373.0,16,-1.1,-2.2,-0.6000000000000001,-1.8,7.1000000000000005,2.1,-7.0,-14.3,-4.9
1698675178390.0,16,-1.0,-4.0,-1.1,-1.7000000000000002,5.300000000000001,1.6,-5.500000000000001,-22.2,-9.1
1698675178407.0,16,-1.0,-4.800000000000001,-1.2000000000000002,-1.7000000000000002,3.7,1.3,-7.400000000000001,-22.000000000000004,-16.3
1698675178424.0,16,-0.9,-6.0,-1.5,-1.7000000000000002,3.2,1.1,-7.8,-21.900000000000002,-19.8
1698675178440.0,16,-0.9,-6.5,-1.9000000000000001,-1.8,2.6,0.8,-7.2,-24.1,-24.9
1698675178457.0,16,-1.0,-6.2,-2.0,-1.9000000000000001,2.9000000000000004,0.7000000000000001,-5.9,-25.2,-27.6
1698675178473.0,16,-1.0,-5.6000000000000005,-1.9000000000000001,-1.9000000000000001,3.4000000000000004,0.9,-5.4,-22.1,-27.3
1698675178490.0,16,-0.6000000000000001,-4.1000000000000005,-1.7000000000000002,-1.6,4.9,1.0,-1.7,-10.1,-25.3
1698675178506.0,16,0.1,-2.8000000000000003,-2.5,-1.0,6.2,0.2,0.30000000000000004,-18.7,-20.900000000000002
1698675178523.0,16,0.2,-2.2,-2.5,-0.9,6.7,0.2,-1.0,-33.0,-16.6
1698675178540.0,16,0.0,-0.6000000000000001,-1.8,-1.1,8.3,0.9,-0.8,-45.1,-7.2
1698675178557.0,16,-0.2,0.7000000000000001,-2.0,-1.3,9.700000000000001,0.7000000000000001,0.5,-23.6,-0.6000000000000001
1698675178574.0,16,0.30000000000000004,4.7,-2.2,-0.7000000000000001,13.700000000000001,0.5,-2.0,-19.500000000000004,-1.9
1698675178590.0,16,2.2,9.9,0.1,1.1,19.0,2.8000000000000003,5.9,-18.8,-15.7
1698675178606.0,16,3.0,10.100000000000001,-0.2,1.8,19.200000000000003,2.4000000000000004,24.000000000000004,-4.7,-27.400000000000002
1698675178623.0,16,1.9000000000000001,7.9,-1.9000000000000001,0.8,17.0,0.7000000000000001,19.8,1.8,-16.6
1698675178640.0,16,-0.7000000000000001,5.0,-3.4000000000000004,-1.8,14.200000000000001,-0.8,-24.9,6.8,24.1
1698675178657.0,16,-3.7,2.8000000000000003,0.5,-4.7,12.0,3.2,-47.5,16.8,47.800000000000004
1698675178673.0,16,-3.1,0.2,3.3000000000000003,-4.0,9.5,6.1000000000000005,3.0000000000000004,-11.000000000000002,53.1
1698675178690.0,16,-2.0,-0.9,4.5,-2.8000000000000003,8.3,7.300000000000001,39.1,-29.300000000000004,40.9
1698675178707.0,16,0.4,-2.2,7.4,-0.30000000000000004,7.1000000000000005,10.0,104.2,-35.0,-16.6
1698675178723.0,16,1.0,0.5,5.0,0.0,9.8,7.300000000000001,87.9,-23.3,-88.10000000000001
1698675178740.0,16,1.0,1.3,1.7000000000000002,-0.1,10.700000000000001,3.9000000000000004,40.8,-12.4,-92.9
1698675178758.0,16,1.7000000000000002,1.6,1.1,0.30000000000000004,10.9,3.4000000000000004,-65.60000000000001,72.6,-80.7
1698675178773.0,16,1.1,2.1,2.4000000000000004,-0.4,11.4,4.9,-89.4,88.3,-71.9
1698675178790.0,16,-1.6,0.4,1.5,-3.3000000000000003,9.600000000000001,4.2,-64.7,1.0,-25.8
1698675178806.0,16,-0.1,-0.2,-0.7000000000000001,-1.7000000000000002,9.0,2.1,-36.1,-43.800000000000004,31.8
1698675178823.0,16,-0.30000000000000004,-0.5,-0.9,-1.9000000000000001,8.700000000000001,2.0,-30.7,-24.6,34.1
1698675178840.0,16,0.2,-1.9000000000000001,-0.9,-1.3,7.2,2.1,-10.4,7.8,21.1
1698675178857.0,16,0.7000000000000001,-4.0,-1.5,-0.7000000000000001,5.1000000000000005,1.4000000000000001,7.699999999999999,13.3,7.9
1698675178874.0,16,1.2000000000000002,-4.6000000000000005,-1.5,-0.30000000000000004,4.5,1.4000000000000001,11.4,12.100000000000001,7.1000000000000005
1698675178890.0,16,1.9000000000000001,-5.4,-1.5,0.5,3.7,1.3,12.3,18.1,6.5
1698675178906.0,16,2.3000000000000003,-5.800000000000001,-1.7000000000000002,0.9,3.3000000000000003,1.1,6.2,26.1,4.9
1698675178923.0,16,2.1,-5.300000000000001,-1.9000000000000001,0.7000000000000001,3.6,0.8,-3.9,23.1,5.2
1698675178940.0,16,1.9000000000000001,-4.800000000000001,-1.8,0.5,4.2,1.0,-8.9,18.5,7.1000000000000005
1698675178956.0,16,1.3,-3.2,-1.0,0.0,5.7,1.8,-12.4,14.700000000000001,10.1
1698675178973.0,16,0.8,-1.6,-0.9,-0.6000000000000001,7.300000000000001,1.8,-3.9,24.8,9.9
1698675178991.0,16,0.6000000000000001,-1.1,-1.3,-0.7000000000000001,7.9,1.5,0.5,31.6,8.0
1698675179006.0,16,0.30000000000000004,-0.7000000000000001,-2.3000000000000003,-1.0,8.200000000000001,0.5,4.0,40.6,5.500000000000001
1698675179024.0,16,0.2,-0.4,-2.5,-1.1,8.5,0.2,1.6,43.50000000000001,6.3
1698675179040.0,16,0.2,1.4000000000000001,-2.7,-1.2000000000000002,10.4,0.0,-6.8,49.4,12.6
1698675179056.0,16,-0.5,5.7,-2.2,-1.9000000000000001,14.700000000000001,0.5,-9.0,44.6,19.0
1698675179073.0,16,-0.9,8.1,-2.0,-2.2,17.1,0.7000000000000001,-4.5,26.700000000000003,21.900000000000002
1698675179090.0,16,-1.6,9.4,-1.4000000000000001,-2.9000000000000004,18.5,1.3,13.5,-15.000000000000002,21.6
1698675179107.0,16,-1.0,5.0,-2.0,-2.3000000000000003,14.200000000000001,0.6000000000000001,17.9,-9.0,4.6000000000000005
1698675179123.0,16,-0.6000000000000001,3.4000000000000004,-1.4000000000000001,-1.8,12.600000000000001,1.2000000000000002,12.5,1.5000000000000002,-5.0
1698675179140.0,16,-0.1,1.7000000000000002,2.5,-1.4000000000000001,10.9,5.0,15.299999999999999,0.7,-5.9
1698675179157.0,16,-0.5,-1.6,8.4,-1.8,7.6000000000000005,10.8,70.3,-20.0,14.600000000000001
1698675179174.0,16,-0.8,-2.7,8.200000000000001,-2.0,6.6000000000000005,10.4,107.6,-34.300000000000004,29.600000000000005
1698675179190.0,16,-0.8,-1.9000000000000001,3.8000000000000003,-1.8,7.5,5.800000000000001,95.9,-57.3,57.400000000000006
1698675179207.0,16,0.30000000000000004,0.9,2.2,-0.5,10.3,4.1000000000000005,0.9,9.8,59.1
1698675179223.0,16,0.9,5.300000000000001,4.4,0.2,14.700000000000001,6.5,-59.00000000000001,61.199999999999996,41.4
1698675179240.0,16,0.8,5.7,2.4000000000000004,0.8,16.2,6.0,-56.900000000000006,38.7,33.300000000000004
1698675179256.0,16,-0.5,3.4000000000000004,1.2000000000000002,-1.0,12.8,3.5,-32.7,-21.8,25.2
1698675179273.0,16,-1.0,0.9,-0.30000000000000004,-1.4000000000000001,10.4,2.1,-27.7,-14.800000000000002,15.2
1698675179290.0,16,-1.1,0.0,-0.30000000000000004,-1.6,8.5,2.1,-21.400000000000002,-10.4,3.8
1698675179307.0,16,-1.4000000000000001,-1.8,-0.7000000000000001,-1.8,7.6000000000000005,1.9000000000000001,-16.3,-6.4,-0.6000000000000001
1698675179323.0,16,-1.5,-2.6,-1.0,-2.0,6.7,1.6,-11.8,-4.7,-4.2
1698675179341.0,16,-1.5,-5.1000000000000005,-1.6,-2.0,4.2,1.0,-4.300000000000001,-18.400000000000002,-14.700000000000001
1698675179356.0,16,-1.3,-5.9,-1.6,-1.9000000000000001,3.4000000000000004,0.9,-2.6,-23.5,-18.1
1698675179374.0,16,-1.2000000000000002,-6.9,-2.0,-1.8,2.4000000000000004,0.6000000000000001,0.2,-28.500000000000004,-24.000000000000004
1698675179391.0,16,-1.2000000000000002,-7.1000000000000005,-2.1,-1.8,2.1,0.5,0.5,-28.200000000000003,-25.700000000000003
1698675179407.0,16,-1.1,-6.5,-2.1,-1.8,2.6,0.5,-1.0999999999999999,-17.8,-25.700000000000003
1698675179423.0,16,-0.7000000000000001,-4.7,-1.6,-1.5,4.3,1.0,-4.300000000000001,0.1,-23.0
1698675179441.0,16,-0.30000000000000004,-3.7,-1.4000000000000001,-1.1,5.4,1.1,-5.0,1.5000000000000002,-21.700000000000003
1698675179459.0,16,0.30000000000000004,-0.9,-1.7000000000000002,-0.7000000000000001,7.5,0.7000000000000001,-7.500000000000001,-23.900000000000002,-13.6
1698675179474.0,16,0.1,-0.30000000000000004,-1.5,-0.7000000000000001,8.700000000000001,1.1,-13.700000000000001,-48.7,-6.4
1698675179490.0,16,-0.30000000000000004,1.8,-1.9000000000000001,-1.1,10.8,0.7000000000000001,-16.0,-36.3,-1.6
1698675179509.0,16,-0.2,3.2,-1.5,-1.0,12.200000000000001,1.1,-17.1,-22.1,-2.4000000000000004
1698675179523.0,16,0.8,7.1000000000000005,-0.5,0.0,16.1,2.2,-5.1,7.300000000000001,-12.8
1698675179540.0,16,2.0,8.9,-0.4,1.1,18.0,2.2,5.2,14.600000000000001,-21.200000000000003
1698675179556.0,16,2.0,8.5,-0.9,1.0,17.7,1.7000000000000002,17.599999999999998,16.6,-29.1
1698675179573.0,16,-0.8,5.4,-3.6,-1.8,14.700000000000001,-1.0,-7.0,20.7,13.4
1698675179590.0,16,-1.9000000000000001,4.5,-2.7,-2.8000000000000003,13.700000000000001,-0.1,-29.1,17.5,37.800000000000004
1698675179606.0,16,-4.0,2.7,1.3,-4.800000000000001,12.0,4.0,-27.8,4.6000000000000005,58.2
1698675179623.0,16,-3.6,0.1,3.3000000000000003,-4.2,9.4,6.0,27.8,-20.8,51.0
1698675179640.0,16,-1.1,-1.9000000000000001,6.4,-1.7000000000000002,7.4,8.9,86.5,-35.0,3.9
1698675179656.0,16,0.6000000000000001,-2.1,8.0,0.0,7.2,10.3,98.8,-29.300000000000004,-38.800000000000004
1698675179673.0,16,0.9,-0.8,7.300000000000001,0.1,8.6,9.5,86.7,-24.400000000000002,-82.9
1698675179691.0,16,1.3,1.6,1.1,0.30000000000000004,10.9,3.3000000000000003,0.4,1.5000000000000002,-101.2
1698675179706.0,16,1.7000000000000002,1.4000000000000001,2.6,-0.9,10.700000000000001,6.2,-81.10000000000001,87.80000000000001,-87.80000000000001
1698675179724.0,16,-1.0,0.6000000000000001,2.6,-2.6,9.9,5.300000000000001,-61.8,29.000000000000004,-47.7
1698675179740.0,16,0.1,0.4,-0.5,-1.5,9.600000000000001,2.3000000000000003,-39.699999999999996,-26.3,-7.9
1698675179756.0,16,-0.30000000000000004,0.2,-0.4,-1.7000000000000002,9.3,2.5,-20.8,-17.5,32.300000000000004
1698675179773.0,16,0.0,-0.6000000000000001,-0.2,-1.4000000000000001,8.6,2.7,-10.0,-2.9,23.6
1698675179790.0,16,0.2,-2.0,-0.8,-1.2000000000000002,7.2,2.1,1.6,7.2,11.4
1698675179806.0,16,1.2000000000000002,-3.9000000000000004,-1.3,-0.1,5.300000000000001,1.5,9.3,7.400000000000001,4.300000000000001
1698675179823.0,16,1.9000000000000001,-5.2,-1.4000000000000001,0.6000000000000001,3.9000000000000004,1.4000000000000001,3.7000000000000006,14.800000000000002,5.1
1698675179840.0,16,2.5,-5.800000000000001,-1.8,1.1,3.3000000000000003,0.9,-7.500000000000001,27.900000000000002,4.7
1698675179857.0,16,2.6,-5.9,-2.0,1.2000000000000002,3.1,0.8,-13.700000000000001,31.5,4.300000000000001
1698675179873.0,16,2.6,-5.800000000000001,-1.9000000000000001,1.2000000000000002,3.2,0.9,-19.0,32.9,5.0
1698675179890.0,16,2.2,-4.9,-1.7000000000000002,0.9,4.1000000000000005,1.1,-24.000000000000004,30.299999999999997,10.4
1698675179907.0,16,1.7000000000000002,-3.1,-1.0,0.4,5.800000000000001,1.9000000000000001,-20.8,26.8,15.9
1698675179923.0,16,0.5,-1.5,-0.7000000000000001,-0.7000000000000001,7.300000000000001,2.2,-7.0,35.1,20.5
1698675179941.0,16,-0.6000000000000001,-0.9,-1.5,-1.4000000000000001,7.800000000000001,1.8,-0.1,41.7,21.400000000000002
1698675179957.0,16,-0.8,-0.7000000000000001,-2.2,-2.0,8.4,-0.30000000000000004,8.799999999999999,47.5,16.700000000000003
1698675179973.0,16,-0.8,0.0,-3.7,-2.0,8.9,-0.9,4.0,41.6,14.500000000000002
1698675179991.0,16,-0.9,2.6,-3.0,-2.1,11.5,-0.2,-10.600000000000001,37.300000000000004,22.4
1698675180006.0,16,-1.3,7.9,-1.6,-2.4000000000000004,16.900000000000002,1.2000000000000002,-6.2,25.400000000000002,29.300000000000004
1698675180023.0,16,-1.7000000000000002,10.200000000000001,-1.0,-2.9000000000000004,19.200000000000003,1.7000000000000002,6.000000000000001,7.2,26.200000000000003
1698675180039.0,16,-2.7,8.0,-1.1,-3.8000000000000003,17.2,1.5,31.5,-14.4,6.000000000000001
1698675180056.0,16,-1.3,3.1,-1.9000000000000001,-2.4000000000000004,12.200000000000001,0.6000000000000001,22.6,3.0000000000000004,-23.6
1698675180073.0,16,-0.2,2.2,-0.8,-1.4000000000000001,11.4,1.7000000000000002,10.2,10.2,-27.2
1698675180089.0,16,1.4000000000000001,0.7000000000000001,3.0,0.1,9.9,5.6000000000000005,2.1999999999999997,16.6,-19.200000000000003
1698675180106.0,16,1.5,-1.0,6.5,-0.4,6.5,11.200000000000001,18.2,5.9,-8.9
1698675180123.0,16,0.5,-3.3000000000000003,8.1,-0.8,6.0,10.5,86.4,-29.1,30.9
1698675180139.0,16,-0.4,0.8,4.4,-1.4000000000000001,10.200000000000001,6.6000000000000005,71.5,-45.800000000000004,67.60000000000001
1698675180156.0,16,-0.4,2.0,2.6,-0.8,11.8,4.2,33.800000000000004,-20.3,69.60000000000001
1698675180173.0,16,0.5,3.7,2.6,-0.2,13.100000000000001,4.800000000000001,-38.900000000000006,41.9,56.7
1698675180189.0,16,0.5,5.7,2.7,-0.1,15.100000000000001,5.1000000000000005,-54.5,31.5,24.3
1698675180206.0,16,0.4,3.9000000000000004,1.4000000000000001,-0.2,13.3,3.9000000000000004,-43.800000000000004,-1.0,7.400000000000001
1698675180223.0,16,-0.1,0.0,-0.7000000000000001,-0.7000000000000001,9.3,1.9000000000000001,-35.9,-19.700000000000003,-6.1000000000000005
1698675180240.0,16,-0.2,-1.3,-1.0,-0.8,8.0,1.8,-35.0,-3.8,-7.500000000000001
1698675180256.0,16,-0.7000000000000001,-2.7,-0.8,-1.3,6.5,2.0,-20.6,3.0000000000000004,-14.800000000000002
1698675180274.0,16,-1.2000000000000002,-3.5,-1.1,-1.8,5.7,1.7000000000000002,-10.600000000000001,-0.5,-15.7
1698675180290.0,16,-1.3,-4.3,-1.4000000000000001,-2.0,4.9,1.4000000000000001,-2.4000000000000004,-8.700000000000001,-15.5
1698675180306.0,16,-1.3,-6.7,-1.8,-2.1,2.4000000000000004,0.9,10.8,-31.2,-20.1
1698675180323.0,16,-1.2000000000000002,-7.300000000000001,-2.0,-2.0,1.8,0.8,12.700000000000001,-31.900000000000002,-22.1
1698675180340.0,16,-1.0,-7.6000000000000005,-2.4000000000000004,-1.9000000000000001,1.4000000000000001,0.5,13.200000000000001,-28.900000000000002,-24.400000000000002
1698675180356.0,16,-0.9,-7.0,-2.4000000000000004,-1.8,2.0,0.2,8.799999999999999,-15.2,-27.1
1698675180373.0,16,-0.4,-4.7,-1.5,-1.4000000000000001,4.3,1.1,4.1000000000000005,6.1000000000000005,-26.0
1698675180390.0,16,0.30000000000000004,-1.8,-1.1,-0.8,7.2,1.5,8.5,2.9,-20.7
1698675180406.0,16,0.5,1.3,-1.9000000000000001,-0.6000000000000001,8.8,1.3,10.9,-11.3,-16.700000000000003
1698675180423.0,16,0.5,2.5,-2.2,-0.6000000000000001,11.5,0.30000000000000004,5.8,-34.300000000000004,-8.5
1698675180440.0,16,0.2,3.6,-2.2,-0.9,12.700000000000001,0.4,-5.7,-19.9,0.0
1698675180456.0,16,0.4,5.5,-1.7000000000000002,-0.7000000000000001,14.5,0.9,-9.0,-5.4,1.3
1698675180473.0,16,0.4,6.9,-0.7000000000000001,-0.7000000000000001,16.0,1.9000000000000001,-5.9,-0.1,-2.4000000000000004
1698675180490.0,16,1.3,8.3,-0.1,0.2,17.400000000000002,2.4000000000000004,8.200000000000001,6.8,-6.4
1698675180506.0,16,1.6,7.2,-0.8,0.6000000000000001,16.400000000000002,1.7000000000000002,10.1,9.4,-3.4
1698675180523.0,16,-1.4000000000000001,3.6,-1.4000000000000001,-2.4000000000000004,12.8,1.2000000000000002,-30.299999999999997,24.9,24.5
1698675180540.0,16,-2.7,2.5,0.4,-3.7,11.700000000000001,3.0,-31.7,19.200000000000003,29.000000000000004
1698675180556.0,16,-3.6,0.1,3.2,-4.6000000000000005,9.3,5.800000000000001,13.6,-15.2,24.9
1698675180573.0,16,-3.1,-1.3,3.4000000000000004,-4.0,7.9,6.0,44.5,-36.0,15.399999999999999
1698675180589.0,16,-1.0,-3.2,5.4,-1.9000000000000001,6.1000000000000005,7.800000000000001,77.1,-57.6,-27.2
1698675180606.0,16,0.6000000000000001,0.1,5.800000000000001,-0.6000000000000001,9.4,8.1,47.900000000000006,-24.000000000000004,-81.7
1698675180622.0,16,2.4000000000000004,3.9000000000000004,1.6,1.0,13.200000000000001,3.9000000000000004,-19.400000000000002,7.1000000000000005,-88.7
1698675180639.0,16,2.6,3.9000000000000004,2.0,1.1,13.200000000000001,4.4,-49.9,35.1,-90.2
1698675180656.0,16,0.0,1.3,2.6,-1.9000000000000001,10.5,5.2,-52.6,31.5,-68.0
1698675180673.0,16,0.0,-0.1,-0.30000000000000004,-1.8,9.1,2.4000000000000004,-27.3,-53.50000000000001,1.9
1698675180690.0,16,0.0,0.30000000000000004,-0.6000000000000001,-1.8,9.4,2.1,-23.5,-61.1,19.9
1698675180706.0,16,-0.30000000000000004,-0.1,-0.30000000000000004,-2.0,9.0,2.5,-11.8,-39.300000000000004,17.0
1698675180723.0,16,-0.1,-1.0,-0.6000000000000001,-1.7000000000000002,8.200000000000001,2.2,-1.5000000000000002,-30.000000000000004,8.0
1698675180740.0,16,0.6000000000000001,-3.2,-1.7000000000000002,-1.0,6.0,1.1,7.699999999999999,-27.8,-4.5
1698675180757.0,16,1.5,-4.6000000000000005,-1.5,-0.1,4.5,1.3,2.6,-27.8,-2.9
1698675180773.0,16,1.8,-5.1000000000000005,-1.5,0.30000000000000004,3.9000000000000004,1.3,-0.9,-21.3,-2.3000000000000003
1698675180791.0,16,2.5,-5.7,-1.7000000000000002,0.9,3.4000000000000004,1.2000000000000002,-7.6,-6.1000000000000005,-3.6
1698675180808.0,16,2.6,-5.800000000000001,-1.8,1.1,3.2,1.0,-10.4,-0.4,-4.7
1698675180823.0,16,2.6,-5.6000000000000005,-1.8,1.1,3.3000000000000003,1.0,-13.700000000000001,2.9,-3.7000000000000006
1698675180840.0,16,2.4000000000000004,-4.7,-1.7000000000000002,0.9,4.2,1.2000000000000002,-12.000000000000002,-1.2000000000000002,0.5
1698675180856.0,16,2.2,-3.2,-1.2000000000000002,0.7000000000000001,5.7,1.6,-4.800000000000001,-2.3000000000000003,3.5
1698675180873.0,16,1.9000000000000001,-2.3000000000000003,-1.0,0.2,7.300000000000001,1.7000000000000002,1.2000000000000002,3.4,4.9
1698675180889.0,16,1.5,-0.7000000000000001,-1.7000000000000002,0.0,8.200000000000001,1.1,12.3,24.7,10.700000000000001
1698675180907.0,16,0.9,1.0,-2.4000000000000004,-0.5,9.8,0.4,9.5,45.5,18.400000000000002
1698675180923.0,16,-0.30000000000000004,3.7,-2.2,-1.7000000000000002,12.600000000000001,0.5,1.2000000000000002,59.9,31.5
1698675180940.0,16,-0.8,5.6000000000000005,-2.4000000000000004,-2.2,14.5,0.30000000000000004,0.4,48.400000000000006,38.800000000000004
1698675180957.0,16,-1.6,9.1,-1.9000000000000001,-2.9000000000000004,18.1,0.7000000000000001,5.0,-14.3,43.400000000000006
1698675180974.0,16,-2.1,9.0,-1.6,-3.3000000000000003,18.0,1.0,10.3,-37.1,38.7
1698675180990.0,16,-2.2,6.1000000000000005,-2.4000000000000004,-3.3000000000000003,15.3,0.1,10.5,-27.6,15.9
1698675181007.0,16,0.1,3.3000000000000003,-1.1,-1.1,12.5,1.5,-4.2,2.1999999999999997,-16.3
1698675181023.0,16,0.9,2.4000000000000004,0.30000000000000004,0.1,10.5,4.1000000000000005,5.1,5.7,-26.8
1698675181040.0,16,1.3,-0.6000000000000001,4.1000000000000005,-0.2,6.5,9.8,20.5,-6.8,-22.4
1698675181056.0,16,0.5,-3.8000000000000003,7.7,-0.7000000000000001,5.4,10.100000000000001,90.30000000000001,-17.3,3.6
1698675181073.0,16,-0.8,-1.7000000000000002,5.9,-1.9000000000000001,7.6000000000000005,8.1,106.4,-52.400000000000006,48.6
1698675181089.0,16,-1.0,2.0,4.7,-1.5,13.700000000000001,5.2,21.200000000000003,-16.2,71.10000000000001
1698675181106.0,16,0.0,5.5,2.9000000000000004,-0.8,14.9,5.0,-28.3,29.800000000000004,71.5
1698675181123.0,16,1.3,5.5,2.9000000000000004,0.7000000000000001,14.9,5.2,-73.9,42.800000000000004,48.6
1698675181141.0,16,1.4000000000000001,3.7,2.0,-0.2,11.0,3.6,-68.1,10.700000000000001,28.400000000000002
1698675181156.0,16,-0.4,0.7000000000000001,0.0,-0.9,10.0,2.6,-44.3,-23.8,-3.4
1698675181173.0,16,-0.30000000000000004,0.0,-0.9,-0.8,9.3,1.8,-33.1,-11.8,-9.200000000000001
1698675181191.0,16,-0.4,-0.8,-0.8,-0.9,8.6,1.9000000000000001,-26.8,3.5,-12.100000000000001
1698675181206.0,16,-0.6000000000000001,-2.7,-1.0,-1.2000000000000002,6.6000000000000005,1.8,-8.600000000000001,20.2,-15.6
1698675181224.0,16,-0.7000000000000001,-3.8000000000000003,-1.1,-1.3,5.5,1.6,0.6000000000000001,16.0,-16.6
1698675181240.0,16,-0.7000000000000001,-6.4,-1.3,-1.4000000000000001,2.8000000000000003,1.4000000000000001,20.3,-7.0,-18.400000000000002
1698675181257.0,16,-0.7000000000000001,-6.4,-1.3,-1.4000000000000001,2.8000000000000003,1.4000000000000001,20.3,-7.0,-18.400000000000002
1698675181274.0,16,-0.6000000000000001,-7.6000000000000005,-2.0,-1.5,1.7000000000000002,0.8,23.900000000000002,-8.4,-16.5
1698675181291.0,16,-0.6000000000000001,-7.5,-2.1,-1.5,1.6,0.4,17.1,-0.9,-13.5
1698675181306.0,16,-0.8,-5.800000000000001,-1.6,-1.7000000000000002,3.3000000000000003,0.9,4.7,13.6,-9.8
1698675181324.0,16,-0.6000000000000001,-4.3,-1.4000000000000001,-1.6,4.800000000000001,1.0,-0.6000000000000001,19.700000000000003,-7.6
1698675181339.0,16,-0.30000000000000004,0.30000000000000004,-2.1,-1.3,9.3,0.4,-12.000000000000002,-10.9,1.5000000000000002
1698675181357.0,16,-0.6000000000000001,1.3,-2.3000000000000003,-1.5,10.3,0.2,-15.9,-28.8,4.9
1698675181373.0,16,-1.3,2.6,-1.9000000000000001,-2.2,11.600000000000001,0.7000000000000001,-21.400000000000002,-32.5,7.8
1698675181390.0,16,-1.3,3.3000000000000003,-1.7000000000000002,-2.1,12.4,0.9,-19.8,-21.900000000000002,5.500000000000001
1698675181406.0,16,0.0,5.800000000000001,-1.5,-0.9,14.9,1.1,-10.1,-3.9,-10.3
1698675181423.0,16,2.7,8.4,-1.0,1.7000000000000002,17.5,1.6,2.8,6.4,-32.4
1698675181440.0,16,2.7,8.1,-1.1,1.7000000000000002,17.3,1.5,7.400000000000001,10.2,-38.2
1698675181457.0,16,-0.1,5.9,-2.2,-1.1,15.100000000000001,0.4,2.3000000000000003,9.600000000000001,-6.9
1698675181473.0,16,-2.4000000000000004,3.0,-1.9000000000000001,-3.4000000000000004,12.200000000000001,0.7000000000000001,-21.400000000000002,-0.4,41.4
1698675181490.0,16,-4.4,-0.30000000000000004,2.0,-5.2,8.9,4.7,-7.0,-23.6,59.80000000000001
1698675181506.0,16,-4.1000000000000005,-1.5,3.3000000000000003,-4.9,7.7,6.0,20.0,-36.0,58.9
1698675181523.0,16,-2.3000000000000003,-3.3000000000000003,5.5,-2.9000000000000004,6.0,8.0,70.7,-57.400000000000006,26.200000000000003
1698675181540.0,16,-0.4,-3.1,7.800000000000001,-1.0,6.2,10.200000000000001,77.1,-57.400000000000006,-10.3
1698675181557.0,16,2.9000000000000004,3.3000000000000003,6.5,2.1,12.700000000000001,8.8,50.0,-36.5,-107.6
1698675181574.0,16,4.3,4.1000000000000005,0.0,3.1,13.4,2.3000000000000003,-28.500000000000004,21.3,-147.4
1698675181590.0,16,3.3000000000000003,3.5,0.7000000000000001,-0.4,11.5,5.4,-81.6,104.4,-141.70000000000002
1698675181608.0,16,-0.6000000000000001,0.5,3.3000000000000003,-2.5,9.700000000000001,5.9,-69.3,63.50000000000001,-105.10000000000001
1698675181624.0,16,-1.5,-1.2000000000000002,0.8,-3.5,7.9,3.5,-45.5,-7.9,-48.00000000000001
1698675181640.0,16,0.2,-0.5,-1.3,-1.7000000000000002,8.6,1.5,-28.500000000000004,-68.60000000000001,40.8
1698675181656.0,16,-0.5,-0.30000000000000004,-0.2,-2.2,8.8,2.7,-15.6,-34.400000000000006,55.900000000000006
1698675181675.0,16,0.7000000000000001,-2.3000000000000003,-0.9,-0.8,6.9,2.0,6.7,4.1000000000000005,35.9
1698675181690.0,16,0.8,-3.7,-1.2000000000000002,-1.0,4.4,1.7000000000000002,17.400000000000002,0.0,4.9
1698675181707.0,16,1.1,-5.1000000000000005,-1.0,-0.4,4.0,1.8,18.5,-5.0,2.5
1698675181723.0,16,1.8,-5.4,-1.1,0.30000000000000004,3.6,1.7000000000000002,16.700000000000003,-2.8,1.9
1698675181740.0,16,2.3000000000000003,-5.9,-1.5,0.9,3.1,1.2000000000000002,1.8,11.8,0.0
1698675181756.0,16,2.4000000000000004,-5.6000000000000005,-1.7000000000000002,0.9,3.4000000000000004,1.0,-18.400000000000002,17.9,2.1999999999999997
1698675181774.0,16,1.9000000000000001,-4.1000000000000005,-1.2000000000000002,0.5,4.800000000000001,1.6,-27.8,7.1000000000000005,7.300000000000001
1698675181790.0,16,1.0,-1.9000000000000001,-0.7000000000000001,-0.4,7.0,2.2,-19.9,3.9,11.9
1698675181806.0,16,0.6000000000000001,-0.8,-1.0,-0.8,8.1,1.9000000000000001,-13.3,11.9,13.700000000000001
1698675181824.0,16,0.1,0.30000000000000004,-2.0,-1.3,9.200000000000001,0.9,-4.5,32.4,10.8
1698675181839.0,16,-0.2,0.1,-3.3000000000000003,-1.6,9.0,-0.4,-7.2,32.800000000000004,7.1000000000000005
1698675181856.0,16,-0.4,0.30000000000000004,-3.3000000000000003,-1.7000000000000002,9.200000000000001,-0.4,-12.4,28.8,9.700000000000001
1698675181873.0,16,-0.5,2.4000000000000004,-2.7,-1.8,11.3,0.2,-18.7,24.8,18.0
1698675181889.0,16,-0.5,6.6000000000000005,-1.2000000000000002,-1.8,15.5,1.7000000000000002,-8.799999999999999,12.9,19.0
1698675181906.0,16,-0.6000000000000001,8.5,-0.5,-1.9000000000000001,17.5,2.4000000000000004,4.7,3.6,15.100000000000001
1698675181923.0,16,-0.6000000000000001,7.1000000000000005,-1.3,-1.9000000000000001,16.2,1.5,32.0,0.0,-1.4
1698675181940.0,16,-0.4,4.9,-2.0,-1.7000000000000002,13.9,0.8,31.7,5.6,-9.3
1698675181956.0,16,0.4,2.0,0.0,-0.9,11.100000000000001,2.7,16.1,8.9,-8.600000000000001
1698675181973.0,16,0.7000000000000001,-0.6000000000000001,4.800000000000001,-0.7000000000000001,8.5,7.4,31.3,0.7,7.500000000000001
1698675181991.0,16,0.0,-1.9000000000000001,6.9,-1.3,7.300000000000001,9.5,59.00000000000001,-9.700000000000001,19.8
1698675182006.0,16,-1.1,-1.6,6.6000000000000005,-2.3000000000000003,7.6000000000000005,8.9,93.5,-41.800000000000004,45.0
1698675182023.0,16,-0.6000000000000001,1.1,3.0,-1.5,10.4,5.300000000000001,34.6,-44.00000000000001,55.6
1698675182040.0,16,-0.5,2.4000000000000004,4.2,-1.3,11.700000000000001,6.5,-39.300000000000004,46.7,50.0
1698675182056.0,16,-0.1,4.4,4.9,-0.8,13.700000000000001,7.4,-49.3,60.00000000000001,44.00000000000001
1698675182073.0,16,1.6,5.2,2.4000000000000004,0.9,14.600000000000001,5.0,-29.300000000000004,-7.2,17.9
1698675182090.0,16,0.4,1.7000000000000002,0.2,-0.30000000000000004,11.0,2.8000000000000003,-23.3,-4.6000000000000005,2.5
1698675182106.0,16,0.0,0.8,-0.1,-1.1,9.5,2.7,-23.400000000000002,5.7,0.8
1698675182123.0,16,-1.0,-0.5,-0.1,-1.6,8.9,2.7,-14.700000000000001,-5.4,1.0999999999999999
1698675182139.0,16,-1.3,-1.8,-1.1,-2.0,7.5,1.7000000000000002,0.7,-14.800000000000002,2.6
1698675182156.0,16,-1.3,-2.7,-1.3,-1.9000000000000001,5.7,1.3,3.2,-12.5,0.5
1698675182173.0,16,-1.2000000000000002,-4.5,-1.4000000000000001,-1.9000000000000001,4.7,1.3,5.7,-4.5,-8.600000000000001
1698675182189.0,16,-1.1,-5.800000000000001,-1.7000000000000002,-1.9000000000000001,3.4000000000000004,1.0,11.1,-0.9,-16.0
1698675182206.0,16,-1.0,-6.2,-1.9000000000000001,-1.8,3.0,0.7000000000000001,12.4,4.0,-20.7
1698675182223.0,16,-0.9,-6.0,-1.9000000000000001,-1.7000000000000002,3.1,0.7000000000000001,10.5,9.9,-21.6
1698675182240.0,16,-0.2,-4.800000000000001,-1.5,-1.2000000000000002,4.3,1.0,4.9,20.4,-21.5
1698675182256.0,16,0.1,-4.1000000000000005,-1.5,-0.7000000000000001,5.4,0.8,0.1,12.3,-15.299999999999999
1698675182273.0,16,0.30000000000000004,-3.5,-2.1,-0.7000000000000001,5.6000000000000005,0.4,-4.800000000000001,3.6,-9.5
1698675182290.0,16,0.30000000000000004,-3.3000000000000003,-2.4000000000000004,-0.7000000000000001,5.800000000000001,0.1,-11.3,-4.9,-4.3999999999999995
1698675182306.0,16,-0.7000000000000001,-1.6,-2.9000000000000004,-1.7000000000000002,7.4,-0.30000000000000004,-25.2,-33.0,3.0000000000000004
1698675182323.0,16,-1.1,-0.7000000000000001,-3.1,-2.1,8.3,-0.4,-26.200000000000003,-44.3,5.500000000000001
1698675182339.0,16,-1.7000000000000002,2.2,-3.2,-2.6,11.100000000000001,-0.5,-26.500000000000004,-59.7,9.700000000000001
1698675182356.0,16,-2.3000000000000003,6.800000000000001,-2.0,-3.1,15.8,0.8,-22.4,-66.2,7.8
1698675182373.0,16,-2.3000000000000003,8.8,-1.4000000000000001,-3.1,17.8,1.5,-12.6,-61.7,4.800000000000001
1698675182390.0,16,-0.7000000000000001,8.3,-1.7000000000000002,-1.5,17.400000000000002,1.1,13.100000000000001,-52.900000000000006,-13.9
1698675182406.0,16,-0.30000000000000004,6.5,-1.8,-1.1,15.600000000000001,1.0,19.3,-51.0,-23.3
1698675182423.0,16,0.2,4.1000000000000005,-1.7000000000000002,-0.6000000000000001,13.3,1.0,17.5,-27.8,-20.900000000000002
1698675182440.0,16,-0.2,2.2,-0.4,-1.0,11.4,2.3000000000000003,-0.2,-1.6,4.6000000000000005
1698675182456.0,16,-0.7000000000000001,2.0,5.4,-1.5,11.200000000000001,8.0,13.200000000000001,12.4,21.0
1698675182473.0,16,-0.6000000000000001,2.2,7.4,0.6000000000000001,11.3,11.9,43.300000000000004,-32.5,-17.5
1698675182490.0,16,3.8000000000000003,1.6,9.700000000000001,3.0,10.9,12.3,40.2,-60.1,-48.00000000000001
1698675182506.0,16,2.0,-1.2000000000000002,4.0,1.0,8.1,6.7,24.200000000000003,-61.7,-69.10000000000001
1698675182523.0,16,1.3,-3.8000000000000003,0.9,0.2,5.5,3.6,-40.7,56.400000000000006,-60.00000000000001
1698675182540.0,16,1.8,-3.9000000000000004,0.9,0.5,5.2,3.9000000000000004,-82.0,103.60000000000001,-30.200000000000003
1698675182556.0,16,-3.1,2.7,4.1000000000000005,-4.4,11.8,7.2,-34.50000000000001,21.3,0.5
1698675182573.0,16,-4.6000000000000005,5.2,0.4,-5.9,14.3,3.5,-2.0,-26.200000000000003,22.5
1698675182591.0,16,-0.9,4.3,0.0,-2.1,13.4,3.1,-6.5,-36.7,19.3
1698675182606.0,16,0.1,0.0,0.9,-1.2000000000000002,9.1,4.0,6.5,31.099999999999998,-19.200000000000003
1698675182623.0,16,1.1,-1.4000000000000001,0.4,-0.30000000000000004,7.800000000000001,3.4000000000000004,16.400000000000002,22.1,-19.8
1698675182639.0,16,2.4000000000000004,-3.1,-0.6000000000000001,1.0,6.0,2.4000000000000004,8.4,1.7,-6.9
1698675182656.0,16,2.2,-4.3,-1.0,0.9,4.800000000000001,2.1,-16.700000000000003,16.400000000000002,2.1999999999999997
1698675182673.0,16,2.0,-4.6000000000000005,-1.3,0.6000000000000001,4.5,1.8,-24.400000000000002,25.400000000000002,9.3
1698675182690.0,16,1.8,-4.4,-1.5,0.4,4.6000000000000005,1.7000000000000002,-23.3,25.1,12.6
1698675182706.0,16,1.5,-4.1000000000000005,-1.6,0.2,4.9,1.6,-16.0,25.3,19.500000000000004
1698675182722.0,16,1.3,-3.8000000000000003,-1.6,0.1,5.1000000000000005,1.6,-10.5,25.3,22.1
1698675182740.0,16,0.9,-3.3000000000000003,-1.7000000000000002,-0.30000000000000004,5.6000000000000005,1.5,2.5,22.7,25.900000000000002
1698675182756.0,16,0.4,-2.8000000000000003,-1.8,-0.7000000000000001,6.1000000000000005,1.3,9.4,26.500000000000004,24.9
1698675182772.0,16,0.1,-2.5,-1.9000000000000001,-1.2000000000000002,6.6000000000000005,1.1,6.5,29.300000000000004,21.6
1698675182789.0,16,-0.30000000000000004,-2.2,-1.9000000000000001,-1.3,6.7,1.2000000000000002,3.3000000000000003,27.2,18.900000000000002
1698675182806.0,16,-0.5,-2.0,-2.0,-1.5,6.9,1.0,1.2000000000000002,19.0,10.700000000000001
1698675182822.0,16,-0.6000000000000001,-1.6,-2.4000000000000004,-1.7000000000000002,7.300000000000001,0.5,-1.7,18.8,6.000000000000001
1698675182839.0,16,-0.4,-0.8,-2.5,-1.4000000000000001,8.0,0.5,-4.3999999999999995,24.7,5.4
1698675182856.0,16,0.2,1.7000000000000002,-1.9000000000000001,-0.9,10.5,1.1,-8.200000000000001,40.6,7.300000000000001
1698675182873.0,16,0.0,3.4000000000000004,-1.4000000000000001,-1.1,12.3,1.6,-6.4,48.1,6.6000000000000005
1698675182889.0,16,-1.1,6.800000000000001,-1.6,-2.2,15.8,1.3,7.300000000000001,26.200000000000003,7.400000000000001
1698675182906.0,16,-2.0,6.0,-1.8,-3.1,15.0,1.0,15.7,-11.700000000000001,7.400000000000001
1698675182923.0,16,-2.5,4.4,-2.3000000000000003,-3.6,13.4,0.6000000000000001,13.100000000000001,-9.8,5.500000000000001
1698675182939.0,16,-1.5,2.9000000000000004,-2.1,-2.7,11.9,0.7000000000000001,-5.1,7.0,-2.8
1698675182956.0,16,0.6000000000000001,2.1,1.5,-0.6000000000000001,11.200000000000001,4.3,-10.1,20.3,-20.0
1698675182973.0,16,0.8,1.2000000000000002,4.6000000000000005,-0.4,10.3,7.4,7.0,15.399999999999999,-21.0
1698675182989.0,16,0.5,-0.6000000000000001,9.5,-0.7000000000000001,8.5,12.200000000000001,85.80000000000001,-37.4,7.699999999999999
1698675183006.0,16,-1.7000000000000002,2.3000000000000003,6.6000000000000005,-2.7,11.600000000000001,9.1,101.4,-120.60000000000001,44.1
1698675183023.0,16,-2.4000000000000004,2.6,3.5,-3.0,10.700000000000001,3.8000000000000003,0.6000000000000001,-32.9,50.9
1698675183040.0,16,-0.8,0.8,1.0,-1.6,10.100000000000001,3.5,-49.5,19.200000000000003,43.900000000000006
1698675183056.0,16,1.9000000000000001,2.4000000000000004,2.6,1.1,11.600000000000001,5.4,-82.30000000000001,36.2,1.8
1698675183073.0,16,2.9000000000000004,3.5,2.3000000000000003,2.1,12.700000000000001,5.2,-62.1,-3.5,-21.5
1698675183090.0,16,2.0,1.6,-0.4,1.3,10.8,2.6,-20.3,-55.0,-22.7
1698675183106.0,16,1.5,-0.30000000000000004,-0.9,0.8,8.9,2.1,-11.700000000000001,-17.0,-5.300000000000001
1698675183123.0,16,0.5,-1.0,-0.4,-0.30000000000000004,8.200000000000001,2.6,-3.6,-4.5,-4.6000000000000005
1698675183141.0,16,-0.9,-2.3000000000000003,-0.6000000000000001,-1.7000000000000002,6.9,2.4000000000000004,22.5,-5.0,-4.9
1698675183156.0,16,-1.2000000000000002,-3.7,-1.1,-2.0,5.5,1.8,34.400000000000006,-16.400000000000002,-2.8
1698675183173.0,16,-1.2000000000000002,-4.3,-1.3,-2.1,4.2,1.3,27.6,-19.9,-6.7
1698675183191.0,16,-1.2000000000000002,-5.5,-1.7000000000000002,-2.0,3.6,1.1,21.0,-19.9,-10.1
1698675183206.0,16,-0.9,-6.0,-1.9000000000000001,-1.8,3.1,0.8,9.8,-16.1,-16.900000000000002
1698675183223.0,16,-0.8,-5.7,-1.8,-1.7000000000000002,3.4000000000000004,0.9,7.0,-10.9,-19.700000000000003
1698675183240.0,16,-0.30000000000000004,-4.3,-1.4000000000000001,-1.2000000000000002,4.800000000000001,1.2000000000000002,8.200000000000001,6.3,-23.0
1698675183256.0,16,0.4,-2.4000000000000004,-1.4000000000000001,-0.6000000000000001,6.6000000000000005,1.2000000000000002,15.9,17.7,-24.9
1698675183273.0,16,0.7000000000000001,-1.6,-1.7000000000000002,-0.30000000000000004,7.5,0.9,18.0,13.6,-22.4
1698675183290.0,16,1.0,-0.4,-2.2,-0.2,8.6,0.2,14.100000000000001,-1.5000000000000002,-11.1
1698675183306.0,16,0.2,0.0,-2.8000000000000003,-1.0,9.0,-0.4,1.5000000000000002,-7.8,2.6
1698675183322.0,16,-1.5,0.7000000000000001,-2.8000000000000003,-2.5,9.8,-0.4,-10.0,-2.7,11.8
1698675183339.0,16,-1.6,1.6,-2.9000000000000004,-2.6,10.600000000000001,-0.4,-13.4,-3.9,13.5
1698675183356.0,16,-0.9,5.300000000000001,-1.7000000000000002,-1.9000000000000001,14.4,0.8,-16.6,-2.1,2.7
1698675183372.0,16,0.0,8.700000000000001,-0.5,-1.1,17.900000000000002,2.0,-4.300000000000001,9.9,-11.6
1698675183390.0,16,0.0,8.200000000000001,-0.4,-1.1,17.3,2.1,5.9,10.700000000000001,-14.0
1698675183406.0,16,-0.2,4.7,-2.0,-1.3,13.9,0.5,13.4,0.9,7.300000000000001
1698675183423.0,16,-1.2000000000000002,2.8000000000000003,-2.5,-2.3000000000000003,12.0,-0.1,5.1,-3.6,15.8
1698675183440.0,16,-3.0,-1.0,-0.2,-4.0,8.3,2.3000000000000003,-7.400000000000001,-8.200000000000001,25.1
1698675183456.0,16,-2.6,-3.2,3.4000000000000004,-3.5,6.0,5.800000000000001,29.200000000000003,-25.8,19.9
1698675183473.0,16,-0.30000000000000004,-2.9000000000000004,5.4,-1.2000000000000002,6.300000000000001,7.6000000000000005,78.5,-57.800000000000004,-18.6
1698675183489.0,16,1.3,-1.4000000000000001,8.0,0.30000000000000004,7.9,10.200000000000001,84.2,-66.2,-55.6
1698675183506.0,16,4.800000000000001,7.6000000000000005,7.2,3.5,17.0,9.200000000000001,67.7,-45.5,-117.89999999999999
1698675183523.0,16,4.5,8.0,2.3000000000000003,3.0,17.400000000000002,4.3,34.2,-21.5,-134.2
1698675183540.0,16,1.1,2.0,2.4000000000000004,-0.8,11.3,4.5,-55.4,63.4,-116.10000000000001
1698675183556.0,16,-1.8,-2.2,1.1,-3.9000000000000004,7.0,3.4000000000000004,-62.6,25.900000000000002,-38.1
1698675183573.0,16,-1.0,-0.4,-1.0,-3.0,8.8,1.4000000000000001,-42.1,-75.9,29.700000000000003
1698675183590.0,16,-0.4,0.8,-0.4,-2.3000000000000003,9.9,2.1,-33.0,-93.60000000000001,37.6
1698675183606.0,16,0.5,2.3000000000000003,1.1,-1.3,11.5,3.7,-2.3000000000000003,-53.8,23.700000000000003
1698675183623.0,16,0.7000000000000001,-0.8,-0.5,-1.1,8.4,2.0,28.3,-19.8,-18.400000000000002
1698675183640.0,16,0.8,-2.2,-0.9,-1.0,7.0,1.6,32.300000000000004,-26.6,-24.200000000000003
1698675183656.0,16,1.9000000000000001,-3.6,-1.3,0.0,5.6000000000000005,1.1,22.2,-31.4,-21.1
1698675183673.0,16,2.3000000000000003,-4.1000000000000005,-1.4000000000000001,0.4,5.1000000000000005,1.0,-1.0999999999999999,-21.0,-17.0
1698675183690.0,16,2.4000000000000004,-4.1000000000000005,-1.2000000000000002,0.5,5.0,1.3,-11.6,-16.1,-13.6
1698675183706.0,16,2.2,-3.7,-0.8,0.30000000000000004,5.4,1.7000000000000002,-20.6,-13.3,-4.7
1698675183723.0,16,2.2,-2.9000000000000004,-0.6000000000000001,0.4,6.1000000000000005,1.9000000000000001,-18.7,-10.4,3.7000000000000006
1698675183740.0,16,2.1,-2.7,-0.8,0.30000000000000004,6.300000000000001,1.8,-15.399999999999999,-3.2,5.7
1698675183756.0,16,2.2,-2.7,-1.4000000000000001,0.4,6.300000000000001,1.2000000000000002,-9.5,15.399999999999999,8.4
1698675183775.0,16,2.3000000000000003,-2.8000000000000003,-1.7000000000000002,0.6000000000000001,6.1000000000000005,0.5,-6.6000000000000005,19.9,10.2
1698675183789.0,16,2.3000000000000003,-2.5,-2.1,0.4,6.9,0.5,-6.000000000000001,25.2,14.0
1698675183806.0,16,1.5,-1.1,-2.1,-0.2,7.800000000000001,0.5,-4.6000000000000005,30.7,17.7
1698675183823.0,16,0.2,1.7000000000000002,-1.5,-1.4000000000000001,10.600000000000001,1.1,0.30000000000000004,41.4,30.100000000000005
1698675183840.0,16,-0.1,5.4,-0.9,-1.6,14.4,1.6,13.6,30.100000000000005,37.6
1698675183857.0,16,-0.1,6.800000000000001,-0.5,-1.6,15.8,1.9000000000000001,22.900000000000002,20.7,34.50000000000001
1698675183874.0,16,-0.6000000000000001,5.2,-1.1,-2.1,14.3,1.2000000000000002,35.6,19.500000000000004,17.9
1698675183891.0,16,0.1,2.1,-1.6,-1.3,11.3,0.6000000000000001,17.0,31.8,6.5
1698675183906.0,16,0.6000000000000001,0.9,-0.5,-0.9,10.100000000000001,1.7000000000000002,4.9,33.0,4.3999999999999995
1698675183923.0,16,0.5,-0.2,2.7,-1.0,9.0,4.800000000000001,4.6000000000000005,25.400000000000002,11.3
1698675183940.0,16,0.1,-0.9,4.800000000000001,-1.3,8.3,6.9,20.1,14.100000000000001,22.1
1698675183957.0,16,-1.9000000000000001,-1.3,6.6000000000000005,-3.2,8.0,8.700000000000001,68.4,-9.5,46.900000000000006
1698675183973.0,16,-2.6,0.7000000000000001,4.5,-3.7,10.0,6.4,58.5,-31.3,66.4
1698675183989.0,16,-2.1,1.3,3.3000000000000003,-3.1,10.600000000000001,5.2,28.8,-21.6,70.39999999999999
1698675184006.0,16,-0.5,1.7000000000000002,2.4000000000000004,-1.3,11.100000000000001,4.3,-34.2,41.7,59.20000000000001
1698675184023.0,16,1.2000000000000002,2.5,2.4000000000000004,0.5,11.8,4.5,-47.5,42.5,29.200000000000003
1698675184039.0,16,0.5,1.9000000000000001,1.7000000000000002,-0.1,11.3,3.9000000000000004,-19.0,-9.8,17.400000000000002
1698675184056.0,16,0.0,1.8,1.5,-0.6000000000000001,11.200000000000001,3.8000000000000003,-7.400000000000001,-5.8,23.1
1698675184073.0,16,-0.5,1.9000000000000001,0.5,-1.1,11.3,2.8000000000000003,6.4,28.200000000000003,19.8
1698675184090.0,16,-0.8,0.5,1.0,-1.3,9.9,3.2,17.9,19.400000000000002,13.200000000000001
1698675184108.0,16,-1.0,-0.4,1.0,-1.5,9.1,3.1,21.400000000000002,21.900000000000002,13.4
1698675184123.0,16,-1.0,-2.0,0.2,-1.5,7.4,2.3000000000000003,12.8,27.400000000000002,15.5
1698675184140.0,16,-0.5,-3.2,-0.9,-0.9,6.2,1.2000000000000002,-9.200000000000001,26.0,13.5
1698675184157.0,16,-0.30000000000000004,-3.5,-0.9,-0.8,5.9,1.2000000000000002,-18.6,26.3,12.100000000000001
1698675184173.0,16,0.0,-3.0,-0.6000000000000001,-0.5,6.300000000000001,1.6,-25.6,31.8,11.1
1698675184190.0,16,-0.30000000000000004,-2.1,-0.5,-0.5,6.9,1.7000000000000002,-23.6,33.7,11.5
1698675184207.0,16,-0.5,-1.9000000000000001,-0.4,-1.1,7.300000000000001,1.8,-10.9,37.4,17.7
1698675184222.0,16,-0.8,-2.4000000000000004,-0.9,-1.2000000000000002,6.9,1.3,-7.9,36.1,18.900000000000002
1698675184239.0,16,-0.7000000000000001,-3.1,-2.0,-1.1,6.2,0.30000000000000004,-9.700000000000001,26.0,19.8
1698675184259.0,16,-1.0,-3.4000000000000004,-2.4000000000000004,-1.3,5.800000000000001,0.0,-17.9,15.9,22.4
1698675184273.0,16,-1.3,-3.2,-2.1,-1.6,5.9,0.2,-20.6,15.000000000000002,24.1
1698675184290.0,16,-1.5,-2.2,-1.6,-1.8,7.0,0.8,-16.5,19.500000000000004,27.5
1698675184306.0,16,-0.6000000000000001,0.2,-1.2000000000000002,-0.8,9.3,1.2000000000000002,-1.9,18.7,24.3
1698675184322.0,16,0.30000000000000004,1.5,-0.8,0.1,10.600000000000001,1.5,7.6,16.3,19.500000000000004
1698675184339.0,16,1.7000000000000002,3.5,-0.1,1.6,12.8,2.2,26.700000000000003,17.3,10.2
1698675184356.0,16,1.8,4.1000000000000005,0.1,0.6000000000000001,13.3,2.7,36.4,28.200000000000003,12.4
1698675184373.0,16,-0.2,3.5,0.8,-0.30000000000000004,12.8,3.0,35.8,34.7,20.7
1698675184391.0,16,-1.8,2.3000000000000003,0.7000000000000001,-1.9000000000000001,11.600000000000001,2.8000000000000003,18.2,52.2,20.7
1698675184406.0,16,-2.1,1.7000000000000002,2.8000000000000003,-2.2,11.100000000000001,4.9,-11.5,67.2,4.9
1698675184423.0,16,-1.8,1.9000000000000001,4.7,-2.0,11.200000000000001,6.800000000000001,-13.6,72.9,-2.0
1698675184440.0,16,0.2,3.4000000000000004,5.9,-0.1,12.8,8.0,9.8,76.0,-27.0
1698675184457.0,16,2.3000000000000003,0.1,2.3000000000000003,1.9000000000000001,9.5,4.4,8.3,75.80000000000001,-31.900000000000002
1698675184473.0,16,2.2,-1.7000000000000002,1.9000000000000001,1.8,7.7,4.1000000000000005,-7.8,90.10000000000001,-20.0
1698675184490.0,16,1.0,-2.4000000000000004,3.0,0.5,6.9,5.2,-36.9,101.30000000000001,9.8
1698675184506.0,16,-0.9,1.0,2.5,-1.4000000000000001,10.3,4.9,-40.5,91.0,35.6
1698675184523.0,16,-1.2000000000000002,2.0,2.0,-1.7000000000000002,11.3,4.5,-41.1,85.3,36.0
1698675184539.0,16,-0.6000000000000001,0.8,1.6,-1.1,10.0,4.2,-36.4,86.4,19.0
1698675184556.0,16,0.0,-0.5,1.6,-0.5,8.8,4.3,-29.400000000000002,91.9,10.4
1698675184573.0,16,1.5,-1.1,1.3,0.9,8.200000000000001,4.1000000000000005,-17.8,90.2,17.0
1698675184590.0,16,2.5,-0.6000000000000001,1.0,2.0,8.6,3.8000000000000003,-25.0,99.7,24.5
1698675184606.0,16,2.5,0.1,1.2000000000000002,1.9000000000000001,9.3,4.0,-35.6,112.4,24.8
1698675184623.0,16,1.9000000000000001,0.1,1.0,1.4000000000000001,9.3,3.9000000000000004,-37.300000000000004,117.5,24.400000000000002
1698675184639.0,16,1.3,-0.5,0.2,0.7000000000000001,8.700000000000001,3.3000000000000003,-39.6,124.7,27.8
1698675184656.0,16,0.9,-0.5,-0.1,0.30000000000000004,8.6,3.1,-39.2,121.4,39.1
1698675184674.0,16,0.7000000000000001,-0.4,-0.1,0.1,8.700000000000001,3.0,-37.5,123.70000000000002,45.5
1698675184690.0,16,0.6000000000000001,-0.4,-0.4,0.0,8.6,2.9000000000000004,-31.8,133.60000000000002,50.7
1698675184706.0,16,0.9,-0.6000000000000001,-0.8,0.2,8.5,2.6,-28.700000000000003,136.5,50.5
1698675184723.0,16,1.0,-0.6000000000000001,-0.9,0.4,8.4,2.5,-26.8,149.6,50.0
1698675184740.0,16,1.1,-0.7000000000000001,-0.8,0.6000000000000001,8.3,2.5,-25.5,155.9,50.4
1698675184756.0,16,1.5,-0.9,-0.8,0.9,8.0,2.5,-20.0,162.3,51.6
1698675184773.0,16,1.6,-1.2000000000000002,-0.9,0.9,7.800000000000001,2.5,-15.5,171.10000000000002,53.00000000000001
1698675184790.0,16,1.8,-1.3,-0.8,1.2000000000000002,7.6000000000000005,2.6,-14.3,196.3,52.7
1698675184806.0,16,2.0,-1.3,-0.6000000000000001,1.5,7.7,3.1,-9.8,203.7,60.00000000000001
1698675184822.0,16,2.3000000000000003,-1.0,-0.30000000000000004,1.6,8.1,2.9000000000000004,-7.9,204.8,66.60000000000001
1698675184839.0,16,2.2,-1.0,-0.6000000000000001,1.5,7.9,2.7,-15.000000000000002,221.10000000000002,77.1
1698675184857.0,16,1.8,-1.2000000000000002,-0.8,1.1,7.800000000000001,2.5,-22.2,235.0,79.3
1698675184873.0,16,0.4,-0.1,-1.3,-0.30000000000000004,8.8,2.0,-35.8,244.90000000000003,87.60000000000001
1698675184890.0,16,-1.1,1.4000000000000001,-1.0,-1.8,10.200000000000001,2.5,-41.2,240.4,94.0
1698675184907.0,16,-1.6,2.0,-0.6000000000000001,-2.3000000000000003,10.9,2.8000000000000003,-38.5,228.3,95.0
1698675184923.0,16,-2.8000000000000003,2.4000000000000004,0.2,-3.5,11.3,3.6,-23.6,201.6,96.7
1698675184939.0,16,-3.7,2.1,0.7000000000000001,-4.3,11.0,4.2,-7.2,203.6,100.30000000000001
1698675184956.0,16,-3.1,2.1,0.30000000000000004,-3.7,11.100000000000001,3.7,-1.8,200.5,94.0
1698675184972.0,16,-2.5,1.8,-0.30000000000000004,-3.1,10.8,3.2,-8.200000000000001,196.20000000000002,84.7
1698675184990.0,16,-1.6,0.9,-1.2000000000000002,-2.2,9.8,2.3000000000000003,-36.0,187.3,63.50000000000001
1698675185006.0,16,-0.7000000000000001,0.4,-1.8,-1.4000000000000001,9.3,1.8,-47.5,180.50000000000003,56.1
1698675185023.0,16,-0.8,0.4,-2.3000000000000003,-1.5,9.200000000000001,1.3,-55.800000000000004,164.5,52.6
1698675185039.0,16,-1.5,0.7000000000000001,-2.4000000000000004,-2.2,9.5,1.3,-55.4,162.50000000000003,51.900000000000006
1698675185056.0,16,-1.7000000000000002,0.30000000000000004,-2.7,-2.6,9.1,1.1,-44.4,170.9,53.00000000000001
1698675185073.0,16,-1.4000000000000001,-0.2,-3.1,-2.3000000000000003,8.6,0.7000000000000001,-38.7,169.3,54.2
1698675185089.0,16,-0.9,-0.9,-3.2,-1.8,7.9,0.7000000000000001,-29.1,154.7,59.20000000000001
