msFromStart,interval,accx,accy,accz,accGx,accGy,accGz,rotRate_alpha,rotRate_beta,rotRate_gamma
1,0.01666666753590107,-0.17983984979987144,0.06796294463574885,-0.49286418120861053,-1.4802151763916014,-6.895301365771889,-7.274631522259115,-22.616501455245157,26.774331301166228,1.1810102505427262
175,0.01666666753590107,0.0730675742983818,0.27844255511015653,0.44508302385807036,0.625934242657572,-2.7503397416263815,-8.865728163036703,4.745666661743634,-18.44783380665857,-11.604481154567909
192,0.01666666753590107,-0.15408113916516303,0.31884996882230043,0.17605799317359924,0.3556887668000534,-2.7178686738714575,-9.134627521514892,0.9317636276808555,-13.184828126610658,-3.7127567903564698
208,0.01666666753590107,-0.24131109432876108,0.2727899361759424,0.08779109617769718,0.2425627383576706,-2.763058937945962,-9.224559136852621,-0.7270539469931406,-9.818459257369506,-2.094356486570054
225,0.01666666753590107,-0.31242483114562924,0.14635551334917543,0.24740415050685405,0.14290409425366668,-2.8908497438177463,-9.06594327686727,2.9439611561070014,-11.476392909515367,-5.973075134370197
241,0.01666666753590107,-0.02836534946914762,0.1300578740209341,0.5396481442153453,0.39668950676284725,-2.917934442359209,-8.771606110271811,6.380562085819043,-17.977141565290893,-6.7382714723704815
257,0.01666666753590107,0.0053429684631526465,0.13896072692275047,0.55123979780972,0.38501773713696746,-2.924368567059934,-8.756942209625244,5.898132591249525,-22.675982157632212,-5.232059800465875
275,0.01666666753590107,0.004773790273070335,0.06314765330851077,0.2844505633533001,0.31618447594009336,-3.011906272998452,-9.022399318695069,1.738934146173512,-21.312765191756878,-3.71139246006976
291,0.01666666753590107,-0.09726425978075712,0.040709027007222176,0.08988017741143703,0.18420409115767106,-3.035998511725664,-9.217376531872153,0.5667690973276581,-17.64607888112579,-2.7224549196723142
309,0.01666666753590107,-0.2711926205145195,0.11626461872905493,0.003389642438292503,-0.03441646620165557,-2.960131954358518,-9.305214389801025,-0.8895962275401653,-11.711587912263818,0.720588479252636
325,0.01666666753590107,-0.11975936550963669,0.16496639805585145,0.11813947269022464,0.08948346971143037,-2.9080580682501194,-9.192237998962401,-1.779375482805746,-10.002800940426273,2.6920370990904856
341,0.01666666753590107,-0.03468351964000612,0.10102350271642208,0.270438989135623,0.14230552557231857,-2.9668653542667625,-9.042300535473228,-1.4677778772798271,-8.338382023663485,1.3677682197400907
358,0.01666666753590107,-0.24017007106747476,0.16376199070215225,0.1869908905982971,0.05162515596020967,-2.937237400983274,-9.111882605743407,-1.4107415288419893,-7.331910107006147,0.7304218172233388
375,0.01666666753590107,-0.10927854096768423,0.17594459592700004,0.15689619658589363,0.033369359168363734,-2.8863606157049535,-9.158270262908935,0.40716870732220484,-11.301121717676377,-1.0578451844995886
392,0.01666666753590107,-0.014297738781874068,-0.10257014763653277,0.11126315717995167,0.03636210667698178,-3.1214415834724902,-9.21902254551351,2.5652649461136408,-15.828739712809233,-3.835021018481106
408,0.01666666753590107,-0.05143488038538489,-0.03461713987290859,0.12324117974340915,-0.024989313147810752,-3.0449761834293603,-9.209894651684165,1.584684995939352,-15.697507873191192,-4.7387468263407655
425,0.01666666753590107,-0.24949065619101746,0.05427081163078546,-0.05959376021921634,-0.20904356805561108,-2.9738983216434716,-9.386915936931967,1.7687029920624837,-13.00260465597024,-4.852263289685908
442,0.01666666753590107,-0.16946981042232365,0.05519377169460058,-0.16075053392648697,-0.14529794200408505,-2.957438477490842,-9.49315922012329,5.518380476699163,-9.641435268234762,-4.155124237236101
459,0.01666666753590107,-0.0889224839609582,0.07203793898969889,-0.0642144057571888,-0.0800559484772937,-2.947562103381753,-9.394397817119955,9.705394013396408,-7.633822397567282,-2.1454153522670727
475,0.01666666753590107,-0.080828244028287,0.0775575791940093,-0.026090134546160697,-0.08499398426396655,-2.997989975848794,-9.337984440502524,12.706725129993519,-6.194516697451181,0.7254256405671802
492,0.01666666753590107,-0.09175171603751368,-0.07821019788384437,-0.018867197555303573,-0.12120628551547415,-3.1756103960335254,-9.323469592937826,13.543028859895513,-2.4293189953078227,0.7618483713682137
509,0.01666666753590107,-0.09451027576434426,-0.16409487591832875,-0.03627016777694225,-0.1421555546084186,-3.282451352857053,-9.33379517211914,15.060877893485351,0.6967663802532182,0.44239938335008594
525,0.01666666753590107,-0.20841133456667885,-0.17288666966110466,-0.08043664176166057,-0.2750337421805132,-3.3171672769293186,-9.369109646606445,20.118885690879083,-1.8771349131790807,-2.0485325339850267
542,0.01666666753590107,-0.21569537236131728,0.07322218033820391,0.109404962092638,-0.2925413509535603,-3.1091710077032446,-9.166200471386313,21.85882174042647,-8.82686007762987,-5.443492575091851
559,0.01666666753590107,-0.16808317836951464,0.13796411710083484,0.22806991996169088,-0.26575620161425323,-3.096152536176145,-9.029431701549887,19.986849596486277,-12.531384782489184,-8.665771773602414
575,0.01666666753590107,-0.153306538063474,0.09139028971344232,0.28154373599588867,-0.2708438984083943,-3.193716253827512,-8.95775528934896,10.511226561863682,-5.1015886731666455,-7.457273960353499
592,0.01666666753590107,-0.13361029667234978,0.022008418190479277,0.10447159734368323,-0.2536355648428667,-3.2782617922127244,-9.12938962086141,2.3675495392185777,-1.3005326913241313,-5.192580026402732
609,0.01666666753590107,-0.0733471858242061,0.019841887806355953,0.09180968416929244,-0.18839357873676343,-3.2796082383856175,-9.14240809238851,-2.7332671091284446,2.158399328435855,-1.7703725464277287
625,0.01666666753590107,-0.23864070607572793,0.19198475336283444,0.09124328245818615,-0.36406813468388277,-3.0906159448370336,-9.14884250935018,-7.028940417784129,-4.895018139456072,7.251958473902916
642,0.01666666753590107,0.4310296197926625,-0.1583177538216114,0.3579717266380787,0.2868554325379431,-3.424307801221311,-8.88772489078939,0.8785034667195357,5.244794261286541,8.224363114527522
658,0.01666666753590107,0.08277213550452142,-0.5962111584365367,0.6971417221724987,-0.06778566097323782,-3.8777097406134007,-8.542960436248778,9.872884765997107,-3.409474619979924,3.4317700649781386
676,0.01666666753590107,0.13044815198015422,-0.12940087141692638,0.1497550926595926,-0.06868349572895094,-3.452290033124387,-9.074622257885336,12.125637394844576,-19.659164440865744,-5.909191094402599
692,0.01666666753590107,-0.24291109513761475,0.4760293662637472,0.22670739943683146,-0.4786905117643997,-2.8679551904425025,-8.98917918613851,5.716137505059481,-13.998277189776141,-2.980495624533988
709,0.01666666753590107,-0.2593973523731343,0.24729163004308938,0.3009481091678142,-0.5232825359511188,-3.098247170367837,-8.913612196239828,-0.9574950847184093,-7.670167541688212,3.6524329864937406
725,0.01666666753590107,-0.013548450217954814,-0.03428483917862177,0.2011117704093456,-0.2902968051634729,-3.3619092127144334,-9.019555619701743,-5.811641052016007,-3.42650142780712,7.343327621977469
742,0.01666666753590107,0.055670705023966725,0.022606091822683808,0.3819873929977417,-0.2240073101652786,-3.3152219880804417,-8.834902816662192,-5.11868634420648,4.897855656169389,11.55215763665738
758,0.01666666753590107,-0.027509207563847303,-0.030052900697290896,0.4065653694152832,-0.2959830158400349,-3.3587665307745334,-8.813953552135825,-3.8263142348366324,11.232153882532174,18.298141673261274
775,0.01666666753590107,-0.2266986498747952,-0.15679565882086752,0.12281272519826889,-0.4831796581435017,-3.462016185107827,-9.106495067486167,-4.03271870957301,12.18584978124647,22.933473459152523
791,0.01666666753590107,-0.16738456511348485,-0.37812253426313397,-0.13926760091483592,-0.417937699436862,-3.6722573106512426,-9.37270036457479,-3.8485447930377314,8.624539629130338,24.441850727910847
808,0.01666666753590107,-0.15072296957736833,-0.4678521972879767,-0.250729495537281,-0.41344857132406904,-3.7521637910589574,-9.48732276905477,-2.642240324286038,-2.071991032132847,22.944029516514778
825,0.01666666753590107,-0.20696416796566916,-0.16703443650156258,-0.4046551518797874,-0.5101144633528776,-3.453187858746946,-9.639355158996581,6.5673528185800825,-7.061683064004701,16.853099041129187
842,0.01666666753590107,-0.1707049417078495,0.03774316293895244,-0.2704150237381458,-0.5012858629973604,-3.2758672982916233,-9.494356320953369,17.394490570595664,-5.324954215159456,12.264790546352538
859,0.01666666753590107,-0.15547379909995943,0.10627338606864213,-0.2587380299478769,-0.507869844497554,-3.2583596986517307,-9.463380752453208,24.58424480417998,-5.296386095182232,9.932980185409463
875,0.01666666753590107,-0.2915403024185449,0.3405518052816391,-0.24828034881949423,-0.6735187449248508,-3.1045325342476366,-9.421931136211752,26.010265359473582,-3.3986009588212642,15.25673527548276
892,0.01666666753590107,-0.31236119132488965,0.29313626637309786,0.11574877816140651,-0.7164647737365215,-3.212271608954668,-9.03407105178833,25.73716366060521,-3.709254610859546,16.284292839881573
908,0.01666666753590107,-0.20804577092360704,0.3100757107362151,0.2889250784188509,-0.6399999216826632,-3.2561151345953343,-8.83609991749227,26.6586535098356,-8.165677275405127,12.760599954619288
925,0.01666666753590107,-0.1300396077118814,0.2873258265286684,0.8458785777002572,-0.6033387087615206,-3.363555226355791,-8.243535006603597,26.781607160179586,-10.415974451245976,4.2472912367830755
942,0.01666666753590107,-0.2142624900139868,0.18839315861165523,1.2880582813322543,-0.7152676729064434,-3.5208243479073045,-7.7762167700618505,21.643250724937115,-12.502746653072967,-2.0442081704667623
959,0.01666666753590107,-0.20179175203014163,0.14445377138108015,1.3338193310320376,-0.7357679880889132,-3.6056685769781467,-7.7117229628413915,11.964799246495469,-19.54357885708891,-6.516526392758255
975,0.01666666753590107,0.005094108268618583,0.0023579613029956815,1.3056529747337102,-0.5945100901396945,-3.7645837121710177,-7.728781649670005,-2.0315381695563888,-27.57937154768978,-7.747788372737175
992,0.01666666753590107,0.18431801812723278,0.053016719916462896,1.1177098979771136,-0.47569779622182246,-3.701287005780637,-7.917773943218588,-9.0355360171521,-28.83930580803077,-5.865555150229503
1010,0.01666666753590107,0.2263026910934597,0.2298568033784628,0.9148638511210679,-0.4932054689269513,-3.497779864667356,-8.1271169508785,-13.59328026916659,-24.01145660264625,-1.9198571061072756
1025,0.01666666753590107,0.22792174366265533,0.3177145350515842,0.5593932936489582,-0.5520130472045391,-3.362058558057248,-8.497170744976401,-16.648261667920504,-13.83074374849313,5.477199131759041
1042,0.01666666753590107,0.30488099163733423,0.22606004144400357,0.2607639828175306,-0.5143043710570782,-3.4090447656378147,-8.810362249645591,-19.715503256234594,-13.980311230938069,9.941320700159695
1059,0.01666666753590107,0.3946582931961864,0.07298223410248755,0.1590191800892353,-0.47270511721186337,-3.510947973798215,-8.927977406200766,-20.81250506147222,-17.52862694815825,12.535569127129461
1075,0.01666666753590107,0.38684783864095806,-0.16084288838505745,0.05872691425681114,-0.559045941516012,-3.679589553235471,-9.045892422485352,-17.05687261237464,-20.959982506031135,13.176383451475582
1093,0.01666666753590107,0.2947477201577276,-0.1018216673567891,-0.17895722174644468,-0.710329558917135,-3.5820261278450487,-9.292045696148275,-12.554369222819922,-18.77068318834673,12.104575652765195
1109,0.01666666753590107,0.2732091114360839,-0.04471329421252012,-0.36700960409641264,-0.780659305749461,-3.4973312441170212,-9.485078204998374,-7.96240572306367,-12.373761091918213,12.714114540901827
1125,0.01666666753590107,0.14598302677497266,0.017244857050478457,-0.5396317776024341,-0.9436146562438458,-3.4121874475777147,-9.662249712371825,-3.2477536696805935,1.8295982906596728,16.95553821830104
1142,0.01666666753590107,-0.1501829626828432,0.09663228202015162,-0.658014995920658,-1.2369043596129863,-3.3242002443060277,-9.784203774914145,0.296904534599899,14.426766546035953,20.023049599087344
1158,0.01666666753590107,-0.2513768535301089,0.05962094048708677,-0.6071791271746159,-1.3117231614928693,-3.3592157358467576,-9.737218151855469,2.6385501011435273,22.28608422395662,21.00423871675823
1175,0.01666666753590107,-0.17267156560570002,-0.14172025476396083,-0.4403647631645202,-1.1839327209472656,-3.5639196855291724,-9.574711129650472,3.7925056522187157,22.178541187927475,19.77439826990032
1192,0.01666666753590107,-0.03284815743900835,-0.1219122692272067,-0.18032851009964943,-1.0122983163695782,-3.54626244828552,-9.317335035705566,1.589106262766466,18.575285136571004,17.56368972426251
1209,0.01666666753590107,-0.08638663620725273,-0.20770430054217576,-0.016259060883522032,-1.0395323602538555,-3.6269168244510888,-9.157970403179526,-2.8723056415243975,15.592872790201183,12.965406591976704
1225,0.01666666753590107,-0.18309271411597727,-0.4751856089159846,0.24654957950413225,-1.1065700067382305,-3.872322786878049,-8.90643017578125,-8.615650991699212,6.036557473837235,2.658998406858076
1242,0.01666666753590107,-0.08147226841971278,-0.4577276936367154,0.3226011380493641,-1.0063128852844239,-3.8370083123907444,-8.836848690032959,-4.603325519440569,-5.103845623800511,1.186168003861438
1259,0.01666666753590107,0.06068316289111971,-0.00350654681622982,0.41711072882711886,-0.8925882333617657,-3.386000574658811,-8.738236924633384,6.6534900417504055,-6.939356937290711,7.355346193595753
1275,0.01666666753590107,-0.18571129911653697,0.25628099218457934,0.40363340761661526,-1.1517606361389159,-3.139996354077756,-8.745269892010093,5.783486585370392,6.818436975772098,16.613157910681224
1292,0.01666666753590107,-0.9144605310171842,0.4076557950004935,0.29033786782622334,-1.8529623742919414,-2.986318827277422,-8.86228649815023,-5.033865639998676,34.41696122766824,24.486982910399
1309,0.01666666753590107,-0.23706381214782593,-0.053311318948864934,0.11392273177802562,-1.0304044664245098,-3.3830078225836155,-9.075969580841065,-31.801514454835694,58.99757578630436,1.673221536499054
1325,0.01666666753590107,0.34174875998124477,-0.010524608884751796,0.24494155978560447,-0.3329436683654785,-3.2528231073126195,-8.985587883648275,-40.22776173952951,28.603802592996022,-25.75056961439865
1342,0.01666666753590107,0.043109366147220135,0.34435032078176736,1.1206219860315323,-0.5626373170714825,-2.817527317975461,-8.142530208587646,-27.70611253792854,0.7784659548145902,-38.75060697301461
1359,0.01666666753590107,0.6948455740593373,-1.50357705501765,0.5350234070241451,0.06135149060674011,-4.625748121808469,-8.739733885192871,-2.5623318067519434,-45.45698530394254,-43.85200696220544
1375,0.01666666753590107,0.33840434492416677,-0.9580781389474868,0.021008885759115217,-0.3977366046629846,-4.113538311877846,-9.234884131512045,24.99058812582967,-59.757284067306536,-32.64117010007287
1392,0.01666666753590107,-0.849627701100707,0.4302461047321558,0.33655718268752094,-1.6802805064879356,-2.8187247110664844,-8.878896856689453,47.15585484110523,-27.18733917989856,-5.7068300916548695
1409,0.01666666753590107,-0.8208909245032817,0.8549383747294544,0.15193360574245451,-1.6677110208373516,-2.5121169687017795,-9.019555619701743,49.439651533504055,16.53118710290461,21.429609237888286
1425,0.01666666753590107,0.2489632895823568,1.1087351488828658,-1.6384166103571653,-0.5283703788757323,-2.3847753679022192,-10.768669570049642,31.017494115482855,56.25732438186275,29.408929924431494
1442,0.01666666753590107,1.0421819979798048,-0.09924801747649907,-2.381081481820345,0.4216787673950195,-3.6275156671270725,-11.509974259075522,2.6777124848536764,88.69857142983477,18.16734184310824
1458,0.01666666753590107,-0.8205491253282874,-0.6792515529558062,-1.8213216929465532,-1.1409866190703586,-4.170251255963742,-10.979958451080321,-23.6182460272232,112.42030336072013,17.526246627232503
1475,0.01666666753590107,-1.054658617715165,-0.8182710243284702,-1.3955775758087634,-1.1221322718634734,-4.238785278485715,-10.586111693462728,-31.942462238548078,107.16122845453955,13.226657058861461
1492,0.01666666753590107,-0.45431894463915373,-1.1008394271969795,-0.8444383157640695,-0.314238867430808,-4.4593508141666645,-10.056993126568198,-14.109241296805815,66.03788889594338,0.7952154462893126
1508,0.01666666753590107,-0.36133966870121653,-1.50710172201246,-1.2962953638017176,-0.09487009465321898,-4.881179511426389,-10.500369346508384,27.735236464549473,40.1659929237705,-4.034229888926875
1525,0.01666666753590107,-0.13121614067796616,-1.2386691042631863,-0.6458990261912345,0.24031813776865601,-4.756232112286985,-9.792433843120932,55.193037475202196,28.444795789118125,-9.72456037798111
1542,0.01666666753590107,0.09295881767179816,-0.11842179676294326,0.47755613743960856,0.6177041744507848,-3.799898186658323,-8.596679751476644,44.235925065262684,63.0587926064156,-7.483142448061276
1558,0.01666666753590107,-2.2678866259254513,-0.16399492267519233,0.7965455147325992,-1.5931914941649883,-3.9233492097601292,-8.23575385120809,20.638205464042663,59.6707182497658,15.799161578608492
1575,0.01666666753590107,-2.3147812096998095,-0.00772241094559431,0.2900456068813801,-1.5729902715269475,-3.808726805280149,-8.719532224163412,15.362082405693744,13.196594835003296,27.56522964101327
1592,0.01666666753590107,-0.19683672343865036,-0.589979570570588,0.7486532982230186,0.4332008628845215,-4.483742035840452,-8.2297683470577,41.01114004110037,-54.413275758796864,39.747179384243665
1609,0.01666666753590107,-0.43131461074650285,1.10552875405699,1.205830664500594,-0.00882854555658996,-2.9129961091741916,-7.729680059814453,57.47645850719667,-72.61704129320148,59.19617036661165
1625,0.01666666753590107,0.33589375034272667,2.386339840739965,1.2989216206520795,0.5276222821884788,-1.7688669908270238,-7.5818375227779145,53.286769243892074,-78.8213050974851,38.22272214263184
1642,0.01666666753590107,2.4040593295648693,2.180557740432024,1.199275251507759,2.3418285125400637,-2.1092925393804904,-7.6190978706359855,31.62737195175705,-58.51085650604925,17.92178288206794
1659,0.01666666753590107,1.3103605679027734,0.17126754402667282,1.6840175010591745,1.1118074142013676,-4.153491844342649,-7.115268058776855,-2.776660581586005,-39.650986415067784,18.98321989229731
1675,0.01666666753590107,1.2190154325053095,-0.07743395281434058,1.5253127937465905,0.9611223472152836,-4.35385688803792,-7.296029699596763,-36.320442741797,5.677000521115308,16.48209511824514
1692,0.01666666753590107,0.1868301836112514,-0.27918606695383785,1.1999030280172824,-0.04399341897275299,-4.399196789716184,-7.696310874176025,-61.45664879318405,15.758887368167512,10.16829215514745
1708,0.01666666753590107,-0.8452126611374318,0.3823533037006855,-0.13841244539022446,-1.0697591744796373,-3.5872634439766404,-9.102904349517821,-65.24824389580904,-6.088584305405692,3.708986952821446
1725,0.01666666753590107,-1.0814712943822145,1.0407400555431843,-0.16512801835834978,-1.3413514070373027,-2.7828116861641403,-9.191938139232992,-57.59998247833635,-17.12699816458316,1.944180476958749
1742,0.01666666753590107,-0.9497206449687481,1.7030074482113122,0.7104115381121635,-1.232714506707713,-1.9657900773748753,-8.379705226024985,-38.84385954575279,6.385377796070725,12.815121085895267
1759,0.01666666753590107,-0.9070258509717881,0.4719964574858546,0.7112146711885928,-1.1982979309082031,-3.118299193793535,-8.409932606506347,-28.609903659472135,-8.361179487565694,8.243917092347623
1775,0.01666666753590107,-0.19286131700165568,-0.8281976673200726,0.4540075040698051,-0.5337572960784659,-4.345177614758908,-8.693944778442383,-34.62544592189371,-26.163910464853018,2.1215720156482045
1792,0.01666666753590107,0.774127127501741,-0.8448825524002314,0.5513099404364824,0.34611177749633787,-4.231602673505247,-8.642019945415853,-43.83158811168168,-24.498843533892725,11.223413801715497
1808,0.01666666753590107,0.39027814188320187,-0.9041162471354007,1.4288596676856278,-0.11866261978149413,-4.186262479566038,-7.798213497814536,-40.67814782849474,-30.815050723578263,25.52726170212696
1825,0.01666666753590107,0.3597845482137054,-0.8591311502441763,1.3409814777463673,-0.26470884798578914,-4.041562916730344,-7.913883365520834,-38.86144045267641,-42.75804288360117,36.94158014491796
1842,0.01666666753590107,0.18156345872208474,-0.5047010417357087,0.9782160870909691,-0.6346130775451659,-3.5438685388863083,-8.309825049591064,-45.30877361404785,-46.105784973202056,35.18431932054084
1859,0.01666666753590107,0.4228912119247019,-0.6228937059178948,-0.03607902911901474,-0.5077203895568847,-3.5369849168524143,-9.35339711368978,-52.870441893223116,-29.560730878735026,15.632995028933129
1875,0.01666666753590107,0.23079788362085818,-0.4013227925866842,-0.20842063211798667,-0.7510311332702636,-3.17575974137634,-9.563039396557212,-60.4074839253459,-8.865463453045137,1.7921255249954557
1892,0.01666666753590107,-0.3679658819079399,0.6507391596987843,0.04722703059911727,-1.364994221496582,-1.9054861230596898,-9.367762908172606,-72.35276078364618,-0.4998460500662269,13.384224400371778
1909,0.01666666753590107,-0.30448402820900083,0.7565856986574828,0.4596685985714197,-1.3250410543579607,-1.6126453325018286,-9.00159910725057,-72.00963257031225,-10.676969639810503,28.763664878067463
1925,0.01666666753590107,0.2557614983551204,0.1865440236136317,0.7092331419825554,-0.8379706541199237,-2.0162179498419164,-8.784026031383872,-53.75523142849574,-33.544517259320415,29.138720810676617
1942,0.01666666753590107,0.4294663525313139,-0.21180355255454777,0.03795475986301899,-0.8227076916016638,-2.285116723798215,-9.464877128490805,-20.330718885345153,-51.789608853298205,6.740661611693163
1959,0.01666666753590107,-0.07298895610421896,0.1482388428777456,-1.0775357084989547,-1.4637550399780273,-1.9014459077581762,-10.566210476684569,0.05743192578052989,-59.08666877383801,-6.248099531489931
1975,0.01666666753590107,-0.052174423873424525,0.11541267807483672,-1.3341671215564013,-1.5818192554749548,-1.9473846521124243,-10.798597090801596,5.815724224479206,-54.21622821633658,-4.582221515565699
1992,0.01666666753590107,-0.16417232506871224,-0.01325914841517806,-1.466359084996581,-1.8532618686951696,-2.0910367517217994,-10.900350661358237,3.404348989894653,-43.373425852346394,0.18793873815013037
2008,0.01666666753590107,-0.3516471997916698,-0.17928440787419675,-1.333800041809678,-2.1375733158387242,-2.2637185464605687,-10.748469078063964,1.5010897770790372,-35.399135600126904,-0.6211891097874107
2025,0.01666666753590107,-0.6352632120169699,-0.18487448296621442,-1.3868570937365292,-2.5020903724670407,-2.2656636891789734,-10.786626082500815,-7.163839642099642,-33.234679388001126,-9.819716865950435
2042,0.01666666753590107,-0.8012516465969384,0.3468145189382136,-1.191971650496125,-2.7647043670654297,-1.7081139775700867,-10.577732572174071,-12.306830360693967,-32.230880636630204,-18.09532262095233
2058,0.01666666753590107,-0.4704870758362114,-0.4652063589543104,-0.4649696275889873,-2.507627256067097,-2.502689653534442,-9.83882208480835,-9.684105167527123,-37.069212474843404,-19.974321322001177
2075,0.01666666753590107,-0.3219676624514162,-0.542709285351634,-0.24376433269977568,-2.4471735180176792,-2.572570560620725,-9.599701194000243,-6.482634567209829,-44.1824173633048,-25.7321315187342
2092,0.01666666753590107,0.025254852765798568,-0.5163926485732198,0.1460872178018093,-2.2285528327941893,-2.556708682361245,-9.177423291668296,0.08906946873773473,-45.892792354124374,-28.179999600280485
2108,0.01666666753590107,0.1594895740799606,-0.7946161541052162,0.3537976558238268,-2.192789591626078,-2.8567322240300475,-8.940546964916587,4.641956215612515,-46.4491590733461,-23.034766872091105
2125,0.01666666753590107,0.15547259352356194,-0.7811638212054968,0.46650633563697336,-2.302324171447754,-2.868703378461301,-8.794799938854574,3.812348205531249,-52.7537378659697,-22.632598503571586
2142,0.01666666753590107,0.3197019094765186,-0.6247524855270982,0.4107639901489019,-2.3216274223327638,-2.73522663590759,-8.794650885772704,-6.051370019712877,-73.469646977105,-33.24380793582685
2158,0.01666666753590107,0.2700625570386648,-0.41343963909894227,0.34835049633383747,-2.544138539123535,-2.521843266815692,-8.806172396740317,-18.67631558722654,-87.56131761227097,-42.61653160928226
2175,0.01666666753590107,0.30067806005477904,-0.3888734992496669,0.14350012391805647,-2.7085905579164624,-2.4732111917242405,-8.954314208984375,-30.612269237309754,-96.20408872384336,-50.74834309923517
2192,0.01666666753590107,0.7228539633169769,-0.32372385846897955,0.375589800915122,-2.4944588546752926,-2.3985417351871727,-8.652943490490317,2.133462307776139,-61.29443180039625,-27.33665394534421
2208,0.01666666753590107,-0.3126201345220208,-0.8667325651586055,1.100498650935292,-3.65504840169698,-2.9845228837713598,-7.8724343338012694,18.837960551671355,-56.062759613165774,-17.79257107089693
2225,0.01666666753590107,0.3648617784127593,-0.20256664539277552,0.5316337645858525,-3.102137163543701,-2.3982424599796532,-8.375066460308432,30.865320915869557,-60.47935800598194,-25.01040250461188
2242,0.01666666753590107,0.7887959235191345,0.42025311850607394,0.766978059464693,-2.845209690149128,-1.92463973634094,-8.034491858673094,36.00296530389105,-67.49982941608208,-45.961002038270706
2258,0.01666666753590107,1.0278589466601609,-0.18946750984489916,1.2483996401607989,-2.7295398224428293,-2.668937177442014,-7.46392309101522,36.006486266408196,-68.55051741610514,-60.259057084492355
2276,0.01666666753590107,1.1746300550729036,-0.07247194649279118,1.39015671980381,-2.6982652709960937,-2.6942259324774143,-7.229441550445556,34.14622277425269,-73.02195539776736,-66.03908417904813
2292,0.01666666753590107,0.5541185681164265,0.20517828919589517,1.1189438236862421,-3.4886510940551756,-2.624794376593828,-7.355586050415039,39.89167203613528,-86.6090253174311,-79.17934361377716
2309,0.01666666753590107,-0.1291863518834114,0.21772680512368678,1.132248710939288,-4.310311176300049,-2.794033921924233,-7.211483868950605,50.08301778727882,-95.35489130433568,-70.90380445311968
2325,0.01666666753590107,-0.7238722004488111,0.7947159612178802,1.1577589997708797,-5.059247675378621,-2.3915093523323536,-7.041196860393882,54.183521855495975,-73.25873756572419,-29.584216484196116
2342,0.01666666753590107,-2.3646847660318016,-0.7342451259031891,0.01708615935742855,-6.7437181809023015,-3.984850264905393,-8.133252677154541,-7.687446212741051,15.005401389499216,19.981399105528606
2358,0.01666666753590107,-0.3703355336487293,-0.8782081911578774,-0.33286884956359863,-4.719869005529582,-4.064607107709348,-8.524255151256918,-28.3074560528348,37.93295136709405,22.377899041874517
2375,0.01666666753590107,0.21445231349766253,-0.41427462861835956,0.6458043336451054,-4.043208053588867,-3.5003239961922166,-7.631817066955566,-44.96047494751222,52.39616380254119,11.273166607177162
2391,0.01666666753590107,0.14972206717282532,-0.43507834719419475,0.6292383987694978,-3.99337902379781,-3.3851027490362524,-7.755417727661133,-38.47675736843212,30.64879025880181,1.917328015123667
2408,0.01666666753590107,0.034004268671572205,-0.4711936166703701,1.1715344271451233,-4.060416085760295,-3.356671312060952,-7.25936848667562,-19.32900846431296,13.218339595999678,-1.8473202836783287
2424,0.01666666753590107,0.028046529310941693,-0.4037307305112481,1.120417403370142,-4.0294416863039135,-3.2719767205938695,-7.334187288555502,0.4098340819240965,31.372086801338654,0.413478628176533
2442,0.01666666753590107,-1.4295163780286908,-0.1667941980049014,-0.2266016009747982,-5.379621492767334,-3.042881549237668,-8.729258668407798,11.48244189579906,20.797044928285896,8.306480771371293
2458,0.01666666753590107,-0.9829021990805864,-0.7252621935024857,0.6905132439434528,-4.924723469598591,-3.6390377626165744,-7.803151538738608,25.138127042091117,-13.774046348192854,-2.191962878017298
2475,0.01666666753590107,-0.04868716627955436,-1.1983330022215843,0.31980069367587566,-4.058620726776123,-4.172645165362954,-8.12083217152059,3.5684090665413013,-52.4745812044021,-37.78943543225374
2492,0.01666666753590107,1.4164938148483632,-0.8956269434705376,-0.6441501366972923,-2.649034499359131,-3.850774971936643,-9.06489639816284,-54.457378290267634,-16.51539570554354,-42.75878395912612
2508,0.01666666753590107,-0.09236673353016375,-1.8363710857793687,0.3493570430278778,-4.158279370880127,-4.689493741010129,-8.106317323955894,-66.07809138939808,-8.890210935955386,-22.42853806438099
2525,0.01666666753590107,-0.16079992602616547,-2.1897917249843477,-0.10568798739612102,-4.227711219024658,-4.9224794900640845,-8.600570913696288,-57.61207191316727,-2.677717180608731,-15.781112803726733
2542,0.01666666753590107,-0.386281875321269,-0.8592477623611688,0.07873334497511386,-4.432266115625202,-3.487904075080156,-8.45886410293579,-29.367173562940618,1.7610944814922067,-24.89281567540823
2559,0.01666666753590107,0.09994915148317814,-0.8300459255352616,0.3814432031184435,-3.9368160095766185,-3.4558813356146216,-8.161384546661376,-4.380482486919264,-16.49314636432222,-39.586301108533185
2576,0.01666666753590107,0.2892278607577085,-0.9140145408153534,0.6270113703697919,-3.810670925085246,-3.624522915051877,-7.85911600254476,14.671726157976583,-56.710476697441834,-50.67946747164476
2592,0.01666666753590107,0.040429625543951984,-0.7535349327847362,0.6086059451073408,-4.18446624379903,-3.562872222302854,-7.783549597167968,22.13074523166302,-91.53350291655109,-56.11907793796711
2608,0.01666666753590107,-0.049536768846213816,-0.6604954145595431,0.6034773500472307,-4.452915812683105,-3.586365326093137,-7.6560577742427585,21.539863859017924,-108.36541129578032,-60.59523216525121
2625,0.01666666753590107,-0.03531856614053249,-1.0907549632951616,0.2254372333705425,-4.655225852966308,-4.136732432721555,-7.870787735638022,-4.293968749570943,-79.34225728586031,-52.10288913995918
2642,0.01666666753590107,0.026036943054199218,-1.390712600120902,0.25501170290112496,-4.692785183770955,-4.459800019238889,-7.775169306835532,-23.14301341760476,-49.37908824613355,-34.214067043278426
2658,0.01666666753590107,0.4083221499547362,-1.6757371639698744,0.43107378772795196,-4.374954621124267,-4.71463285844177,-7.572410938262939,-34.30195791751815,-33.339290565329044,-16.14910973582868
2675,0.01666666753590107,0.8437018181830644,-1.5723127375915646,0.7417506792277098,-4.0155250968933105,-4.5244431718021625,-7.248444941601157,-34.53323836809854,-29.539413858335415,-1.6032215957382379
2692,0.01666666753590107,0.7884019557654857,-1.6746332943812012,1.0669523551642894,-4.1380782943725585,-4.563049965833128,-6.905326500701904,-27.003706128968183,-36.52870203977986,-0.4396324630451432
2709,0.01666666753590107,0.9151683870255947,-1.6300164462804794,1.6330676505446433,-4.093785563659668,-4.475063054822385,-6.303334420776367,-17.341047755434897,-43.746839124460166,-3.415523606263617
2725,0.01666666753590107,1.1099959625989197,-1.684993944875896,2.020274824017286,-4.0255508163452145,-4.506337314008176,-5.843348426818848,-8.759706511483952,-51.94238310955846,-7.458484611383884
2742,0.01666666753590107,1.179213291209936,-1.7946534662514924,1.987508864969015,-4.057573263549805,-4.611382911847532,-5.810727429199218,-7.40244717811216,-51.36737680409177,-8.558876751770775
2758,0.01666666753590107,0.6406529422312974,-1.569329922388494,1.8155168060600757,-4.682010984039306,-4.381689190076291,-5.925947799572349,-9.447991504335306,-38.29862603487819,-8.260196848234347
2775,0.01666666753590107,1.2448135983675717,-1.677201391303539,1.2894646409988402,-4.15004930267334,-4.468778275464475,-6.409427481842041,-18.502697301166695,-21.716444739630266,-7.442637718735808
2792,0.01666666753590107,1.4022767811864614,-1.8643275987192987,1.1542214732944964,-4.019266036987305,-4.617069140790402,-6.5399108877986665,-27.56827078274122,-8.040235728655965,-2.0941697235849364
2809,0.01666666753590107,1.397629832163453,-1.9315935010015963,1.0221791474580764,-4.023306252288818,-4.587590240588784,-6.706308487701415,-42.40498016011946,9.197005104225786,5.532020364471679
2825,0.01666666753590107,1.4537082777380943,-1.9986714794963598,0.7453022342294454,-3.943998906818032,-4.547936275592446,-7.035211940765381,-51.59264668820255,18.391768198856518,10.233619499464037
2842,0.01666666753590107,1.5127058256298302,-2.1330545232400295,0.5892109242856503,-3.8513726455688473,-4.5548198976263405,-7.255029580688476,-55.030902444684436,21.934643670402785,15.216454234852609
2859,0.01666666753590107,1.571633230894804,-2.3099388842351734,0.2921516392499208,-3.74767378616333,-4.550929319928586,-7.63585728225708,-50.55472772683282,20.38551407796158,20.38170966259388
2875,0.01666666753590107,1.5201041191875935,-2.4985066687613724,0.057493573069572444,-3.7782004418522117,-4.6137771135076875,-7.9189716285705565,-45.46403747426058,9.549086841787958,17.33741238724916
2892,0.01666666753590107,1.545426191970706,-2.694356573119759,-0.07438041046261787,-3.7497692971378562,-4.699968081012368,-8.081178206524253,-40.33887525694728,1.6728057487333294,11.540450692419977
2908,0.01666666753590107,1.312127139183879,-2.6728978977665303,-0.07894669546484946,-3.997119671630859,-4.566790759796649,-8.103624431610108,-24.924126970110862,-6.167253997379075,8.574290781180201
2925,0.01666666753590107,1.2281202377200127,-2.585440855848789,0.09041033876538276,-4.102465129199624,-4.4361574239753185,-7.930194448852538,-4.390894256535302,-9.58198786301991,9.02447111069668
2942,0.01666666753590107,1.2071914314597845,-2.5318732240512967,0.20628946530818937,-4.1479549607425925,-4.383335057587177,-7.797764585003256,18.425529823923892,-7.743102862966547,11.898315038888212
2958,0.01666666753590107,1.1943939092069864,-2.580980077047646,0.41672669794559475,-4.172344721111655,-4.471920519012958,-7.570316011810302,35.781930137065686,3.1765604735274353,14.398880591202083
2975,0.01666666753590107,1.3439315597236157,-2.9664477133765814,0.5860200192898511,-4.003105760303139,-4.947468969891965,-7.392396900939941,47.611653854987686,16.93400263184799,16.63434857258119
2992,0.01666666753590107,1.2206693371921777,-3.229582516978681,0.5902607255995274,-4.09857455150187,-5.28909161927551,-7.38686030960083,51.729492943318334,17.91385815508343,20.490847547794225
3009,0.01666666753590107,0.8023428028345108,-3.8978877285063263,0.3582365150541067,-4.492869052886963,-6.053889558222145,-7.6093714263916015,43.087575605392196,10.174112330093948,21.44296225771566
3025,0.01666666753590107,0.17466273942291735,-4.611443994385004,0.047697570720314976,-5.117606633105874,-6.814646843475848,-7.908945909118652,28.67246136208028,3.8017823297720623,19.307906594872204
3042,0.01666666753590107,-0.19864450351297855,-4.81234942856729,-0.28378070126771926,-5.499780488586426,-7.034763758606463,-8.22917038116455,15.216510583913262,-1.855713732394628,17.86392947225064
3059,0.01666666753590107,-0.6779378400087356,-4.762648116809129,-1.4007617004483937,-5.997775018420815,-6.990920086835325,-9.331998936352134,14.78776424178593,0.7895945207675096,15.737838432692826
3075,0.01666666753590107,-1.081242746323347,-4.090805671066046,-2.086993906071782,-6.399252709308266,-6.3429894086860115,-10.012700980377197,30.92970569408068,10.17126670253099,16.924027140565183
3092,0.01666666753590107,-1.2294026787459849,-3.572491699041426,-2.101290726971626,-6.529287202453613,-5.887342905237525,-10.021080686187744,55.59620646643513,18.05962975989714,21.75121894024209
3108,0.01666666753590107,-1.1012608674794435,-2.3665680955603716,-1.3914526048332452,-6.359149831500649,-4.829853813336789,-9.294440482330321,77.47655013293631,24.70239341644286,21.42876058688391
3125,0.01666666753590107,-0.2768289824336767,-1.6909648359790443,-1.2962708138823509,-5.501576139831543,-4.284574385236203,-9.179518802642821,67.69347210924111,16.50874480883924,13.741702841151906
3142,0.01666666753590107,-0.061364861544966696,-1.7288862780943512,-1.8205846108436583,-5.275174445343017,-4.413262724469602,-9.680654553112387,28.185438138407108,0.4732492934381972,3.9494322366075205
3158,0.01666666753590107,0.03127016753256321,-1.9933777570024132,-2.952850857439637,-5.185990433502197,-4.670040560260415,-10.813261575970053,-33.14880000447197,-0.9300545862844715,-5.5888902270484975
3175,0.01666666753590107,-0.6210135912597179,-0.7779314151555299,-3.1784546795487403,-5.832574519348144,-3.370438263867795,-11.07078789204061,-53.004935148169835,1.86277870931736,-4.508010229573041
3192,0.01666666753590107,-0.7748474776655435,-0.13727496579289436,-3.4685154839992522,-5.980417056384682,-2.6295824876531957,-11.396998452758789,-44.054002976719396,2.7521749937417437,-0.9525950643191597
3208,0.01666666753590107,-0.7130611758381128,0.5175701679199933,-3.253516058012843,-5.896320138549805,-1.9014459077581762,-11.219228979492186,-10.57487709473903,15.981216855840596,3.0890004365756334
3225,0.01666666753590107,-0.6598287673443556,0.6810327372841537,-2.75358734524548,-5.7974096824645995,-1.7223295499272644,-10.753556172069906,-4.722734301605317,30.75147873787837,7.895488652217762
3242,0.01666666753590107,-0.7467460032969713,0.5121184783853591,-2.6275562425225973,-5.811325979614257,-1.8670291127629577,-10.68113157185018,-10.080677049795465,42.79424630129682,10.492988249232456
3258,0.01666666753590107,-0.45791035672724245,0.14019655232802034,-1.778191576272249,-5.399972206878662,-2.2143381372198463,-9.91468834991455,-5.526146828672291,44.37059932022241,6.715194397599124
3275,0.01666666753590107,0.4622650448054075,0.24752894593030214,-0.318970088070631,-4.398148741967976,-2.1106392778143284,-8.5034561088562,9.51554036767944,33.102607435115175,5.145675409824962
3292,0.01666666753590107,0.8125301425889134,0.3351195510998368,0.33258535644710063,-3.9950250374391674,-2.059762346405536,-7.872433749279379,26.349186176278785,18.395415519873303,3.575889190899523
3308,0.01666666753590107,1.4904469398096203,0.15924188292920588,1.1270791993468998,-3.2893340981081125,-2.340931550000608,-7.062744675335288,41.938727541712296,2.6173848390095387,3.409762982028946
3325,0.01666666753590107,1.4980860563859342,0.2282955454111099,1.8425316542357206,-3.2831989563539623,-2.379089138959348,-6.312911227416992,52.16473991798823,-2.833725958327815,6.492129810816616
3342,0.01666666753590107,1.4397273909196258,0.3122624071255326,2.2126181815594435,-3.356072177124023,-2.4073703538089988,-5.897516654857993,60.50169955475706,-6.147673125689118,9.306740630978505
3359,0.01666666753590107,1.2557245762214064,0.22347937730103729,2.5531974593698976,-3.5652655471801755,-2.663250948499143,-5.483918318066,65.91983590632888,-3.8483121397191278,7.360305764706828
3375,0.01666666753590107,1.1256176023617386,0.134090198276937,2.7739772223234174,-3.69634867259562,-2.884863947406411,-5.213822443279624,64.31478926270007,7.144105944927007,2.849865268449732
3392,0.01666666753590107,1.0610112746775149,0.25269202778190375,2.8671657936304804,-3.733309160724282,-2.8953388719305395,-5.087379252624512,59.69661149690931,19.876279079107523,-1.48198349681469
3409,0.01666666753590107,1.0199676088884473,0.42812838192582126,2.9691502503335476,-3.6966476555421948,-2.886659890912473,-4.964077282604575,56.374386994047605,31.958950315204486,-6.516960536657375
3425,0.01666666753590107,1.111269343535602,0.5419505759388208,2.9374937138319015,-3.525312306976318,-2.8999776376470923,-4.988768071746826,56.0388607812599,38.00466493828459,-9.607398728053296
3442,0.01666666753590107,1.0276011725068093,0.6908958135202526,2.736850729978084,-3.516483980615437,-2.8775319970831275,-5.187037312206626,53.856533379170784,41.88394942456879,-10.344684351783968
3458,0.01666666753590107,0.8438114160373806,0.7824728579774498,2.1861387554347513,-3.5697549675539135,-2.9453178315863013,-5.738153191375732,51.43470539383517,44.76897351865799,-7.0065805128756224
3475,0.01666666753590107,0.3439408631980419,0.5568406865566968,1.4327917464375495,-3.9709330909729004,-3.2830499032720923,-6.492326129803061,50.88767212811427,44.73380828971618,-4.007213929438536
3492,0.01666666753590107,0.054554889269173144,0.536866112281382,1.0697592292785645,-4.167556902313232,-3.4162276628792285,-6.849660727581381,54.51685216246552,40.04409453765329,-4.775959404486287
3508,0.01666666753590107,-0.44467298175245523,0.29730566101223227,0.5385118336617947,-4.56813705983907,-3.827730780957639,-7.345110833629965,60.28643931287493,21.14494402875508,-12.835586040195919
3525,0.01666666753590107,-0.6671601331457495,0.2020823690071702,0.07086392677426338,-4.746804066467285,-4.063110731671751,-7.760804096874594,58.15635602774725,4.274506979304638,-18.476196167187044
3542,0.01666666753590107,-0.706609807741642,0.12572072159945963,-0.21024375589191913,-4.772990647125244,-4.269610624860227,-7.976581521496176,48.43353734800449,-11.476623428399856,-19.163741792060748
3558,0.01666666753590107,-0.9679118429586291,-0.19264321727156639,-0.8704296661108731,-5.0454810158327215,-4.718972348950803,-8.55523013523519,29.147299528274154,-14.266072685433063,-16.526306932742635
3575,0.01666666753590107,-1.654620141661167,-0.12072978144437074,-1.1756377708107233,-5.7338137008666985,-4.70520539714396,-8.825026734814047,10.971127958116382,-5.90319034632992,-14.978671444182371
3592,0.01666666753590107,-1.8106246501043437,-0.13064151912778615,-1.3387035959422589,-5.877914713287353,-4.73034509909749,-8.985289192962647,-10.022784366390438,0.8540052857139925,-11.152961254200461
3608,0.01666666753590107,-1.9904928492158651,-0.5913917754560709,-1.4865280128002165,-6.037428691156208,-5.140651116345823,-9.17398162678182,-35.509357777857986,3.595170388039646,-5.944560375245864
3625,0.01666666753590107,-2.099267404450476,-0.7601672104060649,-1.316593470942974,-6.136638422448933,-5.2323789674505585,-9.054121906170248,-44.032320541199184,0.2190259172706203,-1.9128531740002508
3642,0.01666666753590107,-2.2064298483133316,-0.577157790659368,-1.0232453153848649,-6.251859085083008,-4.962732297736406,-8.806022759136557,-43.07779818959532,-11.872574617227372,-3.831795034758745
3658,0.01666666753590107,-1.9577412109538912,0.26974983782768247,-0.38539924726784225,-6.0513446960449215,-4.017172279578447,-8.19789553745687,-43.51649440979607,-36.35450831028244,-19.255279987317255
3675,0.01666666753590107,-1.6384391144499182,0.15230243905484675,-0.15662497842907905,-5.7912745407104484,-4.065953846143186,-7.975234783062338,-51.070878292221515,-45.58100787889163,-29.11654660153617
3692,0.01666666753590107,-1.6510148106455802,0.17132219682335853,-0.07839432227909565,-5.854720884704589,-3.9734780992805954,-7.909095546722412,-52.81646632330709,-35.87788063452602,-33.572312714147785
3708,0.01666666753590107,-1.7180168012946844,0.756696319425106,0.7036795995086431,-5.9446527923032635,-3.321656405042112,-7.149534485515952,-28.95542926920474,-18.902726112928708,-32.44896516173413
3725,0.01666666753590107,-1.2965189434245228,1.2523293808251619,1.8790204331994056,-5.534496412658691,-2.825607456317544,-5.968295241436362,-5.832887209202979,-27.00347902517828,-28.182270638179514
3742,0.01666666753590107,-1.0743865968182682,1.26069710393697,2.013546977066994,-5.3642091118410224,-2.845060929328203,-5.790975265502929,0.7107984702944805,-52.56471238068959,-24.629078165891944
3758,0.01666666753590107,-0.766569770924747,0.8491972007289529,1.3142635666906832,-5.202300932312012,-3.268983968518674,-6.401646326446532,-22.530915769850314,-75.4762541024172,-21.721043164488975
3775,0.01666666753590107,-0.3697892979428172,0.2762590735912323,0.5657049610137939,-4.936694477899373,-3.7948108003914354,-7.098508062633871,-48.66548032693437,-75.29912680667127,-18.83562462697521
3792,0.01666666753590107,-0.31562925321012736,0.11622750158905983,0.14547639242708682,-5.006874221801757,-3.8579575769171117,-7.494449162182211,-68.19010882417108,-66.09587037180762,-15.85281783718082
3808,0.01666666753590107,-0.35223727463930843,0.19750702391564845,-0.31739070992469787,-5.1714755859374995,-3.6040225633367893,-7.9655089233398435,-76.1597033213362,-43.09848683259129,-11.263996224442772
3825,0.01666666753590107,-0.05192366398274898,0.36353637502789493,0.020417349606752396,-4.930708681488037,-3.2999589524969455,-7.657254875072836,-72.97010060158861,-26.090323714282594,-7.343845862580744
3843,0.01666666753590107,0.0761480046570301,0.3475304121226072,0.3341349239766598,-4.837185763660073,-3.188179662488401,-7.381323133739829,-63.53218618760002,-17.244837710786097,-9.560939781318869
3859,0.01666666753590107,0.6951911726266146,0.47815556463748216,1.1917173834741115,-4.250007806506753,-2.935740732684731,-6.5581666754573575,-43.997209953770735,-21.145910500522636,-16.60502998556891
3876,0.01666666753590107,1.4605910229891539,0.4860150459662079,1.8673516227155922,-3.5239649840205907,-2.875287140765786,-5.88030833042562,-31.62055883805996,-33.80792691975655,-17.636108512484864
3892,0.01666666753590107,1.974304515480995,0.3508788457676768,1.8173264858305453,-3.1100679565429687,-2.9649203576788303,-5.884947096142173,-24.675163159769312,-52.80652498297014,-13.749695016254465
3909,0.01666666753590107,2.0292858134686944,0.17299042229652403,1.5415852986335754,-3.1536124992370604,-3.11231281286031,-6.107907125744223,-22.34893733224637,-53.128202987215644,-11.147350253797295
3925,0.01666666753590107,2.0160574985831974,0.21497312250137326,1.1542582981735467,-3.2483336869388815,-3.043629737256467,-6.450877098083495,-16.44743361575462,-35.28627013918703,-6.325557718659284
3942,0.01666666753590107,1.7978531390756367,0.15502455749511718,1.1532383074760437,-3.521122454071045,-3.0862761620670556,-6.421248852539062,3.2090548850603593,-9.079408029738385,3.14300887677704
3959,0.01666666753590107,1.7058172449350355,0.02019230867922306,1.2458657377690077,-3.6267660178035497,-3.2402532563358544,-6.310815716442465,22.301740725081583,-1.7435067443794239,6.575984897030509
3975,0.01666666753590107,1.7288152586847543,-0.90497549431324,1.3121458438843487,-3.6159926948547363,-4.207810294507444,-6.217442436218262,29.36916456308368,-5.73507804651475,9.744891289819298
3992,0.01666666753590107,1.4795681106597185,-2.3156375342682,0.4193161299169063,-3.915567177581787,-5.666327726092934,-7.053018231090903,21.619090638295486,-23.20161814823076,10.511268396772348
4008,0.01666666753590107,1.3603829283088444,-3.032486704212427,-0.07104512856006621,-4.093336650848388,-6.41287002351135,-7.487267141723632,22.18647616019574,-27.98275910497615,5.189269945976214
4024,0.01666666753590107,1.0851058514922856,-3.90575130148828,-0.6697744072973728,-4.41775097579956,-7.335685125897824,-8.026710703277587,32.11039609967118,-19.426179858087437,-1.5355075271935545
4042,0.01666666753590107,1.070696217867732,-3.980095763854682,-0.6041261693447828,-4.451718127331137,-7.485023162189125,-7.910890613445639,42.712225974648725,-2.6203461529015626,-0.7308656727976838
4058,0.01666666753590107,1.9039725036263464,-4.17436775137186,0.05985737959146499,-3.6135990777164695,-7.784747282519936,-7.199064532360434,46.70820424290259,9.22599498838426,14.163474706363008
4076,0.01666666753590107,3.090819650715589,-4.548700537963211,0.5449661243677139,-2.4269722953796387,-8.214207497571408,-6.686107411193848,41.507858718300376,10.942533371156124,26.46560504313436
4092,0.01666666753590107,3.4158167439907787,-4.714270162609219,0.42088966284394264,-2.1130326026916504,-8.408736674720048,-6.78696257160604,28.85908262077254,12.603191415007172,34.89221945049607
4108,0.01666666753590107,3.2012294059365987,-4.630956211845577,0.07277355978786945,-2.3386866936832664,-8.32179693467468,-7.128436167907714,24.98099683268768,13.1913893770821,38.40797736349009
4126,0.01666666753590107,2.8942046072036027,-4.481321822956204,-1.3019628880441187,-2.6647458632320165,-8.166323172107338,-8.49148393151164,35.57357863152903,14.507820400916493,46.8425199129309
4142,0.01666666753590107,1.806791647812724,-3.7096868775963783,-2.8634470653682946,-3.781193193927407,-7.384616914588213,-10.03559553375244,34.73730734502559,8.251213441928488,63.398963347838915
4158,0.01666666753590107,0.7748147444397211,-3.335022667093575,-4.184492255023121,-4.874145667266846,-6.958149451611936,-11.335197537884115,21.637171856575804,1.2832958551799578,76.41861530220386
4175,0.01666666753590107,-1.5913053150922059,-2.4324554029658434,-6.449923158359527,-7.305457453155517,-5.976826046155392,-13.588290937694907,28.442700628590224,17.113336078695845,52.74325011049914
4192,0.01666666753590107,-2.988231382900476,-0.32428602239638565,-7.0582000176429744,-8.694244053649902,-3.8835456071600314,-14.195669971355795,52.235719243843,30.80555334553736,29.78306719659728
4208,0.01666666753590107,-3.1001480355530977,0.66929451482594,-6.802835263520479,-8.758737860870362,-2.9770410035833716,-13.934103439983724,78.36183827201835,44.11091211288394,19.94842124466849
4225,0.01666666753590107,-2.4478642767608165,1.5013661009699106,-4.918871528699994,-8.004264478191732,-2.3389862611517307,-12.028618193706869,100.58283420827932,54.62956735924366,16.66926791471288
4242,0.01666666753590107,-1.401854171860218,1.5677084586665033,-2.40996095482409,-6.870760214233398,-2.4495687425911425,-9.489716970714927,100.43371068813043,52.06296326916587,14.7977926670348
4259,0.01666666753590107,-0.9792682264924049,1.4844000608608126,-1.2207318810343741,-6.376207933807373,-2.6931784692510963,-8.262838257488609,83.65625257696455,37.23362195835478,12.221377863987938
4275,0.01666666753590107,-0.5727431890875101,0.5991285071879625,0.002465513330698013,-5.92475128326416,-3.7255282975897193,-6.98493312138021,39.15652853048305,9.040204451449805,3.466182479007367
4292,0.01666666753590107,-0.5156412456840277,-0.21808248669356106,0.24786241566836834,-5.849932481384277,-4.596419151471555,-6.719626234436035,7.707853110433757,7.526153003038493,-9.490299403601659
4308,0.01666666753590107,-0.6369862364172935,-0.1381359665364027,0.3140858231604099,-5.926098021697998,-4.542699251721799,-6.6712927038997405,-6.946588826961285,19.541760319222394,-25.657368268079242
4325,0.01666666753590107,-0.36763679608404637,0.7052309206038713,0.7904273241132498,-5.53509496307373,-3.7551565431341527,-6.250361540001631,0.6857113989164353,34.28779552027413,-38.20707076414875
4342,0.01666666753590107,0.7348077282220125,1.1435697308987378,1.5805261469244956,-4.319588707733154,-3.392434991620481,-5.493944037517905,15.054363600564452,35.51213083466101,-36.69177963640308
4358,0.01666666753590107,1.1888380286455154,1.3228583765566349,1.9740631079405544,-3.763235512432456,-3.3034006173834203,-5.114312852257489,27.81147845115974,28.111586718006347,-31.769190584588607
4375,0.01666666753590107,1.6869047469332814,1.5703072429880498,2.462804071739316,-3.1673794510439035,-3.189676330786943,-4.604647758373618,37.30391143510338,13.435419229521962,-26.776694546619055
4392,0.01666666753590107,1.4741840795338153,1.4821864764645696,2.452887657880783,-3.3253964683532713,-3.3846541284859177,-4.579059728130698,40.33742384174865,9.847547325497297,-27.800690167365705
4409,0.01666666753590107,1.2801575912103056,1.711864708405733,2.4770453630596396,-3.460968429620564,-3.2677865754276514,-4.515463746532798,42.55364264249937,14.221726828473109,-30.69496916778027
4425,0.01666666753590107,1.1853393728747963,2.33864285454154,2.4618682521939275,-3.443610467584431,-2.7953812448799606,-4.494065569195151,40.68349586661486,33.36790222776223,-31.398324973035255
4442,0.01666666753590107,1.280347268563509,2.483036712428927,2.316671845752001,-3.2366616615846753,-2.7543799569278953,-4.635772379955649,33.80316969299963,46.96595509161136,-24.741938504189942
4458,0.01666666753590107,1.0392992090851068,2.472552143293619,2.030485836908221,-3.3565210899353026,-2.8383272371590134,-4.943875621575117,20.5830089978125,53.70906276480104,-15.802211258072903
4475,0.01666666753590107,0.5756149451315402,2.4546201807618138,1.6697048980683087,-3.681683895166218,-2.904018145209551,-5.353883240398765,5.467113930562694,38.750381576772,-7.087501179067349
4492,0.01666666753590107,-0.007922317431867122,1.921879331716895,0.4614069666713476,-4.206313041687012,-3.4489977135807273,-6.58824383381307,-0.08999146423440713,13.053101952051437,-8.052833158806408
4508,0.01666666753590107,-0.29477877288311716,1.7628396933615207,-0.22444588424563405,-4.478204567718506,-3.617041327124834,-7.276127898296713,-2.7385261413459427,-11.225215264109087,-13.792892547660212
4525,0.01666666753590107,-0.9931550052866339,1.7804899163424968,-1.4151613972008228,-5.188235289819538,-3.6146471254646775,-8.448239248546958,-6.9265306958030735,-20.07728642373912,-20.431629807690214
4542,0.01666666753590107,-2.015416862592101,2.1688871763825417,-1.9705852026969193,-6.209212660272419,-3.226038853022456,-9.004591859325766,-19.365343363150135,-8.395950273082937,-19.30750019861659
4558,0.01666666753590107,-2.374361525915563,2.1826041515678165,-2.1865824075490234,-6.543353429467976,-3.1789018387943506,-9.260771436962484,-35.048074122072,11.367462491311064,-10.827454075151516
4575,0.01666666753590107,-3.2921617227494715,1.74588797403872,-2.0095283890753985,-7.410204068048298,-3.527408402472734,-9.179218942913412,-32.28999592389667,24.197533153752197,8.012278910609457
4592,0.01666666753590107,-3.8862475595951076,2.8985055192679163,-0.8533405841439962,-7.976282538549602,-2.312949025836587,-8.084021320995689,-27.968098103922717,13.141902948998066,4.138847042670315
4608,0.01666666753590107,-3.811219791139662,3.0634517513185737,-0.6739151603639125,-7.89697490081787,-2.087894654303789,-7.949946612548827,-39.56833771101605,-11.864289597764147,-8.886242596047609
4625,0.01666666753590107,-3.9627912855714555,2.32411397845149,-1.2199363467425106,-8.070405175836385,-2.73238322917521,-8.549992819103599,-49.731365497860715,-24.931105715895324,-23.249065764847547
4642,0.01666666753590107,-4.103856583558023,2.7844191213607785,-0.9769453365027904,-8.232911321258545,-2.2176298722416163,-8.332270105633139,-24.745802683712878,-24.5961754371127,-13.637936045960133
4658,0.01666666753590107,-4.0286885298490525,3.037991731369495,-0.6447521942436695,-8.20373198852539,-1.9656401475101708,-7.972989634484052,20.852956856831618,-32.83996958605526,1.0733296502348306
4675,0.01666666753590107,-2.92203544793725,3.1289620421051976,0.5149141004532576,-7.227795829065144,-1.9900316614449023,-6.656328943523764,75.7907365023721,-62.12550872803589,14.148906766637017
4692,0.01666666753590107,-2.0856065433666107,2.4867998643547296,1.635865756830573,-6.558915155737101,-2.768744582366943,-5.33113832462728,89.27998445274294,-93.1341304277869,21.05922686221871
4708,0.01666666753590107,-1.5347770799234508,2.1278402957230806,1.8123434367209672,-6.228665256500244,-3.2477351365238425,-4.913799047741294,69.77626316455563,-117.36850903701674,22.91336025959413
4725,0.01666666753590107,-0.7431225521028041,0.9386761038631201,1.9270915134072302,-5.760598247417807,-4.4840410187870265,-4.5218975789725775,-4.889310235744057,-123.75907991129078,18.603676525403454
4742,0.01666666753590107,-0.4222147739678621,-0.33319033660292624,1.5229472336590288,-5.649716783031821,-5.667524826923012,-4.832245969170332,-78.31136317405195,-100.63264677789623,9.423744332781762
4758,0.01666666753590107,-0.3618739947736263,-0.7059919681042433,1.2310112829864024,-5.733515010181069,-5.853076040107012,-5.15830747680664,-138.27192050124722,-67.49827896314049,-3.8279457962746193
4775,0.01666666753590107,-0.18877134427428244,-0.5814116487115621,0.3421674237847328,-5.644031138610839,-5.3959331606209275,-6.232855109405517,-170.4593782102291,-30.43101992239971,-21.673259161055565
4792,0.01666666753590107,0.5438946957439184,0.153419168125093,-0.3375350878089666,-4.922328391155601,-4.404883018659055,-7.083843577465415,-158.91088070119318,-17.25677688145528,-24.43376207638626
4809,0.01666666753590107,0.8801625400960444,0.35519027922600505,-0.3831722188681364,-4.585793420299887,-3.982306425641477,-7.273733112114668,-125.47031550594578,-15.278443324212352,-23.895961518875918
4826,0.01666666753590107,1.6559867538392543,0.7556900649920105,-0.18151567405760288,-3.8236896888732907,-3.3874969506964088,-7.179910919079184,-73.98360505177013,-26.461626457942828,-23.373112245458735
4841,0.01666666753590107,2.296577736750245,0.8863549649953841,0.2535918992310762,-3.214365366363525,-3.183391259168088,-6.763320414733887,-45.972056699442376,-34.57211580485425,-24.795261791040232
4858,0.01666666753590107,2.699808993306756,0.7333820793330669,0.48067573076486586,-2.8483517875671387,-3.3056454737007614,-6.52464785221517,-26.499170300263096,-32.69322297173754,-22.60527433179695
4875,0.01666666753590107,3.2176603162556883,0.3158998868450522,1.0187655396223068,-2.376394785308838,-3.71834569260925,-5.952733515167236,-4.613651484805159,-22.88074098366544,-7.837471317860381
4892,0.01666666753590107,3.250718536248803,-0.29899112988114357,1.197063420677185,-2.3750486313968895,-4.333655227008462,-5.748627239117026,2.1622620138549093,-12.495088303466089,5.860320664004335
4909,0.01666666753590107,3.2299563187271354,-0.736796563951671,1.1845990759015084,-2.4187422271728516,-4.7616190660223365,-5.748178326305747,4.376727163536226,-0.7884752235172737,13.993918675312027
4926,0.01666666753590107,2.768985405385494,-2.137313641989231,0.9494277995020151,-2.89219560546875,-6.150405958777665,-5.979967559051513,8.295043619606107,4.4989358963738555,10.521651991858059
4941,0.01666666753590107,2.3595208073973652,-3.1461656903624533,0.8512450731694697,-3.30070567921102,-7.171981587384641,-6.07154577255249,19.05366475584953,4.272480120668437,4.87245119443835
4958,0.01666666753590107,2.367354569762945,-3.572980651602149,0.6797235543817282,-3.2932249680668115,-7.64154468024373,-6.217741711425781,33.7770066533839,-0.7703601744562247,1.9750401254025127
4975,0.01666666753590107,2.506602881455421,-4.513304522672295,0.348502472025156,-3.1592987281799316,-8.678982187110185,-6.48634062565267,45.49325360843531,-1.686954912485834,-0.5223883423699135
4992,0.01666666753590107,2.3274083438217636,-5.026058814743161,0.13838321929574013,-3.3393127655029295,-9.269451879285276,-6.647799600109457,37.81352892455096,-0.23510156789503867,-1.2488672194514507
5009,0.01666666753590107,2.2632325165092944,-5.593028096604347,-0.3211678903758526,-3.398269981384277,-9.886108152118325,-7.08040191257894,13.599751873405177,5.345782450146587,-2.738285163734288
5025,0.01666666753590107,2.0391104573905467,-6.129246850892901,-1.8376269310593605,-3.575889817047119,-10.429592513495683,-8.630946762737631,-15.790113285505518,24.651575101470673,-11.33234848878803
5041,0.01666666753590107,0.824703687724471,-5.041660873022675,-3.8002784181475637,-4.724956976318359,-9.323471054242551,-10.658686515808105,-22.55366371488104,32.63992017545476,-10.586254482348979
5058,0.01666666753590107,0.07338672325015068,-4.199733371035754,-4.748891978657245,-5.409249738311767,-8.45467512681335,-11.67756895980835,-16.465690711406065,32.61395862641954,-2.986385595476066
5075,0.01666666753590107,-1.272709905552864,-2.553331314882636,-6.685816319292783,-6.664858871459961,-6.801928085547686,-13.688997045025229,18.535808350715623,49.19735057269785,5.291984038262159
5092,0.01666666753590107,-2.197389048245549,-0.3335474794775247,-6.843692174565792,-7.4883146049499505,-4.639514781354367,-13.888913468170164,57.992144619721806,70.62147175358803,14.463057048643522
5108,0.01666666753590107,-2.5476994464755056,0.5034194774925709,-6.626241848295926,-7.727585717883706,-3.914969503949582,-13.684358863830566,93.85088364909886,73.41224606732023,28.21184535728567
5125,0.01666666753590107,-2.789581034168601,1.3563415439635513,-5.390450929817557,-7.855076956287026,-3.274221284650266,-12.395379960522055,124.30527647883837,63.590591135192795,37.24160986458911
5142,0.01666666753590107,-2.844441336125135,2.1939646267548203,-2.961010198497772,-7.842656450653076,-2.6276374910652636,-9.884909882244466,132.08928790606504,56.91635908959353,32.862242832938676
5158,0.01666666753590107,-2.708181100332737,2.454914779794216,-1.7767115668475626,-7.6467808273315425,-2.5659867983162403,-8.601019241985679,121.95886061212886,45.783410289661205,21.10057853500126
5175,0.01666666753590107,-1.8988877477079629,2.330097144514322,0.37008243567049504,-6.7663131668090815,-2.916587703925371,-6.334458457836508,77.74615135985505,33.786439144627685,4.988181919735046
5191,0.01666666753590107,-0.9486527234762906,1.702453905981779,1.848493192988634,-5.7564086867734785,-3.651907473322749,-4.81384112842977,36.678764710939625,29.497558459101576,-8.39497014093704
5208,0.01666666753590107,-0.5975523439124226,1.5803823545396327,2.1488795766204594,-5.339219632013142,-3.826982885199785,-4.518007585796713,4.977368449618447,23.59748054459907,-18.724628930320627
5225,0.01666666753590107,-0.06644727937579155,1.386782859456539,2.0659657310903072,-4.717774663598835,-4.0444063234627246,-4.645049911388755,-10.748284498708253,19.301221547222056,-22.50096197524522
5242,0.01666666753590107,0.3899672858357429,1.6487562180638313,1.9683692802131174,-4.1980826812192795,-3.7934640619575974,-4.777179915508627,-6.139474337364164,17.948391591527017,-20.563262920921993
5259,0.01666666753590107,0.7041343575388193,1.7897633561223745,2.146485959482193,-3.8048353507995603,-3.685126436835527,-4.625896298107505,7.256217096850419,16.750238099776087,-19.258438949808387
5274,0.01666666753590107,0.7953434454664587,1.8917559961318968,2.224398635724187,-3.6586394119262695,-3.626917993494868,-4.5488329321712255,14.875371663175098,12.588910343226322,-21.21229993925516
5292,0.01666666753590107,0.9478007828220725,1.7533341983914374,2.174952760031819,-3.455880458831787,-3.819649473571777,-4.586691245922446,15.687465787563982,7.983659564213457,-23.51232174602735
5308,0.01666666753590107,0.841056272110343,1.6279010615617036,1.9741490326583384,-3.510797459411621,-3.998766854315996,-4.776581949615478,13.244018545957987,11.61230257494122,-26.108292234441606
5325,0.01666666753590107,0.6693398152723908,1.6099164920598268,1.7704004840046166,-3.58157604598999,-4.09243940974772,-4.9811353849112985,15.179779534104226,27.574416245446937,-31.251462245501642
5341,0.01666666753590107,0.7850348174199462,1.6240438016116618,1.6002356405228375,-3.3533787002563473,-4.142119094195961,-5.166985873302817,15.887269311354364,44.24606106599098,-33.717433743443046
5359,0.01666666753590107,1.1061281812548638,1.6598790851026772,1.6623405067801476,-2.849398958532512,-4.190003127399087,-5.142295668682456,19.085116069430143,53.21506933307987,-26.32764717473115
5375,0.01666666753590107,1.2766589354395865,1.8222808933675287,1.7019196529746055,-2.5611972259521485,-4.088848107257485,-5.117156551250815,25.519328437405992,40.24034294798068,-15.976309364921942
5392,0.01666666753590107,1.334896897135675,1.738935086160898,1.4021435101956128,-2.431162148284912,-4.234146220508218,-5.402964374431967,31.512153490648103,21.24987793252128,-6.163406466442242
5409,0.01666666753590107,0.3562146538376808,1.577313614618778,0.6056687226116657,-3.3807623817443844,-4.476259863391518,-6.144119425854086,33.030958750721744,3.3997761782453293,1.1856347154976479
5425,0.01666666753590107,-0.3993035617187619,1.514713073799014,0.2684258957475424,-4.132242135564983,-4.58998444224894,-6.437409129223227,25.958704261429155,6.404048971940601,2.3236768863020587
5442,0.01666666753590107,-1.9370953132882713,1.4578011000096798,-0.10343465551137923,-5.6474728034973145,-4.679617951422929,-6.791900612530112,1.6537819643475515,17.248717258234667,2.988196876266589
5458,0.01666666753590107,-3.2157997830808163,1.5447756191074846,-0.2733434784054756,-6.8964978820800775,-4.566042425647377,-7.002440136498213,-28.359720660363738,23.05192430728618,5.442283204721935
5475,0.01666666753590107,-3.7106785189822316,1.7046178060173987,-0.19698387682437896,-7.3651628570556635,-4.322283353644609,-7.015459192547202,-57.60417621448674,17.322618197506912,8.745200897234136
5492,0.01666666753590107,-4.764220188431442,1.9450304902017115,-0.3683072426915169,-8.42055687637329,-3.911677768927812,-7.332541274914145,-67.15694708955827,-3.7196339370770266,8.006305056406633
5509,0.01666666753590107,-6.067856270384788,2.8608266537368294,-0.4378992498338222,-9.747692491857707,-2.882171055060625,-7.483974529919028,-57.17568429690599,-20.127776889631146,-10.263397416698
5525,0.01666666753590107,-5.992254793694615,3.7539486286491153,-0.1523696590721607,-9.682899993951619,-1.909077717810869,-7.257273560222983,-53.81505022524671,-25.88809205824227,-32.06203153015832
5542,0.01666666753590107,-5.222303271377086,3.8999347241640088,0.25248773738145824,-8.917353720855713,-1.664120960456133,-6.927921194347739,-66.96698586836187,-37.19662965380999,-39.93571309590352
5558,0.01666666753590107,-3.950149246141314,3.474813707360625,-0.002176174995303154,-7.662642413330078,-1.9931740511238574,-7.247098787689208,-70.16202541868878,-36.705603939283186,-32.8986340808365
5575,0.01666666753590107,-3.597264905770123,3.3558944824695587,-0.05059504572749138,-7.3383777259826655,-2.021305336108804,-7.34855249851644,-49.57943135486836,-34.7006565499393,-21.786414905035166
5592,0.01666666753590107,-2.669494226802885,3.2780975415617224,0.09317278921604157,-6.4834980957031245,-2.063653362494707,-7.193079028210043,9.317791023281938,-49.42386355123757,-7.649192884520748
5608,0.01666666753590107,-1.1381821926414966,2.823216761788726,0.5869686983168125,-5.0697217231199145,-2.580651283484697,-6.590189122661948,52.39357516084575,-78.99162269462853,2.8576580874058934
5625,0.01666666753590107,-0.3422273372784257,2.4752216547638177,0.7872755820840597,-4.461294933971763,-3.0428812569767234,-6.195145848736167,76.89203620414496,-110.10469847735655,13.595756212740719
5641,0.01666666753590107,0.687366470350325,1.4486054016411303,1.075657055145502,-3.762338271331787,-4.218734716364741,-5.576543994793296,64.9480502515978,-132.697488930898,26.14388264265925
5658,0.01666666753590107,0.24829437734484672,-0.29674188964962955,0.6558586946696042,-4.476707899419963,-6.003760522571206,-5.768678678020835,17.817492723631016,-136.3371328150577,30.53978726983758
5674,0.01666666753590107,-0.13530921867787837,-1.2759545865625141,0.17090367915034294,-5.111919819641113,-6.928072585517167,-6.110600602611899,-40.249317816550075,-112.76177866827491,23.711906703764292
5692,0.01666666753590107,-1.001319899302721,-1.7577724730998276,0.026559505623579022,-6.203376501464843,-7.239767714148759,-6.222979027557373,-92.64176941127735,-77.27334517493925,-3.196582959635916
5708,0.01666666753590107,-0.9909668475925921,-1.5036679481714963,-0.22315993608832357,-6.292859203991293,-6.832004659381508,-6.521505462536215,-112.26192493424587,-65.78734389680898,-17.48955997365307
5725,0.01666666753590107,-0.5261573790013789,-1.3100146770745515,-0.18094108904004097,-5.906645133209228,-6.469881658282875,-6.552481031036376,-125.88179342230403,-64.46664485851697,-21.919555782526224
5742,0.01666666753590107,0.33061551767885683,-0.9338678267985582,-0.6070353347897529,-5.164292980957031,-5.824345035663247,-7.092372920879721,-148.66780992746513,-66.54581591357137,-16.488384014923433
5759,0.01666666753590107,0.38679391649663447,-1.3439227918952703,-2.042601222115755,-5.1889826010555025,-5.996577917590737,-8.633041104668377,-155.6002197085963,-49.471227498037024,-18.910961613520453
5775,0.01666666753590107,0.6793535520255565,-1.0288619862228632,-2.121953575772047,-4.929361943054199,-5.458182111524045,-8.837147380718589,-135.1549636735119,-18.870349308715557,-25.91792973963147
5792,0.01666666753590107,1.8690882372498512,-0.06851794817000627,-1.6315286044090986,-3.708618371582031,-4.297891547448933,-8.499714584240317,-72.49730807705116,8.353908751194215,-20.971808978579013
5808,0.01666666753590107,3.2888252718031405,0.08914864826649427,-0.5145207172214985,-2.261622158703208,-4.072837175916135,-7.445667303356528,-26.422842936288202,1.6790067067260548,-5.057110054404699
5825,0.01666666753590107,3.7464568115890025,-0.07801964374780654,-0.03207505417466163,-1.8249802154541015,-4.213346885846555,-6.962338427734375,0.7544418316261282,-20.282506287541324,12.678027236422064
5842,0.01666666753590107,3.891234115836024,-1.1058785904079675,0.28846973586678504,-1.7845780624389647,-5.227141943579912,-6.565050005230307,17.034350063586523,-39.94392639838046,23.319140090637294
5858,0.01666666753590107,2.9679747768133877,-2.0927856412157415,-0.026130466556549072,-2.8009172516971823,-6.218490776227414,-6.798783942303061,26.25473149024668,-33.66341036220283,21.282886529232655
5875,0.01666666753590107,2.6548276958078145,-2.5900053872853515,-0.09136544753313064,-3.1739632133483884,-6.741175218421221,-6.796838653454184,35.431456055279405,-8.809585675445263,16.886775288831934
5893,0.01666666753590107,2.3398463851124047,-2.9523569364428517,0.26066753670573234,-3.4762311729431152,-7.17272977540344,-6.412569286999106,49.93714885226944,36.489725565281184,13.385230999500708
5909,0.01666666753590107,3.1126176410257815,-3.4006291117310523,1.4336533317029476,-2.6396073303222654,-7.69302001593709,-5.248987280163169,56.75753670082322,51.86155123582595,16.909620564058336
5925,0.01666666753590107,3.7088697159945965,-3.94076679302901,1.81989136788249,-1.9794062225341795,-8.300099482129514,-4.874145082744956,55.40745418872182,46.82920445914395,26.79055983063418
5942,0.01666666753590107,4.5952340333402155,-5.152269365686178,1.6335913821578025,-1.0673650276184081,-9.558102816937863,-5.051765502929687,43.912204834455345,19.914369336561393,43.70790704619109
5958,0.01666666753590107,4.07399365247488,-6.275443958809971,0.06369418127536773,-1.6241671357303857,-10.683976439887285,-6.589590572246909,39.50226246098534,2.506546877036099,47.47906963791399
5975,0.01666666753590107,3.36717458589673,-6.534931345820427,-1.0124766686111688,-2.380734275817871,-10.947487675586341,-7.620145333862304,40.76982262753465,1.1302282209505046,38.9254222497265
5992,0.01666666753590107,1.6679022325605153,-6.153408063203096,-3.041040013024211,-4.106355706897378,-10.583270040296018,-9.614065819439292,33.6668561926391,26.983954929435797,35.7690791361423
6008,0.01666666753590107,-0.25353461608588695,-4.775438624799251,-4.7015702555119985,-6.008398703765868,-9.19583017823547,-11.297937774547934,27.867670417461436,48.8565958501005,45.618382674029945
6025,0.01666666753590107,-1.1615724205791949,-3.8262206686556337,-5.4325020190835,-6.8776435440063475,-8.228722345136106,-12.074407300457358,35.62493823899294,57.39294578421492,46.69317441163398
6042,0.01666666753590107,-2.6694845821917057,-1.8481839809089897,-6.400323553410172,-8.310423600006104,-6.293010302899778,-13.078176346477866,71.21931821163925,58.32312192652228,29.4417728890555
6059,0.01666666753590107,-3.3606302788197993,0.40006460921913384,-5.756354033976793,-8.927679300037026,-4.166659953473508,-12.413935023388266,105.4711186349874,56.45181060338428,15.972428109926083
6075,0.01666666753590107,-3.1369588860779998,1.311739016649127,-4.843137950062752,-8.619874164581299,-3.4461551836311815,-11.436352558025717,133.75074508204898,58.452178350889675,8.822639020722804
6092,0.01666666753590107,-2.128541137468815,1.9412030408680438,-2.171849533319473,-7.480683087158202,-3.133711866980791,-8.634837340435386,143.33321361963175,59.1239547765171,-3.656048290998793
6109,0.01666666753590107,-1.2085504448533058,1.92987091499269,0.009513678276538848,-6.460304267120361,-3.3816613764107224,-6.3447840370178215,120.76331796018816,44.809780483854226,-12.470924801729877
6125,0.01666666753590107,-0.7749410011678933,1.5256448021799325,0.5260574257582425,-5.951087501525879,-3.968389836230874,-5.734411666759848,74.70794661324997,23.146102370656898,-14.340306596427347
6142,0.01666666753590107,-0.46818858963549137,0.7789969985604286,1.1391712036788464,-5.591059426879882,-4.821623452869058,-5.070470203399658,3.0166945599179975,8.224513378689263,-10.974102505499921
6158,0.01666666753590107,-1.1795189961582422,1.6956944948494432,1.1840361813217402,-6.2672717582702635,-3.8940199471622705,-5.0641842549979685,-33.12124702136014,13.968195329124113,-14.665003544285998
6175,0.01666666753590107,-1.4862842671722172,1.8820815743356942,0.9997568877696991,-6.516119093322754,-3.6692642663151025,-5.329043398174643,-41.64473912436202,21.067395768466046,-25.543034316467814
6192,0.01666666753590107,-1.5808318518728017,2.4675270086079832,0.5200666609108447,-6.497413808330893,-3.0665239983707666,-5.9120320869445795,-20.432608232288818,24.62773091107816,-36.742203507950705
6209,0.01666666753590107,-0.9511655830800533,2.952369211402535,0.8252513847351074,-5.770025708715617,-2.6149182947456837,-5.651961931610107,3.0642160279551844,26.37357507425761,-36.9584029008437
6225,0.01666666753590107,-0.8135437035456299,3.105081984823942,0.9891238500744104,-5.539134593853354,-2.52797826243937,-5.499928957146406,21.781165904658014,22.300439574044695,-33.394287248525984
6242,0.01666666753590107,-0.2235623794093728,3.1574726817965506,1.2763549840569495,-4.850352996008098,-2.5929209824711084,-5.180901585930585,35.96955884866052,12.106517134036771,-27.469081068067002
6259,0.01666666753590107,-0.09966448932290077,3.3099685975968836,1.5080115303337573,-4.666748240716755,-2.5359096399605274,-4.9058682547420265,40.20677256821006,14.941904535880193,-23.5468859183222
6275,0.01666666753590107,-0.26483137838691473,3.6028649177342653,1.6623369996488093,-4.765059854125976,-2.331953586035967,-4.717025598797202,34.098554884035174,26.303857625851997,-18.449734306795122
6292,0.01666666753590107,-0.5283242016464471,3.8296003742218017,1.6612936280757187,-4.929960493469238,-2.181717431861162,-4.715229947552085,15.955378250210439,35.45800500058324,-8.598873485776723
6309,0.01666666753590107,-0.6069266137182712,3.627318975511193,1.1692360870748757,-4.941482296697795,-2.411111293902993,-5.227588518303633,7.477721839181225,28.92654781429934,-7.038238439678632
6325,0.01666666753590107,-0.695371205368638,3.6016467741161584,0.8967313975811004,-4.982782567596435,-2.456302434760332,-5.513396341484785,7.606792777700602,13.397198344700216,-6.677788012835903
6342,0.01666666753590107,-0.9847709155619144,3.7929958599239586,0.28228607879579065,-5.256918365423381,-2.29828395614624,-6.106410749706626,12.9532676382743,-12.559109374103912,-7.727573574114876
6359,0.01666666753590107,-1.0210150721147655,3.7722570232778785,-0.18304712140858173,-5.313182396697997,-2.3508079241096973,-6.527790241894126,13.642338102880206,-25.16294624198765,-8.054874531594594
6376,0.01666666753590107,-0.9062339699417352,3.6869086440771817,-0.28294892661869525,-5.234024396570026,-2.4640835901558398,-6.57627282551229,9.872966728267146,-31.38673755710833,-5.2239305946930905
6392,0.01666666753590107,-0.6186638132631779,3.099361853611469,-0.39804362478554245,-5.020192260797321,-3.05754632666707,-6.6341825781673185,-8.207778561449086,-35.89206352233756,3.693374421039266
6409,0.01666666753590107,-1.0782099544987083,2.5740339111715556,-0.6687123310238122,-5.5449710449218745,-3.5495547678291794,-6.891259981426596,-22.910901391492924,-31.786795397174316,8.047095799903596
6425,0.01666666753590107,-1.6015239267677068,2.287961299574375,-0.7797346651852131,-6.133944361059367,-3.7810447253674266,-7.008276003044843,-29.258669177785798,-30.865816104584383,11.729171380508369
6442,0.01666666753590107,-2.351741113306582,2.5501222897082565,-0.8398673545867205,-6.9873281998232,-3.426552657538652,-7.081748651012778,-39.58194003274813,-40.92405512918271,10.720138142912276
6458,0.01666666753590107,-2.20913676918447,2.00945006314218,-1.2194681447088718,-6.92687431564331,-3.8835458994209766,-7.479335764202475,-53.48243708814002,-46.24761726641195,2.026366862581043
6474,0.01666666753590107,-2.172348130491376,1.4648779065281152,-1.5303303296476602,-6.961291256769001,-4.333655811530352,-7.824250440868735,-61.05760182111523,-40.59446776587833,-2.3515513151917036
6492,0.01666666753590107,-2.2449258754462003,1.7354250322133302,-1.6798562897264957,-7.1175129150941965,-3.941156376868486,-8.020574977001548,-39.97552626857553,-33.14112970203405,10.264796751704207
6509,0.01666666753590107,-2.060417449313402,1.5608768590807913,-1.3248083415806293,-7.0184525291442865,-4.051588343921304,-7.6563570494502775,-8.201187428900022,-37.534853791319854,27.12988192105312
6525,0.01666666753590107,-1.7687129693090915,0.9885486805349588,-0.5582435390919447,-6.889016586413979,-4.575619232288003,-6.802674520000815,15.004325634704939,-46.88939891629928,42.81851737851247
6542,0.01666666753590107,-1.5805203017055987,0.44627661755681036,-0.28327567435503004,-6.848613848876953,-5.0769057894051075,-6.440551518902182,7.702839751582967,-53.87975943744341,46.391457635237835
6558,0.01666666753590107,-1.2366186014741658,-0.5121832141846419,0.11877543250620365,-6.655282064819335,-5.9685962702095505,-5.966948503002524,-16.411571707517467,-53.17210061301132,41.82508002411245
6575,0.01666666753590107,-0.9217746534228324,-1.217938450923562,0.14954174216985702,-6.50534518585205,-6.515520542907715,-5.927443591088056,-69.34559241662964,-35.02810606403347,30.741257359785443
6592,0.01666666753590107,-0.5967623625785112,-1.596924324017763,0.03957680810689926,-6.25649843532145,-6.714689362555742,-6.120476684460043,-108.0549860281924,-18.382933349165107,18.763796650116063
6608,0.01666666753590107,0.26562077519893645,-1.808735183095932,-0.6677572222560644,-5.431396103668212,-6.714090227618813,-6.964732044872641,-127.26033050248769,-8.631794997576185,5.514621311334717
6625,0.01666666753590107,1.4314800793170928,-1.2916598129555583,-1.0355758046478032,-4.271255761718749,-5.923854334424436,-7.531109790581464,-115.78880922539784,1.2223366302810057,-7.770244327180885
6642,0.01666666753590107,2.0112813702225685,-0.8873071511536836,-0.8773895682513714,-3.6689638220638034,-5.35642883322835,-7.505522929382324,-85.17982189398428,15.120618143060868,-5.1966704559419234
6658,0.01666666753590107,3.2476807759881017,-0.286826644834876,0.1491325768470764,-2.4024311438411474,-4.640113331769406,-6.581061228832602,-41.66238491808275,20.234770095432104,12.941039892112684
6675,0.01666666753590107,3.7508524161994456,-0.9625009238258003,0.9526292258918285,-1.912069300842285,-5.232528605054319,-5.820004960632324,12.040398341550109,0.6361388997766877,36.95490925908324
6692,0.01666666753590107,3.5923376785010097,-1.3957324741095303,1.2612579526901244,-2.1235078194767234,-5.65001781180501,-5.476735713085532,32.1493179326565,-9.698169380801826,38.12233543730557
6708,0.01666666753590107,2.716477804034948,-2.1173425748452543,1.7904197742044925,-3.050213499560952,-6.384139603589475,-4.896142395019531,37.964728822207526,-3.0967919748713255,28.106429925182987
6725,0.01666666753590107,2.397209609800577,-2.915233658967912,2.0491671565026044,-3.3827076705932617,-7.221212066760659,-4.600756596153975,29.937665113365934,19.91670013861566,14.817122102385936
6742,0.01666666753590107,2.3831916058421134,-3.3142037509486078,2.0797914273470637,-3.3610108025699854,-7.647380546790361,-4.583399218639731,22.412162685845885,35.19950966125494,8.925578509251357
6758,0.01666666753590107,2.6291069790959356,-4.020944491593539,1.8422569289475679,-3.033603725543618,-8.392276538306474,-4.865615739330649,24.773367619655755,41.48362179203059,5.376113612703321
6775,0.01666666753590107,2.5981588831245896,-4.2007925246998665,1.2044126143962144,-3.0000843177795407,-8.616882289288938,-5.528211048778891,35.5454792332836,38.184548215360635,5.844100672272847
6792,0.01666666753590107,2.470903207042813,-4.194922171361744,0.8921206889152526,-3.074603844451904,-8.670303206092118,-5.844993855938315,42.57403075717186,31.143220822629864,8.593391405194142
6809,0.01666666753590107,1.7974445582747458,-4.393337542293965,-0.16811317164897918,-3.697844464111328,-8.953117984937132,-6.889763605388999,39.52148261330976,23.04852799572139,2.9749601830985157
6825,0.01666666753590107,0.8285796523749828,-4.472953807583451,-1.4277449844419956,-4.6157209410518405,-9.104551239942014,-8.141781436046957,37.392437516935914,32.67500344212653,-10.507319693658435
6842,0.01666666753590107,0.5339011249959469,-4.079347288462519,-1.8629577716708183,-4.8199774392277,-8.802732193158567,-8.585756206402182,41.75795634004415,47.50219324334906,-19.647419930587905
6858,0.01666666753590107,0.27230945918262,-2.9031419468969104,-2.458572717779875,-4.923227385821939,-7.758261718915403,-9.211690302929282,36.65644023763744,58.25492931784888,-18.01950069097602
6875,0.01666666753590107,0.19143676409125326,-2.0086761561602353,-3.354672247198224,-4.875193130493164,-6.940641559711098,-10.149918078503012,26.460731703161557,65.35577839410172,-14.025085682268442
6891,0.01666666753590107,-0.14058920490741728,-1.4179559963554142,-3.8754941103905436,-5.064634336853027,-6.410625751715898,-10.730960893902182,25.581010168253083,77.71300445181298,-9.759075031404477
6908,0.01666666753590107,-0.5453451868131757,-0.15962357572317123,-4.296178021529316,-5.309890661676228,-5.21547021048665,-11.217732018932699,40.039105084464595,91.13001632152175,0.045002222130936395
6925,0.01666666753590107,-0.34551088899374005,0.8116051366984843,-3.4035160653442142,-4.892551092529296,-4.382736945563554,-10.368688255199789,85.73484306593951,94.71948563603856,10.474185592221056
6942,0.01666666753590107,0.036977147002518175,1.2885107012748718,-2.315410447514057,-4.359691293279826,-4.081815724402666,-9.243562528008223,120.65779153751147,86.47193659059978,10.921851558349324
6958,0.01666666753590107,0.3682899992957711,1.6425632086426019,0.2899929999113083,-3.8658874931335445,-4.035128792029619,-6.4927750426143405,136.02189226410496,51.499404360748116,-3.919830196744685
6975,0.01666666753590107,-0.004484159676730632,1.1505775638341904,1.7919325168550013,-4.172494943237305,-4.764462472754716,-4.827009237560629,113.41371339436346,-0.30976695474579663,-20.837891167069863
6992,0.01666666753590107,0.02423047815412283,0.6653957538217306,1.607847869092226,-4.152144521386921,-5.418528438788652,-4.8508016165584324,48.379626664885585,-47.66371014174694,-22.41070614800538
7009,0.01666666753590107,-0.7775280950516462,-1.077132388395071,0.06411503703594207,-5.018546247155964,-7.176021510425209,-6.338049760326743,-54.52781120098881,-34.29812959648836,-20.826648675696024
7025,0.01666666753590107,-2.4554493250623346,-0.2878162403941154,-1.3866829062134027,-6.67802698059082,-6.295853125110268,-7.886200408825278,-79.44408857619604,5.765549654836292,-31.962932315490605
7042,0.01666666753590107,-2.8618425527811047,0.2533399702966213,-2.414113982850313,-6.99735362701416,-5.679496419745683,-9.037511547631025,-41.777108190476866,33.51858303104188,-33.23173899156344
7058,0.01666666753590107,-2.911032992407679,1.7670903365433215,-2.2732290098667143,-6.868964562988281,-4.228759851294756,-8.948178482708334,59.97278336580961,62.221186017929426,-26.291209823056423
7075,0.01666666753590107,-2.2425176452606914,2.804815428179502,-0.5394295330286025,-6.055684186553955,-3.369840005713701,-7.135169275555014,108.39756782639273,51.68812590261015,-29.146677981059682
7092,0.01666666753590107,-1.8546195669144392,2.5522300756424663,0.024929858595132828,-5.542875826208293,-3.850325766864419,-6.42289428165853,115.38763123430797,31.68180855944205,-36.59309706327474
7109,0.01666666753590107,-1.4177727487429976,2.2975427823901176,1.1882815638065338,-4.957045192010701,-4.379744193488359,-5.061341140526533,84.24684537411721,28.02381878717168,-40.47879168209499
7125,0.01666666753590107,-1.0900149585828185,3.036629210844636,2.344541849452257,-4.506785057775676,-3.7864305100589988,-3.8151591764152046,50.528014856988904,36.73904796055415,-37.24420192137913
7142,0.01666666753590107,-1.0695710132300853,3.182733379781246,2.1609365096390247,-4.364929193933308,-3.723133803668618,-3.972578520092368,18.525742359426317,41.09582755661936,-27.808563667931438
7158,0.01666666753590107,-1.2141036950662731,3.319807854565978,1.419873812675476,-4.365078539276123,-3.626468496161699,-4.7438107298702,1.7675492237012804,44.51411183996813,-15.9380312772659
7175,0.01666666753590107,-0.8371355915352702,3.646062254425883,1.0062684616208075,-3.8994060241147874,-3.3143238701969384,-5.186139486584067,5.696671892811768,38.46871482068443,-5.325985146837305
7191,0.01666666753590107,-0.6219312906265259,3.421937272697687,0.8189461471110582,-3.637989130346477,-3.550602231055498,-5.38246343819499,9.612448799170874,21.188790428131977,8.254561942169088
7208,0.01666666753590107,-0.32834085074514147,2.9493495713204143,0.7105483162343501,-3.3650501410886644,-4.019865756446123,-5.48451628395915,0.5162254840261522,-4.7166165865431005,21.20936125036476
7225,0.01666666753590107,-0.6613768735691905,2.911265047597885,0.8136176455646753,-3.7639839927121996,-4.029292340961098,-5.380966477635503,-13.787950905795707,-23.622192169016174,25.89889058732006
7242,0.01666666753590107,-0.9085559831485152,2.562550394126773,0.5370224718868732,-4.110843958227336,-4.3152503862679,-5.6768011893123385,-38.55627443074941,-39.41160877522635,25.137196428816704
7258,0.01666666753590107,-1.643396736857295,1.814236703121662,-0.6977431951969861,-4.985176476995647,-4.920833768683671,-6.993911377605795,-65.44063666434995,-36.06378130826084,20.678882655644674
7274,0.01666666753590107,-2.546514620605111,2.1381126834124324,-1.5465227550357579,-5.975328793334961,-4.464139802008867,-7.93588009327352,-71.04323593483632,-24.83112882191926,21.08881011906133
7291,0.01666666753590107,-2.4167916776269673,2.522190911209583,-1.7365502368509769,-5.916970127868652,-3.9432518878430125,-8.226326682171225,-68.38884683845095,-20.394873144671788,19.838573019794467
7309,0.01666666753590107,-2.1862337402418253,1.412245802015066,-2.424530162924528,-5.779303532409668,-4.886566757422686,-9.026438949474691,-56.723587245553674,-26.00254895325876,14.750705342896733
7325,0.01666666753590107,-2.549172149376571,1.4247288514912129,-2.35061678545177,-6.209361713354289,-4.781071662250161,-9.003543811577558,-32.008704828213446,-23.894151518745865,16.02429656648316
7342,0.01666666753590107,-2.7820135215237736,1.4965549012959003,-1.8936931016743181,-6.517615469360351,-4.668095855933427,-8.54295985172689,9.978113221671261,-24.142640630940097,26.58855015574188
7358,0.01666666753590107,-2.755430050502717,1.2897031259298324,-0.10649579664766788,-6.612934330694377,-4.92217992259562,-6.641215545544028,61.56070672518919,-23.800840889399737,31.17009420191928
7376,0.01666666753590107,-2.448338616274297,1.0372329242050646,1.7907336624592542,-6.390273868560791,-5.2599125788033,-4.610633262524009,64.4919643697702,-26.64411715973452,18.608568648396478
7392,0.01666666753590107,-2.1464172781601545,0.6760065796852112,2.30872877779305,-6.148908705957234,-5.694011267310381,-3.9820056891292333,27.32348363307713,-30.78755238197979,-3.963035412113247
7408,0.01666666753590107,-1.0787602818578481,-0.8844125987559557,3.292774301689863,-5.111471199090778,-7.238720250922441,-2.99454714191854,-72.11998793673214,-32.806614357243504,-30.93733843047817
7425,0.01666666753590107,-0.16547756244838238,-1.4733990666359662,3.201086198073625,-4.1849148643493645,-7.672370026618242,-3.2477333829581734,-161.72730920544794,-23.195877374233365,-43.34844102036249
7442,0.01666666753590107,0.016369827781617642,-1.3591490025997162,2.9569290666639803,-3.955071504974365,-7.26445850329101,-3.7903199187129735,-230.01544490458704,-7.703565459182282,-48.35828573882388
7458,0.01666666753590107,0.5237748677790165,-0.4313806617200374,1.5574299334973096,-3.3822587577819823,-5.791275125232339,-5.6664761946529145,-252.94411674075306,-13.606033086120648,-30.657027466940846
7475,0.01666666753590107,0.6786430656686425,-0.04991700033545494,-0.36725393424630165,-3.2529718681335447,-4.967969613867997,-7.885601858410239,-218.99074094262107,-37.92477563065754,-5.813110396461207
7492,0.01666666753590107,0.13787088585942983,-0.0928989407107234,-0.9477239181935787,-3.8863875525876876,-4.636522029279172,-8.65040023574829,-157.644932459288,-56.79814217543895,-4.402992229102686
7508,0.01666666753590107,-0.8717442558407783,0.5280211270466446,-1.579467577782273,-5.032761234991252,-3.7336087281927464,-9.370156525310874,-71.76498885462074,-55.610047844788156,-28.753337632042403
7525,0.01666666753590107,-0.3627712358742952,0.5827364675745368,-0.9573790507674217,-4.580706326293945,-3.615544658826291,-8.751853946575523,-28.978259176505507,-34.64949160286674,-34.012409123128386
7542,0.01666666753590107,0.25214929920732976,0.533143584626913,-0.27262510100305076,-3.98065924295634,-3.6659725312933324,-8.058583512878418,-5.114158355673585,-13.27380329338112,-25.24803161602579
7558,0.01666666753590107,1.8935639223366976,0.49127135905921454,1.2759808900475502,-2.33374777597636,-3.7343569162115453,-6.498611493682861,3.5773824410068173,-2.6641718482675376,-4.687015827340735
7575,0.01666666753590107,2.7653941028952596,-0.32546646435260773,1.9217361238539217,-1.4725836585998535,-4.546889396888018,-5.849333346447348,-5.491724382802719,-4.396410914950557,11.235194170486476
7592,0.01666666753590107,2.837211384871602,-0.7248913143634795,1.9873153882235288,-1.4333786064147949,-4.904074064801633,-5.7887301169246435,-17.937830411522885,-11.01557968300847,19.598792398792
7609,0.01666666753590107,2.5229922907203433,-1.1320800763741135,1.6703285829246044,-1.8046292090818286,-5.222203610394895,-6.121524147686362,-22.263194552500615,-10.602751096741853,16.915702847514233
7625,0.01666666753590107,1.3018906995907424,-1.6683321484103797,1.3531167366981505,-3.058592620849609,-5.7164569078743455,-6.4423471701473,-2.6280348114728813,-8.306981082727997,5.718860189217377
7642,0.01666666753590107,1.1794383321374655,-1.8374445602297782,1.2679746937245129,-3.188777336120605,-5.916821367047727,-6.506840977367759,31.162874691966575,-1.175535320314432,-11.322418247508477
7658,0.01666666753590107,1.627006743070483,-2.0963477176114917,1.9986223796576261,-2.695421864263713,-6.338350204578042,-5.714509865459799,62.58542634598787,14.586748359417868,-22.387850627495226
7675,0.01666666753590107,2.8598794360145923,-2.7362103862479326,2.747049467909336,-1.402702605383098,-7.123199728558957,-4.918138538250327,53.662999969038474,20.427171401709487,-18.840320382029596
7691,0.01666666753590107,3.3871745868742464,-3.279318607789278,2.7391093225598335,-0.814028564453125,-7.75646635993123,-4.907813543590903,18.148248049283467,25.79501194778063,-7.319256327795052
7709,0.01666666753590107,3.280502264615893,-4.274390552613139,1.7359072627723215,-0.8364739127561449,-8.716241950446367,-5.977123860058188,-38.54152805233135,41.511458227992975,8.972354206008545
7725,0.01666666753590107,2.4336761769324537,-4.522626770029961,-1.137687102600932,-1.6105495292663574,-8.862736872266233,-8.946532469066977,-41.34699751806282,41.69476342984319,17.77812180570777
7742,0.01666666753590107,1.4736024802535772,-4.368740568915009,-2.9502871444314716,-2.516605220031738,-8.634988147082924,-10.827327510723471,-3.62418503163386,37.07884304157312,24.660748045526
7758,0.01666666753590107,0.06004822598844766,-2.806712786233425,-4.631763144314289,-3.8504751122072336,-7.132776535199582,-12.516138091278075,68.36380736495367,44.68992432429884,18.972691155691734
7775,0.01666666753590107,-1.385056181794405,-1.7085738501667975,-6.465076303827762,-5.22250200881958,-6.201132814191282,-14.292036588177083,105.62972245770428,42.125546875890485,12.249957083022563
7792,0.01666666753590107,-1.9170418285578488,-1.2346084306955336,-7.164607551485299,-5.70119270324707,-5.94644961259216,-14.88789352634847,117.45264330721295,21.22882045931013,11.529952691665668
7808,0.01666666753590107,-2.815586413040757,-0.58773792912364,-8.936686197835206,-6.606200930786132,-5.588516756659746,-16.47285502537191,112.86682014752054,-5.914934429720933,12.919173895258535
7825,0.01666666753590107,-3.4097526216462253,0.8946616055697202,-8.073706847730278,-7.233032852935791,-4.311958358985185,-15.452326567730307,110.6495563278268,-7.196202785934456,13.823180167760986
7842,0.01666666753590107,-3.6208603008911013,2.2218810999453065,-6.772053171765804,-7.483376564025878,-3.2125708841621874,-13.9635820479244,82.26706723186483,3.2162031049136006,21.59648783478462
7858,0.01666666753590107,-3.6836861748993392,2.5464351256281135,-6.198214588657021,-7.561637030792236,-2.988713028937578,-13.304129128155111,52.939228728354315,18.420880172646402,26.028377313605162
7875,0.01666666753590107,-3.811091488584876,2.8075340394884347,-4.6836289406299585,-7.6765587104797355,-2.78326001445353,-11.752685867851971,34.36098099723082,30.448057829284306,18.32554097711678
7892,0.01666666753590107,-2.842681340715289,2.762237684690952,-2.979177138829231,-6.645106707763672,-2.888006337085366,-10.035146036419272,25.250808087923403,33.18497951650553,-0.3520510817521853
7908,0.01666666753590107,-2.232387880912423,2.6785417488723993,-1.9699580107092856,-5.971737490844726,-3.0189398248970507,-9.02164996163249,21.347498411233683,29.110819487917116,-6.945106675911393
7925,0.01666666753590107,-1.1837070954978466,2.5029431899040935,-0.16348258923888206,-4.866065236663818,-3.234417974311113,-7.212831191906332,12.853960956610544,21.456040362428944,-7.4682423903868935
7942,0.01666666753590107,-0.6784644942313433,2.626267371755838,0.9409960712432861,-4.317942986352741,-3.1211423082649707,-6.122421973308921,-11.70157229361964,8.918224956836193,0.49492612606884917
7958,0.01666666753590107,-0.6523337354138493,2.490875735491514,1.0908522861897945,-4.282029669189453,-3.209128634753823,-6.015879999431967,-35.58729023628783,9.49795689943489,6.313304786175104
7975,0.01666666753590107,-0.5924369005948305,2.351593521529436,0.9643149875104426,-4.207959055328369,-3.2577614404976365,-6.221332429394126,-52.057290797060176,20.163177760099323,8.530635627100065
7992,0.01666666753590107,-0.21727847683429716,2.975480622398853,1.5019494538158178,-3.770418701934814,-2.4841350290596482,-5.828683357128501,-52.1746778432306,46.404510126741734,13.54561237894907
8008,0.01666666753590107,-0.1537386093378067,3.2492344351708886,1.9332804311752319,-3.6207810981750486,-2.105851166754961,-5.514743664440513,-41.759868793011755,65.14155634097344,15.085273621653345
8025,0.01666666753590107,0.3259571704789996,3.5634932768106458,2.6711323493987322,-2.9774890396118163,-1.6817776131778954,-4.927864982494712,-31.485727488749323,69.83216826291219,8.860179447948486
8042,0.01666666753590107,0.18628858754783867,3.0443121665626762,3.0801141323059795,-2.9960441024780273,-2.1362276003181933,-4.614374202618003,-29.466477683283436,60.07833710924299,1.975951742213298
8058,0.01666666753590107,0.37087387830913066,2.84779006203115,3.0943945865929123,-2.690783390808105,-2.272697679468989,-4.6887440916866066,-31.988781166404518,57.87802581906923,-6.662689025901943
8075,0.01666666753590107,0.7520011473461985,3.1962837662279604,3.123949766901135,-2.170194167327881,-1.8656822281986474,-4.75054442203939,-32.216045465752934,67.78455268182323,-11.996032847796291
8092,0.01666666753590107,1.2658400197833777,3.480470125687122,3.1411183438450094,-1.420509772491455,-1.5070014765083788,-4.863820088085532,-27.108185825154575,88.52911443652675,-3.073883520395103
8108,0.01666666753590107,1.325696522592008,3.358851578709483,3.2570494928359985,-1.1788447501584887,-1.5749369486153124,-4.83957879627645,-20.334410602591543,92.97732977501092,18.285797813883768
8125,0.01666666753590107,1.912721481140703,2.889597113408148,3.1951930483818054,-0.38367096217051144,-1.9578592843756077,-5.014505155071616,-20.760600746422,94.47200056165232,53.72130587888829
8142,0.01666666753590107,1.5410852401569484,2.668110955750942,2.472880060073733,-0.6401496688842773,-2.091934577344358,-5.818957497406005,-30.48671669998658,76.9962307399335,56.39617188240536
8158,0.01666666753590107,1.2433056780226528,2.376444761930406,2.2872815006166696,-0.8548793380185962,-2.274641799274087,-6.087406189507246,-43.10412856884572,60.20197719359856,47.52782694330412
8175,0.01666666753590107,0.44347704996615644,1.8794974030613898,1.6795798108726738,-1.5432124614439904,-2.5938191003546116,-6.818236830791831,-58.07817768250728,59.65524104110655,29.227786477453584
8192,0.01666666753590107,-0.10163009030744433,1.5042030779615043,0.559537086033821,-1.9804535396300256,-2.822315721295774,-8.038232798767089,-61.43073505547302,61.67141726144593,17.62019758681332
8208,0.01666666753590107,-0.4035160648472607,1.602116924224794,0.17996376844048498,-2.146252004595846,-2.5911256234869358,-8.511984867748618,-48.73756955852927,68.9397425761475,10.991961742632213
8225,0.01666666753590107,-0.4793621639482677,1.3294228496387601,-0.6696633481383323,-2.0572176303587852,-2.7440555467903613,-9.449614092907309,-27.430830301167635,51.14252697661495,15.225925999684124
8242,0.01666666753590107,-0.6805421772882342,1.2823700065627692,-1.1972411153316498,-2.170942209216207,-2.724453020697832,-10.02302539051473,-27.37072122137694,40.767029080164114,16.56659821865654
8258,0.01666666753590107,-0.9153222624130547,1.3181260873377323,-1.336763567790389,-2.3309048076353966,-2.602647718976438,-10.213364422497152,-43.67603396842922,41.12373229447345,17.034210044708537
8274,0.01666666753590107,-1.1165778252072631,0.43179947165399785,-2.196169151061773,-2.436698593493551,-3.3497885668098926,-11.14755198276937,-71.94346169763317,53.99654884206146,9.061080070874302
8292,0.01666666753590107,-1.7108716057151554,0.1964724201709032,-3.6948031967192887,-2.8458079483032224,-3.324050898963213,-12.777106072235107,-84.21585680585287,59.81432980725449,-5.027435443781933
8308,0.01666666753590107,-2.2545950365453957,0.47703299034833907,-4.046420585894585,-3.2644939636230466,-2.8836674310982224,-13.2037228805542,-46.810626344601516,37.180964614948564,-8.117118899274567
8325,0.01666666753590107,-2.2572975735023615,0.746985072749853,-3.1012334927022454,-3.218854494476318,-2.552818104663491,-12.285845234569907,0.5121941249511108,-7.736037032270168,2.4513890440634265
8342,0.01666666753590107,-1.941510499382019,0.4958744689404964,-1.9848311701923607,-2.9405285514831543,-2.801666024237871,-11.16625668323934,-7.805510301412953,-15.6395161520432,6.050647300321325
8358,0.01666666753590107,-1.869129446043074,0.3195189541250467,-1.544638840985298,-2.8975825592041016,-2.9125474886238574,-10.746074291881918,-47.98341080622773,-1.4847700005526436,3.4183656052885767
8375,0.01666666753590107,-1.995388512302935,-0.019778467181324956,-1.7565496533066034,-2.974346503802389,-3.013701924243569,-11.043553848156332,-94.85375349474266,25.48127745353985,-18.04793818358537
8392,0.01666666753590107,-2.2998498902887103,0.2236339833408594,-2.5684704318255185,-3.1868321203369647,-2.543241590283811,-11.934795416149496,-91.70908658954461,28.87738411265359,-40.88259246582615
8408,0.01666666753590107,-2.155610200049728,0.21965338927209377,-2.5634406209647653,-2.955043325982615,-2.3719062417179346,-11.987617490276694,-56.868773161646054,13.479006081710398,-52.466108354736704
8425,0.01666666753590107,-1.3553291520506143,0.14208382737934588,-1.3978104494273662,-2.1137806445799767,-2.361282264111936,-10.849175185394287,-9.087252502000144,-15.932119748539252,-48.64903664650757
8442,0.01666666753590107,-0.5499163671862334,0.27068185798078775,0.5992144319057464,-1.343745608697459,-2.239926167462766,-8.847322737774252,4.318807159374518,-37.91443130915955,-44.501223273004314
8458,0.01666666753590107,-0.33545850073061884,0.20136925230175257,1.430418587565422,-1.224484438500926,-2.327464165662229,-8.002768686676024,0.9829839633187216,-61.52023785435687,-41.89047567032074
8475,0.01666666753590107,-0.4841304743286222,0.29345015462785956,2.067935569858551,-1.5399205072265116,-2.2116446603521704,-7.354388365063071,-26.34638750626637,-56.475712850384745,-44.30653214580769
8492,0.01666666753590107,-0.7455203339595348,0.38734395159482954,1.7202485058695076,-1.901594522448629,-2.054973943085223,-7.706784921917319,-31.948715276733225,-47.786165188281515,-45.2425037036258
8508,0.01666666753590107,-0.7401162829589099,0.44641500311419363,1.7901088085591792,-1.9481318902831524,-1.9566621835455298,-7.640496047973633,-9.787971000461862,-23.059432392731313,-68.54398775525861
8525,0.01666666753590107,0.19716690524108707,0.7306777888104319,2.166870575863123,-1.0242692516051233,-1.7341510667547582,-7.24605132446289,24.25196463879532,-30.20669601948898,-87.07648346422678
8542,0.01666666753590107,0.058398851346224544,0.4613265949115157,1.612407724353671,-1.1773485202513634,-2.1106392778143284,-7.7699325752258295,39.05546222133437,-24.05108365266337,-84.45583550234127
8558,0.01666666753590107,0.10167254120968282,0.755497172768414,2.158828139182925,-1.1200373910766095,-1.9475339974552393,-7.188440262493491,46.6571144279109,-10.090392140116162,-71.88773418419504
8575,0.01666666753590107,0.23855989592447877,0.7480114931881428,2.8219635468572375,-0.959775371319428,-2.1293439782842993,-6.476165268597007,41.637714274800665,-15.442502760528766,-50.72791058833308
8592,0.01666666753590107,0.6420860437743365,0.23614012143164873,2.8743612580925224,-0.5645825328551233,-2.7388179383978244,-6.391919882202148,25.870456509805297,-17.881467690491938,-40.82361378234309
8608,0.01666666753590107,0.9801792038574815,0.01699818881303072,2.7104303405642507,-0.2249050992552191,-3.004125409863889,-6.541108573150634,1.479705628726491,-5.06346341099328,-39.12823447184628
8625,0.01666666753590107,1.0357841867014765,-0.1935810826435685,2.000857006841898,-0.12285225349105894,-3.185935098432004,-7.26595254124105,-26.241665338364445,9.17515703661821,-33.34256905613065
8642,0.01666666753590107,0.7750589284591376,-0.4004828346312046,1.3280027537077665,-0.3287535962644964,-3.3262951707586645,-7.966705439648032,-33.6461743798323,18.790693935067573,-21.291436218526222
8658,0.01666666753590107,0.6059648560140282,-0.5984148059606552,1.2765718416780232,-0.4293100659910589,-3.4457056862980124,-8.05035286014974,-33.77545278534772,30.480255341031746,-4.487461605455057
8675,0.01666666753590107,0.5252551694646478,-0.8480252343401312,1.4020482331275939,-0.394145229107514,-3.5842703996405003,-7.970147104534506,-33.74706310406256,41.3204451576644,14.128932732182962
8692,0.01666666753590107,0.6046146835140883,-0.8531766257539392,1.6334166101127863,-0.23523009391464292,-3.5042145738899704,-7.770680763244629,-31.948875786178718,29.19915432445289,22.785700608912006
8708,0.01666666753590107,0.5527339088249952,-0.7753074963927269,1.03379125931859,-0.27338768287338316,-3.3499379121527073,-8.392723697552084,-24.51500717656356,-4.075331832917896,24.29163779258934
8725,0.01666666753590107,1.0936044344421476,-0.9536930557310581,0.50153731700778,0.19931750740371643,-3.4781773385748265,-8.932317481231689,-0.0461153828830898,-19.44227349131928,21.112753347196808
8742,0.01666666753590107,1.2337860083967447,-1.6075266743138432,0.2239788512557745,0.2825159420289099,-4.153491844342649,-9.198522778320312,20.445705120022318,-15.487337829788023,17.85362954698226
8758,0.01666666753590107,1.1404751258842647,-1.6652438270062206,-0.36332185549437995,0.1520318784851581,-4.269311349652708,-9.766097624859214,27.93145584657289,-5.243696308377461,14.072567449831078
8775,0.01666666753590107,0.6889702522851526,-1.207155191102624,-1.6167752719134092,-0.29523477302230894,-3.891775090844929,-10.997315828594564,23.502774849114964,19.84783817140359,24.2671618096986
8792,0.01666666753590107,-0.09722871354334056,-0.9422530855670571,-1.7216572036236524,-1.0338459121152759,-3.665523326221108,-11.09592700947225,13.940153133712979,35.514282344249565,41.76946520879562
8808,0.01666666753590107,-0.24531879560016095,-0.6589090221509337,-2.0066718306005,-1.1266212995115668,-3.389142672076821,-11.384278671917318,1.315349292624593,35.51465800465392,53.40535840335642
8825,0.01666666753590107,0.06468779542259871,-0.21960925786942243,-2.8628853398323058,-0.783502201025188,-2.9168863946110006,-12.253074599346517,-10.054349231866006,14.218049625378702,54.645710511346984
8842,0.01666666753590107,0.26643223771229385,-0.20841361785531043,-3.2962446081489323,-0.5986998334471136,-2.8651120759710667,-12.696451403808593,-12.944852845216843,5.106139713587989,50.57958961541167
8858,0.01666666753590107,0.17386406332589685,-0.28613749352693557,-3.3862177245408294,-0.7026980411253869,-2.896984885571897,-12.798204974365234,-15.630527623095462,14.089250186878834,46.12304827632926
8875,0.01666666753590107,-0.22157310528829693,0.04595248061865568,-3.7136294777423142,-1.077540311608836,-2.491317341779172,-13.147608779144287,-20.97236734654366,19.17845914217483,40.5625878579273
8891,0.01666666753590107,-0.291823503274098,0.9914970089465379,-3.549354861342907,-1.1355996288023888,-1.4829095300421118,-13.001113565063475,-22.679719978655502,9.316994452469986,35.220194889156325
8908,0.01666666753590107,-0.19094123565927146,1.3600208169981836,-3.3344226553738117,-1.052401048046723,-1.0524019978947936,-12.8005985915035,-21.197056664574983,-8.464221428931799,26.826544682276392
8925,0.01666666753590107,0.2015579067416489,2.1691449505358933,-3.741321202266216,-0.7565676515441387,-0.18390549180358648,-13.213149465069174,-6.8590650753894495,-36.02926494729019,24.348198589106218
8942,0.01666666753590107,0.4345329882711172,2.590870187421143,-3.6369992425262927,-0.6367079309325665,0.23433161070495842,-13.095834168243407,17.06832683961275,-37.02362096213357,33.991481423511466
8959,0.01666666753590107,0.35448264241330324,2.7271535118281838,-3.2034494200736283,-0.8128313905578106,0.3087014997735619,-12.635249623870848,41.34505091414937,-19.70395169880081,43.156888365089486
8975,0.01666666753590107,-0.05522760089896619,2.6971286681815982,-2.0153730234503744,-1.2788028886657208,0.1408081083551049,-11.403582507324218,48.06209117037169,6.1826035668782096,39.15627239838918
8992,0.01666666753590107,-0.3536836740553379,2.7149796744316816,-0.9779197344928979,-1.5722421565733848,0.06898205855041742,-10.341903708648681,32.584766397906904,16.217363816204617,31.16747482437258
9009,0.01666666753590107,-0.4716415796335786,2.7352783660948274,-0.5899029982030392,-1.6683095712523905,0.04683569319397211,-9.944615286144614,9.247342744635136,16.842727398874523,25.234840813191205
9025,0.01666666753590107,-0.7909672031436115,2.553482121530175,-0.026689269483089445,-1.957858334527537,-0.11103197877258061,-9.3920036154598,-15.883244622385934,15.591962667494277,22.508319796528617
9042,0.01666666753590107,-0.7311828887883574,2.2978987562209365,0.48670332049131393,-1.875557652459666,-0.30840397813171144,-8.897750610241294,-24.651052591999168,14.965303056429363,21.48025509058393
9058,0.01666666753590107,-0.43653190700337285,2.005657100600004,0.9621762219160794,-1.553238253961131,-0.5110132936224341,-8.450034899792074,-23.18075021276908,14.096771078928665,20.958198119110467
9077,0.01666666753590107,-0.3582828384138644,1.899432229848206,1.3871446785062551,-1.4525321466308085,-0.5597951524481177,-8.042871564483642,-18.40232767131336,15.89007651910324,21.694016105943234
9092,0.01666666753590107,-0.2842535064112395,2.000372876586765,2.1728578335791826,-1.3506287923399358,-0.4104566777653992,-7.272835871013998,-16.193572559778172,17.976929829426624,21.77108796053766
9109,0.01666666753590107,-0.15958981958404184,2.214640627297759,2.4899825860440727,-1.187374312768504,-0.13512348684743045,-6.975356899261474,-16.302514077039874,14.735257162541457,19.569407217435312
9125,0.01666666753590107,-0.13199307986721395,2.144426981125772,2.5133406652778385,-1.1423333209715782,-0.16116042990162968,-6.964732044872641,-14.925016893157336,8.609285255392761,16.29229782158883
9142,0.01666666753590107,-0.2426580519583076,1.8518430879384278,2.592811092355847,-1.2431890659056604,-0.42018312200978397,-6.894402371105551,-8.623724275298168,7.220032462174983,11.185471247102429
9159,0.01666666753590107,-0.224186283461377,1.740418018195033,2.6741362073898314,-1.1972503946166484,-0.5181958986029028,-6.8191346564143895,1.1915427224080033,13.48059324691878,0.9903988807147109
9175,0.01666666753590107,-0.21440021798424422,1.8091076696701347,2.60957225754261,-1.1462239717345684,-0.4577420144230127,-6.885873027691245,4.4589464194439,17.949981318056338,-5.212371780183314
9192,0.01666666753590107,-0.08141549673117697,1.8375111957252024,2.3313293166577815,-0.9653120357237756,-0.44188057455494995,-7.165695931243896,3.787086750885957,17.214569727479187,-7.312500416932263
9208,0.01666666753590107,0.2942609595540911,1.6708236729651689,2.080167859444022,-0.5412390666685998,-0.6127665719181299,-7.420228910717368,-3.8672155420207845,7.691895227211669,-3.574413443151977
9225,0.01666666753590107,0.418463458610326,1.5242694221735,1.893952629393339,-0.4147952914915979,-0.7372653505071998,-7.611915265655517,-14.350558710371535,-6.88276540492257,0.6031265144447533
9242,0.01666666753590107,0.45044374717362223,1.0009783923886715,1.5051508802056313,-0.418685942254588,-1.211466916821897,-8.009053466033935,-24.427420245741903,-20.765427982617908,0.7045628277473762
9258,0.01666666753590107,0.5043737825427204,0.40048531884923577,0.9225696031928062,-0.4481645501952618,-1.7218807832464575,-8.604162216186523,-28.19032513875825,-27.41952292299668,-3.4482344494158657
9275,0.01666666753590107,0.3919412162572145,0.21542904957532882,0.6929688204020261,-0.6209959825377911,-1.8426383294805884,-8.841636508831382,-24.20785356958809,-21.87586818504753,-6.294704473517867
9292,0.01666666753590107,0.22648396594449877,0.14723331909701226,0.06017886663079262,-0.8249521095275878,-1.856704118103534,-9.481786177715659,-21.69523358716279,-12.584242762702265,-10.075802002275369
9308,0.01666666753590107,0.029664047510176896,-0.1618484121657908,-0.2715846520394087,-1.0375869983397423,-2.095675517438352,-9.826252526092528,-24.266306328505056,-2.6938044105382266,-14.495457758518771
9325,0.01666666753590107,-0.022440818258374927,-0.24008958970978855,-0.31638533227443694,-1.0862193656921386,-2.113781521362811,-9.88341409072876,-27.305928339362907,-2.033232483357375,-18.146374869903592
9342,0.01666666753590107,0.14105273076593874,-0.1461290111169219,-0.3746002053558826,-0.9304465471129864,-1.9355631352849303,-9.956886154174803,-26.458614344518853,-11.743497702292471,-24.243307374022333
9358,0.01666666753590107,0.32602555954009294,-0.3477234504766762,-0.9455787228584289,-0.7739256135802716,-2.0877447244390845,-10.5337391166687,-17.522838362836666,-19.431334943363506,-25.069697084344053
9375,0.01666666753590107,0.19039850708469747,-0.3315349706113338,-1.190726034349203,-0.9491513206481933,-2.053627350781858,-10.77749877319336,-1.3685629762830451,-18.79936144512432,-19.59899047427793
9392,0.01666666753590107,-0.2749222720295191,-0.10312032886520027,-1.3171259703844784,-1.4562730136595665,-1.8629888974614441,-10.89197095554769,18.45193021261328,-12.613417915741975,-10.216350219921306
9408,0.01666666753590107,-0.6649367580078542,0.00799041423201561,-1.5783306827068329,-1.8761562759399413,-1.8044805943913758,-11.139621189770102,19.115245741406362,-15.647534794128795,-8.344691410909283
9425,0.01666666753590107,-0.652049073253572,0.033414778345823286,-1.8221160581946372,-1.9087771274290979,-1.8164516026921569,-11.37036237476766,6.9690571611228656,-24.87136888141439,-12.507200790185461
9441,0.01666666753590107,-0.9006275282368064,-0.31832696786150333,-2.4559505525827405,-2.242618621417135,-2.1698957689031957,-11.992256840515136,-7.463818135352017,-29.579527559330902,-19.00380949755031
9458,0.01666666753590107,-0.9987031409330666,0.028504063820093867,-2.7026374947309493,-2.3943511516295373,-1.815404285596311,-12.232724469757079,-2.3605033453160633,-20.2101267729067,-20.832367251578617
9475,0.01666666753590107,-0.9786579856395721,0.4159845012761652,-2.555627316865325,-2.399588467761129,-1.4475950555548072,-12.078148825073242,13.265924670173511,-7.593461102214383,-16.955973642860627
9492,0.01666666753590107,-0.9227953747726977,0.829799987950176,-1.8560165742307901,-2.337937628881633,-1.1162972547002137,-11.362880494579672,30.04799315902915,4.091004128855314,-8.802302986242736
9508,0.01666666753590107,-0.8145539035014808,1.100345360069722,-1.1095651699662208,-2.2191255176268516,-0.9238632962651551,-10.601674588775634,29.237734647979707,-0.34251322950436497,-8.236584030499968
9525,0.01666666753590107,-0.6349060691423714,1.103241373772174,-0.9523357959032058,-2.0471917647764086,-0.9876087693363428,-10.428842571911215,21.144734000438103,-10.81155510231102,-13.682716473706028
9542,0.01666666753590107,-0.5852396825671196,0.9255246536061167,-1.2778583743572234,-2.032527571868896,-1.2327154565557836,-10.733953645977378,16.266483121620766,-14.59792937908918,-22.43520262146363
9558,0.01666666753590107,-1.0129264582052826,1.0821613224729896,-1.1259428887933491,-2.472162559454143,-1.129465363831073,-10.567855905804038,19.95066496181084,-4.8997941492332036,-23.943962380815474
9575,0.01666666753590107,-1.1525282595105468,1.3163070552170275,-0.875200533774495,-2.59696046712026,-0.9536411794133484,-10.305541770935058,18.66840110552579,4.442183427673396,-25.736656519059334
9592,0.01666666753590107,-1.210162410094589,1.4387334114462136,-0.42606618869900703,-2.6068366950988766,-0.8916912114568054,-9.848847219738364,9.765028395039788,10.702362575597318,-26.352089006676042
9608,0.01666666753590107,-1.1686441125310956,1.3115639523431657,0.4850567223280668,-2.5275286189757287,-1.0447706262335181,-8.936806609344481,4.798032441449653,6.128952430947759,-23.845923553016405
9625,0.01666666753590107,-0.9954368326134979,1.4160183062911034,0.8181161260277032,-2.3368901656553147,-0.9605245091862976,-8.601168879589437,6.169300065922317,-2.5631721334632664,-20.660637512824277
9642,0.01666666753590107,-0.5645044991828501,1.4246473106876014,1.3195201720446348,-1.9039885779783128,-0.9907513051457703,-8.090156462749839,11.526308785743467,-5.293807271883729,-18.013210086750437
9657,0.01666666753590107,-0.38974984369277954,1.2467774457864462,1.3226836045116186,-1.7329527968809006,-1.2029375734075902,-8.077586904034018,10.414337767166112,-5.932951188090958,-17.926895278661693
9675,0.01666666753590107,-0.3571740003891289,1.1398723376855253,1.2065315062463282,-1.7015291923522948,-1.3344690271124242,-8.187122214508056,3.7695037095282284,-5.0727221593000555,-19.461191407772922
9692,0.01666666753590107,-0.3679221888966858,1.017250458884239,0.6890104381650686,-1.7118540408812462,-1.4627084535345434,-8.703222309875487,-4.60605033803258,-4.435103936598678,-18.572086900492145
9708,0.01666666753590107,-0.5610049666292966,0.9325359936729073,0.536549009156227,-1.902492201940715,-1.5418667459234594,-8.857498679351806,-3.466310331610893,-1.7262573150739684,-15.088261829415226
9725,0.01666666753590107,-0.5590086782455445,0.9447034013286233,0.5853641857296228,-1.8894737304136155,-1.5343845734745263,-8.809015511211753,4.4097993663842505,4.920164761545943,-9.921718911015406
9742,0.01666666753590107,-0.5574298846215009,1.0196616116791963,1.035956912919879,-1.8484730269834397,-1.4974237930849195,-8.353817920574546,16.492895354870225,15.779313048880436,-1.1847409212117284
9758,0.01666666753590107,-0.6287703428663313,0.7377426126301289,1.8764099584400653,-1.8795977946959435,-1.8234850084602832,-7.506869083294272,18.87994230940484,16.61440954284663,3.4868124250651555
9775,0.01666666753590107,-0.6407511419087648,0.5848743563860654,2.1478777061015366,-1.8598456309996545,-2.0186124437630175,-7.227945174407958,16.05843726704947,11.181657440224622,3.7666397258318773
9792,0.01666666753590107,-0.49515441103763874,0.34178631551265715,2.3907763618826863,-1.6913536891661582,-2.3009786020576954,-6.977002912902831,8.326701546409115,3.800187480600864,-3.145732628151994
9807,0.01666666753590107,-0.37575945839360353,0.11260434265583753,2.006537390565872,-1.5584754239622503,-2.547731010657549,-7.357979667553305,5.051142603504223,4.844865341041138,-10.115962660821397
9825,0.01666666753590107,-0.48497751961201424,0.055655251726508134,1.739918251979351,-1.6415244401793927,-2.620753576770425,-7.62328713901937,5.539451610288652,10.386520967997589,-12.477798533355848
9842,0.01666666753590107,-0.8710834538444876,0.07275806995779276,1.1367536211431026,-1.9605516652647406,-2.6279364740118383,-8.227523783001303,6.29576059151828,25.648347295732947,-9.738208803490087
9858,0.01666666753590107,-0.9700970780432223,0.08812719626426696,0.8618617442518473,-1.9759644115172326,-2.6273379235967993,-8.507495739635825,3.3714590677201026,36.949981277597075,-8.095905185486155
9875,0.01666666753590107,-0.9073192078951746,0.02499415600299835,0.7732353662937879,-1.8121110892698167,-2.6936270898014305,-8.605508370098471,-2.337841417980196,39.51739816018609,-7.5482435423616066
9892,0.01666666753590107,-0.553545517468825,-0.17054478271007537,0.8570382696181535,-1.3331211927000433,-2.8736417116463184,-8.537423844909668,-7.407363206767277,31.877213441406944,-6.962524085181748
9908,0.01666666753590107,-0.40089594547674057,-0.26148294474184514,0.9069739746540785,-1.108664860125631,-2.949058771680295,-8.49761965778768,-5.258971172682548,23.148530502906837,-5.22488383296913
9925,0.01666666753590107,-0.4679674942307174,-0.19142507365345954,0.7628028196066617,-1.1237781850401312,-2.8740903321966527,-8.646958570861816,1.0433286846357843,17.744829756145833,-4.597686344507077
9942,0.01666666753590107,-0.31176903411801904,-0.3280965205952525,0.37554362368583677,-0.9008181554380804,-3.0267203957706688,-9.03407046726644,6.894275127447688,20.11431970941893,-8.662867235657865
9958,0.01666666753590107,-0.5757283423781394,-0.43432139134705067,0.10548457377851009,-1.106569860607758,-3.1531644632086158,-9.30177214039266,8.539245080548865,21.80040142490806,-7.457370436775525
9975,0.01666666753590107,-0.7571179058380425,-0.28704057984650133,0.08991934037804603,-1.2354077643796801,-3.031060178540647,-9.312845323070883,12.035188614760681,19.117125750975408,-0.006316030671984174
9992,0.01666666753590107,-0.9595121172733604,-0.25905893246531486,0.12468611785471438,-1.3735233091825618,-3.057395812280476,-9.265110927471518,22.63597773966345,24.79412797963801,13.427776247840718
10008,0.01666666753590107,-0.8065314136307686,-0.38567192672938105,0.21550562194287776,-1.1707643560880794,-3.2474355690553782,-9.157222215160727,30.250661947176354,25.95745945945292,22.42319856399733
10025,0.01666666753590107,-0.5937885343994945,-0.492913573308289,0.2452098553329706,-0.9174279294554144,-3.430742218182981,-9.105448188781738,33.278723862863956,22.337964633344743,27.06627236931279
10042,0.01666666753590107,-0.23284292478347196,-0.8074012552678584,0.38761341618597506,-0.5207386601545848,-3.8467347566351293,-8.93171893081665,29.850819258069222,16.188492606582972,22.75088884225974
10058,0.01666666753590107,-0.20132406145315615,-0.9948428122431039,0.5571551593333482,-0.47255531521132216,-4.09827527629435,-8.741528951916099,23.981992874114106,10.38290352905842,18.05543090110487
10075,0.01666666753590107,-0.24673158500753342,-0.9348243968710302,0.4849065002024173,-0.5160998761717229,-4.08854912431091,-8.796895449829101,18.685015540681846,3.1558543281717184,17.27892035474446
10092,0.01666666753590107,-0.4041100852176547,-0.8106544118449092,0.1330295833081007,-0.6931211979521438,-4.016124524091184,-9.13043708408773,15.518978681118107,-1.674896853836411,21.1996043251354
10108,0.01666666753590107,-0.5265267603030428,-0.5981660918965935,-0.3651590077936649,-0.8393171368254349,-3.841497148242593,-9.61466436985433,17.560009959847168,-1.0687109482520212,23.77040556645816
10125,0.01666666753590107,-0.4723049389131367,-0.41755964163839815,-0.6573042173027992,-0.802207011093013,-3.7038311373054977,-9.891045023998618,19.228319523115925,4.441925588032229,24.778597837012693
10142,0.01666666753590107,-0.29207199814245105,-0.21055939771234988,-1.2795797913223503,-0.6220433361662552,-3.5495544755682347,-10.494383842357992,14.35990753179799,13.98158420744463,26.93549644482185
10158,0.01666666753590107,0.05599613758604973,-0.03672521806806326,-1.6645745494425295,-0.25722689473256466,-3.401113972638547,-10.870722415813804,8.986445740039926,20.418153844457777,30.244326946721166
10175,0.01666666753590107,0.2768912522812374,0.05792202761471271,-1.5615812079578637,-0.009875899185054004,-3.3185137231022117,-10.76418044193685,2.559146377277779,23.759400424157974,30.696584507518978
10192,0.01666666753590107,0.5622055745907127,0.34371903714090585,-1.3284066583335399,0.31618443940747526,-3.0125054079353806,-10.539574398693441,-15.092709990112196,19.104477948179838,21.51101997015296
10208,0.01666666753590107,0.42890740347430106,0.7095686575472354,-1.6115134058624505,0.2005145534348674,-2.590676418414712,-10.843338734325766,-29.517909007733632,8.35693452499653,14.241764042176987
10225,0.01666666753590107,0.3776204299598932,0.9412933006241917,-2.0296943942695855,0.15143340113535522,-2.2800290452703833,-11.289408431133626,-33.09049409462216,4.04485979770953,11.785774011933912
