msFromStart,interval,accx,accy,accz,accGx,accGy,accGz,rotRate_alpha,rotRate_beta,rotRate_gamma
1698923667012.0,16,-0.1,0.30000000000000004,0.2,-0.6000000000000001,9.600000000000001,2.0,7.6,17.9,0.1
1698923667028.0,16,-0.1,0.5,0.4,-0.5,9.700000000000001,2.1,12.000000000000002,18.900000000000002,0.9
1698923667045.0,16,-0.1,0.5,0.30000000000000004,-0.5,9.8,2.1,14.500000000000002,19.9,1.5000000000000002
1698923667061.0,16,0.0,0.5,0.0,-0.4,9.8,1.8,16.400000000000002,21.1,0.7
1698923667077.0,16,0.1,0.2,0.0,-0.30000000000000004,9.600000000000001,1.6,12.200000000000001,24.6,-1.4
1698923667094.0,16,0.1,0.0,0.1,-0.4,9.4,1.7000000000000002,9.8,25.8,-1.4
1698923667112.0,16,-0.1,-0.2,0.2,-0.6000000000000001,9.1,1.8,8.200000000000001,27.400000000000002,1.6
1698923667129.0,16,-0.30000000000000004,-0.2,0.1,-0.8,9.200000000000001,1.7000000000000002,7.300000000000001,25.700000000000003,4.0
1698923667144.0,16,-0.5,-0.1,0.1,-1.0,9.3,1.6,5.300000000000001,25.400000000000002,4.7
1698923667161.0,16,-0.5,0.1,0.1,-1.0,9.4,1.7000000000000002,4.7,24.7,4.5
1698923667178.0,16,-0.6000000000000001,0.2,0.1,-1.1,9.600000000000001,1.7000000000000002,5.6,20.8,3.3000000000000003
1698923667194.0,16,-0.6000000000000001,0.2,0.1,-1.1,9.600000000000001,1.6,6.000000000000001,18.900000000000002,2.5
1698923667211.0,16,-0.7000000000000001,0.2,0.1,-1.2000000000000002,9.600000000000001,1.6,6.1000000000000005,16.8,0.4
1698923667229.0,16,-0.5,0.1,0.0,-1.1,9.5,1.6,5.9,16.0,-0.5
1698923667244.0,16,-0.4,0.0,0.0,-1.0,9.4,1.5,5.4,14.0,-1.7
1698923667261.0,16,-0.30000000000000004,0.0,-0.1,-0.8,9.4,1.4000000000000001,3.8,12.700000000000001,-1.5000000000000002
1698923667278.0,16,-0.30000000000000004,0.0,-0.1,-0.9,9.4,1.3,2.3000000000000003,12.700000000000001,-1.0
1698923667295.0,16,-0.30000000000000004,0.2,-0.1,-0.9,9.600000000000001,1.3,-0.7,11.700000000000001,1.0999999999999999
1698923667312.0,16,-0.4,0.30000000000000004,0.0,-0.9,9.700000000000001,1.4000000000000001,-1.8,9.600000000000001,3.3000000000000003
1698923667329.0,16,-0.4,0.1,0.0,-1.0,9.5,1.4000000000000001,-1.5000000000000002,9.600000000000001,4.300000000000001
1698923667345.0,16,-0.4,-0.1,0.0,-1.0,9.3,1.5,0.0,9.600000000000001,4.300000000000001
1698923667361.0,16,-0.30000000000000004,-0.2,0.1,-0.9,9.200000000000001,1.6,1.4,9.1,4.1000000000000005
1698923667378.0,16,-0.30000000000000004,-0.2,0.2,-0.9,9.200000000000001,1.6,3.2,8.600000000000001,3.9
1698923667394.0,16,-0.30000000000000004,-0.2,0.2,-0.8,9.200000000000001,1.6,6.2,8.1,4.0
1698923667412.0,16,-0.30000000000000004,-0.2,0.1,-0.8,9.1,1.5,7.2,7.1000000000000005,4.6000000000000005
1698923667428.0,16,-0.30000000000000004,-0.2,0.2,-0.9,9.200000000000001,1.6,6.6000000000000005,3.9,5.1
1698923667444.0,16,-0.30000000000000004,-0.1,0.2,-0.9,9.3,1.5,6.1000000000000005,2.9,5.300000000000001
1698923667467.0,16,-0.30000000000000004,0.0,0.1,-0.9,9.4,1.5,2.8,2.3000000000000003,6.3
1698923667477.0,16,-0.4,0.0,0.1,-0.9,9.4,1.4000000000000001,2.4000000000000004,2.6,6.8
1698923667494.0,16,-0.4,-0.1,0.0,-0.9,9.3,1.4000000000000001,3.2,2.0,7.400000000000001
1698923667511.0,16,-0.4,-0.1,-0.1,-0.9,9.3,1.2000000000000002,3.6,0.7,7.300000000000001
1698923667528.0,16,-0.30000000000000004,0.1,-0.1,-0.8,9.5,1.3,3.1,-2.8,5.4
1698923667544.0,16,-0.2,0.1,0.1,-0.8,9.5,1.4000000000000001,4.300000000000001,-4.2,3.9
1698923667561.0,16,0.1,-0.1,-0.1,-0.5,9.3,1.2000000000000002,8.5,-7.1000000000000005,3.0000000000000004
1698923667578.0,16,0.1,-0.2,0.0,-0.4,9.3,1.2000000000000002,9.700000000000001,-4.800000000000001,4.3999999999999995
1698923667594.0,16,0.0,-0.2,0.2,-0.4,9.200000000000001,1.4000000000000001,12.5,-3.0000000000000004,4.7
1698923667611.0,16,0.0,-0.2,0.1,-0.5,9.3,1.3,14.200000000000001,-3.1,4.3999999999999995
1698923667628.0,16,-0.1,-0.1,0.2,-0.6000000000000001,9.3,1.3,15.299999999999999,-6.5,3.4
1698923667644.0,16,-0.2,-0.1,0.2,-0.7000000000000001,9.3,1.3,15.100000000000001,-7.400000000000001,3.2
1698923667661.0,16,-0.30000000000000004,-0.1,0.2,-0.7000000000000001,9.3,1.3,14.200000000000001,-7.2,3.1
1698923667678.0,16,-0.2,0.0,0.2,-0.7000000000000001,9.4,1.3,12.4,-9.9,2.5
1698923667695.0,16,-0.2,0.1,0.1,-0.7000000000000001,9.5,1.2000000000000002,11.6,-11.6,1.5000000000000002
1698923667713.0,16,0.0,0.1,0.1,-0.5,9.600000000000001,1.1,9.5,-14.4,-1.0
1698923667727.0,16,0.1,0.2,0.0,-0.30000000000000004,9.600000000000001,1.0,7.8,-16.0,-2.4000000000000004
1698923667744.0,16,0.30000000000000004,0.30000000000000004,-0.1,-0.2,9.700000000000001,0.9,4.7,-14.500000000000002,-1.4
1698923667761.0,16,0.30000000000000004,0.30000000000000004,-0.2,-0.2,9.8,0.8,3.2,-13.8,-0.8
1698923667778.0,16,0.4,0.2,-0.2,-0.1,9.700000000000001,0.7000000000000001,0.4,-13.9,0.0
1698923667794.0,16,0.4,0.1,-0.1,-0.1,9.600000000000001,0.9,0.1,-12.6,-0.30000000000000004
1698923667810.0,16,0.30000000000000004,0.0,-0.1,-0.1,9.5,0.9,0.7,-11.6,-0.4
1698923667828.0,16,0.30000000000000004,0.0,-0.1,-0.1,9.5,0.9,1.4,-9.8,-0.1
1698923667844.0,16,0.2,0.2,0.1,-0.2,9.700000000000001,1.1,3.4,-7.500000000000001,1.4
1698923667861.0,16,0.2,0.30000000000000004,0.1,-0.2,9.700000000000001,1.1,4.9,-6.8,2.1999999999999997
1698923667878.0,16,0.2,0.2,0.2,-0.2,9.700000000000001,1.1,7.400000000000001,-6.000000000000001,3.4
1698923667894.0,16,0.2,-0.1,0.2,-0.2,9.4,1.2000000000000002,7.9,-4.7,3.8
1698923667911.0,16,0.1,-0.2,0.2,-0.30000000000000004,9.3,1.1,7.1000000000000005,-3.7000000000000006,4.0
1698923667930.0,16,0.1,-0.2,0.0,-0.30000000000000004,9.200000000000001,0.8,2.4000000000000004,-2.9,4.0
1698923667944.0,16,0.2,-0.2,-0.1,-0.2,9.3,0.8,-3.3000000000000003,-5.8,2.9
1698923667961.0,16,0.2,-0.1,0.0,-0.2,9.4,0.9,-5.2,-7.400000000000001,1.9
1698923667978.0,16,0.2,0.0,-0.1,-0.2,9.4,0.8,-6.9,-8.4,0.8
1698923667994.0,16,0.2,-0.1,0.0,-0.1,9.4,0.9,-6.1000000000000005,-7.6,1.3
1698923668011.0,16,0.2,0.0,0.0,-0.2,9.5,0.9,-4.3999999999999995,-7.1000000000000005,2.0
1698923668029.0,16,0.1,0.0,-0.1,-0.2,9.4,0.9,-0.5,-6.4,3.3000000000000003
1698923668044.0,16,0.1,-0.1,0.1,-0.2,9.4,1.1,4.1000000000000005,-6.1000000000000005,3.1
1698923668062.0,16,0.0,-0.1,0.2,-0.2,9.4,1.1,7.0,-5.6,2.8
1698923668078.0,16,0.1,-0.2,0.2,-0.2,9.200000000000001,1.1,12.3,-5.500000000000001,3.0000000000000004
1698923668094.0,16,0.2,-0.30000000000000004,0.2,-0.1,9.200000000000001,1.1,13.6,-5.500000000000001,3.3000000000000003
1698923668111.0,16,0.30000000000000004,0.0,0.1,0.0,9.3,1.0,11.5,-6.7,2.3000000000000003
1698923668127.0,16,0.2,0.2,0.1,0.0,9.600000000000001,1.0,9.700000000000001,-7.0,1.9
1698923668144.0,16,0.0,0.5,0.1,-0.2,10.0,0.9,4.800000000000001,-4.300000000000001,2.7
1698923668161.0,16,0.0,0.6000000000000001,0.0,-0.2,10.100000000000001,0.8,-0.5,-2.1,2.1999999999999997
1698923668178.0,16,0.0,0.5,0.0,-0.2,10.0,0.8,-2.6,-2.8,1.0
1698923668194.0,16,0.1,0.1,-0.1,-0.1,9.600000000000001,0.8,-5.7,-4.9,0.2
1698923668212.0,16,0.0,-0.2,0.1,-0.1,9.3,0.9,-4.800000000000001,-6.3,0.5
1698923668230.0,16,0.0,-0.2,0.1,-0.2,9.3,0.9,-2.7,-7.2,0.5
1698923668244.0,16,0.1,-0.2,0.1,-0.1,9.3,0.9,2.4000000000000004,-9.1,-0.1
1698923668261.0,16,0.1,-0.2,0.1,0.0,9.3,0.9,6.5,-8.9,-0.1
1698923668278.0,16,0.2,-0.2,0.1,0.0,9.3,0.9,7.300000000000001,-8.200000000000001,0.0
1698923668294.0,16,0.2,-0.2,0.0,0.1,9.3,0.9,6.5,-6.9,0.7
1698923668311.0,16,0.2,0.0,0.1,0.1,9.4,0.9,3.9,-5.9,1.0999999999999999
1698923668328.0,16,0.2,0.1,0.0,0.0,9.600000000000001,0.8,2.6,-4.9,1.5000000000000002
1698923668344.0,16,0.2,0.2,0.1,0.1,9.700000000000001,0.9,0.7,-4.2,1.0999999999999999
1698923668361.0,16,0.30000000000000004,0.30000000000000004,0.1,0.1,9.700000000000001,0.9,0.6000000000000001,-4.300000000000001,0.7
1698923668378.0,16,0.2,0.30000000000000004,0.1,0.1,9.700000000000001,0.9,0.0,-3.1,0.8
1698923668395.0,16,0.2,0.2,0.0,0.0,9.700000000000001,0.8,-2.4000000000000004,0.2,1.9
1698923668411.0,16,0.1,0.2,0.0,0.0,9.700000000000001,0.9,-3.7000000000000006,0.9,2.3000000000000003
1698923668427.0,16,0.0,-0.1,0.30000000000000004,-0.1,9.4,1.1,-4.7,1.0999999999999999,4.300000000000001
1698923668444.0,16,-0.1,-0.30000000000000004,0.4,-0.2,9.200000000000001,1.2000000000000002,-3.2,1.0999999999999999,4.800000000000001
1698923668461.0,16,-0.2,-0.4,0.0,-0.30000000000000004,9.1,0.8,0.0,0.0,4.1000000000000005
1698923668477.0,16,-0.30000000000000004,-0.30000000000000004,-0.1,-0.30000000000000004,9.1,0.8,-0.1,-1.9,3.0000000000000004
1698923668495.0,16,-0.1,-0.1,0.0,-0.1,9.4,0.9,0.7,-4.9,-0.4
1698923668511.0,16,0.2,0.2,-0.2,0.0,9.5,0.7000000000000001,0.2,-3.9,-2.0
1698923668528.0,16,0.2,0.30000000000000004,-0.1,0.2,9.8,0.7000000000000001,-0.4,-3.7000000000000006,-1.6
1698923668544.0,16,0.2,0.4,-0.1,0.1,9.8,0.7000000000000001,0.1,-3.4,0.1
1698923668561.0,16,0.0,0.2,-0.2,0.0,9.700000000000001,0.7000000000000001,0.0,-3.4,2.3000000000000003
1698923668577.0,16,-0.1,0.1,-0.2,-0.1,9.5,0.7000000000000001,-0.5,-2.5,3.0000000000000004
1698923668595.0,16,-0.1,-0.30000000000000004,-0.1,-0.2,9.200000000000001,0.7000000000000001,-1.0999999999999999,-1.2000000000000002,4.1000000000000005
1698923668611.0,16,-0.1,-0.2,-0.2,-0.2,9.200000000000001,0.7000000000000001,-0.6000000000000001,-5.7,2.6
1698923668629.0,16,-0.2,-0.1,-0.2,-0.2,9.4,0.7000000000000001,-1.0,-7.8,1.0999999999999999
1698923668644.0,16,-0.30000000000000004,0.0,-0.1,-0.30000000000000004,9.4,0.7000000000000001,-3.1,-9.4,0.4
1698923668661.0,16,-0.2,0.0,-0.1,-0.2,9.5,0.7000000000000001,-4.1000000000000005,-10.700000000000001,-0.6000000000000001
1698923668678.0,16,-0.2,0.0,-0.2,-0.2,9.5,0.7000000000000001,-4.3999999999999995,-14.100000000000001,-2.5
1698923668695.0,16,-0.1,0.0,-0.1,-0.1,9.5,0.8,-4.2,-14.900000000000002,-2.9
1698923668711.0,16,-0.1,0.0,-0.30000000000000004,-0.1,9.5,0.6000000000000001,-3.3000000000000003,-18.0,-1.6
1698923668727.0,16,-0.2,0.1,-0.30000000000000004,-0.30000000000000004,9.600000000000001,0.6000000000000001,-4.5,-22.900000000000002,-1.0999999999999999
1698923668744.0,16,-0.30000000000000004,0.2,-0.30000000000000004,-0.30000000000000004,9.700000000000001,0.6000000000000001,-5.6,-24.5,-1.2000000000000002
1698923668761.0,16,-0.30000000000000004,0.1,-0.2,-0.4,9.600000000000001,0.6000000000000001,-7.500000000000001,-27.900000000000002,-0.9
1698923668777.0,16,-0.30000000000000004,0.1,-0.2,-0.4,9.600000000000001,0.7000000000000001,-9.0,-31.4,-0.7
1698923668795.0,16,-0.4,0.0,-0.2,-0.5,9.5,0.7000000000000001,-9.0,-33.400000000000006,-1.2000000000000002
1698923668811.0,16,-0.4,0.0,-0.2,-0.6000000000000001,9.5,0.8,-7.400000000000001,-38.2,-2.8
1698923668828.0,16,-0.5,0.0,-0.2,-0.6000000000000001,9.5,0.8,-5.500000000000001,-42.5,-5.1
1698923668845.0,16,-0.5,0.0,-0.1,-0.6000000000000001,9.4,0.8,-4.5,-44.00000000000001,-6.1000000000000005
1698923668861.0,16,-0.30000000000000004,0.0,-0.2,-0.4,9.5,0.8,-3.0000000000000004,-46.7,-7.2
1698923668878.0,16,-0.1,0.1,-0.1,-0.30000000000000004,9.5,0.8,-2.7,-48.6,-8.3
1698923668894.0,16,0.0,0.1,-0.2,-0.2,9.600000000000001,0.8,-3.0000000000000004,-49.8,-8.600000000000001
1698923668911.0,16,-0.1,0.2,0.0,-0.30000000000000004,9.700000000000001,0.9,-3.9,-51.0,-9.0
1698923668928.0,16,-0.2,0.2,-0.1,-0.4,9.700000000000001,0.9,-4.300000000000001,-50.300000000000004,-8.9
1698923668944.0,16,-0.2,0.2,-0.1,-0.4,9.700000000000001,0.9,-5.8,-50.800000000000004,-8.700000000000001
1698923668961.0,16,-0.2,0.0,0.0,-0.4,9.600000000000001,0.9,-7.1000000000000005,-51.2,-9.1
1698923668978.0,16,-0.2,-0.1,0.0,-0.4,9.4,1.1,-8.799999999999999,-53.400000000000006,-8.5
1698923668995.0,16,-0.1,-0.1,-0.1,-0.4,9.4,1.0,-9.3,-54.3,-8.200000000000001
1698923669011.0,16,0.0,-0.1,-0.2,-0.30000000000000004,9.4,1.0,-10.700000000000001,-56.300000000000004,-8.4
1698923669028.0,16,0.0,-0.2,-0.2,-0.2,9.3,1.0,-11.1,-57.1,-8.9
1698923669046.0,16,0.2,-0.1,-0.30000000000000004,-0.1,9.3,0.9,-11.1,-58.9,-9.200000000000001
1698923669061.0,16,0.2,0.0,-0.4,0.0,9.4,0.9,-11.4,-58.9,-8.0
1698923669077.0,16,0.2,0.0,-0.4,0.0,9.5,0.9,-12.6,-59.300000000000004,-6.1000000000000005
1698923669094.0,16,0.2,0.0,-0.30000000000000004,-0.1,9.4,1.0,-12.4,-60.20000000000001,-4.7
1698923669112.0,16,0.0,0.0,-0.30000000000000004,-0.2,9.4,1.1,-10.9,-62.1,-1.2000000000000002
1698923669128.0,16,0.0,-0.1,-0.2,-0.2,9.4,1.1,-10.4,-62.8,-1.5000000000000002
1698923669144.0,16,0.0,-0.1,-0.2,-0.2,9.3,1.2000000000000002,-9.200000000000001,-65.2,-4.7
1698923669162.0,16,-0.1,-0.1,-0.30000000000000004,-0.30000000000000004,9.3,1.1,-9.200000000000001,-65.5,-6.7
1698923669178.0,16,0.0,-0.1,-0.30000000000000004,-0.2,9.3,1.1,-9.4,-65.3,-7.2
1698923669195.0,16,-0.1,-0.2,-0.2,-0.2,9.200000000000001,1.2000000000000002,-7.9,-65.7,-8.1
1698923669211.0,16,0.1,-0.2,-0.2,-0.1,9.200000000000001,1.2000000000000002,-4.5,-66.7,-9.4
1698923669228.0,16,0.1,-0.1,-0.2,0.0,9.200000000000001,1.2000000000000002,-3.0000000000000004,-66.80000000000001,-9.700000000000001
1698923669244.0,16,0.30000000000000004,-0.1,-0.30000000000000004,0.1,9.3,1.1,-1.3,-67.1,-9.9
1698923669261.0,16,0.5,0.0,-0.2,0.30000000000000004,9.4,1.2000000000000002,-0.7,-65.3,-9.8
1698923669277.0,16,0.5,0.1,-0.2,0.4,9.4,1.2000000000000002,-0.30000000000000004,-64.10000000000001,-9.600000000000001
1698923669294.0,16,0.5,0.2,-0.2,0.4,9.5,1.2000000000000002,-0.9,-61.300000000000004,-9.200000000000001
1698923669311.0,16,0.5,0.1,-0.2,0.30000000000000004,9.5,1.2000000000000002,-3.0000000000000004,-56.7,-8.600000000000001
1698923669328.0,16,0.5,0.1,-0.30000000000000004,0.4,9.4,1.2000000000000002,-5.8,-54.800000000000004,-8.799999999999999
1698923669345.0,16,0.6000000000000001,0.1,-0.30000000000000004,0.4,9.4,1.2000000000000002,-6.7,-53.6,-8.600000000000001
1698923669361.0,16,0.5,0.0,-0.30000000000000004,0.4,9.4,1.1,-7.400000000000001,-50.7,-7.8
1698923669377.0,16,0.4,0.0,-0.4,0.30000000000000004,9.4,1.0,-7.2,-47.0,-7.1000000000000005
1698923669394.0,16,0.5,0.0,-0.30000000000000004,0.4,9.4,1.2000000000000002,-6.5,-44.5,-7.9
1698923669411.0,16,0.4,0.1,-0.1,0.4,9.4,1.3,-4.6000000000000005,-43.7,-7.9
1698923669428.0,16,0.2,0.1,0.0,0.2,9.5,1.5,0.1,-43.1,-6.5
1698923669444.0,16,0.1,0.1,0.1,0.1,9.5,1.5,1.5000000000000002,-41.1,-5.9
1698923669462.0,16,0.0,0.1,0.1,0.0,9.4,1.6,2.4000000000000004,-36.800000000000004,-6.2
1698923669477.0,16,0.1,0.1,0.0,0.0,9.5,1.5,-0.5,-35.199999999999996,-8.700000000000001
1698923669494.0,16,0.1,0.1,0.0,0.1,9.5,1.5,-2.9,-33.800000000000004,-10.5
1698923669511.0,16,0.30000000000000004,0.1,0.0,0.2,9.4,1.5,-7.400000000000001,-31.4,-11.4
1698923669528.0,16,0.4,0.0,-0.1,0.30000000000000004,9.4,1.4000000000000001,-7.8,-28.700000000000003,-9.8
1698923669544.0,16,0.5,-0.1,-0.2,0.4,9.200000000000001,1.4000000000000001,-6.3,-27.0,-8.1
1698923669561.0,16,0.5,-0.1,-0.1,0.4,9.200000000000001,1.4000000000000001,-4.2,-26.0,-7.500000000000001
1698923669578.0,16,0.4,-0.1,0.0,0.30000000000000004,9.3,1.5,-0.1,-22.900000000000002,-7.300000000000001
1698923669594.0,16,0.30000000000000004,0.0,0.1,0.2,9.3,1.6,1.3,-20.7,-6.9
1698923669611.0,16,0.1,0.0,0.2,0.0,9.4,1.8,2.6,-16.1,-4.9
1698923669628.0,16,0.1,-0.1,0.30000000000000004,0.0,9.3,1.8,2.3000000000000003,-11.1,-3.4
1698923669644.0,16,0.2,-0.2,0.1,0.0,9.200000000000001,1.8,2.0,-8.600000000000001,-3.5
1698923669661.0,16,0.4,-0.2,0.0,0.2,9.200000000000001,1.6,-0.4,-4.3999999999999995,-3.6
1698923669677.0,16,0.6000000000000001,0.0,-0.1,0.4,9.3,1.4000000000000001,-2.1999999999999997,-0.5,-3.4
1698923669694.0,16,0.6000000000000001,0.1,-0.2,0.4,9.4,1.4000000000000001,-2.7,5.500000000000001,-2.1999999999999997
1698923669711.0,16,0.6000000000000001,0.1,-0.2,0.5,9.5,1.4000000000000001,-2.1999999999999997,8.4,-1.5000000000000002
1698923669727.0,16,0.6000000000000001,0.2,-0.1,0.5,9.5,1.5,0.6000000000000001,12.700000000000001,-0.1
1698923669744.0,16,0.5,0.2,0.0,0.4,9.5,1.5,2.5,19.0,1.2000000000000002
1698923669761.0,16,0.5,0.2,0.0,0.30000000000000004,9.5,1.5,2.1,23.2,1.4
1698923669778.0,16,0.4,0.2,0.1,0.30000000000000004,9.5,1.6,0.0,31.900000000000002,1.8
1698923669794.0,16,0.5,0.1,0.0,0.30000000000000004,9.5,1.5,-2.9,38.400000000000006,2.3000000000000003
1698923669811.0,16,0.5,0.1,0.1,0.4,9.4,1.6,-4.2,40.9,2.8
1698923669828.0,16,0.4,-0.2,0.0,0.30000000000000004,9.200000000000001,1.6,-4.0,45.9,4.9
1698923669844.0,16,0.30000000000000004,-0.30000000000000004,0.0,0.2,9.1,1.6,-3.2,48.9,5.8
1698923669861.0,16,0.30000000000000004,-0.30000000000000004,-0.1,0.2,9.1,1.5,-0.5,54.7,6.5
1698923669877.0,16,0.30000000000000004,-0.2,-0.1,0.1,9.200000000000001,1.4000000000000001,0.9,59.20000000000001,6.5
1698923669894.0,16,0.2,-0.1,-0.2,0.1,9.200000000000001,1.4000000000000001,1.7,62.199999999999996,7.699999999999999
1698923669911.0,16,0.2,-0.1,-0.2,0.1,9.3,1.4000000000000001,1.7,62.900000000000006,8.5
1698923669927.0,16,0.2,-0.1,-0.2,0.0,9.3,1.3,1.4,65.10000000000001,9.8
1698923669944.0,16,0.2,-0.1,-0.2,0.0,9.3,1.3,1.5000000000000002,68.9,10.4
1698923669961.0,16,0.2,-0.1,-0.2,0.0,9.3,1.3,2.0,70.8,10.5
1698923669977.0,16,0.2,-0.1,-0.2,0.0,9.200000000000001,1.3,3.6,72.7,11.1
1698923669994.0,16,0.2,-0.1,-0.2,0.0,9.200000000000001,1.2000000000000002,7.0,75.4,11.8
1698923670010.0,16,0.2,-0.1,-0.2,0.0,9.200000000000001,1.2000000000000002,8.5,76.2,11.9
1698923670027.0,16,0.1,-0.1,-0.2,0.0,9.200000000000001,1.2000000000000002,10.600000000000001,78.60000000000001,11.9
1698923670044.0,16,0.1,-0.1,-0.2,0.0,9.200000000000001,1.1,11.9,81.30000000000001,12.6
1698923670061.0,16,0.1,-0.1,-0.2,0.0,9.3,1.1,12.000000000000002,81.30000000000001,12.8
1698923670077.0,16,0.1,0.0,-0.2,0.0,9.3,1.1,12.100000000000001,81.0,13.5
1698923670094.0,16,0.0,0.0,-0.2,0.0,9.4,1.0,11.8,80.7,14.3
1698923670111.0,16,0.0,0.2,-0.2,0.0,9.5,1.0,11.700000000000001,81.10000000000001,14.3
1698923670127.0,16,-0.1,0.4,-0.1,-0.2,9.700000000000001,1.0,12.000000000000002,81.0,13.700000000000001
1698923670144.0,16,-0.30000000000000004,0.4,-0.2,-0.30000000000000004,9.700000000000001,0.9,12.200000000000001,82.2,11.9
1698923670161.0,16,-0.30000000000000004,0.30000000000000004,-0.30000000000000004,-0.30000000000000004,9.700000000000001,0.8,10.8,82.4,9.9
1698923670178.0,16,-0.2,0.1,-0.1,-0.30000000000000004,9.5,0.9,10.3,82.0,9.200000000000001
1698923670194.0,16,-0.2,0.1,-0.1,-0.2,9.5,0.9,10.700000000000001,80.5,8.5
1698923670211.0,16,-0.2,0.1,-0.1,-0.2,9.5,0.9,11.4,80.0,8.600000000000001
1698923670227.0,16,-0.2,0.1,-0.1,-0.2,9.4,0.8,11.4,80.4,8.700000000000001
1698923670244.0,16,-0.2,0.0,-0.1,-0.2,9.4,0.8,10.4,80.10000000000001,8.5
1698923670261.0,16,-0.2,0.1,0.0,-0.2,9.5,0.9,10.0,79.7,8.1
1698923670278.0,16,-0.30000000000000004,0.2,0.0,-0.30000000000000004,9.600000000000001,0.8,10.600000000000001,78.5,6.9
1698923670294.0,16,-0.4,0.30000000000000004,0.0,-0.5,9.700000000000001,0.8,9.3,76.9,6.3
1698923670311.0,16,-0.4,0.30000000000000004,0.1,-0.5,9.700000000000001,0.8,8.200000000000001,74.8,4.9
1698923670328.0,16,-0.4,0.30000000000000004,0.1,-0.6000000000000001,9.700000000000001,0.9,8.1,73.4,4.300000000000001
1698923670344.0,16,-0.5,0.30000000000000004,0.2,-0.6000000000000001,9.700000000000001,0.9,7.6,69.9,3.8
1698923670360.0,16,-0.5,0.2,0.30000000000000004,-0.6000000000000001,9.700000000000001,1.0,6.2,65.5,3.8
1698923670378.0,16,-0.5,0.2,0.30000000000000004,-0.7000000000000001,9.600000000000001,1.0,5.4,63.800000000000004,4.0
1698923670394.0,16,-0.6000000000000001,0.1,0.2,-0.8,9.600000000000001,0.9,2.3000000000000003,61.7,2.8
1698923670410.0,16,-0.7000000000000001,0.0,0.1,-0.9,9.5,0.8,-2.0,58.400000000000006,0.4
1698923670428.0,16,-0.7000000000000001,-0.1,0.1,-0.9,9.4,0.7000000000000001,-3.6,56.5,-0.30000000000000004
1698923670444.0,16,-0.7000000000000001,-0.1,0.0,-0.9,9.4,0.7000000000000001,-4.800000000000001,51.2,-0.4
1698923670461.0,16,-0.7000000000000001,-0.1,0.0,-0.9,9.3,0.7000000000000001,-4.5,47.6,0.0
1698923670478.0,16,-0.8,-0.1,-0.1,-1.0,9.3,0.6000000000000001,-3.1,40.1,1.8
1698923670494.0,16,-0.9,-0.1,-0.1,-1.1,9.4,0.6000000000000001,-1.3,35.1,3.5
1698923670512.0,16,-0.9,0.0,-0.1,-1.1,9.4,0.6000000000000001,-0.2,33.2,3.5
1698923670528.0,16,-0.8,0.1,-0.1,-1.1,9.600000000000001,0.6000000000000001,2.8,29.1,1.2000000000000002
1698923670544.0,16,-0.6000000000000001,0.2,0.0,-0.9,9.700000000000001,0.7000000000000001,6.4,26.400000000000002,-1.4
1698923670561.0,16,-0.5,0.2,0.1,-0.8,9.600000000000001,0.7000000000000001,9.0,23.1,-1.7
1698923670578.0,16,-0.5,0.1,0.2,-0.8,9.5,0.8,9.200000000000001,21.200000000000003,-0.30000000000000004
1698923670595.0,16,-0.5,-0.1,0.2,-0.9,9.4,0.8,8.1,17.599999999999998,1.9
1698923670611.0,16,-0.5,-0.1,0.2,-0.9,9.3,0.8,6.7,15.100000000000001,1.6
1698923670629.0,16,-0.5,-0.1,0.2,-0.9,9.4,0.8,2.1,11.8,-0.1
1698923670644.0,16,-0.4,-0.1,0.1,-0.8,9.4,0.7000000000000001,-1.0999999999999999,9.200000000000001,-1.2000000000000002
1698923670661.0,16,-0.30000000000000004,0.0,0.0,-0.7000000000000001,9.5,0.6000000000000001,-2.1999999999999997,7.0,-1.7
1698923670678.0,16,-0.2,0.1,0.0,-0.7000000000000001,9.5,0.6000000000000001,-1.9,6.3,-1.3
1698923670694.0,16,-0.2,0.1,0.0,-0.6000000000000001,9.600000000000001,0.6000000000000001,0.30000000000000004,4.7,-0.6000000000000001
1698923670711.0,16,-0.2,0.1,0.0,-0.6000000000000001,9.600000000000001,0.6000000000000001,2.6,3.9,-0.2
1698923670729.0,16,-0.2,0.2,0.1,-0.6000000000000001,9.700000000000001,0.7000000000000001,3.9,1.9,-0.4
1698923670744.0,16,-0.2,0.2,0.1,-0.7000000000000001,9.700000000000001,0.7000000000000001,4.2,0.4,-0.9
1698923670761.0,16,-0.30000000000000004,0.1,0.1,-0.7000000000000001,9.700000000000001,0.7000000000000001,3.8,-0.5,-1.0999999999999999
1698923670777.0,16,-0.30000000000000004,0.1,0.1,-0.7000000000000001,9.600000000000001,0.6000000000000001,-0.6000000000000001,-1.5000000000000002,-1.7
1698923670795.0,16,-0.2,0.0,0.1,-0.7000000000000001,9.5,0.7000000000000001,-2.0,-1.8,-1.8
1698923670812.0,16,0.0,-0.1,0.1,-0.5,9.4,0.7000000000000001,-3.2,-2.4000000000000004,-1.5000000000000002
1698923670829.0,16,0.1,-0.1,0.0,-0.5,9.4,0.7000000000000001,-3.1,-3.3000000000000003,-1.4
1698923670845.0,16,0.1,0.0,0.0,-0.4,9.5,0.7000000000000001,-2.7,-5.0,-0.9
1698923670861.0,16,0.0,0.0,0.0,-0.5,9.5,0.7000000000000001,-2.7,-5.300000000000001,-0.4
1698923670879.0,16,-0.1,0.1,0.1,-0.6000000000000001,9.600000000000001,0.7000000000000001,-1.7,-6.9,0.30000000000000004
1698923670896.0,16,0.0,0.1,0.0,-0.6000000000000001,9.600000000000001,0.7000000000000001,-1.3,-7.699999999999999,0.30000000000000004
1698923670911.0,16,0.0,0.0,-0.1,-0.5,9.5,0.6000000000000001,-1.6,-7.6,0.8
1698923670928.0,16,0.1,-0.1,0.0,-0.4,9.5,0.6000000000000001,-2.0,-8.600000000000001,1.6
1698923670945.0,16,0.0,-0.2,0.0,-0.4,9.3,0.6000000000000001,-2.1999999999999997,-8.5,3.5
1698923670962.0,16,0.0,0.0,-0.1,-0.4,9.5,0.5,-2.1,-8.3,4.1000000000000005
1698923670978.0,16,0.1,0.0,-0.1,-0.4,9.5,0.6000000000000001,-1.6,-8.4,3.0000000000000004
1698923670995.0,16,0.1,0.0,-0.1,-0.4,9.5,0.6000000000000001,0.1,-7.8,1.0
1698923671010.0,16,0.1,0.0,0.0,-0.4,9.5,0.6000000000000001,1.7,-8.0,1.6
1698923671028.0,16,0.0,0.0,0.0,-0.4,9.5,0.6000000000000001,2.4000000000000004,-8.5,2.4000000000000004
1698923671044.0,16,0.0,0.0,0.0,-0.4,9.5,0.6000000000000001,2.4000000000000004,-9.700000000000001,3.2
1698923671061.0,16,-0.1,0.0,0.0,-0.4,9.5,0.6000000000000001,1.9,-10.0,3.6
1698923671078.0,16,-0.1,0.0,0.1,-0.5,9.5,0.7000000000000001,-0.2,-11.000000000000002,3.3000000000000003
1698923671094.0,16,-0.1,0.0,0.1,-0.5,9.5,0.8,-0.7,-11.4,2.8
1698923671111.0,16,-0.1,-0.1,0.1,-0.5,9.4,0.7000000000000001,-1.0,-12.6,1.8
1698923671128.0,16,0.0,0.0,0.0,-0.4,9.5,0.7000000000000001,-0.9,-13.3,1.3
1698923671145.0,16,0.1,0.0,0.0,-0.30000000000000004,9.5,0.7000000000000001,-0.6000000000000001,-13.3,0.4
1698923671162.0,16,0.1,-0.1,0.0,-0.30000000000000004,9.4,0.7000000000000001,-0.1,-12.5,0.9
1698923671178.0,16,0.1,-0.1,0.1,-0.30000000000000004,9.4,0.7000000000000001,0.1,-12.5,1.5000000000000002
1698923671194.0,16,0.0,0.0,0.1,-0.4,9.5,0.8,0.7,-13.200000000000001,1.6
1698923671211.0,16,-0.1,0.0,0.1,-0.4,9.5,0.8,1.7,-13.200000000000001,1.0
1698923671229.0,16,0.0,0.0,0.1,-0.4,9.5,0.8,1.7,-13.3,0.7
1698923671244.0,16,0.0,0.0,0.1,-0.30000000000000004,9.5,0.8,1.0999999999999999,-14.100000000000001,0.1
1698923671261.0,16,0.1,-0.1,0.1,-0.2,9.4,0.8,1.0,-14.3,0.2
1698923671277.0,16,0.1,0.0,0.2,-0.2,9.5,0.9,0.7,-13.6,0.4
1698923671294.0,16,0.1,0.0,0.2,-0.2,9.5,0.9,0.5,-12.4,0.4
1698923671311.0,16,0.2,0.0,0.1,-0.1,9.5,0.9,0.2,-10.8,-0.1
1698923671327.0,16,0.2,-0.1,0.1,-0.1,9.4,0.9,0.4,-9.1,-0.5
1698923671344.0,16,0.2,-0.1,0.1,-0.1,9.4,0.9,0.7,-8.3,0.0
1698923671361.0,16,0.1,-0.1,0.1,-0.2,9.4,0.9,0.6000000000000001,-7.9,1.0
1698923671377.0,16,0.0,-0.1,0.1,-0.30000000000000004,9.4,0.9,0.0,-8.0,0.9
1698923671394.0,16,0.0,0.0,0.2,-0.30000000000000004,9.4,0.9,-0.2,-8.4,0.30000000000000004
1698923671412.0,16,0.0,-0.1,0.1,-0.2,9.4,0.9,-0.7,-8.5,0.0
1698923671428.0,16,0.0,-0.1,0.1,-0.2,9.4,0.9,-1.0999999999999999,-8.4,0.30000000000000004
1698923671445.0,16,0.1,0.0,0.1,-0.2,9.5,0.8,-1.6,-7.6,0.0
1698923671461.0,16,0.1,0.0,0.0,-0.1,9.4,0.8,-0.7,-6.7,-0.1
1698923671477.0,16,0.2,0.0,0.0,0.0,9.5,0.8,0.4,-5.2,0.0
1698923671494.0,16,0.2,0.0,0.0,0.0,9.5,0.8,0.6000000000000001,-4.1000000000000005,0.2
1698923671511.0,16,0.2,0.0,0.0,0.0,9.5,0.8,0.9,-2.6,0.5
1698923671528.0,16,0.1,0.0,0.0,-0.1,9.5,0.8,0.9,-1.7,0.8
1698923671544.0,16,0.0,0.1,0.0,-0.2,9.5,0.8,0.9,-0.30000000000000004,0.4
1698923671561.0,16,0.0,0.0,0.1,-0.2,9.5,0.8,0.9,0.2,0.5
1698923671577.0,16,0.0,-0.1,-0.1,-0.2,9.4,0.7000000000000001,0.5,1.0999999999999999,1.0999999999999999
1698923671594.0,16,-0.1,0.0,-0.1,-0.30000000000000004,9.4,0.7000000000000001,-0.30000000000000004,1.6,0.6000000000000001
1698923671611.0,16,-0.1,0.0,-0.1,-0.30000000000000004,9.5,0.7000000000000001,-0.30000000000000004,1.3,0.4
1698923671627.0,16,0.0,0.0,-0.1,-0.2,9.5,0.7000000000000001,0.8,1.0999999999999999,0.30000000000000004
1698923671644.0,16,0.0,0.0,-0.1,-0.2,9.5,0.7000000000000001,1.4,1.2000000000000002,0.5
1698923671661.0,16,0.0,-0.1,0.0,-0.2,9.4,0.8,2.1,1.4,0.8
1698923671677.0,16,0.0,-0.1,0.0,-0.2,9.3,0.7000000000000001,2.5,1.3,0.4
1698923671694.0,16,0.0,0.0,0.0,-0.1,9.4,0.7000000000000001,1.9,1.4,0.5
1698923671711.0,16,0.0,0.0,0.0,-0.2,9.4,0.7000000000000001,1.4,1.7,0.5
1698923671727.0,16,0.0,0.0,-0.1,-0.2,9.4,0.6000000000000001,0.6000000000000001,1.5000000000000002,0.6000000000000001
1698923671744.0,16,-0.1,0.0,-0.1,-0.30000000000000004,9.4,0.6000000000000001,0.7,1.3,0.7
1698923671761.0,16,-0.2,0.0,-0.1,-0.4,9.5,0.6000000000000001,1.7,1.4,1.0
1698923671777.0,16,-0.1,0.0,-0.1,-0.30000000000000004,9.5,0.6000000000000001,3.5,1.0,0.9
1698923671794.0,16,-0.1,0.1,0.0,-0.30000000000000004,9.5,0.7000000000000001,4.5,1.2000000000000002,0.5
1698923671811.0,16,0.0,0.0,0.0,-0.2,9.5,0.7000000000000001,4.5,0.8,0.4
1698923671827.0,16,0.1,0.0,0.0,-0.1,9.5,0.7000000000000001,3.4,0.5,1.0999999999999999
1698923671844.0,16,0.0,0.0,0.0,-0.2,9.5,0.7000000000000001,1.8,1.2000000000000002,1.5000000000000002
1698923671861.0,16,0.0,0.0,0.0,-0.2,9.5,0.7000000000000001,1.3,1.0999999999999999,1.0
1698923671877.0,16,0.1,0.1,0.0,-0.1,9.5,0.7000000000000001,1.4,0.5,0.30000000000000004
1698923671894.0,16,0.1,0.1,0.0,-0.1,9.5,0.7000000000000001,1.0,0.7,0.5
1698923671911.0,16,0.1,0.1,0.0,-0.1,9.600000000000001,0.6000000000000001,0.5,1.2000000000000002,0.7
1698923671927.0,16,0.0,0.1,0.0,-0.2,9.600000000000001,0.6000000000000001,-1.2000000000000002,2.3000000000000003,1.0999999999999999
1698923671944.0,16,0.0,0.1,-0.1,-0.2,9.600000000000001,0.6000000000000001,-1.6,2.3000000000000003,0.9
1698923671961.0,16,0.0,0.0,-0.1,-0.2,9.5,0.6000000000000001,-1.5000000000000002,1.9,0.9
1698923671977.0,16,-0.1,0.0,-0.1,-0.2,9.5,0.5,-1.3,1.3,1.4
1698923671994.0,16,-0.1,0.1,-0.1,-0.30000000000000004,9.5,0.6000000000000001,-0.8,0.9,0.9
1698923672011.0,16,-0.1,0.1,-0.1,-0.30000000000000004,9.600000000000001,0.6000000000000001,-0.6000000000000001,0.4,0.2
1698923672028.0,16,0.0,0.1,0.0,-0.2,9.600000000000001,0.6000000000000001,-0.5,-0.9,-0.9
1698923672044.0,16,0.1,0.0,-0.1,-0.1,9.5,0.6000000000000001,-0.7,-1.8,-0.5
1698923672061.0,16,0.1,-0.1,0.0,-0.1,9.4,0.6000000000000001,-1.0999999999999999,-1.6,-0.4
1698923672077.0,16,0.1,-0.1,0.0,-0.1,9.4,0.7000000000000001,-1.9,-0.2,-0.2
1698923672094.0,16,0.0,0.0,0.0,-0.1,9.4,0.6000000000000001,-1.5000000000000002,0.8,0.0
1698923672110.0,16,0.0,0.0,0.0,-0.1,9.5,0.7000000000000001,-1.0,0.7,-0.1
1698923672127.0,16,0.0,0.0,0.0,-0.2,9.5,0.6000000000000001,-0.30000000000000004,0.9,-0.30000000000000004
1698923672144.0,16,0.0,0.0,0.0,-0.2,9.5,0.7000000000000001,-0.2,1.2000000000000002,-0.4
1698923672161.0,16,-0.1,0.1,0.0,-0.2,9.5,0.7000000000000001,-0.8,1.4,-0.8
1698923672177.0,16,0.0,0.1,0.0,-0.2,9.5,0.7000000000000001,-1.3,1.4,-0.9
1698923672194.0,16,0.0,0.1,0.1,-0.1,9.5,0.7000000000000001,-1.8,0.9,-0.9
1698923672211.0,16,0.0,0.1,0.1,-0.1,9.600000000000001,0.7000000000000001,-1.9,0.8,-0.9
1698923672228.0,16,0.0,0.1,0.1,-0.2,9.600000000000001,0.8,-1.8,1.3,-0.6000000000000001
1698923672244.0,16,-0.1,0.1,0.1,-0.2,9.600000000000001,0.8,-2.3000000000000003,2.3000000000000003,-1.2000000000000002
1698923672260.0,16,0.0,0.1,0.2,-0.2,9.600000000000001,0.9,-3.0000000000000004,2.4000000000000004,-1.8
1698923672278.0,16,0.0,0.0,0.1,-0.2,9.5,0.9,-3.7000000000000006,2.7,-2.0
1698923672294.0,16,0.0,0.0,0.1,-0.2,9.5,0.9,-5.2,3.3000000000000003,-1.9
1698923672311.0,16,0.0,0.0,0.1,-0.2,9.5,0.9,-5.500000000000001,3.3000000000000003,-2.0
1698923672327.0,16,0.0,0.0,0.1,-0.30000000000000004,9.5,0.9,-5.9,3.4,-2.1999999999999997
1698923672344.0,16,0.0,-0.1,0.1,-0.2,9.4,0.9,-5.500000000000001,3.9,-2.4000000000000004
1698923672361.0,16,0.0,-0.1,0.1,-0.2,9.4,0.9,-5.2,4.2,-2.3000000000000003
1698923672378.0,16,0.0,-0.1,0.1,-0.2,9.4,0.9,-5.0,5.2,-1.8
1698923672394.0,16,-0.1,-0.1,0.0,-0.30000000000000004,9.3,0.9,-4.5,5.4,-1.4
1698923672411.0,16,-0.1,-0.1,0.0,-0.30000000000000004,9.4,0.9,-4.6000000000000005,5.6,-1.2000000000000002
1698923672428.0,16,-0.1,-0.1,0.0,-0.30000000000000004,9.4,0.9,-4.1000000000000005,4.9,-1.0
1698923672444.0,16,-0.1,-0.1,0.0,-0.30000000000000004,9.4,0.9,-3.7000000000000006,4.6000000000000005,-0.9
1698923672461.0,16,-0.1,-0.1,-0.1,-0.4,9.4,0.8,-3.5,4.2,-1.0
1698923672479.0,16,-0.1,0.0,-0.1,-0.4,9.4,0.8,-3.2,3.5,-1.0
1698923672497.0,16,-0.1,0.0,-0.1,-0.4,9.4,0.8,-2.1,2.4000000000000004,-0.4
1698923672511.0,16,-0.1,-0.1,-0.1,-0.4,9.4,0.8,-1.0999999999999999,2.3000000000000003,-0.2
1698923672528.0,16,-0.1,-0.1,-0.1,-0.5,9.4,0.8,-0.30000000000000004,2.0,-0.30000000000000004
1698923672544.0,16,-0.1,0.0,0.0,-0.5,9.4,0.9,-0.4,1.4,-0.4
1698923672561.0,16,-0.1,-0.1,0.0,-0.4,9.4,0.9,-0.5,1.0999999999999999,-0.30000000000000004
1698923672578.0,16,-0.1,0.0,0.0,-0.4,9.4,0.9,-0.7,0.1,-0.4
1698923672594.0,16,-0.1,0.0,0.0,-0.4,9.4,0.9,-0.8,-0.2,-0.4
1698923672610.0,16,0.0,0.0,-0.1,-0.4,9.5,0.8,-0.9,-0.2,-0.30000000000000004
1698923672627.0,16,0.0,0.0,-0.1,-0.4,9.5,0.8,-0.7,-0.5,-0.30000000000000004
1698923672644.0,16,0.0,0.0,0.0,-0.30000000000000004,9.5,0.9,0.0,-0.5,0.2
1698923672660.0,16,0.0,0.0,-0.1,-0.4,9.5,0.8,0.4,-0.7,0.2
1698923672677.0,16,0.0,0.0,-0.1,-0.30000000000000004,9.5,0.8,0.5,-1.0999999999999999,0.2
1698923672694.0,16,0.0,0.0,-0.1,-0.4,9.5,0.8,0.5,-0.7,0.2
1698923672711.0,16,0.0,0.0,0.0,-0.30000000000000004,9.5,0.9,0.30000000000000004,-0.30000000000000004,0.2
1698923672727.0,16,0.0,0.0,-0.1,-0.30000000000000004,9.5,0.8,0.4,-0.30000000000000004,0.1
1698923672744.0,16,0.0,0.0,-0.1,-0.30000000000000004,9.5,0.8,0.1,-0.2,0.2
1698923672761.0,16,-0.1,0.1,-0.1,-0.4,9.5,0.8,-0.2,-0.5,0.2
1698923672778.0,16,0.0,0.0,-0.1,-0.4,9.5,0.8,-0.30000000000000004,-1.0,0.2
1698923672794.0,16,0.0,0.0,-0.1,-0.30000000000000004,9.5,0.8,-0.2,-2.1,0.4
1698923672811.0,16,-0.1,0.0,0.0,-0.4,9.5,0.9,-0.1,-1.9,0.5
1698923672828.0,16,0.0,0.1,0.0,-0.4,9.5,0.8,0.1,-1.9,0.30000000000000004
1698923672844.0,16,0.1,0.0,-0.1,-0.2,9.5,0.8,-0.2,-3.1,-0.30000000000000004
1698923672862.0,16,0.1,0.0,-0.1,-0.2,9.4,0.8,-0.6000000000000001,-3.4,0.2
1698923672878.0,16,0.0,0.0,-0.1,-0.30000000000000004,9.4,0.8,-1.0999999999999999,-3.1,0.8
1698923672895.0,16,0.0,0.0,0.0,-0.30000000000000004,9.5,0.8,-1.0,-2.7,0.4
1698923672910.0,16,0.0,0.0,0.0,-0.30000000000000004,9.5,0.8,-0.6000000000000001,-2.9,-0.2
1698923672927.0,16,0.1,0.0,0.0,-0.2,9.4,0.8,-0.5,-3.3000000000000003,-0.5
1698923672944.0,16,0.1,0.0,0.0,-0.2,9.4,0.8,-0.7,-3.3000000000000003,-0.1
1698923672961.0,16,0.0,0.0,0.0,-0.30000000000000004,9.4,0.8,-1.0999999999999999,-2.7,0.30000000000000004
1698923672978.0,16,0.0,0.0,0.0,-0.30000000000000004,9.4,0.8,-1.0,-2.8,0.4
1698923672995.0,16,0.0,0.0,0.0,-0.30000000000000004,9.5,0.8,-0.30000000000000004,-3.8,0.5
1698923673011.0,16,0.0,0.1,0.0,-0.30000000000000004,9.5,0.9,0.6000000000000001,-3.7000000000000006,0.7
1698923673029.0,16,0.1,0.0,0.0,-0.2,9.5,0.9,0.6000000000000001,-3.1,1.0
1698923673044.0,16,0.1,0.0,0.1,-0.2,9.5,0.9,0.4,-2.7,0.7
1698923673061.0,16,0.1,0.1,0.1,-0.2,9.5,0.9,-0.2,-3.2,0.4
1698923673077.0,16,0.1,0.1,0.1,-0.2,9.5,1.0,-0.5,-3.4,0.5
1698923673095.0,16,0.0,0.0,0.1,-0.30000000000000004,9.5,1.0,-1.5000000000000002,-3.0000000000000004,0.8
1698923673114.0,16,0.0,0.0,0.0,-0.30000000000000004,9.5,0.9,-2.8,-2.6,0.4
1698923673127.0,16,0.0,0.0,0.0,-0.30000000000000004,9.5,0.9,-2.9,-3.0000000000000004,-0.30000000000000004
1698923673145.0,16,0.0,0.0,0.0,-0.30000000000000004,9.5,1.0,-2.4000000000000004,-3.3000000000000003,-0.30000000000000004
1698923673161.0,16,0.1,0.0,0.0,-0.2,9.5,0.9,-1.0999999999999999,-3.1,-0.30000000000000004
1698923673177.0,16,0.1,0.0,0.0,-0.2,9.5,1.0,-0.6000000000000001,-2.3000000000000003,-0.30000000000000004
1698923673195.0,16,0.1,0.0,0.0,-0.2,9.5,1.0,-0.7,-1.7,-0.4
1698923673211.0,16,0.1,0.1,0.1,-0.1,9.5,1.0,-1.0999999999999999,-1.3,-0.2
1698923673227.0,16,0.1,0.0,0.1,-0.1,9.5,1.0,-1.6,-1.0999999999999999,-0.1
1698923673245.0,16,0.1,0.0,0.1,-0.2,9.5,1.0,-2.9,-0.5,0.30000000000000004
1698923673261.0,16,0.0,0.0,0.0,-0.2,9.4,1.0,-3.8,0.30000000000000004,0.1
1698923673277.0,16,0.0,0.0,0.1,-0.2,9.4,1.0,-3.8,0.30000000000000004,-0.2
1698923673295.0,16,0.0,0.0,0.0,-0.30000000000000004,9.5,1.0,-3.4,0.30000000000000004,-0.4
1698923673311.0,16,0.0,0.0,0.0,-0.30000000000000004,9.4,1.0,-2.9,0.8,0.0
1698923673327.0,16,0.0,0.0,0.1,-0.2,9.4,1.1,-2.9,0.9,0.2
1698923673343.0,16,0.0,0.0,0.0,-0.2,9.5,1.1,-3.3000000000000003,1.0,-0.1
1698923673360.0,16,0.0,0.0,0.1,-0.2,9.5,1.1,-3.7000000000000006,0.9,-0.4
1698923673377.0,16,0.0,0.0,0.0,-0.2,9.5,1.1,-4.300000000000001,0.9,-0.4
1698923673394.0,16,0.0,0.0,0.0,-0.2,9.5,1.0,-4.5,1.3,-0.2
1698923673411.0,16,0.0,0.0,0.0,-0.2,9.5,1.1,-4.800000000000001,1.9,0.2
1698923673429.0,16,0.0,0.0,-0.1,-0.2,9.5,1.0,-4.0,1.3,0.8
1698923673445.0,16,0.0,-0.1,0.0,-0.30000000000000004,9.4,1.1,-3.7000000000000006,1.2000000000000002,0.5
1698923673461.0,16,0.0,0.0,0.0,-0.30000000000000004,9.4,1.1,-3.2,1.0,-0.4
1698923673477.0,16,0.0,0.0,0.0,-0.2,9.5,1.1,-3.8,1.4,-0.1
1698923673494.0,16,0.0,0.0,0.0,-0.2,9.5,1.1,-4.3999999999999995,1.4,-0.1
1698923673511.0,16,0.1,0.0,0.0,-0.2,9.4,1.1,-5.7,0.6000000000000001,0.0
1698923673527.0,16,0.1,0.0,0.0,-0.2,9.5,1.1,-6.000000000000001,0.4,0.1
1698923673544.0,16,0.0,0.0,-0.1,-0.2,9.4,1.1,-6.5,-0.30000000000000004,0.4
1698923673561.0,16,0.1,0.0,-0.1,-0.2,9.5,1.1,-6.2,-0.8,0.2
1698923673577.0,16,0.0,0.1,-0.1,-0.2,9.5,1.1,-5.9,-1.8,0.6000000000000001
1698923673593.0,16,0.0,0.1,-0.1,-0.2,9.5,1.1,-6.2,-2.6,0.6000000000000001
1698923673611.0,16,0.0,0.1,-0.1,-0.2,9.600000000000001,1.1,-6.4,-3.0000000000000004,0.2
1698923673627.0,16,0.0,0.0,-0.1,-0.2,9.5,1.1,-6.6000000000000005,-3.4,-0.30000000000000004
1698923673645.0,16,0.0,0.0,-0.1,-0.2,9.4,1.1,-7.0,-3.4,-1.6
1698923673661.0,16,0.1,0.0,-0.2,-0.1,9.4,1.1,-7.300000000000001,-3.8,-2.1
1698923673677.0,16,0.1,0.0,-0.2,-0.1,9.4,1.1,-8.1,-4.9,-2.1
1698923673694.0,16,0.1,0.0,-0.30000000000000004,-0.1,9.4,1.0,-8.1,-5.2,-1.8
1698923673712.0,16,0.1,0.0,-0.30000000000000004,-0.2,9.4,1.0,-8.4,-5.300000000000001,-2.0
1698923673727.0,16,0.0,0.0,-0.2,-0.2,9.4,1.1,-8.0,-6.2,-2.5
1698923673744.0,16,0.0,0.0,-0.30000000000000004,-0.30000000000000004,9.4,1.0,-7.2,-8.200000000000001,-2.8
1698923673762.0,16,-0.1,0.0,-0.30000000000000004,-0.30000000000000004,9.4,1.0,-6.9,-9.600000000000001,-2.8
1698923673777.0,16,-0.1,0.0,-0.30000000000000004,-0.4,9.4,1.0,-7.1000000000000005,-11.4,-3.7000000000000006
1698923673794.0,16,0.0,-0.1,-0.30000000000000004,-0.30000000000000004,9.3,1.0,-6.6000000000000005,-12.9,-4.5
1698923673811.0,16,0.0,-0.1,-0.30000000000000004,-0.30000000000000004,9.3,1.1,-5.9,-13.4,-5.1
1698923673828.0,16,0.1,0.0,-0.30000000000000004,-0.2,9.4,1.0,-4.5,-14.100000000000001,-6.2
1698923673844.0,16,0.1,0.0,-0.30000000000000004,-0.2,9.4,1.1,-3.7000000000000006,-13.200000000000001,-7.0
1698923673860.0,16,0.1,0.1,-0.2,-0.2,9.5,1.1,-2.9,-12.100000000000001,-7.6
1698923673877.0,16,0.1,0.2,0.0,-0.2,9.600000000000001,1.3,-0.7,-10.0,-9.0
1698923673894.0,16,0.2,0.30000000000000004,0.1,-0.1,9.700000000000001,1.4000000000000001,1.3,-7.0,-9.5
1698923673911.0,16,0.30000000000000004,0.30000000000000004,0.2,-0.1,9.700000000000001,1.5,1.5000000000000002,-5.0,-9.5
1698923673928.0,16,0.30000000000000004,0.1,0.30000000000000004,-0.1,9.600000000000001,1.5,-0.4,0.4,-8.600000000000001
1698923673944.0,16,0.30000000000000004,-0.1,0.4,-0.1,9.3,1.8,-4.0,6.6000000000000005,-6.7
1698923673961.0,16,0.30000000000000004,-0.1,0.4,-0.1,9.3,1.7000000000000002,-6.8,10.0,-5.9
1698923673977.0,16,0.2,-0.30000000000000004,0.30000000000000004,-0.2,9.1,1.7000000000000002,-14.4,15.399999999999999,-2.9
1698923673994.0,16,0.30000000000000004,-0.30000000000000004,0.2,-0.2,9.1,1.6,-22.2,17.1,1.5000000000000002
1698923674010.0,16,0.2,0.1,0.0,-0.30000000000000004,9.5,1.4000000000000001,-25.0,17.5,3.2
1698923674027.0,16,0.0,0.2,-0.4,-0.4,9.600000000000001,1.2000000000000002,-30.200000000000003,17.5,5.7
1698923674044.0,16,-0.1,0.2,-0.8,-0.5,9.600000000000001,1.0,-31.8,16.400000000000002,6.5
1698923674061.0,16,-0.2,0.2,-0.9,-0.6000000000000001,9.5,0.8,-31.5,14.700000000000001,6.6000000000000005
1698923674077.0,16,-0.4,0.4,-1.0,-0.8,9.8,0.8,-27.5,11.700000000000001,6.2
1698923674094.0,16,-0.6000000000000001,0.7000000000000001,-0.9,-0.9,10.0,1.0,-20.3,12.8,4.9
1698923674111.0,16,-0.6000000000000001,0.8,-1.1,-1.0,10.100000000000001,0.8,-16.400000000000002,14.900000000000002,3.3000000000000003
1698923674127.0,16,-0.5,0.4,-1.2000000000000002,-0.9,9.700000000000001,0.7000000000000001,-12.9,16.900000000000002,-1.4
1698923674144.0,16,-0.30000000000000004,-0.30000000000000004,-1.3,-0.8,9.0,0.7000000000000001,-13.5,18.7,-4.1000000000000005
1698923674160.0,16,-0.30000000000000004,-0.5,-1.3,-0.7000000000000001,8.8,0.7000000000000001,-14.500000000000002,18.900000000000002,-4.6000000000000005
1698923674177.0,16,-0.1,-0.6000000000000001,-1.5,-0.6000000000000001,8.6,0.5,-16.6,17.8,-4.300000000000001
1698923674194.0,16,-0.1,-0.6000000000000001,-1.6,-0.6000000000000001,8.6,0.4,-18.6,17.200000000000003,-1.5000000000000002
1698923674211.0,16,-0.1,-0.5,-1.6,-0.6000000000000001,8.700000000000001,0.4,-19.3,17.200000000000003,0.4
1698923674228.0,16,-0.2,-0.4,-1.8,-0.7000000000000001,8.8,0.30000000000000004,-19.200000000000003,17.5,3.5
1698923674244.0,16,-0.2,-0.5,-1.8,-0.7000000000000001,8.700000000000001,0.4,-17.9,17.9,5.1
1698923674261.0,16,-0.2,-0.5,-1.9000000000000001,-0.7000000000000001,8.700000000000001,0.30000000000000004,-16.3,18.3,5.8
1698923674277.0,16,-0.1,-0.30000000000000004,-1.9000000000000001,-0.6000000000000001,8.9,0.30000000000000004,-12.700000000000001,15.9,7.1000000000000005
1698923674294.0,16,-0.1,-0.30000000000000004,-1.8,-0.6000000000000001,8.9,0.4,-10.9,15.000000000000002,8.0
1698923674311.0,16,-0.2,-0.1,-1.8,-0.7000000000000001,9.1,0.4,-6.9,13.3,10.9
1698923674327.0,16,-0.30000000000000004,-0.1,-1.7000000000000002,-0.8,9.1,0.4,-6.4,11.6,11.4
1698923674344.0,16,-0.4,0.0,-1.5,-0.9,9.1,0.5,-5.7,6.6000000000000005,11.8
1698923674360.0,16,-0.6000000000000001,0.1,-1.4000000000000001,-1.0,9.200000000000001,0.6000000000000001,-5.6,3.8,11.5
1698923674377.0,16,-0.8,0.4,-1.3,-1.2000000000000002,9.600000000000001,0.7000000000000001,-5.0,0.1,9.1
1698923674394.0,16,-0.8,0.6000000000000001,-1.1,-1.2000000000000002,9.8,0.9,-4.3999999999999995,-2.7,3.8
1698923674410.0,16,-0.6000000000000001,0.9,-1.0,-1.0,10.0,0.9,-2.6,1.0999999999999999,-1.6
1698923674427.0,16,-0.5,1.1,-1.2000000000000002,-0.9,10.200000000000001,0.8,-2.1999999999999997,1.7,-4.2
1698923674444.0,16,-0.2,1.2000000000000002,-1.2000000000000002,-0.7000000000000001,10.4,0.8,-4.9,-0.7,-8.9
1698923674461.0,16,-0.30000000000000004,1.6,-1.2000000000000002,-0.7000000000000001,10.5,0.8,-6.1000000000000005,0.1,-9.600000000000001
1698923674477.0,16,-0.4,1.9000000000000001,-1.2000000000000002,-0.9,11.0,0.8,-7.400000000000001,0.8,-9.700000000000001
1698923674494.0,16,-0.5,2.6,-1.5,-1.1,11.8,0.6000000000000001,-7.6,3.6,-10.700000000000001
1698923674510.0,16,-0.8,2.9000000000000004,-1.9000000000000001,-1.3,12.100000000000001,0.1,-9.0,5.1,-10.1
1698923674527.0,16,-0.8,2.7,-2.3000000000000003,-1.4000000000000001,12.0,-0.30000000000000004,-11.2,6.6000000000000005,-7.500000000000001
1698923674544.0,16,-0.9,2.3000000000000003,-3.0,-1.5,11.5,-0.9,-21.5,0.5,0.0
1698923674561.0,16,-1.5,3.2,0.8,-2.1,12.4,2.9000000000000004,-22.1,2.1999999999999997,8.3
1698923674578.0,16,-1.5,4.6000000000000005,0.2,-2.1,13.8,2.4000000000000004,-0.2,15.8,8.9
1698923674594.0,16,-0.7000000000000001,1.4000000000000001,-1.5,-1.3,10.600000000000001,0.6000000000000001,13.4,-3.9,0.6000000000000001
1698923674611.0,16,-0.4,0.2,2.0,-1.0,9.5,4.0,36.4,25.400000000000002,13.0
1698923674628.0,16,0.1,0.4,1.4000000000000001,-0.5,9.700000000000001,3.3000000000000003,57.9,24.7,13.4
1698923674644.0,16,0.6000000000000001,-0.7000000000000001,3.6,0.1,8.700000000000001,5.300000000000001,82.2,9.200000000000001,-0.1
1698923674661.0,16,0.8,-1.1,4.1000000000000005,0.2,8.3,5.7,86.1,16.2,-4.6000000000000005
1698923674678.0,16,0.7000000000000001,-1.6,4.1000000000000005,0.1,7.800000000000001,5.5,52.900000000000006,18.8,-10.1
1698923674696.0,16,0.4,-1.8,2.9000000000000004,-0.30000000000000004,7.6000000000000005,4.4,-34.2,5.9,-18.900000000000002
1698923674711.0,16,0.0,-1.3,2.5,-0.8,8.1,4.2,-73.2,16.700000000000003,-26.0
1698923674728.0,16,0.0,-0.7000000000000001,2.1,-0.8,8.6,3.9000000000000004,-71.10000000000001,21.900000000000002,-25.3
1698923674745.0,16,0.2,0.1,0.9,-0.7000000000000001,9.3,2.9000000000000004,-46.2,20.4,-12.100000000000001
1698923674760.0,16,0.2,0.2,0.30000000000000004,-0.6000000000000001,9.5,2.6,-13.6,7.8,7.8
1698923674777.0,16,0.0,-0.1,0.0,-0.8,9.1,2.1,0.2,2.0,13.4
1698923674795.0,16,-0.4,-0.8,0.5,-1.2000000000000002,8.4,2.5,14.0,-1.6,10.700000000000001
1698923674811.0,16,-0.6000000000000001,-1.1,1.1,-1.3,8.3,2.9000000000000004,17.7,-8.600000000000001,3.1
1698923674827.0,16,-0.6000000000000001,-1.1,1.3,-1.4000000000000001,8.1,3.2,9.3,-13.0,-3.9
1698923674844.0,16,-0.5,-1.2000000000000002,1.2000000000000002,-1.3,8.0,3.1,1.7,-12.8,-6.1000000000000005
1698923674860.0,16,-0.1,-1.4000000000000001,0.7000000000000001,-0.9,7.800000000000001,2.7,-13.4,-11.6,-7.2
1698923674877.0,16,0.2,-1.4000000000000001,0.5,-0.6000000000000001,7.800000000000001,2.5,-18.2,-12.000000000000002,-8.0
1698923674894.0,16,0.9,-1.5,-0.1,0.0,7.7,2.0,-21.700000000000003,-11.5,-9.600000000000001
1698923674911.0,16,1.1,-1.6,-0.4,0.4,7.5,1.6,-20.8,-7.8,-8.799999999999999
1698923674927.0,16,1.3,-1.7000000000000002,-0.8,0.4,7.5,1.4000000000000001,-19.0,-5.6,-5.7
1698923674944.0,16,1.3,-1.7000000000000002,-1.1,0.4,7.4,1.1,-13.200000000000001,-2.8,4.3999999999999995
1698923674960.0,16,1.0,-1.6,-1.3,0.2,7.5,0.9,-7.699999999999999,0.8,11.2
1698923674978.0,16,0.6000000000000001,-1.6,-1.4000000000000001,-0.1,7.5,0.9,-2.5,8.1,10.5
1698923674995.0,16,0.30000000000000004,-1.6,-1.3,-0.4,7.5,0.9,0.30000000000000004,12.100000000000001,7.400000000000001
1698923675010.0,16,0.5,-1.2000000000000002,-1.4000000000000001,-0.30000000000000004,7.800000000000001,0.8,7.300000000000001,17.1,0.4
1698923675027.0,16,0.6000000000000001,-1.1,-1.4000000000000001,-0.1,8.0,0.8,9.8,19.0,-2.1
1698923675044.0,16,0.8,-0.9,-1.5,0.0,8.1,0.7000000000000001,14.200000000000001,26.200000000000003,-1.8
1698923675061.0,16,0.9,-0.7000000000000001,-1.7000000000000002,0.1,8.4,0.30000000000000004,15.5,26.0,3.0000000000000004
1698923675078.0,16,0.6000000000000001,-0.4,-1.6,-0.2,8.700000000000001,0.4,14.3,23.2,7.0
1698923675095.0,16,-0.1,0.7000000000000001,-1.4000000000000001,-0.9,9.8,0.5,14.0,13.9,18.6
1698923675111.0,16,-0.9,1.8,-0.8,-1.6,10.9,1.1,11.3,0.0,25.3
1698923675127.0,16,-1.0,2.7,-0.7000000000000001,-1.6,11.8,1.2000000000000002,8.9,-13.5,24.8
1698923675144.0,16,-0.8,3.0,-0.7000000000000001,-1.3,12.100000000000001,1.1,4.7,-16.1,22.900000000000002
1698923675160.0,16,-0.5,3.0,-0.4,-1.0,12.200000000000001,1.5,-9.9,-10.9,16.6
1698923675177.0,16,0.2,4.7,0.5,-0.30000000000000004,13.9,2.4000000000000004,-7.9,-16.1,17.1
1698923675194.0,16,0.2,5.300000000000001,0.5,-0.2,14.600000000000001,2.4000000000000004,-1.5000000000000002,-24.400000000000002,18.2
1698923675211.0,16,-0.5,4.9,1.3,-0.8,14.200000000000001,3.2,14.200000000000001,-30.100000000000005,24.200000000000003
1698923675227.0,16,-0.4,4.7,1.7000000000000002,-0.7000000000000001,14.100000000000001,3.5,23.900000000000002,-32.0,23.1
1698923675244.0,16,-0.5,4.800000000000001,2.6,-0.7000000000000001,14.200000000000001,4.4,47.6,-41.0,6.9
1698923675261.0,16,-0.5,2.1,2.3000000000000003,-0.7000000000000001,11.600000000000001,3.9000000000000004,53.8,-27.3,-1.5000000000000002
1698923675277.0,16,0.2,-0.1,2.2,0.0,9.4,3.8000000000000003,48.2,-19.500000000000004,-0.2
1698923675296.0,16,1.6,-2.0,2.2,1.4000000000000001,7.4,3.7,30.100000000000005,-16.1,-6.000000000000001
1698923675311.0,16,2.0,-1.9000000000000001,2.2,1.8,8.3,4.0,6.5,-13.9,-9.700000000000001
1698923675327.0,16,1.6,-0.4,2.7,1.5,9.1,4.2,-3.6,-9.1,-3.2
1698923675345.0,16,0.8,0.30000000000000004,2.6,0.6000000000000001,9.700000000000001,4.2,-15.9,-4.300000000000001,14.500000000000002
1698923675361.0,16,0.5,-0.4,1.4000000000000001,0.5,9.0,3.0,-22.3,-7.400000000000001,20.5
1698923675377.0,16,0.2,-1.2000000000000002,1.3,0.2,8.200000000000001,3.0,-27.1,0.30000000000000004,12.700000000000001
1698923675395.0,16,0.4,-1.3,0.6000000000000001,0.4,8.200000000000001,2.4000000000000004,-27.0,1.7,7.2
1698923675411.0,16,0.0,-1.9000000000000001,0.0,0.0,7.5,1.9000000000000001,-27.7,1.5000000000000002,0.0
1698923675427.0,16,-0.2,-2.4000000000000004,0.0,-0.2,7.0,1.8,-27.6,2.3000000000000003,1.9
1698923675444.0,16,-0.7000000000000001,-3.1,-0.4,-0.7000000000000001,6.2,1.5,-24.000000000000004,0.9,10.0
1698923675460.0,16,-1.3,-3.5,-0.7000000000000001,-1.2000000000000002,5.800000000000001,1.3,-18.2,-4.2,16.2
1698923675477.0,16,-2.0,-3.3000000000000003,-1.0,-1.9000000000000001,5.9,1.1,-13.700000000000001,-3.1,17.599999999999998
1698923675494.0,16,-2.0,-2.6,-1.2000000000000002,-1.9000000000000001,6.2,1.1,-11.2,-1.3,15.299999999999999
1698923675511.0,16,-1.8,-2.0,-1.2000000000000002,-1.7000000000000002,7.2,0.8,-5.7,-0.8,2.4000000000000004
1698923675528.0,16,-1.3,-1.7000000000000002,-1.5,-1.6,7.4,0.8,0.4,-1.0999999999999999,-13.100000000000001
1698923675545.0,16,-0.6000000000000001,-1.7000000000000002,-1.7000000000000002,-0.5,7.5,0.4,2.8,-2.1999999999999997,-15.9
1698923675561.0,16,0.30000000000000004,-2.0,-1.6,0.30000000000000004,7.2,0.4,5.0,-6.8,-8.9
1698923675578.0,16,0.30000000000000004,-2.0,-1.5,0.5,7.1000000000000005,0.30000000000000004,5.7,-8.4,-2.0
1698923675594.0,16,0.1,-2.0,-1.5,0.2,7.2,0.5,7.0,-8.1,8.1
1698923675611.0,16,-0.30000000000000004,-1.6,-1.3,-0.2,7.5,0.6000000000000001,7.300000000000001,-4.9,9.3
1698923675628.0,16,-0.5,-0.6000000000000001,-1.1,-0.4,8.5,0.8,10.0,-1.0999999999999999,7.9
1698923675644.0,16,-0.7000000000000001,0.2,-1.0,-0.5,9.3,0.9,11.3,-1.7,6.5
1698923675661.0,16,-1.0,1.8,-0.4,-0.8,11.0,1.4000000000000001,16.700000000000003,-2.5,2.9
1698923675677.0,16,-1.0,2.6,0.1,-0.9,11.8,1.9000000000000001,27.8,3.6,-1.3
1698923675694.0,16,-0.6000000000000001,3.7,-0.1,-0.5,13.0,1.6,30.4,3.8,-4.800000000000001
1698923675711.0,16,0.1,3.9000000000000004,-0.7000000000000001,0.2,13.200000000000001,0.9,27.1,21.200000000000003,-14.0
1698923675728.0,16,0.7000000000000001,3.2,-2.4000000000000004,0.6000000000000001,12.5,-0.8,2.1,33.400000000000006,-22.7
1698923675745.0,16,0.6000000000000001,2.6,-2.7,0.5,11.9,-1.1,-16.5,40.9,-20.6
1698923675761.0,16,-0.1,4.2,0.6000000000000001,-0.2,13.600000000000001,2.3000000000000003,-21.400000000000002,64.7,-6.9
1698923675777.0,16,-0.5,5.0,1.8,-0.7000000000000001,14.4,3.5,22.2,51.0,-5.9
1698923675794.0,16,-1.3,3.4000000000000004,2.4000000000000004,-1.5,12.8,4.0,50.2,47.900000000000006,-5.500000000000001
1698923675810.0,16,-1.0,1.4000000000000001,5.9,-1.3,10.9,7.2,111.80000000000001,39.400000000000006,-6.9
1698923675828.0,16,-0.1,0.4,6.6000000000000005,-0.4,10.0,7.4,143.4,11.1,-29.600000000000005
1698923675845.0,16,-0.5,-1.3,4.9,-0.5,8.700000000000001,7.0,102.4,1.6,-39.699999999999996
1698923675861.0,16,-1.3,-0.1,3.4000000000000004,-1.8,9.4,4.2,-71.10000000000001,7.6,-44.9
1698923675877.0,16,-2.0,2.1,3.6,-2.8000000000000003,11.600000000000001,4.800000000000001,-109.2,26.9,-55.800000000000004
1698923675895.0,16,-0.9,3.6,1.1,-2.5,12.5,3.9000000000000004,-93.7,23.700000000000003,-56.300000000000004
1698923675912.0,16,-0.2,3.0,0.5,-1.2000000000000002,12.5,2.1,-53.9,-2.8,-39.00000000000001
1698923675929.0,16,0.9,-0.5,-0.2,-0.2,8.9,1.6,-18.1,-15.299999999999999,-13.5
1698923675944.0,16,1.1,-2.2,-0.2,0.1,7.800000000000001,1.5,-4.0,-19.6,-7.8
1698923675961.0,16,1.0,-2.6,-0.1,-0.1,6.800000000000001,1.6,13.700000000000001,-20.7,-10.3
1698923675977.0,16,0.8,-3.0,0.2,-0.30000000000000004,6.300000000000001,1.8,17.1,-14.600000000000001,-16.6
1698923675994.0,16,1.0,-3.2,0.30000000000000004,-0.30000000000000004,6.2,1.8,6.2,-7.500000000000001,-21.6
1698923676010.0,16,1.2000000000000002,-3.2,0.30000000000000004,0.0,6.1000000000000005,2.0,-2.6,-5.4,-22.3
1698923676028.0,16,1.3,-3.6,0.30000000000000004,0.0,5.7,2.0,-20.4,-4.3999999999999995,-18.400000000000002
1698923676045.0,16,1.3,-3.8000000000000003,-0.1,0.0,5.5,1.8,-26.9,-3.9,-15.2
1698923676061.0,16,1.4000000000000001,-3.9000000000000004,-0.4,0.1,5.300000000000001,1.5,-33.6,-4.7,-8.5
1698923676078.0,16,1.5,-3.6,-0.9,0.2,5.6000000000000005,1.1,-33.2,-5.0,-2.9
1698923676095.0,16,1.5,-3.0,-0.6000000000000001,0.2,6.1000000000000005,1.4000000000000001,-28.0,6.6000000000000005,1.3
1698923676111.0,16,1.6,-2.6,-1.0,0.4,6.4,1.0,-22.5,14.500000000000002,2.9
1698923676127.0,16,1.9000000000000001,-1.9000000000000001,-1.8,0.7000000000000001,7.1000000000000005,0.30000000000000004,-18.400000000000002,18.8,1.3
1698923676144.0,16,1.6,-1.5,-2.1,0.5,7.300000000000001,0.2,-17.7,25.3,1.6
1698923676161.0,16,1.3,-1.3,-2.1,0.1,7.800000000000001,0.0,-17.3,26.500000000000004,4.1000000000000005
1698923676177.0,16,0.5,-0.6000000000000001,-2.1,-0.8,8.4,0.1,-14.500000000000002,29.500000000000004,12.700000000000001
1698923676195.0,16,-0.7000000000000001,0.30000000000000004,-2.2,-1.9000000000000001,9.3,0.0,-6.9,25.400000000000002,23.2
1698923676211.0,16,-1.0,0.7000000000000001,-2.3000000000000003,-2.1,9.700000000000001,-0.2,-2.7,17.200000000000003,26.1
1698923676229.0,16,-1.5,1.5,-1.6,-2.6,10.5,0.5,8.600000000000001,-1.0,23.700000000000003
1698923676244.0,16,-1.7000000000000002,2.4000000000000004,-1.6,-2.8000000000000003,11.4,0.5,16.6,-10.8,22.3
1698923676260.0,16,-1.2000000000000002,5.7,-1.0,-2.2,14.9,1.0,24.3,-32.0,13.100000000000001
1698923676277.0,16,-0.6000000000000001,5.6000000000000005,-1.3,-1.6,14.700000000000001,0.6000000000000001,18.400000000000002,-24.400000000000002,6.1000000000000005
1698923676294.0,16,-0.7000000000000001,6.2,1.6,-1.7000000000000002,15.4,3.5,11.700000000000001,-6.6000000000000005,6.2
1698923676311.0,16,-0.6000000000000001,5.800000000000001,2.3000000000000003,-0.9,16.1,2.4000000000000004,21.5,-19.6,14.100000000000001
1698923676327.0,16,-2.2,5.0,5.800000000000001,-3.1,14.4,7.6000000000000005,41.7,-38.300000000000004,24.6
1698923676343.0,16,-2.4000000000000004,6.7,6.9,-3.1,16.1,8.5,113.0,-73.60000000000001,36.1
1698923676361.0,16,-3.1,5.0,5.800000000000001,-3.8000000000000003,14.5,7.2,119.60000000000002,-78.3,29.000000000000004
1698923676377.0,16,1.0,-1.9000000000000001,2.8000000000000003,0.4,7.7,4.0,46.7,-55.4,-2.9
1698923676394.0,16,3.9000000000000004,-3.6,1.8,3.3000000000000003,5.9,3.0,-20.900000000000002,-47.5,-24.200000000000003
1698923676410.0,16,4.7,0.4,2.7,4.0,7.6000000000000005,3.5,-39.2,-30.599999999999998,-22.5
1698923676427.0,16,3.7,2.5,2.9000000000000004,3.1,12.0,4.4,-38.400000000000006,-21.6,4.1000000000000005
1698923676444.0,16,1.8,3.3000000000000003,2.0,1.3,12.8,3.7,-23.2,-32.9,30.000000000000004
1698923676461.0,16,1.0,2.0,1.8,0.6000000000000001,11.5,3.4000000000000004,-19.200000000000003,-33.900000000000006,34.2
1698923676477.0,16,0.7000000000000001,-0.4,0.8,0.4,9.1,2.6,-21.0,-16.3,32.300000000000004
1698923676494.0,16,0.1,-1.8,0.5,-0.1,7.7,2.3000000000000003,-29.300000000000004,0.6000000000000001,17.0
1698923676510.0,16,-0.30000000000000004,-2.3000000000000003,0.4,-0.9,6.9,2.1,-34.50000000000001,5.0,7.400000000000001
1698923676527.0,16,-0.9,-2.9000000000000004,-0.2,-1.1,6.5,1.8,-35.4,1.8,6.8
1698923676544.0,16,-1.1,-3.6,-0.8,-1.3,5.800000000000001,1.4000000000000001,-37.300000000000004,-7.9,9.4
1698923676561.0,16,-1.1,-3.9000000000000004,-1.0,-1.2000000000000002,5.4,1.2000000000000002,-38.0,-8.9,11.6
1698923676577.0,16,-1.1,-4.2,-1.6,-1.2000000000000002,5.0,0.7000000000000001,-39.50000000000001,-4.7,13.700000000000001
1698923676594.0,16,-1.2000000000000002,-4.3,-1.8,-1.3,4.9,0.6000000000000001,-39.1,0.30000000000000004,12.100000000000001
1698923676610.0,16,-1.3,-4.1000000000000005,-1.9000000000000001,-1.3,5.0,0.6000000000000001,-32.6,3.3000000000000003,6.3
1698923676628.0,16,-1.3,-4.2,-1.9000000000000001,-1.3,4.9,0.7000000000000001,-26.700000000000003,4.2,2.1
1698923676644.0,16,-1.1,-4.2,-2.2,-1.2000000000000002,4.800000000000001,0.30000000000000004,-12.000000000000002,0.30000000000000004,-5.500000000000001
1698923676660.0,16,-0.7000000000000001,-4.2,-2.0,-0.8,4.800000000000001,0.6000000000000001,3.6,-17.200000000000003,-7.699999999999999
1698923676678.0,16,-0.7000000000000001,-3.9000000000000004,-1.9000000000000001,-0.8,5.0,0.7000000000000001,12.5,-22.1,-4.2
1698923676693.0,16,-0.30000000000000004,-2.3000000000000003,-2.3000000000000003,-0.4,6.7,0.1,27.2,-27.0,5.1
1698923676710.0,16,-0.1,-0.4,-1.3,-0.1,8.6,1.1,33.6,-26.6,7.400000000000001
1698923676727.0,16,0.0,0.8,-0.8,-0.1,9.8,1.5,39.8,-19.0,6.4
1698923676744.0,16,0.5,2.4000000000000004,-0.30000000000000004,0.5,11.5,1.8,55.0,-10.700000000000001,1.4
1698923676760.0,16,0.8,3.4000000000000004,-0.8,0.8,12.600000000000001,1.1,58.60000000000001,-5.6,-2.3000000000000003
1698923676777.0,16,0.8,4.1000000000000005,-1.1,0.8,13.3,0.7000000000000001,50.6,-6.9,-2.0
1698923676794.0,16,0.2,4.3,-1.1,0.2,13.5,0.6000000000000001,20.900000000000002,-1.5000000000000002,0.8
1698923676810.0,16,-0.5,3.4000000000000004,-2.4000000000000004,-0.5,12.700000000000001,-0.7000000000000001,-13.6,17.7,0.5
1698923676827.0,16,-0.8,2.9000000000000004,-2.4000000000000004,-0.8,12.200000000000001,-0.6000000000000001,-31.4,20.7,-0.6000000000000001
1698923676844.0,16,-0.7000000000000001,3.9000000000000004,2.4000000000000004,-0.7000000000000001,13.200000000000001,4.3,-31.3,42.6,0.8
1698923676860.0,16,0.8,5.0,2.9000000000000004,-0.2,14.0,5.2,41.300000000000004,56.5,-9.4
1698923676877.0,16,0.9,3.7,3.5,0.8,13.100000000000001,5.300000000000001,79.7,42.900000000000006,-18.900000000000002
1698923676894.0,16,1.1,0.5,6.1000000000000005,0.9,10.0,7.5,154.1,45.7,-22.7
1698923676910.0,16,1.4000000000000001,-3.6,5.4,1.1,5.9,6.2,131.4,10.5,-24.5
1698923676927.0,16,0.6000000000000001,-3.9000000000000004,7.2,0.30000000000000004,5.6000000000000005,8.1,29.700000000000003,-30.7,-26.700000000000003
1698923676944.0,16,-2.7,2.5,4.1000000000000005,-3.2,12.0,5.300000000000001,-131.0,24.000000000000004,-31.0
1698923676960.0,16,-2.9000000000000004,5.7,3.4000000000000004,-3.5,15.100000000000001,5.1000000000000005,-110.0,20.7,-40.6
1698923676977.0,16,-1.9000000000000001,5.2,1.6,-2.6,14.600000000000001,3.4000000000000004,-86.7,5.500000000000001,-39.699999999999996
1698923676994.0,16,-0.30000000000000004,0.9,1.2000000000000002,-1.1,10.3,3.3000000000000003,-44.8,-3.3000000000000003,-26.0
1698923677010.0,16,1.4000000000000001,-1.1,0.0,0.6000000000000001,8.200000000000001,2.1,-12.5,-0.9,-16.5
1698923677027.0,16,1.7000000000000002,-2.4000000000000004,0.1,0.9,7.6000000000000005,2.2,-4.3999999999999995,-3.4,-17.1
1698923677044.0,16,1.5,-2.8000000000000003,0.2,0.7000000000000001,6.5,2.3000000000000003,2.6,-7.8,-15.299999999999999
1698923677060.0,16,1.4000000000000001,-2.5,0.4,0.5,6.7,2.5,-1.8,-9.9,-9.0
1698923677077.0,16,1.4000000000000001,-1.7000000000000002,0.2,0.5,7.5,2.3000000000000003,-7.300000000000001,-9.4,-7.300000000000001
1698923677094.0,16,1.4000000000000001,-1.8,-0.1,0.5,7.5,2.1,-22.900000000000002,-4.2,-9.200000000000001
1698923677110.0,16,1.2000000000000002,-2.2,-0.5,0.30000000000000004,7.0,1.8,-37.5,4.7,-11.3
1698923677127.0,16,1.3,-2.3000000000000003,-0.9,0.4,6.800000000000001,1.5,-42.6,8.5,-7.500000000000001
1698923677144.0,16,1.3,-2.4000000000000004,-1.0,0.4,6.7,1.4000000000000001,-41.1,8.1,-2.1
1698923677160.0,16,1.1,-2.2,-1.4000000000000001,0.30000000000000004,6.800000000000001,1.2000000000000002,-33.800000000000004,11.6,14.600000000000001
1698923677177.0,16,0.9,-1.9000000000000001,-1.4000000000000001,0.0,7.1000000000000005,1.2000000000000002,-28.900000000000002,17.5,21.5
1698923677194.0,16,0.6000000000000001,-0.9,-1.5,-0.30000000000000004,8.1,1.2000000000000002,-12.9,27.2,25.0
1698923677210.0,16,0.5,0.1,-2.0,-0.30000000000000004,9.1,0.6000000000000001,3.2,29.000000000000004,15.7
1698923677227.0,16,0.9,0.0,-2.5,0.1,9.1,0.1,12.3,36.1,5.0
1698923677244.0,16,1.2000000000000002,-0.1,-2.9000000000000004,0.4,8.9,-0.4,13.4,36.3,3.2
1698923677260.0,16,1.6,-0.1,-3.5,0.8,8.9,-1.1,8.3,28.900000000000002,2.3000000000000003
1698923677277.0,16,1.6,0.0,-3.5,0.8,9.1,-1.1,4.0,24.3,2.6
1698923677294.0,16,0.7000000000000001,1.1,-2.6,-0.1,10.200000000000001,-0.2,1.9,17.400000000000002,11.000000000000002
1698923677311.0,16,-0.6000000000000001,2.9000000000000004,-2.7,-1.4000000000000001,12.0,-0.4,12.6,11.3,26.1
1698923677328.0,16,-1.3,3.2,-1.9000000000000001,-2.0,12.4,0.4,16.8,-1.5000000000000002,26.6
1698923677344.0,16,-1.3,2.5,-1.3,-1.9000000000000001,11.700000000000001,0.9,24.5,-9.0,20.0
1698923677360.0,16,-1.3,0.30000000000000004,-1.6,-1.9000000000000001,9.600000000000001,0.5,38.5,-26.1,7.2
1698923677377.0,16,-1.2000000000000002,-0.5,-0.4,-1.8,8.8,1.6,46.800000000000004,-1.7,1.7
1698923677394.0,16,-1.0,0.30000000000000004,4.0,-1.6,9.600000000000001,5.9,69.80000000000001,17.8,5.7
1698923677410.0,16,-0.4,1.8,8.200000000000001,-1.0,11.200000000000001,9.700000000000001,140.0,0.7,21.900000000000002
1698923677427.0,16,-3.5,3.3000000000000003,11.0,-3.9000000000000004,12.8,12.0,184.8,-54.800000000000004,55.2
1698923677444.0,16,-3.3000000000000003,1.2000000000000002,9.5,-3.6,10.700000000000001,10.4,125.00000000000001,-98.2,59.9
1698923677460.0,16,-1.0,-3.1,2.2,-1.2000000000000002,6.300000000000001,3.3000000000000003,-83.4,-49.2,18.2
1698923677478.0,16,2.2,-3.0,0.30000000000000004,2.0,6.4,1.7000000000000002,-103.7,-8.799999999999999,-1.3
1698923677494.0,16,4.3,-0.5,1.2000000000000002,4.1000000000000005,8.9,2.8000000000000003,-96.5,-12.700000000000001,-12.200000000000001
1698923677510.0,16,3.2,4.3,0.9,3.0,13.700000000000001,2.7,-51.300000000000004,-25.700000000000003,-10.5
1698923677527.0,16,0.1,4.7,1.5,0.0,14.100000000000001,3.3000000000000003,2.9,-35.8,32.9
1698923677544.0,16,-0.7000000000000001,4.2,1.6,-0.7000000000000001,13.600000000000001,3.4000000000000004,28.700000000000003,-49.6,50.6
1698923677560.0,16,-1.0,3.4000000000000004,2.4000000000000004,-0.8,12.8,4.0,44.3,-21.8,54.9
1698923677577.0,16,-0.2,1.7000000000000002,2.8000000000000003,0.1,11.200000000000001,4.4,14.700000000000001,-0.9,12.700000000000001
1698923677594.0,16,0.1,0.8,2.9000000000000004,0.30000000000000004,10.3,4.5,-13.8,6.1000000000000005,-5.6
1698923677610.0,16,0.2,0.9,1.5,0.5,10.4,3.3000000000000003,-64.0,18.5,-6.000000000000001
1698923677627.0,16,-0.2,1.0,-0.4,0.0,10.5,1.6,-81.30000000000001,17.3,3.8
1698923677644.0,16,-0.6000000000000001,0.4,-1.2000000000000002,-0.4,9.8,1.0,-82.0,17.9,6.3
1698923677660.0,16,-1.1,-1.5,-1.9000000000000001,-0.8,7.800000000000001,0.5,-76.3,28.500000000000004,7.9
1698923677677.0,16,-0.6000000000000001,-3.0,-2.2,-0.4,6.2,0.4,-62.199999999999996,38.5,2.3000000000000003
1698923677694.0,16,-0.2,-3.6,-2.4000000000000004,0.0,5.6000000000000005,0.30000000000000004,-52.1,38.6,-2.0
1698923677710.0,16,0.1,-4.5,-2.7,0.30000000000000004,4.6000000000000005,0.1,-32.1,33.300000000000004,-6.9
1698923677727.0,16,-0.1,-4.6000000000000005,-3.0,0.0,4.5,-0.2,-15.6,22.000000000000004,-0.4
1698923677744.0,16,-0.30000000000000004,-4.4,-3.1,-0.2,4.6000000000000005,-0.2,-9.600000000000001,13.200000000000001,5.4
1698923677760.0,16,-0.7000000000000001,-4.3,-2.6,-0.5,4.7,0.2,1.5000000000000002,-5.0,15.2
1698923677777.0,16,-1.6,-4.1000000000000005,-2.9000000000000004,-1.4000000000000001,4.9,-0.2,12.5,-20.7,19.200000000000003
1698923677793.0,16,-2.2,-3.9000000000000004,-2.4000000000000004,-2.0,5.1000000000000005,0.4,15.7,-31.5,19.500000000000004
1698923677810.0,16,-3.1,-2.7,-1.9000000000000001,-2.8000000000000003,6.2,0.8,27.2,-42.5,14.100000000000001
1698923677827.0,16,-3.3000000000000003,-0.9,0.1,-3.0,8.1,2.7,42.800000000000004,-54.7,0.7
1698923677845.0,16,-2.7,0.0,0.7000000000000001,-2.3000000000000003,9.0,3.1,67.60000000000001,-41.7,-20.8
1698923677860.0,16,-0.2,1.1,0.4,0.1,10.200000000000001,2.6,72.8,-36.5,-31.4
1698923677877.0,16,2.7,2.5,0.1,2.9000000000000004,11.600000000000001,2.1,62.900000000000006,-19.9,-43.7
1698923677894.0,16,3.8000000000000003,3.2,-0.9,4.2,12.700000000000001,-0.2,47.6,-1.4,-44.7
1698923677910.0,16,3.9000000000000004,3.1,-3.5,4.0,12.3,-1.7000000000000002,-2.9,25.3,-36.3
1698923677927.0,16,1.6,2.2,-3.0,1.6,11.4,-1.0,-62.4,29.600000000000005,-8.9
1698923677944.0,16,0.30000000000000004,3.6,0.6000000000000001,0.30000000000000004,12.8,2.7,-71.2,37.6,8.0
1698923677960.0,16,-1.2000000000000002,6.2,0.4,-1.2000000000000002,15.4,2.6,-22.000000000000004,61.199999999999996,15.8
1698923677977.0,16,-2.6,5.800000000000001,6.7,-2.7,15.100000000000001,8.9,57.699999999999996,56.300000000000004,4.800000000000001
1698923677994.0,16,-0.7000000000000001,2.4000000000000004,4.1000000000000005,-0.8,11.8,5.9,163.0,41.800000000000004,-17.599999999999998
1698923678010.0,16,0.5,0.4,4.9,0.30000000000000004,9.9,6.300000000000001,181.0,17.7,-32.5
1698923678027.0,16,-0.4,-3.9000000000000004,4.800000000000001,-0.7000000000000001,5.6000000000000005,5.800000000000001,114.5,-11.1,-45.4
1698923678043.0,16,-3.8000000000000003,1.7000000000000002,3.1,-4.3,11.200000000000001,4.3,-87.00000000000001,-0.9,-32.800000000000004
1698923678061.0,16,-4.6000000000000005,4.1000000000000005,2.8000000000000003,-5.2,13.600000000000001,4.2,-115.0,16.5,-30.299999999999997
1698923678077.0,16,-2.6,5.4,2.2,-3.3000000000000003,14.8,4.0,-94.80000000000001,3.3000000000000003,-25.3
1698923678094.0,16,-0.30000000000000004,1.7000000000000002,0.1,-1.1,11.100000000000001,2.0,-61.0,-16.8,-26.9
1698923678110.0,16,0.4,0.0,0.30000000000000004,-0.4,9.4,2.4000000000000004,-44.2,-24.3,-27.5
1698923678127.0,16,1.6,-1.7000000000000002,-1.1,0.2,8.3,1.8,-11.5,-29.900000000000006,-25.0
1698923678145.0,16,1.6,-2.5,-0.8,0.7000000000000001,6.800000000000001,1.3,4.300000000000001,-35.6,-21.6
1698923678160.0,16,1.5,-2.8000000000000003,-0.6000000000000001,0.6000000000000001,6.5,1.5,9.9,-29.300000000000004,-17.5
1698923678177.0,16,1.6,-3.0,-0.30000000000000004,0.7000000000000001,6.4,1.8,17.200000000000003,-17.7,-8.3
1698923678194.0,16,1.4000000000000001,-3.4000000000000004,-0.2,0.5,5.9,1.8,16.900000000000002,-17.7,1.3
1698923678211.0,16,1.3,-3.7,-0.2,0.4,5.6000000000000005,1.8,12.200000000000001,-19.9,5.4
1698923678227.0,16,0.9,-4.4,-0.2,0.1,4.800000000000001,1.8,-4.0,-20.8,9.600000000000001
1698923678245.0,16,0.8,-4.5,-0.1,0.0,4.7,2.0,-12.4,-19.400000000000002,9.4
1698923678261.0,16,0.8,-4.2,-0.30000000000000004,0.1,5.0,1.8,-23.700000000000003,-15.100000000000001,4.300000000000001
1698923678277.0,16,1.1,-3.6,-0.5,0.30000000000000004,5.6000000000000005,1.7000000000000002,-29.800000000000004,-4.800000000000001,-2.4000000000000004
1698923678294.0,16,1.3,-3.4000000000000004,-0.8,0.6000000000000001,5.7,1.5,-29.500000000000004,3.7000000000000006,-4.5
1698923678311.0,16,1.7000000000000002,-2.9000000000000004,-1.8,1.0,6.2,0.5,-26.700000000000003,16.2,-6.3
1698923678327.0,16,2.0,-2.4000000000000004,-2.4000000000000004,1.2000000000000002,6.6000000000000005,-0.1,-25.0,25.3,-6.000000000000001
1698923678343.0,16,1.7000000000000002,-1.7000000000000002,-2.7,0.9,7.300000000000001,-0.30000000000000004,-25.1,32.0,0.4
1698923678361.0,16,1.3,-0.9,-2.7,0.5,8.1,-0.30000000000000004,-23.900000000000002,35.199999999999996,7.500000000000001
1698923678377.0,16,0.5,1.3,-2.9000000000000004,-0.30000000000000004,10.200000000000001,-0.4,-17.0,25.700000000000003,24.1
1698923678394.0,16,-0.1,2.5,-2.4000000000000004,-0.8,11.5,0.1,-10.1,8.700000000000001,29.700000000000003
1698923678411.0,16,-1.4000000000000001,4.2,-2.2,-2.0,13.200000000000001,0.2,11.5,-17.5,31.5
1698923678429.0,16,-2.0,4.6000000000000005,-1.4000000000000001,-2.5,13.700000000000001,0.9,24.400000000000002,-8.700000000000001,16.700000000000003
1698923678444.0,16,-1.0,4.3,-2.4000000000000004,-1.6,13.4,-0.1,32.7,0.9,-3.3000000000000003
1698923678461.0,16,-0.8,4.0,-3.0,-1.4000000000000001,13.200000000000001,-0.8,26.400000000000002,-1.4,-12.6
1698923678478.0,16,-1.0,6.4,0.6000000000000001,-1.7000000000000002,15.700000000000001,2.7,14.500000000000002,-7.300000000000001,-12.6
1698923678494.0,16,-0.4,6.800000000000001,1.7000000000000002,-1.3,16.900000000000002,3.7,53.1,-23.8,3.2
1698923678511.0,16,-1.6,4.5,4.800000000000001,-2.2,13.8,6.7,72.7,-17.7,12.700000000000001
1698923678527.0,16,-2.0,4.1000000000000005,6.9,-2.5,13.600000000000001,8.4,156.00000000000003,-12.6,39.699999999999996
1698923678544.0,16,-1.0,1.0,5.7,-1.4000000000000001,10.600000000000001,6.800000000000001,139.0,-36.3,26.400000000000002
1698923678560.0,16,1.9000000000000001,-2.3000000000000003,3.0,0.6000000000000001,7.7,5.2,75.5,-35.199999999999996,4.9
1698923678577.0,16,2.7,-1.3,2.6,2.3000000000000003,8.3,3.7,-55.6,-20.2,-18.1
1698923678594.0,16,4.1000000000000005,0.9,1.9000000000000001,3.3000000000000003,9.4,3.1,-77.7,15.299999999999999,-18.400000000000002
1698923678611.0,16,2.4000000000000004,2.2,1.2000000000000002,2.0,11.700000000000001,2.8000000000000003,-57.699999999999996,5.8,5.500000000000001
1698923678627.0,16,1.2000000000000002,2.4000000000000004,1.2000000000000002,0.8,11.9,2.8000000000000003,-45.800000000000004,0.0,22.6
1698923678644.0,16,-0.2,1.1,0.30000000000000004,-0.5,10.600000000000001,2.0,-25.400000000000002,-6.3,37.2
1698923678661.0,16,-0.9,0.1,0.1,-1.1,9.600000000000001,1.9000000000000001,-21.200000000000003,1.7,35.7
1698923678677.0,16,-1.2000000000000002,-1.5,-0.1,-1.3,7.9,1.7000000000000002,-20.6,24.400000000000002,23.700000000000003
1698923678694.0,16,-1.2000000000000002,-2.7,-0.2,-1.3,6.800000000000001,1.8,-22.000000000000004,29.900000000000006,6.5
1698923678711.0,16,-1.2000000000000002,-3.1,-0.30000000000000004,-1.4000000000000001,6.4,1.7000000000000002,-22.1,26.500000000000004,0.30000000000000004
1698923678728.0,16,-1.2000000000000002,-3.7,-0.6000000000000001,-1.4000000000000001,5.6000000000000005,1.4000000000000001,-23.2,16.1,-2.3000000000000003
1698923678744.0,16,-1.4000000000000001,-4.1000000000000005,-1.1,-1.6,5.2,1.0,-25.900000000000002,10.600000000000001,6.000000000000001
1698923678761.0,16,-1.5,-4.2,-1.2000000000000002,-1.7000000000000002,5.1000000000000005,1.0,-27.7,8.0,11.700000000000001
1698923678778.0,16,-1.8,-4.2,-1.3,-1.9000000000000001,5.1000000000000005,0.9,-29.300000000000004,6.000000000000001,21.6
1698923678795.0,16,-2.0,-4.0,-1.5,-2.0,5.2,0.8,-27.0,3.5,23.700000000000003
1698923678810.0,16,-1.7000000000000002,-3.8000000000000003,-1.7000000000000002,-1.7000000000000002,5.300000000000001,0.7000000000000001,-20.0,-3.8,14.3
1698923678828.0,16,-1.4000000000000001,-3.8000000000000003,-1.8,-1.4000000000000001,5.300000000000001,0.6000000000000001,-15.6,-7.2,5.6
1698923678844.0,16,-0.5,-3.6,-2.4000000000000004,-0.5,5.5,0.0,-8.5,-15.8,-8.1
1698923678860.0,16,0.0,-2.6,-2.0,-0.2,5.9,0.0,-4.6000000000000005,-30.799999999999997,-5.0
1698923678877.0,16,0.2,-1.7000000000000002,-1.7000000000000002,0.2,7.300000000000001,0.7000000000000001,-0.30000000000000004,-29.800000000000004,0.1
1698923678894.0,16,0.1,0.6000000000000001,-1.5,0.1,9.700000000000001,0.9,12.4,-24.200000000000003,8.799999999999999
1698923678910.0,16,0.0,1.6,-0.9,0.0,10.700000000000001,1.4000000000000001,30.299999999999997,-18.400000000000002,9.0
1698923678927.0,16,0.0,2.6,-0.8,0.1,11.700000000000001,1.4000000000000001,39.1,-11.6,5.8
1698923678944.0,16,0.30000000000000004,3.3000000000000003,-1.0,0.4,12.4,1.1,44.3,-4.5,1.0999999999999999
1698923678961.0,16,0.9,4.0,-1.1,1.0,13.3,0.8,34.50000000000001,3.9,1.0
1698923678977.0,16,1.2000000000000002,3.9000000000000004,-1.0,1.3,13.200000000000001,0.9,24.9,12.700000000000001,1.8
1698923678994.0,16,1.0,3.1,-3.1,1.1,12.4,-1.3,0.1,24.7,4.7
1698923679010.0,16,-0.5,2.1,-4.1000000000000005,-0.4,11.4,-2.2,-42.2,17.5,9.200000000000001
1698923679027.0,16,-1.5,2.2,-3.2,-1.4000000000000001,11.5,-1.2000000000000002,-61.4,13.3,15.5
1698923679044.0,16,-1.9000000000000001,4.4,4.7,-1.7000000000000002,13.700000000000001,6.9,-39.50000000000001,19.400000000000002,27.2
1698923679062.0,16,-1.3,4.3,3.6,-1.1,13.5,5.800000000000001,12.8,35.8,20.3
1698923679078.0,16,-1.9000000000000001,1.1,7.7,-1.7000000000000002,10.5,9.600000000000001,101.10000000000001,18.6,-1.3
1698923679095.0,16,-0.7000000000000001,1.9000000000000001,6.7,-0.6000000000000001,11.4,8.1,216.9,34.6,-27.400000000000002
1698923679111.0,16,2.7,-1.9000000000000001,9.0,2.6,7.6000000000000005,9.9,122.8,-35.5,-68.0
1698923679128.0,16,0.5,-1.5,1.9000000000000001,0.4,8.1,2.9000000000000004,-46.900000000000006,-15.5,-65.3
1698923679144.0,16,-0.6000000000000001,-0.1,3.8000000000000003,-1.0,9.3,5.300000000000001,-173.4,28.3,-72.0
1698923679160.0,16,-1.7000000000000002,2.6,0.5,-2.4000000000000004,12.0,2.5,-110.60000000000001,62.8,-52.400000000000006
1698923679178.0,16,-1.0,3.0,-0.2,-1.7000000000000002,12.3,1.9000000000000001,-86.3,26.6,-29.1
1698923679194.0,16,0.2,0.9,-0.4,-0.6000000000000001,10.3,1.9000000000000001,-38.400000000000006,14.600000000000001,2.8
1698923679211.0,16,1.1,-0.30000000000000004,-0.4,0.30000000000000004,9.0,1.9000000000000001,3.7000000000000006,8.9,-1.9
1698923679227.0,16,1.6,-1.7000000000000002,-0.2,0.8,7.6000000000000005,2.0,22.8,7.2,-8.0
1698923679246.0,16,1.4000000000000001,-2.0,0.1,0.7000000000000001,7.4,2.1,44.7,3.7000000000000006,-11.5
1698923679261.0,16,1.2000000000000002,-1.9000000000000001,0.2,0.2,7.6000000000000005,2.5,45.1,1.6,-7.0
1698923679277.0,16,0.7000000000000001,-1.6,0.6000000000000001,-0.1,7.7,2.5,37.1,1.9,-2.6
1698923679294.0,16,0.1,-1.8,0.1,-0.7000000000000001,7.5,2.0,5.9,7.500000000000001,5.8
1698923679310.0,16,-0.1,-2.2,-0.4,-0.9,7.1000000000000005,1.5,-28.900000000000002,15.299999999999999,6.3
1698923679327.0,16,-0.2,-2.3000000000000003,-0.6000000000000001,-0.9,6.9,1.4000000000000001,-46.1,21.3,2.5
1698923679344.0,16,0.1,-2.3000000000000003,-1.0,-0.7000000000000001,6.9,1.2000000000000002,-47.0,25.1,0.7
1698923679360.0,16,0.30000000000000004,-2.3000000000000003,-1.3,-0.5,6.9,0.9,-44.9,27.0,-0.5
1698923679377.0,16,0.7000000000000001,-2.7,-1.8,-0.1,6.4,0.6000000000000001,-29.1,28.700000000000003,0.5
1698923679394.0,16,0.7000000000000001,-2.9000000000000004,-2.0,-0.2,6.2,0.4,-22.8,31.8,3.4
1698923679411.0,16,0.6000000000000001,-3.1,-2.4000000000000004,-0.2,6.0,0.0,-12.000000000000002,40.9,11.2
1698923679428.0,16,1.0,-2.8000000000000003,-3.0,0.2,6.2,-0.7000000000000001,-4.2,41.4,14.900000000000002
1698923679443.0,16,1.2000000000000002,-2.5,-2.9000000000000004,0.30000000000000004,6.5,-0.5,-1.7,34.50000000000001,14.0
1698923679460.0,16,0.8,-1.4000000000000001,-3.3000000000000003,0.0,7.6000000000000005,-1.0,6.7,21.200000000000003,13.700000000000001
1698923679477.0,16,-0.2,0.5,-2.8000000000000003,-0.9,9.5,-0.6000000000000001,11.4,1.3,19.8
1698923679494.0,16,-0.7000000000000001,1.7000000000000002,-2.4000000000000004,-1.4000000000000001,10.8,-0.2,17.200000000000003,-3.9,24.000000000000004
1698923679510.0,16,-1.2000000000000002,3.8000000000000003,-2.6,-1.8,12.9,-0.5,29.900000000000006,-8.4,25.400000000000002
1698923679527.0,16,-1.0,3.6,-2.0,-1.6,12.8,-0.1,36.0,-10.4,17.599999999999998
1698923679544.0,16,-0.5,3.0,-1.8,-1.1,12.200000000000001,0.1,38.2,-11.700000000000001,14.0
1698923679560.0,16,0.4,2.3000000000000003,-2.0,-0.1,11.5,-0.30000000000000004,33.2,-20.2,7.699999999999999
1698923679577.0,16,0.2,2.4000000000000004,-1.1,-0.30000000000000004,11.700000000000001,0.7000000000000001,22.4,-17.400000000000002,4.3999999999999995
1698923679595.0,16,-0.2,5.1000000000000005,2.3000000000000003,-0.7000000000000001,14.4,4.0,32.9,3.8,16.3
1698923679611.0,16,-2.0,4.6000000000000005,7.300000000000001,-2.4000000000000004,14.0,8.9,67.2,-3.5,28.200000000000003
1698923679627.0,16,-3.3000000000000003,5.7,9.5,-3.6,15.200000000000001,10.8,114.5,8.700000000000001,43.7
1698923679645.0,16,-3.9000000000000004,4.2,7.5,-4.0,13.8,8.4,173.20000000000002,-72.5,61.599999999999994
1698923679660.0,16,0.4,-2.5,3.3000000000000003,0.4,7.1000000000000005,3.9000000000000004,51.900000000000006,-42.400000000000006,18.7
1698923679677.0,16,1.4000000000000001,-3.4000000000000004,3.1,1.4000000000000001,6.2,3.7,-14.900000000000002,-48.7,-9.8
1698923679694.0,16,5.300000000000001,0.6000000000000001,2.0,5.300000000000001,10.100000000000001,2.9000000000000004,-76.2,-13.6,-34.7
1698923679710.0,16,3.7,3.3000000000000003,1.5,3.6,12.8,2.7,-77.9,-3.0000000000000004,-30.7
1698923679728.0,16,1.6,3.7,1.0,1.5,13.200000000000001,2.4000000000000004,-53.50000000000001,-20.5,24.5
1698923679744.0,16,0.9,3.1,0.5,0.9,12.600000000000001,2.0,-40.3,-34.0,43.900000000000006
1698923679761.0,16,-0.6000000000000001,1.4000000000000001,0.2,-0.4,11.0,1.7000000000000002,-26.400000000000002,-23.6,52.1
1698923679777.0,16,-1.6,0.0,0.7000000000000001,-0.8,10.3,2.0,-24.200000000000003,-10.700000000000001,45.800000000000004
1698923679794.0,16,-2.2,-0.7000000000000001,0.8,-1.8,8.8,2.4000000000000004,-18.6,7.300000000000001,21.5
1698923679811.0,16,-2.6,-2.0,0.30000000000000004,-2.3000000000000003,7.5,2.0,-17.599999999999998,3.4,-0.8
1698923679828.0,16,-2.4000000000000004,-2.6,-0.2,-2.1,6.9,1.6,-20.6,1.0999999999999999,-8.9
1698923679844.0,16,-1.2000000000000002,-3.2,-0.9,-1.0,6.2,0.9,-29.700000000000003,0.7,-22.900000000000002
1698923679876.0,16,-0.1,-3.7,-1.6,-0.1,5.7,0.4,-36.9,5.300000000000001,-31.099999999999998
1698923679894.0,16,-0.1,-3.9000000000000004,-1.8,-0.1,5.5,0.5,-34.6,7.300000000000001,-25.700000000000003
1698923679910.0,16,-0.2,-3.7,-2.0,-0.30000000000000004,5.5,0.2,-25.700000000000003,3.7000000000000006,-15.299999999999999
1698923679927.0,16,-0.5,-3.0,-2.0,-0.7000000000000001,6.2,0.2,-15.6,-10.5,-10.5
1698923679944.0,16,-0.5,-2.6,-1.9000000000000001,-0.7000000000000001,6.6000000000000005,0.30000000000000004,-9.3,-16.900000000000002,-9.200000000000001
1698923679960.0,16,-0.5,-1.8,-1.7000000000000002,-0.7000000000000001,7.300000000000001,0.5,4.5,-27.3,-7.2
1698923679977.0,16,-0.8,-2.0,-1.5,-0.9,7.2,0.7000000000000001,18.7,-27.7,-0.9
1698923679994.0,16,-0.9,-2.2,-1.5,-1.1,7.0,0.6000000000000001,24.000000000000004,-27.7,4.0
1698923680010.0,16,-1.0,-2.1,-0.9,-1.1,7.1000000000000005,1.1,31.2,-27.900000000000002,9.3
1698923680028.0,16,-0.7000000000000001,-1.6,-0.5,-0.8,7.6000000000000005,1.5,36.800000000000004,-25.0,6.3
1698923680044.0,16,0.2,0.2,-0.6000000000000001,0.1,9.4,1.2000000000000002,49.4,-19.3,-13.4
1698923680061.0,16,1.2000000000000002,1.9000000000000001,-0.9,1.1,11.100000000000001,0.8,47.2,-12.700000000000001,-26.500000000000004
1698923680077.0,16,1.5,2.6,-0.5,1.2000000000000002,12.5,1.2000000000000002,41.4,-3.6,-25.5
1698923680094.0,16,1.2000000000000002,3.3000000000000003,-1.1,1.0,12.600000000000001,0.30000000000000004,29.600000000000005,23.0,-13.0
1698923680111.0,16,0.5,2.1,-2.7,0.30000000000000004,11.5,-1.3,-4.0,22.900000000000002,5.7
1698923680127.0,16,-0.6000000000000001,2.7,-0.1,-0.8,12.0,1.3,-25.1,22.5,17.7
1698923680145.0,16,-1.1,3.1,0.4,-1.3,12.4,1.9000000000000001,-17.3,19.6,18.2
1698923680160.0,16,-2.0,3.2,3.1,-2.1,12.600000000000001,4.5,23.6,14.0,13.9
1698923680177.0,16,-0.8,3.2,5.4,-1.0,12.700000000000001,6.7,97.2,23.2,-5.1
1698923680194.0,16,0.4,3.6,5.2,0.2,13.100000000000001,6.2,135.60000000000002,15.299999999999999,-24.200000000000003
1698923680211.0,16,1.4000000000000001,1.1,4.0,1.1,10.600000000000001,4.6000000000000005,142.9,-12.3,-53.00000000000001
1698923680228.0,16,0.30000000000000004,-1.4000000000000001,3.7,-0.2,8.200000000000001,4.2,26.400000000000002,-18.6,-41.4
1698923680245.0,16,-1.0,1.2000000000000002,3.0,-0.9,9.4,3.9000000000000004,-42.5,-13.4,-33.5
1698923680260.0,16,-1.1,2.3000000000000003,3.0,-1.8,11.9,3.8000000000000003,-98.9,12.200000000000001,-33.6
1698923680277.0,16,-0.1,2.7,0.6000000000000001,-0.9,12.200000000000001,1.7000000000000002,-92.50000000000001,4.3999999999999995,-26.400000000000002
1698923680294.0,16,0.4,1.7000000000000002,0.4,-0.4,11.200000000000001,1.7000000000000002,-83.89999999999999,-6.6000000000000005,-19.1
1698923680310.0,16,1.2000000000000002,-1.1,0.1,0.4,8.4,1.6,-52.400000000000006,-14.200000000000001,-1.7
1698923680327.0,16,1.6,-2.3000000000000003,-0.4,0.8,7.2,1.2000000000000002,-20.3,-18.5,1.9
1698923680344.0,16,1.4000000000000001,-2.7,-0.2,0.6000000000000001,6.800000000000001,1.4000000000000001,-6.2,-17.599999999999998,-1.8
1698923680361.0,16,1.0,-2.7,0.1,0.2,6.7,1.7000000000000002,21.3,-12.5,-9.0
1698923680377.0,16,1.0,-1.5,0.7000000000000001,0.2,7.2,2.0,45.4,-19.9,-13.4
1698923680394.0,16,1.0,-0.9,0.8,0.2,8.5,2.1,51.5,-23.8,-14.700000000000001
1698923680411.0,16,0.9,-0.5,1.2000000000000002,0.0,8.9,2.4000000000000004,44.4,-21.1,-11.9
1698923680427.0,16,1.0,-1.0,0.9,0.1,8.4,2.1,13.0,-9.600000000000001,-3.4
1698923680444.0,16,0.8,-1.3,0.7000000000000001,0.0,8.1,1.9000000000000001,-6.8,-6.5,1.5000000000000002
1698923680460.0,16,1.0,-1.6,-0.2,0.1,7.800000000000001,1.1,-35.6,0.0,6.5
1698923680477.0,16,1.2000000000000002,-1.7000000000000002,-0.8,0.4,7.6000000000000005,0.6000000000000001,-44.8,1.9,3.8
1698923680494.0,16,1.2000000000000002,-1.6,-1.3,0.5,7.7,0.2,-39.1,3.6,-0.7
1698923680510.0,16,1.2000000000000002,-1.6,-1.7000000000000002,0.4,7.7,-0.1,-34.400000000000006,4.800000000000001,-2.3000000000000003
1698923680528.0,16,1.1,-1.5,-1.7000000000000002,0.30000000000000004,7.7,-0.1,-27.0,10.0,-4.0
1698923680544.0,16,1.0,-1.1,-1.5,0.1,8.200000000000001,0.2,-12.9,15.000000000000002,-4.5
1698923680561.0,16,0.4,-0.30000000000000004,-1.5,0.0,8.5,0.1,-3.5,11.8,-3.2
1698923680577.0,16,-0.1,0.2,-1.3,-1.0,9.4,0.4,15.9,-0.30000000000000004,1.0
1698923680594.0,16,-1.1,0.5,-0.7000000000000001,-1.9000000000000001,9.8,0.9,37.900000000000006,-2.0,4.0
1698923680612.0,16,-1.5,0.6000000000000001,0.30000000000000004,-2.3000000000000003,9.9,1.7000000000000002,54.5,4.3999999999999995,-1.2000000000000002
1698923680628.0,16,-1.7000000000000002,1.4000000000000001,2.0,-2.5,10.8,3.3000000000000003,67.2,6.7,-2.6
1698923680643.0,16,-1.7000000000000002,4.9,3.5,-2.5,14.3,4.5,119.1,-15.000000000000002,18.2
1698923680660.0,16,-1.5,4.9,2.4000000000000004,-2.2,14.4,3.2,134.6,-41.4,32.6
1698923680677.0,16,-1.4000000000000001,1.2000000000000002,4.4,-2.0,10.700000000000001,4.9,96.2,-15.000000000000002,36.1
1698923680694.0,16,1.6,0.8,4.0,-0.2,10.200000000000001,4.800000000000001,61.4,-8.1,23.8
1698923680710.0,16,1.6,0.9,3.9000000000000004,1.0,10.4,4.3,-21.200000000000003,-30.7,-0.1
1698923680727.0,16,1.0,1.4000000000000001,3.0,0.5,10.9,3.7,-62.900000000000006,-2.1999999999999997,5.500000000000001
1698923680744.0,16,0.7000000000000001,2.2,1.8,0.2,11.700000000000001,2.7,-59.20000000000001,2.0,16.5
1698923680761.0,16,0.30000000000000004,2.3000000000000003,1.7000000000000002,-0.1,11.8,2.6,-48.50000000000001,-2.9,20.900000000000002
1698923680777.0,16,-0.1,2.0,1.2000000000000002,-0.5,11.600000000000001,2.2,-21.1,-3.9,22.1
1698923680794.0,16,-0.5,1.0,1.0,-0.9,10.600000000000001,2.1,-1.5000000000000002,8.5,11.9
1698923680811.0,16,-0.7000000000000001,0.4,1.2000000000000002,-1.1,10.0,2.3000000000000003,4.3999999999999995,18.1,7.6
1698923680827.0,16,-1.2000000000000002,-0.30000000000000004,1.8,-1.5,9.3,2.8000000000000003,14.500000000000002,25.1,2.1999999999999997
1698923680844.0,16,-1.7000000000000002,-0.4,1.9000000000000001,-2.0,9.200000000000001,2.8000000000000003,18.6,18.900000000000002,2.1999999999999997
1698923680860.0,16,-1.8,-0.7000000000000001,1.6,-2.2,8.9,2.6,6.000000000000001,10.2,3.1
1698923680877.0,16,-1.7000000000000002,-0.9,1.4000000000000001,-2.1,8.6,2.3000000000000003,-5.2,6.6000000000000005,2.7
1698923680894.0,16,-1.2000000000000002,-1.4000000000000001,1.0,-1.6,8.1,2.0,-27.0,2.1999999999999997,-2.1999999999999997
1698923680910.0,16,-0.5,-2.0,0.7000000000000001,-1.0,7.5,1.8,-35.6,4.5,-8.700000000000001
1698923680928.0,16,-0.2,-2.2,0.5,-0.7000000000000001,7.300000000000001,1.7000000000000002,-35.1,4.3999999999999995,-8.9
1698923680944.0,16,-0.1,-2.3000000000000003,0.4,-0.5,7.2,1.8,-26.700000000000003,5.6,-0.9
1698923680961.0,16,-0.1,-2.4000000000000004,0.2,-0.5,7.1000000000000005,1.5,-11.5,1.0999999999999999,9.4
1698923680977.0,16,-0.2,-2.4000000000000004,0.1,-0.6000000000000001,7.0,1.5,-4.6000000000000005,-2.7,13.200000000000001
1698923680994.0,16,-0.5,-2.5,-0.30000000000000004,-0.8,6.9,1.1,3.6,-8.600000000000001,16.700000000000003
1698923681010.0,16,-0.9,-2.8000000000000003,-0.2,-1.2000000000000002,6.5,1.2000000000000002,1.5000000000000002,-13.6,17.0
1698923681027.0,16,-1.3,-2.8000000000000003,0.9,-1.6,6.6000000000000005,2.2,1.3,-10.5,17.0
1698923681043.0,16,-1.1,-0.6000000000000001,-1.2000000000000002,-1.3,8.700000000000001,0.1,7.9,-7.699999999999999,13.200000000000001
1698923681060.0,16,-0.8,0.9,0.7000000000000001,-1.0,10.3,2.1,-3.7000000000000006,-31.7,6.6000000000000005
1698923681078.0,16,-0.8,2.0,1.9000000000000001,-1.0,11.4,3.2,2.7,-28.200000000000003,6.000000000000001
1698923681093.0,16,0.0,3.9000000000000004,0.8,-0.2,13.3,2.1,22.6,-17.7,4.6000000000000005
1698923681110.0,16,1.0,3.6,0.6000000000000001,0.9,13.0,1.9000000000000001,19.8,-25.6,-4.0
1698923681127.0,16,1.4000000000000001,2.6,1.1,1.2000000000000002,12.100000000000001,2.4000000000000004,13.8,-18.7,-5.9
1698923681143.0,16,1.4000000000000001,1.2000000000000002,2.1,1.2000000000000002,10.700000000000001,3.4000000000000004,5.1,-2.9,0.4
1698923681160.0,16,0.5,0.1,2.0,0.4,9.600000000000001,3.2,-4.800000000000001,11.700000000000001,7.1000000000000005
1698923681176.0,16,0.2,-0.7000000000000001,1.5,0.0,7.800000000000001,2.4000000000000004,-13.5,14.600000000000001,5.9
1698923681193.0,16,0.0,-2.3000000000000003,0.9,-0.1,7.2,2.3000000000000003,-33.300000000000004,-0.2,0.5
1698923681210.0,16,-0.4,-2.2,0.5,-0.5,7.300000000000001,2.0,-41.7,-5.8,-0.1
1698923681227.0,16,-0.4,-1.6,0.1,-0.6000000000000001,7.800000000000001,1.7000000000000002,-42.800000000000004,-6.3,0.8
1698923681243.0,16,-0.4,-0.5,-0.30000000000000004,-0.5,8.9,1.5,-40.8,-9.600000000000001,2.9
1698923681260.0,16,-0.30000000000000004,-0.1,-0.4,-0.30000000000000004,9.200000000000001,1.5,-32.300000000000004,-8.4,2.7
1698923681277.0,16,-0.1,-0.1,-0.4,-0.1,9.1,1.6,-17.7,-6.8,1.0
1698923681293.0,16,0.1,-0.2,-0.30000000000000004,0.0,9.200000000000001,1.6,-8.700000000000001,-6.9,-0.1
1698923681310.0,16,0.30000000000000004,0.1,-0.1,0.2,9.5,1.8,9.700000000000001,-10.0,-3.6
1698923681328.0,16,0.7000000000000001,0.5,0.1,0.4,9.700000000000001,1.9000000000000001,22.1,-12.4,-4.0
1698923681344.0,16,0.8,0.6000000000000001,0.2,0.7000000000000001,9.9,2.0,23.900000000000002,-11.1,-2.3000000000000003
1698923681360.0,16,0.7000000000000001,0.4,0.4,0.7000000000000001,9.8,2.1,17.7,-5.6,3.0000000000000004
1698923681377.0,16,0.5,0.30000000000000004,0.4,0.5,9.700000000000001,2.1,10.600000000000001,-2.1999999999999997,4.7
1698923681394.0,16,0.1,0.1,0.2,0.1,9.5,2.0,-7.300000000000001,1.6,4.1000000000000005
1698923681410.0,16,0.0,-0.2,0.0,-0.1,9.1,1.8,-19.9,0.5,0.9
1698923681427.0,16,-0.1,-0.4,-0.2,-0.1,8.9,1.6,-22.5,0.1,-1.0999999999999999
1698923681444.0,16,-0.1,-0.4,-0.30000000000000004,-0.2,8.9,1.6,-20.900000000000002,0.5,-1.8
1698923681460.0,16,0.0,-0.4,-0.30000000000000004,-0.1,8.9,1.7000000000000002,-12.4,1.6,-3.1
1698923681477.0,16,0.1,-0.4,-0.30000000000000004,0.1,9.0,1.7000000000000002,-6.6000000000000005,1.2000000000000002,-3.2
1698923681494.0,16,0.4,-0.4,-0.30000000000000004,0.30000000000000004,8.9,1.7000000000000002,3.8,-0.2,-1.5000000000000002
1698923681511.0,16,0.30000000000000004,-0.30000000000000004,-0.2,0.2,9.0,1.7000000000000002,8.9,0.6000000000000001,1.0
1698923681527.0,16,0.1,0.0,-0.2,0.1,9.200000000000001,1.7000000000000002,8.9,1.0999999999999999,1.6
1698923681543.0,16,0.0,0.1,-0.2,0.0,9.4,1.6,5.0,0.5,1.5000000000000002
1698923681560.0,16,0.0,0.2,-0.30000000000000004,0.0,9.600000000000001,1.6,-1.2000000000000002,-0.4,0.7
1698923681577.0,16,0.0,0.2,-0.30000000000000004,0.0,9.5,1.5,-4.6000000000000005,-1.2000000000000002,0.30000000000000004
1698923681594.0,16,0.0,0.2,-0.4,0.0,9.5,1.5,-4.6000000000000005,-1.3,0.1
1698923681610.0,16,0.0,0.1,-0.4,0.0,9.5,1.5,-2.1,-0.9,-0.7
1698923681627.0,16,0.1,0.2,-0.4,0.0,9.5,1.5,2.1999999999999997,-1.5000000000000002,-1.2000000000000002
1698923681646.0,16,0.1,0.2,-0.30000000000000004,0.0,9.5,1.6,4.2,-1.9,-0.9
1698923681660.0,16,0.0,0.1,-0.30000000000000004,0.0,9.4,1.6,6.7,-2.5,-0.1
1698923681677.0,16,0.1,0.0,-0.30000000000000004,0.0,9.3,1.6,6.9,-3.0000000000000004,0.1
1698923681694.0,16,0.0,-0.1,-0.30000000000000004,0.0,9.3,1.5,5.0,-3.0000000000000004,0.0
1698923681710.0,16,0.0,-0.1,-0.30000000000000004,0.0,9.200000000000001,1.5,1.4,-2.8,0.1
1698923681727.0,16,-0.1,-0.1,-0.2,-0.1,9.200000000000001,1.5,-0.5,-3.3000000000000003,-0.1
1698923681744.0,16,0.0,-0.1,-0.2,-0.1,9.3,1.6,-0.30000000000000004,-4.0,-0.30000000000000004
1698923681760.0,16,0.0,0.1,-0.2,0.0,9.4,1.5,1.2000000000000002,-4.0,-0.8
1698923681777.0,16,0.1,0.1,-0.2,0.1,9.4,1.5,2.0,-3.8,-0.9
1698923681794.0,16,0.1,0.1,-0.30000000000000004,0.1,9.5,1.4000000000000001,3.0000000000000004,-3.5,-0.7
1698923681810.0,16,0.1,0.1,-0.2,0.1,9.4,1.5,3.9,-2.9,0.30000000000000004
1698923681828.0,16,0.1,0.1,-0.2,0.1,9.5,1.5,4.300000000000001,-2.6,0.5
1698923681845.0,16,0.1,0.1,-0.2,0.1,9.5,1.4000000000000001,4.0,-1.7,0.6000000000000001
1698923681860.0,16,0.1,0.0,-0.2,0.1,9.4,1.4000000000000001,2.8,-1.2000000000000002,0.4
1698923681877.0,16,0.1,0.0,-0.30000000000000004,0.1,9.3,1.3,2.1,-0.8,0.2
1698923681894.0,16,0.0,0.0,-0.30000000000000004,0.0,9.4,1.3,0.9,0.4,-0.2
1698923681911.0,16,0.0,0.0,-0.2,0.1,9.4,1.3,0.2,1.0999999999999999,-0.30000000000000004
1698923681927.0,16,0.0,0.1,-0.30000000000000004,0.0,9.5,1.3,1.0999999999999999,0.9,0.0
1698923681946.0,16,0.0,0.1,-0.2,0.0,9.4,1.3,1.6,0.30000000000000004,0.30000000000000004
1698923681961.0,16,0.0,0.0,-0.2,0.0,9.4,1.3,2.8,0.4,0.7
1698923681977.0,16,0.0,0.0,-0.2,0.0,9.4,1.3,3.4,0.6000000000000001,0.4
1698923681995.0,16,-0.1,0.0,-0.2,0.0,9.4,1.3,3.4,0.7,0.30000000000000004
1698923682011.0,16,-0.1,0.0,-0.1,-0.1,9.4,1.3,3.1,0.5,0.2
1698923682027.0,16,-0.1,0.0,-0.1,-0.1,9.4,1.3,2.8,0.30000000000000004,0.2
1698923682044.0,16,0.0,0.0,-0.1,0.0,9.4,1.3,1.8,-0.1,0.0
1698923682060.0,16,0.0,0.0,-0.2,0.0,9.4,1.3,0.1,0.0,0.2
1698923682077.0,16,0.0,0.0,-0.2,0.0,9.4,1.2000000000000002,-0.9,0.1,0.2
1698923682094.0,16,0.0,0.1,-0.2,0.0,9.5,1.2000000000000002,-0.9,0.1,0.2
1698923682111.0,16,0.0,0.1,-0.2,0.0,9.5,1.2000000000000002,-0.8,-0.8,-0.4
1698923682129.0,16,0.0,0.1,-0.2,0.0,9.5,1.3,-0.30000000000000004,-0.2,-0.6000000000000001
1698923682144.0,16,0.0,0.1,-0.2,0.0,9.5,1.2000000000000002,0.1,0.30000000000000004,-0.8
1698923682161.0,16,0.0,0.1,-0.2,0.0,9.5,1.2000000000000002,0.1,1.0,-1.0999999999999999
1698923682177.0,16,0.0,0.0,-0.2,0.0,9.4,1.2000000000000002,0.1,2.0,-0.7
1698923682194.0,16,0.0,0.0,-0.2,0.0,9.4,1.2000000000000002,0.1,1.8,-0.6000000000000001
1698923682210.0,16,0.0,0.0,-0.2,0.0,9.4,1.2000000000000002,0.0,1.7,-0.30000000000000004
1698923682228.0,16,0.0,0.0,-0.2,0.0,9.4,1.2000000000000002,-0.7,2.0,-0.4
1698923682244.0,16,-0.1,0.0,-0.2,-0.1,9.4,1.2000000000000002,-1.0,2.1999999999999997,-0.5
1698923682260.0,16,-0.1,-0.1,-0.2,-0.1,9.4,1.1,-1.6,2.5,-0.7
1698923682277.0,16,-0.1,0.0,-0.2,-0.1,9.4,1.2000000000000002,-1.3,2.0,-0.7
1698923682294.0,16,-0.1,0.0,-0.2,-0.1,9.4,1.2000000000000002,-0.7,1.6,-0.6000000000000001
1698923682313.0,16,-0.1,0.0,-0.2,-0.1,9.4,1.1,0.0,1.0,-0.1
1698923682327.0,16,-0.1,0.0,-0.2,-0.1,9.4,1.2000000000000002,0.2,1.3,-0.1
1698923682345.0,16,-0.1,0.1,-0.1,-0.1,9.5,1.2000000000000002,0.30000000000000004,1.3,0.1
1698923682360.0,16,-0.1,0.1,-0.1,-0.2,9.5,1.2000000000000002,0.4,0.9,-0.30000000000000004
1698923682377.0,16,-0.1,0.1,-0.1,-0.2,9.5,1.2000000000000002,0.1,0.30000000000000004,-0.5
1698923682395.0,16,-0.2,0.0,-0.1,-0.2,9.5,1.2000000000000002,-0.1,0.5,-0.8
1698923682411.0,16,-0.2,0.1,-0.1,-0.2,9.5,1.2000000000000002,-0.2,0.30000000000000004,-0.9
1698923682427.0,16,-0.1,0.0,-0.1,-0.2,9.4,1.2000000000000002,-0.30000000000000004,-0.30000000000000004,-1.0
1698923682444.0,16,-0.1,0.0,-0.1,-0.2,9.4,1.2000000000000002,-0.4,-0.6000000000000001,-0.9
1698923682461.0,16,-0.1,0.0,-0.1,-0.2,9.4,1.2000000000000002,-1.0999999999999999,-0.8,-0.7
1698923682478.0,16,-0.1,0.0,-0.1,-0.2,9.4,1.2000000000000002,-1.2000000000000002,-0.9,-0.7
1698923682494.0,16,-0.1,0.0,0.0,-0.2,9.4,1.3,-0.7,-0.9,-0.9
1698923682510.0,16,-0.1,0.0,0.0,-0.2,9.4,1.3,-0.30000000000000004,-1.0,-0.8
1698923682527.0,16,-0.1,0.0,-0.1,-0.2,9.4,1.2000000000000002,0.30000000000000004,-1.0999999999999999,-0.6000000000000001
1698923682544.0,16,-0.1,0.0,0.0,-0.2,9.4,1.2000000000000002,0.1,-0.5,-0.4
1698923682561.0,16,-0.1,-0.1,0.0,-0.2,9.4,1.3,0.0,-0.4,-0.7
1698923682577.0,16,0.0,0.0,0.0,-0.2,9.4,1.3,-0.4,-0.8,-0.7
1698923682594.0,16,-0.1,0.0,0.0,-0.2,9.4,1.3,-0.4,-1.0,-0.6000000000000001
1698923682611.0,16,0.0,0.0,-0.1,-0.2,9.4,1.2000000000000002,-0.5,-0.9,-0.4
1698923682627.0,16,0.0,0.0,-0.1,-0.1,9.5,1.2000000000000002,-0.6000000000000001,-1.2000000000000002,-0.30000000000000004
1698923682643.0,16,0.0,0.0,0.0,-0.1,9.4,1.2000000000000002,-0.6000000000000001,-1.0999999999999999,0.4
1698923682661.0,16,0.0,0.0,0.0,-0.1,9.5,1.2000000000000002,-0.4,-0.9,0.7
1698923682677.0,16,0.0,0.1,0.0,-0.2,9.5,1.3,0.1,-1.0,0.7
1698923682694.0,16,0.0,0.1,0.0,-0.2,9.5,1.3,0.2,-1.0,0.4
1698923682711.0,16,0.0,0.0,0.0,-0.1,9.5,1.3,0.0,-0.9,-0.2
1698923682727.0,16,0.0,0.0,0.0,-0.1,9.4,1.3,-1.0999999999999999,-0.9,-0.30000000000000004
1698923682745.0,16,0.0,-0.1,0.0,-0.1,9.4,1.3,-2.1999999999999997,-0.8,-0.30000000000000004
1698923682760.0,16,0.0,0.0,0.0,-0.1,9.4,1.3,-2.6,-0.9,-0.30000000000000004
1698923682777.0,16,0.0,0.0,0.0,-0.1,9.4,1.3,-2.8,-1.3,-0.5
1698923682795.0,16,0.0,0.0,0.0,-0.1,9.4,1.3,-2.1999999999999997,-1.4,-0.6000000000000001
1698923682810.0,16,0.0,0.0,0.0,-0.1,9.4,1.3,-1.8,-1.3,-0.5
1698923682827.0,16,0.0,-0.1,0.0,-0.1,9.3,1.3,-0.8,-0.8,-0.4
1698923682843.0,16,0.0,0.0,-0.1,-0.1,9.4,1.2000000000000002,-0.2,-1.0999999999999999,-0.6000000000000001
1698923682860.0,16,0.1,0.0,0.0,-0.1,9.4,1.3,0.0,-1.3,-0.5
1698923682877.0,16,0.0,0.0,0.0,-0.1,9.5,1.3,-0.2,-1.7,0.1
1698923682893.0,16,0.0,0.1,0.0,-0.1,9.5,1.3,-1.0,-1.0,0.7
1698923682914.0,16,0.0,0.0,0.0,-0.1,9.4,1.3,-1.8,-0.7,0.5
1698923682927.0,16,0.0,0.0,0.0,-0.1,9.4,1.3,-2.1,-0.9,0.5
1698923682944.0,16,0.0,0.0,0.0,-0.1,9.4,1.3,-2.1,-0.9,0.5
1698923682960.0,16,0.0,0.0,0.0,-0.1,9.5,1.3,-1.8,-0.6000000000000001,0.8
1698923682977.0,16,0.0,0.0,0.0,-0.1,9.4,1.3,-1.5000000000000002,-0.5,0.8
1698923682994.0,16,0.0,0.0,0.0,-0.1,9.4,1.3,-1.0,-0.7,0.5
1698923683011.0,16,0.0,0.0,0.0,-0.1,9.4,1.3,-1.4,-0.9,0.5
1698923683029.0,16,0.0,0.0,0.0,-0.2,9.4,1.4000000000000001,-1.8,-1.4,0.6000000000000001
1698923683044.0,16,-0.1,-0.1,0.1,-0.2,9.3,1.4000000000000001,-1.6,-1.2000000000000002,0.5
1698923683060.0,16,-0.1,0.0,0.0,-0.2,9.4,1.4000000000000001,-1.2000000000000002,-0.9,0.5
1698923683078.0,16,-0.1,0.0,0.0,-0.2,9.4,1.4000000000000001,-1.0999999999999999,-1.2000000000000002,0.2
1698923683094.0,16,0.0,0.1,0.0,-0.1,9.5,1.4000000000000001,-1.0999999999999999,-1.7,-0.1
1698923683110.0,16,0.0,0.0,0.0,-0.1,9.4,1.4000000000000001,-1.0999999999999999,-1.8,-0.1
1698923683127.0,16,0.0,0.0,0.0,-0.1,9.4,1.4000000000000001,-1.0999999999999999,-1.5000000000000002,-0.2
1698923683144.0,16,0.0,0.0,0.0,-0.1,9.4,1.4000000000000001,-1.6,-1.5000000000000002,-0.6000000000000001
1698923683160.0,16,0.0,0.0,0.0,-0.2,9.4,1.4000000000000001,-1.6,-1.5000000000000002,-0.7
1698923683177.0,16,0.0,0.0,0.0,-0.2,9.4,1.4000000000000001,-1.6,-1.6,-0.6000000000000001
1698923683194.0,16,0.0,0.0,0.0,-0.1,9.4,1.4000000000000001,-1.0,-1.9,-0.7
1698923683210.0,16,0.0,0.0,0.1,-0.1,9.4,1.4000000000000001,-0.4,-2.0,-0.7
1698923683227.0,16,0.0,0.0,0.0,-0.1,9.4,1.4000000000000001,-0.4,-1.7,-0.9
1698923683245.0,16,0.1,-0.1,0.0,-0.1,9.3,1.4000000000000001,-0.30000000000000004,-1.7,-1.0999999999999999
1698923683261.0,16,0.1,-0.1,0.0,0.0,9.3,1.4000000000000001,-0.30000000000000004,-2.3000000000000003,-1.0
1698923683278.0,16,0.1,-0.1,0.0,-0.1,9.3,1.4000000000000001,0.1,-2.1999999999999997,-0.30000000000000004
1698923683294.0,16,0.0,-0.1,0.0,-0.1,9.3,1.4000000000000001,0.4,-1.6,0.2
1698923683310.0,16,0.0,-0.1,0.0,-0.1,9.3,1.4000000000000001,0.6000000000000001,-1.3,-0.1
1698923683327.0,16,0.0,0.0,0.1,-0.1,9.4,1.5,0.7,-1.0999999999999999,-0.30000000000000004
1698923683343.0,16,0.1,0.0,0.0,-0.1,9.4,1.4000000000000001,0.6000000000000001,-1.0999999999999999,-0.5
1698923683360.0,16,0.1,0.0,0.0,0.0,9.4,1.4000000000000001,0.4,-1.3,0.0
1698923683377.0,16,0.1,0.0,0.0,0.0,9.4,1.4000000000000001,0.2,-0.9,0.2
1698923683394.0,16,0.1,0.0,0.0,0.0,9.4,1.4000000000000001,0.1,-0.5,0.2
1698923683410.0,16,0.1,0.0,0.0,0.0,9.4,1.3,0.5,-0.7,0.0
1698923683427.0,16,0.1,0.0,-0.1,0.0,9.4,1.3,0.9,-0.6000000000000001,0.0
1698923683443.0,16,0.0,0.0,0.0,-0.1,9.4,1.3,1.4,-0.4,0.7
1698923683460.0,16,0.0,0.0,0.0,-0.1,9.4,1.4000000000000001,1.8,-0.2,1.0999999999999999
1698923683477.0,16,0.0,0.0,0.0,-0.1,9.4,1.4000000000000001,2.0,-0.30000000000000004,1.0
1698923683494.0,16,0.0,0.1,0.1,-0.1,9.4,1.4000000000000001,2.1999999999999997,-0.30000000000000004,0.5
1698923683510.0,16,0.1,0.1,0.0,0.0,9.5,1.4000000000000001,1.6,0.0,-0.1
1698923683527.0,16,0.1,0.0,0.0,0.0,9.4,1.4000000000000001,0.6000000000000001,0.7,0.4
1698923683543.0,16,0.0,0.0,0.0,0.0,9.4,1.4000000000000001,0.2,0.5,0.7
1698923683560.0,16,0.0,0.0,-0.1,-0.1,9.4,1.3,-0.9,0.1,1.0
1698923683577.0,16,0.0,0.0,0.0,-0.1,9.4,1.3,-1.4,0.0,0.8
1698923683593.0,16,0.0,0.0,0.0,-0.1,9.4,1.3,-1.6,-0.8,0.4
1698923683610.0,16,0.0,0.0,-0.1,-0.1,9.4,1.3,-0.9,-0.6000000000000001,0.4
1698923683627.0,16,0.0,0.0,-0.1,-0.1,9.4,1.3,-0.2,-0.8,0.4
1698923683645.0,16,0.0,0.0,0.0,-0.1,9.4,1.3,0.4,-0.8,0.5
1698923683660.0,16,0.0,0.0,0.0,-0.1,9.4,1.4000000000000001,0.6000000000000001,-0.6000000000000001,0.7
1698923683677.0,16,0.0,0.0,0.0,-0.1,9.4,1.3,0.5,-0.4,0.7
1698923683694.0,16,0.0,0.0,0.0,0.0,9.4,1.4000000000000001,0.0,-0.6000000000000001,0.8
1698923683710.0,16,0.0,0.0,0.0,-0.1,9.4,1.3,-0.6000000000000001,-0.9,0.7
1698923683727.0,16,0.0,0.0,0.0,-0.1,9.4,1.3,-0.8,-0.8,0.8
1698923683744.0,16,0.0,0.0,0.0,-0.1,9.4,1.3,-1.0999999999999999,-1.3,1.0
1698923683760.0,16,0.0,0.0,0.0,-0.1,9.4,1.3,-0.8,-1.4,0.4
1698923683777.0,16,0.0,0.0,0.0,-0.1,9.4,1.3,-0.5,-1.6,0.4
1698923683793.0,16,0.0,0.0,0.0,-0.1,9.4,1.3,-0.2,-1.6,0.30000000000000004
1698923683810.0,16,0.0,-0.1,-0.1,0.0,9.3,1.3,0.1,-1.4,0.4
1698923683827.0,16,0.0,0.0,-0.1,0.0,9.3,1.3,-0.2,-1.0999999999999999,0.4
1698923683844.0,16,0.0,0.0,0.0,0.0,9.4,1.3,-0.2,-1.0999999999999999,0.5
1698923683860.0,16,0.0,0.0,0.0,0.0,9.4,1.3,-0.4,-0.30000000000000004,0.5
1698923683877.0,16,0.0,0.0,0.0,0.0,9.4,1.4000000000000001,-0.1,-0.2,0.5
1698923683894.0,16,0.0,0.0,0.0,0.0,9.4,1.3,0.0,-0.5,0.8
1698923683910.0,16,0.0,0.0,-0.1,-0.1,9.4,1.3,0.1,-0.2,1.0
1698923683927.0,16,0.0,0.0,0.0,-0.1,9.3,1.3,0.0,0.2,1.0
1698923683944.0,16,0.0,-0.1,-0.1,0.0,9.3,1.3,-0.2,0.6000000000000001,0.8
1698923683960.0,16,0.0,0.0,0.0,0.0,9.4,1.3,-0.1,0.6000000000000001,1.0
1698923683977.0,16,0.0,0.0,0.0,0.0,9.4,1.3,0.1,0.2,1.0
1698923683994.0,16,0.0,0.0,0.0,0.0,9.4,1.3,0.2,0.1,0.8
1698923684010.0,16,0.0,0.0,0.0,-0.1,9.4,1.4000000000000001,0.2,0.5,0.7
1698923684027.0,16,0.0,0.0,0.0,0.0,9.4,1.3,0.2,0.30000000000000004,0.6000000000000001
1698923684044.0,16,0.0,0.0,0.0,0.0,9.4,1.3,0.4,0.30000000000000004,0.7
1698923684060.0,16,0.0,0.0,0.0,0.0,9.3,1.3,0.8,0.1,1.0
1698923684077.0,16,0.0,0.0,0.0,0.0,9.4,1.3,1.4,-0.2,0.9
1698923684093.0,16,0.0,0.0,0.0,0.0,9.4,1.3,1.3,-0.30000000000000004,0.7
1698923684110.0,16,0.0,0.0,0.0,0.0,9.4,1.4000000000000001,1.0,0.2,0.5
1698923684126.0,16,0.1,0.0,0.0,0.0,9.4,1.3,0.6000000000000001,0.0,0.30000000000000004
1698923684143.0,16,0.0,0.0,0.0,0.0,9.4,1.3,0.0,0.0,0.6000000000000001
1698923684160.0,16,0.0,0.0,0.0,0.0,9.4,1.3,-0.1,0.2,0.7
1698923684177.0,16,0.0,0.0,0.0,0.0,9.4,1.3,-0.2,0.1,0.8
1698923684193.0,16,0.0,0.0,0.0,0.0,9.4,1.3,0.30000000000000004,0.30000000000000004,0.9
1698923684210.0,16,0.0,0.0,0.0,0.0,9.4,1.3,0.6000000000000001,0.5,0.9
1698923684226.0,16,0.0,-0.1,0.0,0.0,9.3,1.3,0.9,0.30000000000000004,0.8
1698923684243.0,16,-0.1,0.0,0.0,0.0,9.3,1.3,0.9,0.30000000000000004,0.8
1698923684260.0,16,0.0,0.0,0.0,0.0,9.4,1.3,1.0,-0.4,0.5
1698923684277.0,16,0.0,0.0,0.0,0.0,9.4,1.3,0.9,-0.6000000000000001,0.5
1698923684293.0,16,0.0,0.0,0.0,0.0,9.4,1.3,0.8,-0.30000000000000004,0.6000000000000001
1698923684310.0,16,0.0,0.0,0.0,0.0,9.4,1.3,0.7,-0.2,0.6000000000000001
1698923684328.0,16,0.0,0.0,0.0,0.0,9.4,1.3,0.5,0.0,0.7
1698923684344.0,16,0.0,0.0,0.0,0.0,9.4,1.3,0.4,-0.1,0.6000000000000001
1698923684360.0,16,0.0,0.0,0.0,0.0,9.4,1.3,0.4,-0.30000000000000004,0.4
1698923684377.0,16,0.0,0.0,0.0,0.0,9.4,1.3,0.7,-0.2,0.30000000000000004
1698923684394.0,16,0.0,0.0,0.0,0.0,9.4,1.3,0.6000000000000001,0.2,0.5
1698923684410.0,16,0.0,0.0,0.0,0.0,9.4,1.3,0.4,0.30000000000000004,0.6000000000000001
1698923684427.0,16,0.0,0.0,0.0,0.0,9.4,1.3,0.0,0.5,0.4
1698923684443.0,16,0.0,0.0,0.0,0.0,9.4,1.3,-0.2,0.6000000000000001,0.2
1698923684460.0,16,0.0,0.0,0.0,0.0,9.4,1.3,-0.2,0.4,0.30000000000000004
1698923684477.0,16,0.0,0.0,0.0,0.0,9.4,1.3,0.30000000000000004,0.2,0.4
1698923684494.0,16,0.0,0.0,0.0,0.0,9.4,1.3,0.4,0.7,0.6000000000000001
1698923684511.0,16,0.0,0.0,0.0,0.0,9.4,1.3,0.6000000000000001,0.8,0.5
1698923684527.0,16,0.0,0.0,0.0,0.1,9.4,1.3,1.0,1.2000000000000002,0.4
1698923684544.0,16,0.0,0.0,0.0,0.1,9.4,1.3,1.2000000000000002,1.0999999999999999,0.4
1698923684560.0,16,0.0,0.0,0.0,0.1,9.4,1.2000000000000002,1.3,1.0,0.2
1698923684577.0,16,0.0,0.0,0.0,0.0,9.4,1.3,1.2000000000000002,1.6,0.30000000000000004
1698923684594.0,16,0.0,0.0,0.0,0.0,9.5,1.3,0.7,2.4000000000000004,0.4
1698923684610.0,16,0.0,0.0,0.0,0.0,9.4,1.3,0.8,2.7,0.5
1698923684630.0,16,0.0,0.0,0.0,0.1,9.4,1.3,0.6000000000000001,2.7,0.4
1698923684644.0,16,0.0,0.0,0.0,0.1,9.4,1.2000000000000002,0.5,2.6,0.30000000000000004
1698923684661.0,16,0.0,0.0,0.0,0.0,9.4,1.3,0.6000000000000001,2.7,0.1
1698923684677.0,16,0.0,0.0,0.0,0.0,9.4,1.3,0.7,3.0000000000000004,-0.1
1698923684694.0,16,0.0,0.0,0.0,0.0,9.4,1.3,1.4,3.1,-0.1
1698923684711.0,16,0.0,0.0,0.0,0.0,9.4,1.3,1.4,3.0000000000000004,-0.1
1698923684728.0,16,0.0,0.0,0.0,0.0,9.4,1.3,1.0,3.1,-0.2
1698923684743.0,16,0.0,0.0,0.0,0.0,9.4,1.3,0.7,3.0000000000000004,-0.1
1698923684760.0,16,0.0,0.0,0.0,0.0,9.4,1.2000000000000002,0.6000000000000001,2.9,0.1
1698923684777.0,16,0.0,0.0,0.0,0.0,9.4,1.3,0.5,3.3000000000000003,0.2
1698923684794.0,16,0.0,0.0,0.0,0.0,9.4,1.3,0.4,3.4,0.1
1698923684810.0,16,0.0,0.0,0.0,0.0,9.4,1.2000000000000002,0.6000000000000001,3.3000000000000003,-0.1
1698923684827.0,16,0.0,0.0,0.0,0.0,9.4,1.2000000000000002,0.7,3.1,-0.2
1698923684844.0,16,-0.1,0.1,0.0,-0.1,9.5,1.2000000000000002,0.9,2.8,0.1
1698923684861.0,16,-0.1,0.1,0.0,-0.1,9.5,1.2000000000000002,0.8,2.8,0.2
1698923684877.0,16,-0.1,0.0,0.0,-0.1,9.4,1.2000000000000002,0.5,2.7,0.5
1698923684894.0,16,0.0,0.0,0.0,0.0,9.4,1.2000000000000002,0.4,2.1,0.5
1698923684910.0,16,0.0,0.0,0.0,0.0,9.4,1.2000000000000002,0.5,1.9,0.5
1698923684927.0,16,0.0,0.0,-0.1,0.0,9.4,1.2000000000000002,0.5,1.4,0.5
1698923684943.0,16,0.0,0.1,0.0,0.0,9.5,1.2000000000000002,0.30000000000000004,1.2000000000000002,0.6000000000000001
1698923684961.0,16,0.0,0.0,0.0,0.0,9.5,1.2000000000000002,0.4,1.0999999999999999,0.7
1698923684977.0,16,-0.1,0.0,0.0,-0.1,9.4,1.2000000000000002,0.6000000000000001,1.0999999999999999,0.7
1698923684994.0,16,0.0,0.0,0.0,0.0,9.4,1.2000000000000002,0.4,0.8,0.8
