msFromStart,interval,accx,accy,accz,accGx,accGy,accGz,rotRate_alpha,rotRate_beta,rotRate_gamma
3,0.01666666753590107,-0.014559307760931551,-0.05325520484745502,0.0845008224606514,-0.36436760168764737,-6.324881651195883,-7.446416660419106,-5.302998145185628,18.73314446866834,-15.102871604049882
173,0.01666666753590107,0.48694651813004164,0.3722001584768295,0.1817582506418228,0.07407061386108398,-4.675576567077637,-8.21585263442993,0.9459536658466744,2.808082653419237,3.4126348631315246
190,0.01666666753590107,0.3887162628613412,0.2509995446503162,0.20724632764160633,-0.025438392639160156,-4.799327449908852,-8.188768228149414,1.571998666607994,0.1649504558379831,3.1452598509953824
206,0.01666666753590107,0.19717874180935321,0.16052432395517824,0.20629531052708625,-0.22505495605468748,-4.893449502673745,-8.187122214508056,0.9689760991046718,-1.7430708929330125,3.0452855183402594
223,0.01666666753590107,0.09636139265689998,0.1690267793625593,0.278256969410181,-0.33354225531313564,-4.885069212341309,-8.11469702976644,-0.8523083572312146,-0.5960678341026625,3.2109515432155074
240,0.01666666753590107,0.085466927546449,0.18926468074917793,0.35083880601823325,-0.3452139518737793,-4.859032269287109,-8.045565041351319,-4.1086119296487835,3.714088250357799,3.758521192229671
256,0.01666666753590107,-0.47569030703511084,-0.0602685907408595,0.5302314965724945,-0.4475660385961295,-4.878934362848103,-8.010849117279053,-5.8066289738256875,6.702554278766369,5.285819365649399
273,0.01666666753590107,-0.4526594504617154,-0.07988076144456863,0.43784722738564014,-0.47644608013874384,-4.993706112670898,-8.048857068634033,-5.163074462961923,5.754907366335766,6.143317599432765
290,0.01666666753590107,-0.41044644863232965,-0.14933949759602547,0.36214287484288216,-0.4731540619891835,-5.0775031707763665,-8.116044352722167,-4.128335381537664,2.436250570098328,5.875320613195329
307,0.01666666753590107,-0.4656065372530371,-0.1890741266131401,0.2699368848323822,-0.6094739509803708,-5.141248789978027,-8.193256771740318,-3.7351828627225605,-0.4154107979792797,4.566063422423564
323,0.01666666753590107,-0.48387434414308517,-0.13746084375381468,0.22168460283875463,-0.6955155822753906,-5.110274390521646,-8.227973280334473,-4.681020628796756,-0.85416029899164,3.9912522042350393
340,0.01666666753590107,-0.4491993000704795,-0.07859130615592003,0.2480512162387371,-0.6980594032729975,-5.054459564319252,-8.198793363079428,-6.026861166536755,-1.5582313531187755,3.906520292486446
357,0.01666666753590107,-0.36543475599512454,-0.011169628790020942,0.27351240523159503,-0.6759130561828612,-5.00507857055664,-8.160636358642577,-5.970880936099332,-4.0271047209620825,3.998636065614646
374,0.01666666753590107,-0.247260650382936,0.09103343909978866,0.31714521073102947,-0.6066308091094718,-4.92816484222412,-8.100033129119872,-4.434519101650996,-4.99738047699976,3.6937351404048075
390,0.01666666753590107,-0.2062747061304748,0.14951485416293142,0.40869010648429394,-0.6004957038879394,-4.874146251788735,-8.004265062713623,-4.720175115100678,-5.404299242087025,3.1690250673256184
407,0.01666666753590107,-0.18028748396951705,0.19860884767770767,0.5393085369974374,-0.6368576781341806,-4.82656149379313,-7.869591219329833,-7.032909611465553,-9.89490700342852,1.9278529097478334
424,0.01666666753590107,-0.22484602601174264,0.2628565711826086,0.6199561911612749,-0.7368155609130859,-4.75623123550415,-7.789385463714599,-7.113475961594085,-16.2481628467195,1.3997615728643709
442,0.01666666753590107,-0.17774448495581746,0.3555214108765125,0.6822615484267472,-0.7416039642333984,-4.652382738494873,-7.730427663311362,-6.231075284983675,-22.032510035925313,1.4440730654350633
457,0.01666666753590107,-0.07895612088032067,0.5311082794070243,0.8975298544824123,-0.7122750669617205,-4.467580297851562,-7.5156982864379875,-3.79573334348837,-20.583763733715784,3.1986683017668853
474,0.01666666753590107,0.056803691109269853,0.7375503049284219,1.038884783065319,-0.6218939542908221,-4.257788961902261,-7.372794374847412,-2.5854522105358484,-16.755271949194388,3.79014496808683
491,0.01666666753590107,0.023461393477767704,0.7712164276868104,1.1367407616615295,-0.6889315277099609,-4.223222090911865,-7.272686233410239,1.1287545009153686,-15.689489231105597,1.859154440189022
508,0.01666666753590107,-0.16959369253031908,0.344050753313303,0.8326841650843619,-0.939125601196289,-4.667795411682128,-7.5613377555847165,7.862845470626978,-18.971449768810086,2.7786936300811416
523,0.01666666753590107,0.10069259026162326,0.7283861707419157,1.225780981117487,-0.7176620206970721,-4.294749450030922,-7.15686731262207,2.3774688948841405,-21.709771644811163,4.964903781269996
541,0.01666666753590107,0.13375424432083963,0.5002484462410212,1.3353659759521483,-0.745195339788869,-4.519056218066812,-7.043441424450278,-4.405427618428619,-26.503678225115305,6.859966660359891
557,0.01666666753590107,0.2503326051741838,0.3891179755300283,1.6026701741933822,-0.7224504240173846,-4.600458489990234,-6.783521491241455,-15.054541185482872,-27.064875595627523,8.019169717708353
574,0.01666666753590107,0.3304276669565588,0.2946539774596691,1.8189988029569386,-0.7082348516602068,-4.649540208545327,-6.586149491882324,-24.14029616850749,-22.635415956604213,9.276966982612773
591,0.01666666753590107,0.34909605400413274,0.14935381838232278,1.8459446775496005,-0.7465420782227069,-4.732439148767292,-6.58839405593872,-29.47311662715669,-18.143110039480327,9.2390372346044
607,0.01666666753590107,0.5099320742569864,-0.178917474257946,1.9391759189546107,-0.6437410444397479,-4.967370478931069,-6.540808713421225,-31.485372318912482,-11.628655755361523,8.355000727687772
624,0.01666666753590107,0.7805202626049518,-0.4920230542093515,2.1147849993169308,-0.40836109372563656,-5.206341732135415,-6.401795964050293,-33.32241658298453,-11.729747677719589,7.472559069942341
640,0.01666666753590107,0.9008082916311919,-0.730196435034275,2.2419798851221797,-0.3251626591004431,-5.365256575067341,-6.312761589813232,-36.34940274387785,-15.096094348845938,4.466847240766313
657,0.01666666753590107,1.1428383478842674,-1.0774316636025905,2.4628344668775797,-0.14469956283569335,-5.593154645593464,-6.1465142120361325,-43.116467305581345,-24.388315705196288,0.47171959786837886
674,0.01666666753590107,1.264951546511054,-1.1666896174624561,2.389624853760004,-0.08649068110361695,-5.580286103931069,-6.262782630157471,-47.44956663579411,-32.1586104050223,-0.21762668898611973
691,0.01666666753590107,1.3011729067102074,-1.2265969736754894,2.2664438797712325,-0.12883812296763061,-5.529409026391804,-6.42903000793457,-49.536879276339185,-35.52738947726682,1.9878670072203852
707,0.01666666753590107,1.3574204252414404,-1.3639514344453811,1.9092133268892764,-0.1830070816591382,-5.521029320581257,-6.8381392166137696,-43.49606531398856,-33.63813866227378,5.366550067204834
723,0.01666666753590107,1.429366448163986,-1.5070298258200288,1.5458201597243546,-0.19572598571777342,-5.572355018670857,-7.229291912841797,-34.26975016048696,-34.19049264535813,7.850237795192782
740,0.01666666753590107,1.6872750415503979,-1.7477701345235108,1.4632020822703837,-0.05761076970845461,-5.718401319940388,-7.332242584228515,-24.672053716149666,-34.349513109614364,10.532740803975576
757,0.01666666753590107,1.8677172411575913,-1.8187182324498892,1.5506179153949022,0.04234744186401367,-5.7338137008666985,-7.253383567047119,-19.56841684000566,-23.8787921308498,9.287760389048685
774,0.01666666753590107,2.2848021048910914,-0.05892156004607677,2.1309785937488077,0.43604383122548457,-3.9395091941833495,-6.683413934326172,-10.455028619146463,1.1071689687040125,-2.107441848359329
791,0.01666666753590107,2.271665998333692,-3.741767192468047,1.3542132997632026,0.40806159932240843,-7.601590855517983,-7.466168239593506,1.7684248752972171,-5.576131860565737,23.665049898510713
807,0.01666666753590107,2.6893875525355337,-3.497298510891199,1.7540403008341787,0.7832030719481408,-7.352743228204548,-7.059153957366943,5.41083616000955,-3.0327124207387355,35.10953557931836
824,0.01666666753590107,2.2595796930901706,-1.807302812205255,2.309600884452462,0.31483751831054685,-5.647323458154499,-6.501902936443686,-2.830067111366804,1.9701556863723073,43.50890606962818
840,0.01666666753590107,1.9212630995146929,-2.078491450664401,2.0978321109503506,-0.07272402155771851,-5.875221236419677,-6.721421885681152,-13.832246390110532,-6.263259563239598,48.533480091034704
858,0.01666666753590107,1.499696121931076,-2.9448741794720292,1.59922383313179,-0.6030395431518555,-6.64914663080424,-7.234079731640219,-21.50448347911726,-21.181415531375656,50.04689291675862
874,0.01666666753590107,1.1031411282680927,-2.237171608057618,1.2307792277961969,-1.1019316063478588,-5.864447621209919,-7.609521063995361,-20.393734210627688,-24.793827451314527,49.70839215658737
890,0.01666666753590107,0.8797314552024006,-1.9643407553493974,1.075330891931057,-1.4266450603760779,-5.5175873634338375,-7.769184387207031,-19.683981933214984,-22.9358025536595,48.53470610999072
907,0.01666666753590107,0.4231180064179003,-1.6678724219441412,0.9314256943434477,-2.0118778748109936,-5.109974530792236,-7.92256293106079,-28.278550692267306,-25.441230346888773,41.569535326505594
924,0.01666666753590107,-0.09375526527911424,-1.4324305119097231,0.6819727946132421,-2.622698573358357,-4.782866728973389,-8.180837435150146,-28.71305317631767,-25.5765876207655,34.517839706614744
940,0.01666666753590107,-0.09434563238769769,-0.7487599734678864,0.7398790401369333,-2.731634748895466,-3.9827544616699218,-8.134599415588378,-28.634026180073327,-19.413482536420386,34.97819787176819
957,0.01666666753590107,0.09536679212898015,-0.5781625837877392,0.7205144144535064,-2.615067055566609,-3.715053080804646,-8.166771500396727,-31.999456752077247,-16.778737064087967,41.41716405140637
974,0.01666666753590107,0.22567717960625885,-0.003806406545639038,0.9613479543983936,-2.579752873340249,-2.9994857673645017,-7.945158209228516,-29.498255138396917,-12.14468252357151,51.148745863854245
991,0.01666666753590107,-0.004909107090532779,0.8434569035112858,1.2653478523522614,-2.8809730774477122,-2.0406082947328685,-7.655459808349609,-33.59003363994938,-14.554304960860309,55.8353928609798
1007,0.01666666753590107,-0.006034311728179455,1.0403811591029166,1.158752102461457,-2.9671640449523924,-1.7121534622192383,-7.775767857250571,-41.973933751789126,-22.824023092797653,57.96088967407982
1027,0.01666666753590107,0.021405191600322723,1.6738026887759565,1.1486568249046802,-3.0811881912782786,-0.8658034676149488,-7.800907559204101,-54.6234987361661,-31.37924142449424,64.1745449884722
1040,0.01666666753590107,0.18900427624732255,2.5597791758477686,1.2361749493598937,-3.0392893699645995,0.22056553568094966,-7.7235455025821915,-69.83042656467383,-39.96672215473538,71.80426927253748
1057,0.01666666753590107,0.08299626311659812,2.9672382792323826,1.2678151192486284,-3.30369930806905,0.880168239184469,-7.6957123237609855,-90.18017606459394,-59.997686235523474,77.02518391182518
1074,0.01666666753590107,-0.20180998180657625,3.462070545643568,0.8361614858061075,-3.8027404243469234,1.674445078332722,-8.10856247253418,-105.19700265302728,-89.82924094503868,74.78407590173894
1090,0.01666666753590107,-0.374067998175323,3.9672830440327522,0.3935416371911764,-4.326322692163289,2.627486830548197,-8.480860830688476,-123.06726371063853,-105.7406652203928,70.01525148361438
1110,0.01666666753590107,-0.36112639127671714,4.21976230584681,0.1463835703998804,-4.575918215234577,3.2552165783204137,-8.655636967357992,-138.47229093073872,-102.43561864329367,67.86536064989366
1124,0.01666666753590107,-0.6117950965374708,4.809956980472803,-0.27970190752148627,-5.131971843066811,4.394707040548883,-8.972569996643067,-155.28795712012166,-85.79507167404068,64.46647410378772
1141,0.01666666753590107,-0.7999722743108868,5.351365704619885,-0.5307961447179317,-5.503521428680419,5.373785744951712,-9.135824037823081,-167.35351360970586,-74.68897234773569,56.59751561385358
1157,0.01666666753590107,-0.7703533811166882,5.1380684063762425,-0.6448346118301153,-5.630564046533405,5.615600322690047,-9.148992731475829,-181.29742676255694,-68.61728934543119,49.17753277882106
1174,0.01666666753590107,-0.9595628245472907,5.399144523882866,-0.9472948791265488,-6.004358488464355,6.51507192235738,-9.28246947402954,-200.05774343129087,-68.71181916354416,41.34810400870837
1190,0.01666666753590107,-1.2676719113856554,5.743723100462556,-1.720648903363943,-6.449979856982827,7.343316205298155,-9.891045023998618,-200.22755559443573,-69.31119558396946,33.49063389695819
1207,0.01666666753590107,-1.3772913930118083,5.855467903679609,-2.2991432033240793,-6.686856183734536,7.909993518475443,-10.283993371471762,-190.03799252266558,-64.74273476514722,28.263587455343103
1224,0.01666666753590107,-1.4836913280695676,5.945092645025253,-3.4098715718507764,-6.937349532428383,8.546851890729368,-11.13378532322347,-172.60412591150478,-58.18847840741382,28.992636724708387
1241,0.01666666753590107,-1.2783055336028337,5.468707304930686,-3.6381279542952774,-6.825719880023598,8.452280340631306,-11.154435897064209,-166.685616731527,-60.40076984939178,35.21067019035874
1257,0.01666666753590107,-1.0964695415496826,4.871644205839932,-3.5822254498094317,-6.733542531585693,8.235455452783405,-10.867729079216717,-167.08944483601482,-67.2328578119938,44.70980700497275
1274,0.01666666753590107,-0.6197673905909061,3.575662145771086,-2.946491259279847,-6.375310108184814,7.46946085139811,-9.866205766296385,-176.08871084112687,-85.25935944686908,62.00359668154033
1290,0.01666666753590107,-0.36680560595691203,2.4970310432508587,-2.1369506538957355,-6.213850549206137,6.807613729968667,-8.724918593376874,-180.50608104531926,-97.92251650769438,69.09877670078207
1307,0.01666666753590107,-0.46363633315861225,1.7566501910716295,-1.9481284562170504,-6.396259372711182,6.4733233231693506,-8.171259459465741,-177.82584651311456,-100.00884560099897,67.54146624926248
1324,0.01666666753590107,-0.7087766303867101,0.6688906102001667,-1.5563275252133606,-6.730250504302978,5.882403841400146,-7.277474052208661,-171.11457093655173,-91.22981221548481,60.67445552943419
1340,0.01666666753590107,-0.7216027942121028,0.06472761597633361,-0.9653110128104686,-6.787711928668617,5.616797679248452,-6.30827187717855,-170.16300264176388,-84.66259215870673,55.32948074915696
1357,0.01666666753590107,-0.6333598626136779,-0.24071663556694983,-1.0694126077979802,-6.730549779510498,5.6226335457950825,-6.030843175286054,-166.37032153906088,-77.60848206694428,49.92869307807697
1374,0.01666666753590107,-0.6113888538241387,-0.4994961665689945,-1.369220314759016,-6.726809423938393,5.7236389283329245,-5.846340302111208,-150.58817225412758,-63.78549741334828,42.61121430701341
1391,0.01666666753590107,-0.5538339059561491,-0.5106242943048477,-1.7880311255022883,-6.668000676617026,5.938069029998779,-5.935524021691084,-133.6040326186771,-53.965242670000706,38.453910385658425
1407,0.01666666753590107,-0.45055122613608833,-0.5786445220857859,-2.028059486544132,-6.553529078784584,6.0618199128299945,-5.878811662127077,-118.42005764087521,-49.08177352665748,37.56637852943405
1424,0.01666666753590107,-0.27532500761151313,-0.7874030078560114,-2.1509680733323098,-6.344634399414062,6.083068452563881,-5.633854612511396,-112.52767393447272,-45.21350272040993,42.58757160720141
1440,0.01666666753590107,-0.46792438574135303,-0.8024825035661458,-2.0856334313735365,-6.492476351928711,6.2397390237003565,-5.292232255388796,-117.56017780550563,-40.41737803617282,47.2521400178349
1457,0.01666666753590107,-0.6597276450574397,-0.90795947856009,-2.1967826067849994,-6.6246063560485835,6.306776085662841,-5.118801980370283,-125.59839521326185,-35.28397178053132,48.09380032359348
1474,0.01666666753590107,-1.2049836922824382,-1.008982981276512,-2.635395265585184,-7.086687860980629,6.420351611438393,-5.161448697441816,-130.95107786201746,-28.286171475833747,38.984588763411736
1490,0.01666666753590107,-1.7415215955227612,-1.108943823197484,-3.066328475798666,-7.572711382514238,6.45357291303873,-5.297020950970054,-130.82111302249044,-23.698632231112374,28.019331352886983
1508,0.01666666753590107,-1.905659433799982,-1.2230723066806792,-3.7157270345434545,-7.701098692974448,6.4448915939331055,-5.6613882238641375,-121.93233215739254,-20.633116973111004,20.706380997243144
1524,0.01666666753590107,-2.421968203482032,-1.311319329932332,-4.516842633670568,-8.177844098553061,6.466439408874511,-6.112695529064536,-108.96519752755582,-21.309609644360332,18.577412740497465
1540,0.01666666753590107,-2.4734388630002737,-1.8827075972795486,-5.0761774751305575,-8.198644309997558,5.96365647571981,-6.42783217645213,-103.639623899616,-17.99476003825494,18.081691270916277
1557,0.01666666753590107,-2.590995567366481,-2.2771394613087175,-5.543336721718311,-8.287379993548988,5.625628051435947,-6.6693473419856275,-95.80221405345814,-8.90195630000687,13.559358988427368
1574,0.01666666753590107,-3.121580115160346,-2.6279730066299436,-6.38606063477993,-8.7909105302006,5.324406386023759,-7.2741818057302385,-74.75911839051172,5.289942665473971,7.026927646413091
1591,0.01666666753590107,-3.918163039293885,-2.3272388324737547,-7.125824524104595,-9.573065116009115,5.6473225813716645,-7.899667354772239,-54.51934859660716,15.486567725959103,4.8182788296968635
1607,0.01666666753590107,-4.296211339277029,-2.2363222977519035,-7.430601836171745,-9.94027638015747,5.7516199911922214,-8.143127736089378,-34.65469279191971,22.370614645124697,1.8250935674586377
1624,0.01666666753590107,-4.713256601652502,-2.1164134773015975,-7.545103244620561,-10.358812757873535,5.871182190161943,-8.249669856096803,-16.88985570414761,28.643156435446343,-7.847942851631657
1639,0.01666666753590107,-4.633659917846321,-2.4349434203892946,-7.4083905888855455,-10.30554118641317,5.529109458923339,-8.166022435595094,-9.477861629123066,33.429046081212185,-19.193869756489672
1657,0.01666666753590107,-4.32052861893177,-2.5473954950928688,-7.257601477003097,-10.039935608783363,5.3763300500065085,-8.078185089122876,-2.25549772456358,38.239667841962635,-30.107221144416915
1673,0.01666666753590107,-3.427574986323714,-2.511182025939226,-7.005258701050281,-9.230993553814292,5.338171292003989,-7.942463709447533,14.903715240683358,40.67381748856095,-36.19380078930121
1689,0.01666666753590107,-2.369674537143111,-2.5981366712927816,-6.727502082377672,-8.238747772327065,5.186889428168535,-7.7847454558890306,34.57768240902781,32.83061564198693,-35.300671593052
1706,0.01666666753590107,-1.9550357513874768,-2.6096400620818136,-6.504687014204263,-7.884854254913329,5.109226342773437,-7.699152746538445,56.977417565678856,17.522812749627278,-31.053513118070917
1723,0.01666666753590107,-1.6657833407104015,-2.268492628994584,-5.977172959896921,-7.672967407989502,5.353584549713134,-7.387158708025515,88.1511864093716,-8.154199996278566,-28.154099522947796
1740,0.01666666753590107,-1.8445184441387652,-1.627719275254011,-5.419746582406759,-7.915978876495361,5.908291146850585,-7.006032023510336,108.24506336260468,-26.704910965989512,-28.565932609142887
1756,0.01666666753590107,-2.070412189105153,-1.0068091443687677,-5.028085352134704,-8.214206620788573,6.430825659179687,-6.790404090362042,120.83110075751138,-39.554568049649305,-29.785457762806786
1773,0.01666666753590107,-2.67768191717267,0.11514087539613246,-4.41334046588093,-8.930971911841631,7.402423789435625,-6.403890305981039,124.16372763847902,-46.737212056307634,-32.53301405456572
1790,0.01666666753590107,-2.8704595744788644,0.5690022489935159,-3.9598520172491667,-9.214535170966386,7.730728692084551,-6.112246470122784,120.70164135198296,-42.567456700095725,-37.30191701986574
1806,0.01666666753590107,-2.698231368726492,0.45102878051996226,-3.746443952107429,-9.140314334979653,7.474249254718423,-6.058226710643619,119.70090935554937,-33.45914672488443,-44.800085030327395
1823,0.01666666753590107,-2.1138006644546983,0.04418167155385017,-3.330763256083429,-8.700678470611571,6.846070009613037,-5.88374970305115,126.70729008539176,-17.473070189449366,-57.34103634652283
1839,0.01666666753590107,-1.2153092714637517,-0.16352116768360137,-2.6688752181217072,-7.9188225754886865,6.439205949512123,-5.4324423978507514,136.58398951204032,-9.363630984122834,-64.88650341698683
1857,0.01666666753590107,-0.7028326272904872,-0.06436170527338982,-2.156044353683293,-7.527969154468178,6.311414851379394,-5.145587111443281,148.8626479037289,-10.478274314212955,-70.2411053488992
1873,0.01666666753590107,0.1778460456341505,0.19879940181374547,-1.148420385800302,-6.823624369049072,6.225074538531899,-4.439896464373171,163.97147714028236,-24.225606938788243,-75.46018266730016
1889,0.01666666753590107,0.6430991663396358,0.7183867547750472,-0.20698504635691642,-6.505045910644531,6.452673333850503,-3.698741412951052,169.17527532551,-39.256259537648994,-78.80450966231604
1907,0.01666666753590107,0.6271937411993742,1.3702210162341595,0.33064737412184475,-6.68461103515625,6.790105545806885,-3.320756533592939,168.26001631634995,-54.26221246492369,-86.70590472061856
1923,0.01666666753590107,0.5343278259754181,2.09309631460011,1.11875180824548,-7.034014839935303,7.051971352386474,-2.6627999898612495,155.15968616750882,-72.97048309218214,-106.86446356529167
1940,0.01666666753590107,0.48787937853336333,2.634488379873335,1.6155468991622328,-7.299173258319497,7.212981998553872,-2.2014675497308374,141.9012781205169,-76.65814320620704,-122.72601379932635
1956,0.01666666753590107,0.856367823010683,3.0974177338063713,1.7888982637256383,-7.1499851518929,7.278223993793129,-2.0307313361018893,126.89935500485252,-70.03367933399507,-130.48172092263252
1973,0.01666666753590107,1.7330857756108045,3.65027344238013,1.8957465270727871,-6.537369386622309,7.297677466803789,-1.907729225811362,114.41554505125342,-58.35135792855112,-130.80100494557394
1990,0.01666666753590107,2.368865558847785,4.1156367454618215,1.9364041161537169,-6.072444182696938,7.3668094552189105,-1.851016281725466,114.84510930853386,-52.72529012807659,-126.44830297244322
2007,0.01666666753590107,2.7072213153898717,4.619523840466141,2.0812486404180524,-5.885546815600991,7.480384396472573,-1.6804297057002782,117.57732158032236,-55.53139821649546,-121.00111782633134
2023,0.01666666753590107,2.9908208148717876,5.579244485923647,2.2862349141731855,-5.7885810638427735,7.928848148810118,-1.3977639799371362,117.48947168721766,-68.26716701838717,-114.1364157104425
2040,0.01666666753590107,2.878386860346794,6.769584151303768,2.417526713903248,-6.032341304889321,8.753351199395954,-1.164927283965051,106.999182216481,-76.55521908560412,-106.07161520643659
2056,0.01666666753590107,3.094927086034417,7.474788768422603,2.3381349050194022,-5.934478312030434,9.137919841058551,-1.1077668883726,84.92196176224878,-78.63388470665994,-89.55363598183949
2073,0.01666666753590107,3.627160570079088,8.607442553031444,2.228760922586918,-5.524022949439287,9.953145360211282,-1.0293570762634277,51.37242089879383,-61.196951340561824,-57.70147908940274
2090,0.01666666753590107,4.342919314438104,9.856167187362908,2.0759186775669454,-4.865317633166909,11.058966959735006,-1.075593634520471,30.552095270721942,-43.5208828063378,-29.173964586793883
2107,0.01666666753590107,4.404596895194054,10.611183590877056,1.8816110342144965,-4.84556605399251,11.738770666680857,-1.1734575041621922,15.110596548001167,-33.26975582448373,5.537041407285284
2123,0.01666666753590107,4.430710410615801,10.424336492663622,1.861766223798692,-4.834792731043696,11.57776097036153,-1.1366469458982347,5.8603842701409805,-19.294944603374812,24.72171089896295
2139,0.01666666753590107,5.111356340539455,9.233373142427206,2.283324287423491,-4.152444673377275,10.460417275348306,-0.6910255773797631,-7.548939367883301,-3.999405315669919,36.80250724813275
2156,0.01666666753590107,5.331098577138781,8.423128188166022,2.764882938502729,-3.9086838478088377,9.806051887976377,-0.2157759633168578,-25.11911008789451,10.104616009062713,50.164136528956476
2173,0.01666666753590107,5.219638436082005,8.301852171015739,2.958160946546495,-3.9888901879459615,9.844359114538877,-0.04085018904358148,-36.290710928339934,13.05221744255392,62.405239125493765
2190,0.01666666753590107,4.5148388926327225,8.813388903990388,3.049366527342796,-4.655824987903237,10.552743384607135,0.04204845891743898,-46.799148211701315,7.020600756807544,74.4894420315121
2207,0.01666666753590107,4.038575133091211,8.875766741970182,2.9834347962737082,-5.091120777240396,10.848876494708657,-0.004188976122438908,-60.82734931400493,-1.7533251413113173,86.08592161946734
2223,0.01666666753590107,2.999384645077586,8.832450747334956,2.6234207501530644,-6.06451338969767,11.178079076849668,-0.2944865119382739,-85.43990866738919,-5.68274897907552,101.3746580387589
2239,0.01666666753590107,1.7863561780273913,8.52095084901452,2.054892840673029,-7.208941783252358,11.19139638519287,-0.7953229872003197,-104.76049209336094,2.1227474485156814,112.13993092548027
2257,0.01666666753590107,0.7736988921523094,7.26817021729052,1.4460989717781543,-8.090307269397378,10.417470990808308,-1.325489601843059,-126.29235609331349,23.987798534908617,121.6299050413227
2273,0.01666666753590107,0.44588966406583785,6.31841742361784,1.1759987130776046,-8.28678085861206,9.847201790618897,-1.5550328092277048,-139.04330840573013,41.38479920002426,124.91358678669803
2290,0.01666666753590107,0.4597048389285803,4.567843922111392,0.8722598041474818,-8.116044937244057,8.483405254474281,-1.828720278765261,-146.0076288306636,54.70581276094851,126.13757034634266
2306,0.01666666753590107,0.8179735026866197,2.765060048635304,0.6994707496419549,-7.5159975616455075,7.190685703332722,-1.970576727129519,-144.94472845240455,66.14137309205825,126.33628787005502
2323,0.01666666753590107,0.8796779714494943,1.8634490623190998,0.5838377068147063,-7.256077628436684,6.659771777454019,-2.0572163151845335,-136.99675150396254,64.01690422242831,125.90537123531891
2339,0.01666666753590107,0.9784686005473137,0.6890075155556201,0.4485734963223338,-6.953509809112548,5.838560023498535,-2.146849824358523,-126.6020778514169,54.370525604781754,123.22700817494679
2356,0.01666666753590107,0.6372463486582041,-0.3336877647310495,0.2409095277905464,-7.028328610992431,5.250784100452065,-2.253691657964885,-114.5049932086239,35.753144304808664,117.67933728576567
2373,0.01666666753590107,0.2957680761814117,-0.8361246609270572,0.04048047894835472,-7.1791639001041645,5.047725872150063,-2.3419771135307847,-110.0716608523412,21.13231159388514,111.75292557691817
2389,0.01666666753590107,-0.24886311714351175,-1.325556529599428,-0.2651695243000984,-7.543232190051675,4.8340433739811175,-2.50612971098572,-109.9349751066709,12.428636539257388,104.34527123333753
2406,0.01666666753590107,-1.0199538726240396,-1.556591729107499,-0.7404650233313441,-8.086117416492105,4.9366953546822065,-2.7596165424071253,-117.95247655067448,11.620858240650307,94.9086613854804
2423,0.01666666753590107,-1.5100713854730128,-1.7229881599664687,-1.1442319941997527,-8.410232466235756,4.999542563739419,-2.9788347551323473,-125.52483407590081,16.86430908910447,89.3859958188507
2440,0.01666666753590107,-2.4142361479252576,-1.8241320741921663,-1.8445861025474966,-9.093775871166587,5.181501305389404,-3.4178714845634994,-134.17771386744482,26.693731653865495,84.06566094600429
2457,0.01666666753590107,-3.375487656211853,-2.125532603302598,-2.5653765574634075,-9.891046777564286,5.073464124518632,-3.9410042550466953,-136.92799881977717,36.89088989599271,78.25368222651119
2473,0.01666666753590107,-3.8290216975510116,-2.3559248287320136,-2.969026331692934,-10.188525749316812,5.014207048907876,-4.155734727898612,-138.0309241065725,49.710840779404826,69.961081253307
2490,0.01666666753590107,-4.753654663014411,-2.4007985742032525,-3.490344453969598,-10.970082953754067,5.1164112858414645,-4.499302300804853,-135.96957301506265,57.92569370928675,60.05583846611697
2507,0.01666666753590107,-5.517397978341579,-2.4655706138432025,-4.026069287261366,-11.574020322528481,5.207839861738681,-4.804862433812767,-135.0247529471748,60.126250886270626,46.67125633458741
2523,0.01666666753590107,-5.702065394428372,-2.6625521525800226,-4.4862353139609095,-11.660361804419756,5.103243176710605,-5.087528013445437,-132.10906813390142,57.733109695449066,40.13005929854707
2540,0.01666666753590107,-5.592630037197471,-3.3295383904635902,-5.430215369451045,-11.440693217578529,4.533870340839028,-5.800850141774676,-119.43073439274033,54.21656631070049,34.31278035225804
2556,0.01666666753590107,-5.555664288371801,-3.5715234385311603,-6.247711317753791,-11.330111028400063,4.351612323981524,-6.471526301951054,-102.96579841723756,55.65226865914259,32.84218939753551
2573,0.01666666753590107,-5.814391212403774,-3.5570839942902324,-6.707258920294046,-11.518355718451737,4.419247936359048,-6.8227248446597715,-79.03905835841428,51.92859295762421,32.260527072722645
2590,0.01666666753590107,-6.465413572958111,-3.2695746278882023,-7.360344058597088,-12.082039402770995,4.76924970703125,-7.395088969018531,-40.36097091891227,33.82713341170262,28.638737303053343
2607,0.01666666753590107,-7.184423428067564,-2.738886035197973,-7.83134653660953,-12.744933402904868,5.338920064544677,-7.844002007485047,-12.89278545940019,10.647004746148012,23.965366486127003
2623,0.01666666753590107,-7.419706932669878,-2.7101462629258632,-8.066156578481197,-12.938265186962484,5.396380904388427,-8.076688455073663,12.35179349600016,-13.056113211701767,14.75341863554452
2640,0.01666666753590107,-7.64988054691255,-2.589005270332098,-8.344668399435282,-13.15868196182251,5.524022949439287,-8.392423910887912,46.16916571360519,-31.747972601931963,-10.060675694584729
2657,0.01666666753590107,-7.355948453986644,-2.6566736159354445,-8.219558503210544,-12.91417528632283,5.421671997511386,-8.349478064739332,76.46723258871602,-35.255377193571064,-35.100007465426195
2673,0.01666666753590107,-6.91829587239027,-2.428945056757331,-7.949376119184493,-12.575993717303872,5.576396110755205,-8.223932553576304,107.4771588545985,-34.17674005946431,-56.03163444111802
2691,0.01666666753590107,-5.687685571420192,-1.6191431700885295,-6.959802187255025,-11.532570121765136,6.235549755316972,-7.51794197371155,137.37814926721603,-30.447135753746355,-71.20601300313606
2707,0.01666666753590107,-4.511721052873134,-0.6210007317781449,-5.707143720605969,-10.525509632983804,7.080702356830239,-6.53691777039729,150.31460951749023,-29.534079480593636,-75.2388298966784
2724,0.01666666753590107,-4.151359800750017,0.034651626664400095,-4.946650931507349,-10.325593209838866,7.574954777526855,-6.038923752019554,157.8331178313002,-33.450035252531634,-75.27817861648683
2741,0.01666666753590107,-4.155583555924892,1.1431862845391034,-3.8896038842856884,-10.543466729956865,8.447343761011957,-5.308991520879418,158.8816338311672,-48.07656092612836,-75.96836923211661
2757,0.01666666753590107,-4.090509902989864,1.3825024056583641,-3.159157858404517,-10.650905944934486,8.487744744983315,-4.786158171734214,156.299767683389,-59.13086692795716,-84.25624371441515
2774,0.01666666753590107,-3.7184570440292357,1.3701333379507064,-2.7399334984242913,-10.472387699127196,8.248025303760171,-4.542547422160953,152.2697648277847,-62.07752664911655,-97.87728016482139
2790,0.01666666753590107,-2.8675632685154673,1.4440414547264575,-2.1552482348695396,-9.912294732776283,7.962367702704667,-4.168603781017661,148.8836985467509,-54.62076324540351,-116.43801870600755
2807,0.01666666753590107,-1.889592096096277,1.6840139939278362,-1.6652274603933095,-9.165004539600014,7.892935854560136,-3.830422942651063,147.79674224223507,-47.88014859126089,-126.13688732742565
2823,0.01666666753590107,-1.2897919732570648,2.0353607494682073,-1.384768597024679,-8.795399073791504,7.909246353369951,-3.6942521387077867,148.4673575357036,-45.291858650568315,-130.85529128909718
2841,0.01666666753590107,-0.3904617913544178,2.5991180835455654,-0.8964405979409813,-8.193107718658446,7.9945392029911275,-3.382107951134443,146.028133058552,-40.9511163386743,-134.06836253883293
2857,0.01666666753590107,0.22196283525824545,2.9399720866441723,-0.4053258907482028,-7.790582564544677,7.960570882415771,-3.005919307543337,139.47283168187556,-36.52855177561812,-136.38080504461078
2874,0.01666666753590107,0.6319745457351207,3.2724241721004246,-0.08711451209038495,-7.578098920771479,7.906702514106035,-2.786850147899985,130.71088742966478,-30.941730242114488,-139.0888247863591
2891,0.01666666753590107,1.2229250071644782,3.782405784587562,0.3240226952850818,-7.224504678565263,7.8905410683780906,-2.492811964251101,118.72844068190129,-19.090334333956033,-140.59094730938497
2908,0.01666666753590107,1.8375480206042527,4.143247805964947,0.7102683302491903,-6.764069187274575,7.852233841815591,-2.192489585766196,110.06212590825986,-8.349856741469106,-140.35930827387318
2924,0.01666666753590107,2.145424467730522,4.625692007707059,0.9783286075547337,-6.5855503569453955,7.936778795678913,-2.0178622099176047,101.23263791534683,4.739767085848036,-138.47683983672596
2941,0.01666666753590107,2.7563568099588154,5.166974767386913,1.3956354434758425,-6.107609019580483,7.956681181500851,-1.7377412002012134,89.56518583172598,17.022617506139735,-134.51012551397102
2957,0.01666666753590107,3.348654009822011,5.614865249881148,1.775814033485949,-5.589564804407954,8.025663970703631,-1.4594146726861594,81.83906025771515,19.28982537659189,-129.29284453532176
2974,0.01666666753590107,3.588306815549731,6.192228499984741,1.9638745991423725,-5.40790299987793,8.241141097204387,-1.3588584952205418,74.61358071967709,15.5260410967199,-122.30480969359
2990,0.01666666753590107,3.9182057093918323,7.379876442062854,2.1410516594737765,-5.140052273669839,8.984541589465737,-1.2565063742488622,66.75940958929603,2.2688394318901417,-105.57317532156574
3007,0.01666666753590107,4.27936775650382,8.13890441930592,2.128331586371362,-4.818332594630122,9.455899895178526,-1.2874816504880786,60.957717134692956,-7.4634151541909866,-88.51053632198432
3024,0.01666666753590107,4.808687398928403,8.434614043298364,2.085904649530351,-4.323479869952798,9.509170955182238,-1.3227955404534935,54.01802978700115,-12.91122782393287,-71.61423291926022
3040,0.01666666753590107,5.764273136538267,8.737204658976196,1.9420593654364346,-3.4026100564152,9.555857887555286,-1.444450912310183,55.67637581181815,-11.47429433389288,-48.97769851917941
3057,0.01666666753590107,6.0435986119627945,9.648712185406684,2.0491022745728493,-3.1395471490055322,10.316016403198242,-1.3265367728084325,66.56201712228265,-9.170304187212915,-32.68973957526083
3073,0.01666666753590107,5.933301084944605,10.349484957557916,2.220552189429104,-3.2607547770947214,10.891223498181253,-1.1478697661802173,78.51049733930367,-8.926822457453946,-18.26407951987042
3090,0.01666666753590107,5.798995490351319,11.098257498246431,2.8516958372980357,-3.403059553748369,11.521048318536579,-0.5119099502012133,73.45660814597946,-3.5809723457458937,0.6265131888845827
3107,0.01666666753590107,6.269601078000664,11.130016910600661,3.480789859160781,-2.929455953326821,11.516110277612507,0.10459726954996586,49.640315661129854,8.177999790441476,14.237215136189759
3124,0.01666666753590107,6.4866153509408235,11.041962195050715,3.7256715054526923,-2.697368029895425,11.451316975988819,0.3113967302069068,14.028548588177639,20.633328708975274,29.331431183013944
3140,0.01666666753590107,6.41075259296596,11.057218216371536,3.7993086963325737,-2.73208453848958,11.616667039600014,0.29703093572407957,-39.36770090414692,34.86420884470984,55.62477031754412
3157,0.01666666753590107,5.568890849691629,11.388221272063255,3.363803063637018,-3.5272581803470846,12.16000125191696,-0.21876959217488764,-71.79031519606315,39.29927265394715,78.52862466136088
3174,0.01666666753590107,4.877044895839691,11.341861671948433,3.0354756568953394,-4.161571398162842,12.403460902581736,-0.6178530814021825,-91.64267666024458,36.37860521767424,99.70423282439474
3190,0.01666666753590107,3.720998545205593,10.718499471735953,2.322905771705508,-5.227291581183672,12.250980841937661,-1.3851947134822606,-104.43410467368271,26.124990339414992,117.6546393217269
3207,0.01666666753590107,2.6051193697869777,9.910541751629113,1.703126982937753,-6.266823429980874,11.829451858276872,-2.0085843862235544,-106.0744360745638,18.001257255702917,125.11188083868184
3224,0.01666666753590107,2.0604367385357616,9.263751914077996,1.5094886171489954,-6.726659786334634,11.58105328990519,-2.176627707506716,-105.52451705391857,10.858305185858818,131.27851713082785
3240,0.01666666753590107,1.3979384597212074,7.969023068940639,1.225463877992332,-7.255029580688476,10.834660922351478,-2.391806873974204,-107.24419476238769,7.8786488208190955,141.31494736140633
3257,0.01666666753590107,1.0649959603995085,6.69093205487132,1.077713987675309,-7.463326294165849,9.986365346637367,-2.468869947649538,-111.6358014930308,7.525914800191188,149.8793762031987
3274,0.01666666753590107,0.9045020315825939,5.86158317168951,0.9354530501633882,-7.474698752051592,9.603143151147663,-2.5228897071287033,-114.69260484474582,6.767838080626997,159.3348442033542
3291,0.01666666753590107,0.48713937382102007,4.588931718325615,0.5799623266860843,-7.654414098688959,8.939650892859698,-2.730137496075034,-111.59085884829211,0.9486547922200029,168.72677778385028
3307,0.01666666753590107,0.01512158128619194,3.5915137948974967,0.23057167364954947,-7.924060476142167,8.392724866595863,-2.945615060967207,-106.02744437307412,-4.168303941013287,170.5868978420332
3324,0.01666666753590107,-0.43842064335942266,2.9927175884038206,-0.023665830008685586,-8.160037808227539,8.224681253051758,-3.0524563100516793,-99.13633674585402,-8.404186627448325,168.72534344412458
3340,0.01666666753590107,-1.1675491569012402,1.8738748870044946,-0.40938101135790345,-8.579023683276771,7.643040471759438,-3.230226075579226,-91.55523657849007,-10.039753117609688,164.32607324123273
3357,0.01666666753590107,-1.650727810397744,1.086634376233816,-0.7223729018017649,-8.814552687072753,7.231087564086914,-3.3861487509578465,-89.80804003785497,-5.827452939944587,160.28372140360906
3374,0.01666666753590107,-2.250905534377694,0.3452525303184986,-1.0586790323376656,-9.06624372111857,6.952613152533769,-3.521271507152915,-91.61084797871231,6.994583712485318,151.7379526386292
3390,0.01666666753590107,-2.633459329086542,-0.18596096302866935,-1.23814011195302,-9.17981807785034,6.736686090308427,-3.560326775603741,-93.49363060456135,20.30787190257146,142.92295147694577
3407,0.01666666753590107,-3.0673183636188504,-0.8600701846599579,-1.4345286532327532,-9.34037922668457,6.351219038501381,-3.6291597810722886,-93.97916826209004,34.58144584326049,134.07751499232074
3424,0.01666666753590107,-3.639562955534458,-1.4123562766522169,-1.622822150862217,-9.549124268451333,6.142474581256509,-3.665372519573569,-93.59318061171429,48.91523643921964,123.70607764333148
3440,0.01666666753590107,-4.0042414863348,-1.7326567365437746,-1.72218385784626,-9.645041972461343,6.0535898446232075,-3.6525035395197567,-96.24252219830302,53.27136716731369,116.92104968411086
3457,0.01666666753590107,-4.7227930762827395,-1.8350293157815931,-1.9240870708942412,-10.104579053607582,6.162975517493486,-3.7237307466484606,-102.2439635351831,49.25077631238569,107.93329937793946
3474,0.01666666753590107,-5.682155994343757,-2.1245447613090276,-2.523610130357742,-10.75146183013916,6.121525901252031,-4.096777877343445,-112.75756444155701,34.83711348427241,94.53389573591097
3490,0.01666666753590107,-6.212552326089144,-2.343748068726063,-3.1172330258667467,-11.0731829704836,6.06466302730143,-4.474911371392011,-120.21314622254364,26.542781058113626,85.80999563737717
3507,0.01666666753590107,-7.022908924031257,-2.782149422863126,-4.325428081411123,-11.694029973004758,5.767484499800205,-5.445610872307792,-121.36388283352905,26.372448093044557,76.0329691612866
3524,0.01666666753590107,-7.764192570269107,-3.246063403919339,-5.716552769464254,-12.218958686994016,5.452048431074619,-6.534074290599674,-109.63609968896948,36.93610233320361,59.62702552964522
3540,0.01666666753590107,-8.148406407144666,-3.353044353735447,-6.372566946956515,-12.473940579278766,5.4251124933540815,-7.008276222240552,-89.8245007937547,45.1555417351132,46.016767117749275
3557,0.01666666753590107,-8.552759361207485,-3.1238591660082338,-7.072416759043931,-12.780547737121582,5.710021906390786,-7.581088969432935,-64.14876785454457,44.92469500154511,31.985847600156
3574,0.01666666753590107,-8.547434366792439,-2.8817694885224103,-7.183174304789304,-12.6958531456545,5.994333353534341,-7.602487183303199,-33.44066764808496,34.449510494157934,14.359379899684606
3590,0.01666666753590107,-8.257377069473266,-3.038827597671747,-7.113298220008612,-12.386402873340248,5.84768908637166,-7.502379078398644,-18.80137976602406,19.771121486646006,-0.9571445039149171
3607,0.01666666753590107,-7.1154556903034445,-3.5686025826483965,-6.80947309409976,-11.274895044873654,5.30465480684936,-7.1766183072745795,-4.323843570113755,0.6083342135217706,-18.55287870099878
3624,0.01666666753590107,-6.17292641814351,-3.715432727771997,-6.6675207841455935,-10.382455207006632,5.1342164071232075,-7.033564429286681,11.05167467145105,-13.494937497949453,-23.912131991735922
3640,0.01666666753590107,-5.922016889864206,-3.647649231356382,-6.620351036691665,-10.19226639714986,5.171626392585039,-7.015009695214033,33.946545608961955,-26.70776769260987,-27.452881566903024
3657,0.01666666753590107,-5.809225792464614,-3.3589269820332524,-6.452159539109468,-10.184185966546833,5.403414456287026,-6.953658789129182,74.30450782954483,-49.29301420221305,-38.98130002732638
3674,0.01666666753590107,-6.61252896476388,-2.4860505072921515,-6.114532681363821,-11.102213250134884,6.209213537055254,-6.751348383519798,103.29172138405222,-69.25205297594633,-54.73861474443749
3690,0.01666666753590107,-7.089155712398886,-1.7512942169964312,-5.793433764570951,-11.739369582422077,6.845472043719887,-6.594378244914859,122.75336187676308,-86.55376908704571,-74.52074478847827
3707,0.01666666753590107,-7.868958766645193,-0.17171324196755886,-5.083240837645531,-12.81316990378499,8.23455967298746,-6.112694944542646,130.79330049219016,-91.45089177853978,-104.92083078412699
3724,0.01666666753590107,-7.8412863313436505,0.8372288227766752,-4.225755408781767,-13.066655420032143,9.048587068396806,-5.425559068077803,127.93194300357506,-77.21898369933513,-130.23893501839524
3740,0.01666666753590107,-7.147847555342317,1.096983336290717,-3.662207333540916,-12.699893068695067,9.062502781024575,-5.039045575957745,119.49056684986965,-48.294737658786076,-155.19613205692002
3757,0.01666666753590107,-5.204275447255372,1.4796873531252146,-2.6371657823890446,-11.222223485133052,9.048886928126215,-4.268711191802471,102.64264850722591,0.7553622529776403,-176.50712822968185
3774,0.01666666753590107,-3.159548903548717,1.8567735300779342,-1.8002029170721767,-9.517699787139891,9.09048559744954,-3.648911798638105,95.03873550803412,29.888614109841487,-181.1136673531269
3791,0.01666666753590107,-2.101871157208085,2.200209366363287,-1.3141753038853405,-8.772355467334389,9.07896291743815,-3.4017112078793343,94.2592674897631,43.63985787149026,-177.61284023365855
3807,0.01666666753590107,-0.6059452014654875,2.6859336126893756,-0.5934748653404415,-7.64244075230062,9.074773064532875,-3.010258944182843,102.14073205606753,39.548444785058386,-168.73164087853934
3825,0.01666666753590107,0.22418635652661323,2.901507623693347,-0.01709229683727026,-7.060351642718911,8.909424096900224,-2.664895208574831,110.59108307834232,22.660306873487034,-163.16453127098038
3840,0.01666666753590107,0.6953343804895877,3.1839041771262884,0.36659576259851456,-6.823924228778481,8.798841323199868,-2.480093060192466,115.12898563081792,5.511268542225888,-159.00471384001082
3857,0.01666666753590107,1.4726286667853592,3.426107836380601,0.8765186306357383,-6.341642231860757,8.50345669337809,-2.1776751707330346,113.39638520443914,-9.32421823129092,-154.57264506872457
3874,0.01666666753590107,1.9799422291070221,3.586293137639761,1.0844988255098462,-6.038775137329101,8.25715290532857,-2.0862465948358175,108.56024244185492,-13.96635800823738,-151.63922908436584
3891,0.01666666753590107,2.330104743298888,3.9474282967448233,1.2065294604197143,-5.875819786834716,8.211363506317138,-2.057217191967368,104.11360487706904,-14.530689581804989,-147.69342880084946
3907,0.01666666753590107,2.7285756535857915,4.553729472041129,1.2288213717266916,-5.6940100982666015,8.281843402209878,-2.1374229475826025,100.92501302531862,-13.557660832644972,-139.77049132590471
3924,0.01666666753590107,2.830758263209462,5.259938297766447,1.2428595416903494,-5.729624432483315,8.596830850385128,-2.1857561858579517,97.73506879611254,-13.079572350179822,-133.07762993934423
3941,0.01666666753590107,2.8803982001692057,5.863286468476057,1.37077017454952,-5.798457145690918,8.823531235559285,-2.1055501379817723,91.92687400141963,-14.310285353704202,-125.53990147320987
3957,0.01666666753590107,2.939652353170514,6.598679303109646,1.5712971308082342,-5.872379290992021,9.087491968591511,-1.9393030524656176,78.95738295631926,-16.596705692517958,-115.23714850651425
3974,0.01666666753590107,3.319550080412626,7.046226671254635,1.8554770605266093,-5.574600459510088,9.208847919110209,-1.6641192068904638,67.48158598080897,-13.712159711670662,-108.65742237336586
3990,0.01666666753590107,3.6532787616759537,7.431946821039914,1.993601628886163,-5.306598926654457,9.292944252423197,-1.5316893430411815,57.269660869696196,-9.66100546775414,-100.51346680706867
4007,0.01666666753590107,4.687690783241391,7.549643810659647,2.224728598330915,-4.335003134486079,9.058312635858357,-1.3087301902219652,44.36308952722998,-4.1484016235455154,-84.14786227266539
4024,0.01666666753590107,5.473264822104573,8.337737723389267,2.483149817414582,-3.578435409876704,9.632173138538002,-1.0610796637386084,34.11901130059936,0.8210199009736209,-66.40734065833854
4040,0.01666666753590107,5.642566911277175,9.059850220689176,2.6311291325733066,-3.423559320941567,10.198850670910998,-0.9295479177728295,23.50282607553374,4.192881096081108,-42.81935749178038
4057,0.01666666753590107,5.791463341280818,10.228543871450423,2.9410525753572583,-3.2754175086975095,11.272500112561136,-0.6467328466668725,6.362337006679333,10.28268501714047,-9.192498886920871
4074,0.01666666753590107,6.107637076631188,10.089391421347855,3.232721107265353,-2.9420255120426413,11.143512205859272,-0.3953419646114111,-15.968370977559095,23.957392240271012,10.388173020003086
4090,0.01666666753590107,6.585960106790066,9.425791318771243,3.3557173723369833,-2.428618309020996,10.541669982733204,-0.34057401711344715,-36.16065388125914,41.728197205830405,18.934498445400315
4107,0.01666666753590107,6.741939188531041,9.307147988212108,3.590298281627893,-2.1935382180362937,10.559776205853373,-0.2513908820554614,-50.60711527776682,59.11148285109266,31.643108707604757
4124,0.01666666753590107,6.9337851179450745,8.915519491165876,3.693657533815503,-1.9286802439033983,10.312425539099424,-0.26560645441263914,-54.30871239279313,55.65785575388366,46.2718644379655
4141,0.01666666753590107,6.755800540623069,8.905098634916543,3.7832413586288687,-2.0343232231140136,10.488548414202779,-0.26605478270202876,-56.77962553259904,39.576356353101644,65.45642806171102
4157,0.01666666753590107,5.852161263349652,9.069237057715654,3.6720372381597755,-2.8525422249943015,10.974871210943906,-0.422725938360393,-64.65250796621136,14.707021160512623,88.37486827450036
4174,0.01666666753590107,4.231553865927458,9.624671384605765,3.2210283313840624,-4.414758808246255,11.819425992694496,-0.8526347739621997,-72.27742379710094,-0.05754012824997906,101.2937339574726
4190,0.01666666753590107,3.360115899556875,9.620322541746496,2.903791935238242,-5.225045848083496,12.13665712814331,-1.1128539823785424,-80.91506543660665,-7.965616765747222,112.13203522679973
4207,0.01666666753590107,2.124807211637497,8.988813859957457,2.219706093993783,-6.357652870941162,11.981633155170082,-1.6868638304010033,-97.30971193536084,-6.3677892051842955,126.14291155427361
4223,0.01666666753590107,0.9051081807821989,8.411500878736376,1.631855936667323,-7.46946085139811,11.800721292224527,-2.1826135039180516,-111.15813221342596,2.358804122316611,137.53016195738385
4240,0.01666666753590107,0.296500482109189,7.686259435760975,1.3368874864310025,-7.937229169794916,11.5000996385321,-2.382081014251709,-121.2911686396251,10.201262332044749,147.03932890479402
4257,0.01666666753590107,-0.6737602620631455,6.176327166497707,0.8043553117007016,-8.674642112079262,10.575638230243325,-2.7736820387691257,-123.5664958974531,14.140733591521451,153.8648598857928
4274,0.01666666753590107,-1.164908871525526,4.602303241074085,0.4759288284987211,-8.968231090655923,9.431209836688637,-2.982426496013999,-118.75088468351395,11.628712958195822,152.05629409546515
4290,0.01666666753590107,-1.4198784888505935,3.50031756645143,0.2927490206211805,-9.018509910041093,8.730008025470376,-3.0361463957637547,-111.72119934822346,10.538588299678752,144.46016751192715
4307,0.01666666753590107,-1.5526970597565173,1.7977771512299776,0.13886077367961405,-8.87410903789103,7.510013226538896,-3.013550825335085,-106.83225239316589,14.667131148212457,130.93206261536812
4324,0.01666666753590107,-1.4202701185166835,0.6586959639221429,0.08782938236147164,-8.533982180023193,6.695833855438232,-2.931848401421308,-107.65011973495072,19.396745157859268,121.06809466133248
4340,0.01666666753590107,-1.4406196635842323,0.12185703190863131,-0.022763620471954345,-8.348730826568604,6.458209925189614,-2.9035671865716575,-111.71845361217713,22.13513875084663,113.0985616358699
4357,0.01666666753590107,-1.3425403976261614,-0.333692440906167,-0.34515579194575546,-7.978977476722002,6.3727674379646775,-3.019387276403606,-115.28606632134988,21.780684376321528,107.41049620829916
4373,0.01666666753590107,-1.251112990772724,-0.5191127211868762,-0.7336749247997999,-7.682544799152017,6.448483480945229,-3.2356130293145773,-116.11619385269489,19.374898797798984,105.38675896854858
4390,0.01666666753590107,-1.3686387154787778,-0.7414899824649095,-1.0863853699088095,-7.594856578826904,6.472126222339272,-3.403356636998802,-114.2640582856517,16.030645227316686,103.17945356466473
4407,0.01666666753590107,-1.7541846777409313,-0.8478437402933835,-1.6877900053352117,-7.708581742206215,6.666356416541338,-3.7499177656978366,-105.14099510183318,11.04960853922712,99.63453757410392
4424,0.01666666753590107,-2.314806051880121,-0.9477963989078998,-2.1074255764648315,-8.068010681915283,6.769156281280517,-3.983501480644941,-97.14494728201261,10.578829212947529,95.8167555262011
4440,0.01666666753590107,-2.838281059929728,-1.1010668062120677,-2.296164625904709,-8.39541892798543,6.797589764082431,-3.999064229827374,-91.59724224188565,15.806203503642775,89.80293788654495
4457,0.01666666753590107,-3.6409237224936484,-1.2858043649256228,-2.3328180939108134,-8.950273993682861,6.82437372611165,-3.8181523668818174,-94.53056260359601,27.29352300828287,77.96107692246784
4474,0.01666666753590107,-4.11798886154592,-1.352132986357808,-2.337647852154821,-9.25747999420166,6.895750278583169,-3.652353171263635,-104.68089989896278,33.58391379045305,69.5706881309166
4491,0.01666666753590107,-4.294989104005694,-1.4928689062595366,-2.5715011778235435,-9.278279036602378,6.8789908669620745,-3.689164825506136,-118.45823839833558,34.32670710797569,64.30737167726144
4507,0.01666666753590107,-4.519297041085363,-1.6417758576571941,-3.2231939849853513,-9.305812940216065,6.879888692584633,-4.023754361382499,-131.73822984310473,29.19914749426372,61.86273769028716
4523,0.01666666753590107,-4.667954109375178,-2.111543240916729,-4.1739977490156885,-9.31149946141988,6.509535623279214,-4.707747555907443,-132.92363649431712,23.170139513893464,60.345786826573175
4541,0.01666666753590107,-4.843128597712517,-2.4041209966242314,-4.862763857030869,-9.34950799729675,6.301839798304438,-5.125834856415446,-125.11506370683507,15.402877418058937,58.437766651740944
4557,0.01666666753590107,-5.229453143131733,-2.691540346655249,-6.077851594698429,-9.555708030755817,6.108955758014321,-6.005853206834407,-102.28672051938739,4.648601989674937,59.656641229886404
4574,0.01666666753590107,-6.100757253989577,-2.7649405139088628,-7.191820552581548,-10.286986123546958,6.098929454040527,-6.913106523586251,-75.19950166743746,-2.796887973369586,59.95231328886708
4590,0.01666666753590107,-6.608635464456677,-2.821058706972003,-7.585549821299314,-10.661678975622355,6.098928869518637,-7.164796753914468,-42.036348020424704,-5.8402646672802385,52.40829080341254
4607,0.01666666753590107,-7.522651758837699,-2.5566426313877106,-7.854656685048341,-11.43785039536804,6.420650886645912,-7.354836766417697,-3.387903388477143,-10.764692320641917,33.838474940819424
4624,0.01666666753590107,-7.890464496010542,-2.30376735599339,-7.704323500239848,-11.743260160119831,6.7004732056766745,-7.2043004237199195,15.169988457929012,-19.120740628593637,17.204928915465715
4641,0.01666666753590107,-7.818977468901872,-2.306350358223915,-7.570643344068527,-11.645845787811279,6.7103498720467085,-7.096711680736393,29.13662735769601,-32.999594522053044,2.1867531512278706
4657,0.01666666753590107,-7.232188803327083,-2.470662968546152,-7.364854229497909,-11.071985869653522,6.54380321906209,-6.957698967898078,51.24222724792963,-52.838333173934885,-14.552040753150449
4673,0.01666666753590107,-6.508557718157768,-2.6973557549357414,-7.118606847810745,-10.39023694692403,6.302586817279457,-6.796089880913495,72.11519997412397,-63.94500282103559,-26.148107114660903
4690,0.01666666753590107,-6.098434948521852,-2.3007284266889094,-6.693098292994499,-10.082582325854897,6.65902300491333,-6.552330799777573,102.75597500593477,-69.13757217526774,-43.851515188585196
4708,0.01666666753590107,-5.795605847913026,-2.0193997947484252,-6.334240431171655,-9.899575536456704,6.887071882086992,-6.385334754491062,123.91994452662291,-68.14360889630163,-60.1927427778407
4724,0.01666666753590107,-5.428690936362743,-1.0547177274912596,-5.645250451272726,-9.694871294513344,7.770681347766518,-5.932382070403546,142.08749639804813,-64.42483044041815,-77.52398579672204
4741,0.01666666753590107,-5.517113900703191,0.804375185444951,-4.77836941755414,-10.054300526483356,9.47415582896769,-5.425858635546267,155.27496610032028,-63.44908327596847,-91.23014689475414
4757,0.01666666753590107,-5.581574974697828,1.6730039396136998,-4.354022892254591,-10.339510091510414,10.198702859938145,-5.273227695189416,154.51789427233774,-64.16707276152022,-93.1183663511825
4774,0.01666666753590107,-5.2147833972662685,1.8790578426003455,-3.7123581426322456,-10.200345950970053,10.241945789337157,-4.885666812908276,147.78239884497805,-61.25398342013143,-99.07912025117683
4790,0.01666666753590107,-4.534828956738114,1.675734241360426,-3.26297654479742,-9.769688927349447,9.847949978637695,-4.67063764937073,141.5847671543785,-54.75215217937246,-114.39631123855067
4807,0.01666666753590107,-3.3043110102266073,1.3179472236394882,-2.4943401967316863,-8.917204667773841,9.176378166529537,-4.200476152227074,133.95171656818744,-38.62032111459662,-135.91168033165764
4824,0.01666666753590107,-2.030540781965852,1.3369301565289498,-1.8906440893672405,-7.944260383605957,8.919598869434,-3.8145609182611104,130.71264961847064,-27.86304125675146,-145.6309165771807
4840,0.01666666753590107,-0.8142524363368749,1.7133499785274267,-1.3445900236323476,-7.128735443115234,8.884583085632324,-3.55164750232473,131.72779331405295,-24.189651115450005,-150.69853445073664
4856,0.01666666753590107,-0.21573358547985552,2.1210271085768935,-0.9957777550056576,-6.822278215137124,8.95730813010335,-3.4018608454830943,134.79498538349557,-29.654970413808275,-151.17810935311994
4874,0.01666666753590107,0.4369558315038681,2.67775615145266,-0.5464236296996474,-6.4543187629699705,9.159617001342772,-3.1283228674188255,136.80000107473114,-39.57528742849654,-149.8798269956839
4891,0.01666666753590107,0.5948223344266415,3.7234102825224396,-0.09642594579309224,-6.661866119384765,9.711330846405028,-2.8633146711602806,134.46369388799326,-48.85692028408607,-147.23967201352883
4907,0.01666666753590107,0.5822147817879915,4.510329306253791,0.11139145973473787,-6.931064168548583,10.121038605499267,-2.7593165365472436,125.06031291044825,-47.17653323881744,-144.94523388640314
4924,0.01666666753590107,0.7219014848977326,5.1328550556421275,0.419111547255516,-7.10554278357625,10.237606883350015,-2.554612586864829,103.60050057605017,-34.88591177079756,-146.95333682314356
4940,0.01666666753590107,1.1660586260825394,5.138443084907531,0.5956298514172434,-6.873605082270503,9.86007150132507,-2.4441800352901217,84.24246722285923,-17.912509192722354,-151.7859688684944
4957,0.01666666753590107,1.6208832917541265,5.2944297654330725,0.6519850681066512,-6.608894992175698,9.62723509761393,-2.4573478521600363,64.96878670591796,0.39476897913172265,-157.52416105438382
4974,0.01666666753590107,2.426236382320523,5.37005988369584,0.6880994607999921,-5.968297579523921,9.309256066407263,-2.5032871810361743,52.61924119592839,16.635955374583435,-160.57381319803784
4990,0.01666666753590107,3.2593431567311284,5.844911438351869,0.8234948964565992,-5.3130333436161274,9.254786809594929,-2.5017905127376316,49.69774389167132,28.467612036040553,-158.9432421374807
5007,0.01666666753590107,3.655342708468437,6.413878031510114,0.9716434307023882,-5.0225879237622015,9.424326799176633,-2.4636332160398364,54.88629709467151,29.770629422118688,-154.3945000747923
5023,0.01666666753590107,3.8191859477132555,8.026624194037915,1.2997536875620483,-4.964229258295894,10.51503500072062,-2.282122510418296,61.476019209670206,29.391687111871796,-140.4543025448497
5040,0.01666666753590107,4.413897807502746,8.536465229010581,1.8086060037583112,-4.422091050830483,10.660781734521686,-1.8769035871759057,56.37181884291968,29.797905782569135,-126.84127107615073
5057,0.01666666753590107,4.946959559065103,8.5107334063828,2.168992390322685,-3.918261823493242,10.311079092926532,-1.6174322745174168,42.333297324780176,36.38536710495256,-111.93865208082916
5074,0.01666666753590107,6.032873804330825,8.291336622220276,2.8781600658535957,-2.8321915108829736,9.738415983337909,-1.0571890860408544,19.543331262731495,48.32065822668628,-90.12431877756157
5090,0.01666666753590107,6.760135939478873,8.3926208216995,3.2591303907632825,-2.079664001575112,9.642348203332721,-0.7987649443477391,6.352261196993095,51.97370977218673,-72.10659393576975
5107,0.01666666753590107,6.89166388605237,8.695563904076813,3.406304819279909,-1.9120698853641747,9.805901885046437,-0.7688377158567309,2.201397076808378,46.37621265301037,-51.46846360380796
5124,0.01666666753590107,6.911874314910173,9.090107996308802,3.5222996811568734,-1.8448837703198193,10.088118697998299,-0.7781155395507812,3.4671352903965835,34.86512067496405,-21.33268714601851
5140,0.01666666753590107,7.111355269247293,9.035272828793525,3.677151804694533,-1.6120470743477344,10.00447127749659,-0.6970110815301537,3.404329993431024,30.064354877185917,-1.9110098766979935
5157,0.01666666753590107,6.9261559382408855,9.278697554275393,3.8416333418428894,-1.7598890268623828,10.26184788289815,-0.6031891807556152,1.698427389135634,31.701991768439438,16.659031168694323
5174,0.01666666753590107,6.639846010756492,9.673719785413146,4.156406855006516,-1.9837462975651026,10.751611906134336,-0.3869619665399194,-10.364685706994704,33.886579963143824,42.80826867966286
5190,0.01666666753590107,6.1034934009552,10.015424852383136,4.206461217986047,-2.464980246734619,11.237036292731016,-0.40432022083699704,-27.24884332582723,30.539558458500384,65.22680393200437
5207,0.01666666753590107,5.5859740864396095,10.165258855497836,4.153651418818534,-2.9225720390319823,11.603648568072915,-0.5053256033748388,-47.13809293416861,23.190631788950796,88.43770601486447
5223,0.01666666753590107,4.312904699924588,10.437769974732399,3.7487162809535857,-4.112640486255287,12.277316914068907,-0.9199714033931493,-70.06120499635023,5.450571639279746,116.7631493708785
5240,0.01666666753590107,3.230587602367997,9.98367479237914,3.224248170213401,-5.132120896148681,12.189479494531453,-1.3985124602168797,-82.18839028281545,-10.078785941169018,131.27410482862402
5256,0.01666666753590107,2.7691619309961792,9.386362394702434,2.893299767318368,-5.526715841785073,11.994651042175292,-1.6394292945310474,-90.728722217216,-22.007415920914685,143.65711485045207
5273,0.01666666753590107,1.8258400471538305,8.400608313322067,2.189081823149323,-6.356756214362383,11.591976834979652,-2.173336264745891,-93.18181197838275,-29.09035282606917,161.84101819475032
5290,0.01666666753590107,1.082410036537051,7.413000128507614,1.6410305922478436,-6.980894659644365,11.066748553521931,-2.5784049658626316,-88.67465893755055,-28.21511189525623,176.41472943058992
5306,0.01666666753590107,0.6974556104272603,6.609390082216263,1.3461591726452111,-7.210437574768066,10.734702418518065,-2.730286549156904,-78.93743197375366,-27.60218779461221,187.10352468917466
5323,0.01666666753590107,0.13836860624849795,5.0714071919888255,1.0891735393226145,-7.518841260638832,9.809194423785804,-2.7955288366571067,-64.38386979596558,-33.88383422709748,189.15024551548234
5340,0.01666666753590107,-0.14864859272241593,3.4330461112111803,1.0978683024317026,-7.602488096618652,8.597878021350503,-2.635117033165693,-56.37039133338315,-40.56052855589254,181.35836571033178
5356,0.01666666753590107,-0.316670578956604,2.573021519258618,1.053659450609982,-7.563134575873613,8.129063993293046,-2.5225907241821286,-52.47477927988803,-43.001672316200946,171.99279666003196
5373,0.01666666753590107,-0.5671195039868354,1.5594646541953086,0.9933791694313288,-7.525874812537431,7.593361371833086,-2.3738497770011424,-53.12846936459327,-38.60191375478343,162.88695238311104
5389,0.01666666753590107,-0.7971756293296813,1.048317797321081,0.9321291664376854,-7.524975817871093,7.416938052478432,-2.284665765160322,-56.38822154221146,-30.075617859127266,158.6039593206495
5406,0.01666666753590107,-1.1279045442551374,0.7234791094779968,0.7769713379517197,-7.609221788787841,7.410951963806152,-2.295589310234785,-62.51143490670912,-19.648878175975703,154.44930551269246
5423,0.01666666753590107,-1.9419944835066794,0.48954643496274947,0.5847288104355335,-8.071153656116127,7.581540001136064,-2.2975354758664963,-75.96067843911119,-2.2350359719141024,147.88737885252115
5439,0.01666666753590107,-2.7662545191168784,0.2607435245513916,0.25718027911186214,-8.6183777885437,7.6400483042061325,-2.4757535696834325,-87.05082927370421,8.97980764994032,141.55763764299522
5456,0.01666666753590107,-3.357228945943713,-0.03633855683803558,-0.009641980831325054,-8.929475535804032,7.6122162944287055,-2.582594818767905,-98.78480056965181,20.828354515441234,132.97733544157177
5473,0.01666666753590107,-4.230327539002895,-0.3066191405415535,-0.5511421826541424,-9.430760339355468,7.672369442096352,-2.8881550979062913,-115.24395137492759,39.58598008964219,120.63105817710004
5490,0.01666666753590107,-4.7907723875313994,-0.6411293275713921,-0.9959329455673694,-9.718064538574218,7.563133991351723,-3.1365526433646678,-128.86624458014109,53.66534955411296,111.1636100251403
5506,0.01666666753590107,-5.1539405137687915,-0.9275468070834875,-1.3748741027370095,-9.818023334668576,7.482929404780268,-3.293373436626792,-142.42261279948565,62.73069763944487,102.58686635227443
5522,0.01666666753590107,-5.7726212781667705,-1.3898019150167702,-2.111885624613613,-10.104578176824749,7.264905662536621,-3.6932046754814682,-150.64915218303747,65.89360114972686,94.04018234194577
5540,0.01666666753590107,-6.422059584400057,-1.5502701248705386,-2.9148715476572513,-10.520571007537841,7.2625120453983545,-4.221575054357201,-149.8889384680367,58.90419343997195,89.14139308429421
5556,0.01666666753590107,-6.939380745995044,-1.6874217565447092,-3.5227474249243733,-10.81790063394755,7.262063132587075,-4.539704234624281,-147.9301358367254,48.37428204186005,86.12921818861605
5573,0.01666666753590107,-7.706590276128053,-2.28058521784842,-4.642865553086996,-11.30721589050293,6.820933230268955,-5.249735175921023,-146.62242781823477,36.64621544444993,81.65737039560364
5589,0.01666666753590107,-7.9781439485073085,-3.2296611351728437,-5.743741805163025,-11.387570991460978,5.960514670562744,-6.038474948806129,-139.69365169774207,34.7039828520651,73.69535057822807
5606,0.01666666753590107,-8.269680086207389,-3.534824231687188,-6.5015224126935,-11.511919840185344,5.72034690105021,-6.511030604227457,-120.3317319669134,36.62713872609808,63.11193830834747
5623,0.01666666753590107,-9.087578185570239,-3.709924193483591,-7.666064204472303,-12.158205235345662,5.599740745985508,-7.398082052170578,-74.53066222315313,38.362539530036585,42.74805031684544
5640,0.01666666753590107,-9.888758958888053,-3.7045723110616207,-8.137498644161225,-12.88005586683899,5.627120920342207,-7.760654714999161,-39.143151604993584,32.832128528888084,24.00957488552991
5656,0.01666666753590107,-10.342495244801043,-3.3915018024235963,-8.181013960760831,-13.302034201702474,5.9485436622619625,-7.7625987982716405,-13.85208552832848,21.498927120227453,3.9683061837183815
5673,0.01666666753590107,-10.873491296005248,-2.4533961919248104,-8.083595204538106,-13.866019207055865,6.875998699408769,-7.662192002681456,2.8231592287949825,-0.16070872160042005,-23.845542769970177
5690,0.01666666753590107,-10.273740273004769,-2.1531652911156414,-8.142042717331647,-13.350068749292195,7.1495350700378415,-7.734168091948702,15.210735658970016,-16.141316489985694,-46.08683802844444
5706,0.01666666753590107,-9.51384486527741,-2.356686460754275,-8.140165233021975,-12.724583565576374,6.902185280066728,-7.7729242678551,34.87851126083185,-29.051041672301164,-66.25588804368267
5723,0.01666666753590107,-7.999678319445252,-2.350789803931117,-8.06221573190093,-11.452963208825885,6.82452277919352,-7.819610780103038,69.08676922822119,-39.728095835702646,-85.43205394984368
5740,0.01666666753590107,-7.600809349751472,-1.4069453575193882,-7.9772461228847495,-11.266664684405923,7.688380665698647,-7.893830638842237,99.89088823403284,-49.08795826295093,-94.33765757086734
5756,0.01666666753590107,-7.407346632790565,-0.8924135343819856,-7.671301520603895,-11.310957415118812,8.102727775031328,-7.811530541296256,135.43593033520955,-58.690333386869675,-108.15123022378705
5773,0.01666666753590107,-7.1759916998088356,0.021740707165002822,-6.4830561971545215,-11.467477179607748,8.82323166809082,-7.019049947048164,173.65649413806366,-64.60552309491084,-138.73793064793887
5790,0.01666666753590107,-6.914582404825091,1.1625304519563913,-4.825932548239827,-11.561300833947955,9.75442706080973,-5.696403130882978,183.75014769350852,-61.04901627332852,-163.73339040619405
5807,0.01666666753590107,-6.451527670946717,2.034607300752401,-3.8316029462158676,-11.499051298522948,10.3559696434021,-5.034855576921999,180.10960222437836,-50.25753595076181,-185.05833382524105
5823,0.01666666753590107,-5.613544814932346,3.4535400331854818,-2.426042321053147,-11.23015252456665,11.329063565173744,-4.0385684110894795,158.3105890354191,-26.075657590587284,-202.92101337287357
5840,0.01666666753590107,-4.745719193840027,4.61626279284358,-1.540399888241291,-10.784981237903237,12.109124978095293,-3.4258027159541844,136.86398628687581,-5.501698593425053,-209.76837363845974
5858,0.01666666753590107,-4.251007338938117,5.582345959070325,-1.1112518078789115,-10.690260050201415,12.664428956604004,-3.244441501805931,116.89784070131115,12.976685795617334,-211.2831456718285
5873,0.01666666753590107,-4.010851844385266,7.266127897807955,-0.6841784879639744,-10.926538995581865,13.77758426001668,-3.122337801659852,93.34739625443137,34.80028851936228,-208.92387538910103
5890,0.01666666753590107,-3.1884616943001745,7.654839046102762,-0.39816578986048695,-10.421810773578285,13.719225010028481,-3.057544573101401,78.84201423104858,52.50181658371753,-213.8443436671782
5907,0.01666666753590107,-2.5311872876137493,7.884751963582635,-0.15118921711593866,-10.0495118309021,13.47666186981201,-3.045273412810266,68.30304600209725,75.59145890314781,-221.20180978073762
5924,0.01666666753590107,-1.1885919449299573,8.021971984317899,0.30434067421555516,-9.022100628009438,12.943354034534096,-2.9493565855830908,64.74582201065208,101.69965893003562,-226.36204501943894
5940,0.01666666753590107,0.12913959013223647,8.162903134530783,0.8157917747333645,-7.883357294353842,12.55788698272705,-2.7415099539607763,70.21842912085475,111.21158527387047,-223.43656571489575
5958,0.01666666753590107,1.1772107192158698,8.84137873467803,1.5226508810609578,-6.998103568598627,12.522274402076006,-2.4504656914308667,82.32420859446115,104.06082117516317,-210.68443860994185
5974,0.01666666753590107,1.6027701274365185,9.291424933901428,1.9705518849492072,-6.653037500762939,12.443115232904255,-2.281374030138552,88.86518023425889,82.35126297376358,-196.04167416159342
5990,0.01666666753590107,2.261796930748224,9.550981294494866,2.497792967534065,-6.058976798358559,12.19082681748718,-1.9705770193904637,92.6974286228238,54.09236956592757,-181.05126674486968
6007,0.01666666753590107,2.731076238229871,9.747242117741703,2.8620377830922603,-5.669769975501299,11.74296073878184,-1.7869716795772312,93.24949232286842,20.30968873289068,-159.19849996714242
6024,0.01666666753590107,2.9337106881618498,9.950690222144127,2.9463842917740344,-5.520580700030923,11.502043904467671,-1.7747013960689306,92.3156620293551,8.380193026667717,-141.88111540208703
6040,0.01666666753590107,3.0341794796049593,9.943099620884656,2.9578344910711047,-5.457732906451821,11.084405863830819,-1.8124097799554466,93.76408560512634,8.437535879844559,-125.31760613648262
6057,0.01666666753590107,3.3090298554420468,9.755560448753833,3.244696207219362,-5.195269133979082,10.393828030218556,-1.5967825774595141,96.67108241777547,20.257820276333607,-108.01186704396211
6074,0.01666666753590107,3.5374452278405424,9.695002227416634,3.5304116759419437,-4.949263159832358,9.980379458894486,-1.3751689940303564,98.33182925408573,26.192704834846502,-98.26313804160291
6090,0.01666666753590107,4.176973549956083,9.372618531510234,4.276724548518658,-4.2784389512211085,9.324518028845102,-0.6905769568294287,100.01527280900794,25.458812961359676,-87.95848628231803
6107,0.01666666753590107,4.881604751101136,9.385914066413044,5.084415142121911,-3.533244853541255,8.928576577670313,0.06928221054077148,103.6958158659177,11.194300974151963,-70.05525590158314
6123,0.01666666753590107,5.203410939380526,9.484448674923181,5.448435501274466,-3.1985043648868796,8.754997213037312,0.4438263017952442,103.63767046551338,-6.255910279692664,-54.33348890400736
6140,0.01666666753590107,5.73237694606185,9.5630399810791,6.2357660284161565,-2.6771669533878564,8.598476279504597,1.2840408623844384,100.21219399296858,-20.64806142701499,-40.99877056851348
6157,0.01666666753590107,6.205208393067121,9.729266900590062,6.893048033887148,-2.2382804460823533,8.511087553582712,2.0563202431276437,86.74284238365,-30.55401113878413,-29.238530365018015
6174,0.01666666753590107,6.324845410838723,10.003902756893634,7.155365091365575,-2.1478981643676756,8.638728356524556,2.40991448533386,63.49795327947991,-27.951610027266305,-18.36478382899309
6191,0.01666666753590107,6.583368921253085,10.36285063508749,7.403710906636714,-1.917306032451987,8.919448355047404,2.7319346086248752,27.46781065288138,-23.123111953910634,-1.4930110506730871
6207,0.01666666753590107,6.553126343202591,10.6265062476933,7.098522675681114,-1.98539231120646,9.221417770086973,2.4844334274843334,-28.44886487431616,-15.355924990156977,27.31256728323616
6224,0.01666666753590107,6.359440923401713,10.669918688440323,6.697261257892847,-2.207005602374673,9.409062302288412,2.093280731256306,-68.35971608164084,-8.800551042720627,48.17659929180695
6240,0.01666666753590107,5.859444990617036,10.436706144893169,5.557505532324313,-2.7349276529610154,9.493010240106656,0.9296990166813135,-107.18626792803683,1.1896923814731644,66.28503246087112
6257,0.01666666753590107,5.6132788574725385,9.873287833511828,4.370708654117584,-2.9920056407421827,9.233088991723582,-0.28865093765258787,-127.84454390295556,4.79934170333618,76.20761026817466
6274,0.01666666753590107,5.390386047887802,9.666340781077743,3.8699206941723823,-3.2163112397342917,9.378536852175928,-0.8218094275876879,-146.62383483720382,9.399333236688136,88.29748906139328
6290,0.01666666753590107,4.86440227188766,9.592342647930979,3.065515698111057,-3.72178706523478,9.861866367118898,-1.6647177573055028,-172.71741142907862,16.54698020781297,109.71416192099356
6307,0.01666666753590107,4.02723891556263,9.662722006058692,2.3830928216427565,-4.518459421217441,10.42136178770177,-2.367266891479492,-190.12794611403464,23.335288365382496,125.68733793663375
6324,0.01666666753590107,3.5279023234695193,9.391207496646047,2.1045675566852093,-4.948965053668618,10.690410126196593,-2.6520269591733814,-204.36746985416386,29.56582278476127,139.29352555578438
6341,0.01666666753590107,2.5903970169514414,9.270968421328067,1.5393749291077254,-5.749376596179604,11.356147386932372,-3.1797984953731295,-217.72886349346123,26.56030732352388,158.82434220440913
6357,0.01666666753590107,1.6661480823695658,8.990144231778382,0.7633011245176196,-6.547243714904785,11.706149742126463,-3.8555616216912862,-222.37279107242293,6.3309373464043155,175.49835027040598
6374,0.01666666753590107,1.1060784968942403,8.29384889730215,0.15259060834646224,-6.971016824230551,11.663204626630247,-4.272152710558474,-221.00545550247807,-23.952575249358862,192.10167953887157
6390,0.01666666753590107,-0.10081073674857616,7.0614090428173535,-1.2352929058283566,-7.9768831347912545,11.30991024415344,-5.246294095556437,-208.9509639193493,-66.40809880933641,209.32859141818096
6407,0.01666666753590107,-1.4173627066373824,6.0959489769250155,-2.647808756956458,-9.117568250164389,10.976965406744181,-6.260686826921999,-189.3404389631105,-88.46926148882993,214.66981300950928
6424,0.01666666753590107,-2.0671458807855845,5.371301992711425,-3.5171053273841735,-9.561693242645264,10.832565995898841,-6.7072057288020845,-159.8854803938623,-96.48881881977368,210.8340060923868
6440,0.01666666753590107,-2.961543866983056,4.460207138735056,-4.599180432878434,-10.140491493988037,10.582221700286865,-7.273883041979372,-113.04003374487206,-89.43399155814838,196.03298616096916
6457,0.01666666753590107,-3.4065041412442922,3.961224182385206,-4.957628837117553,-10.324546915656327,10.498725086432694,-7.318175918822735,-83.46385980842363,-75.30426310892712,185.6326024702774
6474,0.01666666753590107,-3.696792324709892,3.680017130997777,-5.058347219407558,-10.333075090026854,10.584017351531982,-7.171381575664878,-64.08882611438854,-59.35866056696626,180.56117335116457
6490,0.01666666753590107,-3.9700411105692384,3.4752006608515975,-4.84664741948843,-10.18987190322876,10.825234337836504,-6.707055945067852,-51.80226519383024,-40.68592058377021,184.0339557139009
6507,0.01666666753590107,-4.091137094977498,3.0665619922935963,-4.508587431022525,-9.960926953998207,10.735303307020663,-6.2134011980034405,-46.380689842011314,-34.23517574290835,189.5241847121622
6523,0.01666666753590107,-4.462336551979184,2.5891969935119152,-4.436099702438712,-9.953743764495849,10.561273020282387,-6.0048065244928,-38.47914451954704,-32.1662397263252,193.70184259724383
6541,0.01666666753590107,-5.202629433614015,1.6985311795800924,-4.222513065859675,-10.158448006439208,10.041430815777183,-5.638942583300173,-25.224228406768297,-34.282512368951124,193.23949343194732
6558,0.01666666753590107,-6.020372634676098,0.8917138616800308,-4.008163043692708,-10.564415117700397,9.47984264243245,-5.337123682647198,-13.997010189685104,-35.6029006336359,189.01059546771225
6573,0.01666666753590107,-6.714821464502811,0.44583939518332477,-3.9029251381516454,-10.846930329076946,9.248652544623614,-5.170427099797874,-4.9031866188165845,-35.306313329306434,184.02677035489404
6591,0.01666666753590107,-7.653028781810402,-0.39953415560424327,-3.602417173966765,-11.241076654163003,8.646211551886797,-4.815187136211246,0.09421256116211467,-35.61122321913955,173.77624101459233
6607,0.01666666753590107,-8.210814055740833,-1.3145388765007258,-3.336529272264242,-11.40537845083028,7.881713034278154,-4.517258813256025,-0.5342330643294793,-33.11754847392458,163.67575726997748
6624,0.01666666753590107,-8.586025670993328,-1.851887511602044,-3.292035466021299,-11.405677433776855,7.4696104890018695,-4.445133707439527,-1.1638071384575797,-29.20418134368202,153.1430591546842
6640,0.01666666753590107,-8.910853252920507,-2.923426025512814,-3.2697780415058135,-11.263372072601317,6.5295870621830225,-4.399644095092267,2.7951985687670655,-19.0353581413266,137.4857793881571
6657,0.01666666753590107,-9.073264413535595,-3.799714354524016,-3.1861715375363824,-11.101314693859964,5.727529506030678,-4.321533485125378,9.201600967763559,-7.7393838249634745,126.03734415046189
6674,0.01666666753590107,-9.18985665678382,-4.305694622415304,-3.1120863106280563,-10.91740993270874,5.276671405902505,-4.280083211296796,18.740463016364007,2.074693012279822,114.10003129273385
6690,0.01666666753590107,-9.11758286321163,-5.321918660861254,-2.7900001363635063,-10.490643194524944,4.306121907916665,-4.049342026299238,34.51111538537687,8.855866183487622,94.67047902874371
6707,0.01666666753590107,-9.140955555492638,-5.663093566477299,-2.3077790758527814,-10.290278662286326,3.980362598097324,-3.669113313537091,45.10846465625889,6.084849045703341,80.31461667648166
6724,0.01666666753590107,-9.467789801067113,-5.4978200021684165,-1.9935878926217554,-10.429890181268005,4.147506047931313,-3.4810188456110653,54.666546003410105,-4.19232144745599,68.39660593334807
6740,0.01666666753590107,-10.183737930518388,-5.190976989743113,-1.4026023598790167,-10.951826654638722,4.439897925677895,-3.08388079136312,62.01548121069615,-25.13819705153011,50.1740846994826
6757,0.01666666753590107,-11.272134055727719,-4.343951580095291,-0.9989087465077638,-11.949161429828033,5.266197358161211,-2.831142586351931,62.75777933950397,-39.58683727838303,34.519103291611195
6774,0.01666666753590107,-12.023927405542134,-3.7100270693361757,-0.8331129118904471,-12.657845121234281,5.874473048400879,-2.80944484154582,57.82035853190681,-55.809492783647116,17.60858797277159
6791,0.01666666753590107,-13.063591940808296,-2.935280713957548,-1.0760130289763212,-13.735833541936799,6.6153294091373676,-3.198353119847923,34.92779790588266,-70.44842208077658,-14.44722296260014
6807,0.01666666753590107,-13.866757750463485,-2.3664415465712545,-1.9730945551693437,-14.651017345727235,7.167193476325273,-4.132989739061892,5.304087560358244,-64.01498493927154,-46.299653062603696
6823,0.01666666753590107,-13.568224885743856,-2.564966807618737,-2.6114550025492904,-14.550012036254628,6.957400386810303,-4.740069643645733,-19.875736079068506,-32.8890240046743,-91.9169292459881
6840,0.01666666753590107,-12.189219674551486,-2.1257494609236716,-3.9018344203054904,-13.59697035710439,7.362320911628007,-5.9427069189324975,-23.763090433857073,20.023152051924892,-162.2678640367411
6857,0.01666666753590107,-10.826768123275041,0.3943687356650829,-4.947957922452688,-12.665326489965617,9.81203753825724,-6.9722134866692125,0.7460645512482547,42.571141587152944,-197.48714709564322
6874,0.01666666753590107,-9.971300463974476,2.13211139717102,-5.128246685063838,-12.289137992504983,11.429022653529048,-7.217619449096173,34.867108260012515,37.01245018774601,-209.73911310805542
6890,0.01666666753590107,-9.16006942128539,5.4575593034505845,-4.8340986112996935,-12.132765965923666,14.51784031677246,-7.124245584350079,79.67998281956076,-8.031953270513679,-206.32634078736683
6907,0.01666666753590107,-8.397697978833317,6.7029205988287925,-3.8950434449911113,-11.872097552435099,15.532533492389321,-6.372316479326784,97.74753389134781,-42.86425232519487,-210.90961628649885
6924,0.01666666753590107,-7.595971262070536,6.864929023861885,-3.2546506150007244,-11.602900380054116,15.413721235004067,-5.906644548687338,100.21787671035803,-59.92823004185362,-229.70327793876078
6940,0.01666666753590107,-5.7157017055928705,6.747762780117988,-2.3403075728833675,-10.498275004577636,14.825645452228187,-5.1767117330253125,93.44963052592813,-62.54277181462114,-264.0964222967932
6957,0.01666666753590107,-3.8266497077226638,6.829432763066888,-1.8046312549084425,-9.216928788104653,14.474296943122148,-4.749347028948367,85.32339247033795,-45.58296131299426,-285.09824312658526
6974,0.01666666753590107,-2.5510534330785273,7.300344640186428,-1.5391522262677548,-8.529342829784751,14.449157241168617,-4.592825803154707,76.86699673064768,-16.953893850258357,-295.8010402729685
6990,0.01666666753590107,-1.9588614471554755,9.969154099595546,-1.4518454064756632,-8.627655904498695,16.38202616893351,-4.7034082845941185,78.50328465954013,30.437652036083794,-293.2082185017616
7007,0.01666666753590107,-2.140801484104991,12.909862683820723,-1.811454086665809,-9.232042186084389,18.733281836810708,-5.271582558330893,76.37947148807052,62.74181035722448,-286.78748551211277
7024,0.01666666753590107,-1.5332394950926302,13.919165983092784,-1.8608456018224357,-8.961796089172363,19.130418868145345,-5.57968638447225,75.88526632048507,94.49555105391052,-283.9321112692106
7040,0.01666666753590107,-0.19392565829753874,14.480401689738034,-1.6315046390116215,-7.937377638354897,18.8320429475531,-5.787533016094565,84.85544254992203,134.53949532740208,-282.99107512612295
7057,0.01666666753590107,1.4080115254461765,13.855848233914374,-1.0244921005755663,-6.464943617358803,17.53154224101603,-5.5716059538692235,98.32004034757828,152.28350716839478,-276.78246049133804
7074,0.01666666753590107,2.1073662474930286,14.423594345366954,-0.7984516406148672,-5.8078848992496726,17.411233315332233,-5.757604910820723,111.95108985530776,158.31267907330513,-262.8533005470942
7091,0.01666666753590107,3.08233239287734,15.857655673348903,-0.8864064029216766,-4.763714284735918,17.948132599230856,-6.385484880718589,124.701222545024,156.5126373590616,-229.942525805008
7107,0.01666666753590107,3.923607276174426,15.97534097253084,-1.2023644496947525,-3.7921161544799804,17.437419311468304,-7.076062422069906,141.95221767134686,151.98039703340797,-193.79980117032014
7124,0.01666666753590107,3.9454882685929533,16.360759509021044,-0.8597849379777908,-3.5899563363224267,17.23481109195612,-7.074566046032309,167.89561206375143,142.22664101181962,-151.1519907097338
7140,0.01666666753590107,3.988343075457215,15.62880833927393,0.12105097622275351,-3.2791590333133933,15.776592040529009,-6.461650421032309,194.93969144090357,117.80305933239129,-97.67865143356825
7157,0.01666666753590107,3.287208484256267,14.4125059651196,1.3027636830329894,-3.7867303697884083,14.055310520083642,-5.479728465160727,201.2488601206494,101.10649798175503,-72.50943166282794
7174,0.01666666753590107,2.6893723549664017,13.77595812011957,1.8735194976955651,-4.209606238013506,12.94185780462697,-5.045929051861167,190.8853594514757,83.34596391316005,-65.50879512207752
7190,0.01666666753590107,2.074133255454898,11.958355739957094,2.662249370241165,-4.614375371661782,10.53583418925181,-4.36702324360311,155.61060159613473,68.95437284134965,-76.36891201561367
7207,0.01666666753590107,1.9416870249927043,10.30966031216979,3.0067753398507833,-4.586243502154946,8.486098146820067,-4.0806174545288085,126.04868226448411,68.78194471575269,-88.65858067224434
7235,0.01666666753590107,1.9370429985791444,9.906149654150008,3.155286569929123,-4.408922941699624,7.717709051513672,-3.993827644348144,99.93961480357171,75.1956426105564,-94.85223036255776
7240,0.01666666753590107,1.8130273273319004,9.46557621667087,2.925090159332752,-4.255843673053383,6.860884132385253,-4.324377111053466,73.19382344785238,82.38053716454625,-89.63124742137835
7258,0.01666666753590107,1.5089730688422918,8.95691299330592,2.5381582956701516,-4.341735073089599,6.096086339569092,-4.7936400519222016,58.70880904857456,82.98756339684196,-79.57093884946151
7274,0.01666666753590107,1.3511924906373023,8.51772487270534,2.4532839637219905,-4.282927494812012,5.441871028192341,-4.960635617718101,50.40322730085277,82.13361899586113,-70.24091410360244
7290,0.01666666753590107,1.18603173905313,7.22693570510447,2.38176186529994,-4.162769083514809,3.9026980513975023,-5.135561976513266,42.730909957123295,79.24239992019473,-64.24398069157455
7307,0.01666666753590107,0.694735245552659,6.161050102388859,1.874103435063362,-4.439449012866616,2.667439632360637,-5.715707550811767,44.05305358042476,82.77308179652522,-63.16492691592843
7324,0.01666666753590107,0.3367234791651368,5.0259255437523125,1.770015284079313,-4.4861359452396625,1.297806937408447,-5.91188244934082,47.42147748283244,90.21640338795169,-68.05065002169776
7340,0.01666666753590107,0.13994243143647908,4.5898295439481736,1.893717651593685,-4.417451992852985,0.6845917449399829,-5.861903489685059,43.306670998493274,105.39901915810876,-72.2435870399527
7357,0.01666666753590107,0.14586626852750778,3.566323824061453,2.3681238005697725,-4.105308243671059,-0.49739568715840576,-5.4794291899532075,32.666182252813456,120.78931366016924,-73.3671053470956
7374,0.01666666753590107,0.17593465905487538,2.7864374754458665,2.543120301991701,-3.6224274040773508,-1.4363713584899902,-5.4512979049682615,15.626222896371061,134.18607401898893,-64.9395534962703
7390,0.01666666753590107,-0.017204817301034927,2.494170977644622,2.5766578299343585,-3.4706948738649483,-1.79699827581197,-5.536890029796957,6.4441148616118955,134.614176615787,-48.984849727240416
7407,0.01666666753590107,-0.017067162396013736,1.9276307348504662,2.1299743851423263,-3.151667794910073,-2.3871689850404856,-6.0996776420593255,6.39504891704864,130.39658944481747,-30.075621274221852
7424,0.01666666753590107,-0.5040095523402095,1.3470879779279232,1.7102303852021694,-3.2472859314516187,-3.0113074303224683,-6.635379678997397,15.916557162515378,120.94367593541152,-13.170534248225113
7441,0.01666666753590107,-0.654549950158596,0.9252870454579591,1.7080080329775809,-3.1289222946166992,-3.487603923089802,-6.692841103363037,29.243331988004535,114.28163919257531,-9.401132137760788
7457,0.01666666753590107,-0.8241302717506885,0.3795397075846791,1.4922762010633945,-3.0422824143007396,-4.1136876572206615,-6.937498585510253,41.70506335511157,111.47958823652344,-7.347146551497152
7474,0.01666666753590107,-0.8841001718059182,0.33383331068158145,1.5593717152148485,-2.7790697231568395,-4.295048432977497,-6.87584789276123,49.04198084455298,104.42042380477518,2.394281405526127
7490,0.01666666753590107,-1.0247507515117527,0.3394520273461938,1.6047545792520046,-2.7097876587465404,-4.392013600213826,-6.818087193188071,47.4539652776196,94.8223141339931,12.260887947015522
7507,0.01666666753590107,-1.186540857619047,0.07260989365875721,1.7236428244829176,-2.6933273762024936,-4.747552546747029,-6.682665161785483,40.14432756372322,85.20125502759979,16.922886498973792
7524,0.01666666753590107,-1.3340025786444545,-0.005808978539705276,1.6664789217591285,-2.6310781330384314,-4.9155952835083,-6.72291826171875,28.441708543613277,78.78569932134182,15.557758787678146
7541,0.01666666753590107,-1.2863681362882255,-0.10637187800705432,1.5472487312227488,-2.4350528721131384,-5.068375276947021,-6.833051538085937,25.282127920362495,74.57219660349598,15.09162740512875
7557,0.01666666753590107,-1.2098684686493129,-0.026340309914946555,1.2137766550689935,-2.1796214824952185,-5.054758255004883,-7.1495350700378415,25.21197163230271,68.05459104084886,17.792342259559735
7573,0.01666666753590107,-1.3500409825146198,0.2920563621819019,0.8875625872194767,-2.205359077276662,-4.783764554595947,-7.459584185028076,23.288998465830026,58.7993841871581,18.228070762566116
7591,0.01666666753590107,-1.5324933529004454,0.3568067745119333,0.6256038416594266,-2.2918496122498064,-4.764461303710937,-7.7030445663452145,23.065407100707784,51.7516637373642,16.32526714471248
7607,0.01666666753590107,-1.5124278854712843,0.29221184500455855,0.32556232594251633,-2.1480478750366716,-4.895543844604492,-7.972242615509033,26.16678255939901,53.034270810655045,11.249203742247818
7624,0.01666666753590107,-1.3165633680656552,0.2966360911875963,0.2892424738049507,-1.8454805671691894,-4.9471694024235005,-7.98077195892334,28.028053504457088,57.56186319257851,8.066678806027669
7640,0.01666666753590107,-1.1536358554262667,0.39943361783921716,0.3080494656056165,-1.5676035369873047,-4.904373047748208,-7.930194448852538,28.884473849012064,59.328027168538746,8.601268320854459
7657,0.01666666753590107,-0.9249437119130045,0.6290630422025919,0.29860476091206073,-1.1873743858337402,-4.753388121032715,-7.894729752239584,27.452835463126124,61.03388740431694,12.994032768561874
7674,0.01666666753590107,-0.7977031603351235,0.5324667082786559,0.37256022396087646,-0.9497498893295414,-4.903923550415039,-7.7878890876770015,24.376557534540108,60.72018364592743,14.44842336834677
7690,0.01666666753590107,-0.8585575150746851,0.6087567517548799,0.4090665385812521,-0.9041103973499266,-4.873996614184976,-7.7215996292114255,20.34656492421958,59.59172028182543,15.75110949025016
7708,0.01666666753590107,-0.7783136924713849,0.669917615160346,0.45967035213708873,-0.6977601463317871,-4.863970310211181,-7.63600633533895,16.881763637528437,51.241790115822745,19.044718915584102
7724,0.01666666753590107,-0.7909551473796367,0.6940466787666082,0.41419454911947245,-0.6432919854979962,-4.875044077411293,-7.656357633972168,17.17985699856989,40.17413450926116,20.701468383682613
7740,0.01666666753590107,-0.9009576369740069,0.7670803507953882,0.366609791123867,-0.7088332742110826,-4.83928069011271,-7.677157260894775,18.0793177801797,31.55217156899521,19.63840408088349
7757,0.01666666753590107,-1.0111914511062203,0.9051146105229854,0.24352117159366607,-0.7647977928161621,-4.757428336334228,-7.7593083053588865,22.631213682717362,33.72129621541869,15.762611528812462
7774,0.01666666753590107,-0.9366709015205502,0.9730436528891324,0.1932341689020395,-0.6373064448149874,-4.742614213562011,-7.7699325752258295,27.956958065386427,38.571119846910435,14.301567471002327
7790,0.01666666753590107,-0.8573463857192546,1.0236837068021296,0.27496201951801774,-0.49784423464350397,-4.754436168780923,-7.640496047973633,31.5174844532953,38.93871721294593,13.64576515029626
7807,0.01666666753590107,-0.620769991762191,1.007645595192909,0.5068588042914867,-0.19078790826108305,-4.8623248810917135,-7.3371806251525875,34.89147495987654,30.301741516884295,11.767197604938769
7824,0.01666666753590107,-0.34665498099494724,0.9358768285334109,0.7133481760859489,0.11806417896430939,-5.009268423461914,-7.071873153686523,38.110242587380064,20.775569105988083,11.685240457540493
7841,0.01666666753590107,-0.2527749202923849,1.0079916321516036,0.735653531396389,0.22191263944096862,-5.017199216461181,-6.987178269958496,38.860439829963,8.77676917780429,14.02162619145383
7857,0.01666666753590107,-0.2443382966628298,1.2013356911689042,0.8420014440059661,0.20425540219731628,-4.918139122772216,-6.807912420654296,28.217750055823146,-1.3175299372388254,17.61549158647518
7874,0.01666666753590107,-0.3496426550362259,1.0844827511578798,0.8475994101434946,0.06524203177187592,-5.080795198059081,-6.76736004551351,16.283348566228817,-2.1489356744539796,18.735318176371695
7893,0.01666666753590107,-0.48876138553228227,1.0440531256139278,0.6836451117396354,-0.10504552477411926,-5.14528900527954,-6.913405762261152,7.798305305612236,1.3290967558765363,18.480191827851502
7907,0.01666666753590107,-0.6199670048162341,0.855584563678503,0.293330035379529,-0.266205297088623,-5.349544334411621,-7.292288759502768,4.878142449564263,2.627797675842635,19.466935596864904
7924,0.01666666753590107,-0.8076458776786923,0.6300397782802581,0.3289128054141998,-0.48228196038510646,-5.588366534534097,-7.247098787689208,6.147556585586405,2.086837728954339,15.763332113769899
7940,0.01666666753590107,-0.8982548808213323,0.5771171663880348,0.41565410027801986,-0.5852326317718253,-5.651812294006347,-7.152227962383628,3.624097092948296,9.44615247590128,13.597740382694608
7957,0.01666666753590107,-0.7970846631105989,0.40119185968339444,0.32165771971940993,-0.46986196620780973,-5.838111695209145,-7.237073068237304,4.288596805788728,18.736796912327005,8.540481344788638
7974,0.01666666753590107,-0.40352801101338115,0.45621115159392356,0.1604138493180275,-0.04878178576044738,-5.793818964496254,-7.388206463512778,6.596335872549385,21.82113104903905,7.5927584465035185
7991,0.01666666753590107,-0.14319394404571503,0.534180526459217,0.07145604744851589,0.24151512900087982,-5.732018049621582,-7.462277077373862,9.115773664426825,21.344491420451586,9.221444374849739
8007,0.01666666753590107,0.45181569311395287,0.7066448790550232,-0.055500353425741195,0.8667011105744168,-5.585673057666421,-7.565826883697509,9.36917539018159,21.911834253669525,14.656078194588083
8024,0.01666666753590107,0.5596574244778603,0.6792331405162811,-0.178809337708354,0.9906010099548845,-5.631611802020669,-7.672668132781982,8.401587740469136,22.642618391083992,18.403900322369754
8040,0.01666666753590107,0.43791499539222567,0.5734416927456856,-0.21246084741950033,0.8807670453278348,-5.754463690185546,-7.691223195648193,7.20335143267452,20.769637086693926,18.766105254055528
8057,0.01666666753590107,0.2694945478923619,0.41833354862034317,-0.162884038823843,0.724844698742777,-5.929091358295083,-7.624334602245688,7.278320442778226,13.167124276281983,12.740397962601682
8074,0.01666666753590107,0.13529128116238862,0.1669312683880329,-0.2054424930900335,0.5864298787323757,-6.198588098144531,-7.651718868255615,10.361420022797793,1.7260387490205278,8.911983017708447
8090,0.01666666753590107,0.14988679274786262,0.2496756025701761,-0.14659458280205725,0.5841853146759792,-6.137386902728676,-7.575403690338134,10.672294375323629,-5.3143563228885355,5.727659180415646
8109,0.01666666753590107,-0.15049093265347183,0.06990998705029487,-0.09314648573100566,0.2638112415589392,-6.33909839259684,-7.504176190948486,5.28255410833931,-5.15582763225254,0.6545414571131118
8123,0.01666666753590107,-0.3508341298431158,0.03663549395799637,-0.07106091065108776,0.05761058704536408,-6.375759605517983,-7.4794859863281244,-1.2405108031670575,0.1885021487153771,0.18661999137200225
8140,0.01666666753590107,-0.3657408993348479,0.10432663591504096,0.00434007503092289,0.0487818953583017,-6.298695655059814,-7.4118492049068205,-8.180482564204775,7.473597258696183,0.8459827482861365
8157,0.01666666753590107,-0.20068320626635103,0.2108984204083681,-0.056532034561038016,0.2385224499909207,-6.1641714492797846,-7.49534698780477,-11.856267540583966,12.76607264369176,1.8499795751429908
8174,0.01666666753590107,0.06453234913256019,0.2964712560147047,-0.2399555880665779,0.5228338971344754,-6.057779697528481,-7.695413048553466,-8.654744433187426,10.828756079962051,3.2426186480852137
8190,0.01666666753590107,0.16969035783782602,0.34088264467120166,-0.33358488887846466,0.637306664010696,-6.002263562011718,-7.7979148071289055,-3.311969827596584,6.081522743577545,5.307859959214207
8207,0.01666666753590107,0.2128224838061258,0.355632470035553,-0.40569793893098827,0.6578070157257839,-5.982960895648598,-7.875276863750815,-1.7919022631869608,0.8833874255020651,5.871266895922926
8224,0.01666666753590107,0.03967847838308662,0.23610592690110205,-0.36882571360766886,0.45789121363535523,-6.0998278641849755,-7.842207537841796,-1.629390291604378,-0.251479987998759,3.9193998948269746
8241,0.01666666753590107,0.04200754238516092,0.23657354441285133,-0.3541980533182621,0.44816469632573425,-6.094889823260903,-7.832032180786133,-0.7945720744860092,-1.2576848869482316,3.5925318005859053
8257,0.01666666753590107,0.04625405738111585,0.2919529018074274,-0.3455705102264881,0.4453216549195349,-6.029049277606606,-7.832630731201172,0.02739476818301044,0.14777186306473988,4.553458735197129
8273,0.01666666753590107,-0.008189590065926313,0.2109808379948139,-0.2277466793566942,0.4022259519714862,-6.092345983996987,-7.729081509399413,-1.0773720550064203,2.7156428731922846,4.633018059309907
8290,0.01666666753590107,-0.11357976355925202,0.3228220873236656,-0.11459259386360644,0.306607523168996,-5.9676972755432125,-7.626130253490805,-3.356151760016458,5.0087945768764985,2.680983932022701
8307,0.01666666753590107,-0.19419852042216806,0.35757191366553304,-0.07475099734067917,0.2403180281708017,-5.907542958831787,-7.606677365002036,-5.374046199818923,5.253484396344913,-0.3421499488178849
8324,0.01666666753590107,-0.1217131299259141,0.3815028243511915,-0.2038537625938654,0.326359686865285,-5.862951537433267,-7.752125700378418,-3.495105982264844,7.481317933779237,-2.5787669494422865
8340,0.01666666753590107,-0.06404792661648244,0.4034434380024671,-0.2793359968185425,0.40297413999028503,-5.832275828662515,-7.83367819442749,0.764717584428148,7.388047431794481,-2.591267476283879
8357,0.01666666753590107,0.12763956083282826,0.4949561850517988,-0.3749105864793062,0.604835340527445,-5.744288917651772,-7.925704736217856,8.739506227013639,-1.1372526436250394,1.7129790004406404
8374,0.01666666753590107,0.25996019215397537,0.49883624135553833,-0.3115419838964939,0.7040449987549334,-5.756858476367593,-7.850736881256103,15.320163827210083,-13.424056356064,5.912655707859088
8391,0.01666666753590107,0.3021378304090351,0.45182022315859793,-0.28332360514998434,0.6896798253266141,-5.835717493548989,-7.799111907958984,21.162000718659893,-25.32685370659503,8.269182815861146
8407,0.01666666753590107,0.2928976718442514,0.4653261859416961,-0.19370353997945786,0.5795464941604994,-5.875221820941567,-7.669375520977377,27.80185812971378,-34.63325282811503,8.967204243374354
8424,0.01666666753590107,0.44242052665054793,0.3361772434592247,-0.13745792114436625,0.6461352278335951,-6.0519432464599605,-7.575253468212485,27.91832139279896,-35.8268420459531,11.279913126529841
8441,0.01666666753590107,0.4924342288261279,0.38533728794753547,-0.035812487137317654,0.6142624456322285,-6.053439622497558,-7.4316013686031095,23.21407299818228,-30.313841196998972,10.870646483915385
8457,0.01666666753590107,0.2870578963074833,0.1538730493724346,0.10833470251262187,0.3163339605635148,-6.332215062823892,-7.246949150085449,13.697474804955133,-24.14473066882612,8.238618573098986
8474,0.01666666753590107,0.21171715291272847,0.24714696087539195,0.08424597091674804,0.187495981443068,-6.259940100207925,-7.2524851569026705,8.455881767955214,-18.479858856129464,7.106583873834718
8491,0.01666666753590107,0.18095303520616143,0.16179858167469502,0.02901566660404205,0.11552028033488895,-6.356306717029214,-7.29767629776001,3.3575303910117427,-12.069976475750849,6.047445222261058
8507,0.01666666753590107,0.047951472416147584,0.17975509412586688,0.005756371569633483,-0.05117602395322174,-6.341193319049477,-7.3180270118713375,0.3238691342673309,-6.839060731970951,5.084893129514195
8524,0.01666666753590107,0.08704702721158973,0.16207973670363426,-0.1395861653447151,-0.03456622253642417,-6.361393811035156,-7.460780701336264,2.913868836727806,-8.014958052311394,4.642175635439601
8540,0.01666666753590107,0.28860961926151063,0.39898002885282036,-0.20509236447811124,0.14634560387651435,-6.131251176452636,-7.519887554821372,5.142576638375892,-7.797276508368503,8.180348521742314
8557,0.01666666753590107,0.19336720243087038,0.0010357727885246277,-0.44937984426915645,0.011671806158497928,-6.552032118225097,-7.742847584423422,11.339604711007523,-8.355076713542287,2.717447110350226
8574,0.01666666753590107,0.29328566651483995,0.4293471100658178,-0.43014264435768124,0.08200144339296966,-6.146813487243652,-7.7019965185970065,16.2023356924833,-15.982640950282544,9.454751684066327
8590,0.01666666753590107,0.3688103333754465,0.21352409273684023,-0.25542671344280243,0.08768769060214981,-6.402544736590981,-7.488613295635581,22.38513904239473,-36.33252193134417,11.364059349557106
8642,0.01666666753590107,-0.3698778895417228,0.2157213105201721,0.27408114503026004,-0.8577227082183584,-6.4543187629699705,-6.898293533325195,-9.990341821606522,7.070619085873193,2.1757657247308475
8656,0.01666666753590107,-0.17948073416389523,0.19758125819563865,0.18273264863193034,-0.6482300629546865,-6.447584486278891,-7.013962816509604,-15.523228766329147,15.853582818367862,2.062198888740576
8673,0.01666666753590107,0.04050605178102851,0.24801497588157653,-0.044430677878856656,-0.3983353012084961,-6.366332436481118,-7.2713394949764005,-16.24002467632343,17.430898893966415,0.28316134021618716
8690,0.01666666753590107,0.02773461381755769,0.07919161013662815,-0.333125454673171,-0.36406825341489163,-6.497564614978432,-7.596951505279541,-13.187720711724157,16.146393028086308,-4.765828099513043
8707,0.01666666753590107,-0.039935850677639245,-0.00832066909968853,-0.4260165043383837,-0.3916015359740704,-6.564602261462808,-7.710376224407553,-8.974638050512267,11.1205861575346,-10.896252009340117
