msFromStart,interval,accx,accy,accz,accGx,accGy,accGz,rotRate_alpha,rotRate_beta,rotRate_gamma
2,0.01666666753590107,0.003674889120459556,0.40876083363294596,0.2670066765993833,2.5377041221618653,-5.148282341876626,-7.405564425548911,-4.979819633756835,-8.03985409183609,-10.729295719041971
177,0.01666666753590107,-0.49025925940722226,0.2827642177015543,0.5513169546991586,2.0012533126831054,-6.734440357208252,-5.830030095562338,-10.13160977043625,-16.312825955139303,-11.948866976482767
194,0.01666666753590107,-0.3132914579123258,0.12745733613371849,0.6620254006057977,2.174384312494099,-6.866271670642495,-5.74653231266439,-8.402179405605988,-13.936925869330148,-12.550306967811057
210,0.01666666753590107,-0.32202392268329855,0.10169219575822352,0.8699795842558145,2.1709423553466793,-6.86941406032145,-5.56113073708415,-8.887403728206511,-11.628227160991104,-15.446228628721009
227,0.01666666753590107,-0.4534995545476675,0.15261282017827033,0.8505231886357069,2.0488386552006004,-6.774694041663408,-5.624129337310791,-20.796747815057,-26.39789396279744,-19.214262993804038
244,0.01666666753590107,-0.4895028880819678,0.18344167368412018,0.5197533571779728,1.9939213623598218,-6.688951694709062,-6.02036912754476,-29.988341701912844,-28.31426404389001,-14.802370601326002
260,0.01666666753590107,-0.4706158167824149,-0.37892800542712207,1.2783037800371646,1.9931731743410228,-7.184401216235757,-5.338769842419028,-38.63940466313763,-28.28270686237726,-14.911849995984843
276,0.01666666753590107,0.48497532765492796,0.6836766759216785,-1.0841735390782357,2.862866781262308,-6.022465223041176,-7.832779199761152,-56.04051368703904,-89.40062608405287,-14.860107897927412
293,0.01666666753590107,-1.3423461902283131,-0.32770401414632794,1.1142390069961547,0.8536828217104077,-6.889914412036537,-5.834519223675131,-58.86560970135054,-83.18240820329493,-14.049179174565662
310,0.01666666753590107,-0.7448015912309288,0.14082535175085067,0.6961456968724727,1.3030445458009838,-6.291663856726885,-6.417208052715659,-69.07058851007743,-106.65771373911538,-21.750582025101988
326,0.01666666753590107,-0.988704017227143,0.17628712575435637,0.3304974442571401,0.8527848499573767,-6.074389471545815,-6.9981006459891795,-61.46424396354111,-94.6178660815671,-24.190614172122974
342,0.01666666753590107,-0.6961464275248348,0.24129414319396017,0.4339221628963947,1.0045176724307239,-5.883451889148354,-7.033716149249672,-57.532650473498364,-94.85501024954995,-24.765033081321047
360,0.01666666753590107,-0.6384969332411885,0.23224457529783246,0.12496084314286708,0.8957308422364294,-5.770625135913491,-7.47649264973104,-55.25786621570937,-118.62570097640595,-26.937991171416197
376,0.01666666753590107,-0.4062986813031137,0.36245968570709225,-0.4041296667009592,0.822558053997904,-5.486163466644287,-8.179340474590658,-49.191421968498275,-149.40355790485893,-26.515139282542584
393,0.01666666753590107,-0.3441081825889647,-0.023723405414819716,0.5934107140630484,0.6115691788271069,-5.7709249956429005,-7.294982236370444,-44.24074034862754,-149.73468547582112,-20.72890013093668
410,0.01666666753590107,-0.021044030137732622,-0.2981272065281868,1.2901058615118264,0.6607999504640698,-5.945850769916176,-6.697928197368979,-49.53211863448768,-139.0982777681704,-13.668185246246827
427,0.01666666753590107,0.4986885765131563,-0.6489017151385545,1.7245061633139849,0.820163961935602,-6.131551036182046,-6.3999997282832854,-68.92291982022175,-130.95822223988927,1.3684656460873723
443,0.01666666753590107,0.5622649766277521,-1.0094050060808657,1.5447610060602426,0.5801452260969847,-6.322188758850097,-6.698077834972739,-91.40524562431659,-146.29802115341585,14.823026800923412
459,0.01666666753590107,1.0438354642752556,-1.1370780307918786,1.2601596360594034,0.686687146316655,-6.223578162494301,-7.116614797210693,-115.02085007587829,-171.0444658749107,26.250957810730245
477,0.01666666753590107,3.1860882431671023,-1.5624524378344415,0.8871393933713435,2.3065141704834997,-6.282086757825315,-7.663988567242026,-118.62856965585736,-120.2739485665351,49.13354294547159
492,0.01666666753590107,2.3385203972056505,-3.3103254482105373,0.8131751624941825,1.2240358179505915,-7.8086892991214985,-7.829338119396567,-55.36325944969725,-45.39480667683333,61.01328755378018
510,0.01666666753590107,0.5120078576177358,-3.8724469977796074,-0.7793196546435356,-0.765246559496969,-8.290073470416665,-9.440935111889242,-8.22150297281258,-52.4352222393099,39.36559720588256
526,0.01666666753590107,-0.8631215350545942,-1.1408996349066496,-1.899773298370838,-2.4054243343077597,-5.546468005481362,-10.524311363109945,-7.2703385129594205,-110.98827223895691,-18.042726749248647
543,0.01666666753590107,-2.4233964827194807,-0.21494828032106159,-0.46061026333570476,-4.1907505847655235,-4.595371395984292,-9.054721041107177,-27.69888278269208,-108.8899698240373,-40.0057122896124
560,0.01666666753590107,-2.569173903919756,0.39862463954389094,1.5147925687760113,-4.477905292510986,-3.9208053704962134,-7.079953584289551,-46.03005866587412,-66.40791439422883,-58.95869834954865
577,0.01666666753590107,-1.205899930344522,-0.8465648063987493,0.8570435303151607,-3.143586779785156,-5.032612766431272,-7.7970169815063475,-72.8304573840077,-24.206820503476123,-81.9082227532507
594,0.01666666753590107,-2.1195909382939337,-0.31372780350297685,-1.8875626360952853,-3.9799112010680138,-4.425831990924477,-10.593893433380126,-31.914373085586398,-2.706591591881548,-84.20221691808035
610,0.01666666753590107,-2.428034663914144,-0.5299909658148885,-3.473074170216918,-4.198232318823039,-4.64086122752726,-12.198756733703613,-3.15878255833495,3.994978926200927,-71.76079511847034
627,0.01666666753590107,-1.4767099447496235,-0.025886428667604922,-3.5673598891109224,-3.160495682879537,-4.185813274493813,-12.286892697796224,0.7048302723420645,-16.758965373988072,-68.78281897996645
643,0.01666666753590107,-1.6927457280464469,0.18469255052804945,-3.772599553105235,-3.34873964227885,-3.992182215228677,-12.489352375683188,-6.7171414283994,-11.202353767183409,-45.77911751576785
660,0.01666666753590107,-1.8958081941321492,-1.5586130058020353,-3.5327900955110785,-3.543119035693258,-5.735609936633706,-12.251129895019531,-14.325483378381126,-22.505254749138572,-38.909610361797924
677,0.01666666753590107,-1.7906106206014751,1.904098468093574,-5.245855996400118,-3.41413142125234,-2.2587802132755517,-13.975404003143309,-4.595015313654779,0.1303651259649624,-47.669085500623744
693,0.01666666753590107,-1.6860870008096098,1.6920102533787489,-4.011815720981359,-3.2224455047056075,-2.504485450910032,-12.741043409729004,14.406424535140362,29.99799275921007,-49.94978811732855
710,0.01666666753590107,-3.3066990744069216,0.23019056537747382,-2.512769587391615,-4.74785138356313,-4.020314084735513,-11.232097228893638,31.74147026184211,58.66605889455945,20.89912039788444
727,0.01666666753590107,-1.940047294961661,-1.410895848710835,-0.5352613074332475,-3.2122701476499436,-5.738752034051716,-9.242814924511313,16.27751729222492,62.77141922727648,46.651196068995084
743,0.01666666753590107,0.061917088600248096,3.298833747859299,-5.715300723576545,-1.1537057057920843,-1.009755134692788,-14.440477675628662,-16.423124972498545,32.77223801515083,25.487515123799366
760,0.01666666753590107,-0.3553572332907468,2.200859939226508,-3.447591938436031,-1.487696837383881,-2.075773716138303,-12.199654559326172,1.5677281975511492,78.37792336751372,49.44061117508244
777,0.01666666753590107,-1.9539302743636071,-0.6725479636639357,-1.1864976029992103,-2.9020715411864217,-4.929063544629514,-9.970203316387533,-7.937382471265682,88.88807502835677,63.480741202771476
793,0.01666666753590107,-0.31877997232601046,2.2290049604758617,-6.441230733337998,-1.1484683896604924,-1.9611510193973778,-15.268721227917075,-37.46355003147951,50.41221582980051,6.300717601308417
810,0.01666666753590107,0.5919174067653715,2.5706840162217617,-5.440428135907649,-0.12898739524520933,-1.5469544244512914,-14.311489476665853,-24.81145446201504,32.70059957604115,-39.80633906773973
827,0.01666666753590107,-0.3950558411464095,0.034005729976296424,-2.866867102944851,-0.9632169631406664,-4.011036553302407,-11.782314697918295,-34.24917421561229,32.686990424119905,-28.656649474151703
842,0.01666666753590107,-0.40314869283959265,0.42601504303365945,-3.2269033608973023,-0.8672994417937472,-3.527108542743325,-12.189479202270507,-45.209920286190254,37.66499963085986,-12.376513658153728
860,0.01666666753590107,-0.27737770235762,0.16268091746717692,-2.6839573441803455,-0.64568604102768,-3.676596216638386,-11.700313875579834,-54.037229448758055,41.75760117020731,5.627713449177673
877,0.01666666753590107,-0.2224767761297524,-0.6944257412120699,-1.409770936334133,-0.47120861331010233,-4.3249762459903955,-10.516231517028809,-75.1794277414668,49.97821536465414,14.520992420730863
893,0.01666666753590107,0.41396819301769133,0.45781128026694057,-1.2300000601172447,0.2789247217370663,-3.0044241005495187,-10.404152367290854,-60.21384806237604,39.74037651583033,-10.277347224304105
910,0.01666666753590107,0.1692852841682732,1.637212203003466,-2.534842887511849,0.08993240078901872,-1.7173913628727198,-11.749544647216796,-28.845688619810147,-4.606335498430429,-23.957981344086924
927,0.01666666753590107,-0.613280220528692,3.044680415353179,-3.310393545010686,-0.726639948129095,-0.2853592026308179,-12.533645106396078,10.801126257222057,-20.576800355856957,-9.655962226825732
943,0.01666666753590107,-1.2614943917945027,2.8200112437456846,-1.9929951874256133,-1.4076406371740158,-0.5548562347412109,-11.199476231274009,23.01627071981871,-4.950532209482644,10.128446539076888
960,0.01666666753590107,-1.2430869207054376,2.427292321114242,-1.46000124040246,-1.387738890672894,-0.9922475350528955,-10.650006950268148,11.988213988743919,20.696864836182026,25.35445962367293
977,0.01666666753590107,-0.7934655227653682,1.2164917592465876,0.3192418907493353,-0.8608648695684503,-2.190395536096394,-8.876353017425537,-21.284957784098463,43.43513319640288,30.44561262156144
993,0.01666666753590107,0.3400077615328133,0.3673950962826609,2.0368080256670713,0.3479076673451171,-2.9527991272524,-7.190685411071777,-49.50463736836214,34.7815396500906,8.175657035556162
1010,0.01666666753590107,1.1763831092853099,0.5925301318362355,1.8507202213883398,1.2642883424951228,-2.5992054695680737,-7.421576233673095,-48.91095391061005,21.724494117567122,-31.365635687667574
1027,0.01666666753590107,0.8124436333492397,2.915632595157623,0.5392763882935047,0.9721957673555239,-0.21757307586669922,-8.752003584179281,21.61042312823874,-2.087314348092359,-36.73901722470289
1043,0.01666666753590107,-0.2986041946564801,4.05074575561732,0.34933132406473155,-0.1277902578825131,0.7984659614011644,-8.900743362316488,73.06170026854765,-5.318166714671756,-16.2700962916917
1060,0.01666666753590107,-0.3882158390585333,3.9532790685996413,0.34709728140234947,-0.22789775999886913,0.5014353179380298,-8.83056332615316,88.33285578091561,-8.678713274532294,0.5913679702626061
1077,0.01666666753590107,0.025082345743104813,2.8999715001672506,1.124839311465621,0.14993709816299378,-0.8233069726690649,-7.946654000744223,80.84292497859298,-10.966804448371763,1.6823879705303284
1093,0.01666666753590107,0.06834361451640725,1.9142206336572765,2.4493320112258194,0.16968927099243736,-1.991078540149331,-6.545597116741538,73.0153642652183,-8.399162169540135,-3.1235048447152454
1111,0.01666666753590107,-0.11977474574185908,1.5872905264928936,2.8492782547622917,-0.028131595512200146,-2.471863868768513,-6.077381639099121,57.397508350580495,-3.7936326334317676,-6.4600834170045625
1127,0.01666666753590107,-0.20327048281319438,0.6678665278494358,3.2023914354532956,-0.09038082954310811,-3.516483980615437,-5.666027281841635,22.28705240327147,9.331477868604997,-17.647767645398076
1143,0.01666666753590107,-0.153103453239426,1.8711638744801282,2.2364134831666944,0.02484007968613878,-2.3442232850223776,-6.616226650238037,9.901335065211148,27.298838603004434,-23.157227041267557
1160,0.01666666753590107,-1.2974632385373115,2.34020031311661,1.8669868810564278,-1.0111011242079548,-1.8716680246099828,-6.98448479309082,32.907147911636926,45.66217443189348,-5.456710271796295
1177,0.01666666753590107,-0.5280657699059694,2.7064491619735955,1.9892144998431205,-0.1599623426908627,-1.5506953645452857,-6.83754066619873,49.6434951141885,42.20466437214132,-2.1575634840361753
1193,0.01666666753590107,-0.07759140839837492,2.1881226227283475,1.8210265093922613,0.32546204390581696,-2.1010621789127586,-6.988674061474204,54.11670211484574,26.225810761753554,1.42410148558024
1210,0.01666666753590107,0.2603980721145868,1.71614107055068,2.1625071199566124,0.6813002291139215,-2.669235868127644,-6.598868103680014,54.87059790486423,12.417960099811012,1.7307586231804182
1227,0.01666666753590107,0.46683425241708754,1.3905547792106867,2.1531875029474494,0.8958805894380435,-3.0829841347843407,-6.563104716381431,48.02917307366681,8.838742045464754,0.4377424749966066
1244,0.01666666753590107,0.7681382623504847,0.6746440591603518,2.371533901274204,1.194257971335016,-3.843741712298989,-6.321739261516928,37.872179758953855,9.867710897700821,1.3777010223405817
1260,0.01666666753590107,0.7945697576802223,0.5830579546138643,2.465334466999769,1.2328645096376538,-3.9896386682257052,-6.198886788830161,26.374338347897357,15.181102883255916,7.747557000079041
1277,0.01666666753590107,0.8371787000246346,0.36219051337689157,2.515189508014917,1.29526331734024,-4.242675563922524,-6.130951316723227,16.811274377746614,18.042192286946094,13.153444261148094
1293,0.01666666753590107,0.9127233319610357,0.4148118042349815,2.2894150055140257,1.3842977646425365,-4.188356821496784,-6.356904682922363,8.278468458037779,14.144030011569628,11.440965572064158
1310,0.01666666753590107,0.8103484877008944,0.6893392317280173,1.780720802488923,1.295263353872858,-3.91960797740519,-6.861781958007812,14.780121260104686,11.709269063040598,13.204497363873001
1327,0.01666666753590107,0.6622516105771065,0.6883186565086246,1.8758277746379375,1.1590931344514712,-3.9552220193609595,-6.747458244213462,22.4248463471346,14.08871572457628,15.832704637622426
1343,0.01666666753590107,0.4397781954482198,0.5888312773182988,1.581144571083784,0.9501990761354565,-4.0873520234808325,-7.023689260753989,22.465892368951792,14.744648672650223,14.924117015734186
1360,0.01666666753590107,0.48837607600912447,0.13303455174416304,1.654700221160054,1.0440218171602114,-4.597166754968464,-6.917746421813964,21.740270147002562,23.394605143229473,6.1034421012845845
1377,0.01666666753590107,0.518039283269085,0.0699392131447792,1.4991390725702047,1.1246765221193433,-4.6873988145574925,-7.0548138823360205,7.84491280896111,20.263497871081178,-2.256973899197949
1394,0.01666666753590107,0.6254941707398742,-0.015054361268877983,1.2287971140682696,1.302296357782185,-4.758775659289956,-7.3274541809082026,-11.655697328059249,27.86791288917697,-8.72236672106514
1410,0.01666666753590107,0.24041122287958858,0.08739011416137218,0.6972720705538987,1.0353429457399994,-4.586692414966225,-7.887098818969726,-32.32791371907399,39.513996725979425,-5.087219662700231
1427,0.01666666753590107,0.10717683771438896,0.3129416215613484,0.41708442534208295,1.004218251092732,-4.2784389512211085,-8.201786115154624,-39.419695719203645,45.42285484865999,-2.1836695342610217
1443,0.01666666753590107,0.1504671864517033,0.4359940007343888,0.0889841053545475,1.1954551086977123,-4.029591616168618,-8.579172151836753,-44.1999572890934,49.245937123358736,-0.7939307837559685
1460,0.01666666753590107,0.30689116241596637,0.44074002621769903,-0.014147183296084402,1.4651021437380463,-3.9191590645939107,-8.72162773513794,-47.40429272688068,46.88955942574477,-1.655867199756815
1477,0.01666666753590107,0.2772799410715699,0.3685077336996794,-0.18147183491587637,1.5427639870241283,-3.8860894464239477,-8.926032701873778,-41.90140738808734,43.68402187466356,-4.329863528093476
1493,0.01666666753590107,0.354998263785243,0.38392537532299753,-0.14328326629698276,1.7579428612306713,-3.7677258095890283,-8.916305673107503,-22.78676270332794,36.24463105710444,-9.0700660385011
1510,0.01666666753590107,0.4320023007497191,0.4524781025454402,-0.21992869908213614,1.9162595921389758,-3.6478660889774557,-9.003694618225097,-19.609867550531177,23.929506285437142,-9.642790207011362
1527,0.01666666753590107,0.5153022229880094,0.33092531428039074,-0.14616905086636542,2.0551232884280384,-3.714903735461831,-8.945635227966308,-24.406185187612333,16.08848668430294,-8.285576123642823
1543,0.01666666753590107,0.49949470526427026,0.12392214774489402,0.16881868956983087,2.0913354424074293,-3.8299750527530905,-8.66311884754598,-30.70802848947333,10.609384064199581,-4.869202158827539
1560,0.01666666753590107,0.26714666959196326,0.5517866180375218,-0.12283493703007697,1.892317429406941,-3.335123497119546,-8.978405863189696,-22.74761376655272,13.974377504096621,-0.22526265371520884
1577,0.01666666753590107,0.07110884144604206,0.6748164931178092,-0.13715338523983955,1.7280154866091906,-3.179350459344685,-9.001150194439292,-5.456993724646851,15.087080206688812,7.288948217126766
1593,0.01666666753590107,-0.10158990442752837,0.7875970691233873,-0.34322950005829334,1.5898998322084545,-3.091064565387368,-9.189993434906006,16.21252974981954,16.103513100476967,15.926911729297117
1610,0.01666666753590107,-0.09114932056441903,0.513473546256125,-0.1895961046606302,1.6172835136964916,-3.414132151904702,-9.011475773620605,19.659275431439756,11.64648169532161,18.197160741477223
1627,0.01666666753590107,-0.04077610089406371,0.32360885378718374,-0.13464812442064283,1.6736970364443957,-3.6477161591127514,-8.935758561596273,11.766735713396146,6.968938486586036,12.110657082447444
1643,0.01666666753590107,0.14541092597544192,-0.06350450392216443,0.09938625690340995,1.8647842564456163,-4.048595591846108,-8.694542744335532,-2.0023418856189346,0.6432867994648118,-0.9132690762340477
1660,0.01666666753590107,-0.07240472647547722,0.06041559799611568,0.18095394852161406,1.651550524957478,-3.9110786339908836,-8.618227566418051,-6.224600692537326,0.18181907541678408,-3.4818688622099474
1677,0.01666666753590107,-0.16215075611323118,0.227114811193943,0.20454174485802648,1.5705965813234448,-3.7283714120611546,-8.60012200088501,-5.237716904645938,5.462221807569672,-0.7686092981511743
1693,0.01666666753590107,-0.25248086924925445,0.36676410490274425,0.24172259773910043,1.503109875897318,-3.579481411798298,-8.562562377819418,-1.577687040247851,11.039021746013601,8.886815478164243
1710,0.01666666753590107,-0.15284385245516896,0.3783084122240543,0.37298692494034763,1.6159367752626537,-3.570652793176472,-8.42743962162435,-0.094212401079556,10.052312127946049,15.014331861839008
1726,0.01666666753590107,-0.09551438390612602,0.23072072673141955,0.4317383891165256,1.67579181676656,-3.7252284378603098,-8.365040740856529,0.21478942573685378,5.889457824116786,16.8695871177856
1743,0.01666666753590107,-0.01148293252289295,0.06677753424346447,0.5722130277335643,1.7443258392885326,-3.898808350482583,-8.223333930096029,-0.09477771929529356,-2.0940565985768083,13.44532983400765
1760,0.01666666753590107,-0.0922610811986029,0.04522591990977525,0.5900479596316814,1.6350903885439037,-3.9085347947269677,-8.21645060032308,-3.669701412262825,-5.307991013468906,9.139774949170251
1777,0.01666666753590107,-0.18550795856416225,0.08327420327514409,0.534083495825529,1.5159788559511302,-3.8519717805057763,-8.285733395385742,-5.573681530200995,-3.0821220091946078,6.613898850226427
1793,0.01666666753590107,-0.5648587194480001,0.31404432210624217,0.2513940969258547,1.1264721733644605,-3.595342997796833,-8.581865628704428,-2.804135444409204,4.1096441419871015,6.926426108531407
1810,0.01666666753590107,-0.5492869101762772,0.45201340764313935,0.18435586591959,1.1561002727784215,-3.4681513268619772,-8.641421979522704,5.478350445521011,8.811044774606707,8.488361878779562
1826,0.01666666753590107,-0.446853540661931,0.39978140836358067,0.22807225804924963,1.2726682583682238,-3.548058099530637,-8.582613816723226,9.436388720482748,7.169290133057313,8.684086072088157
1843,0.01666666753590107,-0.03458645247370004,0.14282470887452364,0.3752852650105953,1.6855182610109447,-3.847632289996743,-8.416067163738608,8.412072080845105,-3.141270593633272,4.1450074464148425
1860,0.01666666753590107,0.26066695218384267,-0.24545447774380444,0.6523533168971538,1.9545666725710034,-4.253150196185707,-8.136245429229735,4.90754257195976,-8.205692792431293,-1.196905488123521
1877,0.01666666753590107,0.28851912796646356,-0.30910598892122504,0.5946668516039848,1.950526603399962,-4.31554907695353,-8.200589014324546,0.4858662536607975,-11.417875263801283,-5.002943666078736
1893,0.01666666753590107,0.24638474433124063,-0.32200901737511156,0.34151626639962196,1.858349693353474,-4.305672995105385,-8.473378950500488,0.018185805551982074,-9.570388494261936,-5.059364016830803
1911,0.01666666753590107,0.08401654607504606,-0.1545920112967491,0.11633856074810027,1.6747443535402415,-4.128502072253823,-8.706813027843832,3.7228215009853067,-3.842285351550238,-1.9688797216579843
1926,0.01666666753590107,0.04768777997866273,-0.12128799984902143,0.09419511800110339,1.6422729935243725,-4.108899253900349,-8.722076063427329,6.564889254723823,1.0609456634959513,1.9910193529657576
1943,0.01666666753590107,0.1226534429833293,-0.2054389859586954,0.13929215083420277,1.7507602562502025,-4.2447701981142165,-8.647257846069335,4.5429961660491385,1.3859491160936068,5.033894241415826
1960,0.01666666753590107,0.19273732529580592,-0.3153001673862338,0.16573066042661666,1.853860565240681,-4.40787577073425,-8.589946643829345,2.0866187360140755,-0.4065107680060622,3.9767786064969592
1977,0.01666666753590107,0.22116350157409906,-0.27759149123877286,0.08590484403967857,1.890970690973103,-4.394857006946205,-8.656535377502442,3.1798739690485376,-1.6418297736302638,3.5209729758687396
1993,0.01666666753590107,0.19103154429122804,-0.10031243183761834,-0.023932079729437828,1.8583495472230016,-4.246116936548054,-8.75335032261312,8.053376158845424,-2.9557432324252733,5.531422722919302
2010,0.01666666753590107,0.19545155269056558,-0.11152297715991735,-0.07810732203125953,1.8469770893372595,-4.2790375016361475,-8.800186892589926,10.601959648571777,-2.6540616741920378,5.371556595866454
2029,0.01666666753590107,0.17850787054374814,-0.14305501049906014,-0.007075052952766418,1.828721301678568,-4.346074855859578,-8.712349619182945,13.096078356082803,-1.4707926587464473,5.476615150585005
2043,0.01666666753590107,0.10689560962021351,-0.11257219395190476,-0.006645429363846779,1.7685672772280872,-4.388721865192055,-8.674042977142333,17.351345973155986,-3.7868348876603126,6.328376879239206
2060,0.01666666753590107,0.08303367251753807,-0.1552913917377591,-0.03958265332579612,1.7531544579103588,-4.476709068463743,-8.68287101124227,20.347830216763327,-7.183321049159812,4.556756009018953
2077,0.01666666753590107,-0.008941577477008104,-0.1271092533484101,-0.06623860506117343,1.6493059609010814,-4.488829422107338,-8.691549992260336,22.755326757672957,-10.353479074114006,0.20154322099675284
2093,0.01666666753590107,-0.22715543546527622,-0.10930325528383254,-0.167697576585412,1.4270941193178295,-4.515764190784097,-8.771007559856772,22.185803386562494,-8.606421698583233,-6.352504095595454
2110,0.01666666753590107,-0.24453429415896533,-0.06554360853433609,-0.2565384740769863,1.4094368820741772,-4.510377237048745,-8.840140132793783,20.801921683353285,-6.318289543608744,-8.982127352937185
2127,0.01666666753590107,-0.2605890646420419,0.018026947338879107,-0.1966027685523033,1.3908818192079662,-4.469226603753865,-8.75858763874471,20.231739198987913,-5.2771407565352515,-9.220071506826566
2143,0.01666666753590107,-0.20650106223225592,0.06836334213018418,0.02643324889540672,1.445349906976521,-4.466533419147134,-8.510339438629149,15.857520422424374,-5.447453231036812,-11.680965612893711
2160,0.01666666753590107,-0.18963745958432554,0.0786310536444187,0.21776421452462671,1.4643538826540112,-4.484489931598305,-8.303540270233153,14.364712569879094,-5.0922091158889256,-12.297004279799257
2177,0.01666666753590107,-0.13859949239492417,0.12790946381539106,0.3116998048067093,1.5180737824037671,-4.45965038163513,-8.195950248607993,12.13615930126098,-4.959370901155463,-11.256962837144952
2193,0.01666666753590107,-0.04240983957573771,0.1265542498141527,0.40623569906949997,1.6168346008852124,-4.4861359452396625,-8.087313932800292,9.567090366666465,-4.789917322942031,-10.931129516563141
2210,0.01666666753590107,0.05780950715094804,0.2619803728699684,0.36238019073009486,1.718588171441853,-4.367772600665688,-8.121580359539388,10.475354408342774,-5.871338186022388,-11.144309965842993
2227,0.01666666753590107,0.04495411723107099,0.3884156724795699,0.32045360462665556,1.7036244110658765,-4.261829177203774,-8.152705565643311,12.033816600511155,-7.254943266570211,-8.31992429120517
2243,0.01666666753590107,-0.06196516552567482,0.4642679090604186,0.41235798134207724,1.5783777367189527,-4.217386808887124,-8.047060832867025,10.677021720002925,-10.258626529562747,-2.2383174509234705
2260,0.01666666753590107,-0.28453078898265954,0.4187333615928888,0.5648872148901224,1.332972066552937,-4.283975834821164,-7.887248456573486,8.850855385957772,-11.357761061368707,-0.7871154822639123
2277,0.01666666753590107,-0.40627091651335356,0.5300210686922073,0.6842822405993938,1.184830838830769,-4.188955371911823,-7.76379684894979,6.070103947945753,-14.980168963157896,-1.494756484171143
2293,0.01666666753590107,-0.8905435027264058,0.662282297976315,1.0428788211375475,0.645985827691853,-4.062063268445432,-7.4122987022399895,-0.7305839274944208,-26.30177441815514,-8.834632832905346
2310,0.01666666753590107,-1.2922471113242209,0.9953270886287092,1.84807175270617,0.19243425069600342,-3.7187946054205296,-6.622061932262778,-4.212105517273756,-31.66420374685634,-10.650565836026527
2327,0.01666666753590107,-1.4902508327156305,1.11397743345052,2.2393284938305613,-0.07182575754374265,-3.5869632919862866,-6.249464883422851,-4.793505306690403,-38.59160016913671,-6.621848763533499
2343,0.01666666753590107,-1.5093879332534967,1.1419272243887186,3.332050081023574,-0.2138318435117602,-3.5377328126102685,-5.1880847754329436,-7.867726494562599,-50.962544661795945,-5.945822252695024
2360,0.01666666753590107,-1.5833653158731757,1.1675342515930534,4.299557727095484,-0.403722035748139,-3.490148346875608,-4.249408087047934,-9.050171404996146,-64.09374385059095,-14.76784570261888
2377,0.01666666753590107,-1.4450556002050636,1.2424851554200051,4.9771851859807965,-0.401178196484223,-3.3843542687565087,-3.606116028484702,-13.184628343577433,-82.92654931698624,-31.483476941417806
2393,0.01666666753590107,-0.8717558001480996,1.15000911629647,6.1994339013189075,-0.0625482991758734,-3.4099420067384836,-2.444778585705161,-24.55779831171369,-120.64555183851881,-51.426519412114914
2410,0.01666666753590107,-0.8258100415311753,1.6665169156819581,6.991484442719817,-0.2621647895261645,-2.8094465951114893,-1.7158944023132323,-41.64036438819863,-153.75522168923578,-57.03153315447287
2427,0.01666666753590107,-0.544186372166872,1.812636574448645,7.306252402925491,-0.30690639651771634,-2.54069745875895,-1.4779700278133152,-60.22051432700597,-187.13443812535814,-53.064402190178555
2444,0.01666666753590107,-0.6330899596311151,2.2892627375617622,7.619906848931312,-0.9567825827116146,-1.8400944902166723,-1.2690759329646826,-85.92584247588975,-220.58518030246887,-42.147738160503856
2460,0.01666666753590107,-1.0328437493354081,3.016548545846343,7.228822541764378,-1.8502688243590295,-0.8985743950992822,-1.7251719337463378,-101.74794836746761,-236.441887932382,-33.98445657395011
2477,0.01666666753590107,-1.711741666547954,3.3780545840904113,6.1850084856033325,-3.251924258776754,-0.20694939052164554,-2.8119892653316256,-115.11781144133579,-246.5277823929297,-21.122279753541683
2493,0.01666666753590107,-1.7447740214474499,3.420183414767682,5.707396234062314,-3.845386849157512,0.1028004492610693,-3.2788585890620947,-118.41048171565886,-242.8649705071053,-13.205492010170884
2510,0.01666666753590107,-2.0525293264120816,3.580546410681307,5.052980139416456,-4.710143145807087,0.5301654455989598,-3.8802527030944822,-113.97842660475094,-241.50729282464687,-6.688096902727567
2528,0.01666666753590107,-1.550183615630865,3.510177573947608,4.794667641404271,-4.9729064857482905,0.7905348761409521,-3.98365228729248,-101.78589006830703,-259.46896913410956,0.2608685098997647
2543,0.01666666753590107,-1.1515437785178422,3.360104501380026,4.725902148213982,-5.19032992401123,0.8667004164546728,-3.855562498474121,-96.3437934131268,-284.23509846079236,6.2240999542937985
2560,0.01666666753590107,-1.5742229551270603,3.54446241312623,4.179343786218762,-6.278793853759765,1.2753607123225927,-4.120570694732666,-100.50861054256879,-314.19318242468205,6.754678013643675
2577,0.01666666753590107,-2.139256592750549,3.762283910796046,3.2671506156116723,-7.764246930804848,1.7974466041013597,-4.5218987480163575,-100.94302423415995,-331.89012060191504,17.28398835510861
2593,0.01666666753590107,-2.2417267871439455,3.863328456300497,2.628431271791458,-8.521711896514892,2.1387696860164405,-4.703558798980713,-100.71673323676825,-314.04873758411463,40.18214973625217
2610,0.01666666753590107,-3.869112884920835,3.7220007079854605,2.0104723919272423,-10.722132859802246,2.2969367793209847,-4.857984806060791,-123.32346410640571,-278.20251146129704,70.36220460288352
2627,0.01666666753590107,-4.3552813678830855,3.983218279789388,0.20906302167475221,-11.828851992687582,3.108720925848186,-6.0799254783630365,-161.25119037878468,-233.68945830065027,103.71117013117188
2643,0.01666666753590107,-4.300560766658187,3.9536560852184888,-0.29228724832832814,-12.145485746765136,3.5570352597776798,-6.163422092217207,-158.5692892804225,-213.91526835151961,112.94440426630271
2660,0.01666666753590107,-4.307508978360891,4.179784515723586,-0.560169538718462,-12.473192683520912,4.229955582151655,-5.990591828918457,-133.03175838887844,-216.82930025901388,105.23178880647016
2676,0.01666666753590107,-3.9257840356916187,3.999273927055299,-0.8731208048909902,-12.489652819934486,4.53357026191391,-5.62128593057841,-91.59612892105093,-245.23966335697867,92.04748148178372
2693,0.01666666753590107,-3.585689911049604,3.6452392476052045,-1.0445239579960703,-12.428899952808022,4.482394055297598,-5.199905853869021,-71.70591454848929,-261.08335264633376,93.18586228056057
2709,0.01666666753590107,-3.980816187083721,3.349911024145782,-0.8490273971199989,-13.061418103900552,4.4849383329529315,-4.373907157897949,-65.22869589440447,-260.06846849793993,104.4319668244725
2726,0.01666666753590107,-4.3946173529714345,2.9883336742311712,-1.5967089277014135,-13.689147851672768,4.570829952184856,-4.294448713518679,-66.94749250847066,-231.91978360745665,132.0256578637572
2743,0.01666666753590107,-4.848675710445642,2.7027158206641673,-1.966428667539358,-14.212430552020669,4.676174825231731,-4.11024496942088,-69.92624045835078,-196.46656656948159,152.40519381864775
2759,0.01666666753590107,-5.049132231816649,2.4848323636740446,-2.252554909019917,-14.411448565021157,4.881777185058594,-3.917512174169719,-69.81296860115528,-162.82053562362185,163.88436490760802
2776,0.01666666753590107,-4.859242112645506,2.0846485119894145,-1.9706039073973893,-14.13476805114746,5.059696295928955,-3.10378295798935,-69.70235368754692,-127.5221726345093,170.0346770476377
2793,0.01666666753590107,-4.696534014910459,1.7789155066326259,-2.0874702914118766,-13.8609306517452,5.180303620037436,-2.8715451046932485,-70.01004004927766,-115.90005934659901,169.733861856212
2809,0.01666666753590107,-4.112186312747001,1.62810359839648,-2.1067080758452414,-13.078176930999755,5.58612138595581,-2.446574456145987,-64.42825236519232,-112.46094981647087,175.19159281440238
2826,0.01666666753590107,-4.3150282679498195,1.6054966297909616,-2.1025024408489466,-13.09344172014892,5.976975683759153,-2.109889771196345,-61.185223905756914,-115.04909973828546,178.86001911572453
2843,0.01666666753590107,-4.451304870355129,1.296279873971641,-2.286332821589708,-13.008445807647705,6.075286420385539,-1.9595035444512963,-60.94782702077478,-114.59326657345714,183.01847050886008
2859,0.01666666753590107,-5.089610957199334,0.594963204202056,-2.548580905485153,-13.300688632312417,5.902604333385825,-1.7886173278924076,-73.8417556830873,-99.66526659517982,187.84927206351333
2876,0.01666666753590107,-5.549274295073747,0.10759528232216835,-2.751961789870262,-13.466187822070717,5.795314756011963,-1.6829739102903754,-89.08541968404595,-81.31375040864947,191.24425857160318
2893,0.01666666753590107,-5.7244373852342365,-0.2420598668694496,-3.104209001381695,-13.32373223876953,5.805639166149497,-1.745372279601544,-102.22459311869694,-58.74654584373888,193.90413914008124
2909,0.01666666753590107,-6.034153907269239,-0.39070144532918927,-3.3859178648114203,-13.181727321845292,6.101473877826333,-1.6729469487294553,-109.94503597531833,-36.680728390326,194.7897824490001
2926,0.01666666753590107,-6.746936850687861,-0.0790413880109787,-3.657172261983156,-13.549386329761147,6.706907622638345,-1.695543249810487,-106.45670810203107,-29.283633519202194,183.5645168122459
2943,0.01666666753590107,-7.365689511278271,0.16519874550700187,-3.981439579679072,-13.839832334136963,7.197270050159096,-1.7892163897641002,-93.02232023107379,-28.216023725510425,162.16270644427956
2959,0.01666666753590107,-8.763649598309398,0.7005062301695346,-4.6857446176096795,-14.850636101099848,7.987805510821938,-2.2333400670707224,-59.41515306159143,-35.85005785894198,127.6602927199053
2976,0.01666666753590107,-9.551135608273745,0.18378771064281463,-5.179444957381486,-15.393370520892738,7.6165534468501805,-2.5731679419919846,-41.04127483571847,-37.94481199058777,100.36539513605197
2993,0.01666666753590107,-9.651372929048538,-0.38097617012858387,-5.400666618883609,-15.301941944995521,7.154324057880044,-2.6692355758666992,-37.33411111651859,-27.092169031550895,72.15362661839445
3009,0.01666666753590107,-9.32855259529054,-1.2951660675108432,-5.501964262366294,-14.818762122455238,6.30767449580729,-2.634070738983154,-49.761032424520664,6.13977016993259,44.33953220478261
3026,0.01666666753590107,-8.72753666692078,-1.2659469872891902,-5.001902863129973,-14.158410208019614,6.347476344841718,-2.0503341544553635,-60.01799238792592,31.548507172505495,34.82531091738662
3043,0.01666666753590107,-8.277443705946206,-1.1991004794627427,-4.94271242301464,-13.67568046733439,6.411522992816567,-1.9247876203790306,-64.55191977030458,50.11311843095106,32.43311570776511
3059,0.01666666753590107,-6.94132837293148,-1.7893793252408503,-5.296004467403888,-12.311734293586015,5.816116136500239,-2.216132034899294,-58.06410066262789,59.607238471619695,32.93319142294218
3076,0.01666666753590107,-5.441425914773345,-3.2538352069646117,-5.505132371008396,-10.805181729888915,4.349814919170737,-2.4091654205322266,-45.518597025350644,63.94771440613608,24.270877432607087
3093,0.01666666753590107,-4.84325368539691,-3.9452942073255777,-5.628384656667709,-10.227131082043051,3.6526527387320993,-2.5534149015128613,-25.673502882446105,68.08336662782212,9.319925457397568
3110,0.01666666753590107,-3.811906312099099,-4.7294595484346145,-5.440003188493847,-9.279176862224936,2.8513433705985545,-2.4717136466428635,7.0341868568403445,68.84548596560131,-15.699172731801383
3126,0.01666666753590107,-2.938741668066382,-4.724500464722514,-4.7751978017807,-8.517223352923988,2.8286002083927393,-1.946485949707031,29.203436853062488,65.60383720437824,-33.10246400114261
3143,0.01666666753590107,-2.5418974821984768,-4.4474978792876,-4.229476475131511,-8.241291611590981,3.0765497178226706,-1.5693991882324219,49.66304994578224,56.80286525125001,-42.164229652254846
3159,0.01666666753590107,-2.0099661959707738,-3.7472809874534603,-3.3314541609570383,-7.874529844775796,3.7407922099560498,-0.9427154423817992,79.56626700006922,42.49597535533695,-48.717318047640184
3176,0.01666666753590107,-2.007694159385562,-3.141511142554879,-2.469278820711374,-7.996185216632485,4.317643418884277,-0.3084022245660424,97.46415617287316,26.43585615420437,-56.1912388865483
3193,0.01666666753590107,-2.111779387760162,-2.738046661764383,-1.893303517834842,-8.230967785975336,4.678271212989092,0.03651157531738281,106.2848742028919,13.01105701506813,-67.24275475610115
3209,0.01666666753590107,-2.4980174239397046,-1.898337128087878,-0.9193722684562206,-8.815450512695312,5.419724370574951,0.7257422321043908,103.74313541648755,-0.8847915629850316,-83.24202892455996
3226,0.01666666753590107,-2.8133365882873536,-0.9741554135233164,-0.23071327407732606,-9.2963857711792,6.236745102581382,1.2333126917965709,95.03663863995892,-9.097682200862755,-91.46476389274409
3243,0.01666666753590107,-2.6358406712651252,-0.6550058772325515,-0.05125570159330964,-9.290849179840087,6.426785443878173,1.263840078137815,87.38117820310104,-15.719762337054387,-96.25372370854184
3259,0.01666666753590107,-2.459202247855067,-0.06527648203074932,-0.03033200989961624,-9.345018576923012,6.821529442596435,1.1219827529907227,81.63338277123856,-18.362871376025485,-96.33972262038147
3276,0.01666666753590107,-2.439942251589894,0.2671820331662893,-0.06785371210761368,-9.490316690173744,7.004386009868979,0.9678568979009985,82.08114948265708,-14.255823986583458,-91.99566083655083
3293,0.01666666753590107,-2.2056612020283937,0.2347358075916767,-0.09494279456324875,-9.415048390960694,6.819434516143798,0.8198636272821574,83.96221090083527,-11.647719667108674,-94.37736146051262
3310,0.01666666753590107,-1.6127514232248068,0.12887947789132595,-0.03252973913960159,-9.048886928126215,6.478561223822831,0.7130239856328815,87.4079047333233,-9.535024336060548,-105.95997576445274
3326,0.01666666753590107,-1.0402134013205766,0.08299100241959094,0.06772511729188263,-8.666413212916254,6.217293967658281,0.6856395734924823,89.63726481803712,-11.927037691895407,-116.50671674867954
3343,0.01666666753590107,-0.6795698251247405,0.3730675889611244,0.23804770861864089,-8.498518652454019,6.270714007678627,0.7402575545931235,93.00171355034786,-16.861131343593122,-124.02105864709578
3360,0.01666666753590107,-0.37456805665194987,1.1009475637465715,0.7538438526034354,-8.454075699615478,6.647051996612548,1.1180928328800945,101.01666733379102,-24.780091940893634,-128.78451453653273
3376,0.01666666753590107,-0.6610632775753736,1.7785925582885742,1.2817431068360805,-8.925885402357578,7.050176285663246,1.552939216215629,105.70617276508423,-25.3237408478808,-129.9622713758747
3393,0.01666666753590107,-0.413691860294342,1.9959090290457009,1.487961260473728,-8.85450709632039,6.98478406829834,1.672798808963038,102.40329818814116,-24.170825406550154,-133.0471809560243
3410,0.01666666753590107,0.10071429063677788,2.0888021245375272,1.524692616021633,-8.563161512756347,6.682216541235149,1.6151882127845194,87.3363653319566,-18.56213019222956,-132.30710263869676
3427,0.01666666753590107,0.8763169705837964,2.056478356298804,1.425002407735586,-7.9393235117256635,6.35226591720581,1.458219074260001,73.91515972609743,-13.270138896891408,-126.96294406602534
3443,0.01666666753590107,1.3959230282455681,2.2367063286334274,1.3320201726555823,-7.553556600189209,6.246322201482951,1.3187566209182782,59.685109458347014,-9.459291198543447,-118.51038006245946
3460,0.01666666753590107,2.2100924624741074,2.4188486101567745,1.147392504057288,-6.891110343822836,6.070647654668987,1.094000758549664,43.742928841160335,-9.316032249570661,-107.80559533102773
3476,0.01666666753590107,2.500745387598872,2.829709923200309,1.2316858212471007,-6.697929950934648,6.228365981292725,1.1691186758068621,36.78369690715853,-13.847814098776285,-100.4843292200694
3493,0.01666666753590107,2.4006302318990227,3.3189120747700334,1.3654004642099142,-6.881084039849043,6.483946423992514,1.3133697094237664,32.40427181890015,-18.93323315285657,-90.5443890718957
3510,0.01666666753590107,2.3239918133765456,3.664496613521874,1.5354180081754922,-7.049429266688227,6.547094077301025,1.530643180718561,21.44713550329854,-26.561342097183136,-77.77248173910544
3528,0.01666666753590107,2.3488936149209736,3.5589100406736134,1.331257956111431,-7.080702356830239,6.251559809875488,1.3838493632879107,8.822440091463227,-26.250595810704237,-70.0170478233661
3543,0.01666666753590107,2.436039398932457,3.6616584674865007,1.2252841375112533,-7.0385051370918745,6.189759479522705,1.3353659850853028,-5.094107908478189,-20.72888817810563,-61.56845898989716
3560,0.01666666753590107,2.4450685085624455,3.978184669536352,1.0920435418009757,-7.075915122553706,6.321441009222716,1.2665331714130006,-19.927290346923765,-11.032589415362741,-47.42010802990385
3577,0.01666666753590107,2.1221575739115477,4.800296002680063,1.3195827158868312,-7.422775088068843,7.041197591046243,1.5270519472978077,-29.145533924373705,-2.623596042286019,-32.30856379315534
3594,0.01666666753590107,1.9925906982779502,5.39121022375226,1.501510477876663,-7.566125574383139,7.571063761437684,1.7241254386343992,-37.34480377766425,5.086654464546412,-14.248909273822466
3610,0.01666666753590107,1.9710136572420596,5.9512739640086885,1.464361773699522,-7.589769484820962,8.121281376592814,1.6943470622958614,-45.409245696738736,9.863535090797004,9.889298564346293
3627,0.01666666753590107,2.434918285948038,5.88198649277091,1.5191244605004786,-7.117064294543862,8.090456030218302,1.7486651836670934,-49.576453392390235,12.437188789871891,22.99555987870794
3644,0.01666666753590107,2.7078163586735724,5.772713048103451,1.4212965389549732,-6.828264888331294,8.049306419836729,1.646463193489518,-50.961533793798786,14.75659808860316,33.98440876262592
3660,0.01666666753590107,3.217138922730088,5.579793936499953,1.3325368900060652,-6.2871753131359815,7.98675746307373,1.544559419073537,-46.517467795235405,16.51293342234775,46.9412332219105
3677,0.01666666753590107,3.650568333673477,5.537832863605022,1.2229729379594325,-5.821800027355551,8.068309372600913,1.4261962754289619,-37.12191079938464,12.302814209462,54.356762773604174
3693,0.01666666753590107,3.7845793292343615,5.431482612907886,1.2990414476394652,-5.649120570704341,8.102577552905679,1.5014645746420137,-23.44925860942062,4.573840873454093,60.87505818535747
3710,0.01666666753590107,3.8901743776500224,5.332931637784839,1.478845057082176,-5.480628628870845,8.215104738672077,1.7058684088666922,-2.66536990613664,-13.023280492361515,68.64277961141367
3727,0.01666666753590107,3.5587948898613453,5.477330756369232,1.736074436032772,-5.755062825122475,8.534880005645752,2.007838116167206,14.241322641201876,-27.22756557901535,75.07805407380546
3743,0.01666666753590107,3.2533149824827907,5.4665866595149035,1.9058511569797991,-5.992388064685463,8.71833600011617,2.2427687704775483,26.812078341614303,-40.93339882796729,84.15961019803781
3760,0.01666666753590107,2.7386300146102904,5.2901265152812,2.061225258564949,-6.394164446258545,8.833556955011188,2.5157082711920142,34.67991668052456,-54.03041291996638,94.42992659636504
3777,0.01666666753590107,2.2697148642659184,4.8806519804209465,2.1142273654341697,-6.763171361652017,8.658480374090374,2.6668413376739246,33.435647459045,-55.18022062522467,99.03608322921657
3794,0.01666666753590107,1.7213251951903104,4.395739634999632,2.0381015726089475,-7.1606088372379535,8.497769587652385,2.712630334826559,24.72466666332627,-47.49187965770235,104.16829420175333
3810,0.01666666753590107,1.5263438903599977,3.985442970101535,1.9228093060433864,-7.231837505671382,8.332870117352902,2.6741736898560076,16.37949030898592,-38.446127385099196,105.53095109211672
3827,0.01666666753590107,1.520397549176216,3.214277688080072,1.683378618633747,-7.107487487903237,7.804349516351521,2.496553927258402,10.841876873357645,-29.25131989423886,105.34032051238167
3844,0.01666666753590107,1.6402227829962968,2.4101871647953987,1.5570914953231811,-6.807763952094316,7.314286656299233,2.424129911560565,7.590654748239154,-17.708926866773663,103.62532148349399
3860,0.01666666753590107,1.6453408566623926,1.875472385329008,1.4340063829243181,-6.664858871459961,7.005583110699058,2.3244711213260887,4.774380350127545,-11.32621241759242,101.21056957413852
3877,0.01666666753590107,1.6164216361701487,1.2552993365466594,1.4153870226502419,-6.555624005237221,6.600065204510092,2.3217774983279407,-1.282391922331989,-5.927773477813265,97.71836898359187
3893,0.01666666753590107,1.481174961334467,0.9834820447951554,1.4505658880591392,-6.550685964313149,6.533776915088295,2.37459971858561,-11.037129783613507,-2.7249048231502333,99.34499902499792
3910,0.01666666753590107,1.0923550919681786,0.7828092503249645,1.5452677865386009,-6.732944565692543,6.614281945911049,2.509124070496112,-22.700610112231985,-3.4826203964620603,108.41945175249346
3927,0.01666666753590107,0.7590601259469986,0.38914369449317454,1.2798597773075102,-6.891112097388506,6.439505224719643,2.298882141235098,-35.07715023736875,-6.20704667948357,114.85363338461804
3943,0.01666666753590107,-0.05909633209109306,0.19094518118202686,1.1475437490962446,-7.453149768066406,6.533925383648276,2.2722475245486944,-54.39956415403806,0.7247732507797382,120.76234807332602
3960,0.01666666753590107,-0.41156770774722096,-0.15850596987009047,0.9000454174999147,-7.601290995788574,6.397904217308759,2.1214123815674335,-68.74899588319654,7.126796964909724,123.26774342315674
3977,0.01666666753590107,-0.8484978202879428,-0.4719973342686891,0.4878804014466703,-7.825148851013183,6.290166311645508,1.8182469616763293,-77.7738136259936,13.328649712416322,125.50598275379159
3993,0.01666666753590107,-1.504248378407955,-0.6866495542526244,0.07962357181310653,-8.18442932216227,6.336704190936684,1.5689507138125598,-82.9616359987526,15.691811495423401,126.75930880611058
4010,0.01666666753590107,-1.8560569062411785,-0.8576941031783819,-0.16893515555635094,-8.307131572723389,6.349273165130615,1.4477444008976221,-82.10241869173251,15.643419605153861,125.90404617861992
4027,0.01666666753590107,-2.3148054673582314,-1.0584791258513926,-0.45679903448447584,-8.53577900031209,6.319047538214922,1.287332451275736,-78.15434395522253,14.937838865776742,122.70525002424951
4044,0.01666666753590107,-2.8157424803853033,-1.2357429876834154,-0.7040604155197739,-8.736292804828286,6.345830331200361,1.2030861880980432,-68.43924680433646,13.027123327543293,113.56470155615575
4060,0.01666666753590107,-3.176905112019181,-1.297497725328803,-0.7681666847273707,-8.884284979468584,6.417808356696367,1.2493252305731177,-61.26404428877886,12.337152131740591,106.17129498718376
4077,0.01666666753590107,-3.83553385592401,-1.2913473860055207,-0.8427002399250865,-9.27603622611165,6.5797168284863226,1.3061872277408837,-53.50485718409058,12.192364074167369,97.33647261652894
4093,0.01666666753590107,-4.062048947659135,-1.370564715105295,-0.8359726852357388,-9.375245957404374,6.570288490405678,1.3738234246402978,-50.634938053350865,11.036874505293278,93.68796997701573
4110,0.01666666753590107,-4.479705035409331,-1.6087492018461227,-1.0314391432344914,-9.549273321533203,6.4559653611332175,1.2988544006347655,-47.29905317214913,6.271097632199011,86.34969669502406
4127,0.01666666753590107,-4.949933021917939,-1.9244447982907293,-1.288812606830895,-9.785551097869872,6.246172856140136,1.1664257058292626,-43.69655185669595,-1.7021192131037317,80.27192116397991
4143,0.01666666753590107,-5.177525387495756,-2.385739536759257,-1.693940052397549,-9.843460850524902,5.85412233428955,0.8563762985780835,-38.53828712757018,-8.104279851182236,74.6292696642006
4160,0.01666666753590107,-5.37295092896223,-2.6604934664845463,-1.8834347425103186,-9.880721490643918,5.640141145434975,0.752828245820105,-30.568829234188474,-8.451339692157156,65.25448668871043
4176,0.01666666753590107,-5.38762885813415,-2.980954669895768,-1.9447765154406427,-9.724200849372147,5.385309475275874,0.7700356934696435,-14.346119087411028,-6.850482942697329,47.68391042621725
4193,0.01666666753590107,-5.567859753078222,-3.102334731942415,-2.0786486870527265,-9.81233681346476,5.304204140472412,0.6572080634519457,1.409037503365777,-3.8631191360660693,32.34194975781837
4209,0.01666666753590107,-5.766852047115564,-2.9891186871290207,-1.8509458468377589,-9.958083839526772,5.449353200641274,0.8686468743473291,13.494763328125618,2.5118088974613593,15.163223155556116
4228,0.01666666753590107,-6.239562498089671,-2.5571786379605532,-1.221213527071476,-10.424504250445962,5.903952240863442,1.4369699089050292,16.111582968981338,17.86865596315629,-3.1428411102555516
4243,0.01666666753590107,-6.525102025723457,-2.097782426589727,-0.5523875065401196,-10.740388647460938,6.364834891399741,2.0525787185117603,8.041821186317055,27.731541332208497,-8.504565648811772
4260,0.01666666753590107,-6.409369029653072,-2.1128736127376557,-0.5991495499759912,-10.665270570373535,6.340593599590659,1.9692314500004051,-5.130391154009766,31.371834084339362,-10.16961550429914
4277,0.01666666753590107,-5.913118713137507,-2.2340169434189794,-0.734137281614542,-10.238354779107867,6.18586948634684,1.8287217400699853,-25.07775841511196,36.67111489906921,-17.540986175461388
4293,0.01666666753590107,-5.355566078919172,-2.3095704893141984,-1.168377716679871,-9.756072489929199,6.064512220653891,1.4163202118471263,-33.81530010896557,41.757010358844106,-27.081402945871663
4310,0.01666666753590107,-4.931998136776685,-2.2971862240374086,-1.4295184238553047,-9.431059906823933,6.016928631702065,1.1789961413279175,-31.993125166716645,42.867715231104064,-36.59771427115367
4327,0.01666666753590107,-4.037079633836448,-2.1603490651398896,-2.01567025283128,-8.694094416046141,6.063613810509443,0.6013941140323877,-16.219073071044413,35.954925168363765,-46.96301811026826
4343,0.01666666753590107,-3.3238805108323692,-1.9063199435353277,-2.307542490617931,-8.11080791337341,6.24976591219604,0.2874541290834546,1.788067965741645,25.979705385579653,-54.45726559214633
4360,0.01666666753590107,-3.0823388226181265,-1.6040736112505196,-2.2451237361058594,-8.00576202327311,6.4863429637402295,0.29957594403177495,24.14796476339812,10.317454948884066,-62.2015355636873
4376,0.01666666753590107,-3.3965193383246657,-0.7752215716749429,-1.909865068796277,-8.45931243122518,7.2527844321101895,0.557849279077351,47.33546149551989,-7.712739257011255,-68.94651812380414
4393,0.01666666753590107,-4.091284394493699,0.09145195677280425,-1.3117381398662924,-9.344420611029863,8.036139625880121,1.024270566779375,71.71939051172173,-32.620665872184496,-80.38838271951781
4410,0.01666666753590107,-4.346052936288714,0.3387818729996681,-1.057326156423986,-9.75517524882853,8.207923010474444,1.1761524423345924,79.15154474385521,-44.17933353289454,-93.469110225441
4427,0.01666666753590107,-4.792419570216536,0.7300339379489421,-0.6689912940956652,-10.45113915939331,8.457816055187582,1.4359225918091834,75.7019303827836,-40.44494809475758,-115.32912383387765
4444,0.01666666753590107,-4.6544268115431064,0.9339660264760256,-0.5463409198522567,-10.543466145434975,8.512135089874267,1.4688425723753868,65.62966214963006,-27.125169090525812,-132.01680593859288
4460,0.01666666753590107,-4.184323328197002,1.1938000349670648,-0.4918555886879563,-10.33546929168701,8.584708743175863,1.4338279576174915,56.64810682503586,-10.00230062906957,-143.80740633294906
4476,0.01666666753590107,-2.9920506489276883,1.9149825579404829,-0.30244463133588434,-9.520393264007568,9.009679537853598,1.4909899606451391,54.18159574215003,5.83228657944284,-149.30141925601055
4492,0.01666666753590107,-2.4042753104031083,2.8076106118559836,-0.0020554712250828743,-9.207351396942139,9.668832597893475,1.6748934066221117,59.10544496386637,10.611193210555989,-144.6345149206809
4510,0.01666666753590107,-1.9551187534958123,3.042020256233215,0.2449099956035614,-9.01432005713582,9.671078915515542,1.7920600887574254,63.025106113429096,13.328494325612704,-140.4133487305863
4527,0.01666666753590107,-0.9449982926219701,3.0640871266126632,0.44170682542324063,-8.322694468036293,9.377040439605713,1.8152547941230237,59.172251044138264,14.328237652163933,-135.22678994282376
4544,0.01666666753590107,-0.05145955360233784,2.6404835286349058,0.4416587484978139,-7.651120902362465,8.710105055126547,1.6967410812929271,51.7836426830582,14.745046531169377,-132.65556522977246
4567,0.01666666753590107,0.5377116231948137,2.598598443585634,0.41903081016950305,-7.271040804290771,8.418162090191245,1.5707465842533856,45.02693610323103,13.621132926828254,-131.02354616911128
4576,0.01666666753590107,1.5423229652583599,2.741692909312248,0.480554150211811,-6.527192860522866,8.218246836090087,1.5104415339596569,44.7722964056892,10.459656926082793,-128.2147811371053
4593,0.01666666753590107,1.8490385519117116,3.1706530658870933,0.5250700221560896,-6.398353714641928,8.390479718017577,1.476025323486328,52.9024242540117,0.10208563484102375,-123.45572388949384
4610,0.01666666753590107,1.935688076838851,3.5587194865375755,0.6889665259581059,-6.470629846301675,8.530540515136718,1.5750855633057652,62.61319789515314,-11.168490543052132,-117.01004704899611
4627,0.01666666753590107,2.21514214707911,3.4963282045543194,0.8308371489781886,-6.37725715059936,8.150611515973507,1.6546932068973779,64.6107686801934,-17.5549231764628,-110.57671236032861
4644,0.01666666753590107,2.514129185307026,3.077538144338131,0.7925719349265098,-6.203377085986733,7.499686770574748,1.58002375036031,58.529058960187335,-14.427695451763075,-106.16471068482386
4660,0.01666666753590107,2.790765275517106,2.864626630541682,0.6765372524958103,-6.042516661944985,7.056909393310547,1.430386365796253,46.9783143189145,-7.685086382382812,-103.6294674083202
4677,0.01666666753590107,3.414016416570544,2.5741250965863465,0.456616809785366,-5.563228001624346,6.458358978271484,1.158194760839641,32.24502254330672,6.540484561932544,-101.37079898187784
4693,0.01666666753590107,3.9853322032034395,2.5544588576078415,0.37171851243972776,-5.093066066089272,6.206069978332519,1.0188822248045355,27.136770166831077,14.949573130770824,-99.93755208644237
4710,0.01666666753590107,4.18084074677825,2.906488919237256,0.473420645070076,-4.991462133136391,6.327276437377929,1.0543465926239266,26.981250174524472,19.49295007986619,-96.71715204372721
4727,0.01666666753590107,4.245022419309616,3.6359850970476866,0.8496528355419636,-5.036503051868081,6.764966428375244,1.3325237747961654,28.790323106398024,21.828219077850232,-87.14372667660555
4743,0.01666666753590107,4.416034819531441,4.126666088998317,1.133490819954872,-4.933253689795732,7.058106494140625,1.5432132286289706,28.104363792959056,21.260317876667642,-76.59006671074953
4760,0.01666666753590107,4.541548620381951,4.211654402714967,1.246623862659931,-4.863222706714272,6.969221757507324,1.587954397229105,21.111867130152,21.129395103109545,-66.33413469081435
4775,0.01666666753590107,4.883299864581227,4.0850332251444454,1.2453472668528556,-4.579359587860107,6.646901774486899,1.5008657319660297,1.8984562024469216,26.3821862352537,-53.28103871517843
4793,0.01666666753590107,5.101421221980452,3.8520287713900205,1.211608663380146,-4.394706784820556,6.2931589175902305,1.398214554982539,-15.28508568318019,33.73428382012547,-43.95800808302945
4810,0.01666666753590107,5.194202966052293,3.9928400946155187,1.2546388268113136,-4.32811922019124,6.33475846369639,1.3605057783703784,-28.8958768498314,42.9170428572899,-35.20347800116272
4827,0.01666666753590107,5.324702738621831,4.668266536325216,1.4702128378152846,-4.220678251647949,6.916698812457174,1.4449012498935683,-37.74303112703267,51.71439822525261,-20.23040731209976
4844,0.01666666753590107,5.255253354820609,5.463561758735776,1.7088222719699144,-4.296844376483559,7.6794015326902265,1.575085782501474,-39.13511930252965,52.82966566387814,-6.10017470954038
4860,0.01666666753590107,5.262783165803551,5.84211274754405,1.9437305135190486,-4.285173812434077,8.066813581085205,1.7036240640060043,-39.64080943320447,50.33634608850001,12.2725206129457
4877,0.01666666753590107,5.293953964614868,6.099429804778099,2.1643658995658157,-4.227713557112216,8.419061084857583,1.807173888595961,-42.5563234917486,38.07496807541153,43.289534053865715
4894,0.01666666753590107,5.360460280701518,5.935500640815496,2.0501918233752248,-4.123115703040361,8.39841080327779,1.64242325218264,-48.820798828660465,25.75066694459432,68.1261919139181
4910,0.01666666753590107,5.31994706852734,5.761612392896414,2.061730869999528,-4.108602024519444,8.425644554901123,1.6424229964543133,-57.41469310653225,11.995489847757275,89.49338005298164
4927,0.01666666753590107,4.828420857924223,5.4330561458349225,1.8442098165810108,-4.501249927741289,8.431330491583049,1.472733917258121,-61.91456516570921,-3.921233800619123,107.96751179549204
4944,0.01666666753590107,4.136871841192245,5.485259795802832,1.7916472701728343,-5.101446940943599,8.761431629998981,1.4906899913178755,-58.946991405311245,-13.222670789707113,116.26872563723961
4960,0.01666666753590107,3.7568040180802345,5.497265875416994,1.7046739201188086,-5.3758805526733395,9.063849227197467,1.4950299750172533,-50.68554634000608,-21.591619617453695,122.82040701365592
4976,0.01666666753590107,2.7952643405020234,5.856144195505976,1.8063468266546725,-6.169110074725746,9.831939047296345,1.7476174829787574,-33.670964551424866,-40.78941161007425,136.66964008423227
4993,0.01666666753590107,1.5915917308181524,6.143687464177608,1.8316811743974684,-7.217620764270424,10.451887055151165,1.9188037053975275,-17.308208205905476,-61.505593928776364,149.7337838908507
5010,0.01666666753590107,0.773403124076128,5.891622920644283,1.7647031491458416,-7.849690587073564,10.554688673456013,2.026393105968181,2.451044973283987,-83.60425434681325,161.22710713177122
5027,0.01666666753590107,-1.1049380946874618,5.39501487673223,1.684760428380966,-9.43599824000895,10.542268460083006,2.204012302310206,24.287010339426658,-105.75373137227503,161.92956476715037
5043,0.01666666753590107,-2.82626679700911,4.512572701266408,1.5369675757050514,-10.922198920550942,10.000281643787027,2.252046155780181,33.75049527412049,-113.2441061368937,150.12358278678332
5060,0.01666666753590107,-3.5283944909006357,3.7950814340263603,1.3553858506739138,-11.392958821979164,9.584737433624268,2.249203041308746,38.110829983648685,-107.85042186255052,131.21649901316414
5077,0.01666666753590107,-3.9164872150361534,2.4556921939074994,1.112319437110424,-11.505187024798989,8.573336869812012,2.1877018400330095,35.80064485539152,-81.3513027887062,102.77039353527266
5093,0.01666666753590107,-3.3768098447263237,1.3737351618349551,1.0325859751820563,-10.793511165839433,7.685387329101562,2.184111487390846,31.418637955626874,-51.275951306956564,86.16899038015303
5110,0.01666666753590107,-2.5933751559793947,0.59594403193295,1.032964599236101,-9.81338369216919,7.127537757763266,2.207754228784889,23.284352229647126,-17.207816377937338,80.59360258332
5127,0.01666666753590107,-2.1956699693679806,0.3255675866395235,1.1466006230272352,-9.26945217154622,7.0180042008548975,2.3056162717957047,13.477524784434152,-0.8421517592136998,86.49958519635999
5143,0.01666666753590107,-1.6649159102261066,0.020556465816497803,1.3732174215711652,-8.577378254157304,6.883180719867348,2.510171752918139,0.7376109648507474,10.040645311070021,96.9907967426346
5160,0.01666666753590107,-1.4061574220120907,-0.5733318026304245,1.3206393853329121,-8.07579183731079,6.525845537567139,2.4555532968934624,-20.666125569822384,10.390847892836792,104.29653783360949
5177,0.01666666753590107,-1.5674001233696937,-0.8766980788558721,1.179925165806338,-8.043170839691161,6.393714948925376,2.352901170061901,-32.123414440229226,4.072089627496256,103.61227582217927
5194,0.01666666753590107,-1.7537147221416234,-1.2299112127900123,0.8725903512760996,-8.035389684295653,6.197540050396323,2.1151276752747594,-38.604113075696176,-3.92562134338721,97.55804395320416
5210,0.01666666753590107,-2.092594794818759,-1.4364602058172224,0.44933600512742994,-8.126220878821611,6.173150290027261,1.8130092071533201,-39.60068207183065,-11.701066005847412,89.04949288901169
5227,0.01666666753590107,-2.230937097582221,-1.6152140139460562,0.1786440641440451,-8.085968363410235,6.114194243189692,1.643321918055415,-36.79497013438363,-18.09594758326139,83.39425335059204
5243,0.01666666753590107,-2.331715685626864,-1.7137942151635883,-0.15034385233297942,-8.0117475274235,6.1255649475097655,1.4155715854369104,-30.090412048869513,-24.621582033277853,80.26920957887943
5260,0.01666666753590107,-2.6006319952398536,-1.896589992159605,-0.604729980456829,-8.047211639514565,6.0817222986519335,1.0839746555052696,-16.221135788173758,-34.3859248480797,76.5715295773421
5277,0.01666666753590107,-2.739121597519517,-2.0213544359475373,-0.7343162914432585,-8.012794406127929,6.056282736968994,1.0293583914376794,-4.3370552904026765,-41.33751380040026,71.10810224138393
5293,0.01666666753590107,-3.0280466759383677,-2.2463146994560956,-0.8301802194394171,-8.137442530059815,5.923403960308432,0.9919473830625414,6.178595953382705,-46.66278348492201,63.49705852469864
5310,0.01666666753590107,-3.3933097286283966,-2.4959739354133603,-0.8263198907494544,-8.30578483428955,5.781548096466064,1.0500066271908581,16.53538425414958,-52.5702209282552,50.49695115664368
5327,0.01666666753590107,-3.575486496943235,-2.6100766999334097,-0.8267182424172759,-8.362349017554521,5.734563057929277,1.0767926350466905,23.60956485678811,-58.71932753989638,40.03649595220165
5344,0.01666666753590107,-3.833440098515153,-2.7121652015328404,-0.7758361964419483,-8.512135089874267,5.689819660839438,1.144279632733762,32.69797678339987,-66.84947246369181,29.837951181672917
5360,0.01666666753590107,-4.164903172934055,-2.7511662555783984,-0.684179364746809,-8.72716491099894,5.713164296069741,1.2422919709354638,42.60787092941469,-79.01204496024687,15.710131770324669
5377,0.01666666753590107,-4.304502490021288,-2.7949346701562403,-0.6375732425250112,-8.802582263293862,5.704334508404135,1.2859855667114257,48.5240749205476,-85.67971660914834,4.234496158033527
5393,0.01666666753590107,-4.445610165844857,-2.8416917451560497,-0.46441871570795773,-8.894759611731768,5.686529387122392,1.444752087213844,51.48347977469823,-87.71585747243168,-9.66700493516635
5410,0.01666666753590107,-4.508590645892918,-2.8013819465994834,-0.553264143244177,-8.944887332208454,5.736507177734374,1.3425482886716722,52.09404404498401,-86.98341530659619,-17.832459375649805
5427,0.01666666753590107,-4.461441356705129,-2.689215118578076,-0.44353301793709393,-8.9026895279482,5.849782843780517,1.4356244856454432,51.653291937843086,-83.96404139153285,-24.11581335542758
5443,0.01666666753590107,-4.498642083330452,-2.5421084946006536,-0.38574016966000196,-8.967482610376178,5.9868508888244625,1.4734826532661913,46.76894170009693,-79.84054007638025,-30.440524130629782
5460,0.01666666753590107,-4.266141779705882,-2.5770155573308466,-0.3822542272403836,-8.771457057189942,5.934177867779136,1.4703389484129845,40.65018161893812,-73.94567701130904,-36.27663049336595
5477,0.01666666753590107,-4.063858919690549,-2.62430630081594,-0.4210696955859661,-8.622568225970864,5.858462409320473,1.4312844106145202,33.577298752241894,-64.92341375926158,-42.04412419079476
5493,0.01666666753590107,-3.4477029975950715,-2.735715588468313,-0.5824927219465375,-8.102128347833455,5.692513137707114,1.280748981232196,26.052356400233787,-56.17504792312078,-48.29094690379672
5510,0.01666666753590107,-2.770160294383764,-2.7103724728971716,-0.6961138404294848,-7.505823373633623,5.6700698352307075,1.1779478013187645,24.44672236033636,-52.12907267014242,-49.809878522370006
5527,0.01666666753590107,-2.328187803761661,-2.613565126571059,-0.7939774178102612,-7.149235794830322,5.715107831352949,1.0931035722479223,25.22305702932564,-55.62110592105441,-52.65177338694516
5543,0.01666666753590107,-1.791054564976692,-2.256455569720268,-0.8728150999426841,-6.72890435039103,5.998074293628335,1.0378871503300964,32.84018132191953,-71.85561180452846,-57.4549502415003
5560,0.01666666753590107,-1.8777187029510736,-1.2963064697176216,-0.7220622284173965,-6.903681071582436,6.898742446136474,1.2147595286265014,42.374131610733095,-91.77436270744242,-62.605602724796086
5577,0.01666666753590107,-2.3706682243555783,-0.5045148715138436,-0.4664952297210693,-7.479486570850014,7.630619966125487,1.5058043756783008,51.96970386623852,-115.45724452232874,-64.26766778761616
5593,0.01666666753590107,-3.743269998246431,0.5668716667056083,-0.29371406626105306,-8.948179651752113,8.619575473895669,1.7637793122991918,51.60344521728034,-143.61090179052778,-70.08357386588202
5610,0.01666666753590107,-5.148877969682216,1.2995967434346676,-0.7403031107679009,-10.429142431640624,9.275735197338461,1.4208090476989745,43.86078034019432,-153.06098760161734,-81.2327033839581
5627,0.01666666753590107,-5.494721451631188,1.5427712935477493,-1.1610222393505274,-10.871021691021323,9.41609526966512,1.1360486877441405,28.569588467896136,-149.5212284038799,-97.58665561563734
5643,0.01666666753590107,-5.534167911356687,1.8244354410529136,-2.241148110473156,-11.089943258887528,9.504532262530923,0.2727893516540527,7.324588997989539,-123.966389812979,-120.22467558186263
5660,0.01666666753590107,-4.680476029556989,2.590562436646223,-2.993364069613814,-10.410737006378174,10.086322096905112,-0.3197746824517846,-0.10528200329003104,-101.29962158053713,-131.05865334144514
5677,0.01666666753590107,-3.8509681564211844,3.046518736696243,-3.4745839902579783,-9.770139009204506,10.341305158233641,-0.660350160869956,3.122288217269337,-85.99535331107298,-132.09501160458953
5693,0.01666666753590107,-2.296148697683215,3.5859962005198,-3.9451656125098467,-8.452728376659751,10.620378704723715,-0.9813225286737084,18.61260187510137,-81.46174011739613,-123.58698646496313
5710,0.01666666753590107,-1.2945949896246194,3.68547539640367,-4.04130981875211,-7.602039768329262,10.546009400177,-0.9885051336541771,34.12879896167999,-86.89238254533825,-115.45042799353708
5727,0.01666666753590107,-0.8625491419941186,3.593920563778281,-3.99914124058634,-7.294533908081054,10.300303870281576,-0.8647551276057958,46.35845416116833,-98.72668249000417,-110.13927289493516
5743,0.01666666753590107,-0.2779045027107,3.2047529038876292,-3.9634187698200343,-6.840085089984536,9.721355981335043,-0.7012009344354272,54.04356103411865,-118.40081016779412,-108.65725844882579
5760,0.01666666753590107,0.070305123847723,2.5201608666867017,-3.9597386200025677,-6.566697187915444,8.895206770977378,-0.5716156463623047,54.05558558215247,-133.06126480609288,-109.9806417514616
5777,0.01666666753590107,0.21282500455677508,2.454472881245613,-4.046629844731092,-6.47990737773478,8.686313845172524,-0.505175965771079,55.078638636793656,-144.98360588916026,-110.50845144976351
5793,0.01666666753590107,0.3627057694226503,2.453963178157806,-4.228679771795869,-6.371869027820229,8.50360516193807,-0.45804012058675286,63.41040391469869,-159.34798548731732,-109.33932113934326
5810,0.01666666753590107,0.5380939005106687,2.610696293136477,-4.586012908269464,-6.200383749389648,8.538321086010336,-0.6329664793819189,72.59835389563233,-168.72116336835253,-107.02215214265975
5827,0.01666666753590107,0.48973465101122854,2.7705606918781993,-4.744569731543958,-6.228066706085205,8.59413532769084,-0.6060322952270507,81.53767816058834,-177.16058608795532,-104.44488271219299
5843,0.01666666753590107,0.21114859577715395,3.128877286431193,-4.8305923567444085,-6.442199286109209,8.838794563403725,-0.437388669963181,85.105085964086,-187.0827882348545,-100.44133317924417
5860,0.01666666753590107,-0.26943711861670017,3.3450328967154026,-4.979369544282555,-6.846219647216796,8.982595131573081,-0.3821738554805517,81.96298037982669,-193.16985282316986,-97.10292112804953
5877,0.01666666753590107,-0.6426900010168553,3.5320278789669275,-5.211247624355554,-7.11826197989583,9.10365253753662,-0.39519115796387194,74.1622281589443,-197.5460096659104,-93.26434115412403
5893,0.01666666753590107,-1.248252340644598,3.7485663510888814,-5.7708682970196,-7.558046897345781,9.233388924518227,-0.6450859562426805,61.084826955146895,-197.48326754819465,-91.33455316640696
5910,0.01666666753590107,-1.8951222576946019,3.8699621952265497,-6.469672399446368,-8.06890967658162,9.281123320117592,-1.1055202784895897,52.99282180767682,-194.11280141922515,-95.22832106882616
5927,0.01666666753590107,-2.294253677716851,3.9708781459152696,-6.887316212236881,-8.332422081324458,9.299229470172524,-1.2909206850260495,49.46027187460832,-187.17328824135717,-100.359329928069
5943,0.01666666753590107,-2.7426076860696074,4.045052804672718,-7.550739789202809,-8.61149562781453,9.261521378546952,-1.6757903554618359,55.35942771357288,-173.17510240536117,-107.20324777831347
5961,0.01666666753590107,-2.9131548068672415,4.335162124440074,-8.035053584209084,-8.668357332721351,9.479840888866782,-1.9868869336783885,66.42914262216922,-164.26404146319067,-112.32864222205855
5977,0.01666666753590107,-2.964022239795327,4.464354321542382,-8.289176229315995,-8.616433084216714,9.554660859790443,-2.0997136869132516,79.42988861291157,-157.82033171717393,-118.41471643294426
5993,0.01666666753590107,-2.7570091363877056,4.61111607760489,-8.51912421810925,-8.289625142127274,9.648483052825927,-2.1799188580065962,90.78374622116962,-153.84342675217732,-129.21521260521538
6010,0.01666666753590107,-2.3361481151163574,4.7456052120715375,-8.42406225414574,-7.7886372756958,9.747692199596763,-1.9882330875903367,95.16932872496477,-155.9497751299392,-138.45339862749447
6027,0.01666666753590107,-2.167955448490381,4.765099601614475,-8.43072346560061,-7.542034504699706,9.731980251201987,-1.9023422720760106,97.849624728872,-156.89878893397747,-144.09583156122034
6043,0.01666666753590107,-1.989901897585392,4.962785489228367,-8.270134844237566,-7.267149642071128,9.890595526665448,-1.634041464012861,101.36147577366077,-149.72786894702946,-145.9774667152888
6060,0.01666666753590107,-1.7178724243879318,5.078460033109784,-8.148103040283917,-6.935253436931967,9.988308881920576,-1.4516343940734862,106.6289176615746,-136.07259958850312,-145.54150940094524
6077,0.01666666753590107,-1.5214081875234842,5.087541165187955,-7.940663820418715,-6.700773065406084,9.993099038806557,-1.2116133395552635,112.56998012619178,-120.47407310921646,-144.87728716453984
6093,0.01666666753590107,-1.045225676524639,5.080907426261901,-7.403032861244678,-6.212804255023598,9.99803707973063,-0.6733674633532762,116.38966096668386,-100.36426132464975,-141.75139644937016
6110,0.01666666753590107,-0.5286275685071945,4.861058222156763,-6.611145401450991,-5.71331451819539,9.79348247539103,0.094124975374341,115.92396500869405,-86.80330321818295,-138.19932925074835
6127,0.01666666753590107,-0.3321346900701523,4.6996243821412325,-6.227753402352333,-5.552901837921143,9.64713689891398,0.43829087949991224,112.21736478010071,-73.3314585898173,-133.71051526783762
6143,0.01666666753590107,0.06992343105375766,4.4272769290357825,-5.62996812646687,-5.224297660064697,9.38497064808309,0.97025080730021,103.16123061995914,-59.96259272356795,-127.40526711667536
6160,0.01666666753590107,0.38916765989065166,4.17615931096375,-5.2141912765920155,-4.971110249981284,9.132232150810957,1.333719962310791,97.22001106099106,-52.31880849509621,-122.20339504479365
6177,0.01666666753590107,0.4189209931194782,4.171168663069605,-4.953469963872433,-5.012561035266518,9.120860861968994,1.540371831190586,92.81755798994598,-45.73397679554324,-116.78530650454601
6193,0.01666666753590107,0.34528760163187977,4.160229335904122,-4.524139220419526,-5.191678416010737,9.096471101599931,1.8903759399503468,88.49691009459013,-35.70075675387467,-112.1382848498903
6210,0.01666666753590107,0.35385201635956764,3.9026410605132575,-4.326368577131629,-5.2739785135567185,8.819790587726235,2.023403185170889,83.8722368188987,-28.412579494350467,-111.68232874165693
6227,0.01666666753590107,0.43746670363545415,3.8515366039589045,-4.12470267997086,-5.29268204498291,8.738386562237142,2.156577145385742,80.43244426985356,-21.7775476119452,-111.38757192802503
6243,0.01666666753590107,0.6767699652731418,3.707070265357196,-3.764874511811137,-5.200504696545004,8.541763043157756,2.420089550128579,78.15497233262616,-16.418548745754634,-109.9114451049802
6260,0.01666666753590107,0.9088742553174495,3.858611949172616,-3.4859506029248237,-5.080495922851562,8.651447991235553,2.623599029329419,78.66531723722035,-14.448913434419719,-106.63522875636771
6277,0.01666666753590107,1.2364531817793845,3.7619212149634955,-3.3733354466140266,-4.861725746154785,8.513781395776569,2.660108851081133,78.4495857122855,-13.446914437895094,-103.45492875426969
6293,0.01666666753590107,1.6388398042052983,3.74715122359395,-3.0908529684633015,-4.602254725757241,8.444948974829911,2.8378794933915135,76.38158884671323,-6.9297434460339185,-96.22091830995826
6310,0.01666666753590107,1.9338000711351633,3.738240187385678,-2.6728327235758305,-4.415506996265053,8.399907179315388,3.1688767038643357,73.06641992926413,0.796982010685113,-88.01624236193966
6327,0.01666666753590107,2.1918881127417085,3.680802143895626,-2.4852742622226476,-4.265869392505288,8.310274839185178,3.262401375257969,67.08020991423318,9.460657236377449,-77.07446372668683
6343,0.01666666753590107,2.473387425073981,3.5807431022971867,-2.1487205866664647,-4.12401294414103,8.17829418040812,3.464412724855542,59.493146991723805,18.755159875910582,-61.144290582061025
6359,0.01666666753590107,2.5705922462850808,3.6195147315010425,-1.8382126219928263,-4.125208291405439,8.204180024553835,3.6679169433593746,54.561262052448946,25.449633187115182,-48.802920808507956
6377,0.01666666753590107,2.610723181143403,3.6285511476546524,-1.5764198806494474,-4.177433568683266,8.211963225775957,3.816509421980381,50.509737270769946,30.82423732801193,-37.898646741987655
6393,0.01666666753590107,2.7295038743466136,3.602812895286083,-1.2329250076532363,-4.1668092988163234,8.202385542352497,4.006847869440913,47.604420684656645,31.55262236148043,-24.148519716268186
6410,0.01666666753590107,2.791099037516117,3.4316996650382876,-1.0635054295808075,-4.169800881847739,8.061725610296428,4.062812333247066,48.00980607227524,29.50355536519285,-13.249451107669087
6426,0.01666666753590107,2.8996669642627237,3.1504137031957504,-0.9779735105067491,-4.115333378601074,7.857320935821533,4.0025072098881,52.76108714951663,23.000274416782542,4.890561867909462
6443,0.01666666753590107,2.9564029969632624,2.9811992923066017,-0.9139020203515886,-4.068945136913657,7.7822025664731855,3.9610575936466454,60.57318431461041,15.619064858120888,18.112949631652842
6460,0.01666666753590107,2.862316600033641,2.7651889357119797,-0.8618746037334203,-4.1487025642395015,7.69286979381144,3.9061420543715357,73.94312252055946,7.816057821038745,27.704136905711113
6477,0.01666666753590107,2.690105345416069,2.664269477891922,-0.7293181908950209,-4.28472197701335,7.750179827007651,3.9242476199045777,91.66186266162313,-1.02711872474464,33.92608577730318
6493,0.01666666753590107,2.308700136220455,2.8436703517526385,-0.3035772886276245,-4.5886377038151025,8.182483448791503,4.1790813358902925,114.97411792157706,-14.355959682457723,38.65402126796146
6510,0.01666666753590107,1.8920254607230425,3.4504748003959653,0.15274579890817402,-4.923974404796958,9.00204860458374,4.499304638892412,127.85133311099057,-27.458383284279467,41.94714574986433
6528,0.01666666753590107,1.5333838719993829,4.187048369246721,0.9343635013610124,-5.141698871833086,10.041133294135332,5.098903393940628,140.94796129730156,-46.528973248892285,45.922028978866614
6543,0.01666666753590107,1.2419985409468413,4.483508519345522,1.2927408861905336,-5.299865234485268,10.575937505450844,5.324706538014113,149.60797180633907,-62.45432086486947,50.710220398382745
6560,0.01666666753590107,0.7490496040642262,4.96710744408071,1.9456769714117048,-5.633257815662026,11.310059589496253,5.8448468486830585,158.84408145111047,-77.50015526670788,57.21250926181611
6577,0.01666666753590107,0.23608956028819084,4.76137970430851,2.5013451070576904,-5.8924301453739405,11.457153938513994,6.213254921400547,170.05753086060056,-92.26604070503495,65.8662599024793
6593,0.01666666753590107,-0.06411152990460395,4.236663171765208,2.812951096101105,-5.983560030585527,11.20381689082682,6.361095412610471,178.97913761484955,-94.5335473962633,68.63181715779581
6610,0.01666666753590107,-0.31150983519256115,3.3145454039931295,3.237531137895584,-6.02051934967041,10.550798972541093,6.586299714007973,187.4909740000328,-91.29328516344174,68.13585663159367
6627,0.01666666753590107,-0.5466834496796131,2.1922388258755205,3.4885599086403847,-5.984157411956787,9.770438284412025,6.517616638404131,189.36852470097762,-83.89315085813728,66.28678781948781
6643,0.01666666753590107,-0.6628741263896226,1.6975491828054188,3.685207100856304,-5.911283898925781,9.50602805404663,6.451477986586093,180.8318537479722,-74.25482503352217,62.274550285914735
6660,0.01666666753590107,-0.7138894433557986,0.9024994595885276,3.869553614425659,-5.737555225482582,8.973318769183754,6.276849587824195,164.2169814598093,-60.32151233426295,58.20002142711114
6677,0.01666666753590107,-0.5971455166772007,0.39860067414641376,3.92410353525877,-5.464166738891601,8.63753198634684,6.0694512844912705,149.65531867766558,-54.06900007368237,58.587259002105014
6693,0.01666666753590107,-0.653835664409399,0.2251198379844427,4.139025219833851,-5.3630120110109445,8.614189104682207,6.041021893342584,133.18756866422476,-50.87356778747819,62.44749750588863
6710,0.01666666753590107,-0.8189198436260223,-0.07992050893306732,4.024718457174301,-5.304054502868652,8.489540980750322,5.6428353529550135,112.31974248557002,-48.447733896194364,70.35878267810934
6727,0.01666666753590107,-0.9020116760715842,-0.5354337413907051,3.6624271137714386,-5.2079871612548825,8.15869223883748,5.091120923370868,102.34397116501043,-47.303533776244656,74.4948856922806
6743,0.01666666753590107,-1.0360276400685309,-0.8925017971873282,3.5141140366137025,-5.156213134875894,7.917776281306147,4.768502980317175,95.17513438575928,-49.526097822734314,74.58497588743307
6760,0.01666666753590107,-1.3206675885140895,-1.5067074619978666,3.0889503497123716,-5.202301224572956,7.438935364753007,4.127604027435556,88.85641710155376,-52.364198517225525,68.86973996734403
6776,0.01666666753590107,-1.6105141656920312,-2.177178034865856,2.8626141216754912,-5.327846881866455,6.854600522071123,3.7451303852908313,87.27708612015006,-52.37735004647239,62.6777568431881
6793,0.01666666753590107,-1.7811314291164277,-2.465293550467491,2.926969981729984,-5.3467012199401855,6.641217299109697,3.654001815253496,85.77641842741738,-55.0844135617369,57.59910821412259
6810,0.01666666753590107,-1.8690619337648153,-2.9386615885674954,2.8324504540801048,-5.246444025421142,6.2529088863968845,3.3604123982854186,81.96482453090259,-61.052233292427594,53.82952681119255
6827,0.01666666753590107,-1.9217703183844685,-3.339940542012453,2.8858664024472236,-5.1663876151487225,5.906045998272299,3.2790096514379603,74.86391398294722,-66.83597600989187,51.13710039131938
6843,0.01666666753590107,-2.102275061833858,-3.5321839463114735,2.988236059075594,-5.220855410656332,5.761048329272866,3.2722764707254246,61.97011509422893,-72.16835933643418,48.026294148931655
6860,0.01666666753590107,-2.435858197146654,-3.9619606799662113,2.886233482193947,-5.406406623840332,5.381867810389399,3.084031543211732,39.008480765128446,-75.71042030792192,39.096545809192
6877,0.01666666753590107,-2.708676774895191,-4.291875355899334,2.6273417229890823,-5.593304283197224,5.079150353461504,2.80959621444894,21.118588036295293,-75.3917510020058,28.451863327361796
6893,0.01666666753590107,-2.881705191114545,-4.419723152655362,2.3892916762828826,-5.708076325280964,4.968568164283037,2.594267666106019,6.330390931270714,-73.00839064207571,16.33857576831025
6910,0.01666666753590107,-3.1047566983923316,-4.40008964690268,1.9621324316501616,-5.896469483892619,4.996699449267983,2.239775963603426,-9.10990994702437,-64.50265361582127,1.6924036958962116
6927,0.01666666753590107,-3.161459121084213,-4.203073036852479,1.5216250451445579,-5.955725682720542,5.19033050853312,1.8772044332860036,-18.362941385464477,-55.84222305014981,-7.086900549307211
6943,0.01666666753590107,-3.222472977234423,-4.011469684022665,1.3828677318394182,-6.036081660461425,5.372140197101235,1.8321639894783497,-27.847186680140567,-46.51462302144609,-12.237144501913265
6961,0.01666666753590107,-3.4878736799418926,-3.5482834327191113,1.099277584707737,-6.340444546508789,5.815067504230141,1.7000340949563308,-41.610625744552394,-31.638266103483218,-15.695380269264733
6976,0.01666666753590107,-3.6814410263210533,-3.2710423623532057,0.865189427369833,-6.570886456298828,6.0712470818668605,1.602171065564826,-54.69767800564702,-19.779990487283268,-18.113639480759012
6993,0.01666666753590107,-3.7526986285880204,-3.1286428931534287,0.5214847110152244,-6.6893994384765625,6.1848226076424115,1.4190142001714556,-68.722016635975,-6.292796289418495,-23.42871340039722
7010,0.01666666753590107,-3.8080291784048077,-2.879989034846425,-0.022431612038612363,-6.836642548315226,6.376507793536782,1.1243786351513116,-86.39876477402143,10.885734371791944,-32.92133762963763
7027,0.01666666753590107,-4.1012329570561645,-2.371791090905666,-0.5178584833420813,-7.2280945197507736,6.82437255706787,0.8325834811888635,-94.1490487271266,26.497990385083977,-43.951816516546835
7043,0.01666666753590107,-4.428921481372416,-1.6586065809488295,-0.5939328382410108,-7.688828409466147,7.4594345474243156,0.9567831307008862,-96.53030538879234,42.58295439932248,-54.93787185309428
7060,0.01666666753590107,-5.735782955113053,0.03246259218752384,-0.6728539608731865,-9.209894651684165,9.02823460071981,1.1095640009224415,-86.12759943378276,58.22138625883494,-61.455398868565936
7077,0.01666666753590107,-6.804291307547688,1.388480311024189,-0.7646481552124023,-10.455628287506103,10.286239104571939,1.1505641198307275,-77.6116649350975,64.79300495743851,-64.38402006012733
7093,0.01666666753590107,-6.994978714576363,1.6383488058179616,-1.0779777531780301,-10.83690460962504,10.4310877204895,0.946308644568175,-76.96774202090538,75.93298885221596,-70.84783105287143
7110,0.01666666753590107,-7.06566962287128,1.7708090648055075,-1.4310194760680197,-11.215787314605713,10.39338021338582,0.7133224571228027,-87.16135539485336,106.84734028104245,-89.99256442847202
7126,0.01666666753590107,-6.417133818435668,1.6667764434009789,-1.8471033460654318,-10.856806703186034,10.126276506152749,0.36571488811075686,-95.81843575273693,136.57179079418268,-106.560636260442
7143,0.01666666753590107,-5.598656457880139,1.8579922582179307,-1.8819582402169703,-10.370634128570556,10.126126868548988,0.3622738077461719,-96.41459515406315,161.18070282655017,-116.92554394858472
7160,0.01666666753590107,-3.8084161318957803,2.1042951694846153,-1.8830634249798952,-9.050530019158124,10.093056373596191,0.3238165051884949,-82.08481046405221,169.9177578694254,-119.7275744140691
7178,0.01666666753590107,-2.250467727482319,2.201553182187676,-1.8232899242796003,-7.82769210575521,9.983072734832763,0.30107261233031746,-63.83174462421844,157.929368857084,-113.27729402607079
7193,0.01666666753590107,-1.509985460755229,2.3339736936867235,-1.713619735379517,-7.387757550701498,9.9215716796875,0.2989759323120117,-44.289845993665345,134.41470777126594,-106.3777784359824
7210,0.01666666753590107,-0.9021849868118762,2.3600860400646924,-1.6625079723015426,-7.1293334090083835,9.705943308147788,0.18989070369303226,-22.900116522793475,98.67146724075378,-101.9134916623812
7227,0.01666666753590107,-1.04192312784791,2.4930326212644576,-1.6501595089904963,-7.505821035546064,9.660453476604818,0.08664075709879397,-9.407594350489266,75.72151936532319,-101.56194182580064
7242,0.01666666753590107,-1.0756547170579434,2.8173323799252508,-1.562211760946363,-7.760505990710854,9.80620167171061,0.062249827685952185,6.760435009340349,56.204649962983616,-102.37367565771082
7260,0.01666666753590107,-1.2494167082488536,3.4640018059670923,-1.2497288429379463,-8.212561191669106,10.211420887213945,0.21907003642618655,30.763756002911467,31.45354705247481,-103.9367507888899
7277,0.01666666753590107,-1.097330542293191,3.7876895702093836,-0.9785201846040785,-8.253261450847983,10.354771958050131,0.3766381409242749,45.723670040085686,17.549313883606928,-104.5917932510508
7293,0.01666666753590107,-0.8675327756255865,3.9310622683554883,-0.7672352490961551,-8.20298380050659,10.319009739795327,0.4800387480355799,54.0119133525994,6.63079844578033,-102.09675929819099
7310,0.01666666753590107,-0.17235855413377285,3.862885973230004,-0.556501079338789,-7.724293106079101,10.01719069301188,0.5674263779789209,57.50958492467123,-6.627522943186486,-94.74866420417285
7327,0.01666666753590107,0.5776894133180379,3.2531367033064362,-0.5111807591438293,-7.116166468921303,9.241918852454424,0.5421380613349378,58.27026992272472,-15.757435952968885,-87.24609755188571
7343,0.01666666753590107,0.9539069907426834,2.922234769901633,-0.5560943251688033,-6.863876884460449,8.756942209625244,0.4483155029732734,59.541436429155794,-25.233934105578886,-80.51673563440069
7360,0.01666666753590107,1.5020967533320189,2.1771102303266523,-0.6279881064474583,-6.460155214038491,7.819912703925371,0.3372838164616376,66.24263064650368,-36.92330255869901,-74.68314619637366
7377,0.01666666753590107,1.7789064465433357,1.5416209544688462,-0.629478637266159,-6.280590089526772,7.0477820840030905,0.31768165569528933,74.9557800272839,-44.43878851380123,-72.70325194090539
7393,0.01666666753590107,1.9950544580429792,1.3785954613476992,-0.6343278308629989,-6.156241240802407,6.750452165332436,0.2983792815931141,85.40274560811515,-48.94839359254547,-72.64029808732538
7410,0.01666666753590107,2.262832703536749,1.1195955655932426,-0.4338438369631767,-6.0064539994388815,6.312014570838213,0.47614787807688114,97.27767834815347,-53.06112369937695,-73.01799388804875
7427,0.01666666753590107,2.5054478662014006,0.9694453361362219,-0.18192198983617125,-5.849482984051108,6.025906303405761,0.7112287727791815,101.04937027953704,-54.700748175678946,-72.86958070757353
7443,0.01666666753590107,2.7011890494883057,0.9829828631013631,-0.09882036664895713,-5.7354614680737255,5.903653550177812,0.7845511986214667,100.74532440863393,-56.07265655727312,-71.68689247165081
7460,0.01666666753590107,3.064256637960672,1.0748965921670197,0.2134440863031894,-5.475690587946772,5.814469538336992,1.0944511143993585,93.41524052345711,-54.508164161841265,-70.29315822056385
7477,0.01666666753590107,3.210348531937599,1.3047577794596552,0.31153738078661264,-5.402517215186357,5.908142678290605,1.2047332246527076,83.11782876469245,-53.196931765738896,-67.65770923874693
7493,0.01666666753590107,3.2514918587088584,1.4807619966194032,0.39356903665475546,-5.427355303844809,5.95333235784322,1.3123231001473963,69.04530997995921,-49.77911535034827,-62.974542223003496
7510,0.01666666753590107,3.5649417220532893,1.5577783085435628,0.40250411132574077,-5.193772173419594,5.861904074206948,1.3667906033940613,46.935096296941246,-40.371844580070935,-55.54509616087592
7527,0.01666666753590107,3.9040608641833066,1.5162456901937722,0.23726225732937453,-4.906918056055903,5.703737711554766,1.2382528516124933,31.964940391106587,-31.78849611427765,-48.94900830957077
7544,0.01666666753590107,4.095302982485294,1.6027762649163604,0.109866588255018,-4.758475215038657,5.690418795776367,1.145326219177246,21.709030569286217,-23.08885684767573,-42.874098042883446
7560,0.01666666753590107,4.3256741651266815,1.9452718977421521,0.02000935332775116,-4.575918507495523,5.919514843915403,1.0865200291391461,16.68780163302571,-14.438555452543394,-33.82528584553213
7576,0.01666666753590107,4.259600395238399,2.5267507664710283,0.1396400874890387,-4.669592231971025,6.435615231543779,1.2170046041395515,16.71990522967206,-10.750461621506194,-25.511460059482136
7594,0.01666666753590107,4.246857818043232,2.763748381514847,0.12936981869153677,-4.700566046905517,6.628197950799763,1.215656988922879,16.37985401655922,-11.824274934511626,-16.36411555316422
7610,0.01666666753590107,4.2329292459338905,3.0805297273695467,0.17200506452098488,-4.725557280299067,6.913707667817175,1.2777562291570006,14.977312236537538,-14.11051341953873,-8.565663398484828
7627,0.01666666753590107,3.9910634403318164,3.61090297050029,0.3416739411793649,-4.970810974773764,7.4305544898986815,1.4665987389713524,12.640071875204303,-13.898990998679897,-6.3600079121723585
7643,0.01666666753590107,3.8155806166976687,4.04161640048325,0.4940308138351887,-5.147832844543457,7.851784929004311,1.6386821294255554,8.172517709858894,-11.53631842797212,-4.043282450898081
7660,0.01666666753590107,3.44459158757627,4.9319098739713425,0.7968740160346031,-5.51549302150309,8.742128671374916,1.9671367427434772,-1.0524150773877228,-8.481658048109196,4.751897928700802
7677,0.01666666753590107,3.352786579582095,5.273551812577248,0.8100619989097118,-5.594651313892006,9.10679521947652,2.0017036867991087,-8.880143237118787,-5.4228666844588815,16.780707573663516
7694,0.01666666753590107,3.4901942318439483,5.146911638045311,0.7365232999682426,-5.43304211730957,9.03003171326965,1.9479832025274633,-17.089216973189234,0.14902867123287514,29.653549734460913
7710,0.01666666753590107,3.7283342949211593,4.891662034735083,0.60728799437657,-5.144392933222651,8.885033167487382,1.8312664561167358,-27.675012979090177,12.091196165954786,48.047402848561575
7727,0.01666666753590107,3.8743957937598226,4.5671977331623435,0.4171919773697853,-4.944924838367104,8.67853298203796,1.6365874952338635,-34.61253686436239,20.129489559565528,63.00859754620518
7743,0.01666666753590107,3.9036148739814758,4.2443207007810475,0.2291853338576853,-4.8163873057812445,8.567203189362585,1.4311351383369415,-38.76523723821678,25.92856434416918,86.48880032766054
7760,0.01666666753590107,3.78939345151782,4.090645512068272,0.2019827080249786,-4.828057869830728,8.61837837306559,1.389236901545152,-34.77138315879479,24.313537086615696,105.0162416966429
7777,0.01666666753590107,3.1306016260057685,4.379781895150244,0.31972777457013724,-5.354334491297602,9.153782303839922,1.4966768471751362,-25.08947048199124,16.506149336954635,123.97192226620672
7793,0.01666666753590107,2.1050316670656204,4.383479872885347,0.29863939383402466,-6.150556180903315,9.54388753684163,1.4758777317091822,-5.991570005982123,2.6061831153273065,143.60300609184725
7810,0.01666666753590107,1.637881772828102,4.069773404431343,0.4084663807310164,-6.412870315772294,9.54418739657104,1.5860105696849525,10.00805847853989,-5.803553254265066,149.48001504242805
7827,0.01666666753590107,0.7595733361661434,3.943474590682983,0.48624037915468216,-7.067683885303139,9.733777071490882,1.6596319784738123,22.60110620885595,-13.32691484436714,149.43581005811973
7844,0.01666666753590107,-0.03298983093202114,3.6011411626815795,0.8250164069354534,-7.551162983050942,9.790788998523354,1.980754203077033,31.05667891075122,-16.89676614804037,140.2379494727004
7860,0.01666666753590107,-0.42552024525403975,3.27873583946526,0.8427825113810599,-7.7138190583378075,9.740660985785722,1.9806050769299268,28.813661862791957,-16.388123668096814,132.2298531991839
7876,0.01666666753590107,-0.7574544443160295,3.0567122139304876,1.0008861840605736,-7.817816608428955,9.769240599060058,2.1250050722971556,22.51665091976874,-16.669631622286182,127.90716307726625
7893,0.01666666753590107,-1.0481775120675563,2.6843466357588768,1.0820645841002463,-7.794622779846191,9.712678753882646,2.20386394334808,14.028636526863203,-17.81388638374925,130.50173337690066
7910,0.01666666753590107,-1.2789403243750332,2.332945519682765,1.0430594384014606,-7.7705311256408685,9.59566156322062,2.175581924780831,8.818452968535231,-18.423129012430632,137.74077767063037
7927,0.01666666753590107,-1.66274616497159,1.6906898184299468,0.7955857297897339,-7.876624186706542,9.190143657031655,1.9428965469129382,6.1469166822385395,-15.555036957293897,144.9868980403402
7943,0.01666666753590107,-2.3210849860191343,0.8968734364002943,0.604808306390047,-8.136095207104086,8.70860984813273,1.7592898188602177,6.452293586256163,-6.323990190244766,149.68617747233571
7960,0.01666666753590107,-2.8130320523828267,0.33149405407905574,0.5313948412634432,-8.319402440753578,8.365193301069736,1.6759421119574456,4.697026323343035,4.194567299032455,148.04467810910654
7977,0.01666666753590107,-3.193153651508689,-0.7478560103654861,0.3951905734419823,-8.396465222167969,7.4881655518680805,1.519421178424731,-0.728831290281225,18.616534356516006,139.36614412703995
7993,0.01666666753590107,-3.28602833456099,-1.835607992452383,0.3556792317867279,-8.12113203125,6.6261039011299605,1.4472964379344135,-11.808329004120585,38.14380955205609,121.39517876030605
8010,0.01666666753590107,-3.3306369993552565,-2.2840753980517388,0.26555998492240906,-7.921665397699177,6.314707463183999,1.3397067816354333,-20.439928487531777,48.30651973510435,108.92703043047378
8027,0.01666666753590107,-3.255727888843417,-2.613493230378628,0.2343490002311766,-7.554604355676472,6.136041333338618,1.3000532550305128,-26.91388743383522,55.93449890583668,100.13607836485797
8043,0.01666666753590107,-3.1688284808084366,-2.5605945838838813,0.30823242095708847,-7.253832479858398,6.290466755896806,1.3768157383240758,-29.313003332633247,55.98704696621618,100.1036349663004
8060,0.01666666753590107,-3.2839936138629913,-2.6178578553289173,0.26995200933627783,-7.151779634094238,6.328623760333657,1.3521262643560767,-31.106365121868475,53.086839361602046,99.58355704213895
8077,0.01666666753590107,-3.5049884808719156,-2.766242244157195,0.29558453630805015,-7.086986843927204,6.293907836261392,1.415123987799883,-36.546344418406,50.81244783969033,94.23997220535782
8093,0.01666666753590107,-3.8446439218357202,-2.9255542697131633,0.15956497740373016,-7.22704676426351,6.204722070854902,1.3290813427247106,-44.105304527575356,48.798822695005946,86.26813740614494
8110,0.01666666753590107,-4.178074789196253,-2.912128386428952,0.04588979064598679,-7.378630825915932,6.273858150923251,1.2886805048838257,-51.41613752457649,47.48953007262786,79.13675738430214
8127,0.01666666753590107,-4.785305354297161,-2.7510692249447106,-0.11821604505777358,-7.762151127569377,6.491878970557451,1.2517204551465808,-57.83850634453154,44.06921039290643,74.22965578643067
8143,0.01666666753590107,-5.245188472402096,-2.6360563598424194,-0.36927184993997214,-8.062474090576172,6.63986939163208,1.110761247882992,-59.76937350213746,41.66003191791368,71.13606503584596
8160,0.01666666753590107,-5.576410139280557,-2.514865682888031,-0.5524104490242898,-8.240842698779701,6.786964909693598,1.0435744021862745,-58.461160049648235,36.37050119822403,68.40335416024804
8177,0.01666666753590107,-6.28717706670165,-2.3160189348012206,-0.9839772809661924,-8.7554455413267,7.013513903698325,0.7589633875742554,-49.04152322187859,28.513978775221183,63.75433809035468
8193,0.01666666753590107,-6.821956143575906,-2.1833155147075654,-1.2586753888510167,-9.153182730511576,7.163902033564448,0.5758072528332472,-38.747745123752374,22.347596907621753,58.44020502927464
8210,0.01666666753590107,-7.093504555258154,-2.221979884144664,-1.4076282252170145,-9.297732363482565,7.142651740264892,0.49380540758147834,-25.131303683110275,16.425614576451014,53.28753422507911
8227,0.01666666753590107,-7.47306092171669,-2.546947751325369,-1.638150360636413,-9.530269930377601,6.8432292332291595,0.30167116274535655,-3.519202676213237,9.099189111348387,40.34701001224877
8243,0.01666666753590107,-7.621528312653303,-3.0296453433066604,-1.5985519252195954,-9.604937925609946,6.380097926983237,0.32321868542581794,14.158696989038585,9.810922997394043,22.981026943701444
8260,0.01666666753590107,-7.663513350945711,-3.1915310187429187,-1.4479345166422426,-9.622744800457358,6.235548586273193,0.4127015340827405,30.278836477502658,14.814166338022613,0.96435163414975
8277,0.01666666753590107,-7.648359036433696,-2.925090743854642,-0.9082416565023362,-9.668534491729735,6.517019257032871,0.8052015532664955,50.495585118809686,22.117521985429875,-29.469629815585396
8293,0.01666666753590107,-7.74096893106997,-2.027660842615366,0.0276104759812355,-9.86441011505127,7.417686240497231,1.5918454133182762,59.19139606438181,22.705794225812024,-44.68293021058875
8310,0.01666666753590107,-7.648453728979826,-1.6049837118327617,0.45119010856151576,-9.899275092205405,7.835774289923906,1.857003977832943,58.476084012984714,17.257885079648116,-51.647660446872415
8327,0.01666666753590107,-7.503886268091201,-1.1807839015275239,1.0826770169101654,-9.94057565536499,8.237998999786376,2.315343227496743,36.37510474572461,11.595435422785874,-57.135433992127105
8344,0.01666666753590107,-7.225474984902143,-1.139348898333311,1.2097777946911752,-9.815328396496176,8.246827618408203,2.3771436309147624,10.228822145345749,11.67523764550101,-65.45978168459351
8360,0.01666666753590107,-7.006762675872444,-1.1045061330109833,1.1006066413544118,-9.77806892542094,8.230217844390868,2.2638684032600374,-12.597544556110865,13.575144409372912,-80.90146652996916
8377,0.01666666753590107,-6.906406697154044,-0.5918915416717528,0.766627346330881,-9.989806427001952,8.63813053676188,1.9789588440928607,-25.57051558259336,20.106280576765826,-107.9917794576131
8393,0.01666666753590107,-6.761954971599579,0.6440531060636043,0.6251869314216078,-10.137049829101562,9.765349436840415,1.8825917158149181,-25.922596466381883,22.279469185745462,-129.3911172970999
8410,0.01666666753590107,-6.232790811997652,1.488288008210063,0.5697216493092477,-9.945812386974692,10.472536752209066,1.8608948477916418,-17.827866073432972,18.24471251847885,-149.6522450925391
8427,0.01666666753590107,-4.8767947204709055,2.7337673770099875,0.5321230094075202,-9.095871674402058,11.49097145244181,1.8287229091137647,4.480109333700362,7.041241161592499,-173.64820228841128
8443,0.01666666753590107,-3.1260499540507793,3.416642088899016,0.7219101065956056,-7.7582602576106785,11.967865911102294,1.9827000033825635,25.368876445463535,-3.4235034016483072,-189.945648365087
8459,0.01666666753590107,-2.099202230259776,3.8271974047333,0.967804729322344,-7.165397240558266,12.138304895350336,2.1634618633981795,42.73394939130395,-14.064821161538637,-205.33544426333808
8477,0.01666666753590107,-0.6896972513854503,4.720495320734382,1.5717068806529044,-6.35914866245687,12.64722063217163,2.6647466669496147,53.294152678384854,-26.228961186508222,-218.892591124248
8493,0.01666666753590107,0.37810499860644337,5.146301397192478,1.9913962277963757,-5.7348617486149065,12.744786687910556,3.0234295375317335,45.827297670173124,-27.483035144541336,-222.903619714338
8510,0.01666666753590107,1.1713958954572676,5.279875170379877,2.0572867500722407,-5.3672009871333834,12.51957975616455,3.059192778699845,24.12957106396328,-18.62921460271013,-222.26733295163794
8527,0.01666666753590107,2.3180472257584332,5.400748451948165,2.05831799281612,-4.750695228686928,12.12349018805623,3.0623350222483277,-16.94408399106293,9.510100122005525,-213.033490929671
8543,0.01666666753590107,3.0815368585854768,5.643925924670696,2.0376829088054595,-4.34816890552938,11.963526420593261,3.0538054596383124,-48.80383263876215,37.207779937630036,-202.370035672907
8560,0.01666666753590107,3.3078900377571583,6.297818287703395,2.0803392704881727,-4.446483149287104,12.215517314368485,3.0907652901798484,-72.37658448347119,66.5660605942713,-184.77884248440412
8577,0.01666666753590107,3.5410593266844748,7.354305947476625,2.1146904529012738,-4.576368589350581,12.77456340201497,3.0626348089125006,-93.59919800837307,96.31243601464728,-153.69387293011073
8595,0.01666666753590107,4.372926330167055,7.470442263650893,1.812961276358366,-3.9630040515393015,12.56372401831746,2.673875364496559,-102.85402237147031,109.55976549480542,-128.454452475081
8610,0.01666666753590107,4.976876558423042,7.408356102094054,1.7368085955262182,-3.533692012786865,12.222998317773639,2.485032854682207,-107.02323131254862,115.08464404272621,-105.01917184779684
8627,0.01666666753590107,5.988068447920679,6.72713266454339,1.373183373171091,-2.70036078197062,11.238383469556272,1.9478332361301407,-101.88749596240014,113.54339136594533,-82.42311656383211
8643,0.01666666753590107,6.400871250420808,6.185028359347582,1.1828946100711821,-2.390010638207197,10.509647754724323,1.6169849691413343,-89.16812644470563,105.92818123386633,-70.31886022241062
8660,0.01666666753590107,6.517867398294806,6.010341070005297,1.1852139929294585,-2.354997192493081,10.17655474101603,1.4773728656377643,-70.81460218255931,93.60746936745795,-60.1823335695456
8677,0.01666666753590107,6.465376748079061,5.546940883690119,1.2525018147826195,-2.4895208137512204,9.542989418958127,1.3611041278560179,-45.758763552041216,77.01302617510257,-45.68761347145719
8694,0.01666666753590107,6.407028604006767,4.7828211362659925,1.218826339673996,-2.5896289551883935,8.685415727289021,1.2014411985116369,-31.50781973561973,63.489176486396445,-32.31336200104728
8710,0.01666666753590107,6.448771650236845,4.321681296098232,1.258907005649805,-2.574215697479248,8.160935633850098,1.1315608474061358,-21.72378377789344,51.073436198065686,-20.053056327658503
8727,0.01666666753590107,6.4716539286524055,3.3782474763140082,1.3163561550557612,-2.5658348226249217,7.177217734472453,1.0673658130696975,-13.238126654025205,41.9855553186619,-5.5266919631454225
8743,0.01666666753590107,6.606560996270179,2.513569213336706,1.3482640359699725,-2.4272721551090477,6.315156083734333,1.0193325623879208,-10.679048578639126,34.79941084005394,7.446362733154404
8760,0.01666666753590107,6.599951222741604,2.0563412859156727,1.2716601042389868,-2.417097967097163,5.891532904273271,0.8785232119238003,-11.448008350872087,28.72872504536826,20.002663191962146
8777,0.01666666753590107,6.507780888566375,1.447669874356687,1.3109142562627791,-2.4690204620361325,5.369596065576374,0.8571252537818626,-14.117393127580225,21.651954093487003,34.46898677857623
8793,0.01666666753590107,6.229001356586814,1.407695299103856,1.6414157921731471,-2.7024557084232566,5.427955315564573,1.1546052484476939,-18.79355578432981,20.122503983591898,48.82868086696266
8810,0.01666666753590107,6.027673897600174,1.3056430378615855,1.6799509822726248,-2.84057121669352,5.461623484149575,1.1774993999641388,-25.51223870104752,13.135956415551924,65.35469922421285
8827,0.01666666753590107,5.4506712975025176,1.258093935701251,1.7163345472961664,-3.303549962726235,5.651663533185422,1.2361572310401125,-39.41724368129161,3.365933658124974,85.4189741375831
8843,0.01666666753590107,4.747898875966668,1.2124930449992417,1.7292209168761967,-3.898507321709394,5.820004960632324,1.303942919412814,-54.85784594168382,-3.625902397323295,97.73948792850554
8860,0.01666666753590107,4.257390317973495,0.9544529341876506,1.5241069250881671,-4.263922934612632,5.79696076965332,1.1959050809549168,-74.01134928017872,-12.458096852694947,105.56499958512923
8877,0.01666666753590107,3.3347488185882566,0.5932119766205549,0.9957780472666025,-5.0022360406070945,5.755511737933754,0.8702936003747396,-97.75430943900447,-21.961470945915302,105.92099587485947
8893,0.01666666753590107,2.4643653297066686,0.6139139883875846,0.5425052872121334,-5.730372620502114,6.000168635559081,0.6127674304346553,-110.8454393230336,-25.77136241777946,100.36141313576584
8910,0.01666666753590107,1.8915408920764922,0.7775392009675502,0.17845687100887297,-6.162675657764077,6.36468642283976,0.46791749934284016,-117.50815908478681,-25.157780911427828,94.60594740146543
8927,0.01666666753590107,0.9871610255688428,1.5076292530179023,-0.007467888195253908,-6.877792597088217,7.33598293980062,0.5783512382276356,-115.25067228107088,-19.989221379675563,93.78785466343798
8943,0.01666666753590107,0.0961293009340763,2.751838455751538,0.08301270279474555,-7.615507737189531,8.757541929084063,0.8783739031136035,-107.61137207178925,-16.782831762495388,101.9490701177678
8960,0.01666666753590107,-0.4898749362647533,3.2217145600825545,0.028517653954029082,-8.023120569831132,9.421483392444252,1.0202307898692786,-100.18990708570684,-15.17000041076006,117.56230882452667
8976,0.01666666753590107,-1.9702777441829442,3.829914262476563,-0.06780000915899873,-9.217377116394042,10.31706386642456,1.183933889991045,-114.20180111136703,-5.16179977890807,136.82576454828043
8993,0.01666666753590107,-3.6488626987993715,3.5361551880300044,-0.616312720092386,-10.65464746955037,10.2406002199471,0.8465013857737184,-139.15828781021813,13.325962032977923,143.52127604823886
9010,0.01666666753590107,-4.3881420194774865,3.0842683293759823,-1.1026457459665835,-11.150395681762694,9.982624406543373,0.5870294885933399,-167.20393246688258,38.27447107087844,140.7464160752728
9026,0.01666666753590107,-5.427126171264052,2.958336010852456,-1.8194117676720023,-11.901727259284257,10.048315899115801,0.1761246286690235,-185.310668333938,74.40318357248401,124.95383026128775
9043,0.01666666753590107,-7.066905886667967,3.8646699340373276,-2.000120509260893,-13.362788237872719,11.05672312633097,0.19228578213602304,-175.3326908622765,95.22110838906264,117.0651256944631
9060,0.01666666753590107,-8.456208619990944,3.4944437059819697,-2.3760797280102968,-14.56138602851033,10.793362697279452,-0.00478664975464344,-153.9113324929056,123.45740411602965,100.60778488931739
9077,0.01666666753590107,-8.976182926443219,2.6554151403069493,-3.0298633699715136,-14.997878334155677,10.003124173736571,-0.5966032264940441,-140.30940691179705,156.0604924963851,76.4237789252164
9093,0.01666666753590107,-9.059887630090117,1.0038438648223877,-4.118458232623339,-15.077485539355873,8.3627979303658,-1.709159394969791,-123.74484579706048,199.20164752072148,43.83914913109289
9110,0.01666666753590107,-7.5477172265112396,0.21901801397800444,-4.2070539231821895,-13.691393000251054,7.541137263599038,-2.0133719127610323,-86.76030034716855,257.3711721531885,6.102967830024092
9126,0.01666666753590107,-6.6270806372076265,0.121221656614542,-3.682898239392042,-12.917616366687417,7.404667768970131,-1.7984931905448436,-49.36958062280889,280.6051807660108,-7.349861551692232
9144,0.01666666753590107,-4.573669267264008,0.08609832078516483,-2.4492696135140952,-11.009735749706625,7.337928813171386,-0.98012601236552,-10.960902311155227,282.63402015707135,-14.084109615754754
9160,0.01666666753590107,-2.77445711479485,-0.1555763461589813,-0.8760953637223691,-9.36596842597127,7.057658165851235,-0.04444171072952449,23.046779467293867,257.8502962630866,-23.11680598175942
9177,0.01666666753590107,-2.004243142148852,-0.38469080673754213,-0.013752667553164065,-8.687959274291991,6.782922940826416,0.33788291486594824,33.26994023959132,233.64555384466541,-35.4217093753338
9193,0.01666666753590107,-0.954414940264821,-0.7752578120321035,0.9813982242584228,-7.72489165649414,6.318447818756103,0.8795706934164278,32.804438941992856,211.17292007900284,-50.200565342894734
9210,0.01666666753590107,-0.13018237718343734,-0.9280097484201192,1.7818015834629535,-7.021746309992671,6.018874505072832,1.135600724780932,19.662733214707075,192.56965678004417,-69.36757879556792
9227,0.01666666753590107,0.2406698738157749,-0.8668412862300873,2.1687346161693335,-6.744467245703936,5.941361641803383,1.1555030375376343,5.661790543607336,187.30206462796858,-80.19159130915139
9243,0.01666666753590107,0.6908540202051401,-0.41114159128963945,2.5380595114707947,-6.383690398517251,6.24377923900187,1.1840835275948047,-6.174421427139357,184.30855663929208,-86.18953558917643
9260,0.01666666753590107,1.0633832645058632,0.2694447174012661,2.9597710120916365,-6.110601771655678,6.714688778033852,1.181239974731952,-15.300330665407659,178.284657640421,-87.55773859314587
9277,0.01666666753590107,1.245428515395522,0.5709516294956207,3.2939281479001044,-5.985355097308754,6.860585441699624,1.2138609723515807,-19.505415175101465,171.68203671317474,-87.03922478230436
9293,0.01666666753590107,1.0234066434264182,1.1156120489150285,3.5624937443792817,-6.263830093383788,7.205649171447753,1.1174943555302916,-32.88022330592873,161.13849225747947,-87.14648607303025
9310,0.01666666753590107,0.5418856940090656,1.230243805745244,3.5377439185261723,-6.773197081103921,7.181408464160561,0.8463511636480688,-46.77617145533339,163.18526772530052,-86.10751184743376
9327,0.01666666753590107,0.43763563046157355,1.1642483617901802,3.604445172663033,-6.882880860137939,6.996305579265952,0.6774103090032935,-62.91253093552895,172.57949624935773,-80.16774028856972
9343,0.01666666753590107,0.35094051282703875,0.8158885131061077,3.5128783573389053,-6.921188671222329,6.538864009094238,0.2672530525758862,-83.83782632586018,195.01776050311682,-68.10073579888146
9360,0.01666666753590107,0.7107324406296014,0.22155425445735452,3.277005362410843,-6.478260779571533,5.902903608593344,-0.21742256148010491,-92.42331264086367,205.96317962919727,-59.484192613721916
9377,0.01666666753590107,0.7967758163571357,0.007930208477377892,3.2737197648689147,-6.279841316986084,5.673209886822104,-0.4674672896236181,-91.75943874410594,203.48436737561624,-53.19722546387321
9393,0.01666666753590107,0.9384364498883485,0.05302899487614631,3.0258813145980237,-6.014384207916259,5.712863851818442,-0.9484022558465599,-80.06411265848227,187.75920918911754,-50.44133634132686
9410,0.01666666753590107,0.7390840903669595,0.2419371172726154,3.076219170694053,-6.065710490527748,5.877615438079833,-1.1786945280328391,-52.86120064727609,155.48674294572572,-51.83944874367179
9426,0.01666666753590107,0.20052607947587966,0.7241255906879901,3.387992332997918,-6.51821460429728,6.315305429077148,-1.058086911663413,-29.8103503872369,129.59926048186685,-51.25475722996202
9443,0.01666666753590107,-0.7565513579964638,0.6960130104035138,3.6733208482295274,-7.386860894122719,6.196792446899414,-1.0118488921016453,-14.32369216127129,114.30066809960297,-55.802679669950024
9460,0.01666666753590107,-0.9457885662168264,-0.03221007873117924,3.971371482390165,-7.515399595752358,5.38800178309977,-0.8898942450374364,-20.82599810017758,119.7277110178525,-62.63879744416235
9477,0.01666666753590107,-0.8165870167642831,-0.3850982184946537,4.164482317173481,-7.315334119525551,4.958690913391113,-0.8734341086238622,-35.17188837625141,133.5849763908928,-68.46520152318251
9493,0.01666666753590107,-0.08653554315865039,-0.9835030875831842,4.481798208296299,-6.453122831183672,4.285471334075927,-0.7978677032470702,-51.703278677283826,154.0771694859535,-67.89903348250182
9510,0.01666666753590107,1.0022627331107854,-1.4520605105310678,4.688685054975748,-5.232977810126543,3.785382462310791,-0.775870390972495,-55.50360276166809,158.6425635498384,-62.821566476162715
9527,0.01666666753590107,1.3748866699576376,-1.609348921304941,4.799012392610312,-4.71777554038167,3.6113539291381835,-0.8396165946960449,-52.98589599585843,148.10735192493058,-56.12966131608604
9543,0.01666666753590107,1.8229402340590952,-1.9236814127027988,4.778554126471281,-4.096480209571123,3.2873891015201804,-1.0503057562679052,-47.3736320076965,119.99563201823541,-50.78299947908382
9560,0.01666666753590107,1.9272323831826448,-2.467665540295839,4.523803704854846,-3.8968624771118163,2.734028073772788,-1.4085381796687841,-43.06781928321793,96.33226405380782,-53.07305603985696
9578,0.01666666753590107,1.6699427984774111,-2.6621014862030745,4.3487715475976465,-4.0916912217289205,2.5186989774405957,-1.6623235556453466,-39.50208146097234,83.00896920970078,-60.12592303719047
9592,0.01666666753590107,1.1738520564377308,-3.0717034468352793,4.073315607082844,-4.541651496234536,2.0599112533569333,-2.023399093517661,-41.390779030642605,77.14766969421102,-73.56403336124541
9610,0.01666666753590107,0.9257616772323847,-3.223487414973974,3.455057452011108,-4.7671553651005025,1.8596961395263671,-2.7030530897945164,-41.80017032420942,80.90374098296277,-81.26790617894035
9626,0.01666666753590107,0.805281778895855,-3.1407664616674182,3.124958067160845,-4.864269585418701,1.8837872092097996,-3.102435269707441,-41.342366649805555,86.65149543369024,-88.65841674770427
9643,0.01666666753590107,0.8073135769844054,-2.7167607126295565,2.610693370527029,-4.8344928713142865,2.210895595550537,-3.718493868908286,-43.93490496816188,89.51610409235028,-103.58792619778818
9660,0.01666666753590107,1.0695499704420566,-2.553668584012985,2.076836669194698,-4.566341116333008,2.2911013511657714,-4.321234721374512,-49.15608256973263,84.26122975250927,-114.68316552331285
9677,0.01666666753590107,1.0586620812028646,-2.1848539763212202,1.5661708738356828,-4.59671754989624,2.5631422225400806,-4.8870139166682955,-45.78798310131053,72.43272180825952,-127.42690515596597
9693,0.01666666753590107,1.0205880788743495,-1.3036714455276728,0.10665829373300074,-4.705505256873369,3.2525229553222657,-6.421996456035972,-19.811972848071854,63.634201893043326,-143.67095281371053
9710,0.01666666753590107,0.882889919233322,-0.7393187759056687,-1.4429343702673911,-4.895394791522622,3.610156828308105,-8.065915170940757,-0.22553257958955658,79.69035104672083,-151.10760814050707
9726,0.01666666753590107,0.8684802856087684,-0.39482524726092816,-1.939801941898465,-4.909011813464761,3.7234324943542476,-8.709656142315268,3.3789289467945696,112.69103839904109,-147.3765490044959
9743,0.01666666753590107,0.5789455508589745,0.2053662129834294,-2.647532862624526,-5.063288182941079,4.05398137653768,-9.68484440601766,-11.806540348331689,154.8799216191051,-128.61609573197856
9760,0.01666666753590107,0.2028290957212448,1.018020858734846,-3.5733255195170637,-5.260959457507729,4.7248070464536545,-10.824335343170166,-24.67140143308393,162.3341715132036,-117.22368170585578
9777,0.01666666753590107,-0.17947335457503794,1.4764648839473724,-3.9173195742070672,-5.448156099811196,5.069871360723674,-11.367070932006834,-24.427941047666117,154.77431323415837,-116.82400635638331
9793,0.01666666753590107,-0.37036885139644143,2.0616198108404875,-4.5845589100688695,-5.397429536658525,5.467608111517131,-12.285097631072997,4.106797660650499,145.40017912663933,-131.65705987500831
9810,0.01666666753590107,-0.7575894688725471,2.9644077319815754,-4.902431850552559,-5.606023479516804,6.149506964111327,-12.809278157043456,41.83894530812758,145.9397777314487,-137.88257239779983
9827,0.01666666753590107,-1.2887524010762572,3.5476807906508445,-4.672887181863189,-5.93058773433268,6.437708988952636,-12.813617647552489,77.73170550976047,154.49127019495305,-131.67291957426107
9843,0.01666666753590107,-1.6819959321036935,4.100767093110084,-3.395266123393178,-5.995380524499714,6.534673717797547,-11.859378063854574,98.62846436973939,150.07318965108698,-112.4249547195449
9860,0.01666666753590107,-1.2716557203248142,3.6233293213531375,-2.2118910363286735,-5.326051522882282,5.724386239568889,-10.890475164031981,89.72239629585216,137.9773481027229,-107.41856949189813
9877,0.01666666753590107,-1.295968323804438,3.6155355987370013,-1.6266057610541582,-5.103540406091511,5.424212914165854,-10.481066095623373,68.2204895055993,124.90626482390778,-108.59989168998685
9893,0.01666666753590107,-1.3068085745096205,3.708105745884776,-0.9526666352927684,-4.850652855737507,5.18898303944692,-9.975889545330405,53.91083679816697,85.60566369816706,-113.17391911298265
9910,0.01666666753590107,-1.427716050608456,3.774117556452751,-0.9349082757622003,-4.830900692041218,5.034706377709656,-10.045321977996826,45.42971235858668,68.10266874241658,-114.70151141142351
9927,0.01666666753590107,-1.3095397530391812,3.9156481338635083,-1.020741808131337,-4.604498705291748,4.972606699084118,-10.196605010876059,43.044664941931586,51.34177725508256,-111.44043759220092
9943,0.01666666753590107,-1.2084990069270134,4.071594482378662,-1.0189274521857499,-4.404433229064941,4.875641751043498,-10.255262951549888,38.81915475152486,32.727363672303845,-99.4633047316117
9960,0.01666666753590107,-1.0009756159096956,3.98978859809041,-0.8404980537056922,-4.151246695764363,4.631582600115612,-10.105177019500731,31.810369795094616,20.17472419489123,-87.47186945490047
9977,0.01666666753590107,-0.8845324257433413,3.9405551961049436,-0.7897510322868824,-4.011484881591796,4.443189003112539,-10.070910008239746,28.966060458647867,9.099861884981634,-75.72765970538703
9993,0.01666666753590107,-0.7478183087036013,3.845836931012571,-0.7594470794379711,-3.884143280792236,4.176235518005117,-10.045172340393066,30.88871431377685,-9.661556151755972,-65.15517573817844
10010,0.01666666753590107,-0.4532815278828144,3.8118776705265045,-0.624058950304985,-3.639635728509724,4.013429823380801,-9.896432562255859,33.19958246095102,-28.594462309306028,-59.253257087694614
10027,0.01666666753590107,-0.26815584663450714,3.8113086384668944,-0.5136918651819229,-3.54970323638916,3.882945905967522,-9.75472516697347,34.54737344458588,-48.11359079671359,-54.52964169168637
10043,0.01666666753590107,0.005641220757365227,3.491232050459087,-0.3372095091164112,-3.4666543663024902,3.388094085472496,-9.507973342895507,36.63818997217516,-69.73487221818536,-48.739543483199405
10060,0.01666666753590107,-0.25436522169113157,3.3084280901566148,-0.21195874311625956,-3.9041950119569897,3.0783445105512626,-9.311199893951416,32.12884444061938,-80.04124518514108,-46.21319994318426
10077,0.01666666753590107,-0.4925768886998296,3.325027342779934,-0.2601163325637579,-4.332756816864014,2.985868307030946,-9.277232157897949,22.292928073504974,-82.54612144059487,-45.3219046527272
10093,0.01666666753590107,-0.871755946278572,3.2874975303307172,-0.5906219601273537,-4.954202077539265,2.8333875522671264,-9.495553421783447,11.052799091343163,-74.46167048234683,-51.30952168672718
10110,0.01666666753590107,-1.6232421298399566,3.3574998718395825,-1.1371358984589577,-5.856516828210651,2.823810891756974,-9.966911873626708,8.128833527474786,-60.8220695777765,-55.40396054696136
10127,0.01666666753590107,-1.7626666748821735,3.258359406390786,-1.5322767875403165,-6.107010176904499,2.644545078985393,-10.302698656463622,6.000185008959624,-42.8194667748071,-59.65151175781972
10143,0.01666666753590107,-1.5838757496133447,2.714950448337197,-1.8915853157401084,-6.006752982385456,1.9858400549739599,-10.613794650158285,8.965940658377901,-18.755912904266577,-64.59566713193851
10160,0.01666666753590107,-1.319502928648889,2.118869346021116,-1.929986650326848,-5.754314052581787,1.2907736047055571,-10.637287753948568,12.858628537134603,-3.578333117961918,-64.33473341507651
10177,0.01666666753590107,-1.243574704222381,1.763335367923975,-1.8929747242718933,-5.661389100646972,0.8324334782589227,-10.598531614574789,11.12558329468611,4.817918964104968,-68.39065000839183
10193,0.01666666753590107,-1.0384913998335599,0.960507996442914,-1.9119623333364724,-5.406406623840332,-0.10863741178624331,-10.626813706207274,6.907890255784462,12.500655761413295,-82.22314911550166
10210,0.01666666753590107,-0.8041255945980549,0.28657172022573646,-1.6529162603527308,-5.114164675958454,-0.8886981671206653,-10.382904412078856,1.7193985244868062,17.227507813314485,-90.17837972484222
10227,0.01666666753590107,-0.7431082313165068,0.06533025804460048,-1.4792460390985012,-4.972906778009236,-1.2116161160342394,-10.23416463394165,-2.09687020962803,28.022963305978138,-94.58646770195256
10243,0.01666666753590107,-0.3346843745529651,-0.32033143955171106,-0.8858551987797021,-4.406827430725097,-1.726070343890786,-9.695618898010252,-0.9547590603472902,50.081986428714146,-90.58647669756131
10260,0.01666666753590107,0.04867956749498844,-0.3975590561389923,-0.49633507218956946,-3.859303438568115,-1.8927664883486925,-9.36551834411621,6.46873342470156,60.48900906327918,-76.75131381667518
10277,0.01666666753590107,0.12153408356457948,-0.6442186718888581,0.05840659626126289,-3.614945231628418,-2.2436668152958155,-8.866327297973632,23.39227092608062,63.769255223501986,-61.846461349495016
10292,0.01666666753590107,0.953034884083271,-0.9625283963546156,0.6854577141195535,-2.5550623764589426,-2.7214595379702744,-8.301744618988037,31.700120296606855,60.696660474425904,-52.118718103360685
10310,0.01666666753590107,1.9320497203364968,-1.3475306071288884,0.852973504397273,-1.4184151382997632,-3.2276835514895614,-8.169764252471923,33.0110624096695,55.603033240510555,-51.3617453131211
10327,0.01666666753590107,2.3029218450799585,-0.9663472239904105,0.7191133154839277,-0.8952820755556226,-2.9719530327945947,-8.33182177734375,42.15486546290276,44.55633606941715,-38.14955715624266
10343,0.01666666753590107,1.969739107261598,-0.45744332373738283,0.6149357326507568,-1.1094131942749024,-2.6508307351261378,-8.43372498550415,58.43575857612496,24.67105480098355,-19.9914907100273
