msFromStart,interval,accx,accy,accz,accGx,accGy,accGz,rotRate_alpha,rotRate_beta,rotRate_gamma
1698924288006.0,16,0.0,0.0,0.0,-0.1,9.1,-2.7,-0.7,-1.3,0.0
1698924288023.0,16,0.0,0.0,0.0,-0.1,9.1,-2.7,-0.7,-1.4,-0.2
1698924288040.0,16,0.0,0.0,0.0,-0.2,9.1,-2.7,-0.8,-1.3,-0.2
1698924288057.0,16,0.0,0.0,0.0,-0.1,9.1,-2.7,-0.6000000000000001,-1.4,-0.2
1698924288074.0,16,0.0,0.0,0.0,-0.1,9.1,-2.7,-0.30000000000000004,-0.9,-0.30000000000000004
1698924288090.0,16,0.0,0.0,0.0,-0.2,9.1,-2.8000000000000003,-0.30000000000000004,-1.0,-0.1
1698924288107.0,16,0.0,0.0,0.0,-0.2,9.1,-2.7,-0.4,-1.2000000000000002,0.0
1698924288124.0,16,0.0,0.0,0.0,-0.2,9.1,-2.7,-0.4,-1.0999999999999999,0.0
1698924288140.0,16,0.0,0.0,0.0,-0.2,9.1,-2.7,-0.7,-1.0,-0.1
1698924288156.0,16,0.0,0.0,0.0,-0.2,9.1,-2.7,-0.9,-1.0,-0.2
1698924288173.0,16,0.0,0.0,0.0,-0.2,9.1,-2.7,-1.0999999999999999,-0.8,-0.2
1698924288190.0,16,0.0,0.0,0.0,-0.2,9.1,-2.7,-1.2000000000000002,-0.9,-0.2
1698924288208.0,16,0.0,0.0,0.0,-0.2,9.1,-2.6,-1.5000000000000002,-0.9,-0.30000000000000004
1698924288223.0,16,0.0,0.0,0.0,-0.2,9.1,-2.6,-1.6,-0.8,-0.4
1698924288239.0,16,0.0,0.0,0.0,-0.2,9.1,-2.7,-1.7,-0.7,-0.30000000000000004
1698924288256.0,16,0.0,0.0,0.0,-0.2,9.200000000000001,-2.7,-1.5000000000000002,-0.8,-0.4
1698924288273.0,16,0.0,0.0,0.0,-0.1,9.1,-2.6,-1.0999999999999999,-0.4,-0.4
1698924288289.0,16,0.0,0.0,0.0,-0.2,9.200000000000001,-2.6,-1.0,-0.30000000000000004,-0.5
1698924288306.0,16,0.0,0.0,0.0,-0.2,9.1,-2.6,-0.8,0.0,-0.4
1698924288323.0,16,0.0,0.0,0.0,-0.2,9.200000000000001,-2.6,-0.7,0.0,-0.30000000000000004
1698924288340.0,16,0.0,0.0,0.0,-0.2,9.1,-2.6,-0.1,0.2,-0.2
1698924288356.0,16,0.0,0.0,0.0,-0.2,9.200000000000001,-2.6,0.0,0.0,-0.1
1698924288373.0,16,0.0,0.0,0.0,-0.2,9.200000000000001,-2.6,0.0,-0.9,-0.1
1698924288389.0,16,0.0,0.0,0.1,-0.2,9.1,-2.6,0.30000000000000004,-0.5,-0.1
1698924288407.0,16,0.0,0.0,0.0,-0.2,9.200000000000001,-2.7,0.2,-0.4,-0.1
1698924288423.0,16,0.0,0.0,-0.1,-0.2,9.1,-2.7,-0.1,-0.6000000000000001,-0.1
1698924288440.0,16,0.0,0.0,-0.2,-0.2,9.1,-2.8000000000000003,-0.9,-1.3,-0.2
1698924288456.0,16,0.0,0.0,-0.1,-0.2,9.1,-2.8000000000000003,-1.7,-1.5000000000000002,0.0
1698924288473.0,16,0.0,0.0,-0.1,-0.2,9.1,-2.8000000000000003,-2.0,-1.6,0.0
1698924288491.0,16,0.0,0.0,-0.1,-0.2,9.1,-2.7,-2.1999999999999997,-1.5000000000000002,0.0
1698924288507.0,16,0.0,0.0,0.0,-0.2,9.1,-2.7,-2.3000000000000003,-1.2000000000000002,0.0
1698924288524.0,16,0.0,0.0,0.0,-0.2,9.200000000000001,-2.6,-2.1999999999999997,-1.0,-0.2
1698924288540.0,16,0.0,0.0,0.1,-0.2,9.200000000000001,-2.6,-1.5000000000000002,-0.6000000000000001,-0.1
1698924288556.0,16,0.0,0.0,0.1,-0.2,9.1,-2.5,-0.9,-0.2,-0.30000000000000004
1698924288573.0,16,0.0,0.0,0.1,-0.2,9.200000000000001,-2.5,-0.6000000000000001,0.0,-0.2
1698924288590.0,16,0.0,0.0,0.1,-0.2,9.200000000000001,-2.5,0.0,0.1,-0.2
1698924288606.0,16,0.0,0.0,0.1,-0.2,9.200000000000001,-2.6,0.2,0.0,-0.2
1698924288622.0,16,0.0,0.0,0.0,-0.2,9.200000000000001,-2.5,0.4,-0.1,-0.1
1698924288640.0,16,0.0,0.0,0.0,-0.2,9.200000000000001,-2.6,0.30000000000000004,0.0,-0.1
1698924288656.0,16,0.0,0.0,0.0,-0.2,9.200000000000001,-2.6,0.5,0.2,-0.1
1698924288673.0,16,0.0,0.0,0.0,-0.2,9.1,-2.6,0.5,0.1,-0.2
1698924288690.0,16,0.0,0.0,0.0,-0.2,9.200000000000001,-2.6,0.4,0.2,-0.1
1698924288706.0,16,0.0,0.0,0.0,-0.2,9.1,-2.6,0.5,0.1,-0.1
1698924288723.0,16,0.0,0.0,0.0,-0.2,9.1,-2.6,0.4,0.0,0.0
1698924288739.0,16,0.0,0.0,0.0,-0.2,9.1,-2.6,0.30000000000000004,0.1,-0.1
1698924288756.0,16,0.0,0.0,0.0,-0.2,9.1,-2.6,0.1,0.1,-0.1
1698924288774.0,16,0.0,0.0,0.0,-0.2,9.1,-2.7,0.0,0.2,0.0
1698924288790.0,16,0.0,0.0,0.0,-0.2,9.1,-2.7,0.2,0.4,0.0
1698924288806.0,16,0.0,0.0,0.0,-0.2,9.200000000000001,-2.7,0.6000000000000001,0.9,0.30000000000000004
1698924288823.0,16,0.0,0.0,0.0,-0.2,9.1,-2.7,0.5,0.6000000000000001,0.2
1698924288840.0,16,0.0,0.0,0.0,-0.2,9.200000000000001,-2.7,0.5,0.5,0.2
1698924288856.0,16,0.0,0.0,-0.1,-0.2,9.200000000000001,-2.7,0.1,-0.2,0.30000000000000004
1698924288873.0,16,0.0,0.0,0.0,-0.2,9.1,-2.7,-0.6000000000000001,-0.5,0.1
1698924288890.0,16,0.0,0.0,0.0,-0.2,9.1,-2.7,-0.7,-0.4,0.1
1698924288906.0,16,0.0,0.0,0.0,-0.2,9.1,-2.7,-0.8,-0.2,0.30000000000000004
1698924288923.0,16,0.0,0.0,0.1,-0.2,9.1,-2.6,-0.6000000000000001,-0.1,0.2
1698924288939.0,16,0.0,0.0,0.0,-0.2,9.1,-2.6,-0.4,-0.2,0.30000000000000004
1698924288956.0,16,0.0,0.0,0.0,-0.2,9.200000000000001,-2.6,-0.1,-0.1,0.1
1698924288973.0,16,0.0,0.0,0.1,-0.2,9.200000000000001,-2.6,0.1,0.0,0.0
1698924288989.0,16,0.0,0.0,0.1,-0.2,9.200000000000001,-2.6,0.30000000000000004,0.1,0.1
1698924289006.0,16,0.0,0.0,0.0,-0.2,9.200000000000001,-2.7,0.2,0.4,0.1
1698924289023.0,16,0.0,0.0,0.0,-0.2,9.1,-2.6,0.0,0.1,0.0
1698924289040.0,16,0.0,0.0,0.0,-0.2,9.1,-2.7,-0.30000000000000004,0.30000000000000004,0.0
1698924289056.0,16,0.0,0.0,0.0,-0.2,9.1,-2.6,-0.4,0.30000000000000004,0.0
1698924289073.0,16,0.0,0.0,0.0,-0.2,9.200000000000001,-2.6,-0.8,0.1,0.0
1698924289090.0,16,0.0,0.0,0.0,-0.2,9.200000000000001,-2.6,-0.7,-0.1,0.1
1698924289107.0,16,0.0,0.0,0.0,-0.2,9.200000000000001,-2.7,-0.9,-0.2,-0.1
1698924289124.0,16,0.0,0.0,0.0,-0.2,9.1,-2.6,-0.9,-0.30000000000000004,-0.1
1698924289139.0,16,0.0,0.0,0.0,-0.2,9.1,-2.6,-0.6000000000000001,-0.7,0.0
1698924289156.0,16,0.0,0.0,0.0,-0.2,9.200000000000001,-2.6,-0.5,-0.5,0.0
1698924289173.0,16,0.1,0.0,0.0,-0.1,9.200000000000001,-2.6,-0.30000000000000004,-0.5,-0.2
1698924289190.0,16,0.0,0.0,0.0,-0.2,9.200000000000001,-2.6,-0.1,-0.5,-0.1
1698924289208.0,16,0.0,0.0,0.0,-0.2,9.200000000000001,-2.6,0.30000000000000004,-0.6000000000000001,-0.2
1698924289223.0,16,0.0,0.0,0.0,-0.2,9.200000000000001,-2.6,0.4,-0.7,-0.2
1698924289239.0,16,0.0,0.0,0.0,-0.2,9.200000000000001,-2.6,0.2,-0.6000000000000001,-0.2
1698924289257.0,16,0.0,0.0,0.0,-0.2,9.200000000000001,-2.6,0.1,-0.5,-0.1
1698924289273.0,16,0.0,0.0,0.0,-0.2,9.200000000000001,-2.6,0.0,-0.5,-0.1
1698924289290.0,16,0.0,0.0,0.0,-0.2,9.1,-2.6,-0.2,-0.5,-0.1
1698924289306.0,16,0.0,0.0,0.0,-0.2,9.1,-2.6,-0.2,-0.2,0.0
1698924289323.0,16,0.0,0.0,0.0,-0.2,9.200000000000001,-2.6,0.0,-0.1,0.0
1698924289339.0,16,0.0,0.0,0.0,-0.2,9.200000000000001,-2.6,0.0,-0.2,0.0
1698924289357.0,16,0.0,0.0,0.0,-0.2,9.200000000000001,-2.6,0.30000000000000004,-1.0,-0.2
1698924289373.0,16,0.0,0.0,0.0,-0.2,9.1,-2.6,0.1,-1.5000000000000002,-0.30000000000000004
1698924289391.0,16,0.0,0.0,0.0,-0.2,9.1,-2.6,0.1,-1.6,-0.30000000000000004
1698924289406.0,16,0.0,0.0,0.0,-0.2,9.200000000000001,-2.6,0.30000000000000004,-1.9,-0.5
1698924289423.0,16,0.0,0.0,0.0,-0.2,9.1,-2.6,0.2,-1.3,-0.5
1698924289440.0,16,0.0,0.0,0.0,-0.2,9.1,-2.6,0.0,-1.0999999999999999,-0.6000000000000001
1698924289457.0,16,0.0,0.0,0.0,-0.2,9.1,-2.6,-0.4,-0.4,-0.5
1698924289473.0,16,0.0,0.0,0.0,-0.2,9.1,-2.6,-0.4,0.2,-0.5
1698924289489.0,16,0.0,0.0,0.0,-0.2,9.200000000000001,-2.6,0.0,0.7,-0.30000000000000004
1698924289507.0,16,0.0,0.0,0.0,-0.30000000000000004,9.200000000000001,-2.6,0.2,0.8,-0.2
1698924289523.0,16,0.0,0.0,0.0,-0.30000000000000004,9.200000000000001,-2.6,0.7,1.0,0.0
1698924289539.0,16,0.0,0.0,0.0,-0.30000000000000004,9.1,-2.6,0.7,1.0,0.0
1698924289556.0,16,0.0,0.0,0.0,-0.30000000000000004,9.1,-2.6,0.7,1.0999999999999999,0.0
1698924289573.0,16,0.0,0.0,0.0,-0.30000000000000004,9.200000000000001,-2.6,0.7,0.7,0.1
1698924289590.0,16,0.0,0.0,0.0,-0.2,9.200000000000001,-2.6,0.7,0.6000000000000001,0.2
1698924289606.0,16,0.0,0.0,0.0,-0.2,9.200000000000001,-2.6,0.7,0.30000000000000004,0.1
1698924289623.0,16,0.0,0.0,0.0,-0.2,9.200000000000001,-2.6,0.5,0.1,0.2
1698924289639.0,16,0.0,0.0,0.0,-0.2,9.200000000000001,-2.6,0.30000000000000004,-0.2,0.2
1698924289659.0,16,0.0,0.0,0.0,-0.2,9.200000000000001,-2.6,0.30000000000000004,-0.2,0.30000000000000004
1698924289673.0,16,0.0,0.0,0.0,-0.2,9.200000000000001,-2.7,0.0,-0.4,0.30000000000000004
1698924289691.0,16,0.0,0.0,0.0,-0.2,9.1,-2.7,-0.30000000000000004,-0.6000000000000001,0.1
1698924289706.0,16,0.0,0.0,-0.1,-0.2,9.1,-2.7,-0.4,-0.4,0.2
1698924289723.0,16,0.0,0.0,0.0,-0.2,9.1,-2.6,-0.6000000000000001,0.1,0.30000000000000004
1698924289740.0,16,0.0,0.0,0.0,-0.2,9.1,-2.6,-0.6000000000000001,0.2,0.30000000000000004
1698924289757.0,16,0.0,0.0,0.0,-0.2,9.1,-2.6,-0.8,0.1,0.1
1698924289773.0,16,0.0,0.0,0.0,-0.2,9.200000000000001,-2.6,-0.7,0.0,0.1
1698924289790.0,16,0.0,0.0,0.0,-0.2,9.200000000000001,-2.6,-0.1,-0.2,0.0
1698924289807.0,16,0.0,0.0,0.0,-0.2,9.1,-2.6,0.30000000000000004,-0.4,-0.1
1698924289823.0,16,0.0,0.0,0.0,-0.2,9.200000000000001,-2.6,0.5,-0.4,-0.2
1698924289841.0,16,0.0,0.0,0.0,-0.2,9.1,-2.6,0.7,-0.4,-0.2
1698924289856.0,16,0.0,0.0,0.0,-0.2,9.1,-2.6,0.8,-0.2,-0.1
1698924289874.0,16,0.0,0.0,0.0,-0.2,9.200000000000001,-2.6,1.0,-0.4,-0.2
1698924289889.0,16,0.0,0.0,0.0,-0.2,9.200000000000001,-2.6,0.7,-0.1,-0.1
1698924289907.0,16,0.0,0.0,0.0,-0.2,9.1,-2.6,0.8,-0.1,-0.2
1698924289924.0,16,0.0,0.0,0.0,-0.2,9.200000000000001,-2.6,0.7,0.0,-0.2
1698924289939.0,16,0.0,0.0,0.0,-0.2,9.200000000000001,-2.7,0.6000000000000001,0.2,-0.1
1698924289956.0,16,0.0,0.0,0.0,-0.2,9.1,-2.6,0.7,0.0,-0.1
1698924289973.0,16,0.0,0.0,0.0,-0.2,9.200000000000001,-2.6,0.8,0.2,-0.1
1698924289990.0,16,0.0,0.0,0.0,-0.2,9.1,-2.7,0.5,-0.1,0.1
1698924290006.0,16,0.0,0.0,0.0,-0.2,9.1,-2.7,0.30000000000000004,-0.1,0.0
1698924290023.0,16,0.0,0.0,0.0,-0.2,9.1,-2.7,-0.1,0.1,-0.1
1698924290040.0,16,0.0,0.0,0.0,-0.2,9.200000000000001,-2.6,-0.30000000000000004,0.2,0.0
1698924290056.0,16,0.0,0.0,0.0,-0.2,9.200000000000001,-2.7,-0.4,0.0,0.0
1698924290072.0,16,0.0,0.0,0.0,-0.2,9.200000000000001,-2.7,-0.6000000000000001,0.1,0.0
1698924290089.0,16,0.0,0.0,0.0,-0.30000000000000004,9.1,-2.7,-0.8,0.9,0.30000000000000004
1698924290106.0,16,0.0,0.0,-0.1,-0.30000000000000004,9.200000000000001,-2.7,-0.9,1.2000000000000002,0.30000000000000004
1698924290123.0,16,0.0,0.0,0.0,-0.2,9.200000000000001,-2.7,-0.8,1.0999999999999999,0.30000000000000004
1698924290139.0,16,0.0,0.0,0.0,-0.2,9.200000000000001,-2.6,-0.9,0.5,0.2
1698924290156.0,16,0.0,0.0,0.0,-0.2,9.200000000000001,-2.6,-0.9,0.5,0.1
1698924290173.0,16,0.0,0.0,0.0,-0.2,9.200000000000001,-2.6,-0.8,0.6000000000000001,0.1
1698924290189.0,16,0.0,0.0,0.1,-0.2,9.200000000000001,-2.5,-0.2,1.0,0.1
1698924290206.0,16,0.0,0.0,0.1,-0.2,9.200000000000001,-2.5,0.30000000000000004,1.2000000000000002,0.1
1698924290223.0,16,0.0,0.0,0.1,-0.2,9.200000000000001,-2.6,0.8,0.8,0.0
1698924290240.0,16,0.0,0.0,0.0,-0.2,9.200000000000001,-2.6,1.3,-0.1,0.0
1698924290256.0,16,0.0,0.0,0.0,-0.2,9.200000000000001,-2.6,1.3,-0.9,-0.1
1698924290273.0,16,0.0,0.0,-0.1,-0.2,9.200000000000001,-2.7,0.9,-1.4,-0.1
1698924290289.0,16,0.0,0.0,0.0,-0.2,9.1,-2.7,-0.1,-1.5000000000000002,-0.2
1698924290308.0,16,0.0,0.0,0.0,-0.2,9.1,-2.7,-0.1,-1.5000000000000002,0.0
1698924290323.0,16,0.0,-0.1,0.0,-0.30000000000000004,9.1,-2.7,-0.9,-1.0,0.0
1698924290339.0,16,0.0,-0.1,0.0,-0.2,9.1,-2.7,-2.3000000000000003,-0.7,0.1
1698924290356.0,16,0.1,0.0,-0.1,-0.2,9.1,-2.7,-2.5,-0.7,0.2
1698924290373.0,16,0.0,0.0,0.0,-0.2,9.1,-2.6,-2.8,-0.2,0.1
1698924290390.0,16,0.0,0.0,0.0,-0.2,9.1,-2.7,-2.8,0.1,0.0
1698924290406.0,16,0.0,0.0,0.0,-0.2,9.200000000000001,-2.7,-2.7,0.1,0.0
1698924290424.0,16,0.0,0.0,0.0,-0.2,9.200000000000001,-2.6,-2.1999999999999997,-0.2,0.0
1698924290439.0,16,0.0,0.0,0.1,-0.2,9.200000000000001,-2.5,-1.8,-0.2,0.1
1698924290456.0,16,0.0,0.0,0.1,-0.2,9.200000000000001,-2.5,-1.0999999999999999,-0.4,0.0
1698924290473.0,16,0.0,0.0,0.1,-0.2,9.200000000000001,-2.5,-0.8,-0.4,0.0
1698924290490.0,16,0.0,0.0,0.1,-0.2,9.200000000000001,-2.5,0.2,0.0,0.0
1698924290506.0,16,0.0,0.0,0.1,-0.2,9.200000000000001,-2.5,0.8,0.4,0.1
1698924290523.0,16,0.0,0.0,0.1,-0.30000000000000004,9.200000000000001,-2.5,1.0,0.4,0.0
1698924290539.0,16,0.0,0.0,0.0,-0.2,9.200000000000001,-2.6,1.0,0.30000000000000004,0.0
1698924290556.0,16,0.0,0.0,-0.1,-0.2,9.1,-2.6,0.8,0.1,0.0
1698924290574.0,16,0.0,0.0,-0.1,-0.2,9.1,-2.7,0.5,0.0,0.0
1698924290590.0,16,0.0,0.0,-0.1,-0.2,9.200000000000001,-2.6,0.5,-0.30000000000000004,-0.1
1698924290606.0,16,0.0,0.0,0.0,-0.2,9.1,-2.6,0.4,-0.4,-0.1
1698924290623.0,16,0.0,0.0,0.0,-0.2,9.1,-2.6,0.5,-0.30000000000000004,-0.1
1698924290640.0,16,0.0,0.0,0.0,-0.2,9.1,-2.6,0.30000000000000004,-0.1,0.0
1698924290656.0,16,0.0,0.0,0.0,-0.2,9.200000000000001,-2.6,0.4,0.0,-0.2
1698924290674.0,16,0.0,0.0,0.0,-0.2,9.200000000000001,-2.6,0.30000000000000004,-0.2,-0.30000000000000004
1698924290691.0,16,0.0,0.0,0.0,-0.2,9.1,-2.6,0.0,-0.6000000000000001,-0.2
1698924290706.0,16,0.0,0.0,0.0,-0.30000000000000004,9.200000000000001,-2.6,-0.5,-0.9,0.0
1698924290724.0,16,0.0,0.0,0.0,-0.30000000000000004,9.200000000000001,-2.6,-0.5,-1.2000000000000002,-0.1
1698924290740.0,16,0.0,0.0,0.0,-0.2,9.200000000000001,-2.6,-0.4,-1.0999999999999999,-0.2
1698924290756.0,16,0.0,0.0,0.0,-0.2,9.200000000000001,-2.6,-0.6000000000000001,-1.3,-0.2
1698924290775.0,16,0.0,0.0,0.1,-0.2,9.200000000000001,-2.6,-0.7,-1.5000000000000002,-0.30000000000000004
1698924290790.0,16,0.0,0.0,0.1,-0.2,9.200000000000001,-2.5,-0.7,-1.6,-0.30000000000000004
1698924290806.0,16,0.0,0.0,0.0,-0.2,9.200000000000001,-2.5,-0.6000000000000001,-1.3,-0.30000000000000004
1698924290822.0,16,0.0,0.0,0.0,-0.2,9.200000000000001,-2.6,-0.6000000000000001,-1.0,-0.2
1698924290840.0,16,0.0,0.0,0.0,-0.2,9.200000000000001,-2.6,-0.4,-1.0,-0.2
1698924290856.0,16,0.0,0.0,0.0,-0.2,9.200000000000001,-2.6,-0.1,-0.7,-0.2
1698924290873.0,16,0.0,0.0,0.0,-0.2,9.1,-2.6,-0.1,-0.2,-0.2
1698924290889.0,16,0.0,0.0,0.0,-0.2,9.200000000000001,-2.6,0.1,-0.2,-0.1
1698924290906.0,16,0.0,0.0,0.0,-0.2,9.200000000000001,-2.6,0.5,0.2,-0.2
1698924290923.0,16,0.0,0.0,0.0,-0.30000000000000004,9.1,-2.6,0.5,0.5,-0.2
1698924290939.0,16,0.0,0.0,0.0,-0.30000000000000004,9.200000000000001,-2.6,0.6000000000000001,0.9,-0.1
1698924290956.0,16,0.0,0.0,0.0,-0.30000000000000004,9.200000000000001,-2.6,0.8,1.0,0.0
1698924290973.0,16,0.0,0.0,0.0,-0.30000000000000004,9.200000000000001,-2.6,1.0,1.0999999999999999,0.1
1698924290991.0,16,0.0,0.0,0.0,-0.30000000000000004,9.200000000000001,-2.6,0.7,0.8,0.1
1698924291008.0,16,0.0,0.0,0.0,-0.2,9.200000000000001,-2.6,0.7,0.7,0.2
1698924291023.0,16,0.0,0.0,0.0,-0.30000000000000004,9.200000000000001,-2.6,0.5,0.7,0.30000000000000004
1698924291040.0,16,0.0,0.0,0.0,-0.30000000000000004,9.200000000000001,-2.6,0.30000000000000004,0.5,0.30000000000000004
1698924291056.0,16,0.0,0.0,0.0,-0.30000000000000004,9.200000000000001,-2.6,-0.30000000000000004,0.2,0.4
1698924291073.0,16,0.0,0.0,0.0,-0.2,9.200000000000001,-2.6,-0.6000000000000001,0.2,0.30000000000000004
1698924291090.0,16,0.0,0.0,0.0,-0.2,9.200000000000001,-2.6,-0.8,-0.1,0.30000000000000004
1698924291107.0,16,0.0,0.0,0.0,-0.2,9.200000000000001,-2.6,-0.6000000000000001,-0.5,0.2
1698924291123.0,16,0.0,0.0,0.0,-0.2,9.200000000000001,-2.6,-0.30000000000000004,-0.7,0.2
1698924291140.0,16,0.0,0.0,0.1,-0.2,9.1,-2.5,0.30000000000000004,-0.30000000000000004,0.1
1698924291156.0,16,0.0,0.0,0.0,-0.2,9.200000000000001,-2.5,0.5,-0.2,0.0
1698924291173.0,16,0.0,0.0,0.0,-0.2,9.200000000000001,-2.6,1.4,0.0,0.0
1698924291189.0,16,0.0,0.0,0.0,-0.2,9.200000000000001,-2.6,1.6,0.1,0.0
1698924291207.0,16,0.0,0.0,0.0,-0.2,9.200000000000001,-2.6,1.8,-0.2,0.0
1698924291223.0,16,0.0,0.0,0.0,-0.2,9.200000000000001,-2.7,1.8,-0.30000000000000004,0.0
1698924291241.0,16,0.0,0.0,0.0,-0.2,9.1,-2.6,1.8,-0.7,0.0
1698924291257.0,16,0.0,0.0,0.0,-0.2,9.1,-2.7,1.4,-0.9,-0.2
1698924291273.0,16,0.0,0.0,0.0,-0.30000000000000004,9.200000000000001,-2.6,1.2000000000000002,-1.3,-0.30000000000000004
1698924291292.0,16,0.0,0.0,0.0,-0.30000000000000004,9.1,-2.6,1.0,-1.2000000000000002,-0.2
1698924291306.0,16,0.0,0.0,0.0,-0.2,9.1,-2.7,0.5,-1.0,0.0
1698924291323.0,16,0.0,0.0,-0.1,-0.30000000000000004,9.1,-2.7,0.0,-1.3,-0.1
1698924291339.0,16,0.0,0.0,-0.1,-0.30000000000000004,9.1,-2.7,-0.4,-1.6,-0.2
1698924291358.0,16,0.0,0.0,0.0,-0.30000000000000004,9.1,-2.7,-1.0999999999999999,-1.7,0.0
1698924291373.0,16,0.0,0.0,0.0,-0.2,9.200000000000001,-2.7,-1.2000000000000002,-1.2000000000000002,0.0
1698924291389.0,16,0.0,0.0,0.0,-0.2,9.200000000000001,-2.6,-1.5000000000000002,-0.9,0.0
1698924291406.0,16,0.0,0.0,0.0,-0.2,9.200000000000001,-2.7,-1.5000000000000002,-1.0,0.0
1698924291423.0,16,0.0,0.0,0.0,-0.2,9.1,-2.6,-1.7,-1.0999999999999999,0.0
1698924291440.0,16,0.0,0.0,0.0,-0.2,9.200000000000001,-2.6,-1.8,-1.0,0.0
1698924291457.0,16,0.0,0.0,0.1,-0.30000000000000004,9.200000000000001,-2.6,-1.8,-0.7,0.0
1698924291473.0,16,0.0,0.0,0.0,-0.30000000000000004,9.200000000000001,-2.6,-1.3,-0.4,0.1
1698924291489.0,16,0.0,0.0,0.0,-0.2,9.200000000000001,-2.6,-1.0,-0.1,0.0
1698924291507.0,16,0.0,0.0,0.0,-0.2,9.200000000000001,-2.6,-0.8,-0.1,0.0
1698924291523.0,16,0.0,0.0,0.0,-0.30000000000000004,9.200000000000001,-2.6,-0.8,-0.2,0.0
1698924291539.0,16,0.0,0.0,0.0,-0.30000000000000004,9.200000000000001,-2.6,-0.6000000000000001,-0.2,0.0
1698924291556.0,16,0.0,0.0,0.0,-0.2,9.200000000000001,-2.6,-0.4,-0.1,0.0
1698924291573.0,16,0.0,0.0,0.0,-0.2,9.200000000000001,-2.6,-0.2,-0.1,0.1
1698924291591.0,16,0.0,0.0,0.0,-0.2,9.200000000000001,-2.6,0.1,-0.1,0.0
1698924291607.0,16,0.0,0.0,0.0,-0.2,9.200000000000001,-2.6,0.0,0.0,0.0
1698924291623.0,16,0.0,0.0,0.0,-0.2,9.200000000000001,-2.6,0.0,0.0,-0.1
1698924291640.0,16,0.0,0.0,0.0,-0.2,9.200000000000001,-2.6,0.2,-0.1,-0.1
1698924291656.0,16,0.0,0.0,0.0,-0.2,9.200000000000001,-2.6,0.4,0.2,0.0
1698924291673.0,16,0.0,0.0,0.0,-0.2,9.1,-2.6,0.7,0.5,0.0
1698924291689.0,16,0.0,0.0,0.0,-0.2,9.200000000000001,-2.6,0.8,0.5,0.1
1698924291706.0,16,0.0,0.0,-0.1,-0.30000000000000004,9.200000000000001,-2.7,0.8,0.5,0.1
1698924291724.0,16,0.0,0.0,0.0,-0.2,9.200000000000001,-2.6,0.6000000000000001,0.4,0.2
1698924291739.0,16,0.0,0.0,0.0,-0.2,9.200000000000001,-2.6,0.1,0.5,0.0
1698924291756.0,16,0.0,0.0,0.0,-0.2,9.200000000000001,-2.6,-0.2,0.4,0.0
1698924291773.0,16,0.0,0.0,0.0,-0.30000000000000004,9.200000000000001,-2.6,-0.6000000000000001,0.4,0.0
1698924291789.0,16,0.0,0.0,0.0,-0.2,9.200000000000001,-2.6,-1.0,0.30000000000000004,0.0
1698924291806.0,16,0.0,0.0,0.0,-0.2,9.200000000000001,-2.6,-1.0999999999999999,0.30000000000000004,0.0
1698924291823.0,16,0.0,0.0,0.0,-0.2,9.1,-2.6,-1.2000000000000002,0.1,0.0
1698924291839.0,16,0.0,0.0,0.0,-0.2,9.200000000000001,-2.5,-0.6000000000000001,0.2,0.0
1698924291855.0,16,0.0,0.0,0.0,-0.2,9.200000000000001,-2.5,0.0,0.5,0.0
1698924291872.0,16,0.0,0.0,0.1,-0.2,9.200000000000001,-2.5,0.30000000000000004,0.5,-0.1
1698924291889.0,16,0.0,0.0,0.0,-0.2,9.200000000000001,-2.6,0.5,0.8,-0.2
1698924291905.0,16,0.0,0.0,0.0,-0.2,9.200000000000001,-2.6,0.5,0.2,-0.2
1698924291922.0,16,0.0,0.0,0.0,-0.2,9.200000000000001,-2.6,0.5,0.2,-0.1
1698924291939.0,16,0.0,0.0,0.0,-0.2,9.200000000000001,-2.6,0.30000000000000004,0.1,-0.2
1698924291956.0,16,0.0,0.0,0.0,-0.30000000000000004,9.200000000000001,-2.6,0.30000000000000004,0.4,-0.1
1698924291973.0,16,0.0,0.0,0.1,-0.30000000000000004,9.200000000000001,-2.5,0.7,1.0999999999999999,0.0
1698924291990.0,16,0.0,0.0,0.0,-0.2,9.200000000000001,-2.6,1.6,2.6,0.0
1698924292006.0,16,0.0,0.0,0.0,-0.2,9.200000000000001,-2.6,1.9,2.9,0.1
1698924292023.0,16,0.0,0.0,0.0,-0.30000000000000004,9.200000000000001,-2.6,2.1999999999999997,2.3000000000000003,0.1
1698924292039.0,16,0.0,0.0,-0.1,-0.2,9.1,-2.7,1.8,1.3,0.1
1698924292056.0,16,0.0,0.0,0.0,-0.2,9.1,-2.7,1.3,0.9,0.0
1698924292073.0,16,0.0,-0.1,0.0,-0.2,9.1,-2.7,0.6000000000000001,1.0999999999999999,0.0
1698924292089.0,16,0.0,0.0,-0.1,-0.2,9.1,-2.7,-0.1,1.5000000000000002,0.0
1698924292106.0,16,0.0,0.0,-0.1,-0.30000000000000004,9.200000000000001,-2.7,0.2,2.4000000000000004,0.30000000000000004
1698924292123.0,16,0.0,0.0,-0.1,-0.30000000000000004,9.200000000000001,-2.7,0.4,2.6,0.30000000000000004
1698924292139.0,16,0.0,0.0,-0.1,-0.2,9.200000000000001,-2.7,0.5,2.7,0.6000000000000001
1698924292157.0,16,0.0,0.0,0.0,-0.2,9.1,-2.7,0.2,2.6,0.6000000000000001
1698924292173.0,16,0.0,0.0,0.0,-0.2,9.200000000000001,-2.7,-0.2,2.1999999999999997,0.6000000000000001
1698924292189.0,16,0.0,0.1,0.1,-0.2,9.200000000000001,-2.5,0.5,1.5000000000000002,0.5
1698924292206.0,16,0.0,0.1,0.1,-0.2,9.200000000000001,-2.5,0.5,1.0,0.30000000000000004
1698924292223.0,16,0.0,0.0,0.2,-0.2,9.200000000000001,-2.5,0.5,0.6000000000000001,0.1
1698924292239.0,16,0.0,0.0,0.1,-0.2,9.200000000000001,-2.5,0.8,0.5,0.1
1698924292256.0,16,0.0,0.0,0.1,-0.2,9.200000000000001,-2.5,1.3,0.5,0.1
1698924292273.0,16,0.0,0.0,0.0,-0.2,9.200000000000001,-2.6,1.4,0.5,0.1
1698924292289.0,16,0.1,0.0,-0.1,-0.1,9.1,-2.7,1.4,0.7,0.0
1698924292306.0,16,0.1,-0.1,-0.1,-0.1,9.1,-2.7,1.4,1.0,-0.1
1698924292323.0,16,0.0,0.0,-0.1,-0.2,9.1,-2.8000000000000003,1.4,1.9,0.1
1698924292339.0,16,0.0,0.0,-0.1,-0.2,9.1,-2.7,1.4,1.6,0.1
1698924292363.0,16,0.0,0.0,0.0,-0.2,9.1,-2.7,1.5000000000000002,1.5000000000000002,0.2
1698924292372.0,16,0.0,0.0,0.1,-0.2,9.1,-2.6,1.7,1.7,0.0
1698924292389.0,16,0.0,0.0,0.1,-0.2,9.200000000000001,-2.6,1.9,1.8,0.0
1698924292406.0,16,0.0,0.0,0.1,-0.2,9.200000000000001,-2.6,2.1999999999999997,1.8,0.1
1698924292423.0,16,0.0,0.0,0.1,-0.2,9.200000000000001,-2.6,2.4000000000000004,1.3,0.2
1698924292439.0,16,-0.1,0.0,0.0,-0.2,9.1,-2.7,1.7,0.4,0.0
1698924292456.0,16,0.0,0.0,0.0,-0.2,9.1,-2.7,1.0999999999999999,0.1,0.1
1698924292472.0,16,0.0,0.0,-0.1,-0.2,9.1,-2.8000000000000003,0.8,-0.1,0.2
1698924292489.0,16,0.0,0.0,-0.1,-0.2,9.1,-2.8000000000000003,0.2,-0.2,0.2
1698924292505.0,16,0.0,0.0,-0.1,-0.2,9.1,-2.8000000000000003,-0.6000000000000001,-0.1,0.2
1698924292522.0,16,0.0,0.0,-0.1,-0.2,9.1,-2.8000000000000003,-0.9,0.0,0.2
1698924292539.0,16,0.0,0.0,-0.1,-0.2,9.1,-2.8000000000000003,-1.5000000000000002,-0.1,0.1
1698924292556.0,16,0.0,0.0,0.0,-0.2,9.1,-2.7,-1.7,-0.30000000000000004,0.30000000000000004
1698924292573.0,16,0.0,0.0,0.0,-0.2,9.1,-2.6,-1.5000000000000002,-0.1,0.30000000000000004
1698924292589.0,16,0.0,0.0,0.0,-0.2,9.200000000000001,-2.6,-1.5000000000000002,0.4,0.4
1698924292606.0,16,0.0,0.0,0.1,-0.2,9.200000000000001,-2.6,-0.9,0.30000000000000004,0.2
1698924292623.0,16,0.0,0.0,0.1,-0.2,9.200000000000001,-2.6,-0.6000000000000001,0.5,0.1
1698924292639.0,16,0.0,0.0,0.1,-0.2,9.200000000000001,-2.6,-0.1,0.4,-0.2
1698924292655.0,16,0.0,0.0,0.1,-0.2,9.200000000000001,-2.6,0.30000000000000004,0.30000000000000004,-0.1
1698924292672.0,16,0.0,0.0,0.0,-0.2,9.1,-2.6,0.7,0.30000000000000004,-0.1
1698924292689.0,16,0.0,0.0,0.0,-0.2,9.200000000000001,-2.6,0.8,0.4,0.0
1698924292706.0,16,0.0,0.0,0.0,-0.2,9.1,-2.6,0.8,0.2,0.0
1698924292723.0,16,0.0,0.0,0.0,-0.2,9.1,-2.7,0.8,0.2,-0.1
1698924292739.0,16,0.0,0.0,0.0,-0.2,9.1,-2.6,0.9,-0.1,-0.2
1698924292756.0,16,0.0,0.0,0.0,-0.2,9.1,-2.7,1.0,0.2,-0.1
1698924292773.0,16,0.0,0.0,0.0,-0.2,9.1,-2.7,1.0,0.2,-0.1
1698924292789.0,16,0.0,0.0,0.0,-0.2,9.1,-2.7,1.2000000000000002,0.2,-0.1
1698924292806.0,16,0.0,0.0,0.0,-0.2,9.1,-2.7,1.4,0.4,0.0
1698924292822.0,16,0.0,0.0,0.0,-0.2,9.200000000000001,-2.7,1.4,0.5,0.0
1698924292840.0,16,0.0,0.0,0.0,-0.2,9.1,-2.7,1.4,0.4,0.2
1698924292856.0,16,0.0,0.0,0.0,-0.2,9.1,-2.7,1.3,0.30000000000000004,0.1
1698924292873.0,16,0.0,0.0,0.0,-0.2,9.1,-2.7,1.2000000000000002,0.2,0.1
1698924292889.0,16,0.0,0.0,0.0,-0.2,9.1,-2.7,1.0,0.1,0.30000000000000004
1698924292906.0,16,0.0,0.0,0.0,-0.2,9.1,-2.7,0.6000000000000001,0.2,0.30000000000000004
1698924292923.0,16,0.0,0.0,0.0,-0.2,9.1,-2.7,0.0,0.30000000000000004,0.30000000000000004
1698924292939.0,16,0.0,0.0,0.0,-0.2,9.1,-2.7,0.0,0.4,0.30000000000000004
1698924292956.0,16,0.1,0.0,0.0,-0.1,9.1,-2.7,-0.30000000000000004,0.8,0.30000000000000004
1698924292973.0,16,0.1,0.0,0.0,-0.1,9.1,-2.7,-0.2,0.9,0.2
1698924292990.0,16,0.0,0.0,0.0,-0.1,9.200000000000001,-2.7,0.0,0.30000000000000004,0.0
1698924293006.0,16,0.0,0.0,0.0,-0.2,9.200000000000001,-2.7,0.0,0.1,0.1
1698924293022.0,16,0.0,0.0,0.0,-0.2,9.1,-2.7,0.0,-0.1,0.1
1698924293040.0,16,0.0,0.0,0.0,-0.2,9.1,-2.8000000000000003,0.0,-0.2,0.1
1698924293056.0,16,0.0,0.0,0.0,-0.2,9.1,-2.7,-0.4,-0.30000000000000004,0.2
1698924293072.0,16,0.0,0.0,-0.1,-0.1,9.1,-2.8000000000000003,-0.8,-0.30000000000000004,0.1
1698924293089.0,16,0.0,0.0,0.0,-0.1,9.1,-2.7,-0.9,-0.1,0.1
1698924293106.0,16,0.0,0.0,0.0,-0.1,9.1,-2.7,-1.0999999999999999,-0.30000000000000004,-0.1
1698924293122.0,16,0.0,0.0,0.0,-0.2,9.1,-2.7,-1.0,-0.2,-0.1
1698924293139.0,16,0.0,0.0,0.0,-0.2,9.1,-2.7,-0.8,-0.1,-0.1
1698924293156.0,16,0.0,0.0,0.0,-0.2,9.200000000000001,-2.7,-0.6000000000000001,0.1,0.0
1698924293173.0,16,0.0,0.0,0.1,-0.2,9.200000000000001,-2.6,-0.1,-0.30000000000000004,0.0
1698924293189.0,16,0.0,0.0,0.0,-0.2,9.200000000000001,-2.6,-0.2,-0.2,0.1
1698924293206.0,16,0.0,0.0,0.0,-0.2,9.1,-2.7,-0.4,-0.1,0.1
1698924293222.0,16,0.0,0.0,0.0,-0.2,9.200000000000001,-2.7,0.0,-0.1,0.1
1698924293239.0,16,0.0,0.0,0.1,-0.2,9.1,-2.6,0.1,-0.2,0.1
1698924293256.0,16,0.0,0.0,0.0,-0.2,9.200000000000001,-2.6,-0.1,-0.2,0.1
1698924293273.0,16,0.0,0.0,0.0,-0.1,9.1,-2.7,0.0,0.0,0.1
1698924293289.0,16,0.0,0.0,0.0,-0.2,9.1,-2.7,0.0,-0.1,0.2
1698924293307.0,16,0.0,0.0,0.0,-0.2,9.1,-2.7,0.2,0.2,0.0
1698924293323.0,16,0.0,0.0,0.0,-0.2,9.200000000000001,-2.7,0.8,0.5,0.2
1698924293340.0,16,0.0,0.0,0.0,-0.2,9.1,-2.7,0.8,0.4,0.2
1698924293356.0,16,0.0,0.0,0.0,-0.2,9.1,-2.7,0.6000000000000001,0.5,0.2
1698924293373.0,16,0.0,0.0,0.0,-0.2,9.200000000000001,-2.7,0.5,0.5,0.2
1698924293389.0,16,0.0,0.0,0.0,-0.2,9.1,-2.7,0.30000000000000004,0.5,0.1
1698924293407.0,16,0.0,0.0,0.0,-0.2,9.200000000000001,-2.7,0.5,0.2,0.30000000000000004
1698924293424.0,16,0.0,0.0,0.0,-0.2,9.1,-2.7,0.5,0.0,0.30000000000000004
1698924293439.0,16,0.0,0.0,0.0,-0.2,9.1,-2.7,-0.4,0.0,0.1
1698924293456.0,16,0.0,0.0,0.0,-0.2,9.200000000000001,-2.7,-0.4,0.1,0.30000000000000004
1698924293473.0,16,0.0,0.0,0.0,-0.2,9.1,-2.7,0.1,-0.1,0.5
1698924293489.0,16,0.0,0.0,0.0,-0.1,9.200000000000001,-2.7,-0.8,-0.1,0.0
1698924293505.0,16,0.0,0.1,0.0,-0.1,9.200000000000001,-2.7,-1.0999999999999999,-0.2,0.30000000000000004
1698924293522.0,16,0.0,0.0,0.0,-0.1,9.1,-2.7,-0.6000000000000001,-0.1,0.2
1698924293539.0,16,0.0,0.0,0.0,-0.2,9.1,-2.7,-0.9,-0.2,0.0
1698924293556.0,16,0.0,0.0,0.0,-0.1,9.200000000000001,-2.7,-0.9,-0.4,0.0
1698924293573.0,16,0.0,0.0,-0.1,-0.1,9.1,-2.8000000000000003,-1.5000000000000002,-0.5,0.0
1698924293589.0,16,0.0,0.0,-0.1,-0.1,9.1,-2.8000000000000003,-2.0,-0.7,-0.1
1698924293606.0,16,0.0,0.0,-0.1,-0.1,9.1,-2.8000000000000003,-3.4,-1.6,-0.2
1698924293623.0,16,0.0,0.0,-0.1,-0.2,9.1,-2.7,-5.1,-1.7,-0.4
1698924293639.0,16,0.0,0.0,0.0,-0.2,9.1,-2.6,-6.2,-1.6,-0.30000000000000004
1698924293656.0,16,0.0,0.0,0.0,-0.2,9.200000000000001,-2.6,-6.4,-1.5000000000000002,-0.30000000000000004
1698924293673.0,16,0.0,0.0,0.1,-0.2,9.200000000000001,-2.6,-6.1000000000000005,-1.4,-0.2
1698924293689.0,16,0.0,0.0,0.1,-0.2,9.200000000000001,-2.5,-5.500000000000001,-0.8,-0.2
1698924293706.0,16,0.0,0.0,0.1,-0.2,9.200000000000001,-2.5,-4.9,-0.7,-0.2
1698924293723.0,16,0.0,0.0,0.1,-0.2,9.200000000000001,-2.4000000000000004,-3.5,-0.6000000000000001,-0.1
1698924293739.0,16,0.0,0.0,0.1,-0.2,9.200000000000001,-2.4000000000000004,-2.0,-0.4,0.0
1698924293757.0,16,0.0,0.0,0.1,-0.2,9.200000000000001,-2.4000000000000004,-1.0999999999999999,-0.30000000000000004,0.1
1698924293773.0,16,0.0,0.0,0.1,-0.2,9.200000000000001,-2.4000000000000004,0.7,0.4,0.2
1698924293789.0,16,0.0,0.0,0.0,-0.2,9.200000000000001,-2.5,1.3,0.7,0.2
1698924293806.0,16,0.0,0.0,0.0,-0.2,9.200000000000001,-2.5,2.5,1.3,0.4
1698924293822.0,16,0.0,0.0,0.0,-0.2,9.1,-2.6,3.2,1.8,0.30000000000000004
1698924293839.0,16,0.0,0.0,0.0,-0.2,9.200000000000001,-2.5,3.9,2.1999999999999997,0.30000000000000004
1698924293856.0,16,0.0,0.0,0.1,-0.2,9.200000000000001,-2.5,4.2,2.1999999999999997,0.30000000000000004
1698924293873.0,16,0.0,0.0,0.0,-0.1,9.1,-2.6,3.9,2.1,0.30000000000000004
1698924293889.0,16,0.0,0.0,0.0,-0.1,9.200000000000001,-2.6,3.3000000000000003,1.3,0.1
1698924293906.0,16,0.0,0.0,-0.1,-0.2,9.200000000000001,-2.7,2.8,1.0,0.1
1698924293923.0,16,0.0,0.0,-0.1,-0.1,9.1,-2.7,2.0,1.0999999999999999,0.2
1698924293939.0,16,0.0,0.0,-0.1,-0.1,9.200000000000001,-2.8000000000000003,1.3,0.9,0.1
1698924293955.0,16,0.0,0.0,-0.1,-0.1,9.1,-2.8000000000000003,0.9,0.4,0.1
1698924293973.0,16,0.0,0.0,-0.1,-0.1,9.1,-2.7,0.2,-0.1,0.30000000000000004
1698924293989.0,16,0.0,0.0,-0.1,-0.2,9.1,-2.7,0.0,0.0,0.0
1698924294006.0,16,0.0,0.0,-0.1,-0.2,9.1,-2.7,-0.1,-0.1,0.2
1698924294023.0,16,0.0,0.0,0.0,-0.2,9.200000000000001,-2.7,-0.30000000000000004,-0.4,0.2
1698924294039.0,16,0.0,0.0,0.1,-0.1,9.200000000000001,-2.6,-0.30000000000000004,-0.4,0.0
1698924294056.0,16,0.0,0.0,0.1,-0.2,9.200000000000001,-2.6,-0.30000000000000004,-0.30000000000000004,0.0
1698924294073.0,16,0.0,0.0,0.0,-0.2,9.200000000000001,-2.6,-0.2,-0.1,0.0
1698924294089.0,16,0.0,0.0,0.0,-0.2,9.1,-2.7,-0.2,0.30000000000000004,0.2
1698924294106.0,16,0.0,0.0,0.0,-0.1,9.1,-2.7,-0.30000000000000004,0.5,0.2
1698924294122.0,16,0.0,0.0,0.0,-0.1,9.200000000000001,-2.7,-0.30000000000000004,0.4,0.1
1698924294139.0,16,0.0,0.0,0.0,-0.1,9.1,-2.6,-0.4,0.6000000000000001,0.0
1698924294156.0,16,0.0,0.0,0.1,-0.1,9.1,-2.6,-0.4,0.5,0.0
1698924294173.0,16,0.0,0.0,0.1,-0.2,9.200000000000001,-2.6,-0.8,0.5,0.1
1698924294189.0,16,0.0,0.0,0.1,-0.2,9.1,-2.6,-0.8,0.5,0.0
1698924294207.0,16,0.0,0.0,0.0,-0.1,9.200000000000001,-2.6,-0.8,0.4,0.0
1698924294222.0,16,0.0,0.0,0.0,-0.1,9.200000000000001,-2.6,-0.7,0.1,0.0
1698924294239.0,16,0.0,0.0,0.0,-0.1,9.200000000000001,-2.6,-0.7,-0.2,0.0
1698924294256.0,16,0.0,0.0,0.0,-0.2,9.200000000000001,-2.6,-0.4,0.0,0.0
1698924294273.0,16,0.0,0.0,0.0,-0.1,9.200000000000001,-2.6,-0.30000000000000004,0.30000000000000004,0.1
1698924294289.0,16,0.0,0.0,0.0,-0.1,9.200000000000001,-2.6,-0.1,0.0,0.0
1698924294306.0,16,0.0,0.0,0.0,-0.1,9.200000000000001,-2.6,-0.1,0.0,0.0
1698924294324.0,16,0.0,0.0,0.0,-0.2,9.200000000000001,-2.6,-0.1,0.1,0.1
1698924294339.0,16,0.0,0.0,0.0,-0.2,9.200000000000001,-2.6,-0.30000000000000004,0.1,0.1
1698924294356.0,16,0.0,0.0,0.1,-0.2,9.200000000000001,-2.5,0.30000000000000004,-0.1,0.1
1698924294372.0,16,0.0,0.0,0.0,-0.2,9.200000000000001,-2.6,0.2,0.0,0.1
1698924294389.0,16,0.0,0.0,0.0,-0.2,9.200000000000001,-2.6,0.8,0.2,0.2
1698924294406.0,16,0.0,0.0,0.0,-0.1,9.200000000000001,-2.7,1.0999999999999999,0.30000000000000004,0.1
1698924294423.0,16,0.0,0.0,0.0,-0.1,9.1,-2.7,1.0999999999999999,0.30000000000000004,0.1
1698924294439.0,16,0.0,0.0,-0.1,-0.1,9.1,-2.7,1.0,0.30000000000000004,0.1
1698924294456.0,16,0.0,0.0,0.0,-0.1,9.200000000000001,-2.6,0.7,0.1,0.1
1698924294473.0,16,0.0,0.0,0.0,-0.1,9.1,-2.6,0.7,0.30000000000000004,0.0
1698924294489.0,16,0.0,0.0,0.0,-0.1,9.200000000000001,-2.6,0.4,0.30000000000000004,0.0
1698924294506.0,16,0.0,0.0,0.0,-0.1,9.1,-2.7,0.30000000000000004,0.1,0.0
1698924294522.0,16,0.0,0.0,0.0,-0.1,9.1,-2.6,0.2,-0.1,-0.1
1698924294539.0,16,0.0,0.0,0.0,-0.1,9.200000000000001,-2.7,-0.30000000000000004,0.0,0.0
1698924294556.0,16,0.0,0.0,-0.1,-0.2,9.1,-2.7,-0.9,-0.2,-0.1
1698924294573.0,16,0.0,0.0,-0.1,-0.1,9.1,-2.7,-1.3,-0.4,-0.2
1698924294589.0,16,0.0,0.0,-0.1,-0.1,9.1,-2.7,-1.9,-0.4,-0.2
1698924294606.0,16,0.0,0.0,-0.2,-0.1,9.1,-2.8000000000000003,-3.3000000000000003,-1.7,-0.5
1698924294624.0,16,0.0,0.0,-0.1,-0.1,9.200000000000001,-2.7,-4.9,-2.7,-0.6000000000000001
1698924294639.0,16,0.0,0.0,0.0,-0.1,9.200000000000001,-2.7,-6.2,-3.2,-0.6000000000000001
1698924294655.0,16,0.0,-0.1,0.0,-0.2,9.1,-2.6,-9.600000000000001,-4.9,-1.0
1698924294673.0,16,0.0,-0.1,0.0,-0.2,9.1,-2.5,-11.3,-5.300000000000001,-1.0999999999999999
1698924294689.0,16,0.0,-0.1,-0.1,-0.2,9.1,-2.7,-16.1,-6.2,-1.3
1698924294705.0,16,-0.1,0.0,0.2,-0.2,9.200000000000001,-2.3000000000000003,-20.0,-6.7,-1.6
1698924294723.0,16,0.0,0.1,0.1,-0.2,9.3,-2.4000000000000004,-20.6,-6.000000000000001,-1.5000000000000002
1698924294739.0,16,0.0,0.0,0.0,-0.2,9.200000000000001,-2.4000000000000004,-21.400000000000002,-4.9,-1.2000000000000002
1698924294756.0,16,0.0,0.0,0.0,-0.2,9.3,-2.3000000000000003,-23.2,-4.3999999999999995,-1.3
1698924294772.0,16,0.0,0.0,0.0,-0.2,9.3,-2.3000000000000003,-24.400000000000002,-3.4,-1.3
1698924294789.0,16,0.0,0.1,0.1,-0.2,9.4,-2.1,-27.400000000000002,-2.3000000000000003,-1.7
1698924294806.0,16,0.0,0.1,0.0,-0.2,9.4,-2.1,-29.300000000000004,-2.0,-1.6
1698924294822.0,16,0.1,0.1,0.0,-0.2,9.4,-2.1,-30.5,-3.2,-1.8
1698924294839.0,16,0.0,0.1,-0.1,-0.2,9.4,-2.1,-32.1,-5.7,-1.7
1698924294856.0,16,0.1,0.0,-0.2,-0.1,9.4,-2.0,-34.50000000000001,-8.700000000000001,-2.0
1698924294873.0,16,0.1,0.0,-0.30000000000000004,-0.2,9.4,-2.1,-35.5,-12.8,-2.0
1698924294890.0,16,0.0,0.1,-0.4,-0.2,9.5,-2.1,-36.800000000000004,-14.600000000000001,-1.8
1698924294906.0,16,-0.1,0.5,-0.30000000000000004,-0.30000000000000004,10.0,-1.9000000000000001,-40.3,-17.200000000000003,0.1
1698924294922.0,16,0.0,1.1,-0.4,-0.30000000000000004,10.600000000000001,-1.8,-44.00000000000001,-19.500000000000004,6.4
1698924294940.0,16,0.2,1.9000000000000001,-0.4,-0.1,11.4,-1.8,-46.6,-21.1,13.9
1698924294956.0,16,0.2,3.2,-0.4,0.1,12.700000000000001,-1.6,-54.3,-19.0,32.1
1698924294972.0,16,0.2,3.1,-0.4,0.1,12.600000000000001,-1.5,-59.400000000000006,-15.5,36.9
1698924294989.0,16,-0.5,3.0,-0.30000000000000004,-0.5,12.600000000000001,-1.1,-73.9,-8.1,23.5
1698924295006.0,16,-0.7000000000000001,0.9,-0.9,-0.7000000000000001,10.5,-1.4000000000000001,-96.80000000000001,6.5,-0.6000000000000001
1698924295023.0,16,-0.6000000000000001,-0.1,-1.2000000000000002,-0.6000000000000001,9.5,-1.6,-103.4,7.8,-10.2
1698924295039.0,16,0.1,-0.2,-1.7000000000000002,0.1,9.4,-1.8,-109.8,5.1,-21.8
1698924295056.0,16,0.5,0.2,-1.3,0.4,9.8,-1.0,-112.3,8.9,-19.500000000000004
1698924295072.0,16,0.6000000000000001,0.6000000000000001,-1.3,0.4,10.200000000000001,-0.8,-110.10000000000001,7.300000000000001,-13.5
1698924295090.0,16,0.30000000000000004,1.0,-1.2000000000000002,0.1,10.600000000000001,-0.30000000000000004,-109.60000000000001,6.000000000000001,-2.0
1698924295109.0,16,0.0,1.1,-1.2000000000000002,-0.2,10.700000000000001,0.0,-110.60000000000001,2.9,-1.5000000000000002
1698924295122.0,16,0.0,1.0,-1.3,-0.2,10.600000000000001,0.1,-112.2,1.5000000000000002,-3.8
1698924295139.0,16,-0.1,1.0,-1.7000000000000002,-0.30000000000000004,10.5,0.1,-111.4,2.9,-8.4
1698924295155.0,16,-0.1,0.8,-2.0,-0.4,10.3,0.1,-117.89999999999999,7.6,-12.9
1698924295173.0,16,0.0,0.8,-2.1,-0.30000000000000004,10.200000000000001,0.2,-121.5,4.0,-14.600000000000001
1698924295189.0,16,0.0,0.9,-2.4000000000000004,-0.30000000000000004,10.200000000000001,0.30000000000000004,-123.4,2.5,-16.8
1698924295206.0,16,0.0,0.9,-2.8000000000000003,-0.30000000000000004,10.100000000000001,0.1,-125.10000000000001,2.8,-17.3
1698924295223.0,16,0.6000000000000001,0.8,-2.7,0.2,9.8,0.8,-122.10000000000001,9.600000000000001,-16.8
1698924295239.0,16,0.7000000000000001,1.0,-2.6,0.2,10.0,1.0,-116.4,9.3,-17.3
1698924295256.0,16,1.0,1.6,-1.9000000000000001,0.4,10.4,2.0,-99.4,10.700000000000001,-16.2
1698924295273.0,16,1.1,2.5,-0.4,0.5,11.200000000000001,3.7,-72.2,7.400000000000001,-12.3
1698924295289.0,16,1.2000000000000002,2.6,1.0,0.6000000000000001,11.3,5.2,-67.80000000000001,7.0,-7.8
1698924295306.0,16,0.7000000000000001,2.5,1.4000000000000001,0.1,11.100000000000001,5.800000000000001,-59.80000000000001,7.300000000000001,0.5
1698924295322.0,16,0.1,1.5,2.0,-0.6000000000000001,10.0,6.7,-73.30000000000001,14.600000000000001,1.3
1698924295340.0,16,-0.1,1.1,2.4000000000000004,-0.7000000000000001,9.600000000000001,7.2,-83.50000000000001,13.9,-2.7
1698924295356.0,16,-0.4,0.5,2.7,-1.1,8.8,7.800000000000001,-104.4,14.3,-9.0
1698924295373.0,16,-0.4,-0.5,2.1,-1.1,8.200000000000001,7.9,-108.7,18.1,-5.6
1698924295389.0,16,-0.4,-1.0,1.6,-1.2000000000000002,7.0,7.2,-102.4,19.3,-2.7
1698924295406.0,16,-0.2,-2.0,0.8,-1.1,5.800000000000001,6.6000000000000005,-80.2,20.0,1.4
1698924295423.0,16,-0.30000000000000004,-2.0,0.6000000000000001,-0.9,5.9,6.7,-66.5,16.900000000000002,3.0000000000000004
1698924295440.0,16,-0.4,-2.9000000000000004,0.7000000000000001,-1.2000000000000002,4.7,6.7,-36.9,10.1,7.300000000000001
1698924295456.0,16,-0.5,-2.4000000000000004,1.3,-1.3,5.1000000000000005,7.300000000000001,-14.100000000000001,3.1,17.400000000000002
1698924295473.0,16,-0.5,-1.8,1.4000000000000001,-1.3,5.7,7.5,-8.3,1.2000000000000002,18.400000000000002
1698924295490.0,16,-0.30000000000000004,-1.0,1.7000000000000002,-1.0,6.5,7.800000000000001,-9.4,1.0,17.9
1698924295506.0,16,-0.2,-0.2,1.7000000000000002,-0.9,7.300000000000001,7.9,-10.9,3.3000000000000003,21.3
1698924295523.0,16,-0.1,0.2,1.5,-0.8,7.7,7.7,-9.700000000000001,4.300000000000001,22.3
1698924295539.0,16,0.0,0.30000000000000004,1.2000000000000002,-0.7000000000000001,7.800000000000001,7.4,-4.9,4.800000000000001,20.2
1698924295556.0,16,-0.30000000000000004,0.0,1.3,-0.9,7.5,7.5,2.1,6.8,17.3
1698924295573.0,16,-0.4,-0.4,1.2000000000000002,-1.0,7.2,7.5,10.2,8.700000000000001,15.2
1698924295589.0,16,-0.30000000000000004,-0.4,1.1,-0.9,7.1000000000000005,7.300000000000001,12.100000000000001,7.400000000000001,14.0
1698924295606.0,16,-0.2,-0.30000000000000004,0.8,-0.7000000000000001,7.300000000000001,7.0,9.9,7.1000000000000005,11.9
1698924295622.0,16,-0.30000000000000004,-0.30000000000000004,0.8,-0.8,7.300000000000001,7.0,7.699999999999999,8.3,11.6
1698924295639.0,16,-0.4,-0.2,0.8,-1.0,7.4,7.0,11.6,8.3,13.6
1698924295656.0,16,-0.5,-0.30000000000000004,0.7000000000000001,-1.1,7.300000000000001,6.800000000000001,15.7,7.8,13.700000000000001
1698924295673.0,16,-0.4,-0.5,0.6000000000000001,-0.9,7.2,6.6000000000000005,22.2,6.7,14.200000000000001
1698924295689.0,16,-0.4,-0.6000000000000001,0.6000000000000001,-0.9,7.1000000000000005,6.7,24.6,7.6,13.6
1698924295706.0,16,-0.2,-0.6000000000000001,0.5,-0.7000000000000001,7.1000000000000005,6.5,29.000000000000004,7.400000000000001,13.100000000000001
1698924295723.0,16,-0.2,-0.5,0.5,-0.7000000000000001,7.2,6.4,30.7,5.4,13.3
1698924295739.0,16,-0.2,-0.4,0.4,-0.6000000000000001,7.4,6.300000000000001,33.7,3.6,15.100000000000001
1698924295757.0,16,-0.2,-0.4,0.30000000000000004,-0.6000000000000001,7.5,6.1000000000000005,34.800000000000004,2.0,16.1
1698924295773.0,16,-0.30000000000000004,-0.5,0.30000000000000004,-0.7000000000000001,7.5,5.9,36.2,3.5,15.7
1698924295789.0,16,-0.30000000000000004,-0.5,0.2,-0.7000000000000001,7.5,5.800000000000001,36.7,3.6,14.700000000000001
1698924295806.0,16,-0.2,-0.7000000000000001,0.0,-0.6000000000000001,7.4,5.5,37.1,6.6000000000000005,11.1
1698924295822.0,16,-0.1,-1.0,-0.2,-0.5,7.2,5.2,38.400000000000006,11.3,8.5
1698924295839.0,16,-0.1,-1.4000000000000001,-0.4,-0.4,6.800000000000001,4.9,41.6,11.700000000000001,8.4
1698924295856.0,16,-0.1,-1.6,-0.6000000000000001,-0.5,6.6000000000000005,4.6000000000000005,42.800000000000004,11.000000000000002,9.0
1698924295872.0,16,-0.2,-1.9000000000000001,-0.7000000000000001,-0.5,6.4,4.3,44.6,11.5,10.0
1698924295889.0,16,-0.4,-2.3000000000000003,-0.7000000000000001,-0.7000000000000001,6.1000000000000005,4.2,48.6,15.399999999999999,10.600000000000001
1698924295907.0,16,-0.4,-2.4000000000000004,-1.0,-0.7000000000000001,6.0,3.8000000000000003,51.300000000000004,14.800000000000002,11.2
1698924295923.0,16,-0.30000000000000004,-2.6,-1.3,-0.6000000000000001,5.800000000000001,3.3000000000000003,52.6,9.3,11.6
1698924295939.0,16,-0.4,-2.9000000000000004,-1.4000000000000001,-0.7000000000000001,5.6000000000000005,3.1,52.50000000000001,4.800000000000001,11.700000000000001
1698924295956.0,16,-0.4,-3.1,-1.4000000000000001,-0.7000000000000001,5.5,3.1,52.1,2.6,12.700000000000001
1698924295973.0,16,-0.6000000000000001,-3.5,-0.9,-0.9,5.1000000000000005,3.4000000000000004,52.400000000000006,1.9,15.000000000000002
1698924295989.0,16,-0.6000000000000001,-3.8000000000000003,-0.7000000000000001,-0.8,4.9,3.5,54.9,2.5,16.700000000000003
1698924296006.0,16,-0.7000000000000001,-4.2,-1.0,-0.9,4.5,3.0,60.7,-0.4,16.900000000000002
1698924296023.0,16,-0.9,-4.3,-0.9,-1.0,4.4,2.9000000000000004,61.7,-5.300000000000001,14.3
1698924296040.0,16,-0.8,-4.1000000000000005,-0.7000000000000001,-0.9,4.6000000000000005,3.0,62.50000000000001,-7.2,12.5
1698924296056.0,16,-0.5,-3.5,-0.4,-0.6000000000000001,5.300000000000001,3.1,64.50000000000001,-9.8,8.1
1698924296075.0,16,-0.2,-2.8000000000000003,0.1,-0.2,6.1000000000000005,3.4000000000000004,63.300000000000004,-10.700000000000001,6.4
1698924296090.0,16,0.1,-2.1,0.8,0.1,6.800000000000001,3.9000000000000004,61.300000000000004,-16.3,8.0
1698924296106.0,16,0.0,-1.6,1.1,0.0,7.300000000000001,4.1000000000000005,56.300000000000004,-18.900000000000002,10.600000000000001
1698924296123.0,16,-0.1,-0.4,1.3,0.0,8.6,4.2,51.7,-19.500000000000004,11.3
1698924296139.0,16,0.0,0.2,1.3,0.1,9.200000000000001,4.1000000000000005,45.5,-20.3,10.5
1698924296156.0,16,0.4,1.2000000000000002,1.2000000000000002,0.6000000000000001,10.200000000000001,3.9000000000000004,32.300000000000004,-23.400000000000002,6.000000000000001
1698924296173.0,16,0.7000000000000001,1.6,1.1,0.9,10.700000000000001,3.8000000000000003,22.3,-20.900000000000002,-0.30000000000000004
1698924296189.0,16,0.7000000000000001,1.0,0.9,0.9,10.100000000000001,3.5,15.100000000000001,-13.200000000000001,-3.8
1698924296205.0,16,1.0,0.1,0.7000000000000001,1.1,9.200000000000001,3.2,10.5,-6.9,-6.1000000000000005
1698924296222.0,16,1.2000000000000002,0.1,0.6000000000000001,1.3,9.200000000000001,3.2,9.1,-4.5,-7.400000000000001
1698924296239.0,16,1.4000000000000001,0.1,0.6000000000000001,1.6,9.3,3.1,7.6,-0.4,-9.8
1698924296255.0,16,1.4000000000000001,0.4,0.6000000000000001,1.5,9.600000000000001,3.1,4.3999999999999995,7.300000000000001,-9.9
1698924296273.0,16,1.3,0.7000000000000001,0.5,1.4000000000000001,9.8,3.0,2.4000000000000004,9.9,-8.9
1698924296289.0,16,1.1,0.8,0.6000000000000001,1.2000000000000002,9.9,3.1,-0.8,10.700000000000001,-3.9
1698924296306.0,16,0.8,0.4,0.6000000000000001,0.9,9.600000000000001,3.1,-2.5,9.5,2.1999999999999997
1698924296324.0,16,0.6000000000000001,0.0,0.5,0.8,9.1,3.0,-4.1000000000000005,9.600000000000001,4.2
1698924296339.0,16,0.30000000000000004,-0.6000000000000001,0.6000000000000001,0.4,8.5,3.2,-8.0,8.5,5.0
1698924296356.0,16,0.2,-0.7000000000000001,0.6000000000000001,0.30000000000000004,8.5,3.2,-8.4,7.0,4.6000000000000005
1698924296375.0,16,0.30000000000000004,-0.6000000000000001,0.5,0.5,8.6,3.1,-8.3,1.4,3.7000000000000006
1698924296389.0,16,0.6000000000000001,-0.8,0.2,0.8,8.4,2.9000000000000004,-8.4,-4.6000000000000005,3.3000000000000003
1698924296407.0,16,0.8,-0.9,0.1,0.8,8.200000000000001,2.8000000000000003,-8.600000000000001,-6.9,3.1
1698924296423.0,16,0.8,-0.9,0.0,1.1,8.200000000000001,2.7,-6.2,-8.5,2.7
1698924296439.0,16,0.8,-0.8,0.0,1.1,8.200000000000001,2.7,-0.8,-11.2,2.4000000000000004
1698924296456.0,16,0.7000000000000001,-0.5,-0.1,1.0,8.6,2.6,2.1999999999999997,-11.8,1.6
1698924296473.0,16,0.5,-0.30000000000000004,-0.1,0.8,8.8,2.6,8.1,-13.3,-1.6
1698924296489.0,16,0.30000000000000004,0.1,0.2,0.5,9.200000000000001,2.9000000000000004,14.700000000000001,-14.900000000000002,-3.8
1698924296506.0,16,0.1,0.4,0.4,0.4,9.5,3.0,17.5,-12.700000000000001,-4.6000000000000005
1698924296523.0,16,0.0,0.7000000000000001,0.6000000000000001,0.2,9.8,3.2,21.0,-2.9,-7.400000000000001
1698924296539.0,16,0.0,0.7000000000000001,0.8,0.2,9.9,3.3000000000000003,21.8,1.3,-9.600000000000001
1698924296556.0,16,0.30000000000000004,0.0,1.1,0.4,9.200000000000001,3.5,20.3,4.800000000000001,-13.0
1698924296573.0,16,0.4,-0.1,0.8,0.5,9.1,3.2,17.400000000000002,4.6000000000000005,-11.8
1698924296589.0,16,0.0,-0.4,0.0,0.1,8.8,2.3000000000000003,3.8,1.3,-6.4
1698924296606.0,16,-0.7000000000000001,-0.8,-0.4,-0.30000000000000004,8.5,2.1,-14.200000000000001,-0.9,1.2000000000000002
1698924296622.0,16,-1.0,-0.9,-0.6000000000000001,-0.9,8.3,1.9000000000000001,-19.8,-3.0000000000000004,3.9
1698924296639.0,16,-1.3,-0.9,-1.0,-1.2000000000000002,8.200000000000001,1.5,-24.6,-12.100000000000001,5.1
1698924296657.0,16,-1.3,-0.5,-1.3,-1.1,8.3,1.4000000000000001,-25.0,-17.200000000000003,4.2
1698924296673.0,16,-1.3,-0.1,-1.4000000000000001,-1.1,9.0,1.2000000000000002,-25.1,-25.2,2.4000000000000004
1698924296689.0,16,-1.1,0.9,-1.4000000000000001,-0.9,10.0,1.2000000000000002,-24.000000000000004,-24.000000000000004,-0.30000000000000004
1698924296706.0,16,-0.8,1.3,-1.5,-0.7000000000000001,10.4,1.2000000000000002,-22.6,-20.5,-2.5
1698924296723.0,16,-0.4,1.7000000000000002,-1.5,-0.30000000000000004,10.700000000000001,1.2000000000000002,-19.200000000000003,-12.200000000000001,-8.3
1698924296739.0,16,-0.2,1.8,-1.2000000000000002,-0.1,10.9,1.6,-13.0,-1.7,-13.0
1698924296756.0,16,0.0,1.8,-1.2000000000000002,0.1,10.9,1.5,-8.1,5.1,-14.900000000000002
1698924296773.0,16,0.2,1.3,-1.7000000000000002,0.30000000000000004,10.4,1.1,-1.5000000000000002,13.700000000000001,-15.8
1698924296789.0,16,0.2,0.4,-1.4000000000000001,0.2,9.5,1.4000000000000001,1.0,17.200000000000003,-9.700000000000001
1698924296806.0,16,0.1,0.1,-1.3,0.1,9.200000000000001,1.5,3.0000000000000004,19.500000000000004,-5.300000000000001
1698924296824.0,16,-0.2,-0.30000000000000004,-1.5,-0.30000000000000004,8.8,1.2000000000000002,5.300000000000001,24.7,-0.6000000000000001
1698924296839.0,16,-0.5,-0.4,-1.7000000000000002,-0.6000000000000001,8.700000000000001,1.0,2.1999999999999997,22.900000000000002,0.30000000000000004
1698924296855.0,16,-0.6000000000000001,-0.30000000000000004,-1.7000000000000002,-0.7000000000000001,8.8,1.0,-5.2,20.0,-0.5
1698924296873.0,16,-0.6000000000000001,-0.2,-1.7000000000000002,-0.7000000000000001,8.9,1.0,-9.4,18.8,-1.0
1698924296890.0,16,-0.5,-0.1,-2.1,-0.6000000000000001,8.9,0.6000000000000001,-18.900000000000002,12.9,-0.2
1698924296905.0,16,-0.5,-0.30000000000000004,-2.2,-0.7000000000000001,8.8,0.6000000000000001,-29.1,7.9,4.300000000000001
1698924296923.0,16,-0.8,-0.4,-2.3000000000000003,-0.8,8.6,0.6000000000000001,-33.300000000000004,7.1000000000000005,7.2
1698924296939.0,16,-1.0,-0.4,-2.2,-1.1,8.6,0.7000000000000001,-39.400000000000006,4.0,13.8
1698924296956.0,16,-1.4000000000000001,-0.30000000000000004,-2.0,-1.4000000000000001,8.6,1.1,-40.1,0.9,17.0
1698924296973.0,16,-1.4000000000000001,-0.1,-1.9000000000000001,-1.5,8.8,1.3,-37.4,-0.1,16.5
1698924296989.0,16,-1.1,0.4,-1.6,-1.1,9.3,1.6,-27.3,-1.0,8.0
1698924297007.0,16,-0.6000000000000001,0.9,-1.7000000000000002,-0.7000000000000001,9.8,1.6,-12.000000000000002,2.1,-5.7
1698924297023.0,16,-0.30000000000000004,0.9,-2.0,-0.30000000000000004,9.8,1.2000000000000002,-5.4,2.5,-10.600000000000001
1698924297039.0,16,0.1,0.5,-2.3000000000000003,0.0,9.4,0.9,1.3,-2.0,-10.600000000000001
1698924297056.0,16,-0.2,0.6000000000000001,-1.2000000000000002,-0.30000000000000004,9.5,2.0,4.9,0.5,-1.4
1698924297073.0,16,-0.5,1.4000000000000001,0.0,-0.6000000000000001,10.3,3.1,14.200000000000001,8.700000000000001,1.9
1698924297090.0,16,-0.30000000000000004,3.0,0.1,-0.5,12.0,3.1,46.900000000000006,23.6,-5.2
1698924297109.0,16,0.0,2.9000000000000004,-0.5,-0.2,11.9,2.3000000000000003,63.800000000000004,26.500000000000004,-20.1
1698924297123.0,16,0.30000000000000004,2.7,-0.1,0.0,11.8,2.6,63.6,31.099999999999998,-22.5
1698924297139.0,16,0.1,2.2,-0.8,-0.30000000000000004,11.4,1.8,54.1,42.900000000000006,-16.1
1698924297156.0,16,0.0,1.5,-1.6,-0.4,10.700000000000001,0.8,18.2,37.5,1.2000000000000002
1698924297172.0,16,-0.30000000000000004,1.7000000000000002,-0.7000000000000001,-0.7000000000000001,10.9,1.7000000000000002,-2.0,36.9,9.600000000000001
1698924297190.0,16,-0.8,3.2,0.6000000000000001,-1.2000000000000002,12.4,3.0,-13.9,42.1,18.900000000000002
1698924297206.0,16,-0.7000000000000001,3.2,1.2000000000000002,-1.1,12.4,3.7,2.8,28.700000000000003,14.200000000000001
1698924297222.0,16,-0.5,2.4000000000000004,1.4000000000000001,-0.9,11.700000000000001,3.9000000000000004,16.900000000000002,22.000000000000004,8.799999999999999
1698924297239.0,16,0.0,0.7000000000000001,1.6,-0.4,10.0,3.9000000000000004,41.4,3.1,3.2
1698924297256.0,16,-0.6000000000000001,-0.1,2.8000000000000003,-1.0,9.3,5.0,58.7,-8.4,3.6
1698924297274.0,16,-1.6,-0.5,2.9000000000000004,-1.9000000000000001,8.9,4.9,62.900000000000006,-9.4,2.8
1698924297289.0,16,-1.9000000000000001,-0.9,2.6,-2.2,8.5,4.6000000000000005,54.9,-8.4,-0.30000000000000004
1698924297306.0,16,-1.7000000000000002,-1.6,2.0,-2.1,7.800000000000001,3.9000000000000004,23.0,-9.4,-10.700000000000001
1698924297323.0,16,-1.2000000000000002,-1.5,2.0,-1.6,8.0,3.9000000000000004,4.1000000000000005,-13.6,-15.9
1698924297339.0,16,0.2,-0.5,1.5,-0.30000000000000004,8.9,3.5,-21.700000000000003,-21.200000000000003,-18.5
1698924297356.0,16,0.9,-0.5,0.8,0.4,8.9,2.8000000000000003,-32.800000000000004,-29.000000000000004,-12.200000000000001
1698924297374.0,16,1.1,-1.4000000000000001,0.4,0.6000000000000001,7.9,2.6,-32.9,-31.900000000000002,-2.5
1698924297389.0,16,1.1,-1.9000000000000001,0.2,0.6000000000000001,7.4,2.5,-29.200000000000003,-32.9,1.5000000000000002
1698924297406.0,16,0.7000000000000001,-2.2,0.2,0.30000000000000004,7.0,2.5,-17.400000000000002,-36.7,5.6
1698924297422.0,16,0.5,-2.1,0.1,0.1,7.1000000000000005,2.4000000000000004,-1.9,-35.7,4.6000000000000005
1698924297439.0,16,0.30000000000000004,-2.0,0.0,0.0,7.2,2.3000000000000003,4.7,-34.400000000000006,3.0000000000000004
1698924297456.0,16,0.2,-1.7000000000000002,0.0,-0.1,7.6000000000000005,2.3000000000000003,14.500000000000002,-34.400000000000006,0.0
1698924297472.0,16,0.5,-1.4000000000000001,-0.1,0.2,7.800000000000001,2.1,18.3,-35.9,-1.5000000000000002
1698924297489.0,16,0.7000000000000001,-1.5,0.0,0.4,7.800000000000001,2.2,17.400000000000002,-36.4,-1.9
1698924297507.0,16,1.1,-1.4000000000000001,-0.1,0.9,7.9,2.1,13.700000000000001,-33.900000000000006,-1.6
1698924297523.0,16,1.3,-1.0,-0.1,1.0,8.0,2.0,10.4,-32.800000000000004,-1.0999999999999999
1698924297539.0,16,1.4000000000000001,-0.7000000000000001,-0.4,1.1,8.5,1.9000000000000001,3.2,-26.700000000000003,0.0
1698924297555.0,16,1.4000000000000001,-0.7000000000000001,-0.6000000000000001,1.2000000000000002,8.6,1.6,-2.9,-16.2,-2.1999999999999997
1698924297573.0,16,1.3,-1.0,-0.9,1.1,8.200000000000001,1.3,-8.5,-3.9,-5.9
1698924297590.0,16,1.2000000000000002,-1.2000000000000002,-0.9,1.0,8.0,1.2000000000000002,-10.5,0.1,-6.9
1698924297608.0,16,1.1,-1.5,-1.1,0.9,7.7,1.1,-11.8,4.3999999999999995,-6.6000000000000005
1698924297623.0,16,1.0,-1.4000000000000001,-1.3,0.8,7.7,0.9,-11.9,7.1000000000000005,-5.7
1698924297640.0,16,0.9,-1.3,-1.3,0.7000000000000001,7.800000000000001,0.9,-11.1,9.3,-5.300000000000001
1698924297656.0,16,0.9,-0.8,-1.3,0.6000000000000001,8.3,0.9,-7.699999999999999,13.100000000000001,-5.300000000000001
1698924297673.0,16,0.6000000000000001,0.0,-1.2000000000000002,0.5,8.700000000000001,0.9,-4.5,12.8,-5.300000000000001
1698924297689.0,16,0.5,0.4,-1.0,0.30000000000000004,9.600000000000001,1.2000000000000002,3.6,8.4,-2.5
1698924297707.0,16,0.30000000000000004,1.3,-0.30000000000000004,0.0,10.4,1.8,16.8,0.8,2.9
1698924297723.0,16,0.0,1.5,-0.4,-0.30000000000000004,10.700000000000001,1.7000000000000002,33.2,-2.3000000000000003,8.1
1698924297739.0,16,0.1,1.1,-0.7000000000000001,-0.2,10.5,1.3,36.2,-3.4,9.600000000000001
1698924297756.0,16,0.30000000000000004,1.0,-0.8,0.1,10.3,1.1,29.400000000000002,-0.9,7.8
1698924297772.0,16,1.1,1.2000000000000002,-1.3,0.9,10.5,0.6000000000000001,11.700000000000001,0.4,3.4
1698924297789.0,16,1.4000000000000001,2.1,-1.1,1.2000000000000002,11.3,0.7000000000000001,-12.5,0.4,-1.6
1698924297806.0,16,1.2000000000000002,3.0,-0.5,1.0,12.3,1.4000000000000001,-20.5,7.300000000000001,-1.0999999999999999
1698924297837.0,16,1.1,4.0,-0.9,1.0,13.3,1.1,-24.200000000000003,-5.7,12.4
1698924297839.0,16,1.0,3.2,0.0,1.0,13.3,1.1,-22.7,-8.5,18.5
1698924297857.0,16,0.6000000000000001,2.4000000000000004,0.5,0.6000000000000001,11.700000000000001,2.5,-14.500000000000002,-4.2,23.6
1698924297873.0,16,-0.1,1.8,0.7000000000000001,0.0,11.100000000000001,2.7,10.700000000000001,-5.1,22.4
1698924297889.0,16,-0.9,1.5,1.2000000000000002,-0.8,10.9,3.1,40.1,-0.5,12.000000000000002
1698924297906.0,16,-0.7000000000000001,0.9,1.4000000000000001,-0.6000000000000001,10.200000000000001,3.3000000000000003,55.300000000000004,0.2,7.699999999999999
1698924297922.0,16,-0.2,-1.0,2.1,0.0,8.5,3.8000000000000003,85.0,-7.0,1.3
1698924297939.0,16,0.1,-1.5,2.5,0.2,8.0,3.9000000000000004,96.9,-6.1000000000000005,0.30000000000000004
1698924297957.0,16,0.2,-1.3,2.7,0.30000000000000004,8.200000000000001,3.9000000000000004,107.6,0.0,2.9
1698924297973.0,16,0.1,-0.1,3.5,0.2,9.4,4.3,98.6,1.6,8.9
1698924297989.0,16,-0.4,0.30000000000000004,2.8000000000000003,-0.2,9.9,3.4000000000000004,64.30000000000001,3.8,12.9
1698924298006.0,16,-0.4,0.30000000000000004,2.4000000000000004,-0.2,9.8,3.0,37.2,4.7,13.3
1698924298023.0,16,-0.30000000000000004,0.30000000000000004,2.1,-0.1,9.9,2.6,8.3,3.8,11.9
1698924298039.0,16,-0.4,0.2,1.6,-0.1,9.8,2.3000000000000003,-36.5,-2.4000000000000004,7.300000000000001
1698924298056.0,16,-0.5,0.2,1.4000000000000001,-0.2,9.700000000000001,2.3000000000000003,-55.1,0.4,9.1
1698924298073.0,16,-1.0,-0.2,0.9,-0.7000000000000001,9.3,1.9000000000000001,-58.2,-2.1,14.0
1698924298090.0,16,-1.4000000000000001,-0.4,0.7000000000000001,-1.0,9.0,1.9000000000000001,-53.300000000000004,-9.8,18.2
1698924298107.0,16,-1.5,-0.5,0.6000000000000001,-1.1,9.0,1.9000000000000001,-48.2,-12.4,18.2
1698924298123.0,16,-1.6,-0.6000000000000001,0.4,-1.1,8.8,1.9000000000000001,-36.3,-12.700000000000001,13.100000000000001
1698924298139.0,16,-1.5,-0.7000000000000001,0.30000000000000004,-1.1,8.700000000000001,1.8,-30.799999999999997,-13.100000000000001,8.4
1698924298156.0,16,-1.5,-1.0,0.2,-1.1,8.4,1.8,-20.1,-15.2,-2.3000000000000003
1698924298173.0,16,-1.5,-1.3,0.0,-1.1,8.1,1.6,-10.0,-16.8,-10.4
1698924298189.0,16,-1.2000000000000002,-1.6,-0.30000000000000004,-0.8,7.800000000000001,1.3,-3.8,-19.0,-15.5
1698924298205.0,16,-0.9,-1.8,-0.5,-0.6000000000000001,7.6000000000000005,1.1,-2.9,-20.900000000000002,-17.599999999999998
1698924298223.0,16,-0.5,-1.9000000000000001,-0.6000000000000001,-0.30000000000000004,7.5,1.0,-3.9,-25.6,-19.6
1698924298239.0,16,-0.30000000000000004,-1.9000000000000001,-0.7000000000000001,-0.1,7.5,0.9,-7.500000000000001,-30.100000000000005,-18.0
1698924298256.0,16,-0.2,-1.8,-0.8,0.0,7.5,0.9,-9.9,-32.0,-15.399999999999999
1698924298273.0,16,-0.2,-1.7000000000000002,-0.9,0.0,7.6000000000000005,0.8,-15.7,-35.0,-8.200000000000001
1698924298289.0,16,-0.2,-1.5,-1.1,0.0,7.7,0.6000000000000001,-23.2,-36.4,-0.6000000000000001
1698924298306.0,16,-0.2,-1.4000000000000001,-1.2000000000000002,0.0,7.9,0.6000000000000001,-26.8,-39.9,1.8
1698924298323.0,16,-0.30000000000000004,-1.1,-1.4000000000000001,0.0,8.1,0.5,-34.1,-46.4,3.4
1698924298339.0,16,-0.5,-0.9,-1.3,-0.2,8.3,0.6000000000000001,-40.6,-45.3,2.3000000000000003
1698924298356.0,16,-0.4,-0.5,-1.3,-0.2,8.5,0.7000000000000001,-44.3,-38.300000000000004,0.8
1698924298373.0,16,-0.30000000000000004,-0.4,-1.2000000000000002,0.0,8.8,1.0,-43.800000000000004,-35.5,-0.7
1698924298389.0,16,0.0,-0.30000000000000004,-0.8,0.30000000000000004,8.8,1.5,-37.1,-32.9,-3.0000000000000004
1698924298405.0,16,0.4,-0.1,-0.30000000000000004,0.8,9.0,2.0,-21.400000000000002,-25.1,-3.6
1698924298422.0,16,0.6000000000000001,0.2,-0.4,1.0,9.200000000000001,2.0,-11.6,-17.8,-4.2
1698924298439.0,16,0.6000000000000001,0.9,-1.3,0.9,10.0,1.1,3.2,-7.0,-5.4
1698924298455.0,16,0.2,1.4000000000000001,-1.8,0.8,10.3,0.7000000000000001,5.4,-5.7,-4.800000000000001
1698924298472.0,16,0.0,1.4000000000000001,-1.9000000000000001,0.4,10.600000000000001,0.4,2.5,-6.000000000000001,-0.7
1698924298490.0,16,-0.4,1.8,-1.9000000000000001,0.0,10.9,0.4,-4.5,-2.1999999999999997,3.5
1698924298505.0,16,-0.5,3.0,-0.5,-0.2,12.200000000000001,1.9000000000000001,-5.9,7.1000000000000005,3.1
1698924298522.0,16,-0.30000000000000004,3.9000000000000004,0.2,0.1,13.0,2.5,1.7,16.8,-1.2000000000000002
1698924298539.0,16,0.0,4.9,-0.1,0.30000000000000004,14.100000000000001,2.1,22.4,38.300000000000004,-15.2
1698924298555.0,16,0.4,4.4,0.8,0.7000000000000001,13.700000000000001,3.0,41.300000000000004,34.900000000000006,-22.3
1698924298572.0,16,0.7000000000000001,3.3000000000000003,1.8,0.8,12.700000000000001,3.9000000000000004,57.3,25.1,-21.1
1698924298589.0,16,0.8,1.4000000000000001,2.6,0.9,10.8,4.4,96.9,20.3,-12.3
1698924298606.0,16,0.2,0.1,1.9000000000000001,0.6000000000000001,10.100000000000001,3.9000000000000004,114.00000000000001,20.4,-7.699999999999999
1698924298622.0,16,-0.30000000000000004,-0.4,1.9000000000000001,-0.30000000000000004,9.1,3.1,128.9,8.799999999999999,-3.2
1698924298639.0,16,-1.0,-0.7000000000000001,3.3000000000000003,-0.9,8.8,4.2,123.30000000000001,-0.1,-6.4
1698924298655.0,16,-0.9,0.1,4.6000000000000005,-0.9,9.600000000000001,5.1000000000000005,110.2,4.800000000000001,-17.200000000000003
1698924298672.0,16,-0.7000000000000001,0.30000000000000004,4.2,-0.7000000000000001,9.9,4.6000000000000005,94.60000000000001,8.200000000000001,-23.6
1698924298689.0,16,0.30000000000000004,0.5,1.6,0.2,10.100000000000001,1.9000000000000001,11.4,-5.4,-30.5
1698924298705.0,16,1.0,0.5,2.2,0.5,10.100000000000001,2.0,-35.1,-14.0,-30.599999999999998
1698924298723.0,16,1.2000000000000002,0.30000000000000004,2.4000000000000004,0.9,9.9,2.9000000000000004,-81.4,-1.6,-27.900000000000002
1698924298739.0,16,1.4000000000000001,-0.2,1.5,1.1,9.3,2.4000000000000004,-91.9,10.8,-22.000000000000004
1698924298755.0,16,1.3,-0.9,0.8,1.0,8.6,2.0,-91.60000000000001,9.200000000000001,-13.0
1698924298773.0,16,1.2000000000000002,-1.1,0.8,0.8,8.3,2.1,-87.10000000000001,5.9,-8.3
1698924298789.0,16,0.8,-1.3,0.7000000000000001,0.4,8.200000000000001,2.3000000000000003,-68.9,0.1,-1.5000000000000002
1698924298805.0,16,0.4,-1.3,0.2,0.0,8.1,2.0,-45.9,2.9,-0.2
1698924298822.0,16,0.30000000000000004,-1.4000000000000001,0.0,-0.1,8.0,1.9000000000000001,-35.6,7.300000000000001,-1.4
1698924298838.0,16,0.30000000000000004,-1.6,0.0,-0.1,7.7,1.9000000000000001,-16.3,20.0,-4.6000000000000005
1698924298855.0,16,0.7000000000000001,-2.0,-0.1,0.2,7.4,1.8,2.9,25.900000000000002,-5.1
1698924298872.0,16,0.8,-2.1,-0.1,0.4,7.2,1.8,12.3,23.6,-3.3000000000000003
1698924298889.0,16,1.1,-2.2,-0.1,0.6000000000000001,7.1000000000000005,1.7000000000000002,28.200000000000003,18.1,3.7000000000000006
1698924298905.0,16,1.0,-1.7000000000000002,-0.1,0.6000000000000001,7.6000000000000005,1.6,36.7,14.800000000000002,12.200000000000001
1698924298923.0,16,0.8,-1.3,0.1,0.4,8.1,1.7000000000000002,38.2,16.3,15.399999999999999
1698924298939.0,16,0.7000000000000001,-0.6000000000000001,-0.1,0.30000000000000004,8.8,1.3,36.1,26.200000000000003,13.0
1698924298956.0,16,0.5,-0.7000000000000001,-0.2,0.30000000000000004,8.8,1.2000000000000002,25.400000000000002,24.3,3.2
1698924298973.0,16,0.4,-1.1,-0.30000000000000004,0.1,8.4,1.2000000000000002,18.2,22.5,0.0
1698924298989.0,16,0.30000000000000004,-1.2000000000000002,-0.6000000000000001,-0.1,8.200000000000001,0.8,0.6000000000000001,22.900000000000002,-2.1
1698924299005.0,16,0.1,-1.3,-0.6000000000000001,-0.2,8.0,0.7000000000000001,-19.700000000000003,26.1,-2.1
1698924299023.0,16,0.1,-1.4000000000000001,-0.7000000000000001,-0.30000000000000004,8.0,0.7000000000000001,-27.0,27.2,-1.9
1698924299039.0,16,0.0,-1.1,-1.1,-0.4,8.200000000000001,0.4,-36.800000000000004,23.900000000000002,-1.3
1698924299055.0,16,-0.30000000000000004,-0.4,-1.0,-0.7000000000000001,8.9,0.6000000000000001,-42.300000000000004,17.8,0.0
1698924299073.0,16,-0.4,0.0,-0.8,-0.9,9.200000000000001,0.9,-41.0,16.8,1.5000000000000002
1698924299089.0,16,-0.6000000000000001,0.8,-0.9,-1.0,10.0,0.9,-32.5,11.2,4.2
1698924299105.0,16,-0.5,1.1,-0.6000000000000001,-1.0,10.200000000000001,1.1,-18.900000000000002,-2.3000000000000003,3.5
1698924299122.0,16,-0.1,0.9,-1.0,-0.8,10.3,1.3,-10.3,-5.7,1.8
1698924299139.0,16,0.30000000000000004,0.6000000000000001,-1.3,-0.1,9.8,0.5,0.0,-7.400000000000001,-3.5
1698924299155.0,16,0.7000000000000001,0.4,-1.5,0.30000000000000004,9.600000000000001,0.4,-0.4,-8.700000000000001,-4.6000000000000005
1698924299172.0,16,0.6000000000000001,1.4000000000000001,-0.8,0.2,10.700000000000001,1.1,-2.3000000000000003,-4.2,0.5
1698924299189.0,16,0.4,2.5,-0.30000000000000004,0.0,11.700000000000001,1.6,1.6,-3.4,5.8
1698924299206.0,16,-0.1,4.1000000000000005,-0.30000000000000004,-0.4,13.4,1.5,15.9,-19.200000000000003,19.400000000000002
1698924299224.0,16,-0.30000000000000004,3.9000000000000004,-0.2,-0.6000000000000001,13.200000000000001,1.6,20.0,-27.2,24.6
1698924299239.0,16,-0.1,2.7,1.2000000000000002,-0.30000000000000004,12.0,2.9000000000000004,28.700000000000003,-26.3,25.400000000000002
1698924299255.0,16,-0.1,2.6,2.2,-0.30000000000000004,12.0,3.8000000000000003,50.300000000000004,-32.2,17.400000000000002
1698924299272.0,16,-0.9,3.2,2.3000000000000003,-1.0,12.600000000000001,3.7,67.2,-31.099999999999998,18.8
1698924299289.0,16,-1.0,3.1,2.3000000000000003,-1.0,12.600000000000001,3.6,70.6,-35.5,21.5
1698924299305.0,16,-0.2,0.8,2.3000000000000003,-0.1,10.4,3.4000000000000004,66.4,-48.300000000000004,15.8
1698924299323.0,16,0.0,-1.2000000000000002,2.3000000000000003,0.0,9.1,3.1,56.0,-46.5,6.6000000000000005
1698924299339.0,16,0.2,-1.3,2.9000000000000004,0.2,8.3,3.8000000000000003,24.3,-31.8,-6.7
1698924299356.0,16,0.2,0.0,3.3000000000000003,0.30000000000000004,9.5,4.3,-2.1999999999999997,-10.4,-6.9
1698924299372.0,16,0.30000000000000004,0.30000000000000004,2.5,0.4,9.8,3.6,-22.5,-11.8,-4.7
1698924299389.0,16,0.4,-0.30000000000000004,2.3000000000000003,0.4,9.200000000000001,3.4000000000000004,-31.099999999999998,-14.600000000000001,-4.6000000000000005
1698924299405.0,16,0.30000000000000004,-1.8,1.7000000000000002,0.30000000000000004,7.7,2.9000000000000004,-41.6,-14.0,-2.9
1698924299423.0,16,0.0,-2.0,1.5,0.1,7.5,2.8000000000000003,-44.1,-13.5,-1.0999999999999999
1698924299439.0,16,-0.7000000000000001,-1.3,1.5,-0.6000000000000001,8.200000000000001,2.9000000000000004,-40.2,-15.8,3.2
1698924299455.0,16,-1.4000000000000001,-0.5,1.3,-1.4000000000000001,8.9,2.9000000000000004,-27.7,-29.1,4.9
1698924299472.0,16,-1.7000000000000002,-0.4,1.3,-1.6,9.0,3.0,-12.8,-40.8,6.2
1698924299489.0,16,-1.6,-0.4,1.3,-1.5,9.1,3.0,-6.4,-44.1,4.3999999999999995
1698924299505.0,16,-1.6,-0.30000000000000004,1.5,-1.5,9.1,3.1,2.1999999999999997,-43.2,-5.1
1698924299522.0,16,-1.3,-0.5,1.3,-1.2000000000000002,8.9,3.0,5.8,-44.3,-16.5
1698924299538.0,16,-1.1,-0.7000000000000001,1.2000000000000002,-1.1,8.700000000000001,2.9000000000000004,4.300000000000001,-48.300000000000004,-20.1
1698924299555.0,16,-1.1,-0.7000000000000001,1.3,-1.1,8.700000000000001,2.9000000000000004,-4.5,-54.9,-19.9
1698924299572.0,16,-1.2000000000000002,-0.1,0.8,-1.2000000000000002,9.3,2.5,-17.1,-59.1,-17.0
1698924299589.0,16,-1.3,0.0,0.6000000000000001,-1.3,9.3,2.4000000000000004,-24.1,-62.900000000000006,-17.0
1698924299606.0,16,-1.4000000000000001,-0.30000000000000004,0.30000000000000004,-1.4000000000000001,9.1,2.2,-34.50000000000001,-70.6,-19.1
1698924299622.0,16,-1.3,-0.5,-0.1,-1.4000000000000001,8.9,1.9000000000000001,-40.1,-83.89999999999999,-22.3
1698924299639.0,16,-1.3,-0.6000000000000001,-0.2,-1.4000000000000001,8.700000000000001,1.9000000000000001,-41.800000000000004,-91.60000000000001,-23.400000000000002
1698924299655.0,16,-1.2000000000000002,-0.5,-0.4,-1.3,8.8,1.8,-43.300000000000004,-102.0,-26.0
1698924299672.0,16,-1.2000000000000002,-0.2,-0.30000000000000004,-1.3,9.1,2.0,-41.0,-107.7,-29.1
1698924299689.0,16,-1.1,0.0,-0.4,-1.3,9.200000000000001,2.0,-38.5,-110.2,-30.7
1698924299706.0,16,-1.0,0.30000000000000004,-0.6000000000000001,-1.2000000000000002,9.5,1.9000000000000001,-32.6,-117.4,-34.2
1698924299722.0,16,-0.8,0.30000000000000004,-0.8,-1.0,9.4,1.8,-26.8,-126.1,-37.2
1698924299739.0,16,-0.7000000000000001,0.2,-0.9,-0.9,9.3,1.7000000000000002,-24.9,-130.3,-37.900000000000006
1698924299756.0,16,-0.5,-0.1,-1.0,-0.7000000000000001,9.1,1.7000000000000002,-22.5,-138.20000000000002,-38.2
1698924299772.0,16,-0.30000000000000004,-0.1,-1.0,-0.4,9.0,1.7000000000000002,-20.900000000000002,-144.0,-37.900000000000006
1698924299788.0,16,-0.30000000000000004,-0.1,-0.9,-0.4,9.0,1.9000000000000001,-18.8,-145.7,-36.1
1698924299806.0,16,-0.30000000000000004,0.1,-0.7000000000000001,-0.5,9.200000000000001,2.1,-16.5,-145.9,-34.7
1698924299822.0,16,-0.2,0.4,-0.6000000000000001,-0.2,9.5,2.3000000000000003,-9.700000000000001,-150.0,-33.1
1698924299839.0,16,-0.1,0.4,-0.8,-0.2,9.5,2.1,-7.300000000000001,-151.4,-33.800000000000004
1698924299856.0,16,-0.30000000000000004,0.1,-1.2000000000000002,-0.30000000000000004,9.200000000000001,1.7000000000000002,-9.200000000000001,-150.6,-35.7
1698924299872.0,16,-0.4,0.1,-1.3,-0.4,9.1,1.7000000000000002,-16.8,-153.70000000000002,-36.5
1698924299889.0,16,-0.5,0.1,-1.5,-0.4,9.1,1.6,-24.7,-160.3,-36.800000000000004
1698924299907.0,16,-0.6000000000000001,0.0,-1.6,-0.5,9.0,1.4000000000000001,-28.900000000000002,-163.5,-36.9
1698924299922.0,16,-0.9,-0.2,-1.8,-0.7000000000000001,8.700000000000001,1.3,-37.900000000000006,-169.4,-35.3
1698924299939.0,16,-1.0,-0.1,-1.8,-0.8,8.700000000000001,1.4000000000000001,-44.1,-175.0,-32.4
1698924299956.0,16,-1.0,0.1,-1.6,-0.8,9.0,1.7000000000000002,-45.2,-176.7,-31.900000000000002
1698924299973.0,16,-0.5,1.0,-0.9,-0.2,9.9,2.5,-38.7,-178.0,-34.400000000000006
1698924299989.0,16,-0.2,1.0,-1.0,0.2,9.9,2.4000000000000004,-28.0,-163.7,-43.300000000000004
1698924300005.0,16,0.30000000000000004,0.4,-1.7000000000000002,0.8,9.200000000000001,1.8,-24.9,-161.6,-45.0
1698924300023.0,16,0.7000000000000001,0.0,-1.4000000000000001,1.2000000000000002,8.9,2.1,-18.8,-169.0,-43.1
1698924300039.0,16,0.7000000000000001,0.4,-1.2000000000000002,1.3,9.200000000000001,2.3000000000000003,-10.8,-158.6,-38.900000000000006
1698924300055.0,16,0.5,0.7000000000000001,-1.3,1.2000000000000002,9.5,2.2,-6.3,-153.60000000000002,-37.0
1698924300072.0,16,0.8,1.4000000000000001,-1.2000000000000002,1.5,10.200000000000001,2.3000000000000003,1.0,-156.10000000000002,-35.1
1698924300089.0,16,0.8,1.6,-0.6000000000000001,1.6,10.5,2.7,7.699999999999999,-163.1,-36.3
1698924300105.0,16,0.6000000000000001,1.5,-0.4,1.5,10.4,2.9000000000000004,9.9,-158.10000000000002,-36.2
1698924300122.0,16,0.4,0.7000000000000001,-0.5,1.4000000000000001,9.600000000000001,2.8000000000000003,10.1,-142.4,-34.1
1698924300139.0,16,0.7000000000000001,0.2,-0.5,1.7000000000000002,9.200000000000001,2.6,3.5,-143.1,-33.1
1698924300155.0,16,0.8,0.1,-0.4,1.8,9.0,2.7,-2.1999999999999997,-143.6,-35.1
1698924300172.0,16,0.4,-0.4,-0.5,1.5,8.6,2.6,-16.2,-134.8,-38.5
1698924300189.0,16,-0.2,-0.8,-1.1,0.9,8.1,2.0,-33.5,-129.3,-36.3
1698924300205.0,16,-0.6000000000000001,-0.8,-1.3,0.6000000000000001,8.1,1.9000000000000001,-42.400000000000006,-132.4,-33.800000000000004
1698924300222.0,16,-1.2000000000000002,-0.6000000000000001,-1.3,-0.1,8.200000000000001,2.0,-55.4,-135.70000000000002,-32.9
1698924300239.0,16,-1.0,-0.4,-1.9000000000000001,0.2,8.3,1.5,-61.4,-142.50000000000003,-41.4
1698924300255.0,16,-0.7000000000000001,-0.2,-2.1,0.5,8.5,1.3,-63.900000000000006,-149.3,-47.400000000000006
1698924300272.0,16,0.0,0.5,-2.2,1.2000000000000002,9.200000000000001,1.4000000000000001,-68.2,-160.8,-58.00000000000001
1698924300289.0,16,0.5,1.2000000000000002,-1.7000000000000002,1.7000000000000002,9.8,2.0,-65.8,-163.29999999999998,-65.7
1698924300306.0,16,0.6000000000000001,1.4000000000000001,-1.6,1.9000000000000001,10.0,2.2,-60.900000000000006,-160.50000000000003,-68.1
1698924300322.0,16,0.8,1.3,-1.6,2.1,9.9,2.2,-47.400000000000006,-152.0,-69.7
1698924300339.0,16,1.1,0.9,-2.2,2.4000000000000004,9.5,1.6,-36.0,-141.8,-70.0
1698924300356.0,16,1.2000000000000002,0.7000000000000001,-2.5,2.5,9.3,1.4000000000000001,-33.800000000000004,-136.1,-69.9
1698924300373.0,16,1.5,0.6000000000000001,-2.6,2.7,9.1,1.3,-32.800000000000004,-127.10000000000001,-68.60000000000001
1698924300388.0,16,1.4000000000000001,0.4,-2.5,2.6,8.9,1.4000000000000001,-29.600000000000005,-124.60000000000001,-64.0
1698924300406.0,16,1.3,0.1,-2.5,2.5,8.700000000000001,1.4000000000000001,-27.2,-123.30000000000001,-60.00000000000001
1698924300422.0,16,1.1,-0.30000000000000004,-2.3000000000000003,2.4000000000000004,8.200000000000001,1.6,-22.5,-115.3,-54.3
1698924300439.0,16,1.3,-0.30000000000000004,-2.0,2.5,8.3,1.9000000000000001,-12.3,-111.80000000000001,-58.3
1698924300456.0,16,1.3,-0.1,-1.9000000000000001,2.5,8.5,2.0,-5.8,-111.10000000000001,-61.1
1698924300473.0,16,1.2000000000000002,0.4,-1.7000000000000002,2.4000000000000004,9.0,2.1,6.7,-99.7,-61.0
1698924300489.0,16,1.0,0.6000000000000001,-1.7000000000000002,2.2,9.200000000000001,2.0,17.9,-91.50000000000001,-55.2
1698924300505.0,16,1.1,0.30000000000000004,-1.4000000000000001,2.2,9.0,2.1,26.200000000000003,-89.8,-49.5
1698924300522.0,16,1.2000000000000002,0.2,-1.3,2.3000000000000003,8.9,2.2,29.400000000000002,-88.7,-48.6
1698924300539.0,16,1.2000000000000002,0.30000000000000004,-1.1,2.3000000000000003,9.1,2.3000000000000003,32.9,-82.0,-47.400000000000006
1698924300556.0,16,1.2000000000000002,0.5,-1.1,2.3000000000000003,9.3,2.2,32.7,-76.9,-45.4
1698924300572.0,16,1.0,0.6000000000000001,-1.3,2.0,9.5,1.9000000000000001,26.9,-71.30000000000001,-38.800000000000004
1698924300589.0,16,0.8,0.6000000000000001,-1.0,1.8,9.5,2.1,16.2,-73.7,-32.1
1698924300606.0,16,0.7000000000000001,0.8,-0.8,1.7000000000000002,9.700000000000001,2.2,4.6000000000000005,-71.0,-29.300000000000004
1698924300622.0,16,0.6000000000000001,0.8,-0.9,1.6,9.8,2.1,-1.7,-65.10000000000001,-28.8
1698924300639.0,16,0.6000000000000001,0.7000000000000001,-1.3,1.5,9.700000000000001,1.8,-16.3,-54.3,-27.400000000000002
1698924300655.0,16,0.7000000000000001,0.5,-1.3,1.6,9.5,1.8,-29.200000000000003,-49.0,-25.900000000000002
1698924300672.0,16,0.6000000000000001,0.5,-1.4000000000000001,1.5,9.4,1.8,-33.7,-45.7,-24.7
1698924300688.0,16,0.7000000000000001,0.4,-1.5,1.6,9.3,1.7000000000000002,-38.900000000000006,-39.6,-22.000000000000004
1698924300705.0,16,0.7000000000000001,0.1,-1.7000000000000002,1.6,9.0,1.6,-40.0,-36.3,-19.3
1698924300722.0,16,0.7000000000000001,0.0,-1.9000000000000001,1.6,8.9,1.4000000000000001,-40.1,-34.6,-17.8
1698924300739.0,16,0.6000000000000001,0.1,-1.8,1.4000000000000001,8.9,1.6,-38.900000000000006,-33.400000000000006,-14.100000000000001
1698924300756.0,16,0.30000000000000004,0.4,-1.6,1.2000000000000002,9.1,1.9000000000000001,-35.3,-33.1,-11.9
1698924300772.0,16,-0.1,0.9,-1.7000000000000002,0.8,9.600000000000001,1.8,-23.2,-33.6,-5.0
1698924300789.0,16,-0.2,0.6000000000000001,-1.5,0.7000000000000001,9.4,2.1,-10.4,-33.5,-1.3
1698924300807.0,16,0.30000000000000004,0.2,-1.3,1.2000000000000002,8.9,2.2,4.300000000000001,-30.299999999999997,-5.2
1698924300822.0,16,0.5,0.1,-1.2000000000000002,1.5,8.8,2.3000000000000003,12.3,-31.4,-8.5
1698924300839.0,16,1.0,-0.1,-1.3,1.9000000000000001,8.6,2.2,26.200000000000003,-28.400000000000002,-13.5
1698924300855.0,16,1.2000000000000002,-0.5,-0.7000000000000001,2.1,8.3,2.6,36.1,-22.8,-10.2
1698924300873.0,16,1.3,-0.6000000000000001,-0.30000000000000004,2.2,8.3,2.9000000000000004,43.0,-20.900000000000002,-5.8
1698924300889.0,16,1.1,0.0,0.5,2.1,8.9,3.5,62.4,-30.9,6.000000000000001
1698924300907.0,16,0.7000000000000001,0.8,0.7000000000000001,1.7000000000000002,9.700000000000001,3.6,74.2,-44.4,12.8
1698924300923.0,16,-0.8,1.8,0.7000000000000001,0.4,10.8,3.4000000000000004,87.80000000000001,-57.6,21.0
1698924300939.0,16,-1.1,1.2000000000000002,0.9,0.2,10.3,3.3000000000000003,81.5,-45.0,10.8
1698924300955.0,16,-0.7000000000000001,0.1,1.3,0.6000000000000001,9.3,3.4000000000000004,65.89999999999999,-44.8,-12.100000000000001
1698924300972.0,16,-0.7000000000000001,-0.1,1.5,0.5,9.1,3.5,55.800000000000004,-42.5,-17.0
1698924300989.0,16,-1.0,-0.1,1.7000000000000002,0.2,9.1,3.7,35.7,-37.7,-11.1
1698924301005.0,16,-1.0,0.2,1.7000000000000002,0.2,9.4,3.5,20.900000000000002,-46.6,-4.7
1698924301022.0,16,-1.2000000000000002,0.30000000000000004,1.8,0.0,9.5,3.6,15.299999999999999,-52.1,-4.1000000000000005
1698924301039.0,16,-1.8,0.5,1.8,-0.5,9.8,3.6,8.5,-52.400000000000006,-5.2
1698924301055.0,16,-1.9000000000000001,1.0,2.0,-0.7000000000000001,10.0,3.6,6.000000000000001,-51.300000000000004,-7.6
1698924301072.0,16,-1.7000000000000002,1.3,2.3000000000000003,-0.5,10.600000000000001,4.0,4.3999999999999995,-43.50000000000001,-18.5
1698924301089.0,16,-1.1,1.4000000000000001,1.6,0.0,10.700000000000001,3.3000000000000003,5.4,-29.700000000000003,-34.7
1698924301105.0,16,-0.6000000000000001,0.5,0.7000000000000001,0.4,9.8,2.4000000000000004,-3.0000000000000004,-28.700000000000003,-41.4
1698924301123.0,16,-0.30000000000000004,0.0,0.6000000000000001,0.6000000000000001,9.4,2.3000000000000003,-9.3,-26.400000000000002,-38.5
1698924301139.0,16,-0.1,-0.6000000000000001,0.1,0.7000000000000001,8.8,1.9000000000000001,-20.0,-20.1,-27.5
1698924301155.0,16,-0.30000000000000004,-1.0,-0.2,0.5,8.3,1.7000000000000002,-28.0,-17.8,-16.3
1698924301172.0,16,-0.30000000000000004,-1.1,-0.2,0.5,8.200000000000001,1.7000000000000002,-30.599999999999998,-16.8,-12.200000000000001
1698924301189.0,16,-0.30000000000000004,-1.1,-0.30000000000000004,0.5,8.200000000000001,1.7000000000000002,-31.099999999999998,-17.5,-7.8
1698924301205.0,16,-0.6000000000000001,-1.0,-0.5,0.1,8.3,1.6,-27.7,-17.599999999999998,-6.3
1698924301222.0,16,-0.8,-0.6000000000000001,-0.6000000000000001,0.0,8.700000000000001,1.6,-23.1,-15.399999999999999,-5.2
1698924301240.0,16,-0.8,-0.4,-0.6000000000000001,-0.1,8.8,1.6,-20.0,-14.200000000000001,-5.300000000000001
1698924301255.0,16,-0.7000000000000001,-0.30000000000000004,-0.7000000000000001,0.0,8.9,1.6,-16.400000000000002,-12.6,-5.9
1698924301272.0,16,-0.7000000000000001,-0.8,-0.9,0.0,8.700000000000001,1.4000000000000001,-6.2,-11.8,-8.5
1698924301289.0,16,-0.7000000000000001,-1.0,-0.9,0.0,8.200000000000001,1.3,-4.0,-13.5,-8.200000000000001
1698924301305.0,16,-0.7000000000000001,-1.1,-0.8,0.0,8.1,1.4000000000000001,-0.2,-18.3,-4.800000000000001
1698924301323.0,16,-0.9,-0.9,-1.1,-0.1,8.200000000000001,1.3,1.5000000000000002,-20.1,-2.8
1698924301339.0,16,-0.9,-0.7000000000000001,-1.2000000000000002,-0.30000000000000004,8.4,1.0,1.5000000000000002,-24.1,1.2000000000000002
1698924301355.0,16,-1.0,-0.5,-1.3,-0.30000000000000004,8.6,0.9,-3.4,-27.8,3.7000000000000006
1698924301373.0,16,-1.3,-0.6000000000000001,-1.2000000000000002,-0.6000000000000001,8.6,1.0,-10.0,-27.3,4.5
1698924301389.0,16,-1.4000000000000001,-0.6000000000000001,-1.0,-0.7000000000000001,8.5,1.2000000000000002,-12.000000000000002,-26.8,5.2
1698924301406.0,16,-1.2000000000000002,-0.9,-0.9,-0.4,8.3,1.3,-10.600000000000001,-31.099999999999998,5.9
1698924301423.0,16,-1.0,-1.1,-0.7000000000000001,-0.30000000000000004,8.1,1.4000000000000001,-8.9,-33.2,5.300000000000001
1698924301440.0,16,-0.9,-1.2000000000000002,-0.6000000000000001,-0.1,8.0,1.7000000000000002,-4.5,-31.7,3.6
1698924301455.0,16,-0.5,-0.8,-0.6000000000000001,0.4,8.3,1.7000000000000002,2.4000000000000004,-25.6,0.7
1698924301472.0,16,-0.2,-0.2,-0.6000000000000001,0.6000000000000001,8.9,1.6,9.1,-21.200000000000003,-4.6000000000000005
1698924301489.0,16,-0.1,0.30000000000000004,-0.6000000000000001,0.8,9.4,1.6,12.000000000000002,-18.400000000000002,-6.5
1698924301505.0,16,0.30000000000000004,0.9,-1.0,1.1,10.0,1.1,14.700000000000001,-9.5,-9.4
1698924301522.0,16,0.4,0.9,-1.6,1.3,10.100000000000001,0.8,12.5,-5.2,-10.4
1698924301539.0,16,0.30000000000000004,0.8,-1.7000000000000002,1.1,9.9,0.4,1.3,1.6,-6.8
1698924301555.0,16,-0.30000000000000004,1.1,-1.6,0.5,10.3,0.4,-12.200000000000001,12.4,4.2
1698924301572.0,16,-0.9,1.7000000000000002,-1.6,-0.1,10.9,0.5,-22.5,19.3,11.000000000000002
1698924301589.0,16,-1.1,2.5,-0.9,-0.30000000000000004,11.700000000000001,1.3,-23.8,14.800000000000002,12.700000000000001
1698924301605.0,16,-1.2000000000000002,4.5,0.7000000000000001,-0.30000000000000004,13.600000000000001,2.9000000000000004,-6.6000000000000005,8.5,10.5
1698924301622.0,16,-1.3,4.9,0.5,-0.5,14.0,2.7,15.100000000000001,33.5,2.4000000000000004
1698924301639.0,16,-0.9,4.5,0.6000000000000001,-0.1,13.700000000000001,2.8000000000000003,23.8,40.8,-2.1
1698924301655.0,16,0.30000000000000004,3.1,2.1,1.0,12.4,4.1000000000000005,50.5,41.7,-16.400000000000002
1698924301673.0,16,0.6000000000000001,2.2,2.9000000000000004,1.3,11.600000000000001,4.7,85.0,54.3,-18.6
1698924301689.0,16,0.4,1.7000000000000002,2.2,1.0,11.100000000000001,3.9000000000000004,99.0,61.199999999999996,-15.7
1698924301706.0,16,-0.2,0.0,0.2,0.30000000000000004,9.5,1.5,99.0,49.3,-5.8
1698924301722.0,16,-0.4,-1.7000000000000002,0.8,0.1,7.800000000000001,2.0,66.3,31.6,3.7000000000000006
1698924301739.0,16,-0.8,-2.2,1.9000000000000001,-0.2,7.300000000000001,3.0,50.0,31.0,8.0
1698924301755.0,16,-1.9000000000000001,-1.2000000000000002,3.6,-1.4000000000000001,8.3,4.6000000000000005,30.599999999999998,32.5,16.6
1698924301772.0,16,-2.5,0.5,3.0,-2.0,10.0,3.9000000000000004,16.3,14.500000000000002,15.299999999999999
1698924301789.0,16,-2.3000000000000003,0.9,2.5,-1.7000000000000002,10.4,3.5,4.2,1.8,8.9
1698924301806.0,16,-1.7000000000000002,0.2,2.0,-1.2000000000000002,9.700000000000001,3.0,-24.3,-14.0,-7.1000000000000005
1698924301822.0,16,-1.1,-0.9,1.8,-0.5,8.6,2.9000000000000004,-45.7,-16.400000000000002,-9.0
1698924301839.0,16,-0.7000000000000001,-1.0,1.7000000000000002,-0.2,8.5,2.9000000000000004,-51.800000000000004,-11.5,-7.500000000000001
1698924301855.0,16,-0.30000000000000004,-0.7000000000000001,1.1,0.2,8.8,2.6,-56.0,2.7,-8.3
1698924301873.0,16,0.1,-0.8,0.4,0.5,8.6,2.1,-54.5,7.400000000000001,-11.3
1698924301889.0,16,0.2,-1.0,0.2,0.6000000000000001,8.4,1.9000000000000001,-52.7,6.4,-11.5
1698924301905.0,16,0.4,-1.5,0.0,0.8,7.800000000000001,1.9000000000000001,-46.6,3.2,-8.5
1698924301922.0,16,0.4,-1.8,0.2,0.8,7.5,2.2,-34.7,-1.8,-2.4000000000000004
1698924301939.0,16,0.30000000000000004,-1.8,0.2,0.7000000000000001,7.5,2.3000000000000003,-26.0,-6.6000000000000005,1.6
1698924301955.0,16,0.2,-1.5,0.1,0.6000000000000001,7.800000000000001,2.2,-7.8,-15.299999999999999,9.9
1698924301972.0,16,-0.30000000000000004,-1.1,-0.1,0.2,8.1,2.0,4.9,-13.3,14.700000000000001
1698924301989.0,16,-0.30000000000000004,-1.0,-0.4,0.2,8.3,1.7000000000000002,11.5,-6.000000000000001,11.1
1698924302005.0,16,-0.30000000000000004,-1.0,-0.5,0.2,8.3,1.5,12.700000000000001,-5.7,6.2
1698924302022.0,16,-0.2,-1.1,-0.6000000000000001,0.4,8.200000000000001,1.4000000000000001,11.5,-6.6000000000000005,-2.3000000000000003
1698924302039.0,16,-0.1,-1.1,-0.5,0.5,8.1,1.4000000000000001,7.6,-4.6000000000000005,-4.1000000000000005
1698924302057.0,16,0.2,-1.2000000000000002,-0.5,0.7000000000000001,8.0,1.5,5.6,-2.0,-3.5
1698924302074.0,16,0.30000000000000004,-1.2000000000000002,-0.5,0.8,8.1,1.5,2.1999999999999997,3.5,-1.4
1698924302089.0,16,0.30000000000000004,-1.1,-0.5,0.8,8.200000000000001,1.4000000000000001,0.8,5.6,-0.8
1698924302105.0,16,0.2,-0.9,-0.9,0.7000000000000001,8.3,1.0,-3.5,8.9,-0.6000000000000001
1698924302122.0,16,0.2,-0.9,-1.0,0.7000000000000001,8.3,0.9,-10.5,12.3,-2.1
1698924302138.0,16,0.2,-0.8,-0.8,0.6000000000000001,8.4,1.2000000000000002,-14.500000000000002,14.600000000000001,-5.4
1698924302155.0,16,0.2,-0.7000000000000001,-0.7000000000000001,0.6000000000000001,8.5,1.3,-14.3,16.5,-7.699999999999999
1698924302172.0,16,0.0,-0.5,-0.7000000000000001,0.4,8.6,1.3,-11.9,18.900000000000002,-11.1
1698924302188.0,16,-0.2,-0.2,-0.5,0.1,9.0,1.5,-7.400000000000001,15.000000000000002,-9.3
1698924302205.0,16,-0.6000000000000001,0.1,-0.4,-0.2,9.3,1.7000000000000002,-3.3000000000000003,10.600000000000001,-5.500000000000001
1698924302222.0,16,-1.3,0.5,-0.4,-0.9,9.700000000000001,1.6,6.4,1.9,5.7
1698924302239.0,16,-0.8,0.7000000000000001,-0.8,-0.5,9.9,1.2000000000000002,12.4,-4.300000000000001,8.799999999999999
1698924302255.0,16,-0.5,0.9,-1.0,-0.1,10.100000000000001,1.0,13.0,-10.3,6.5
1698924302273.0,16,0.1,1.1,-1.5,0.5,10.3,0.4,7.2,-18.6,0.0
1698924302289.0,16,0.5,1.2000000000000002,-1.9000000000000001,0.9,10.5,0.0,-8.1,-17.9,-5.7
1698924302306.0,16,0.5,1.8,-1.7000000000000002,0.9,11.0,0.30000000000000004,-17.599999999999998,-17.0,-6.6000000000000005
1698924302324.0,16,0.0,3.7,0.2,0.4,12.9,2.2,-25.5,-11.4,-0.2
1698924302339.0,16,-0.30000000000000004,4.1000000000000005,0.7000000000000001,0.1,13.4,2.8000000000000003,-6.2,-19.3,20.2
1698924302355.0,16,-0.5,3.0,0.7000000000000001,0.0,12.3,2.8000000000000003,6.3,-33.400000000000006,30.5
1698924302372.0,16,-0.30000000000000004,1.7000000000000002,1.7000000000000002,0.30000000000000004,11.0,3.7,30.599999999999998,-50.1,35.9
1698924302388.0,16,-0.4,1.0,1.7000000000000002,0.30000000000000004,10.4,3.6,52.300000000000004,-30.799999999999997,19.1
1698924302405.0,16,-0.6000000000000001,0.8,1.8,0.2,10.200000000000001,3.6,58.3,-16.3,9.4
1698924302422.0,16,-0.2,0.9,2.8000000000000003,0.6000000000000001,10.3,4.4,71.4,-21.5,-5.2
1698924302439.0,16,0.0,0.2,3.7,0.8,9.600000000000001,5.0,85.0,-23.400000000000002,-8.0
1698924302456.0,16,0.1,-0.5,3.5,0.8,9.0,4.6000000000000005,86.80000000000001,-11.000000000000002,-5.2
1698924302473.0,16,0.2,-1.1,2.5,0.9,8.3,3.4000000000000004,70.3,6.8,2.9
1698924302489.0,16,0.2,-1.0,2.5,0.9,8.5,3.4000000000000004,32.1,1.0,11.700000000000001
1698924302506.0,16,-0.5,0.1,2.9000000000000004,0.30000000000000004,9.600000000000001,3.7,11.6,0.1,16.400000000000002
1698924302523.0,16,-0.8,0.8,2.0,0.1,10.3,2.9000000000000004,-26.500000000000004,0.9,17.1
1698924302540.0,16,-1.0,0.4,1.5,0.1,10.200000000000001,2.6,-43.6,-1.8,12.200000000000001
1698924302557.0,16,-1.2000000000000002,0.2,1.6,-0.30000000000000004,9.600000000000001,2.7,-66.4,0.1,2.9
1698924302573.0,16,-1.1,-0.1,1.1,-0.30000000000000004,9.3,2.6,-70.0,2.3000000000000003,1.0999999999999999
1698924302589.0,16,-1.3,-0.7000000000000001,0.5,-0.30000000000000004,9.0,2.3000000000000003,-67.60000000000001,2.3000000000000003,1.0999999999999999
1698924302605.0,16,-1.2000000000000002,-0.9,0.4,-0.4,8.5,2.1,-59.400000000000006,2.7,0.30000000000000004
1698924302624.0,16,-1.1,-1.1,0.2,-0.30000000000000004,8.200000000000001,2.1,-45.4,7.1000000000000005,-4.3999999999999995
1698924302639.0,16,-0.8,-1.3,0.0,0.0,8.0,2.0,-27.7,14.3,-11.2
1698924302655.0,16,-0.6000000000000001,-1.4000000000000001,-0.1,0.1,7.9,1.9000000000000001,-18.400000000000002,16.0,-13.6
1698924302672.0,16,-0.7000000000000001,-1.4000000000000001,-0.2,0.0,7.9,1.9000000000000001,1.2000000000000002,9.9,-12.000000000000002
1698924302689.0,16,-0.8,-1.2000000000000002,-0.2,-0.1,8.1,1.8,18.900000000000002,0.6000000000000001,-3.9
1698924302706.0,16,-0.9,-1.1,-0.2,-0.2,8.200000000000001,1.8,25.3,-1.8,-1.6
1698924302724.0,16,-0.9,-0.9,-0.1,-0.30000000000000004,8.4,1.8,32.0,-3.4,-1.6
1698924302740.0,16,-0.8,-0.7000000000000001,-0.1,-0.2,8.6,1.7000000000000002,30.100000000000005,-1.6,-3.0000000000000004
1698924302756.0,16,-0.8,-0.7000000000000001,-0.1,-0.2,8.6,1.6,26.0,-1.4,-2.6
1698924302773.0,16,-0.8,-0.7000000000000001,-0.30000000000000004,-0.1,8.6,1.4000000000000001,12.6,-2.9,1.0999999999999999
1698924302790.0,16,-0.9,-0.5,-0.4,-0.2,8.8,1.2000000000000002,-6.3,-2.0,4.0
1698924302806.0,16,-1.0,-0.5,-0.5,-0.30000000000000004,8.8,1.2000000000000002,-16.2,-2.4000000000000004,4.6000000000000005
1698924302824.0,16,-1.1,-0.6000000000000001,-0.5,-0.4,8.700000000000001,1.3,-31.900000000000002,-5.1,5.0
1698924302839.0,16,-1.1,-0.7000000000000001,-0.9,-0.4,8.5,1.0,-41.5,-9.600000000000001,6.1000000000000005
1698924302856.0,16,-1.1,-0.8,-1.0,-0.5,8.5,0.9,-45.2,-13.200000000000001,7.0
1698924302873.0,16,-1.2000000000000002,-0.8,-1.1,-0.5,8.4,1.0,-48.9,-17.9,8.1
1698924302889.0,16,-1.3,-0.5,-0.7000000000000001,-0.6000000000000001,8.6,1.6,-44.1,-15.7,7.0
1698924302906.0,16,-1.1,-0.4,-0.6000000000000001,-0.4,8.700000000000001,1.7000000000000002,-37.4,-12.700000000000001,4.9
1698924302924.0,16,-0.6000000000000001,-0.2,-0.8,0.1,8.8,1.5,-20.900000000000002,-7.9,-3.5
1698924302940.0,16,-0.1,-0.4,-0.7000000000000001,0.6000000000000001,8.6,1.7000000000000002,-5.2,-3.5,-10.4
1698924302956.0,16,0.0,-0.4,-0.6000000000000001,0.7000000000000001,8.700000000000001,1.7000000000000002,3.3000000000000003,-0.8,-10.9
1698924302974.0,16,-0.1,0.2,-0.30000000000000004,0.6000000000000001,9.3,2.0,20.1,4.300000000000001,-7.6
1698924302989.0,16,-0.1,1.2000000000000002,0.30000000000000004,0.6000000000000001,10.3,2.5,34.300000000000004,5.9,-10.0
1698924303005.0,16,0.1,1.9000000000000001,1.1,0.7000000000000001,11.100000000000001,3.2,43.900000000000006,9.9,-15.000000000000002
1698924303023.0,16,-0.2,2.6,0.30000000000000004,0.30000000000000004,11.8,2.2,61.0,15.299999999999999,-26.6
1698924303039.0,16,-0.30000000000000004,2.3000000000000003,0.7000000000000001,0.1,11.600000000000001,2.5,52.800000000000004,24.400000000000002,-21.0
1698924303055.0,16,-0.4,2.1,0.5,0.0,11.4,2.3000000000000003,45.3,33.2,-15.2
1698924303072.0,16,-0.4,1.3,0.4,0.0,10.600000000000001,2.1,19.500000000000004,30.200000000000003,-3.1
1698924303089.0,16,-0.2,2.7,2.5,0.1,12.100000000000001,4.1000000000000005,6.7,29.600000000000005,-0.6000000000000001
1698924303106.0,16,-0.5,3.3000000000000003,1.7000000000000002,-0.2,12.600000000000001,3.4000000000000004,7.9,26.500000000000004,-4.7
1698924303123.0,16,-0.8,2.7,2.0,-0.5,12.100000000000001,3.7,2.5,16.5,-11.8
1698924303139.0,16,-0.6000000000000001,0.4,1.0,-0.4,9.9,2.7,-4.3999999999999995,2.9,-12.4
1698924303156.0,16,-0.5,-0.6000000000000001,1.4000000000000001,-0.30000000000000004,8.8,3.1,-9.600000000000001,-5.6,-12.200000000000001
1698924303172.0,16,-0.5,-1.6,2.0,-0.4,7.800000000000001,3.7,-10.9,-14.3,-14.200000000000001
1698924303189.0,16,-1.2000000000000002,-0.9,2.4000000000000004,-1.1,8.5,4.2,-4.7,-18.1,-16.2
1698924303206.0,16,-1.4000000000000001,-0.4,2.1,-1.3,8.9,3.9000000000000004,-2.4000000000000004,-18.1,-18.8
1698924303222.0,16,-1.2000000000000002,0.0,1.7000000000000002,-1.2000000000000002,9.4,3.6,-3.9,-22.4,-26.6
1698924303239.0,16,-0.30000000000000004,0.1,1.6,-0.4,9.4,3.5,-9.700000000000001,-26.9,-28.900000000000002
1698924303255.0,16,0.6000000000000001,0.0,1.6,0.4,9.3,3.6,-17.1,-29.1,-21.3
1698924303273.0,16,0.9,-0.2,1.3,0.8,9.1,3.3000000000000003,-20.0,-28.900000000000002,-16.6
1698924303290.0,16,0.9,-1.0,0.8,0.8,8.4,2.9000000000000004,-28.0,-35.7,-7.8
1698924303305.0,16,0.4,-1.4000000000000001,0.6000000000000001,0.30000000000000004,7.9,2.8000000000000003,-32.4,-41.9,-1.4
1698924303323.0,16,0.1,-1.3,0.5,0.0,8.0,2.8000000000000003,-32.5,-42.7,-1.7
1698924303339.0,16,0.0,-1.1,0.6000000000000001,-0.1,8.200000000000001,3.0,-28.700000000000003,-40.2,-7.699999999999999
1698924303355.0,16,0.4,-0.9,0.5,0.30000000000000004,8.3,2.9000000000000004,-19.1,-41.2,-12.9
1698924303372.0,16,0.5,-1.0,0.2,0.4,8.200000000000001,2.7,-15.000000000000002,-41.1,-13.9
1698924303390.0,16,1.0,-1.4000000000000001,0.2,0.9,7.800000000000001,2.7,-11.4,-37.2,-13.4
1698924303409.0,16,1.3,-1.5,0.30000000000000004,1.2000000000000002,7.7,2.8000000000000003,-7.2,-36.4,-11.3
1698924303422.0,16,1.4000000000000001,-1.4000000000000001,0.2,1.3,7.7,2.7,-5.500000000000001,-35.9,-9.8
1698924303439.0,16,1.0,-1.1,0.2,0.9,8.1,2.7,-5.4,-31.7,-5.7
1698924303456.0,16,0.8,-0.9,0.30000000000000004,0.7000000000000001,8.3,2.9000000000000004,-5.8,-22.8,-5.4
1698924303473.0,16,0.4,-0.6000000000000001,0.30000000000000004,0.30000000000000004,8.5,2.8000000000000003,-5.300000000000001,-20.2,-6.9
1698924303489.0,16,0.5,-0.7000000000000001,0.0,0.5,8.5,2.6,-6.7,-18.7,-13.8
1698924303506.0,16,0.8,-0.9,-0.1,0.7000000000000001,8.200000000000001,2.6,-8.5,-19.0,-19.3
1698924303523.0,16,0.9,-1.1,-0.30000000000000004,0.8,8.0,2.4000000000000004,-9.1,-16.3,-19.9
1698924303539.0,16,1.1,-1.3,-0.6000000000000001,0.9,7.800000000000001,2.1,-11.700000000000001,-13.3,-19.3
1698924303556.0,16,1.1,-1.4000000000000001,-0.5,0.9,7.7,2.1,-12.100000000000001,-12.6,-18.7
1698924303572.0,16,0.9,-1.2000000000000002,-0.7000000000000001,0.7000000000000001,7.9,2.0,-9.700000000000001,-14.3,-16.5
1698924303589.0,16,0.1,-0.7000000000000001,-0.5,-0.1,8.3,2.2,-5.0,-24.000000000000004,-11.9
1698924303608.0,16,-0.7000000000000001,-0.2,-0.2,-1.0,8.8,2.6,3.0000000000000004,-26.9,-9.4
1698924303622.0,16,-1.2000000000000002,0.0,-0.2,-1.4000000000000001,9.0,2.5,8.0,-31.2,-10.3
1698924303639.0,16,-1.6,0.4,-0.30000000000000004,-1.9000000000000001,9.5,2.4000000000000004,14.600000000000001,-39.2,-16.1
1698924303656.0,16,-1.2000000000000002,1.0,-0.4,-1.5,10.0,2.2,15.5,-39.400000000000006,-26.1
1698924303672.0,16,0.0,1.1,-0.6000000000000001,-1.0,10.200000000000001,2.1,14.3,-38.6,-31.099999999999998
1698924303689.0,16,0.5,1.1,-0.5,0.0,10.100000000000001,2.0,9.4,-43.0,-34.7
1698924303706.0,16,0.9,1.0,-0.4,0.6000000000000001,10.200000000000001,2.1,5.7,-38.300000000000004,-30.4
1698924303722.0,16,1.2000000000000002,1.7000000000000002,-0.2,0.7000000000000001,10.8,2.4000000000000004,3.1,-34.400000000000006,-23.6
1698924303739.0,16,1.1,2.2,0.30000000000000004,0.6000000000000001,11.3,2.8000000000000003,3.9,-35.9,-19.400000000000002
1698924303755.0,16,0.5,3.3000000000000003,1.9000000000000001,0.0,12.5,4.5,14.4,-47.400000000000006,-3.0000000000000004
1698924303772.0,16,-1.1,3.9000000000000004,2.4000000000000004,-1.5,13.100000000000001,4.800000000000001,39.50000000000001,-78.9,26.1
1698924303789.0,16,-2.2,3.3000000000000003,1.2000000000000002,-2.5,12.5,3.6,43.6,-81.8,37.900000000000006
1698924303806.0,16,-1.5,0.8,-1.0,-1.7000000000000002,10.100000000000001,1.3,17.200000000000003,-71.30000000000001,30.299999999999997
1698924303822.0,16,-0.4,-0.6000000000000001,-1.3,-0.6000000000000001,8.700000000000001,1.1,-4.5,-77.2,9.4
1698924303839.0,16,0.6000000000000001,-1.8,-0.4,0.4,7.4,2.1,-41.0,-82.0,-39.6
1698924303856.0,16,1.3,-0.9,0.4,1.1,8.200000000000001,3.0,-48.400000000000006,-74.10000000000001,-53.400000000000006
1698924303873.0,16,0.6000000000000001,-1.1,0.0,0.6000000000000001,8.3,2.8000000000000003,-43.7,-67.80000000000001,-48.400000000000006
1698924303889.0,16,0.30000000000000004,-1.6,0.1,0.0,7.5,2.9000000000000004,-24.9,-74.0,-25.1
1698924303906.0,16,-0.9,-2.5,0.1,-1.2000000000000002,6.5,2.9000000000000004,2.1,-86.1,-8.0
1698924303922.0,16,-2.1,-2.4000000000000004,0.7000000000000001,-2.3000000000000003,6.7,3.4000000000000004,25.900000000000002,-99.30000000000001,-4.9
1698924303939.0,16,-2.5,-1.7000000000000002,1.1,-2.7,7.4,3.8000000000000003,38.6,-107.6,-6.000000000000001
1698924303955.0,16,-2.4000000000000004,0.30000000000000004,1.3,-2.5,9.4,3.8000000000000003,58.1,-127.9,-11.9
1698924303972.0,16,-1.6,1.6,1.0,-1.7000000000000002,10.8,3.3000000000000003,57.400000000000006,-134.9,-20.2
1698924303989.0,16,-1.0,1.5,0.6000000000000001,-1.1,10.700000000000001,2.9000000000000004,46.7,-134.5,-25.2
1698924304006.0,16,-0.2,0.1,0.4,-0.2,9.4,2.6,10.8,-138.5,-30.299999999999997
1698924304022.0,16,-0.30000000000000004,0.1,0.2,-0.30000000000000004,9.4,2.5,-24.400000000000002,-135.8,-28.400000000000002
1698924304039.0,16,-0.5,0.5,0.0,-0.5,9.8,2.4000000000000004,-36.800000000000004,-137.1,-28.500000000000004
1698924304056.0,16,-0.9,0.9,-0.2,-0.9,10.100000000000001,2.3000000000000003,-52.300000000000004,-141.3,-32.9
1698924304073.0,16,-1.1,1.0,-0.5,-1.1,10.100000000000001,2.1,-55.7,-138.9,-37.6
1698924304089.0,16,-1.1,0.9,-0.8,-1.1,10.100000000000001,1.9000000000000001,-54.0,-139.60000000000002,-39.50000000000001
1698924304106.0,16,-1.1,0.9,-0.9,-1.1,10.0,2.0,-45.0,-152.3,-42.1
1698924304124.0,16,-1.2000000000000002,0.9,-0.9,-1.2000000000000002,10.0,2.0,-37.900000000000006,-157.0,-43.300000000000004
1698924304140.0,16,-1.3,0.9,-1.1,-1.3,10.0,1.9000000000000001,-23.0,-157.8,-50.1
1698924304156.0,16,-1.0,0.6000000000000001,-1.5,-1.0,9.700000000000001,1.6,-10.9,-159.2,-61.50000000000001
1698924304173.0,16,-0.30000000000000004,0.2,-1.4000000000000001,-0.4,9.200000000000001,1.7000000000000002,-2.4000000000000004,-169.10000000000002,-67.2
1698924304189.0,16,-0.2,0.0,-1.4000000000000001,-0.30000000000000004,9.1,1.6,0.4,-172.4,-66.3
1698924304205.0,16,-0.2,0.0,-1.6,-0.30000000000000004,9.0,1.5,0.8,-175.20000000000002,-63.0
1698924304222.0,16,-0.2,0.2,-1.5,-0.30000000000000004,9.200000000000001,1.6,-3.3000000000000003,-179.3,-62.300000000000004
1698924304239.0,16,-0.2,0.4,-1.3,-0.30000000000000004,9.4,1.8,-5.300000000000001,-181.0,-62.199999999999996
1698924304256.0,16,-0.1,0.6000000000000001,-1.4000000000000001,-0.2,9.700000000000001,1.6,-8.9,-184.0,-62.50000000000001
1698924304272.0,16,0.2,0.5,-1.5,0.1,9.5,1.6,-16.3,-185.7,-61.900000000000006
1698924304288.0,16,0.2,0.5,-1.6,0.2,9.5,1.6,-20.5,-184.60000000000002,-61.1
1698924304306.0,16,0.30000000000000004,0.4,-1.7000000000000002,0.2,9.3,1.5,-28.3,-182.4,-58.9
1698924304322.0,16,0.2,0.1,-1.7000000000000002,0.2,9.1,1.6,-33.1,-181.3,-56.1
1698924304339.0,16,0.1,0.0,-1.8,0.0,8.9,1.6,-33.7,-180.50000000000003,-54.9
1698924304356.0,16,0.0,0.0,-1.6,0.0,8.8,1.8,-31.8,-176.9,-53.9
1698924304373.0,16,0.0,0.2,-1.9000000000000001,0.0,9.0,1.6,-27.5,-174.3,-57.00000000000001
1698924304389.0,16,0.0,0.2,-1.8,0.1,9.0,1.7000000000000002,-25.8,-173.60000000000002,-58.9
1698924304406.0,16,-0.1,0.1,-1.6,0.0,8.9,2.0,-19.6,-170.8,-58.9
1698924304422.0,16,-0.30000000000000004,0.30000000000000004,-1.5,-0.2,9.1,2.2,-10.5,-165.8,-55.300000000000004
1698924304439.0,16,-0.4,0.5,-1.2000000000000002,-0.2,9.3,2.4000000000000004,-2.1,-163.9,-53.8
1698924304456.0,16,-0.4,0.6000000000000001,-0.7000000000000001,-0.2,9.4,2.8000000000000003,1.7,-162.70000000000002,-53.9
1698924304473.0,16,-0.1,1.3,-1.4000000000000001,0.1,10.100000000000001,2.1,9.9,-159.70000000000002,-57.699999999999996
1698924304490.0,16,-0.1,0.7000000000000001,-0.5,0.1,9.5,3.0,2.4000000000000004,-158.9,-60.7
1698924304508.0,16,-0.2,0.7000000000000001,-0.6000000000000001,0.0,9.600000000000001,2.9000000000000004,-0.2,-149.0,-59.20000000000001
1698924304522.0,16,-0.6000000000000001,0.9,-0.8,-0.30000000000000004,9.700000000000001,2.7,-10.5,-139.5,-56.2
1698924304539.0,16,-0.4,1.0,-0.4,-0.2,9.8,3.1,-15.6,-137.0,-55.0
1698924304555.0,16,0.0,1.1,-0.5,0.2,9.9,3.0,-20.4,-134.6,-56.7
1698924304573.0,16,0.5,0.5,-0.6000000000000001,0.7000000000000001,9.3,3.0,-27.2,-134.6,-58.1
1698924304589.0,16,0.9,0.30000000000000004,-0.6000000000000001,1.2000000000000002,9.1,3.1,-29.400000000000002,-136.4,-55.1
1698924304606.0,16,0.9,0.30000000000000004,-0.6000000000000001,1.2000000000000002,9.0,3.1,-29.300000000000004,-139.70000000000002,-52.300000000000004
1698924304622.0,16,0.5,0.1,-0.6000000000000001,0.8,8.8,3.3000000000000003,-29.400000000000002,-141.8,-44.1
1698924304639.0,16,0.2,-0.1,-0.5,0.5,8.700000000000001,3.3000000000000003,-30.4,-140.6,-41.6
1698924304656.0,16,0.2,-0.4,-0.1,0.6000000000000001,8.3,3.8000000000000003,-32.0,-137.1,-47.800000000000004
1698924304672.0,16,0.9,-0.4,-0.2,1.3,8.200000000000001,3.8000000000000003,-31.6,-131.20000000000002,-59.20000000000001
1698924304688.0,16,1.4000000000000001,-0.2,-0.6000000000000001,1.7000000000000002,8.3,3.5,-34.900000000000006,-115.7,-65.10000000000001
1698924304705.0,16,1.7000000000000002,-0.30000000000000004,-1.0,2.4000000000000004,8.0,3.2,-38.2,-104.60000000000001,-67.5
1698924304722.0,16,2.4000000000000004,-0.8,-0.9,2.7,7.7,3.4000000000000004,-42.1,-90.7,-71.30000000000001
1698924304739.0,16,2.6,-0.8,-1.0,2.8000000000000003,7.6000000000000005,3.4000000000000004,-35.1,-90.10000000000001,-62.0
1698924304756.0,16,2.4000000000000004,-0.7000000000000001,-0.9,2.7,7.800000000000001,3.5,-29.900000000000006,-93.0,-51.6
1698924304773.0,16,1.3,0.1,-0.7000000000000001,1.7000000000000002,8.5,3.7,-18.6,-90.4,-29.000000000000004
1698924304789.0,16,0.4,0.6000000000000001,-0.30000000000000004,0.8,9.0,4.2,-9.4,-76.5,-27.0
1698924304807.0,16,0.6000000000000001,0.4,-0.4,0.7000000000000001,8.9,4.1000000000000005,-5.500000000000001,-70.9,-31.8
1698924304823.0,16,1.0,0.4,-0.4,1.3,8.8,4.1000000000000005,-5.300000000000001,-62.199999999999996,-42.900000000000006
1698924304839.0,16,1.6,0.5,-0.1,1.9000000000000001,8.9,4.4,-11.9,-58.400000000000006,-42.2
1698924304856.0,16,1.6,0.5,-0.1,2.0,8.9,4.4,-16.400000000000002,-54.9,-38.2
1698924304874.0,16,1.3,0.5,0.0,1.7000000000000002,8.8,4.5,-28.500000000000004,-47.800000000000004,-29.500000000000004
1698924304889.0,16,0.8,0.30000000000000004,0.0,1.1,8.6,4.6000000000000005,-39.6,-38.900000000000006,-24.3
1698924304905.0,16,0.5,0.2,0.0,0.9,8.4,4.800000000000001,-45.5,-36.6,-22.8
1698924304922.0,16,0.4,0.30000000000000004,0.0,0.8,8.5,4.800000000000001,-45.4,-36.6,-22.4
1698924304938.0,16,0.2,0.6000000000000001,-0.1,0.6000000000000001,8.700000000000001,4.9,-42.800000000000004,-35.8,-21.5
1698924304956.0,16,0.2,0.5,0.0,0.5,8.6,5.0,-40.9,-33.900000000000006,-21.3
1698924304973.0,16,0.2,0.2,0.0,0.5,8.200000000000001,5.1000000000000005,-36.0,-27.2,-21.3
1698924304989.0,16,0.30000000000000004,-0.4,-0.1,0.6000000000000001,7.9,5.0,-33.400000000000006,-20.3,-22.6
1698924305006.0,16,0.4,-0.5,0.1,0.7000000000000001,7.5,5.4,-31.900000000000002,-17.599999999999998,-22.7
1698924305022.0,16,0.30000000000000004,-0.5,-0.1,0.6000000000000001,7.4,5.300000000000001,-30.4,-13.9,-19.6
1698924305039.0,16,0.2,-0.7000000000000001,0.4,0.5,7.300000000000001,5.5,-31.8,-13.3,-15.7
1698924305055.0,16,0.0,-0.6000000000000001,0.4,0.30000000000000004,7.2,5.9,-31.0,-14.0,-8.9
1698924305073.0,16,-0.5,-0.4,0.1,-0.2,7.300000000000001,5.7,-31.3,-13.200000000000001,-8.0
1698924305090.0,16,-0.7000000000000001,-0.5,0.0,-0.4,7.2,5.7,-35.7,-11.000000000000002,-12.3
1698924305106.0,16,-0.7000000000000001,-0.5,0.1,-0.4,7.1000000000000005,5.9,-36.5,-12.6,-13.6
1698924305123.0,16,-0.7000000000000001,-0.6000000000000001,-0.1,-0.4,6.9,5.6000000000000005,-36.0,-13.700000000000001,-11.8
1698924305139.0,16,-0.8,-1.1,-0.30000000000000004,-0.5,6.7,5.5,-36.6,-13.8,-9.8
1698924305155.0,16,-0.8,-1.2000000000000002,-0.30000000000000004,-0.6000000000000001,6.2,5.6000000000000005,-36.5,-11.6,-8.799999999999999
1698924305173.0,16,-0.8,-1.0,-0.4,-0.6000000000000001,6.300000000000001,5.6000000000000005,-30.9,-8.600000000000001,-11.6
1698924305189.0,16,-0.30000000000000004,-0.5,-0.4,-0.1,6.800000000000001,5.6000000000000005,-24.3,-6.3,-13.9
1698924305206.0,16,0.1,-0.7000000000000001,-0.30000000000000004,0.2,6.5,5.800000000000001,-20.7,-4.0,-12.000000000000002
1698924305223.0,16,0.1,-1.0,-0.2,0.2,6.2,5.9,-20.1,-2.6,-9.200000000000001
1698924305238.0,16,-0.1,-1.3,-0.4,0.0,5.9,5.800000000000001,-19.9,2.0,-3.2
1698924305255.0,16,-0.2,-1.4000000000000001,-0.4,-0.1,5.7,5.9,-19.700000000000003,2.3000000000000003,-0.6000000000000001
1698924305273.0,16,-0.30000000000000004,-1.3,-0.30000000000000004,-0.2,5.800000000000001,5.9,-18.1,0.6000000000000001,0.8
1698924305289.0,16,-0.6000000000000001,-1.1,-0.2,-0.5,5.9,6.0,-16.1,-2.3000000000000003,3.3000000000000003
1698924305307.0,16,-1.5,-0.7000000000000001,-0.1,-1.3,6.300000000000001,6.300000000000001,-12.4,-8.1,7.500000000000001
1698924305324.0,16,-1.5,-0.8,-0.1,-1.4000000000000001,6.2,6.2,-12.4,-7.8,3.9
1698924305339.0,16,-1.3,-1.1,-0.2,-1.1,5.800000000000001,6.2,-15.8,-3.8,-5.7
1698924305356.0,16,-1.0,-1.2000000000000002,-0.4,-0.9,5.800000000000001,6.0,-16.5,-0.2,-9.3
1698924305373.0,16,-0.6000000000000001,-1.3,-0.4,-0.4,5.6000000000000005,6.0,-16.1,0.4,-10.8
1698924305389.0,16,-0.4,-1.3,-0.2,-0.30000000000000004,5.5,6.2,-8.9,-1.0,-6.9
1698924305406.0,16,-0.4,-1.2000000000000002,-0.5,-0.30000000000000004,5.7,6.0,-2.0,-1.7,-2.4000000000000004
1698924305423.0,16,-0.4,-1.2000000000000002,-0.4,-0.4,5.6000000000000005,6.0,-1.8,-2.3000000000000003,-1.4
1698924305438.0,16,-0.5,-1.2000000000000002,-0.4,-0.4,5.6000000000000005,6.1000000000000005,-3.6,-3.4,0.5
1698924305455.0,16,-0.4,-1.0,-0.6000000000000001,-0.30000000000000004,5.800000000000001,5.800000000000001,-8.200000000000001,-4.0,2.6
1698924305472.0,16,-0.5,-0.9,-0.7000000000000001,-0.5,5.9,6.0,-13.3,-4.6000000000000005,3.0000000000000004
1698924305488.0,16,-0.8,-0.9,-0.5,-0.7000000000000001,5.9,6.0,-13.100000000000001,-3.2,2.9
1698924305505.0,16,-0.9,-0.6000000000000001,-0.1,-0.8,6.1000000000000005,6.4,-7.6,-1.4,1.4
1698924305522.0,16,-0.8,-0.5,-0.4,-0.7000000000000001,6.2,6.2,-2.9,-3.4,-2.1999999999999997
1698924305538.0,16,-0.7000000000000001,-0.5,-0.30000000000000004,-0.6000000000000001,6.2,6.2,-3.4,-4.2,-3.6
1698924305555.0,16,-0.8,-0.4,0.2,-0.7000000000000001,6.300000000000001,6.7,-4.800000000000001,-3.2,-3.8
1698924305572.0,16,-1.0,-0.2,0.2,-0.8,6.4,6.800000000000001,-5.500000000000001,-3.0000000000000004,-2.7
1698924305589.0,16,-1.0,-0.30000000000000004,0.0,-0.9,6.4,6.5,-7.300000000000001,-3.8,-3.0000000000000004
1698924305606.0,16,-1.1,-0.4,-0.1,-1.0,6.2,6.5,-12.8,-8.5,-4.300000000000001
1698924305622.0,16,-1.2000000000000002,-0.4,-0.1,-1.1,6.1000000000000005,6.5,-13.100000000000001,-10.9,-4.1000000000000005
1698924305639.0,16,-1.4000000000000001,-0.1,0.4,-1.3,6.5,7.0,-10.600000000000001,-12.3,-3.5
1698924305656.0,16,-1.3,0.2,0.6000000000000001,-1.2000000000000002,6.800000000000001,7.2,-3.4,-10.700000000000001,-6.4
1698924305672.0,16,-1.2000000000000002,0.30000000000000004,0.7000000000000001,-1.1,6.9,7.300000000000001,-1.4,-10.700000000000001,-9.9
1698924305690.0,16,-0.9,0.30000000000000004,1.0,-0.8,6.9,7.7,-1.5000000000000002,-11.3,-17.400000000000002
1698924305706.0,16,-0.7000000000000001,0.30000000000000004,1.0,-0.6000000000000001,6.800000000000001,7.7,-1.5000000000000002,-7.699999999999999,-22.4
1698924305723.0,16,-0.6000000000000001,0.2,1.1,-0.6000000000000001,6.800000000000001,7.7,-2.9,-8.1,-23.6
1698924305739.0,16,-0.7000000000000001,0.2,1.6,-0.7000000000000001,6.7,8.3,-0.5,-4.2,-23.1
1698924305755.0,16,-1.0,-0.2,1.3,-1.0,6.4,8.0,5.0,-7.6,-21.5
1698924305772.0,16,-0.9,-0.30000000000000004,1.3,-1.0,6.300000000000001,7.9,7.500000000000001,-5.9,-20.3
1698924305790.0,16,-0.6000000000000001,-0.4,1.0,-0.8,6.2,7.7,11.2,-6.7,-19.8
1698924305806.0,16,-0.6000000000000001,-0.5,0.9,-0.7000000000000001,6.1000000000000005,7.5,14.100000000000001,-6.1000000000000005,-19.8
1698924305822.0,16,-0.7000000000000001,-0.7000000000000001,1.0,-0.8,6.0,7.7,15.8,-6.1000000000000005,-18.6
1698924305839.0,16,-0.8,-0.7000000000000001,0.9,-1.0,6.0,7.5,22.7,-7.699999999999999,-14.200000000000001
1698924305856.0,16,-0.8,-0.9,1.0,-1.0,5.800000000000001,7.6000000000000005,31.0,-10.3,-10.700000000000001
1698924305872.0,16,-0.8,-1.1,0.8,-1.0,5.7,7.300000000000001,40.4,-13.100000000000001,-7.8
1698924305889.0,16,-0.8,-1.2000000000000002,0.8,-1.0,5.6000000000000005,7.2,44.4,-13.9,-5.9
1698924305905.0,16,-0.6000000000000001,-1.3,0.7000000000000001,-0.8,5.6000000000000005,7.0,53.400000000000006,-15.299999999999999,-0.2
1698924305922.0,16,-0.2,-1.4000000000000001,0.6000000000000001,-0.4,5.7,6.800000000000001,65.5,-15.399999999999999,5.300000000000001
1698924305939.0,16,0.0,-1.4000000000000001,0.30000000000000004,-0.1,5.800000000000001,6.300000000000001,72.6,-16.3,7.1000000000000005
1698924305956.0,16,0.4,-1.6,-0.4,0.30000000000000004,5.7,5.5,83.7,-16.5,9.700000000000001
1698924305973.0,16,0.30000000000000004,-1.9000000000000001,-1.0,0.30000000000000004,5.6000000000000005,4.6000000000000005,92.4,-11.8,12.5
1698924305989.0,16,0.4,-2.0,-1.2000000000000002,0.4,5.5,4.3,96.80000000000001,-10.1,13.8
1698924306008.0,16,0.30000000000000004,-1.7000000000000002,-0.8,0.4,6.1000000000000005,4.4,111.10000000000001,-8.1,15.000000000000002
1698924306023.0,16,0.2,0.2,0.30000000000000004,0.30000000000000004,8.200000000000001,5.1000000000000005,132.8,-8.700000000000001,16.400000000000002
1698924306039.0,16,0.2,1.7000000000000002,1.1,0.4,9.700000000000001,5.800000000000001,144.10000000000002,-9.0,16.700000000000003
1698924306055.0,16,0.2,5.7,2.6,0.4,14.100000000000001,6.9,158.5,-12.8,18.0
1698924306073.0,16,0.4,9.3,3.4000000000000004,0.7000000000000001,17.900000000000002,7.2,145.7,-6.9,14.800000000000002
1698924306088.0,16,0.6000000000000001,8.9,2.9000000000000004,0.9,17.6,6.6000000000000005,122.7,-5.1,10.4
1698924306105.0,16,2.0,9.200000000000001,-0.9,2.4000000000000004,18.2,2.3000000000000003,167.5,-98.6,-1.6
1698924306123.0,16,-0.8,-0.2,-2.0,-0.30000000000000004,9.1,0.5,198.9,43.2,4.2
1698924306139.0,16,1.0,3.8000000000000003,3.8000000000000003,1.5,13.100000000000001,6.1000000000000005,146.20000000000002,1.0999999999999999,2.1
1698924306155.0,16,0.0,6.2,-4.1000000000000005,0.4,15.700000000000001,-2.5,176.5,-59.60000000000001,-18.7
1698924306172.0,16,-2.1,-1.7000000000000002,-5.1000000000000005,-1.7000000000000002,7.9,-4.0,129.7,-17.0,-20.900000000000002
1698924306189.0,16,-0.2,-0.8,-4.3,0.1,8.700000000000001,-3.4000000000000004,95.4,2.6,-13.6
1698924306205.0,16,-1.4000000000000001,-2.2,-0.9,-1.1,7.4,-0.30000000000000004,96.4,7.0,-12.100000000000001
1698924306222.0,16,-0.4,-0.2,-1.8,-0.1,9.4,-1.5,100.60000000000001,17.3,-10.1
1698924306238.0,16,-0.2,0.1,-1.5,-0.1,8.8,-1.2000000000000002,101.0,20.8,-8.5
1698924306256.0,16,-0.4,-0.30000000000000004,-1.0,-0.2,9.3,-1.3,99.30000000000001,27.900000000000002,-7.2
1698924306273.0,16,-0.2,-0.8,0.5,0.0,8.8,-0.1,98.5,33.0,-8.3
1698924306289.0,16,-0.9,-0.8,-0.6000000000000001,-0.7000000000000001,8.700000000000001,-1.4000000000000001,100.10000000000001,33.400000000000006,-8.799999999999999
1698924306305.0,16,-0.5,-0.30000000000000004,-0.5,-0.30000000000000004,9.200000000000001,-1.5,92.30000000000001,30.9,-2.7
1698924306322.0,16,-0.30000000000000004,-0.2,0.0,-0.1,9.3,-1.4000000000000001,87.60000000000001,23.700000000000003,-0.4
1698924306339.0,16,-0.30000000000000004,0.0,-0.4,-0.1,9.4,-1.9000000000000001,85.60000000000001,20.7,-0.30000000000000004
1698924306355.0,16,-0.4,-0.1,-0.9,-0.2,9.4,-2.7,75.2,16.1,-0.5
1698924306373.0,16,-0.2,-0.4,-0.9,0.0,8.9,-2.9000000000000004,64.7,14.3,-0.9
1698924306389.0,16,0.0,-0.6000000000000001,-0.9,0.2,8.700000000000001,-3.0,60.20000000000001,13.4,-1.7
1698924306408.0,16,-0.4,-0.1,-1.2000000000000002,-0.1,9.200000000000001,-3.4000000000000004,53.00000000000001,4.300000000000001,-2.8
1698924306422.0,16,-0.30000000000000004,0.1,-1.0,-0.1,9.4,-3.4000000000000004,46.6,-0.6000000000000001,-1.4
1698924306440.0,16,-0.4,-0.2,-0.8,-0.1,9.200000000000001,-3.3000000000000003,42.400000000000006,-3.2,-1.4
1698924306455.0,16,-0.30000000000000004,-0.30000000000000004,-0.7000000000000001,-0.1,8.9,-3.4000000000000004,35.9,-5.9,-1.5000000000000002
1698924306473.0,16,-0.30000000000000004,0.1,-0.7000000000000001,-0.1,9.3,-3.5,30.100000000000005,-7.500000000000001,-1.3
1698924306490.0,16,-0.2,0.0,-0.7000000000000001,-0.1,9.200000000000001,-3.5,27.1,-8.4,-1.3
1698924306505.0,16,-0.1,0.1,-0.5,0.1,9.3,-3.4000000000000004,21.6,-9.1,-1.7
1698924306523.0,16,-0.30000000000000004,-0.1,-0.6000000000000001,-0.2,9.0,-3.6,15.8,-8.799999999999999,-2.0
1698924306538.0,16,-0.4,-0.2,-0.7000000000000001,-0.2,8.9,-3.7,12.6,-7.699999999999999,-1.8
1698924306556.0,16,-0.4,0.0,-0.6000000000000001,-0.30000000000000004,9.1,-3.5,6.9,-5.1,-1.4
1698924306573.0,16,-0.30000000000000004,0.0,-0.4,-0.2,9.1,-3.4000000000000004,3.2,-2.8,-1.0
1698924306591.0,16,-0.30000000000000004,0.0,-0.4,-0.30000000000000004,9.0,-3.4000000000000004,0.5,-1.8,-0.7
1698924306606.0,16,-0.4,-0.2,-0.5,-0.30000000000000004,8.9,-3.5,-0.30000000000000004,-1.8,-0.6000000000000001
1698924306622.0,16,-0.5,-0.2,-0.4,-0.4,8.9,-3.5,-2.0,-2.3000000000000003,-0.6000000000000001
1698924306639.0,16,-0.5,-0.2,-0.30000000000000004,-0.4,8.9,-3.3000000000000003,-2.6,-2.6,-0.4
1698924306656.0,16,-0.4,-0.1,-0.1,-0.30000000000000004,9.0,-3.1,-3.1,-2.9,-0.1
1698924306673.0,16,-0.4,-0.1,0.1,-0.30000000000000004,9.0,-2.9000000000000004,-3.3000000000000003,-3.5,0.1
1698924306689.0,16,-0.4,0.0,0.1,-0.30000000000000004,9.1,-2.8000000000000003,-2.5,-3.6,0.1
1698924306705.0,16,-0.4,0.0,0.2,-0.30000000000000004,9.1,-2.8000000000000003,-2.1999999999999997,-3.6,0.1
1698924306722.0,16,-0.30000000000000004,0.0,0.2,-0.2,9.1,-2.8000000000000003,-1.3,-3.2,0.4
1698924306739.0,16,-0.30000000000000004,0.0,0.30000000000000004,-0.2,9.1,-2.7,-1.4,-2.7,0.2
1698924306756.0,16,-0.30000000000000004,-0.1,0.2,-0.30000000000000004,9.1,-2.7,-1.7,-2.1,0.2
1698924306773.0,16,-0.30000000000000004,0.0,0.30000000000000004,-0.2,9.1,-2.7,-1.8,-1.3,0.30000000000000004
1698924306790.0,16,-0.30000000000000004,0.0,0.2,-0.2,9.1,-2.7,-1.7,-0.7,0.1
1698924306806.0,16,-0.30000000000000004,0.0,0.2,-0.30000000000000004,9.1,-2.7,-1.6,-0.2,0.0
1698924306822.0,16,-0.30000000000000004,0.0,0.1,-0.30000000000000004,9.1,-2.8000000000000003,-1.0999999999999999,0.6000000000000001,0.0
1698924306838.0,16,-0.30000000000000004,-0.1,0.0,-0.30000000000000004,9.0,-2.9000000000000004,-0.4,1.2000000000000002,-0.1
1698924306855.0,16,-0.2,-0.1,0.0,-0.30000000000000004,9.1,-2.9000000000000004,0.0,1.2000000000000002,0.0
1698924306873.0,16,-0.2,-0.1,0.0,-0.2,9.0,-2.9000000000000004,0.8,1.0999999999999999,-0.2
1698924306890.0,16,-0.2,-0.1,-0.1,-0.30000000000000004,9.1,-3.0,1.5000000000000002,0.9,-0.1
1698924306906.0,16,-0.2,-0.1,-0.1,-0.30000000000000004,9.0,-3.0,1.7,0.6000000000000001,-0.2
1698924306923.0,16,-0.2,-0.1,-0.1,-0.30000000000000004,9.0,-3.0,1.9,0.7,0.0
1698924306939.0,16,-0.2,-0.1,-0.1,-0.30000000000000004,9.0,-3.1,1.8,0.7,0.0
1698924306955.0,16,-0.2,-0.1,-0.1,-0.30000000000000004,9.0,-3.0,1.6,0.6000000000000001,0.0
1698924306972.0,16,-0.2,-0.1,-0.1,-0.30000000000000004,9.0,-3.0,1.3,0.5,0.0
1698924306989.0,16,-0.2,0.0,-0.1,-0.30000000000000004,9.0,-3.1,1.0999999999999999,0.6000000000000001,-0.1
1698924307009.0,16,-0.2,-0.1,-0.1,-0.30000000000000004,9.0,-3.1,0.5,0.4,0.1
1698924307024.0,16,-0.2,-0.1,-0.1,-0.30000000000000004,9.0,-3.1,0.1,0.5,0.1
1698924307039.0,16,-0.2,0.0,-0.1,-0.30000000000000004,9.0,-3.1,-0.2,0.6000000000000001,0.0
1698924307055.0,16,-0.2,0.0,-0.1,-0.30000000000000004,9.0,-3.1,-0.5,0.30000000000000004,0.1
1698924307073.0,16,-0.1,-0.1,0.0,-0.30000000000000004,9.0,-3.0,-0.7,0.0,0.2
1698924307089.0,16,-0.1,0.0,0.0,-0.30000000000000004,9.1,-3.0,-0.6000000000000001,0.2,0.2
1698924307106.0,16,-0.1,0.0,0.1,-0.30000000000000004,9.0,-2.9000000000000004,-0.6000000000000001,0.7,0.30000000000000004
1698924307123.0,16,-0.1,0.0,0.0,-0.30000000000000004,9.0,-3.0,-0.6000000000000001,0.9,0.30000000000000004
1698924307138.0,16,-0.1,-0.1,0.0,-0.2,9.0,-3.0,-0.7,0.9,0.30000000000000004
1698924307155.0,16,-0.1,0.0,0.1,-0.2,9.0,-2.9000000000000004,-0.8,1.0999999999999999,0.30000000000000004
1698924307172.0,16,-0.1,0.0,0.0,-0.2,9.1,-3.0,-0.7,1.0,0.1
1698924307188.0,16,-0.1,0.0,-0.1,-0.30000000000000004,9.1,-3.0,-0.9,0.9,0.2
1698924307205.0,16,-0.1,0.0,-0.1,-0.30000000000000004,9.1,-3.1,-0.9,0.9,0.30000000000000004
1698924307222.0,16,-0.1,0.0,0.0,-0.2,9.0,-3.0,-1.3,0.8,0.2
1698924307239.0,16,-0.1,0.0,0.0,-0.2,9.0,-3.0,-1.5000000000000002,0.4,0.30000000000000004
1698924307255.0,16,-0.1,0.0,0.0,-0.2,9.0,-3.0,-1.5000000000000002,0.4,0.2
1698924307273.0,16,-0.1,0.0,0.0,-0.30000000000000004,9.0,-3.0,-1.4,0.5,0.30000000000000004
1698924307289.0,16,-0.1,0.0,0.0,-0.30000000000000004,9.0,-3.0,-1.4,0.5,0.2
1698924307306.0,16,-0.1,0.0,0.0,-0.30000000000000004,9.1,-3.0,-1.2000000000000002,0.4,0.30000000000000004
1698924307323.0,16,-0.1,0.0,0.0,-0.30000000000000004,9.0,-3.0,-1.2000000000000002,0.30000000000000004,0.2
1698924307339.0,16,-0.1,0.0,0.0,-0.30000000000000004,9.0,-2.9000000000000004,-1.0999999999999999,0.4,0.30000000000000004
1698924307355.0,16,0.0,0.0,0.0,-0.2,9.1,-2.9000000000000004,-0.6000000000000001,0.4,0.2
1698924307373.0,16,0.0,0.0,0.0,-0.2,9.1,-2.9000000000000004,-0.4,0.4,0.30000000000000004
1698924307389.0,16,0.0,0.0,0.0,-0.2,9.0,-2.9000000000000004,-0.2,0.30000000000000004,0.1
1698924307405.0,16,0.0,0.0,0.0,-0.2,9.1,-3.0,0.0,0.2,0.1
1698924307423.0,16,0.0,0.0,0.0,-0.2,9.1,-2.9000000000000004,0.2,0.1,0.1
1698924307438.0,16,0.0,0.0,0.0,-0.2,9.0,-2.9000000000000004,0.5,0.1,0.1
1698924307455.0,16,0.0,0.0,0.0,-0.2,9.1,-2.9000000000000004,0.6000000000000001,0.1,-0.1
1698924307472.0,16,0.0,0.0,0.0,-0.2,9.1,-3.0,0.7,0.1,-0.1
1698924307488.0,16,-0.1,0.0,0.0,-0.2,9.1,-3.0,0.6000000000000001,0.1,-0.2
1698924307506.0,16,0.0,0.0,0.0,-0.2,9.0,-3.0,0.5,0.1,-0.2
1698924307522.0,16,0.0,0.0,0.0,-0.2,9.0,-3.0,0.5,0.1,-0.2
1698924307539.0,16,0.0,0.0,0.0,-0.2,9.1,-3.0,0.4,-0.1,-0.2
1698924307555.0,16,0.0,0.0,-0.1,-0.30000000000000004,9.0,-3.0,0.30000000000000004,-0.1,-0.30000000000000004
1698924307573.0,16,-0.1,0.0,-0.1,-0.30000000000000004,9.0,-3.0,0.30000000000000004,-0.2,-0.2
1698924307589.0,16,0.0,0.0,0.0,-0.2,9.1,-3.0,0.30000000000000004,-0.30000000000000004,-0.1
1698924307606.0,16,0.0,0.0,0.0,-0.30000000000000004,9.0,-2.9000000000000004,0.30000000000000004,-0.2,-0.2
1698924307622.0,16,0.0,0.0,0.0,-0.30000000000000004,9.0,-2.9000000000000004,0.30000000000000004,-0.2,-0.1
1698924307639.0,16,0.0,0.0,0.0,-0.30000000000000004,9.0,-3.0,0.2,-0.2,-0.1
1698924307655.0,16,0.0,0.0,0.0,-0.30000000000000004,9.0,-3.0,0.1,-0.30000000000000004,0.0
1698924307671.0,16,0.0,0.0,0.0,-0.2,9.0,-3.0,0.0,0.0,-0.1
1698924307689.0,16,0.0,0.0,0.0,-0.2,9.0,-3.0,0.1,0.0,-0.1
1698924307706.0,16,0.0,0.0,0.0,-0.30000000000000004,9.0,-3.0,0.2,-0.2,0.0
1698924307722.0,16,0.0,0.0,0.0,-0.30000000000000004,9.1,-3.0,0.30000000000000004,-0.2,0.1
1698924307739.0,16,0.0,0.0,0.0,-0.30000000000000004,9.1,-2.9000000000000004,0.5,-0.2,0.0
1698924307755.0,16,0.0,0.0,0.0,-0.30000000000000004,9.1,-2.9000000000000004,0.5,-0.2,-0.1
1698924307772.0,16,0.0,0.0,0.0,-0.30000000000000004,9.1,-2.9000000000000004,0.5,-0.4,-0.1
1698924307789.0,16,0.0,0.0,-0.1,-0.2,9.0,-3.0,0.30000000000000004,-0.5,-0.1
1698924307805.0,16,0.0,0.0,0.0,-0.2,9.0,-3.0,0.30000000000000004,-0.7,0.0
1698924307822.0,16,0.0,0.0,0.0,-0.2,9.1,-3.0,0.30000000000000004,-0.5,-0.1
1698924307839.0,16,0.0,0.0,0.0,-0.2,9.0,-3.0,0.4,-0.5,0.0
1698924307856.0,16,0.0,0.0,0.0,-0.2,9.0,-3.0,0.5,-0.4,0.0
1698924307872.0,16,0.0,0.0,0.0,-0.2,9.0,-3.0,0.5,-0.1,0.0
1698924307889.0,16,0.0,0.0,0.0,-0.30000000000000004,9.0,-3.0,0.30000000000000004,-0.1,-0.1
1698924307905.0,16,0.0,0.0,0.0,-0.30000000000000004,9.1,-3.0,0.30000000000000004,-0.2,-0.1
1698924307922.0,16,0.0,0.0,-0.1,-0.30000000000000004,9.0,-3.0,0.2,-0.2,0.0
1698924307939.0,16,0.0,0.0,0.0,-0.30000000000000004,9.0,-3.0,0.0,-0.2,0.0
1698924307955.0,16,0.0,0.0,0.0,-0.30000000000000004,9.1,-3.0,-0.2,-0.4,-0.1
1698924307972.0,16,0.0,0.0,0.0,-0.30000000000000004,9.0,-3.0,-0.30000000000000004,-0.4,0.0
1698924307989.0,16,0.0,0.0,0.0,-0.30000000000000004,9.0,-3.0,-0.6000000000000001,-0.4,-0.1
1698924308005.0,16,0.0,0.0,0.0,-0.30000000000000004,9.0,-3.0,-0.8,-0.2,0.0
1698924308023.0,16,0.0,0.0,0.0,-0.2,9.0,-3.0,-0.8,-0.30000000000000004,-0.1
1698924308039.0,16,0.0,0.0,0.0,-0.30000000000000004,9.1,-3.0,-0.8,-0.30000000000000004,0.1
1698924308055.0,16,0.0,0.0,0.0,-0.2,9.0,-3.0,-0.6000000000000001,-0.2,0.1
1698924308072.0,16,0.0,0.0,0.0,-0.30000000000000004,9.0,-2.9000000000000004,-0.5,0.0,0.0
1698924308089.0,16,0.0,0.0,0.0,-0.2,9.0,-3.0,-0.5,0.1,0.1
1698924308105.0,16,0.0,0.0,0.1,-0.2,9.0,-2.9000000000000004,-0.30000000000000004,0.1,0.0
1698924308123.0,16,0.0,0.0,0.1,-0.30000000000000004,9.0,-2.9000000000000004,-0.2,0.2,-0.1
1698924308138.0,16,0.0,0.0,0.0,-0.30000000000000004,9.0,-2.9000000000000004,-0.1,0.2,0.0
1698924308155.0,16,0.0,0.0,0.0,-0.30000000000000004,9.0,-2.9000000000000004,0.0,0.2,0.0
1698924308171.0,16,0.0,0.0,0.0,-0.30000000000000004,9.1,-3.0,-0.2,0.2,0.0
1698924308188.0,16,0.0,0.0,0.0,-0.30000000000000004,9.1,-3.0,-0.2,0.2,0.0
1698924308205.0,16,0.0,0.0,0.0,-0.30000000000000004,9.0,-3.0,-0.1,0.1,0.1
1698924308221.0,16,0.0,0.0,0.0,-0.30000000000000004,9.0,-3.0,0.0,-0.1,0.1
1698924308238.0,16,0.0,0.0,0.0,-0.2,9.0,-3.0,0.1,0.2,0.0
1698924308255.0,16,0.0,0.0,0.0,-0.2,9.0,-3.0,0.2,0.2,0.0
1698924308272.0,16,0.0,0.0,0.0,-0.30000000000000004,9.1,-3.0,0.2,0.2,0.1
1698924308288.0,16,0.0,0.0,0.0,-0.2,9.0,-3.0,0.2,0.2,0.0
1698924308305.0,16,0.0,0.0,0.0,-0.30000000000000004,9.0,-3.0,0.1,0.2,0.1
1698924308322.0,16,0.0,0.0,0.0,-0.30000000000000004,9.0,-3.0,0.0,0.4,0.1
1698924308339.0,16,0.0,0.0,0.0,-0.2,9.0,-2.9000000000000004,-0.1,0.30000000000000004,0.0
1698924308355.0,16,0.0,0.0,0.0,-0.30000000000000004,9.0,-3.0,0.1,0.2,0.1
1698924308372.0,16,0.0,0.0,-0.1,-0.30000000000000004,9.0,-3.0,-0.1,0.4,0.0
1698924308389.0,16,0.0,0.0,0.0,-0.30000000000000004,9.0,-3.0,-0.30000000000000004,0.5,0.1
1698924308405.0,16,0.0,0.0,0.0,-0.30000000000000004,9.0,-3.0,-0.4,0.5,0.1
1698924308421.0,16,0.0,0.0,0.0,-0.2,9.0,-3.0,-0.6000000000000001,0.4,0.1
1698924308439.0,16,0.0,0.0,0.0,-0.2,9.1,-2.9000000000000004,-0.30000000000000004,0.2,0.1
1698924308455.0,16,0.0,0.0,0.0,-0.2,9.1,-2.9000000000000004,-0.4,0.1,0.1
1698924308472.0,16,0.0,0.0,0.0,-0.2,9.0,-3.0,-0.4,0.1,0.1
1698924308491.0,16,0.0,0.0,0.0,-0.2,9.1,-3.0,-0.4,0.2,0.0
1698924308505.0,16,0.0,0.0,0.0,-0.2,9.0,-3.0,-0.4,0.1,0.0
1698924308522.0,16,0.0,0.0,0.0,-0.30000000000000004,9.0,-3.0,-0.4,0.2,-0.1
1698924308538.0,16,0.0,0.0,0.0,-0.2,9.0,-3.0,-0.5,0.1,0.0
1698924308555.0,16,0.0,0.0,0.0,-0.30000000000000004,9.0,-3.0,-0.6000000000000001,0.1,0.0
1698924308572.0,16,0.0,0.0,0.0,-0.30000000000000004,9.0,-2.9000000000000004,-0.7,-0.1,0.0
1698924308588.0,16,0.0,0.0,0.0,-0.30000000000000004,9.0,-2.9000000000000004,-0.5,-0.1,0.0
1698924308605.0,16,0.0,0.0,0.0,-0.30000000000000004,9.1,-2.9000000000000004,-0.5,-0.2,0.1
1698924308622.0,16,0.0,0.0,0.0,-0.2,9.1,-2.9000000000000004,-0.30000000000000004,-0.2,0.0
1698924308639.0,16,0.0,0.0,0.0,-0.2,9.0,-2.9000000000000004,-0.30000000000000004,-0.2,0.0
1698924308656.0,16,0.0,0.0,0.0,-0.2,9.1,-3.0,-0.30000000000000004,-0.2,0.0
1698924308672.0,16,0.0,0.0,0.0,-0.2,9.1,-2.9000000000000004,-0.1,-0.2,-0.1
1698924308689.0,16,0.0,0.0,0.0,-0.2,9.1,-2.9000000000000004,0.2,-0.2,0.0
1698924308705.0,16,0.0,0.0,0.0,-0.2,9.1,-2.9000000000000004,0.2,-0.2,0.0
1698924308722.0,16,0.0,0.0,0.0,-0.30000000000000004,9.0,-2.9000000000000004,0.4,-0.1,-0.1
1698924308738.0,16,0.0,0.0,0.0,-0.30000000000000004,9.1,-3.0,0.5,-0.1,-0.2
1698924308755.0,16,0.0,0.0,0.0,-0.30000000000000004,9.0,-2.9000000000000004,0.6000000000000001,-0.1,-0.2
1698924308772.0,16,0.0,0.0,0.0,-0.30000000000000004,9.0,-2.9000000000000004,0.6000000000000001,0.0,-0.1
1698924308789.0,16,0.0,0.0,0.0,-0.30000000000000004,9.1,-3.0,0.7,-0.2,0.1
1698924308805.0,16,0.0,0.0,0.0,-0.30000000000000004,9.1,-2.9000000000000004,0.7,-0.1,0.0
1698924308822.0,16,0.0,0.0,0.0,-0.2,9.0,-3.0,0.6000000000000001,-0.1,0.0
1698924308838.0,16,0.0,0.0,0.0,-0.30000000000000004,9.0,-3.0,0.5,0.0,0.0
1698924308855.0,16,0.0,0.0,0.0,-0.30000000000000004,9.0,-3.0,0.4,0.1,0.0
1698924308872.0,16,0.0,0.0,-0.1,-0.30000000000000004,9.0,-3.0,0.30000000000000004,-0.2,0.0
1698924308888.0,16,0.0,0.0,0.0,-0.30000000000000004,9.0,-3.0,0.4,-0.30000000000000004,0.0
1698924308905.0,16,0.0,0.0,0.0,-0.2,9.0,-3.0,0.30000000000000004,-0.30000000000000004,0.0
1698924308922.0,16,0.0,0.0,0.0,-0.2,9.0,-3.0,0.2,-0.2,0.0
1698924308938.0,16,0.0,0.0,0.0,-0.2,9.0,-3.0,0.0,0.0,0.0
1698924308955.0,16,0.0,0.0,0.0,-0.2,9.0,-3.0,0.0,0.0,0.1
1698924308972.0,16,0.0,0.0,0.0,-0.2,9.0,-3.0,-0.30000000000000004,0.1,0.0
1698924308988.0,16,0.0,0.0,0.0,-0.30000000000000004,9.0,-3.0,-0.4,0.2,0.0
1698924309006.0,16,0.0,0.0,0.0,-0.2,9.0,-2.9000000000000004,-0.4,0.2,0.0
1698924309023.0,16,0.0,0.0,0.0,-0.30000000000000004,9.0,-3.0,-0.30000000000000004,0.2,0.0
1698924309038.0,16,0.0,0.0,0.0,-0.30000000000000004,9.0,-3.0,-0.30000000000000004,0.2,-0.1
1698924309055.0,16,0.0,0.0,0.0,-0.30000000000000004,9.0,-3.0,-0.4,0.2,0.0
1698924309072.0,16,0.0,0.0,0.0,-0.30000000000000004,9.0,-3.0,-0.30000000000000004,0.2,0.0
1698924309088.0,16,0.0,0.0,0.0,-0.30000000000000004,9.0,-3.0,-0.4,0.2,0.0
1698924309105.0,16,0.0,0.0,0.0,-0.30000000000000004,9.0,-3.0,-0.4,0.2,0.1
1698924309123.0,16,0.0,0.0,0.0,-0.2,9.0,-2.9000000000000004,-0.4,0.1,0.1
1698924309138.0,16,0.0,0.0,0.0,-0.2,9.1,-3.0,-0.4,0.2,0.0
1698924309155.0,16,0.0,0.0,0.0,-0.2,9.1,-3.0,-0.4,0.1,0.0
1698924309172.0,16,0.0,0.0,0.0,-0.2,9.0,-3.0,-0.6000000000000001,0.1,0.0
1698924309188.0,16,0.0,0.0,0.0,-0.2,9.0,-3.0,-0.7,-0.2,0.0
1698924309206.0,16,0.0,0.0,0.0,-0.2,9.0,-3.0,-0.6000000000000001,-0.2,-0.2
1698924309223.0,16,0.0,0.0,0.0,-0.2,9.0,-3.0,-0.6000000000000001,-0.30000000000000004,0.0
1698924309238.0,16,0.0,0.0,0.0,-0.2,9.0,-2.9000000000000004,-0.4,-0.4,0.0
1698924309255.0,16,0.0,0.0,0.0,-0.2,9.0,-2.9000000000000004,-0.30000000000000004,-0.30000000000000004,0.0
1698924309272.0,16,0.0,0.0,0.0,-0.2,9.1,-3.0,-0.30000000000000004,-0.2,0.0
1698924309289.0,16,0.0,0.0,0.0,-0.2,9.1,-3.0,-0.30000000000000004,-0.4,0.0
1698924309306.0,16,0.0,0.0,0.0,-0.30000000000000004,9.0,-2.9000000000000004,-0.30000000000000004,-0.2,0.1
1698924309323.0,16,0.0,0.0,0.0,-0.30000000000000004,9.1,-2.9000000000000004,-0.2,-0.2,0.0
1698924309338.0,16,0.0,0.0,0.1,-0.30000000000000004,9.1,-2.9000000000000004,-0.1,-0.2,0.0
1698924309355.0,16,0.0,0.0,0.0,-0.2,9.1,-2.9000000000000004,-0.1,-0.1,0.0
1698924309372.0,16,0.0,0.0,0.1,-0.30000000000000004,9.1,-2.9000000000000004,-0.1,-0.2,0.0
1698924309388.0,16,0.0,0.0,0.0,-0.2,9.0,-2.9000000000000004,0.0,-0.2,0.0
1698924309405.0,16,0.0,0.0,0.0,-0.2,9.1,-2.9000000000000004,0.0,-0.1,0.0
