ts,interval,accx,accy,accz,accGx,accGy,accGz,alpha,beta,gamma
1698672816016.0,16,0.0,0.0,0.0,1.1,9.0,2.6,0.30000000000000004,-0.2,-0.1
1698672816033.0,16,0.0,0.0,0.0,1.1,9.0,2.6,0.30000000000000004,-0.1,-0.4
1698672816049.0,16,0.0,0.0,0.0,1.1,9.0,2.6,0.30000000000000004,-0.1,-0.30000000000000004
1698672816065.0,16,0.0,0.0,0.0,1.1,9.0,2.6,0.30000000000000004,-0.2,-0.2
1698672816082.0,16,0.0,0.0,0.0,1.1,9.0,2.6,0.2,0.0,-0.2
1698672816099.0,16,0.0,0.0,0.0,1.2000000000000002,9.0,2.6,0.1,0.1,-0.30000000000000004
1698672816115.0,16,0.0,0.0,0.0,1.1,9.0,2.6,0.1,0.30000000000000004,-0.4
1698672816132.0,16,0.0,0.0,0.0,1.1,9.0,2.5,0.1,0.0,-0.1
1698672816149.0,16,0.0,0.0,0.0,1.1,9.0,2.5,0.30000000000000004,0.0,-0.1
1698672816165.0,16,0.0,0.0,0.0,1.1,9.0,2.6,0.6000000000000001,-0.2,-0.2
1698672816182.0,16,0.0,0.0,0.0,1.1,9.0,2.6,0.8,-0.2,-0.30000000000000004
1698672816199.0,16,0.0,0.0,0.0,1.2000000000000002,9.0,2.6,0.8,-0.2,-0.2
1698672816215.0,16,0.0,0.0,0.0,1.1,9.0,2.6,0.5,0.0,-0.2
1698672816232.0,16,0.0,0.0,0.0,1.1,9.0,2.6,0.1,-0.1,-0.30000000000000004
1698672816249.0,16,0.0,0.0,0.0,1.1,9.0,2.6,0.0,-0.2,-0.2
1698672816265.0,16,0.0,0.0,0.0,1.1,9.0,2.6,0.0,-0.30000000000000004,-0.1
1698672816282.0,16,0.0,0.0,0.0,1.1,9.0,2.6,0.1,-0.30000000000000004,-0.1
1698672816299.0,16,0.0,0.0,0.0,1.1,9.0,2.6,0.4,-0.4,-0.1
1698672816316.0,16,0.0,0.0,0.0,1.1,9.0,2.6,0.5,-0.4,-0.1
1698672816333.0,16,0.0,0.0,0.0,1.2000000000000002,9.0,2.6,0.7,-0.2,-0.1
1698672816349.0,16,0.0,0.0,0.0,1.1,9.0,2.6,0.8,-0.1,-0.1
1698672816365.0,16,0.0,0.0,0.0,1.1,9.0,2.6,0.7,-0.30000000000000004,-0.2
1698672816382.0,16,0.0,0.0,0.0,1.1,9.0,2.6,0.5,0.1,-0.30000000000000004
1698672816399.0,16,0.0,0.0,0.0,1.1,9.0,2.6,0.2,0.30000000000000004,-0.2
1698672816416.0,16,0.0,0.0,0.0,1.1,9.0,2.6,-0.1,0.30000000000000004,-0.4
1698672816432.0,16,0.0,0.0,-0.1,1.1,9.0,2.6,0.4,0.4,-0.5
1698672816449.0,16,0.0,0.0,0.0,1.2000000000000002,9.0,2.5,0.9,0.1,-0.5
1698672816465.0,16,0.0,0.0,-0.1,1.1,9.0,2.5,2.0,0.2,0.1
1698672816482.0,16,0.0,0.0,0.0,1.1,9.0,2.5,2.6,-0.5,-0.1
1698672816499.0,16,0.0,0.0,0.0,1.1,9.0,2.6,3.7000000000000006,-0.6000000000000001,-0.5
1698672816516.0,16,0.0,-0.1,0.0,1.1,9.0,2.6,4.2,-0.5,-0.6000000000000001
1698672816532.0,16,0.0,-0.1,0.1,1.1,8.9,2.6,4.5,-0.5,-0.5
1698672816549.0,16,0.0,-0.1,0.1,1.1,8.9,2.6,4.5,-0.6000000000000001,-0.5
1698672816566.0,16,-0.1,0.0,0.1,1.1,9.0,2.6,4.6000000000000005,-0.5,-0.4
1698672816582.0,16,0.0,-0.1,0.1,1.1,8.9,2.6,4.800000000000001,-1.0,-0.6000000000000001
1698672816599.0,16,0.0,-0.1,0.1,1.1,8.9,2.6,4.800000000000001,-1.0999999999999999,-0.9
1698672816615.0,16,0.0,-0.1,0.1,1.1,8.9,2.6,5.300000000000001,-1.5000000000000002,-0.7
1698672816632.0,16,-0.1,-0.1,0.1,1.0,8.9,2.5,5.9,-1.9,-0.4
1698672816649.0,16,-0.1,-0.1,0.0,1.0,8.9,2.5,5.9,-2.1999999999999997,-0.4
1698672816665.0,16,0.0,-0.1,0.1,1.1,9.0,2.5,6.1000000000000005,-2.8,-1.0999999999999999
1698672816682.0,16,0.0,0.0,0.1,1.1,9.0,2.5,6.8,-2.6,-1.5000000000000002
1698672816698.0,16,0.0,-0.1,0.1,1.1,9.0,2.5,7.300000000000001,-2.1999999999999997,-1.5000000000000002
1698672816716.0,16,0.0,-0.1,0.0,1.1,9.0,2.4000000000000004,7.400000000000001,-2.3000000000000003,-1.6
1698672816733.0,16,0.0,0.0,0.0,1.1,9.1,2.4000000000000004,7.500000000000001,-2.5,-1.2000000000000002
1698672816750.0,16,0.0,0.0,0.0,1.1,9.1,2.4000000000000004,7.400000000000001,-2.7,-1.3
1698672816766.0,16,0.0,0.0,0.0,1.1,9.1,2.4000000000000004,7.500000000000001,-2.8,-1.4
1698672816782.0,16,0.0,0.1,0.0,1.1,9.1,2.3000000000000003,7.500000000000001,-2.4000000000000004,-1.6
1698672816799.0,16,0.0,0.1,-0.1,1.1,9.200000000000001,2.2,7.500000000000001,-2.6,-1.6
1698672816815.0,16,0.0,0.1,-0.1,1.1,9.200000000000001,2.2,7.300000000000001,-2.6,-1.7
1698672816832.0,16,0.0,0.0,-0.1,1.1,9.1,2.2,6.9,-2.3000000000000003,-1.9
1698672816849.0,16,0.0,0.1,-0.1,1.1,9.200000000000001,2.1,5.9,-2.0,-1.9
1698672816866.0,16,0.0,0.0,-0.1,1.1,9.1,2.1,5.500000000000001,-1.9,-1.7
1698672816882.0,16,0.0,0.0,-0.1,1.1,9.1,2.1,4.800000000000001,-2.5,-1.8
1698672816899.0,16,0.0,0.0,-0.1,1.0,9.1,2.0,4.5,-2.6,-1.8
1698672816915.0,16,0.0,0.0,-0.1,1.0,9.1,2.0,4.3999999999999995,-2.7,-2.0
1698672816933.0,16,0.0,0.0,-0.1,1.0,9.1,2.0,5.300000000000001,-3.5,-1.5000000000000002
1698672816949.0,16,0.0,0.0,-0.1,1.0,9.200000000000001,2.0,5.8,-3.6,-1.3
1698672816965.0,16,0.0,0.0,0.0,1.0,9.1,2.0,7.0,-4.0,-2.0
1698672816982.0,16,0.0,0.0,0.0,1.0,9.1,2.1,8.4,-4.300000000000001,-2.5
1698672816999.0,16,0.0,-0.1,0.1,1.0,9.1,2.1,9.5,-4.3999999999999995,-2.7
1698672817016.0,16,-0.1,-0.1,0.1,0.9,9.0,2.1,9.8,-4.6000000000000005,-2.8
1698672817032.0,16,-0.1,-0.1,0.1,0.9,9.0,2.1,9.5,-5.4,-2.6
1698672817049.0,16,-0.1,-0.1,0.1,0.9,9.1,2.0,8.9,-6.9,-3.0000000000000004
1698672817066.0,16,-0.1,-0.1,0.1,0.9,9.1,2.0,8.1,-7.9,-4.1000000000000005
1698672817082.0,16,-0.1,0.0,0.1,0.9,9.1,2.0,8.0,-8.0,-5.1
1698672817099.0,16,0.0,0.0,0.1,1.0,9.1,2.0,8.0,-8.0,-6.4
1698672817116.0,16,0.1,-0.2,0.1,1.1,9.0,2.0,8.700000000000001,-7.8,-8.200000000000001
1698672817134.0,16,0.2,-0.2,0.1,1.2000000000000002,8.9,2.0,10.3,-7.0,-8.200000000000001
1698672817150.0,16,0.30000000000000004,-0.30000000000000004,0.2,1.3,8.9,2.0,12.700000000000001,-5.2,-7.699999999999999
1698672817166.0,16,0.4,-0.30000000000000004,0.2,1.3,8.9,2.0,13.9,-3.3000000000000003,-7.1000000000000005
1698672817182.0,16,0.30000000000000004,-0.2,0.1,1.3,9.0,1.9000000000000001,16.1,-0.4,-4.6000000000000005
1698672817199.0,16,0.30000000000000004,-0.2,0.2,1.2000000000000002,9.0,1.9000000000000001,16.900000000000002,0.6000000000000001,-2.7
1698672817216.0,16,0.1,-0.1,0.0,1.0,9.1,1.7000000000000002,17.9,1.4,0.9
1698672817232.0,16,-0.1,0.2,0.0,0.9,9.4,1.6,17.5,1.7,2.1
1698672817250.0,16,-0.2,0.30000000000000004,-0.1,0.7000000000000001,9.5,1.5,16.1,1.5000000000000002,2.0
1698672817265.0,16,-0.30000000000000004,0.30000000000000004,-0.1,0.7000000000000001,9.5,1.4000000000000001,15.000000000000002,0.5,1.8
1698672817282.0,16,-0.4,0.30000000000000004,-0.1,0.6000000000000001,9.5,1.4000000000000001,12.4,-1.6,0.1
1698672817299.0,16,-0.4,0.30000000000000004,-0.2,0.6000000000000001,9.5,1.3,11.1,-2.5,-1.2000000000000002
1698672817316.0,16,-0.30000000000000004,0.30000000000000004,-0.30000000000000004,0.7000000000000001,9.5,1.2000000000000002,8.4,-3.3000000000000003,-3.6
1698672817332.0,16,-0.2,0.2,-0.30000000000000004,0.8,9.4,1.1,6.2,-4.9,-4.800000000000001
1698672817349.0,16,-0.1,0.2,-0.30000000000000004,0.9,9.4,1.1,4.800000000000001,-5.6,-4.3999999999999995
1698672817365.0,16,0.0,0.2,-0.4,0.9,9.4,1.0,4.7,-6.000000000000001,-4.1000000000000005
1698672817382.0,16,0.1,0.2,-0.4,1.0,9.4,1.0,5.1,-6.2,-3.7000000000000006
1698672817401.0,16,0.1,0.2,-0.4,1.0,9.4,1.0,6.4,-6.000000000000001,-3.0000000000000004
1698672817415.0,16,0.1,0.1,-0.4,1.0,9.4,1.0,7.300000000000001,-6.1000000000000005,-2.7
1698672817432.0,16,0.1,0.2,-0.4,1.0,9.4,0.9,9.200000000000001,-5.8,-1.6
1698672817449.0,16,0.1,0.2,-0.30000000000000004,1.0,9.5,0.9,10.8,-6.000000000000001,-0.9
1698672817466.0,16,0.1,0.2,-0.30000000000000004,1.0,9.5,0.9,11.4,-6.2,-0.7
1698672817482.0,16,0.0,0.2,-0.2,0.9,9.5,1.0,12.000000000000002,-6.000000000000001,-0.9
1698672817499.0,16,0.0,0.2,-0.2,0.9,9.5,1.0,11.9,-5.6,-1.2000000000000002
1698672817516.0,16,0.1,0.2,-0.1,1.0,9.5,1.0,11.000000000000002,-4.9,-1.6
1698672817532.0,16,0.0,0.2,-0.1,0.9,9.5,0.9,9.1,-4.1000000000000005,-1.2000000000000002
1698672817549.0,16,0.0,0.2,-0.1,0.9,9.5,0.9,6.4,-3.7000000000000006,-0.9
1698672817566.0,16,0.0,0.1,-0.1,0.9,9.5,0.9,3.8,-3.2,-0.8
1698672817582.0,16,0.0,0.1,-0.1,0.9,9.4,0.9,2.6,-3.0000000000000004,-0.8
1698672817599.0,16,0.0,0.1,-0.1,0.9,9.4,0.9,1.6,-2.8,-0.9
1698672817616.0,16,0.0,0.1,-0.1,0.8,9.5,0.8,0.30000000000000004,-2.1999999999999997,-1.0999999999999999
1698672817633.0,16,0.0,0.1,-0.2,0.9,9.5,0.8,-0.4,-1.9,-1.3
1698672817649.0,16,0.0,0.1,-0.2,0.9,9.5,0.8,0.0,-1.6,-0.6000000000000001
1698672817665.0,16,0.0,0.1,-0.2,0.9,9.5,0.8,0.4,-1.3,-0.4
1698672817682.0,16,0.0,0.1,-0.2,0.9,9.5,0.8,1.7,-0.4,-0.1
1698672817699.0,16,0.0,0.1,-0.1,0.8,9.5,0.8,3.1,0.5,0.6000000000000001
1698672817715.0,16,0.0,0.1,-0.1,0.8,9.5,0.8,3.8,0.6000000000000001,1.2000000000000002
1698672817732.0,16,0.0,0.1,-0.1,0.9,9.5,0.8,3.9,0.4,1.3
1698672817750.0,16,0.0,0.1,-0.1,0.9,9.5,0.8,3.7000000000000006,0.4,1.3
1698672817765.0,16,0.0,0.1,0.0,0.9,9.5,0.8,3.2,0.30000000000000004,1.2000000000000002
1698672817783.0,16,0.0,0.0,0.0,0.9,9.4,0.8,2.9,0.4,1.0999999999999999
1698672817800.0,16,0.0,0.0,0.0,0.9,9.4,0.8,2.1,1.0,0.9
1698672817816.0,16,0.0,0.0,0.0,0.9,9.4,0.9,1.8,1.0,0.8
1698672817833.0,16,0.0,0.0,0.0,0.9,9.4,0.9,0.9,1.2000000000000002,0.9
1698672817850.0,16,0.0,0.0,0.0,0.9,9.4,0.9,0.30000000000000004,1.6,0.9
1698672817866.0,16,0.0,0.0,0.0,0.9,9.4,0.9,0.1,1.9,0.8
1698672817882.0,16,0.0,0.0,0.0,0.9,9.4,0.9,0.0,2.6,1.0
1698672817899.0,16,0.0,-0.1,0.0,0.9,9.4,0.9,-0.5,2.3000000000000003,1.3
1698672817915.0,16,0.0,-0.1,0.0,0.9,9.3,0.9,-0.7,2.0,1.4
1698672817932.0,16,0.0,0.0,0.0,0.9,9.3,0.9,-0.7,2.0,1.4
1698672817950.0,16,0.0,-0.1,0.0,0.9,9.3,0.9,-0.1,1.8,1.5000000000000002
1698672817966.0,16,0.0,-0.1,0.0,0.9,9.3,0.9,0.5,1.4,1.7
1698672817982.0,16,0.0,-0.1,0.0,0.9,9.3,0.9,1.0,1.4,1.8
1698672817999.0,16,0.0,0.0,0.1,0.9,9.4,0.9,1.8,1.7,1.8
1698672818018.0,16,0.0,0.0,0.0,0.9,9.4,0.9,2.3000000000000003,2.1,2.0
1698672818033.0,16,0.0,0.0,0.0,0.9,9.4,0.9,2.0,2.1,2.1999999999999997
1698672818049.0,16,0.0,0.0,0.0,0.9,9.4,0.9,1.8,2.0,2.3000000000000003
1698672818065.0,16,0.0,0.0,0.0,0.9,9.4,0.9,1.2000000000000002,2.1,2.1999999999999997
1698672818082.0,16,0.0,0.0,0.0,0.9,9.4,0.8,0.8,2.3000000000000003,2.1
1698672818099.0,16,0.0,0.0,0.1,0.9,9.4,0.9,0.0,2.1,1.8
1698672818115.0,16,0.0,-0.1,0.0,0.9,9.3,0.9,-0.6000000000000001,2.1,1.8
1698672818133.0,16,0.0,0.0,0.0,1.0,9.3,0.8,-1.0,2.3000000000000003,1.8
1698672818149.0,16,0.0,0.0,0.0,1.0,9.3,0.8,-1.3,2.6,1.9
1698672818165.0,16,0.0,-0.1,0.0,0.9,9.3,0.8,-1.7,2.0,2.1
1698672818182.0,16,0.0,0.0,0.0,0.9,9.4,0.8,-1.0999999999999999,1.7,2.0
1698672818199.0,16,0.0,0.0,0.0,1.0,9.4,0.8,0.0,2.1,1.6
1698672818216.0,16,0.0,0.0,0.0,1.0,9.3,0.8,1.0999999999999999,1.4,2.1
1698672818233.0,16,0.0,-0.1,0.0,1.0,9.3,0.9,2.1,1.2000000000000002,2.1999999999999997
1698672818249.0,16,0.0,0.0,0.0,1.0,9.3,0.9,2.6,1.2000000000000002,2.0
1698672818266.0,16,0.0,-0.1,0.0,1.0,9.3,0.9,3.1,1.5000000000000002,1.8
1698672818282.0,16,0.0,-0.1,0.0,1.0,9.3,0.9,3.4,1.6,1.7
1698672818299.0,16,0.0,0.0,0.0,1.0,9.3,0.8,3.3000000000000003,1.3,1.7
1698672818315.0,16,0.0,0.0,0.1,1.0,9.3,0.9,2.6,1.2000000000000002,1.7
1698672818332.0,16,0.0,0.0,0.0,1.0,9.4,0.8,1.8,1.2000000000000002,1.7
1698672818349.0,16,0.0,0.0,0.0,1.0,9.4,0.8,1.4,1.0999999999999999,1.8
1698672818365.0,16,0.0,0.0,0.0,1.0,9.4,0.8,0.7,1.3,1.5000000000000002
1698672818382.0,16,0.0,0.0,0.0,1.0,9.4,0.8,0.6000000000000001,1.0999999999999999,1.3
1698672818399.0,16,0.0,0.0,0.0,1.0,9.4,0.8,0.4,1.2000000000000002,0.6000000000000001
1698672818415.0,16,0.0,0.0,0.0,1.0,9.3,0.8,0.5,0.7,0.5
1698672818432.0,16,0.0,0.0,0.0,1.0,9.3,0.8,0.8,0.30000000000000004,0.6000000000000001
1698672818449.0,16,0.0,-0.1,0.0,1.0,9.3,0.8,1.0,0.1,0.7
1698672818465.0,16,0.0,0.0,0.0,1.0,9.4,0.8,1.2000000000000002,0.0,1.3
1698672818482.0,16,0.0,0.0,0.0,1.0,9.3,0.8,1.5000000000000002,0.30000000000000004,1.3
1698672818499.0,16,0.0,0.0,0.0,1.0,9.4,0.8,2.1,0.30000000000000004,1.0
1698672818516.0,16,0.0,0.0,0.0,1.0,9.4,0.8,2.5,0.30000000000000004,0.7
1698672818532.0,16,0.0,0.0,0.0,1.0,9.4,0.8,2.7,0.1,0.8
1698672818549.0,16,0.0,0.0,0.0,1.0,9.4,0.7000000000000001,2.6,0.1,0.9
1698672818566.0,16,0.0,0.0,0.0,1.0,9.4,0.7000000000000001,2.1999999999999997,-0.2,0.9
1698672818582.0,16,0.0,0.1,0.0,1.0,9.4,0.7000000000000001,1.8,-0.5,0.7
1698672818599.0,16,0.0,0.0,0.0,1.0,9.4,0.7000000000000001,1.5000000000000002,-0.5,0.4
1698672818615.0,16,0.0,0.0,0.0,1.0,9.3,0.7000000000000001,1.2000000000000002,-0.5,0.4
1698672818632.0,16,0.0,0.0,0.0,1.0,9.3,0.7000000000000001,1.0999999999999999,-0.4,0.4
1698672818649.0,16,0.0,0.0,0.0,1.0,9.4,0.7000000000000001,0.8,-0.5,0.2
1698672818665.0,16,0.0,0.0,0.0,1.1,9.4,0.7000000000000001,0.5,-0.7,0.4
1698672818682.0,16,0.0,0.0,0.0,1.1,9.3,0.7000000000000001,0.7,-0.9,0.4
1698672818699.0,16,0.0,0.0,0.0,1.1,9.4,0.7000000000000001,0.8,-0.9,0.30000000000000004
1698672818716.0,16,0.0,0.0,0.0,1.1,9.4,0.7000000000000001,1.2000000000000002,-0.4,0.2
1698672818732.0,16,0.0,0.0,0.0,1.1,9.4,0.7000000000000001,1.4,-0.2,0.2
1698672818749.0,16,0.0,0.0,0.0,1.0,9.4,0.7000000000000001,1.7,-0.4,0.2
1698672818765.0,16,0.0,0.0,0.0,1.1,9.4,0.7000000000000001,1.8,-0.7,0.4
1698672818782.0,16,-0.1,0.0,0.0,1.0,9.4,0.7000000000000001,1.5000000000000002,-0.5,0.7
1698672818799.0,16,0.0,0.0,0.0,1.0,9.3,0.7000000000000001,1.3,-0.9,0.7
1698672818819.0,16,0.0,0.0,0.1,1.0,9.4,0.7000000000000001,1.4,-1.5000000000000002,0.5
1698672818832.0,16,0.0,0.0,0.0,1.1,9.4,0.7000000000000001,1.8,-0.5,0.4
1698672818849.0,16,0.0,0.0,0.0,1.1,9.4,0.7000000000000001,1.8,-0.30000000000000004,0.5
1698672818865.0,16,0.0,0.1,0.0,1.1,9.4,0.7000000000000001,1.4,0.1,1.2000000000000002
1698672818882.0,16,0.0,0.1,0.0,1.1,9.4,0.7000000000000001,0.6000000000000001,0.30000000000000004,1.6
1698672818899.0,16,0.0,0.0,0.0,1.1,9.4,0.7000000000000001,0.30000000000000004,0.0,1.9
1698672818917.0,16,0.0,0.0,0.0,1.0,9.5,0.6000000000000001,-0.2,0.0,2.1
1698672818932.0,16,-0.1,0.1,-0.1,1.0,9.5,0.6000000000000001,-0.6000000000000001,-0.5,2.4000000000000004
1698672818949.0,16,-0.1,0.0,-0.1,1.0,9.4,0.6000000000000001,-1.4,-1.7,1.9
1698672818965.0,16,0.0,0.0,-0.1,1.1,9.4,0.6000000000000001,-1.8,-2.4000000000000004,1.3
1698672818982.0,16,0.0,-0.1,0.0,1.1,9.200000000000001,0.7000000000000001,-1.4,-2.7,1.5000000000000002
1698672818999.0,16,0.0,-0.1,0.0,1.1,9.200000000000001,0.6000000000000001,-0.8,-2.7,1.5000000000000002
1698672819015.0,16,0.1,0.0,0.0,1.2000000000000002,9.3,0.7000000000000001,0.6000000000000001,-2.1999999999999997,1.5000000000000002
1698672819032.0,16,0.1,0.0,0.0,1.2000000000000002,9.3,0.7000000000000001,1.8,-0.5,1.8
1698672819049.0,16,0.1,0.0,0.0,1.2000000000000002,9.3,0.7000000000000001,2.1,-1.0,2.4000000000000004
1698672819065.0,16,0.0,0.0,0.0,1.2000000000000002,9.4,0.7000000000000001,2.1999999999999997,-1.3,2.1
1698672819082.0,16,0.1,0.0,0.0,1.2000000000000002,9.4,0.7000000000000001,1.9,-1.0,0.8
1698672819099.0,16,0.1,0.1,0.0,1.3,9.5,0.7000000000000001,1.2000000000000002,-0.2,0.2
1698672819116.0,16,0.1,0.0,0.0,1.2000000000000002,9.4,0.7000000000000001,0.8,0.30000000000000004,0.30000000000000004
1698672819132.0,16,0.1,0.0,0.0,1.2000000000000002,9.3,0.7000000000000001,-0.4,0.7,0.6000000000000001
1698672819149.0,16,0.1,0.0,0.0,1.2000000000000002,9.4,0.7000000000000001,-0.9,0.9,0.2
1698672819166.0,16,0.1,0.0,0.0,1.2000000000000002,9.3,0.7000000000000001,-1.3,2.1,0.1
1698672819182.0,16,0.1,0.0,0.0,1.2000000000000002,9.3,0.7000000000000001,-1.4,2.7,0.1
1698672819199.0,16,0.0,0.0,-0.1,1.2000000000000002,9.4,0.6000000000000001,-1.8,2.8,0.6000000000000001
1698672819216.0,16,0.0,0.0,-0.1,1.2000000000000002,9.4,0.6000000000000001,-1.9,1.8,1.2000000000000002
1698672819232.0,16,0.0,0.0,0.0,1.1,9.4,0.6000000000000001,-1.3,2.0,1.0999999999999999
1698672819249.0,16,0.0,0.0,0.0,1.1,9.4,0.7000000000000001,0.0,2.4000000000000004,0.6000000000000001
1698672819265.0,16,0.0,0.0,0.0,1.1,9.3,0.6000000000000001,0.6000000000000001,2.6,0.4
1698672819282.0,16,0.0,0.0,0.0,1.1,9.3,0.7000000000000001,1.3,2.6,0.5
1698672819299.0,16,0.0,0.0,0.0,1.2000000000000002,9.4,0.7000000000000001,1.6,2.5,1.0
1698672819315.0,16,0.0,0.0,0.0,1.2000000000000002,9.3,0.7000000000000001,1.5000000000000002,2.5,1.6
1698672819332.0,16,0.0,0.0,0.0,1.1,9.3,0.7000000000000001,1.3,2.3000000000000003,1.8
1698672819349.0,16,-0.1,0.0,0.0,1.1,9.3,0.7000000000000001,0.8,2.1,1.6
1698672819366.0,16,0.0,0.0,0.0,1.1,9.4,0.7000000000000001,0.6000000000000001,2.3000000000000003,1.3
1698672819382.0,16,0.0,0.0,0.1,1.1,9.3,0.7000000000000001,0.1,2.6,0.7
1698672819399.0,16,0.0,0.0,0.0,1.1,9.3,0.7000000000000001,-0.30000000000000004,2.3000000000000003,1.2000000000000002
1698672819416.0,16,0.0,0.0,0.0,1.1,9.3,0.7000000000000001,-0.6000000000000001,2.0,1.5000000000000002
1698672819432.0,16,0.0,0.0,0.0,1.1,9.3,0.7000000000000001,-1.0999999999999999,0.9,1.7
1698672819449.0,16,0.0,0.0,0.0,1.1,9.4,0.7000000000000001,-1.4,0.7,1.8
1698672819466.0,16,0.0,0.0,0.0,1.2000000000000002,9.4,0.7000000000000001,-1.5000000000000002,0.9,1.3
1698672819483.0,16,0.1,0.0,0.0,1.2000000000000002,9.3,0.7000000000000001,-1.0999999999999999,1.6,0.7
1698672819499.0,16,0.1,0.0,0.0,1.2000000000000002,9.3,0.7000000000000001,-1.0999999999999999,2.0,0.6000000000000001
1698672819516.0,16,0.0,0.0,0.0,1.2000000000000002,9.3,0.7000000000000001,-0.8,2.1,1.4
1698672819532.0,16,0.0,-0.1,-0.1,1.2000000000000002,9.3,0.6000000000000001,-0.7,1.9,2.0
1698672819549.0,16,-0.1,0.0,0.0,1.1,9.3,0.7000000000000001,-0.4,0.6000000000000001,2.9
1698672819565.0,16,-0.1,0.0,0.0,1.1,9.4,0.7000000000000001,-0.2,0.7,2.5
1698672819582.0,16,-0.1,0.0,0.0,1.2000000000000002,9.3,0.7000000000000001,0.4,0.7,1.0999999999999999
1698672819599.0,16,0.0,0.0,0.1,1.2000000000000002,9.3,0.8,0.6000000000000001,0.5,0.9
1698672819615.0,16,0.0,0.0,0.1,1.2000000000000002,9.3,0.8,0.8,1.0,1.0
1698672819632.0,16,0.0,0.0,0.1,1.2000000000000002,9.3,0.8,0.8,1.0,1.0
1698672819649.0,16,0.0,0.0,0.0,1.2000000000000002,9.3,0.7000000000000001,0.6000000000000001,0.7,1.3
1698672819666.0,16,0.0,0.0,0.1,1.2000000000000002,9.3,0.8,0.1,0.6000000000000001,0.9
1698672819683.0,16,0.0,0.0,0.0,1.2000000000000002,9.3,0.7000000000000001,-0.30000000000000004,0.5,1.0999999999999999
1698672819700.0,16,0.0,0.0,0.0,1.2000000000000002,9.3,0.7000000000000001,-1.0999999999999999,0.5,0.8
1698672819716.0,16,0.0,0.0,0.0,1.2000000000000002,9.3,0.7000000000000001,-1.7,-0.2,0.6000000000000001
1698672819732.0,16,0.0,0.0,0.0,1.3,9.3,0.7000000000000001,-1.8,-0.2,0.5
1698672819749.0,16,0.1,0.0,0.0,1.3,9.3,0.7000000000000001,-1.9,-0.2,0.4
1698672819765.0,16,0.1,0.0,0.0,1.3,9.3,0.7000000000000001,-1.4,0.4,0.1
1698672819782.0,16,0.0,-0.1,0.0,1.3,9.3,0.7000000000000001,-0.9,0.4,0.30000000000000004
1698672819799.0,16,0.0,0.0,0.0,1.2000000000000002,9.3,0.7000000000000001,-0.6000000000000001,0.8,0.2
1698672819815.0,16,0.0,0.0,0.0,1.2000000000000002,9.3,0.7000000000000001,-0.5,0.30000000000000004,0.1
1698672819833.0,16,0.0,0.1,0.0,1.2000000000000002,9.4,0.7000000000000001,-0.5,0.4,-0.1
1698672819849.0,16,0.0,0.0,-0.1,1.2000000000000002,9.3,0.7000000000000001,-0.1,0.5,-0.1
1698672819866.0,16,0.0,0.0,0.0,1.3,9.3,0.7000000000000001,0.1,0.30000000000000004,-0.1
1698672819882.0,16,0.0,0.0,0.0,1.2000000000000002,9.3,0.7000000000000001,0.30000000000000004,0.0,-0.1
1698672819899.0,16,0.0,-0.1,0.0,1.3,9.3,0.7000000000000001,0.8,0.0,-0.4
1698672819915.0,16,0.0,0.0,0.0,1.3,9.3,0.7000000000000001,0.9,0.0,-0.4
1698672819932.0,16,0.0,0.0,0.0,1.2000000000000002,9.3,0.8,1.0999999999999999,0.30000000000000004,-0.1
1698672819949.0,16,0.0,0.0,0.0,1.2000000000000002,9.3,0.7000000000000001,0.7,0.1,-0.1
1698672819966.0,16,0.0,0.0,0.0,1.2000000000000002,9.3,0.8,0.0,-0.5,-0.4
1698672819982.0,16,0.0,0.0,0.0,1.2000000000000002,9.4,0.7000000000000001,-0.30000000000000004,-0.6000000000000001,-0.5
1698672819999.0,16,0.0,0.0,0.0,1.3,9.3,0.7000000000000001,-0.8,-0.5,-0.6000000000000001
1698672820015.0,16,0.0,0.0,0.0,1.3,9.3,0.7000000000000001,-0.9,-0.5,-0.7
1698672820032.0,16,0.0,0.0,0.0,1.2000000000000002,9.3,0.7000000000000001,-0.5,-0.5,-0.2
1698672820049.0,16,0.0,0.0,0.0,1.2000000000000002,9.3,0.7000000000000001,-0.1,-0.9,-0.2
1698672820066.0,16,0.0,0.0,0.0,1.2000000000000002,9.3,0.7000000000000001,0.4,-0.6000000000000001,-0.5
1698672820082.0,16,0.0,0.0,0.0,1.2000000000000002,9.3,0.7000000000000001,0.4,-0.8,-0.5
1698672820099.0,16,0.0,0.0,0.0,1.2000000000000002,9.4,0.7000000000000001,0.6000000000000001,-0.7,-0.7
1698672820116.0,16,0.0,0.0,0.0,1.3,9.3,0.7000000000000001,0.0,-0.6000000000000001,-0.4
1698672820133.0,16,0.0,0.0,0.0,1.2000000000000002,9.4,0.7000000000000001,-0.30000000000000004,-0.30000000000000004,-0.5
1698672820149.0,16,0.0,0.1,0.0,1.3,9.4,0.7000000000000001,-1.0,0.30000000000000004,-0.4
1698672820166.0,16,0.0,0.0,0.0,1.2000000000000002,9.4,0.7000000000000001,-1.8,0.6000000000000001,-0.2
1698672820182.0,16,0.0,0.1,0.0,1.2000000000000002,9.4,0.7000000000000001,-2.1999999999999997,0.4,-0.2
1698672820198.0,16,0.0,0.1,0.0,1.2000000000000002,9.4,0.7000000000000001,-2.6,0.8,-0.5
1698672820215.0,16,0.0,0.0,0.0,1.2000000000000002,9.3,0.7000000000000001,-2.5,1.0,-0.7
1698672820232.0,16,0.0,0.0,0.0,1.2000000000000002,9.3,0.7000000000000001,-2.4000000000000004,0.5,-0.9
1698672820249.0,16,0.0,0.0,0.0,1.2000000000000002,9.3,0.7000000000000001,-1.8,0.9,-0.6000000000000001
1698672820265.0,16,0.0,-0.1,0.0,1.2000000000000002,9.200000000000001,0.7000000000000001,-1.0999999999999999,0.7,-0.6000000000000001
1698672820282.0,16,0.0,-0.2,0.0,1.2000000000000002,9.200000000000001,0.7000000000000001,-0.9,0.6000000000000001,-0.4
1698672820299.0,16,0.0,-0.1,0.0,1.2000000000000002,9.200000000000001,0.8,0.0,0.2,0.2
1698672820316.0,16,0.0,0.0,0.1,1.2000000000000002,9.3,0.8,1.0999999999999999,0.30000000000000004,0.2
1698672820332.0,16,0.0,0.0,0.0,1.2000000000000002,9.3,0.8,1.6,0.30000000000000004,0.1
1698672820349.0,16,0.0,0.1,0.1,1.2000000000000002,9.4,0.8,2.5,0.30000000000000004,0.5
1698672820365.0,16,0.0,0.0,0.0,1.2000000000000002,9.4,0.8,2.6,0.6000000000000001,0.2
1698672820382.0,16,0.0,0.1,0.1,1.3,9.4,0.8,1.5000000000000002,1.2000000000000002,0.4
1698672820399.0,16,0.0,0.0,0.0,1.2000000000000002,9.4,0.8,0.7,0.9,0.5
1698672820415.0,16,0.0,0.0,0.0,1.2000000000000002,9.4,0.8,-0.7,0.8,0.2
1698672820432.0,16,0.0,0.0,0.0,1.2000000000000002,9.3,0.8,-1.3,0.8,0.0
1698672820449.0,16,0.0,0.0,0.0,1.2000000000000002,9.3,0.7000000000000001,-2.1,0.9,-0.1
1698672820465.0,16,0.0,0.0,0.0,1.3,9.3,0.7000000000000001,-2.1999999999999997,1.0999999999999999,-0.30000000000000004
1698672820482.0,16,0.0,-0.1,-0.1,1.2000000000000002,9.3,0.7000000000000001,-1.8,1.0999999999999999,-0.2
1698672820498.0,16,0.0,0.0,-0.1,1.2000000000000002,9.3,0.7000000000000001,-1.6,1.3,-0.1
1698672820517.0,16,0.0,0.0,-0.1,1.2000000000000002,9.3,0.7000000000000001,-0.5,0.8,0.0
1698672820532.0,16,0.0,0.0,0.0,1.2000000000000002,9.3,0.7000000000000001,0.5,0.30000000000000004,0.0
1698672820548.0,16,0.0,0.0,0.0,1.2000000000000002,9.3,0.7000000000000001,0.9,0.2,-0.1
1698672820565.0,16,0.0,0.0,0.0,1.2000000000000002,9.3,0.8,1.7,0.0,0.0
1698672820582.0,16,0.0,-0.1,0.1,1.3,9.3,0.8,2.4000000000000004,0.30000000000000004,0.2
1698672820598.0,16,0.0,-0.1,0.1,1.2000000000000002,9.200000000000001,0.8,2.4000000000000004,0.4,0.0
1698672820615.0,16,0.0,0.0,0.0,1.2000000000000002,9.3,0.8,1.7,0.5,0.5
1698672820632.0,16,0.0,0.0,0.0,1.2000000000000002,9.3,0.8,0.5,0.4,0.5
1698672820649.0,16,0.0,0.0,0.0,1.2000000000000002,9.3,0.8,-0.2,0.5,0.1
1698672820665.0,16,0.0,0.0,0.0,1.2000000000000002,9.3,0.8,-0.2,0.5,0.1
1698672820682.0,16,0.0,0.0,0.0,1.2000000000000002,9.3,0.7000000000000001,-0.8,0.6000000000000001,0.6000000000000001
1698672820699.0,16,0.0,0.0,-0.1,1.2000000000000002,9.3,0.7000000000000001,-0.7,-0.2,0.9
1698672820715.0,16,0.0,0.0,0.0,1.2000000000000002,9.3,0.7000000000000001,-0.1,-0.2,0.4
1698672820732.0,16,0.0,0.0,0.0,1.3,9.3,0.7000000000000001,0.9,0.5,-0.2
1698672820749.0,16,0.0,0.0,0.0,1.3,9.3,0.7000000000000001,1.4,0.5,0.0
1698672820765.0,16,0.0,0.0,0.0,1.2000000000000002,9.3,0.8,2.1,0.7,0.4
1698672820782.0,16,0.0,0.0,0.0,1.2000000000000002,9.3,0.7000000000000001,2.5,0.7,0.6000000000000001
1698672820801.0,16,0.0,0.0,0.0,1.2000000000000002,9.3,0.7000000000000001,2.5,0.7,0.6000000000000001
1698672820815.0,16,0.0,0.0,0.0,1.2000000000000002,9.3,0.7000000000000001,2.0,0.2,0.5
1698672820833.0,16,0.0,0.0,0.0,1.2000000000000002,9.4,0.7000000000000001,1.8,0.0,0.4
1698672820849.0,16,0.0,0.0,0.0,1.2000000000000002,9.4,0.7000000000000001,1.6,0.0,0.4
1698672820865.0,16,0.0,0.0,0.0,1.2000000000000002,9.3,0.7000000000000001,1.3,0.4,0.1
1698672820882.0,16,0.0,0.0,0.0,1.2000000000000002,9.3,0.7000000000000001,0.8,0.30000000000000004,-0.1
1698672820899.0,16,0.0,0.0,0.0,1.2000000000000002,9.3,0.7000000000000001,0.4,0.0,0.2
1698672820915.0,16,0.0,0.0,0.0,1.2000000000000002,9.3,0.7000000000000001,0.2,0.0,0.2
1698672820932.0,16,0.0,0.0,0.0,1.2000000000000002,9.3,0.7000000000000001,-0.30000000000000004,-0.2,0.1
1698672820949.0,16,0.0,0.0,0.0,1.3,9.3,0.7000000000000001,-0.30000000000000004,-0.1,-0.1
1698672820965.0,16,0.0,0.0,0.0,1.2000000000000002,9.3,0.7000000000000001,-0.1,-0.30000000000000004,-0.2
1698672820982.0,16,0.0,0.0,0.0,1.3,9.3,0.7000000000000001,0.1,-0.2,-0.1
1698672820999.0,16,0.0,0.0,0.0,1.2000000000000002,9.3,0.7000000000000001,0.4,-0.1,0.0
1698672821016.0,16,0.0,0.0,0.0,1.3,9.3,0.7000000000000001,0.8,0.1,0.1
1698672821032.0,16,0.0,0.0,0.0,1.2000000000000002,9.3,0.7000000000000001,1.0999999999999999,0.1,0.4
1698672821049.0,16,0.0,0.0,0.0,1.2000000000000002,9.3,0.7000000000000001,1.0999999999999999,0.0,0.2
1698672821065.0,16,0.0,0.0,0.0,1.3,9.3,0.7000000000000001,1.0,0.1,0.0
1698672821082.0,16,0.0,0.0,0.0,1.2000000000000002,9.3,0.7000000000000001,0.7,0.30000000000000004,-0.1
1698672821099.0,16,0.0,0.0,0.0,1.3,9.3,0.7000000000000001,0.5,0.30000000000000004,-0.1
1698672821115.0,16,0.0,0.0,0.0,1.2000000000000002,9.3,0.7000000000000001,0.1,0.2,0.0
1698672821133.0,16,0.0,0.0,-0.1,1.2000000000000002,9.3,0.6000000000000001,-0.2,0.1,-0.1
1698672821150.0,16,0.0,0.0,0.0,1.2000000000000002,9.3,0.7000000000000001,-0.30000000000000004,-0.1,-0.1
1698672821165.0,16,0.0,0.0,0.0,1.2000000000000002,9.4,0.7000000000000001,-0.2,-0.1,-0.2
1698672821182.0,16,0.0,0.0,0.0,1.2000000000000002,9.3,0.7000000000000001,-0.1,0.0,-0.1
1698672821199.0,16,0.0,0.0,0.0,1.3,9.3,0.7000000000000001,0.0,0.0,0.0
1698672821216.0,16,0.0,0.0,0.0,1.2000000000000002,9.3,0.7000000000000001,0.1,0.0,0.0
1698672821232.0,16,0.0,0.0,0.0,1.2000000000000002,9.3,0.7000000000000001,0.1,0.0,0.2
1698672821248.0,16,0.0,0.0,0.0,1.2000000000000002,9.3,0.7000000000000001,0.1,0.0,0.1
1698672821265.0,16,0.0,0.0,0.0,1.2000000000000002,9.3,0.7000000000000001,0.0,-0.1,0.1
1698672821282.0,16,0.0,0.0,0.0,1.2000000000000002,9.3,0.7000000000000001,-0.1,0.1,-0.1
1698672821298.0,16,0.0,0.0,0.0,1.3,9.3,0.7000000000000001,-0.1,0.30000000000000004,0.1
1698672821315.0,16,0.0,0.0,0.0,1.2000000000000002,9.3,0.7000000000000001,-0.30000000000000004,0.1,0.2
1698672821333.0,16,0.0,0.0,0.0,1.2000000000000002,9.3,0.7000000000000001,-0.7,-0.2,0.1
1698672821350.0,16,0.0,0.0,0.0,1.2000000000000002,9.4,0.7000000000000001,-0.8,-0.2,0.2
1698672821365.0,16,0.0,0.0,0.0,1.2000000000000002,9.3,0.7000000000000001,-0.5,-0.4,0.1
1698672821382.0,16,0.0,0.0,0.0,1.3,9.3,0.7000000000000001,-0.4,-0.4,-0.1
1698672821399.0,16,0.0,0.0,0.0,1.2000000000000002,9.3,0.7000000000000001,-0.4,-0.2,-0.2
1698672821415.0,16,0.0,0.0,0.0,1.2000000000000002,9.3,0.7000000000000001,-0.7,-0.1,-0.1
1698672821432.0,16,0.0,0.0,0.0,1.2000000000000002,9.3,0.7000000000000001,-1.0999999999999999,-0.2,0.1
1698672821449.0,16,0.0,0.0,0.0,1.2000000000000002,9.4,0.7000000000000001,-1.0999999999999999,0.4,-0.1
1698672821465.0,16,0.0,0.0,0.0,1.2000000000000002,9.3,0.7000000000000001,-1.0999999999999999,0.30000000000000004,-0.1
1698672821482.0,16,0.0,0.0,0.0,1.2000000000000002,9.3,0.7000000000000001,-0.9,0.0,0.2
1698672821498.0,16,0.0,0.0,0.0,1.2000000000000002,9.3,0.7000000000000001,-0.4,-0.4,0.2
1698672821515.0,16,0.0,0.0,0.0,1.2000000000000002,9.3,0.7000000000000001,-0.2,-0.4,0.1
1698672821532.0,16,0.0,0.0,0.0,1.2000000000000002,9.3,0.7000000000000001,-0.1,-0.5,0.2
1698672821549.0,16,0.0,0.0,0.0,1.3,9.3,0.7000000000000001,-0.30000000000000004,-0.5,0.1
1698672821565.0,16,0.0,0.0,0.0,1.3,9.4,0.7000000000000001,-0.30000000000000004,-0.30000000000000004,0.1
1698672821582.0,16,0.0,0.0,0.0,1.3,9.4,0.7000000000000001,-0.8,-0.2,-0.1
1698672821599.0,16,0.0,0.0,0.0,1.2000000000000002,9.3,0.7000000000000001,-1.0999999999999999,-0.2,-0.1
1698672821616.0,16,0.0,0.0,0.0,1.2000000000000002,9.3,0.7000000000000001,-1.4,-0.2,0.1
1698672821632.0,16,0.0,0.0,0.0,1.3,9.3,0.7000000000000001,-1.6,-0.1,0.1
1698672821649.0,16,0.0,0.0,0.0,1.2000000000000002,9.3,0.7000000000000001,-1.8,0.0,0.1
1698672821666.0,16,0.0,0.0,0.0,1.2000000000000002,9.3,0.7000000000000001,-1.8,0.1,-0.1
1698672821684.0,16,0.0,0.0,0.0,1.2000000000000002,9.3,0.7000000000000001,-1.7,-0.4,0.0
1698672821699.0,16,0.0,0.0,0.0,1.2000000000000002,9.3,0.7000000000000001,-1.6,-0.30000000000000004,-0.1
1698672821716.0,16,0.0,0.0,0.0,1.2000000000000002,9.3,0.7000000000000001,-1.4,-0.2,0.2
1698672821732.0,16,0.0,0.0,0.0,1.2000000000000002,9.4,0.7000000000000001,-1.5000000000000002,-0.2,0.2
1698672821749.0,16,0.0,0.0,0.0,1.2000000000000002,9.3,0.7000000000000001,-1.4,-0.2,0.2
1698672821765.0,16,0.0,0.0,0.0,1.3,9.3,0.7000000000000001,-1.5000000000000002,-0.4,0.1
1698672821782.0,16,0.0,0.0,0.0,1.2000000000000002,9.3,0.8,-1.3,-0.4,-0.1
1698672821799.0,16,0.0,0.0,0.0,1.3,9.3,0.8,-1.2000000000000002,0.2,-0.2
1698672821815.0,16,0.0,0.0,0.0,1.3,9.3,0.8,-1.2000000000000002,0.30000000000000004,-0.4
1698672821832.0,16,0.0,0.0,0.0,1.2000000000000002,9.3,0.8,-1.3,0.0,-0.2
1698672821848.0,16,0.0,0.0,0.0,1.2000000000000002,9.3,0.8,-1.4,-0.2,-0.4
1698672821865.0,16,0.0,0.0,0.0,1.2000000000000002,9.3,0.8,-1.4,0.0,-0.5
1698672821882.0,16,0.0,0.0,0.0,1.3,9.3,0.8,-1.3,0.4,-0.9
1698672821898.0,16,0.1,0.0,0.0,1.3,9.4,0.8,-1.8,1.0999999999999999,-1.0999999999999999
1698672821915.0,16,0.1,0.1,0.0,1.3,9.4,0.8,-2.5,1.6,-0.6000000000000001
1698672821932.0,16,0.0,0.1,0.0,1.2000000000000002,9.4,0.8,-2.8,1.8,-0.2
1698672821949.0,16,-0.1,0.1,0.0,1.2000000000000002,9.4,0.8,-3.9,1.6,0.4
1698672821965.0,16,-0.1,0.1,0.0,1.1,9.4,0.8,-4.300000000000001,1.4,0.4
1698672821982.0,16,-0.1,0.0,0.0,1.1,9.3,0.8,-4.7,1.3,0.30000000000000004
1698672821999.0,16,-0.1,0.0,-0.1,1.1,9.3,0.8,-4.5,0.0,-0.1
1698672822016.0,16,-0.1,-0.1,-0.1,1.2000000000000002,9.200000000000001,0.8,-3.8,-1.4,-0.30000000000000004
1698672822032.0,16,0.0,-0.1,0.0,1.2000000000000002,9.200000000000001,0.9,-2.4000000000000004,-1.5000000000000002,-0.5
1698672822048.0,16,0.0,-0.1,0.0,1.2000000000000002,9.200000000000001,0.9,-1.6,-1.4,-0.2
1698672822066.0,16,0.0,-0.1,0.0,1.2000000000000002,9.3,0.9,-0.7,-1.6,0.2
1698672822083.0,16,0.0,0.0,0.0,1.2000000000000002,9.3,0.9,0.9,-2.7,0.9
1698672822099.0,16,0.0,0.0,0.1,1.2000000000000002,9.3,1.0,1.7,-3.5,0.9
1698672822115.0,16,0.0,0.0,0.1,1.2000000000000002,9.3,1.0,1.8,-3.8,0.5
1698672822132.0,16,0.1,-0.1,0.2,1.3,9.3,1.0,1.7,-2.9,-1.6
1698672822148.0,16,0.2,-0.1,0.2,1.4000000000000001,9.200000000000001,1.0,0.9,-1.9,-2.3000000000000003
1698672822165.0,16,0.2,-0.1,0.1,1.4000000000000001,9.200000000000001,1.0,-0.8,-1.2000000000000002,-1.9
1698672822182.0,16,0.1,-0.1,0.1,1.4000000000000001,9.200000000000001,1.0,-1.7,-0.7,-1.2000000000000002
1698672822199.0,16,0.0,0.0,0.0,1.2000000000000002,9.3,0.9,-3.5,-0.5,-0.2
1698672822215.0,16,-0.1,0.0,0.0,1.1,9.3,0.9,-4.1000000000000005,-0.7,-1.0999999999999999
1698672822232.0,16,-0.1,0.0,-0.1,1.1,9.3,0.8,-3.9,-0.6000000000000001,-1.5000000000000002
1698672822249.0,16,0.0,0.0,-0.1,1.2000000000000002,9.3,0.8,-3.4,-0.7,-2.3000000000000003
1698672822266.0,16,0.1,0.0,0.0,1.3,9.3,0.9,-2.5,-0.30000000000000004,-2.8
1698672822282.0,16,0.1,0.0,0.0,1.3,9.3,0.9,-1.9,0.1,-2.7
1698672822298.0,16,0.0,0.0,-0.1,1.2000000000000002,9.3,0.9,-0.6000000000000001,1.0999999999999999,-2.0
1698672822315.0,16,0.0,0.1,0.0,1.2000000000000002,9.4,0.9,0.2,2.0,-1.2000000000000002
1698672822332.0,16,0.0,0.1,-0.1,1.1,9.4,0.9,0.4,2.1,-1.0
1698672822349.0,16,0.0,0.1,-0.1,1.2000000000000002,9.4,0.8,-0.5,2.0,-1.2000000000000002
1698672822365.0,16,0.0,0.2,-0.1,1.2000000000000002,9.600000000000001,0.9,-1.6,0.6000000000000001,-1.5000000000000002
1698672822382.0,16,0.0,0.4,0.0,1.2000000000000002,9.700000000000001,0.9,-2.1999999999999997,0.9,-1.5000000000000002
1698672822400.0,16,-0.1,0.4,0.0,1.1,9.8,0.9,-2.7,1.2000000000000002,-1.5000000000000002
1698672822415.0,16,0.0,0.2,0.0,1.1,9.600000000000001,0.9,-3.6,1.8,-2.0
1698672822433.0,16,0.0,0.1,0.0,1.1,9.5,0.9,-4.7,2.3000000000000003,-2.4000000000000004
1698672822449.0,16,-0.1,0.1,-0.1,1.1,9.5,0.9,-7.699999999999999,0.6000000000000001,-1.2000000000000002
1698672822465.0,16,-0.2,0.2,-0.2,0.9,9.5,0.8,-11.3,-2.6,0.9
1698672822482.0,16,-0.2,0.2,-0.1,1.0,9.5,1.0,-12.8,-4.2,0.8
1698672822498.0,16,0.0,0.1,-0.1,1.1,9.5,0.9,-14.800000000000002,-3.4,-2.1
1698672822515.0,16,0.2,0.0,-0.2,1.2000000000000002,9.5,0.9,-15.7,-2.1,-3.8
1698672822532.0,16,0.30000000000000004,0.0,-0.30000000000000004,1.4000000000000001,9.4,0.8,-17.7,-0.6000000000000001,-5.6
1698672822549.0,16,0.4,0.1,-0.30000000000000004,1.5,9.5,0.8,-19.700000000000003,2.1,-4.2
1698672822565.0,16,0.30000000000000004,0.2,-0.30000000000000004,1.4000000000000001,9.600000000000001,0.9,-18.2,-4.300000000000001,-0.30000000000000004
1698672822582.0,16,0.2,0.1,-0.30000000000000004,1.3,9.5,1.0,-16.5,-5.2,1.0999999999999999
1698672822599.0,16,-0.1,-0.1,-0.30000000000000004,1.0,9.200000000000001,1.0,-12.9,-5.2,1.2000000000000002
1698672822615.0,16,-0.1,-0.2,-0.2,1.0,9.200000000000001,1.1,-10.8,-5.2,0.7
1698672822633.0,16,-0.1,-0.2,-0.2,1.0,9.1,1.1,-5.9,-4.300000000000001,-0.4
1698672822648.0,16,0.1,-0.30000000000000004,0.0,1.2000000000000002,9.0,1.3,-1.0999999999999999,-3.3000000000000003,-1.2000000000000002
1698672822665.0,16,0.1,-0.4,0.1,1.2000000000000002,8.9,1.5,3.2,-2.4000000000000004,-1.2000000000000002
1698672822682.0,16,0.1,-0.4,0.2,1.3,8.9,1.5,4.800000000000001,-2.1,-0.6000000000000001
1698672822699.0,16,0.1,-0.30000000000000004,0.4,1.2000000000000002,9.0,1.7000000000000002,7.300000000000001,-1.0999999999999999,0.2
1698672822716.0,16,0.0,-0.30000000000000004,0.4,1.1,9.1,1.7000000000000002,7.9,0.1,0.1
1698672822732.0,16,0.0,-0.30000000000000004,0.5,1.1,9.0,1.8,7.1000000000000005,0.6000000000000001,-0.2
1698672822749.0,16,0.0,-0.2,0.6000000000000001,1.1,9.1,1.9000000000000001,3.9,1.5000000000000002,-1.2000000000000002
1698672822765.0,16,0.0,-0.2,0.6000000000000001,1.1,9.1,1.9000000000000001,-0.8,2.6,-1.9
1698672822782.0,16,0.0,-0.2,0.6000000000000001,1.0,9.200000000000001,1.9000000000000001,-6.000000000000001,3.9,-2.1
1698672822799.0,16,-0.1,-0.1,0.5,1.0,9.200000000000001,1.8,-8.5,4.300000000000001,-2.4000000000000004
1698672822815.0,16,-0.1,-0.2,0.30000000000000004,1.0,9.200000000000001,1.7000000000000002,-12.8,4.3999999999999995,-2.1
1698672822832.0,16,-0.1,-0.2,0.30000000000000004,1.0,9.1,1.7000000000000002,-14.4,4.3999999999999995,-1.9
1698672822848.0,16,-0.1,-0.2,0.1,0.9,9.1,1.5,-15.8,4.9,-1.7
1698672822866.0,16,-0.1,-0.1,0.0,0.9,9.200000000000001,1.5,-15.5,4.5,-1.3
1698672822882.0,16,-0.1,-0.1,-0.2,1.0,9.200000000000001,1.3,-13.3,4.2,-1.6
1698672822898.0,16,-0.1,-0.1,-0.2,1.0,9.200000000000001,1.3,-12.100000000000001,3.8,-1.6
1698672822915.0,16,0.0,0.0,-0.2,1.0,9.5,1.4000000000000001,-8.600000000000001,3.8,-1.3
1698672822932.0,16,0.0,0.2,-0.2,1.0,9.5,1.4000000000000001,-8.600000000000001,3.8,-1.3
1698672822948.0,16,0.1,0.5,-0.2,1.1,9.700000000000001,1.4000000000000001,-2.6,6.1000000000000005,-1.3
1698672822966.0,16,0.2,0.5,-0.30000000000000004,1.2000000000000002,9.8,1.4000000000000001,-3.2,5.8,0.30000000000000004
1698672822982.0,16,0.2,1.0,-0.2,1.2000000000000002,10.3,1.4000000000000001,-8.3,7.2,2.3000000000000003
1698672822999.0,16,0.2,1.1,-0.30000000000000004,1.2000000000000002,10.4,1.3,-12.5,10.0,3.4
1698672823015.0,16,0.1,1.5,-0.5,1.1,10.8,1.3,-22.6,10.8,5.4
1698672823032.0,16,0.1,1.5,-0.6000000000000001,1.1,10.8,1.3,-33.900000000000006,8.9,4.0
1698672823049.0,16,0.1,1.5,-0.7000000000000001,1.2000000000000002,10.8,1.2000000000000002,-40.5,8.600000000000001,2.3000000000000003
1698672823066.0,16,0.2,1.3,-0.9,1.3,10.5,1.2000000000000002,-54.5,9.5,-2.4000000000000004
1698672823082.0,16,0.30000000000000004,1.0,-1.2000000000000002,1.3,10.200000000000001,0.9,-62.7,12.3,-4.2
1698672823099.0,16,0.5,0.9,-1.5,1.5,10.100000000000001,0.9,-79.9,9.600000000000001,-6.8
1698672823115.0,16,0.5,0.9,-2.2,1.5,10.0,0.5,-95.7,18.7,-7.8
1698672823132.0,16,0.4,1.3,-2.0,1.4000000000000001,10.3,1.0,-105.80000000000001,13.6,-6.8
1698672823150.0,16,0.4,1.5,-2.3000000000000003,1.3,10.5,0.9,-106.5,15.9,-5.6
1698672823165.0,16,0.5,1.5,-2.8000000000000003,1.4000000000000001,10.4,0.7000000000000001,-108.4,17.400000000000002,-4.3999999999999995
1698672823182.0,16,0.5,1.7000000000000002,-2.4000000000000004,1.3,10.4,1.4000000000000001,-106.7,16.700000000000003,-5.6
1698672823199.0,16,0.5,1.9000000000000001,-2.4000000000000004,1.3,10.600000000000001,1.5,-102.60000000000001,18.5,-4.300000000000001
1698672823215.0,16,0.1,2.3000000000000003,-1.7000000000000002,1.0,10.8,2.5,-91.8,13.3,2.6
1698672823232.0,16,0.30000000000000004,3.1,-0.1,1.1,11.5,4.3,-68.9,5.1,9.600000000000001
1698672823248.0,16,0.4,3.4000000000000004,1.2000000000000002,1.2000000000000002,11.8,5.7,-56.400000000000006,7.8,9.600000000000001
1698672823265.0,16,0.7000000000000001,3.1,3.0,1.5,11.5,7.7,-63.300000000000004,20.8,7.8
1698672823282.0,16,1.0,1.3,2.3000000000000003,1.8,9.5,7.300000000000001,-119.20000000000002,16.2,2.0
1698672823299.0,16,0.1,0.8,1.3,0.9,8.8,6.7,-127.10000000000001,12.8,0.30000000000000004
1698672823315.0,16,0.1,0.8,1.3,0.9,8.8,6.7,-127.10000000000001,12.8,0.30000000000000004
1698672823333.0,16,-0.6000000000000001,0.0,0.8,0.2,8.200000000000001,6.4,-92.8,4.5,7.300000000000001
1698672823349.0,16,-0.6000000000000001,-0.4,1.1,0.2,7.2,6.9,-54.7,-0.8,7.0
1698672823366.0,16,-0.30000000000000004,-1.1,1.5,0.6000000000000001,6.5,7.5,-33.400000000000006,3.3000000000000003,3.2
1698672823382.0,16,0.2,-0.6000000000000001,2.0,1.0,6.9,8.1,-30.7,7.500000000000001,-0.2
1698672823399.0,16,0.30000000000000004,-0.2,2.0,1.0,7.4,7.800000000000001,-32.6,10.8,-0.6000000000000001
1698672823415.0,16,-0.2,0.0,1.2000000000000002,0.6000000000000001,7.4,7.4,-31.2,11.9,-0.1
1698672823432.0,16,-0.1,0.30000000000000004,0.6000000000000001,0.6000000000000001,7.7,6.800000000000001,-17.599999999999998,10.600000000000001,1.0
1698672823448.0,16,0.2,0.6000000000000001,0.7000000000000001,1.0,8.0,7.0,-0.4,1.5000000000000002,3.5
1698672823465.0,16,0.2,0.6000000000000001,0.9,0.9,7.9,7.2,6.000000000000001,-1.5000000000000002,4.5
1698672823482.0,16,0.0,0.4,1.0,0.8,7.800000000000001,7.300000000000001,10.600000000000001,-3.5,7.0
1698672823499.0,16,-0.2,0.1,0.6000000000000001,0.6000000000000001,7.5,6.9,10.3,-1.3,5.4
1698672823515.0,16,-0.30000000000000004,0.0,0.5,0.5,7.4,6.7,11.9,-0.6000000000000001,3.8
1698672823534.0,16,-0.1,-0.2,0.0,0.7000000000000001,7.300000000000001,6.2,18.8,-1.8,0.30000000000000004
1698672823548.0,16,0.1,-0.30000000000000004,-0.4,0.9,7.2,5.7,27.7,-3.2,-2.7
1698672823565.0,16,0.2,-0.4,-0.5,1.0,7.2,5.6000000000000005,31.0,-4.1000000000000005,-3.3000000000000003
1698672823582.0,16,0.1,-0.4,-0.5,0.9,7.2,5.5,37.900000000000006,-6.2,-2.7
1698672823598.0,16,-0.1,-0.5,-0.30000000000000004,0.8,7.1000000000000005,5.5,43.1,-8.700000000000001,-1.2000000000000002
1698672823615.0,16,-0.1,-0.7000000000000001,-0.4,0.7000000000000001,7.0,5.4,46.900000000000006,-10.1,-0.7
1698672823632.0,16,0.0,-1.2000000000000002,-0.6000000000000001,0.9,6.6000000000000005,5.1000000000000005,52.6,-10.3,-1.6
1698672823648.0,16,0.1,-1.5,-0.8,0.9,6.4,4.7,56.5,-5.500000000000001,-5.0
1698672823665.0,16,0.1,-1.5,-0.7000000000000001,0.9,6.5,4.7,58.400000000000006,-2.0,-6.5
1698672823682.0,16,0.0,-1.5,-0.8,0.8,6.6000000000000005,4.5,62.7,2.0,-7.1000000000000005
1698672823698.0,16,-0.1,-1.5,-0.8,0.7000000000000001,6.7,4.3,65.0,1.4,-4.1000000000000005
1698672823715.0,16,-0.2,-1.5,-0.8,0.6000000000000001,6.7,4.2,65.60000000000001,0.5,-1.8
1698672823732.0,16,-0.4,-1.7000000000000002,-0.6000000000000001,0.4,6.6000000000000005,4.1000000000000005,65.10000000000001,-0.2,2.9
1698672823748.0,16,-0.6000000000000001,-1.9000000000000001,-0.5,0.30000000000000004,6.5,4.0,64.7,-2.7,4.3999999999999995
1698672823765.0,16,-0.6000000000000001,-2.0,-0.5,0.2,6.5,4.0,63.6,-4.1000000000000005,4.2
1698672823782.0,16,-0.9,-2.3000000000000003,-0.6000000000000001,0.0,6.300000000000001,3.7,59.7,-4.300000000000001,3.7000000000000006
1698672823798.0,16,-0.9,-2.3000000000000003,-0.1,-0.1,6.300000000000001,4.0,55.300000000000004,-7.400000000000001,2.8
1698672823815.0,16,-1.0,-2.4000000000000004,0.0,-0.1,6.2,4.1000000000000005,52.800000000000004,-7.6,2.1
1698672823832.0,16,-1.0,-2.7,0.1,-0.1,5.9,4.0,49.0,-9.4,1.8
1698672823848.0,16,-0.9,-3.2,0.1,-0.1,5.4,3.9000000000000004,44.1,-11.700000000000001,1.3
1698672823865.0,16,-0.9,-3.4000000000000004,0.2,0.0,5.300000000000001,3.9000000000000004,42.1,-13.0,0.6000000000000001
1698672823882.0,16,-0.6000000000000001,-3.3000000000000003,0.2,0.30000000000000004,5.4,3.8000000000000003,39.00000000000001,-11.3,-2.5
1698672823899.0,16,-0.5,-3.2,0.30000000000000004,0.4,5.5,3.8000000000000003,37.4,-8.200000000000001,-4.5
1698672823915.0,16,-0.1,-3.0,0.5,0.7000000000000001,5.7,4.0,35.5,-4.6000000000000005,-7.9
1698672823932.0,16,-0.2,-3.1,0.7000000000000001,0.7000000000000001,5.7,4.0,36.5,-10.4,-8.799999999999999
1698672823949.0,16,-0.30000000000000004,-2.6,1.1,0.6000000000000001,6.2,4.3,37.7,-15.5,-4.300000000000001
1698672823965.0,16,-0.4,-2.1,1.3,0.5,6.800000000000001,4.4,38.300000000000004,-16.0,-1.2000000000000002
1698672823982.0,16,-0.6000000000000001,-0.8,1.4000000000000001,0.2,8.0,4.4,35.9,-11.9,2.1999999999999997
1698672823999.0,16,-0.6000000000000001,0.2,1.5,0.30000000000000004,9.1,4.4,29.300000000000004,-12.100000000000001,-0.9
1698672824015.0,16,-0.30000000000000004,0.8,1.5,0.6000000000000001,9.700000000000001,4.4,21.3,-11.1,-2.0
1698672824032.0,16,-0.30000000000000004,0.5,1.2000000000000002,0.6000000000000001,9.5,4.1000000000000005,21.3,-11.1,-2.0
1698672824048.0,16,0.0,0.2,0.7000000000000001,0.9,9.200000000000001,3.6,7.300000000000001,-5.9,-3.2
1698672824065.0,16,0.2,0.30000000000000004,0.7000000000000001,1.1,9.200000000000001,3.5,3.1,-7.699999999999999,-5.0
1698672824082.0,16,0.5,0.4,0.6000000000000001,1.3,9.3,3.5,-1.8,-11.2,-8.5
1698672824098.0,16,0.6000000000000001,0.5,0.5,1.4000000000000001,9.4,3.4000000000000004,-3.5,-6.8,-10.5
1698672824115.0,16,0.5,0.5,0.5,1.4000000000000001,9.4,3.4000000000000004,-2.7,-5.4,-9.8
1698672824132.0,16,0.30000000000000004,0.5,0.30000000000000004,1.2000000000000002,9.4,3.2,1.0999999999999999,-4.1000000000000005,-5.4
1698672824149.0,16,0.0,0.2,0.1,0.9,9.200000000000001,2.9000000000000004,2.7,-2.1,0.8
1698672824165.0,16,0.0,0.1,0.0,0.8,9.0,2.8000000000000003,3.9,-4.1000000000000005,1.0
1698672824182.0,16,0.1,0.0,0.1,0.9,9.0,2.9000000000000004,3.4,-5.4,0.8
1698672824199.0,16,0.2,-0.1,0.2,1.1,8.9,3.0,1.4,-3.0000000000000004,-0.5
1698672824215.0,16,0.2,-0.2,0.1,1.0,8.700000000000001,2.9000000000000004,-0.5,-0.30000000000000004,-1.0
1698672824232.0,16,0.1,-0.1,0.1,0.9,8.8,2.9000000000000004,-3.6,5.0,-0.6000000000000001
1698672824249.0,16,-0.1,-0.1,-0.1,0.8,8.8,2.7,-3.8,6.1000000000000005,1.7
1698672824265.0,16,-0.2,0.1,-0.30000000000000004,0.7000000000000001,9.0,2.5,-3.3000000000000003,8.700000000000001,4.0
1698672824282.0,16,-0.1,0.4,-0.30000000000000004,0.8,9.4,2.5,-3.3000000000000003,9.200000000000001,4.9
1698672824299.0,16,-0.1,0.6000000000000001,-0.1,0.7000000000000001,9.5,2.7,0.2,3.9,5.0
1698672824315.0,16,-0.2,0.5,-0.1,0.7000000000000001,9.4,2.7,2.9,2.5,4.7
1698672824332.0,16,-0.30000000000000004,0.0,-0.2,0.6000000000000001,8.9,2.6,5.4,2.0,4.5
1698672824349.0,16,-0.4,-0.2,-0.1,0.5,8.700000000000001,2.7,5.8,-1.3,4.6000000000000005
1698672824365.0,16,-0.4,-0.2,0.1,0.5,8.8,2.9000000000000004,6.1000000000000005,-2.6,6.3
1698672824382.0,16,-0.4,0.0,0.30000000000000004,0.5,9.1,3.2,6.1000000000000005,-2.7,7.400000000000001
1698672824398.0,16,-0.4,0.4,0.5,0.5,9.4,3.3000000000000003,6.2,-3.7000000000000006,7.6
1698672824415.0,16,-0.30000000000000004,0.7000000000000001,0.30000000000000004,0.5,9.600000000000001,3.2,5.6,-5.7,7.0
1698672824432.0,16,-0.2,0.6000000000000001,0.2,0.7000000000000001,9.600000000000001,3.0,0.6000000000000001,-10.4,4.6000000000000005
1698672824450.0,16,-0.2,0.2,0.0,0.8,9.1,2.7,-7.1000000000000005,-16.8,4.800000000000001
1698672824465.0,16,-0.1,-0.1,-0.1,0.9,8.8,2.6,-10.2,-19.400000000000002,4.6000000000000005
1698672824482.0,16,0.1,-0.4,-0.4,1.1,8.6,2.4000000000000004,-14.4,-19.8,0.4
1698672824498.0,16,0.5,-0.30000000000000004,-0.8,1.5,8.6,2.1,-15.8,-15.100000000000001,-3.7000000000000006
1698672824515.0,16,0.7000000000000001,-0.30000000000000004,-0.9,1.8,8.9,1.9000000000000001,-18.8,-3.5,-9.3
1698672824533.0,16,1.0,0.8,-0.9,2.0,9.700000000000001,2.1,-19.9,9.700000000000001,-13.0
1698672824549.0,16,1.1,1.0,-0.8,2.1,9.9,2.2,-17.9,8.700000000000001,-12.6
1698672824565.0,16,1.2000000000000002,0.9,-0.7000000000000001,2.2,9.8,2.3000000000000003,-14.500000000000002,4.800000000000001,-10.3
1698672824582.0,16,1.1,0.5,-1.1,2.1,9.4,2.0,-7.699999999999999,-3.5,-0.2
1698672824599.0,16,0.9,-0.1,-1.2000000000000002,1.9000000000000001,8.8,1.9000000000000001,-5.8,-3.2,13.4
1698672824615.0,16,0.5,-0.4,-1.1,1.5,8.5,2.0,-3.3000000000000003,0.30000000000000004,17.599999999999998
1698672824632.0,16,0.30000000000000004,-0.4,-1.0,1.4000000000000001,8.5,2.0,-0.8,0.8,15.5
1698672824649.0,16,0.2,-0.2,-1.0,1.3,8.700000000000001,2.0,3.6,2.3000000000000003,8.600000000000001
1698672824666.0,16,0.30000000000000004,-0.1,-1.1,1.3,8.700000000000001,1.9000000000000001,4.7,2.1999999999999997,5.8
1698672824682.0,16,0.4,-0.1,-1.0,1.6,8.8,2.0,2.4000000000000004,4.2,2.1999999999999997
1698672824699.0,16,0.5,-0.2,-1.0,1.6,8.700000000000001,2.0,-1.6,8.3,0.4
1698672824715.0,16,0.5,-0.5,-1.2000000000000002,1.6,8.4,1.8,-4.1000000000000005,11.9,-2.0
1698672824732.0,16,0.6000000000000001,-0.6000000000000001,-1.3,1.7000000000000002,8.200000000000001,1.7000000000000002,-4.9,14.100000000000001,-3.8
1698672824749.0,16,1.0,-0.7000000000000001,-1.4000000000000001,2.1,8.200000000000001,1.6,-5.6,18.5,-6.5
1698672824765.0,16,1.2000000000000002,-0.6000000000000001,-1.3,2.2,8.200000000000001,1.7000000000000002,-4.1000000000000005,22.5,-6.7
1698672824783.0,16,1.2000000000000002,-0.4,-1.4000000000000001,2.2,8.4,1.6,-1.6,26.3,-6.000000000000001
1698672824798.0,16,1.1,-0.30000000000000004,-1.4000000000000001,2.1,8.5,1.6,-0.30000000000000004,25.3,-4.1000000000000005
1698672824815.0,16,0.8,0.2,-1.3,1.8,9.0,1.7000000000000002,2.5,23.0,2.0
1698672824832.0,16,0.7000000000000001,0.5,-1.2000000000000002,1.7000000000000002,9.3,1.8,4.5,23.1,5.0
1698672824849.0,16,0.6000000000000001,0.9,-1.1,1.6,9.8,1.9000000000000001,8.700000000000001,28.0,6.3
1698672824865.0,16,0.5,0.6000000000000001,-0.9,1.5,9.5,2.0,13.3,28.6,4.2
1698672824882.0,16,0.5,0.30000000000000004,-1.0,1.4000000000000001,9.1,1.9000000000000001,13.700000000000001,22.4,5.500000000000001
1698672824899.0,16,0.5,0.30000000000000004,-1.1,1.5,9.200000000000001,1.8,10.3,19.9,7.0
1698672824915.0,16,0.5,0.6000000000000001,-1.1,1.5,9.5,1.8,-0.8,20.2,6.1000000000000005
1698672824932.0,16,0.6000000000000001,0.7000000000000001,-1.0,1.6,9.600000000000001,1.8,-7.0,21.700000000000003,4.6000000000000005
1698672824950.0,16,1.0,1.0,-0.6000000000000001,1.9000000000000001,9.9,2.3000000000000003,-15.2,26.0,1.7
1698672824965.0,16,1.0,1.8,-0.2,2.0,10.600000000000001,2.8000000000000003,-14.700000000000001,29.1,2.5
1698672824982.0,16,1.2000000000000002,2.0,-0.7000000000000001,2.1,10.9,2.3000000000000003,-13.4,22.900000000000002,8.1
1698672824999.0,16,1.2000000000000002,2.0,-0.5,2.1,10.8,2.6,-16.6,25.0,9.600000000000001
1698672825015.0,16,0.6000000000000001,1.9000000000000001,0.1,1.6,10.700000000000001,3.2,-18.400000000000002,27.8,12.000000000000002
1698672825032.0,16,0.2,2.3000000000000003,0.5,1.2000000000000002,11.200000000000001,3.6,-13.100000000000001,9.600000000000001,17.0
1698672825048.0,16,-0.2,2.5,0.6000000000000001,0.8,11.4,3.8000000000000003,-9.5,-2.4000000000000004,19.200000000000003
1698672825065.0,16,-0.6000000000000001,2.2,0.7000000000000001,0.5,11.100000000000001,3.9000000000000004,-4.0,-14.100000000000001,22.3
1698672825082.0,16,-0.6000000000000001,1.6,0.6000000000000001,0.4,9.700000000000001,4.0,-3.5,-9.9,19.0
1698672825099.0,16,-0.7000000000000001,0.1,0.9,0.5,8.9,4.1000000000000005,-2.5,8.799999999999999,2.8
1698672825115.0,16,0.0,-0.6000000000000001,1.1,1.2000000000000002,8.3,4.3,3.8,8.700000000000001,-4.7
1698672825132.0,16,0.4,-0.7000000000000001,1.0,1.5,8.200000000000001,4.2,8.700000000000001,1.3,-2.3000000000000003
1698672825149.0,16,0.2,-0.9,1.0,1.3,8.0,4.2,9.9,1.5000000000000002,-0.1
1698672825165.0,16,-0.8,-1.1,0.9,0.30000000000000004,7.800000000000001,4.1000000000000005,14.700000000000001,-3.6,2.7
1698672825182.0,16,-1.5,-1.4000000000000001,1.2000000000000002,-0.4,7.5,4.3,23.0,-13.700000000000001,0.1
1698672825199.0,16,-1.9000000000000001,-1.5,1.3,-0.8,7.4,4.4,27.5,-13.0,-2.6
1698672825216.0,16,-2.1,-1.6,1.3,-1.0,7.300000000000001,4.3,32.4,-5.6,-6.8
1698672825232.0,16,-1.9000000000000001,-1.5,1.2000000000000002,-0.6000000000000001,7.6000000000000005,4.1000000000000005,29.700000000000003,0.2,-12.3
1698672825249.0,16,-1.3,-1.3,1.2000000000000002,-0.2,7.7,4.1000000000000005,26.400000000000002,-0.8,-14.800000000000002
1698672825265.0,16,-0.6000000000000001,-1.2000000000000002,1.1,0.4,7.800000000000001,3.9000000000000004,20.2,-5.4,-12.100000000000001
1698672825282.0,16,-0.5,-1.0,1.0,0.4,8.0,3.7,17.3,-6.000000000000001,-5.6
1698672825299.0,16,-0.9,-0.7000000000000001,0.6000000000000001,0.0,8.3,3.3000000000000003,18.8,-12.100000000000001,-0.9
1698672825315.0,16,-1.3,-0.4,0.6000000000000001,-0.30000000000000004,8.6,3.2,19.700000000000003,-15.2,-0.1
1698672825334.0,16,-1.6,-0.2,0.6000000000000001,-0.6000000000000001,8.9,3.2,21.200000000000003,-17.7,-0.1
1698672825348.0,16,-1.6,0.30000000000000004,0.6000000000000001,-0.6000000000000001,9.3,3.2,24.400000000000002,-19.400000000000002,-3.5
1698672825365.0,16,-1.4000000000000001,0.2,0.7000000000000001,-0.5,9.3,3.1,26.6,-19.9,-15.399999999999999
1698672825382.0,16,-0.8,-0.7000000000000001,0.7000000000000001,0.1,8.4,3.1,25.3,-21.6,-26.500000000000004
1698672825399.0,16,-0.4,-0.9,0.8,0.4,8.200000000000001,3.1,23.8,-21.5,-25.8
1698672825415.0,16,-0.1,-0.8,0.7000000000000001,0.6000000000000001,8.3,3.0,21.1,-17.0,-20.4
1698672825432.0,16,-0.30000000000000004,-0.2,0.7000000000000001,0.4,8.9,2.9000000000000004,20.0,-16.8,-15.299999999999999
1698672825448.0,16,-0.5,0.1,0.7000000000000001,0.2,9.200000000000001,2.9000000000000004,19.9,-17.200000000000003,-14.200000000000001
1698672825465.0,16,-0.6000000000000001,0.4,0.7000000000000001,0.0,9.600000000000001,2.8000000000000003,19.200000000000003,-17.3,-14.800000000000002
1698672825483.0,16,-0.4,0.2,0.7000000000000001,0.2,9.4,2.8000000000000003,16.6,-17.7,-17.3
1698672825499.0,16,-0.2,0.1,0.6000000000000001,0.5,9.1,2.6,11.000000000000002,-15.2,-17.9
1698672825515.0,16,0.1,-0.30000000000000004,0.4,0.6000000000000001,8.9,2.5,7.1000000000000005,-12.9,-17.0
1698672825533.0,16,0.1,-0.4,0.1,0.6000000000000001,8.8,2.2,0.1,-9.600000000000001,-13.700000000000001
1698672825549.0,16,-0.1,-0.2,-0.2,0.4,9.0,1.9000000000000001,-4.6000000000000005,-8.600000000000001,-9.600000000000001
1698672825566.0,16,-0.1,0.0,-0.30000000000000004,0.30000000000000004,9.200000000000001,1.7000000000000002,-6.3,-9.0,-7.9
1698672825582.0,16,0.0,0.2,-0.4,0.30000000000000004,9.3,1.6,-7.9,-9.9,-7.0
1698672825598.0,16,-0.1,0.2,-0.4,0.4,9.4,1.6,-9.1,-11.700000000000001,-6.000000000000001
1698672825615.0,16,0.0,-0.1,-0.30000000000000004,0.4,9.1,1.8,-6.7,-13.200000000000001,-2.3000000000000003
1698672825634.0,16,-0.1,-0.4,-0.6000000000000001,0.30000000000000004,8.8,1.6,-3.0000000000000004,-14.500000000000002,2.7
1698672825648.0,16,-0.30000000000000004,-0.4,-0.6000000000000001,0.2,8.8,1.5,-2.5,-14.500000000000002,4.3999999999999995
1698672825665.0,16,-0.6000000000000001,-0.4,-1.0,-0.1,8.8,1.1,-2.4000000000000004,-18.2,6.2
1698672825682.0,16,-0.5,-0.1,-1.0,0.1,9.1,1.1,-8.1,-27.3,6.4
1698672825698.0,16,-0.6000000000000001,0.1,-1.1,0.0,9.200000000000001,1.0,-11.9,-28.0,1.8
1698672825715.0,16,-0.7000000000000001,0.30000000000000004,-1.1,-0.1,9.4,1.1,-13.700000000000001,-24.8,-0.6000000000000001
1698672825733.0,16,-0.4,0.6000000000000001,-0.6000000000000001,0.2,9.700000000000001,1.6,-7.400000000000001,-28.3,-4.9
1698672825749.0,16,-0.2,0.30000000000000004,-0.7000000000000001,0.4,9.4,1.5,-3.9,-29.000000000000004,-5.6
1698672825765.0,16,0.30000000000000004,0.1,-0.7000000000000001,0.9,9.200000000000001,1.5,-2.7,-19.500000000000004,-3.4
1698672825782.0,16,0.4,0.4,-0.6000000000000001,1.0,9.600000000000001,1.6,-3.2,-19.400000000000002,-0.7
1698672825799.0,16,0.2,0.8,-0.7000000000000001,0.9,10.0,1.5,-4.9,-24.000000000000004,2.9
1698672825816.0,16,0.0,0.9,-0.7000000000000001,0.7000000000000001,10.100000000000001,1.4000000000000001,-7.400000000000001,-25.900000000000002,3.8
1698672825832.0,16,-0.2,0.8,-0.6000000000000001,0.5,10.0,1.6,-14.0,-29.000000000000004,1.8
1698672825850.0,16,-0.1,0.7000000000000001,-0.4,0.6000000000000001,9.9,1.8,-17.7,-26.700000000000003,-1.0
1698672825865.0,16,0.2,0.6000000000000001,-0.4,0.9,9.8,1.9000000000000001,-24.8,-13.4,-7.500000000000001
1698672825882.0,16,0.6000000000000001,0.7000000000000001,-0.2,1.2000000000000002,9.9,2.2,-29.900000000000006,1.6,-10.3
1698672825899.0,16,0.7000000000000001,0.9,-0.2,1.4000000000000001,10.0,2.2,-30.7,8.700000000000001,-10.600000000000001
1698672825915.0,16,1.0,1.0,-0.2,1.6,10.100000000000001,2.3000000000000003,-29.500000000000004,22.900000000000002,-9.5
1698672825933.0,16,0.7000000000000001,0.8,-0.30000000000000004,1.2000000000000002,9.8,2.3000000000000003,-26.700000000000003,30.799999999999997,-2.0
1698672825949.0,16,0.4,0.8,-0.4,0.9,9.9,2.3000000000000003,-24.1,29.700000000000003,4.5
1698672825965.0,16,0.0,1.6,-0.6000000000000001,0.5,10.9,2.2,-13.700000000000001,18.1,15.000000000000002
1698672825982.0,16,-0.2,1.9000000000000001,-0.5,0.4,11.0,2.2,-12.100000000000001,19.500000000000004,15.5
1698672825998.0,16,-0.1,1.8,-0.5,0.7000000000000001,10.700000000000001,2.3000000000000003,-11.3,18.6,12.8
1698672826015.0,16,0.30000000000000004,1.0,-0.1,0.9,10.100000000000001,2.7,-12.9,14.600000000000001,4.6000000000000005
1698672826033.0,16,0.30000000000000004,0.9,0.0,0.9,9.9,2.9000000000000004,-13.4,16.1,1.8
1698672826049.0,16,0.2,0.4,0.2,0.8,9.4,3.1,-11.9,18.8,0.2
1698672826065.0,16,-0.30000000000000004,-0.30000000000000004,0.30000000000000004,0.30000000000000004,8.700000000000001,3.2,-7.8,20.6,2.9
1698672826082.0,16,-0.6000000000000001,-0.6000000000000001,0.30000000000000004,0.0,8.4,3.2,-4.9,20.2,5.4
1698672826098.0,16,-0.7000000000000001,-0.8,0.1,-0.1,8.200000000000001,3.1,-1.8,17.9,8.1
1698672826115.0,16,-0.6000000000000001,-0.9,0.30000000000000004,0.0,8.1,3.3000000000000003,2.9,10.4,12.3
1698672826132.0,16,-0.4,-0.6000000000000001,1.0,0.2,8.4,3.9000000000000004,12.000000000000002,-1.3,12.9
1698672826148.0,16,-0.4,-0.5,1.2000000000000002,0.30000000000000004,8.6,4.1000000000000005,17.5,-6.7,12.6
1698672826165.0,16,-0.4,-0.6000000000000001,1.5,0.30000000000000004,8.5,4.3,24.9,-16.6,12.6
1698672826182.0,16,-0.4,-1.0,1.6,0.30000000000000004,8.1,4.4,21.3,-17.7,12.6
1698672826199.0,16,-0.4,-1.2000000000000002,1.7000000000000002,0.4,7.7,4.3,6.2,-11.2,12.200000000000001
1698672826215.0,16,-0.5,-1.5,1.4000000000000001,0.4,7.6000000000000005,4.2,-0.7,-7.699999999999999,12.000000000000002
1698672826236.0,16,-0.30000000000000004,-1.5,1.1,0.6000000000000001,7.5,3.9000000000000004,-5.2,-6.6000000000000005,10.600000000000001
1698672826248.0,16,0.2,-1.4000000000000001,1.0,1.1,7.6000000000000005,3.7,0.5,-11.5,8.799999999999999
1698672826265.0,16,0.30000000000000004,-1.2000000000000002,1.0,1.4000000000000001,7.9,3.9000000000000004,4.7,-13.700000000000001,8.200000000000001
1698672826282.0,16,0.4,-0.9,1.2000000000000002,1.4000000000000001,8.1,4.0,13.8,-13.700000000000001,8.600000000000001
1698672826298.0,16,0.2,-0.5,1.2000000000000002,1.2000000000000002,8.6,3.9000000000000004,19.700000000000003,-9.1,10.0
1698672826315.0,16,0.2,-0.30000000000000004,1.1,1.2000000000000002,8.700000000000001,3.7,18.5,-3.5,8.0
1698672826332.0,16,0.2,-0.4,1.0,1.4000000000000001,8.5,3.6,15.9,-1.8,6.5
1698672826349.0,16,0.30000000000000004,-0.5,1.0,1.5,8.4,3.5,10.600000000000001,-0.2,4.9
1698672826365.0,16,0.5,-0.7000000000000001,0.8,1.6,8.4,3.4000000000000004,8.700000000000001,0.4,5.0
1698672826382.0,16,0.5,-0.8,0.6000000000000001,1.6,8.3,3.2,7.400000000000001,1.7,7.0
1698672826399.0,16,0.4,-0.7000000000000001,0.4,1.6,8.4,3.0,7.9,2.1999999999999997,10.0
1698672826415.0,16,0.30000000000000004,-0.5,0.4,1.5,8.5,2.9000000000000004,8.4,2.5,10.9
1698672826432.0,16,0.2,-0.30000000000000004,0.4,1.4000000000000001,8.8,2.9000000000000004,10.0,2.8,9.200000000000001
1698672826450.0,16,0.30000000000000004,-0.2,0.4,1.5,8.9,2.9000000000000004,11.8,3.7000000000000006,5.9
1698672826466.0,16,0.30000000000000004,-0.2,0.30000000000000004,1.5,8.8,2.8000000000000003,11.1,5.0,3.4
1698672826482.0,16,0.4,-0.2,0.30000000000000004,1.6,8.8,2.7,9.8,6.8,2.1999999999999997
1698672826499.0,16,0.4,-0.5,0.2,1.6,8.5,2.6,7.1000000000000005,11.9,0.4
1698672826515.0,16,0.4,-0.5,0.1,1.7000000000000002,8.5,2.5,5.8,13.700000000000001,0.6000000000000001
1698672826532.0,16,0.5,-0.4,-0.1,1.7000000000000002,8.6,2.3000000000000003,3.7000000000000006,15.000000000000002,3.0000000000000004
1698672826548.0,16,0.5,-0.1,-0.2,1.7000000000000002,8.9,2.2,2.7,15.9,3.3000000000000003
1698672826565.0,16,0.4,0.0,-0.4,1.7000000000000002,9.0,2.0,3.4,16.700000000000003,2.3000000000000003
1698672826582.0,16,0.4,-0.1,-0.4,1.6,9.0,2.0,4.3999999999999995,17.8,0.4
1698672826600.0,16,0.4,-0.2,-0.5,1.6,8.8,1.9000000000000001,6.2,21.6,-1.0999999999999999
1698672826615.0,16,0.4,-0.6000000000000001,-0.6000000000000001,1.6,8.4,1.7000000000000002,8.700000000000001,29.600000000000005,-1.6
1698672826632.0,16,0.4,-0.8,-0.7000000000000001,1.6,8.3,1.6,10.3,31.8,-1.6
1698672826648.0,16,0.5,-1.0,-0.8,1.6,8.1,1.5,13.200000000000001,30.299999999999997,-0.5
1698672826665.0,16,0.5,-1.0,-0.7000000000000001,1.6,8.1,1.5,17.400000000000002,25.2,0.4
1698672826682.0,16,0.5,-0.7000000000000001,-0.7000000000000001,1.6,8.3,1.6,19.400000000000002,24.1,1.0999999999999999
1698672826699.0,16,0.30000000000000004,0.0,-0.6000000000000001,1.4000000000000001,9.0,1.5,23.700000000000003,26.6,1.3
1698672826715.0,16,0.1,0.4,-0.6000000000000001,1.0,9.9,1.5,25.1,27.8,1.4
1698672826733.0,16,-0.2,1.1,-0.6000000000000001,0.8,10.200000000000001,1.5,26.400000000000002,27.6,1.2000000000000002
1698672826749.0,16,-0.30000000000000004,1.2000000000000002,-0.8,0.7000000000000001,10.4,1.2000000000000002,23.400000000000002,26.400000000000002,-2.4000000000000004
1698672826765.0,16,0.1,0.8,-0.7000000000000001,1.1,9.9,1.2000000000000002,14.500000000000002,22.1,-9.200000000000001
1698672826782.0,16,0.6000000000000001,0.30000000000000004,-0.30000000000000004,1.6,9.5,1.6,5.300000000000001,13.9,-10.5
1698672826798.0,16,0.6000000000000001,0.1,-0.2,1.5,9.1,1.7000000000000002,1.0999999999999999,13.9,-8.3
1698672826815.0,16,0.6000000000000001,-0.2,-0.30000000000000004,1.6,9.0,1.7000000000000002,-6.7,21.3,-2.0
1698672826832.0,16,0.6000000000000001,-0.2,-0.5,1.5,8.9,1.5,-11.3,24.1,0.2
1698672826849.0,16,0.6000000000000001,0.0,-0.6000000000000001,1.5,9.1,1.4000000000000001,-12.8,22.7,0.9
1698672826865.0,16,0.5,0.30000000000000004,-0.8,1.3,9.700000000000001,1.1,-14.600000000000001,22.5,2.0
1698672826882.0,16,0.4,0.6000000000000001,-0.9,1.4000000000000001,9.9,1.2000000000000002,-21.3,23.8,7.9
1698672826899.0,16,0.6000000000000001,0.8,-1.0,1.5,10.0,1.2000000000000002,-21.400000000000002,21.400000000000002,7.400000000000001
1698672826915.0,16,0.7000000000000001,0.9,-0.9,1.6,10.0,1.4000000000000001,-20.3,20.3,4.2
1698672826932.0,16,0.6000000000000001,1.0,-0.7000000000000001,1.6,10.200000000000001,1.6,-18.900000000000002,22.5,3.4
1698672826948.0,16,0.5,1.4000000000000001,-0.6000000000000001,1.4000000000000001,10.5,1.6,-14.4,17.3,5.1
1698672826965.0,16,0.4,1.2000000000000002,-0.6000000000000001,1.4000000000000001,10.3,1.8,-13.6,7.8,8.799999999999999
1698672826982.0,16,0.4,0.9,-0.4,1.4000000000000001,9.8,2.1,-15.2,6.2,9.600000000000001
1698672826999.0,16,0.4,0.5,-0.2,1.4000000000000001,9.600000000000001,2.2,-18.7,2.1,7.699999999999999
1698672827015.0,16,0.5,0.2,-0.1,1.6,9.3,2.4000000000000004,-24.000000000000004,2.8,3.9
1698672827032.0,16,1.0,0.4,0.0,2.0,9.5,2.6,-29.500000000000004,15.8,-0.1
1698672827050.0,16,1.0,0.6000000000000001,0.2,2.0,9.600000000000001,2.8000000000000003,-30.5,16.700000000000003,-2.4000000000000004
1698672827065.0,16,1.0,1.3,0.5,2.0,10.3,3.2,-25.1,10.0,-1.4
1698672827082.0,16,0.4,1.7000000000000002,0.30000000000000004,1.7000000000000002,10.600000000000001,3.2,-20.8,4.2,1.8
1698672827098.0,16,0.1,1.4000000000000001,0.2,1.1,10.5,3.0,-14.0,-10.700000000000001,11.5
1698672827115.0,16,-0.8,0.5,-0.1,0.30000000000000004,9.5,2.7,-13.0,-5.6,9.8
1698672827132.0,16,-1.0,-0.2,-0.2,0.1,8.8,2.6,-11.9,-3.5,-1.8
1698672827149.0,16,-0.7000000000000001,-0.30000000000000004,-0.1,0.30000000000000004,8.700000000000001,2.7,-10.700000000000001,-6.2,-8.5
1698672827165.0,16,-0.4,-0.30000000000000004,0.2,0.7000000000000001,8.700000000000001,3.1,-9.0,-8.9,-13.5
1698672827182.0,16,-0.1,-0.5,1.1,0.9,8.5,4.0,4.6000000000000005,-5.7,-12.5
1698672827199.0,16,-0.30000000000000004,-0.6000000000000001,1.1,0.7000000000000001,8.4,4.0,10.5,-0.4,-10.5
1698672827215.0,16,-0.4,-0.8,1.1,0.5,8.200000000000001,4.0,19.8,8.200000000000001,-7.300000000000001
1698672827232.0,16,-0.6000000000000001,-1.2000000000000002,1.1,0.30000000000000004,7.800000000000001,3.9000000000000004,23.3,6.4,-4.9
1698672827248.0,16,-0.7000000000000001,-1.3,1.1,0.2,7.7,3.8000000000000003,22.8,4.300000000000001,-3.0000000000000004
1698672827265.0,16,-1.0,-1.5,1.0,-0.1,7.6000000000000005,3.7,18.6,-0.8,-0.4
1698672827282.0,16,-1.3,-1.3,0.9,-0.5,7.800000000000001,3.6,12.100000000000001,-7.1000000000000005,-1.0999999999999999
1698672827298.0,16,-1.4000000000000001,-1.1,0.9,-0.5,7.9,3.5,9.1,-8.0,-2.9
1698672827315.0,16,-1.5,-0.9,0.8,-0.6000000000000001,8.1,3.5,6.2,-4.1000000000000005,-8.1
1698672827332.0,16,-1.1,-0.7000000000000001,0.8,-0.5,8.3,3.4000000000000004,7.0,-3.3000000000000003,-10.5
1698672827349.0,16,-0.9,-0.6000000000000001,0.8,-0.1,8.4,3.4000000000000004,11.6,-7.9,-12.700000000000001
1698672827365.0,16,-0.5,-0.6000000000000001,0.6000000000000001,0.30000000000000004,8.5,3.2,16.3,-10.0,-10.700000000000001
1698672827382.0,16,-0.6000000000000001,-0.5,0.7000000000000001,0.2,8.6,3.2,20.4,-13.100000000000001,-7.6
1698672827399.0,16,-0.6000000000000001,-0.4,0.7000000000000001,0.1,8.700000000000001,3.2,22.900000000000002,-15.000000000000002,-6.8
1698672827416.0,16,-0.8,-0.1,0.7000000000000001,-0.1,9.0,3.1,27.1,-19.1,-7.1000000000000005
1698672827435.0,16,-0.8,0.1,0.8,-0.1,9.200000000000001,3.1,29.900000000000006,-21.1,-10.700000000000001
1698672827449.0,16,-0.9,0.1,0.8,-0.2,9.200000000000001,3.1,31.0,-21.400000000000002,-13.9
1698672827471.0,16,-0.7000000000000001,-0.30000000000000004,0.8,0.0,8.9,2.9000000000000004,30.599999999999998,-19.700000000000003,-19.700000000000003
1698672827482.0,16,-0.30000000000000004,-0.4,0.8,0.30000000000000004,8.8,2.9000000000000004,25.3,-16.2,-20.900000000000002
1698672827498.0,16,-0.1,-0.2,0.7000000000000001,0.5,9.200000000000001,2.6,16.6,-11.3,-16.8
1698672827515.0,16,0.0,0.1,0.4,0.5,9.4,2.4000000000000004,11.700000000000001,-9.3,-13.5
1698672827532.0,16,0.0,0.2,0.4,0.4,9.5,2.4000000000000004,7.0,-8.3,-10.3
1698672827548.0,16,-0.30000000000000004,0.4,0.30000000000000004,0.2,9.600000000000001,2.2,1.8,-10.9,-4.9
1698672827565.0,16,-0.6000000000000001,0.2,0.2,-0.1,9.5,2.1,-0.1,-15.2,-0.6000000000000001
1698672827582.0,16,-0.7000000000000001,0.1,0.2,-0.2,9.4,2.1,0.2,-17.8,-1.0
1698672827599.0,16,-0.6000000000000001,0.1,0.1,-0.2,9.3,2.0,1.4,-18.1,-6.7
1698672827616.0,16,-0.6000000000000001,0.1,-0.2,-0.1,9.4,1.7000000000000002,-0.5,-16.3,-14.0
1698672827632.0,16,-0.4,0.1,-0.2,0.0,9.4,1.7000000000000002,-0.5,-16.3,-14.0
1698672827649.0,16,-0.30000000000000004,0.0,-0.30000000000000004,0.1,9.3,1.7000000000000002,-3.3000000000000003,-17.9,-16.0
1698672827665.0,16,0.0,-0.1,-0.30000000000000004,0.4,9.1,1.7000000000000002,-6.3,-17.200000000000003,-14.0
1698672827682.0,16,0.1,-0.2,-0.4,0.5,9.0,1.6,-8.600000000000001,-16.3,-10.600000000000001
1698672827699.0,16,0.1,-0.2,-0.4,0.5,9.0,1.6,-9.3,-16.0,-8.700000000000001
1698672827715.0,16,0.2,-0.4,-0.6000000000000001,0.5,8.8,1.4000000000000001,-9.200000000000001,-16.3,-4.7
1698672827733.0,16,0.1,-0.6000000000000001,-0.6000000000000001,0.4,8.6,1.4000000000000001,-9.3,-18.0,-1.8
1698672827749.0,16,0.0,-0.7000000000000001,-0.8,0.4,8.5,1.3,-8.799999999999999,-18.3,-0.4
1698672827766.0,16,-0.30000000000000004,-0.7000000000000001,-1.3,0.1,8.5,0.8,-9.600000000000001,-23.5,3.4
1698672827784.0,16,-0.4,-0.6000000000000001,-1.5,0.0,8.5,0.6000000000000001,-11.6,-29.600000000000005,5.0
1698672827799.0,16,-0.6000000000000001,-0.30000000000000004,-1.1,-0.2,8.9,1.0,-14.800000000000002,-44.2,6.2
1698672827815.0,16,-0.5,0.0,-0.9,-0.1,9.1,1.2000000000000002,-12.8,-43.300000000000004,5.500000000000001
1698672827832.0,16,-0.4,0.30000000000000004,-0.9,0.1,9.4,1.3,-9.3,-39.8,3.5
1698672827848.0,16,0.4,0.7000000000000001,-0.9,0.9,9.9,1.2000000000000002,-1.6,-32.300000000000004,-5.4
1698672827865.0,16,0.6000000000000001,0.9,-0.9,1.1,10.0,1.3,-1.0999999999999999,-30.000000000000004,-5.2
1698672827882.0,16,0.7000000000000001,1.2000000000000002,-0.8,1.2000000000000002,10.4,1.3,-1.8,-26.8,-1.4
1698672827898.0,16,0.7000000000000001,1.3,-1.0,1.2000000000000002,10.600000000000001,1.1,-6.3,-27.8,4.800000000000001
1698672827915.0,16,0.5,1.3,-0.8,1.1,10.4,1.4000000000000001,-9.9,-28.400000000000002,5.9
1698672827932.0,16,0.2,1.2000000000000002,-0.30000000000000004,0.8,10.4,1.9000000000000001,-13.3,-21.8,3.0000000000000004
1698672827948.0,16,0.1,1.4000000000000001,0.1,0.7000000000000001,10.600000000000001,2.3000000000000003,-12.700000000000001,-10.9,-1.0999999999999999
1698672827965.0,16,0.1,1.5,0.30000000000000004,0.7000000000000001,10.700000000000001,2.6,-10.700000000000001,-5.2,-3.1
1698672827982.0,16,0.4,1.4000000000000001,0.1,1.0,10.600000000000001,2.4000000000000004,-8.0,8.0,-5.9
1698672827998.0,16,0.4,1.2000000000000002,0.0,1.0,10.4,2.3000000000000003,-14.3,19.400000000000002,-3.1
1698672828015.0,16,0.30000000000000004,1.1,-0.1,0.9,10.3,2.3000000000000003,-18.2,21.400000000000002,0.2
1698672828033.0,16,0.30000000000000004,1.0,-0.5,0.9,10.200000000000001,1.9000000000000001,-26.3,21.3,4.5
1698672828048.0,16,0.4,1.0,-0.4,0.9,10.200000000000001,2.1,-32.5,21.3,4.300000000000001
1698672828065.0,16,0.30000000000000004,1.1,-0.4,0.9,10.200000000000001,2.1,-32.4,22.5,3.7000000000000006
1698672828082.0,16,0.0,0.9,-0.5,0.6000000000000001,10.0,2.2,-28.0,24.400000000000002,3.0000000000000004
1698672828098.0,16,-0.1,0.4,-0.6000000000000001,0.4,9.5,2.1,-20.7,26.1,1.8
1698672828115.0,16,-0.2,0.0,-0.6000000000000001,0.30000000000000004,9.1,2.2,-16.8,25.5,1.0
1698672828132.0,16,-0.4,-0.7000000000000001,-0.6000000000000001,0.1,8.4,2.2,-10.0,21.400000000000002,2.9
1698672828149.0,16,-0.5,-1.0,-0.4,0.0,8.1,2.4000000000000004,-4.9,14.900000000000002,7.400000000000001
1698672828165.0,16,-0.5,-0.9,-0.1,0.0,8.200000000000001,2.7,-1.9,11.8,8.1
1698672828182.0,16,-0.30000000000000004,-0.6000000000000001,0.5,0.2,8.5,3.3000000000000003,7.9,5.6,6.6000000000000005
1698672828198.0,16,-0.30000000000000004,-0.6000000000000001,0.8,0.30000000000000004,8.5,3.9000000000000004,17.5,-2.5,5.7
1698672828215.0,16,-0.4,-0.6000000000000001,1.3,0.2,8.5,4.1000000000000005,21.0,-5.6,6.5
1698672828232.0,16,-0.7000000000000001,-0.6000000000000001,1.5,-0.1,8.5,4.2,22.4,-7.2,8.1
1698672828248.0,16,-0.9,-0.8,1.4000000000000001,-0.30000000000000004,8.3,4.0,13.4,-4.5,7.8
1698672828265.0,16,-0.9,-0.9,1.3,-0.30000000000000004,8.200000000000001,3.9000000000000004,5.6,-4.7,6.7
1698672828282.0,16,-0.6000000000000001,-1.0,1.2000000000000002,0.0,8.1,3.8000000000000003,-6.3,-9.9,4.5
1698672828300.0,16,-0.4,-1.0,1.2000000000000002,0.30000000000000004,8.1,3.8000000000000003,-7.6,-13.200000000000001,3.8
1698672828315.0,16,0.1,-0.9,1.2000000000000002,0.8,8.200000000000001,3.9000000000000004,-4.2,-17.9,3.2
1698672828333.0,16,0.30000000000000004,-0.6000000000000001,1.3,1.0,8.4,4.0,3.6,-13.4,2.5
1698672828349.0,16,0.5,-0.6000000000000001,1.2000000000000002,1.2000000000000002,8.5,3.8000000000000003,10.9,-7.8,1.0999999999999999
1698672828365.0,16,0.6000000000000001,-0.6000000000000001,1.0,1.3,8.5,3.6,12.5,-5.7,0.6000000000000001
1698672828382.0,16,0.7000000000000001,-0.7000000000000001,0.8,1.4000000000000001,8.3,3.4000000000000004,11.8,-0.2,0.1
1698672828398.0,16,0.8,-0.6000000000000001,0.7000000000000001,1.5,8.5,3.3000000000000003,9.5,2.0,1.8
1698672828415.0,16,0.8,-0.6000000000000001,0.6000000000000001,1.6,8.4,3.2,9.1,2.6,3.1
1698672828432.0,16,0.8,-0.6000000000000001,0.5,1.6,8.5,3.1,9.700000000000001,2.1,6.000000000000001
1698672828449.0,16,0.7000000000000001,-0.5,0.5,1.5,8.6,3.0,11.8,-1.3,9.600000000000001
1698672828465.0,16,0.5,-0.4,0.5,1.2000000000000002,8.9,3.0,14.200000000000001,-0.5,10.9
1698672828482.0,16,0.2,0.0,0.6000000000000001,1.0,9.1,3.1,14.900000000000002,0.30000000000000004,9.200000000000001
1698672828498.0,16,0.1,0.0,0.6000000000000001,1.0,9.1,3.0,14.3,1.3,2.8
1698672828515.0,16,0.2,-0.1,0.5,1.2000000000000002,9.1,2.9000000000000004,8.9,5.6,-2.1
1698672828532.0,16,0.5,-0.2,0.5,1.4000000000000001,8.9,2.9000000000000004,5.4,8.9,-3.4
1698672828549.0,16,0.8,-0.2,0.6000000000000001,1.6,8.9,3.1,0.30000000000000004,16.400000000000002,-3.2
1698672828565.0,16,0.9,-0.30000000000000004,0.5,1.7000000000000002,8.8,2.8000000000000003,-0.7,18.400000000000002,-2.4000000000000004
1698672828582.0,16,0.7000000000000001,-0.30000000000000004,0.30000000000000004,1.5,8.8,2.7,-2.9,13.100000000000001,3.5
1698672828598.0,16,0.2,-0.2,0.1,1.1,8.9,2.5,-5.9,17.8,7.300000000000001
1698672828616.0,16,0.0,-0.30000000000000004,-0.2,0.9,8.8,2.3000000000000003,-7.0,16.700000000000003,5.300000000000001
1698672828632.0,16,0.1,-0.30000000000000004,-0.30000000000000004,0.9,8.8,2.2,-6.8,14.500000000000002,4.5
1698672828648.0,16,0.2,-0.30000000000000004,-0.6000000000000001,1.0,8.8,1.9000000000000001,-7.500000000000001,13.3,3.4
1698672828665.0,16,0.30000000000000004,-0.1,-0.7000000000000001,1.2000000000000002,9.0,1.8,-7.400000000000001,13.700000000000001,2.9
1698672828682.0,16,0.30000000000000004,0.0,-0.7000000000000001,1.2000000000000002,9.0,1.8,-6.4,13.4,2.6
1698672828698.0,16,0.2,-0.2,-0.8,1.1,8.9,1.7000000000000002,-2.1,11.9,2.7
1698672828715.0,16,0.1,-0.30000000000000004,-1.0,1.0,8.700000000000001,1.5,0.5,11.5,3.4
1698672828732.0,16,0.2,-0.6000000000000001,-1.2000000000000002,1.0,8.5,1.4000000000000001,3.4,12.3,3.8
1698672828748.0,16,0.4,-0.30000000000000004,-1.2000000000000002,1.2000000000000002,8.700000000000001,1.3,5.9,14.200000000000001,2.3000000000000003
1698672828766.0,16,0.5,0.30000000000000004,-0.9,1.3,9.3,1.6,9.5,11.4,1.3
1698672828782.0,16,0.5,0.4,-0.8,1.3,9.5,1.7000000000000002,12.6,8.3,1.2000000000000002
1698672828799.0,16,0.30000000000000004,0.30000000000000004,-0.7000000000000001,1.2000000000000002,9.4,1.7000000000000002,16.5,7.300000000000001,-0.2
1698672828816.0,16,0.2,0.1,-0.8,1.0,9.3,1.6,16.400000000000002,8.700000000000001,-1.3
1698672828832.0,16,0.2,0.0,-0.9,1.0,9.1,1.5,13.3,13.4,-2.6
1698672828849.0,16,0.4,0.2,-0.9,1.2000000000000002,9.3,1.4000000000000001,5.7,21.1,-3.2
1698672828865.0,16,0.6000000000000001,0.6000000000000001,-0.9,1.4000000000000001,9.8,1.4000000000000001,-0.9,20.8,-1.6
1698672828882.0,16,0.6000000000000001,0.7000000000000001,-0.8,1.4000000000000001,9.9,1.5,-3.2,17.3,0.2
1698672828899.0,16,0.5,0.7000000000000001,-0.7000000000000001,1.3,9.8,1.6,-6.3,13.4,2.9
1698672828915.0,16,0.5,0.5,-0.7000000000000001,1.3,9.600000000000001,1.6,-8.3,20.5,1.8
1698672828932.0,16,0.5,0.4,-0.8,1.3,9.5,1.5,-9.200000000000001,24.000000000000004,0.7
1698672828948.0,16,0.6000000000000001,0.4,-0.9,1.4000000000000001,9.5,1.5,-12.8,28.0,1.2000000000000002
1698672828965.0,16,0.6000000000000001,0.6000000000000001,-0.7000000000000001,1.3,9.700000000000001,1.8,-14.3,22.1,4.9
1698672828982.0,16,0.6000000000000001,0.6000000000000001,-0.5,1.4000000000000001,9.700000000000001,1.9000000000000001,-13.8,13.100000000000001,7.400000000000001
1698672828999.0,16,0.4,0.4,-0.2,1.2000000000000002,9.5,2.3000000000000003,-11.8,5.8,13.5
1698672829015.0,16,0.0,0.30000000000000004,-0.4,0.9,9.4,2.1,-11.8,13.4,16.900000000000002
1698672829032.0,16,-0.1,0.4,-0.4,0.7000000000000001,9.4,2.1,-13.8,14.3,15.000000000000002
1698672829048.0,16,-0.1,0.5,-0.30000000000000004,0.7000000000000001,9.600000000000001,2.3000000000000003,-17.5,9.0,8.5
1698672829065.0,16,-0.2,1.1,0.1,0.7000000000000001,10.100000000000001,2.8000000000000003,-21.6,5.6,7.500000000000001
1698672829081.0,16,-0.2,1.3,0.5,0.7000000000000001,10.4,3.2,-21.400000000000002,3.1,9.200000000000001
1698672829099.0,16,0.0,1.5,0.7000000000000001,1.0,10.5,3.5,-14.3,-8.700000000000001,12.200000000000001
1698672829115.0,16,0.5,1.2000000000000002,0.9,1.5,10.200000000000001,3.7,-9.1,-16.3,12.6
1698672829131.0,16,0.5,0.8,1.0,1.5,9.5,3.8000000000000003,-5.8,-2.6,3.2
1698672829150.0,16,0.4,0.2,0.9,1.4000000000000001,9.200000000000001,3.7,-4.7,5.0,-3.1
1698672829165.0,16,0.2,-0.30000000000000004,0.6000000000000001,1.2000000000000002,8.8,3.5,-3.8,11.9,-8.799999999999999
1698672829182.0,16,-0.1,-0.30000000000000004,0.5,0.8,8.8,3.3000000000000003,-4.2,16.1,-3.7000000000000006
1698672829198.0,16,-0.30000000000000004,-0.1,0.4,0.7000000000000001,8.9,3.3000000000000003,-2.6,15.5,-0.30000000000000004
1698672829215.0,16,-0.5,-0.2,0.5,0.4,8.8,3.4000000000000004,5.1,9.8,2.3000000000000003
1698672829232.0,16,-0.6000000000000001,-0.30000000000000004,0.7000000000000001,0.4,8.700000000000001,3.6,10.5,6.8,1.8
1698672829248.0,16,-0.6000000000000001,-0.8,0.9,0.30000000000000004,8.200000000000001,3.7,20.0,3.4,-2.3000000000000003
1698672829265.0,16,-0.7000000000000001,-1.2000000000000002,1.2000000000000002,0.2,7.800000000000001,4.0,26.1,0.0,-6.000000000000001
1698672829282.0,16,-1.0,-1.5,1.7000000000000002,-0.1,7.5,4.3,25.0,1.2000000000000002,-7.300000000000001
1698672829299.0,16,-1.1,-1.6,1.6,-0.2,7.5,4.3,20.5,5.4,-7.500000000000001
1698672829315.0,16,-0.8,-1.3,1.3,0.0,7.7,4.0,7.6,16.400000000000002,-8.200000000000001
1698672829333.0,16,-0.7000000000000001,-1.1,1.3,0.1,8.0,3.9000000000000004,3.4,18.6,-7.400000000000001
1698672829348.0,16,-0.5,-0.5,1.1,0.30000000000000004,8.5,3.7,2.6,15.299999999999999,-2.9
1698672829365.0,16,-0.4,-0.2,0.7000000000000001,0.30000000000000004,8.9,3.4000000000000004,6.7,11.3,3.3000000000000003
1698672829382.0,16,-0.6000000000000001,-0.2,0.6000000000000001,0.2,8.9,3.2,10.600000000000001,2.9,6.000000000000001
1698672829399.0,16,-0.7000000000000001,-0.1,0.7000000000000001,0.1,9.0,3.3000000000000003,12.9,-0.6000000000000001,5.300000000000001
1698672829415.0,16,-0.8,0.1,0.7000000000000001,-0.1,9.200000000000001,3.3000000000000003,16.700000000000003,-0.1,-0.4
1698672829432.0,16,-0.8,-0.2,0.5,-0.1,8.9,3.0,16.2,2.6,-7.300000000000001
1698672829449.0,16,-0.8,-0.4,0.5,0.0,8.700000000000001,3.0,14.800000000000002,2.3000000000000003,-9.4
1698672829465.0,16,-0.6000000000000001,-0.5,0.5,0.2,8.5,3.0,11.4,2.9,-7.6
1698672829481.0,16,-0.2,-0.5,0.8,0.4,8.6,3.2,9.4,4.1000000000000005,-4.6000000000000005
1698672829498.0,16,-0.2,-0.4,0.8,0.5,8.700000000000001,3.2,9.700000000000001,4.800000000000001,-3.4
1698672829530.0,16,-0.2,0.0,0.8,0.4,9.200000000000001,3.2,10.3,13.4,-1.5000000000000002
1698672829548.0,16,-0.30000000000000004,0.2,0.8,0.30000000000000004,9.4,3.2,10.0,16.3,-2.1999999999999997
1698672829565.0,16,-0.30000000000000004,0.30000000000000004,0.7000000000000001,0.30000000000000004,9.5,3.0,7.6,19.9,-5.1
1698672829582.0,16,-0.30000000000000004,0.2,0.6000000000000001,0.2,9.200000000000001,2.8000000000000003,5.9,20.2,-6.1000000000000005
1698672829598.0,16,-0.30000000000000004,0.0,0.30000000000000004,0.2,9.200000000000001,2.7,0.2,20.8,-4.800000000000001
1698672829615.0,16,-0.4,0.30000000000000004,0.30000000000000004,0.2,9.3,2.6,-2.6,21.700000000000003,-2.7
1698672829634.0,16,-0.4,0.5,0.2,0.1,9.700000000000001,2.6,-4.7,19.200000000000003,0.2
1698672829648.0,16,-0.4,0.2,0.2,0.0,9.5,2.6,-3.5,15.000000000000002,2.0
1698672829665.0,16,-0.5,-0.1,0.30000000000000004,0.0,9.1,2.7,-1.3,16.5,0.2
1698672829682.0,16,-0.2,-0.5,0.0,0.30000000000000004,8.6,2.4000000000000004,-1.0999999999999999,19.8,-4.0
1698672829699.0,16,0.0,-0.5,0.0,0.4,8.700000000000001,2.4000000000000004,-2.1,20.5,-4.1000000000000005
1698672829715.0,16,0.0,-0.2,0.0,0.4,9.0,2.5,-4.800000000000001,23.0,0.6000000000000001
1698672829732.0,16,-0.30000000000000004,0.2,-0.1,0.1,9.4,2.4000000000000004,-6.9,26.1,6.000000000000001
1698672829749.0,16,-0.4,0.30000000000000004,-0.1,-0.1,9.4,2.4000000000000004,-8.1,23.6,7.400000000000001
1698672829765.0,16,-0.5,0.2,0.0,-0.1,9.4,2.4000000000000004,-8.1,23.6,7.400000000000001
1698672829782.0,16,-0.4,0.2,0.0,0.0,9.3,2.5,-6.6000000000000005,21.0,7.0
1698672829798.0,16,-0.2,0.2,-0.2,0.1,9.4,2.4000000000000004,-8.200000000000001,24.5,4.800000000000001
1698672829815.0,16,-0.2,0.30000000000000004,-0.1,0.2,9.4,2.5,-9.3,26.0,3.9
1698672829832.0,16,-0.30000000000000004,0.30000000000000004,0.0,0.1,9.4,2.5,-9.8,26.6,3.8
1698672829848.0,16,-0.2,0.2,-0.1,0.1,9.3,2.5,-10.1,26.400000000000002,4.7
1698672829865.0,16,-0.2,-0.2,-0.30000000000000004,0.2,8.9,2.3000000000000003,-11.9,26.700000000000003,8.1
1698672829882.0,16,-0.2,-0.2,-0.5,0.1,8.9,2.1,-14.600000000000001,29.400000000000002,10.0
1698672829898.0,16,-0.30000000000000004,-0.1,-0.7000000000000001,0.0,9.200000000000001,1.9000000000000001,-14.800000000000002,26.3,9.600000000000001
1698672829915.0,16,-0.4,0.30000000000000004,-0.9,0.0,9.3,1.8,-14.100000000000001,22.6,9.600000000000001
1698672829932.0,16,-0.6000000000000001,0.4,-0.8,-0.30000000000000004,9.5,2.0,-11.2,16.1,9.8
1698672829949.0,16,-0.7000000000000001,0.4,-0.30000000000000004,-0.4,9.4,2.5,-3.9,9.0,9.1
1698672829965.0,16,-0.6000000000000001,0.30000000000000004,-0.1,-0.2,9.4,2.7,0.0,7.2,7.6
1698672829982.0,16,-0.1,0.30000000000000004,0.2,0.30000000000000004,9.4,3.0,3.9,8.0,3.9
1698672830000.0,16,0.4,0.4,0.6000000000000001,0.7000000000000001,9.4,3.3000000000000003,1.8,14.600000000000001,2.5
1698672830015.0,16,0.5,0.4,0.6000000000000001,0.9,9.5,3.3000000000000003,-1.3,18.6,2.3000000000000003
1698672830032.0,16,0.5,0.4,0.2,0.9,9.4,3.1,-10.9,24.8,2.8
1698672830048.0,16,0.1,0.1,-0.2,0.4,9.200000000000001,2.7,-21.3,28.900000000000002,5.4
1698672830065.0,16,-0.2,-0.1,-0.4,0.2,8.9,2.5,-24.000000000000004,29.200000000000003,6.7
1698672830081.0,16,-0.6000000000000001,-0.2,-0.8,-0.2,8.8,2.2,-24.200000000000003,24.9,8.5
1698672830098.0,16,-0.6000000000000001,0.0,-0.8,-0.2,9.0,2.3000000000000003,-19.3,18.8,8.9
1698672830115.0,16,-0.6000000000000001,0.1,-0.8,-0.2,9.0,2.3000000000000003,-15.000000000000002,15.6,7.9
1698672830132.0,16,-0.4,0.30000000000000004,-0.4,0.0,9.3,2.7,-4.1000000000000005,15.000000000000002,4.2
1698672830148.0,16,-0.2,0.2,-0.2,0.2,9.1,2.9000000000000004,6.000000000000001,19.500000000000004,-1.0
1698672830165.0,16,0.0,0.0,-0.1,0.30000000000000004,9.0,3.0,9.1,20.2,-0.8
1698672830181.0,16,0.1,-0.1,0.0,0.4,8.9,3.1,10.8,21.1,4.1000000000000005
1698672830198.0,16,0.30000000000000004,0.0,0.2,0.6000000000000001,8.9,3.2,7.0,21.700000000000003,9.600000000000001
1698672830215.0,16,0.30000000000000004,0.1,0.30000000000000004,0.6000000000000001,9.1,3.3000000000000003,4.300000000000001,22.2,12.100000000000001
1698672830232.0,16,0.2,0.4,0.30000000000000004,0.6000000000000001,9.4,3.3000000000000003,-0.2,22.2,16.400000000000002
1698672830248.0,16,0.0,0.5,0.30000000000000004,0.4,9.5,3.4000000000000004,-2.7,22.4,19.500000000000004
1698672830265.0,16,-0.2,0.30000000000000004,0.30000000000000004,0.2,9.3,3.4000000000000004,-2.3000000000000003,21.3,20.900000000000002
1698672830281.0,16,-0.2,0.1,0.4,0.2,9.1,3.4000000000000004,-1.4,19.1,21.400000000000002
1698672830298.0,16,-0.2,-0.2,0.4,0.30000000000000004,8.8,3.5,0.6000000000000001,19.200000000000003,23.6
1698672830315.0,16,-0.1,-0.30000000000000004,0.5,0.4,8.700000000000001,3.5,0.8,21.0,24.9
1698672830332.0,16,0.1,-0.7000000000000001,0.5,0.6000000000000001,8.3,3.6,1.0,18.5,27.6
1698672830348.0,16,0.30000000000000004,-0.9,0.7000000000000001,1.0,8.1,3.7,1.4,18.8,29.800000000000004
1698672830365.0,16,0.4,-0.9,0.7000000000000001,1.1,8.1,3.7,1.7,21.1,30.299999999999997
1698672830381.0,16,0.5,-0.9,0.7000000000000001,1.3,8.1,3.8000000000000003,3.2,25.2,28.900000000000002
1698672830398.0,16,0.5,-0.8,0.8,1.3,8.1,3.9000000000000004,5.6,31.5,25.3
1698672830415.0,16,0.5,-0.8,0.9,1.3,8.1,3.9000000000000004,7.300000000000001,35.199999999999996,23.2
1698672830431.0,16,0.6000000000000001,-0.7000000000000001,1.0,1.5,8.200000000000001,4.0,9.5,42.900000000000006,20.1
1698672830450.0,16,0.9,-0.5,1.0,1.8,8.4,4.1000000000000005,9.8,49.9,19.500000000000004
1698672830465.0,16,1.1,-0.4,0.9,2.0,8.6,4.0,8.200000000000001,57.6,21.900000000000002
1698672830482.0,16,1.1,-0.30000000000000004,0.8,2.0,8.6,3.8000000000000003,7.300000000000001,60.8,23.900000000000002
1698672830498.0,16,1.0,-0.2,0.5,1.9000000000000001,8.700000000000001,3.5,6.6000000000000005,65.60000000000001,26.700000000000003
1698672830516.0,16,1.0,-0.2,0.30000000000000004,1.9000000000000001,8.700000000000001,3.4000000000000004,7.300000000000001,67.2,25.6
1698672830532.0,16,1.1,-0.2,0.5,2.0,8.8,3.5,10.0,65.5,24.3
1698672830548.0,16,1.1,0.2,0.6000000000000001,2.0,9.200000000000001,3.7,13.3,66.1,26.200000000000003
1698672830565.0,16,1.0,0.2,0.7000000000000001,2.0,9.200000000000001,3.7,13.3,68.3,27.2
1698672830581.0,16,0.9,-0.1,0.6000000000000001,1.9000000000000001,8.9,3.6,10.2,73.0,28.6
1698672830598.0,16,0.9,-0.30000000000000004,0.4,2.0,8.6,3.4000000000000004,4.6000000000000005,79.10000000000001,29.400000000000002
1698672830615.0,16,1.0,-0.4,0.30000000000000004,2.0,8.5,3.3000000000000003,2.6,81.0,29.200000000000003
1698672830632.0,16,1.1,-0.5,0.0,2.2,8.4,3.1,0.5,86.4,28.400000000000002
1698672830648.0,16,1.1,-0.30000000000000004,0.1,2.2,8.6,3.2,1.5000000000000002,87.5,28.6
1698672830665.0,16,1.1,-0.2,0.1,2.2,8.700000000000001,3.2,3.3000000000000003,88.10000000000001,30.200000000000003
1698672830681.0,16,1.0,0.1,0.2,2.1,9.0,3.3000000000000003,7.1000000000000005,91.7,35.3
1698672830698.0,16,0.9,0.0,0.0,1.9000000000000001,8.9,3.2,9.8,96.60000000000001,39.8
1698672830715.0,16,0.7000000000000001,-0.2,-0.1,1.8,8.6,3.0,10.3,102.2,40.0
1698672830732.0,16,0.8,-0.30000000000000004,-0.2,1.9000000000000001,8.6,2.9000000000000004,10.0,103.3,39.6
1698672830748.0,16,0.8,-0.4,-0.30000000000000004,1.9000000000000001,8.5,2.8000000000000003,8.9,108.0,39.50000000000001
1698672830765.0,16,0.7000000000000001,-0.4,-0.4,1.8,8.5,2.7,10.0,110.7,39.8
1698672830782.0,16,0.7000000000000001,-0.30000000000000004,-0.5,1.8,8.5,2.6,11.2,111.30000000000001,39.8
1698672830798.0,16,0.6000000000000001,-0.2,-0.6000000000000001,1.7000000000000002,8.700000000000001,2.6,14.900000000000002,110.7,40.5
1698672830815.0,16,0.7000000000000001,-0.30000000000000004,-0.4,1.8,8.6,2.7,19.8,109.4,41.1
1698672830832.0,16,0.6000000000000001,-0.4,-0.30000000000000004,1.8,8.4,2.8000000000000003,22.5,109.4,40.6
1698672830848.0,16,0.7000000000000001,-0.5,-0.4,1.8,8.4,2.7,27.1,113.7,40.0
1698672830865.0,16,0.8,-0.5,-0.4,2.0,8.4,2.6,27.6,121.80000000000001,39.9
1698672830882.0,16,0.8,-0.4,-0.30000000000000004,2.0,8.5,2.7,28.200000000000003,123.10000000000001,39.9
1698672830898.0,16,1.2000000000000002,-0.1,-0.30000000000000004,2.4000000000000004,8.700000000000001,2.6,30.4,124.7,39.2
1698672830915.0,16,1.3,0.0,-0.4,2.5,8.8,2.5,30.5,123.9,38.1
1698672830931.0,16,1.2000000000000002,-0.1,-0.4,2.4000000000000004,8.8,2.4000000000000004,28.8,120.3,40.3
1698672830948.0,16,0.7000000000000001,0.0,-0.5,2.0,8.9,2.3000000000000003,25.8,126.1,44.2
1698672830966.0,16,0.2,0.0,-0.5,1.4000000000000001,8.8,2.3000000000000003,27.1,128.4,37.5
1698672830981.0,16,0.1,-0.1,-0.7000000000000001,1.4000000000000001,8.8,2.1,28.6,126.5,33.2
1698672830998.0,16,0.1,-0.2,-0.6000000000000001,1.3,8.700000000000001,2.2,29.000000000000004,125.00000000000001,32.6
1698672831015.0,16,0.0,-0.2,-0.5,1.1,8.8,2.6,31.099999999999998,117.4,33.5
1698672831031.0,16,-0.30000000000000004,0.0,0.0,0.9,9.0,2.7,33.6,114.00000000000001,34.6
1698672831049.0,16,-0.6000000000000001,0.5,0.2,0.6000000000000001,9.4,2.9000000000000004,37.1,108.0,36.9
1698672831066.0,16,-1.1,0.7000000000000001,0.4,0.1,9.600000000000001,2.9000000000000004,37.300000000000004,97.10000000000001,36.5
1698672831081.0,16,-1.3,0.7000000000000001,0.4,-0.1,9.700000000000001,2.9000000000000004,35.5,90.2,35.1
1698672831098.0,16,-1.7000000000000002,0.8,0.5,-0.4,9.8,3.0,28.0,78.80000000000001,30.200000000000003
1698672831115.0,16,-1.7000000000000002,0.9,1.0,-0.4,10.0,3.4000000000000004,19.9,71.5,22.8
1698672831132.0,16,-1.6,1.0,1.1,-0.4,10.0,3.5,16.900000000000002,73.10000000000001,19.200000000000003
1698672831148.0,16,-1.1,0.9,1.1,0.1,9.9,3.5,11.4,79.10000000000001,11.5
1698672831165.0,16,-0.6000000000000001,0.5,1.0,0.6000000000000001,9.600000000000001,3.5,7.500000000000001,77.0,5.1
1698672831182.0,16,-0.4,0.4,1.0,0.7000000000000001,9.4,3.5,5.4,78.3,5.0
1698672831198.0,16,-0.2,0.2,0.7000000000000001,0.9,9.200000000000001,3.2,1.5000000000000002,81.9,7.9
1698672831215.0,16,-0.2,-0.1,0.5,0.8,9.0,3.0,-2.5,77.7,10.9
1698672831232.0,16,-0.30000000000000004,0.30000000000000004,0.4,0.7000000000000001,9.3,3.0,-4.3999999999999995,84.5,15.5
1698672831248.0,16,-0.5,0.5,0.30000000000000004,0.5,9.5,3.0,-4.6000000000000005,90.5,16.700000000000003
1698672831265.0,16,-1.0,0.6000000000000001,0.0,0.0,9.600000000000001,2.6,-3.3000000000000003,94.7,18.3
1698672831281.0,16,-1.4000000000000001,0.4,-0.4,-0.5,9.5,2.3000000000000003,-3.6,93.80000000000001,18.5
1698672831298.0,16,-1.5,0.30000000000000004,-0.5,-0.6000000000000001,9.4,2.2,-4.300000000000001,92.50000000000001,18.400000000000002
1698672831315.0,16,-1.5,0.2,-0.7000000000000001,-0.6000000000000001,9.200000000000001,2.0,-6.000000000000001,87.80000000000001,18.1
1698672831332.0,16,-1.5,0.1,-0.7000000000000001,-0.6000000000000001,9.1,2.1,-6.3,86.9,17.7
1698672831348.0,16,-1.3,0.0,-0.6000000000000001,-0.5,9.0,2.2,-3.6,88.2,15.2
1698672831365.0,16,-1.1,-0.1,-0.5,-0.30000000000000004,8.9,2.3000000000000003,3.2,91.30000000000001,9.8
1698672831381.0,16,-0.8,-0.2,-0.5,-0.1,8.8,2.3000000000000003,11.000000000000002,90.30000000000001,9.3
1698672831398.0,16,-0.4,-0.4,-0.5,0.30000000000000004,8.6,2.3000000000000003,13.4,90.8,11.5
1698672831415.0,16,-0.4,-0.4,-0.6000000000000001,0.2,8.6,2.2,13.8,91.8,18.900000000000002
1698672831432.0,16,-0.5,-0.30000000000000004,-0.6000000000000001,0.1,8.700000000000001,2.2,12.5,91.7,22.5
1698672831448.0,16,-0.7000000000000001,-0.1,-0.4,-0.1,8.9,2.3000000000000003,9.600000000000001,88.6,27.2
1698672831465.0,16,-0.6000000000000001,-0.1,-0.30000000000000004,-0.1,8.9,2.4000000000000004,8.1,85.3,27.8
1698672831482.0,16,-0.30000000000000004,-0.30000000000000004,-0.30000000000000004,0.30000000000000004,8.700000000000001,2.4000000000000004,7.500000000000001,86.4,29.400000000000002
1698672831498.0,16,-0.30000000000000004,-0.6000000000000001,-0.5,0.30000000000000004,8.4,2.2,5.8,88.5,33.800000000000004
1698672831515.0,16,-0.5,-0.6000000000000001,-0.6000000000000001,0.1,8.4,2.1,4.800000000000001,90.7,35.6
1698672831532.0,16,-0.7000000000000001,-0.30000000000000004,-0.7000000000000001,-0.2,9.1,2.0,5.1,89.10000000000001,35.1
1698672831549.0,16,-1.0,0.5,-0.7000000000000001,-0.4,9.5,2.0,6.7,83.7,34.0
1698672831565.0,16,-1.1,0.9,-0.30000000000000004,-0.5,9.9,2.4000000000000004,11.4,77.0,32.7
1698672831581.0,16,-1.2000000000000002,0.9,-0.1,-0.5,9.8,2.6,19.1,79.6,32.800000000000004
1698672831598.0,16,-1.1,0.5,0.0,-0.4,9.5,2.6,22.1,79.5,33.5
1698672831615.0,16,-1.0,0.0,0.0,-0.30000000000000004,9.1,2.6,22.7,79.2,33.900000000000006
1698672831631.0,16,-1.1,0.1,0.1,-0.30000000000000004,9.1,2.6,20.3,81.30000000000001,33.300000000000004
1698672831648.0,16,-1.3,0.6000000000000001,0.1,-0.6000000000000001,9.700000000000001,2.7,13.8,86.0,31.099999999999998
1698672831665.0,16,-1.4000000000000001,0.8,0.30000000000000004,-0.6000000000000001,9.9,2.8000000000000003,7.6,86.0,27.900000000000002
1698672831682.0,16,-1.4000000000000001,0.7000000000000001,0.4,-0.7000000000000001,9.700000000000001,2.9000000000000004,5.500000000000001,86.60000000000001,25.900000000000002
1698672831699.0,16,-1.3,0.30000000000000004,0.30000000000000004,-0.5,9.3,2.9000000000000004,2.7,90.0,24.5
1698672831715.0,16,-1.3,0.0,0.0,-0.5,9.1,2.6,0.1,87.80000000000001,23.8
1698672831731.0,16,-1.3,0.1,-0.2,-0.6000000000000001,9.200000000000001,2.4000000000000004,-3.3000000000000003,79.8,26.700000000000003
1698672831748.0,16,-1.7000000000000002,0.30000000000000004,-0.4,-0.9,9.4,2.3000000000000003,-5.2,75.3,28.1
1698672831765.0,16,-1.9000000000000001,0.30000000000000004,-0.4,-1.1,9.4,2.3000000000000003,-5.2,72.9,26.1
1698672831781.0,16,-2.0,0.30000000000000004,-0.2,-1.2000000000000002,9.3,2.5,-2.4000000000000004,65.3,21.5
1698672831798.0,16,-1.9000000000000001,0.2,-0.1,-1.0,9.200000000000001,2.6,-0.1,61.1,20.0
1698672831815.0,16,-1.5,0.1,0.0,-0.8,9.200000000000001,2.7,2.5,52.300000000000004,19.0
1698672831832.0,16,-1.4000000000000001,0.1,0.1,-0.7000000000000001,9.1,2.8000000000000003,2.4000000000000004,48.400000000000006,19.3
1698672831848.0,16,-1.2000000000000002,-0.1,0.1,-0.5,9.0,2.8000000000000003,0.9,43.900000000000006,21.200000000000003
1698672831865.0,16,-1.3,-0.1,-0.2,-0.5,9.0,2.6,-1.5000000000000002,41.300000000000004,22.000000000000004
1698672831882.0,16,-1.3,-0.1,-0.30000000000000004,-0.5,8.9,2.4000000000000004,-2.0,35.1,19.8
1698672831898.0,16,-1.2000000000000002,-0.1,-0.2,-0.5,8.9,2.5,-1.7,32.7,18.8
1698672831915.0,16,-1.1,0.30000000000000004,0.0,-0.30000000000000004,9.3,2.7,1.2000000000000002,28.0,17.3
1698672831932.0,16,-1.0,0.4,0.1,-0.2,9.4,2.8000000000000003,4.2,25.400000000000002,16.700000000000003
1698672831948.0,16,-1.0,0.30000000000000004,0.2,-0.2,9.3,3.0,5.9,22.5,17.8
1698672831965.0,16,-1.1,0.2,0.2,-0.2,9.200000000000001,2.9000000000000004,8.3,20.5,15.399999999999999
1698672831982.0,16,-0.9,0.1,0.30000000000000004,0.0,9.1,2.9000000000000004,7.1000000000000005,17.200000000000003,11.8
1698672831998.0,16,-0.8,0.0,0.2,0.0,9.1,2.8000000000000003,5.9,16.400000000000002,11.4
1698672832015.0,16,-0.9,0.1,0.1,0.0,9.1,2.7,3.1,15.2,11.000000000000002
1698672832032.0,16,-1.2000000000000002,0.1,-0.1,-0.30000000000000004,9.1,2.6,2.8,12.9,10.0
1698672832048.0,16,-1.3,-0.1,-0.2,-0.4,9.0,2.5,4.0,8.4,8.600000000000001
1698672832065.0,16,-1.2000000000000002,-0.2,-0.1,-0.30000000000000004,8.8,2.5,4.800000000000001,5.6,8.200000000000001
1698672832081.0,16,-0.9,-0.30000000000000004,0.1,0.0,8.700000000000001,2.8000000000000003,7.300000000000001,1.2000000000000002,7.400000000000001
1698672832098.0,16,-0.7000000000000001,-0.30000000000000004,0.30000000000000004,0.30000000000000004,8.700000000000001,2.9000000000000004,8.9,1.4,7.400000000000001
1698672832115.0,16,-0.30000000000000004,0.0,0.5,0.7000000000000001,9.1,3.1,11.4,5.300000000000001,8.5
1698672832133.0,16,-0.1,0.0,0.4,0.9,9.1,3.0,11.8,8.4,9.700000000000001
1698672832148.0,16,-0.1,-0.1,0.30000000000000004,0.8,8.8,2.7,10.8,9.3,11.000000000000002
1698672832165.0,16,-0.30000000000000004,-0.30000000000000004,0.1,0.7000000000000001,8.700000000000001,2.7,7.0,8.1,14.800000000000002
1698672832181.0,16,-0.6000000000000001,-0.30000000000000004,0.2,0.4,8.8,2.7,5.1,4.1000000000000005,16.1
1698672832198.0,16,-0.6000000000000001,-0.2,0.30000000000000004,0.5,9.0,2.9000000000000004,6.1000000000000005,-0.8,14.800000000000002
1698672832215.0,16,-0.5,0.0,0.5,0.6000000000000001,9.0,3.0,7.300000000000001,-1.0,13.700000000000001
1698672832232.0,16,-0.30000000000000004,-0.1,0.6000000000000001,0.8,8.9,3.1,9.5,2.0,12.5
1698672832248.0,16,-0.1,-0.4,0.6000000000000001,1.0,8.700000000000001,3.0,10.2,4.800000000000001,13.200000000000001
1698672832265.0,16,-0.1,-0.7000000000000001,0.5,1.1,8.4,2.9000000000000004,9.4,7.6,14.0
1698672832282.0,16,-0.1,-0.8,0.4,1.2000000000000002,8.3,2.8000000000000003,9.1,8.700000000000001,13.6
1698672832298.0,16,0.0,-0.7000000000000001,0.4,1.3,8.3,2.8000000000000003,8.9,10.1,12.700000000000001
1698672832315.0,16,0.1,-0.5,0.5,1.4000000000000001,8.5,2.9000000000000004,10.9,12.700000000000001,11.2
1698672832331.0,16,0.1,-0.1,0.7000000000000001,1.4000000000000001,9.0,3.0,15.7,9.600000000000001,11.4
1698672832348.0,16,0.1,0.1,0.6000000000000001,1.5,9.1,2.9000000000000004,18.6,8.0,13.0
1698672832365.0,16,0.1,0.0,0.5,1.5,9.0,2.8000000000000003,18.3,9.4,13.100000000000001
1698672832382.0,16,0.2,0.1,0.2,1.6,9.200000000000001,2.4000000000000004,15.2,9.3,11.000000000000002
1698672832398.0,16,0.30000000000000004,0.5,0.1,1.8,9.5,2.3000000000000003,9.200000000000001,9.1,6.8
1698672832415.0,16,0.4,0.5,0.30000000000000004,1.8,9.600000000000001,2.5,7.400000000000001,11.9,4.1000000000000005
1698672832432.0,16,0.6000000000000001,0.5,0.5,2.0,9.600000000000001,2.7,8.5,13.700000000000001,-0.5
1698672832448.0,16,0.8,0.4,0.30000000000000004,2.2,9.5,2.5,11.3,17.400000000000002,-2.0
1698672832465.0,16,0.9,0.30000000000000004,0.2,2.3000000000000003,9.4,2.3000000000000003,11.1,20.6,-1.0
1698672832481.0,16,0.9,0.0,0.1,2.3000000000000003,9.1,2.2,9.200000000000001,22.5,4.6000000000000005
1698672832498.0,16,0.7000000000000001,-0.1,-0.1,2.1,9.0,2.0,4.800000000000001,18.900000000000002,13.100000000000001
1698672832515.0,16,0.6000000000000001,0.0,0.0,2.0,9.1,2.1,2.1999999999999997,16.700000000000003,17.0
1698672832532.0,16,0.2,0.2,0.1,1.7000000000000002,9.3,2.2,-1.0,20.3,17.200000000000003
1698672832548.0,16,0.1,0.0,0.0,1.6,9.1,2.1,-1.0,20.8,13.700000000000001
1698672832565.0,16,0.1,-0.2,0.0,1.6,8.9,2.1,-1.0,22.2,13.200000000000001
1698672832582.0,16,0.0,-0.30000000000000004,-0.2,1.6,8.8,2.0,-1.4,26.500000000000004,13.9
1698672832598.0,16,0.0,-0.30000000000000004,-0.30000000000000004,1.6,8.8,1.9000000000000001,-1.4,26.3,14.3
1698672832615.0,16,-0.1,-0.2,-0.30000000000000004,1.5,8.9,1.9000000000000001,-1.0,23.5,14.800000000000002
1698672832632.0,16,-0.2,0.0,-0.4,1.4000000000000001,9.0,1.8,0.0,23.2,14.200000000000001
1698672832648.0,16,-0.30000000000000004,-0.1,-0.4,1.4000000000000001,9.0,1.8,1.0999999999999999,26.0,11.2
1698672832665.0,16,-0.2,-0.1,-0.5,1.4000000000000001,9.0,1.7000000000000002,1.7,26.6,9.4
1698672832681.0,16,-0.1,0.0,-0.6000000000000001,1.5,9.0,1.6,2.0,27.7,6.5
1698672832698.0,16,-0.30000000000000004,-0.1,-0.7000000000000001,1.4000000000000001,9.0,1.5,2.0,26.6,6.3
1698672832715.0,16,-0.4,-0.1,-0.8,1.2000000000000002,8.9,1.4000000000000001,2.0,24.7,6.8
1698672832732.0,16,-0.5,-0.2,-0.8,1.2000000000000002,8.8,1.4000000000000001,1.8,21.400000000000002,6.000000000000001
1698672832748.0,16,-0.30000000000000004,0.0,-0.8,1.3,9.0,1.5,2.8,21.700000000000003,3.3000000000000003
1698672832765.0,16,-0.2,0.1,-0.8,1.4000000000000001,9.1,1.4000000000000001,3.9,22.5,2.1
1698672832781.0,16,0.0,0.2,-0.8,1.6,9.3,1.4000000000000001,5.7,23.8,0.5
1698672832799.0,16,-0.1,0.2,-0.6000000000000001,1.5,9.3,1.6,6.4,22.900000000000002,0.1
1698672832815.0,16,-0.1,0.1,-0.5,1.4000000000000001,9.200000000000001,1.6,8.4,18.400000000000002,0.1
1698672832831.0,16,-0.2,0.1,-0.5,1.4000000000000001,9.1,1.7000000000000002,8.600000000000001,17.8,0.2
1698672832849.0,16,-0.1,0.0,-0.4,1.4000000000000001,9.0,1.8,7.400000000000001,18.900000000000002,-0.4
1698672832865.0,16,0.0,0.1,-0.30000000000000004,1.6,9.200000000000001,1.8,4.5,21.1,-1.3
1698672832881.0,16,0.1,0.2,-0.30000000000000004,1.6,9.3,1.8,2.3000000000000003,22.5,-1.5000000000000002
1698672832898.0,16,0.2,0.2,-0.4,1.7000000000000002,9.3,1.7000000000000002,-2.4000000000000004,23.2,-2.7
1698672832914.0,16,0.2,0.2,-0.5,1.7000000000000002,9.200000000000001,1.7000000000000002,-6.8,23.900000000000002,-2.6
1698672832931.0,16,0.30000000000000004,0.2,-0.5,1.8,9.3,1.7000000000000002,-8.600000000000001,27.2,-2.3000000000000003
1698672832948.0,16,0.5,0.4,-0.8,2.0,9.5,1.5,-11.8,34.400000000000006,-1.5000000000000002
1698672832965.0,16,0.5,0.5,-0.7000000000000001,1.9000000000000001,9.600000000000001,1.6,-14.100000000000001,37.4,0.6000000000000001
1698672832981.0,16,0.4,0.7000000000000001,-0.6000000000000001,1.8,9.700000000000001,1.7000000000000002,-12.9,32.5,2.3000000000000003
1698672832998.0,16,0.2,1.1,-0.4,1.6,10.100000000000001,1.9000000000000001,-8.1,15.7,7.1000000000000005
1698672833015.0,16,0.0,1.2000000000000002,-0.2,1.4000000000000001,10.200000000000001,2.2,-6.1000000000000005,13.0,8.700000000000001
1698672833031.0,16,-0.1,1.0,-0.1,1.3,10.100000000000001,2.3000000000000003,-3.4,15.9,9.200000000000001
1698672833048.0,16,0.0,0.7000000000000001,0.0,1.4000000000000001,9.700000000000001,2.4000000000000004,-4.5,18.900000000000002,5.7
1698672833064.0,16,0.2,0.7000000000000001,-0.4,1.7000000000000002,9.700000000000001,2.0,-12.200000000000001,21.1,2.1
1698672833081.0,16,0.30000000000000004,0.8,-0.5,1.7000000000000002,9.8,2.0,-18.400000000000002,21.5,1.0
1698672833098.0,16,0.30000000000000004,0.8,-0.5,1.7000000000000002,9.8,2.1,-29.500000000000004,25.1,-0.8
1698672833115.0,16,0.2,0.7000000000000001,-0.2,1.5,9.700000000000001,2.5,-31.0,27.0,-0.4
1698672833132.0,16,0.2,0.7000000000000001,-0.1,1.6,9.600000000000001,2.7,-27.6,24.1,1.7
1698672833148.0,16,-0.1,0.5,0.30000000000000004,1.3,9.5,3.1,-13.700000000000001,8.700000000000001,9.600000000000001
1698672833165.0,16,-0.4,0.6000000000000001,0.4,0.7000000000000001,9.5,3.1,1.2000000000000002,-3.0000000000000004,19.400000000000002
1698672833181.0,16,-1.2000000000000002,0.5,0.4,0.30000000000000004,9.4,3.2,6.2,-4.3999999999999995,19.700000000000003
1698672833198.0,16,-1.6,-0.30000000000000004,0.5,-0.1,8.700000000000001,3.2,12.3,-5.500000000000001,8.9
1698672833215.0,16,-1.4000000000000001,-0.6000000000000001,0.6000000000000001,0.1,8.4,3.3000000000000003,10.600000000000001,-10.1,-4.6000000000000005
1698672833232.0,16,-1.1,-0.5,0.8,0.4,8.4,3.5,6.5,-15.399999999999999,-7.300000000000001
1698672833248.0,16,-0.9,-0.4,1.3,0.6000000000000001,8.6,4.0,-1.5000000000000002,-10.5,-5.7
1698672833265.0,16,-1.0,-0.30000000000000004,1.2000000000000002,0.4,8.700000000000001,3.9000000000000004,-2.4000000000000004,-8.4,-7.699999999999999
1698672833281.0,16,-0.9,-0.7000000000000001,1.2000000000000002,0.5,8.3,4.0,3.3000000000000003,-16.5,-11.700000000000001
1698672833298.0,16,-0.9,-0.9,1.4000000000000001,0.4,8.0,4.1000000000000005,7.1000000000000005,-18.7,-12.6
1698672833315.0,16,-1.2000000000000002,-1.0,1.7000000000000002,0.2,8.0,4.4,15.100000000000001,-16.6,-11.000000000000002
1698672833332.0,16,-1.3,-1.1,1.7000000000000002,0.1,7.9,4.4,18.0,-14.0,-8.600000000000001
1698672833348.0,16,-1.2000000000000002,-0.9,1.6,0.1,8.1,4.2,17.200000000000003,-10.2,-6.3
1698672833365.0,16,-1.0,-0.6000000000000001,1.8,0.30000000000000004,8.4,4.3,11.000000000000002,-8.700000000000001,-7.8
1698672833381.0,16,-0.9,-0.5,1.8,0.4,8.5,4.4,8.4,-7.6,-8.1
1698672833398.0,16,-0.8,-0.30000000000000004,1.7000000000000002,0.4,8.700000000000001,4.3,5.0,-6.8,-7.0
1698672833415.0,16,-1.0,-0.4,1.5,0.2,8.6,4.0,2.6,-6.5,-6.7
1698672833432.0,16,-1.2000000000000002,-0.5,1.3,0.0,8.4,3.7,2.9,-3.9,-6.4
1698672833448.0,16,-1.3,-0.7000000000000001,0.9,-0.1,8.3,3.4000000000000004,3.2,-3.3000000000000003,-7.0
1698672833465.0,16,-1.1,-0.6000000000000001,0.7000000000000001,0.1,8.4,3.3000000000000003,4.5,-3.9,-8.9
1698672833482.0,16,-1.0,-0.30000000000000004,0.7000000000000001,0.2,8.700000000000001,3.2,5.500000000000001,-3.6,-10.0
1698672833498.0,16,-0.8,0.1,0.7000000000000001,0.30000000000000004,9.1,3.2,8.9,-4.3999999999999995,-10.600000000000001
1698672833515.0,16,-0.6000000000000001,0.2,0.5,0.4,9.3,3.0,12.000000000000002,-6.2,-9.5
1698672833532.0,16,-0.9,0.0,0.6000000000000001,0.2,9.1,3.1,13.6,-7.400000000000001,-7.6
1698672833548.0,16,-1.0,0.0,0.5,0.1,9.1,2.9000000000000004,13.5,-7.400000000000001,-7.500000000000001
1698672833565.0,16,-0.8,0.0,0.5,0.2,9.1,2.9000000000000004,9.8,-10.2,-9.9
1698672833581.0,16,-0.7000000000000001,0.0,0.6000000000000001,0.30000000000000004,9.1,3.0,7.6,-9.4,-12.6
1698672833598.0,16,-0.5,0.0,0.5,0.4,9.1,2.9000000000000004,4.5,-2.5,-18.1
1698672833615.0,16,-0.4,-0.1,0.2,0.5,9.0,2.6,0.7,2.3000000000000003,-18.900000000000002
1698672833631.0,16,-0.4,-0.2,0.1,0.4,8.9,2.4000000000000004,-1.6,2.3000000000000003,-17.8
1698672833648.0,16,-0.6000000000000001,-0.30000000000000004,-0.1,0.2,8.8,2.2,-5.2,3.0000000000000004,-14.500000000000002
1698672833665.0,16,-0.7000000000000001,-0.1,-0.2,0.0,9.1,2.2,-6.000000000000001,0.4,-11.1
1698672833681.0,16,-0.6000000000000001,0.2,-0.5,0.1,9.3,1.9000000000000001,-5.8,-3.5,-8.5
1698672833698.0,16,-0.6000000000000001,0.2,-0.5,0.1,9.3,1.9000000000000001,-6.3,-4.5,-8.0
1698672833715.0,16,-0.5,0.0,-0.6000000000000001,0.2,9.1,1.8,-7.1000000000000005,-5.500000000000001,-9.3
1698672833732.0,16,-0.2,-0.5,-0.8,0.4,8.6,1.7000000000000002,-7.300000000000001,-8.1,-11.3
1698672833748.0,16,-0.2,-0.7000000000000001,-0.8,0.5,8.4,1.6,-7.500000000000001,-9.3,-10.1
1698672833765.0,16,-0.2,-0.8,-0.9,0.4,8.3,1.6,-7.400000000000001,-9.200000000000001,-5.9
1698672833781.0,16,-0.5,-0.7000000000000001,-1.3,0.1,8.4,1.2000000000000002,-6.3,-13.200000000000001,-2.0
1698672833798.0,16,-0.7000000000000001,-0.5,-1.4000000000000001,0.0,8.5,1.1,-6.3,-16.8,-0.4
1698672833815.0,16,-0.9,0.1,-1.1,-0.30000000000000004,9.200000000000001,1.4000000000000001,-4.1000000000000005,-23.6,1.7
1698672833831.0,16,-1.0,0.9,-0.5,-0.30000000000000004,10.0,2.0,3.9,-26.8,0.9
1698672833848.0,16,-0.8,1.0,-0.2,-0.1,10.100000000000001,2.3000000000000003,9.4,-23.700000000000003,-0.9
1698672833865.0,16,0.0,0.5,-0.1,0.7000000000000001,9.600000000000001,2.3000000000000003,17.7,-22.2,-6.8
1698672833882.0,16,0.5,0.2,-0.1,1.2000000000000002,9.3,2.2,15.000000000000002,-19.6,-3.7000000000000006
1698672833898.0,16,0.4,0.2,-0.2,1.0,9.3,2.1,9.700000000000001,-16.3,0.6000000000000001
1698672833915.0,16,-0.4,0.5,-0.5,0.30000000000000004,9.600000000000001,1.8,-3.5,-14.800000000000002,7.1000000000000005
1698672833931.0,16,-1.0,0.6000000000000001,-0.6000000000000001,-0.2,9.700000000000001,1.7000000000000002,-15.8,-22.6,5.4
1698672833948.0,16,-1.1,0.6000000000000001,-0.5,-0.30000000000000004,9.700000000000001,1.9000000000000001,-18.8,-26.400000000000002,3.7000000000000006
1698672833965.0,16,-0.9,0.9,-0.5,-0.2,10.0,1.9000000000000001,-19.6,-29.1,-1.8
1698672833981.0,16,-0.7000000000000001,1.3,0.0,0.1,10.4,2.5,-14.3,-24.200000000000003,-7.1000000000000005
1698672833998.0,16,-0.5,1.2000000000000002,-0.2,0.30000000000000004,10.3,2.3000000000000003,-9.9,-18.5,-9.9
1698672834015.0,16,-0.1,1.1,-0.30000000000000004,0.6000000000000001,10.200000000000001,2.2,-5.4,-14.800000000000002,-11.2
1698672834031.0,16,0.1,1.1,0.1,0.8,10.200000000000001,2.6,-3.2,-11.8,-8.4
1698672834048.0,16,0.5,1.4000000000000001,0.30000000000000004,1.2000000000000002,10.5,2.8000000000000003,-1.3,-5.2,-5.8
1698672834065.0,16,0.6000000000000001,1.4000000000000001,0.4,1.3,10.5,2.9000000000000004,-1.0,-2.9,-5.4
1698672834082.0,16,0.7000000000000001,1.2000000000000002,0.9,1.3,10.4,3.4000000000000004,0.0,-0.8,-4.6000000000000005
1698672834098.0,16,0.6000000000000001,1.0,1.2000000000000002,1.3,10.200000000000001,3.7,1.8,1.6,-3.3000000000000003
1698672834115.0,16,0.4,0.4,0.5,1.0,9.5,3.1,1.4,16.0,-1.3
1698672834131.0,16,0.1,-0.8,-0.2,0.7000000000000001,8.4,2.3000000000000003,-8.0,21.5,2.4000000000000004
1698672834148.0,16,-0.1,-1.1,-0.4,0.6000000000000001,8.0,2.2,-11.8,21.6,5.7
1698672834165.0,16,-0.30000000000000004,-1.3,-0.4,0.30000000000000004,7.800000000000001,2.2,-13.4,21.1,10.4
1698672834181.0,16,-0.5,-1.1,-0.2,0.2,8.0,2.5,-5.2,16.2,10.5
1698672834198.0,16,-0.4,-1.0,0.2,0.30000000000000004,8.1,2.8000000000000003,2.1999999999999997,12.8,9.8
1698672834215.0,16,-0.2,-0.7000000000000001,1.0,0.5,8.4,3.6,23.3,3.9,8.4
1698672834231.0,16,-0.1,-0.6000000000000001,1.7000000000000002,0.7000000000000001,8.5,4.2,42.900000000000006,0.4,9.5
1698672834248.0,16,-0.2,-0.7000000000000001,2.3000000000000003,0.5,8.5,4.6000000000000005,46.300000000000004,2.3000000000000003,10.3
1698672834265.0,16,-0.30000000000000004,-0.7000000000000001,2.3000000000000003,0.5,8.4,4.6000000000000005,37.7,2.6,10.700000000000001
1698672834282.0,16,-0.4,-0.9,1.8,0.4,8.3,4.1000000000000005,7.500000000000001,9.0,10.5
1698672834298.0,16,-0.5,-0.9,1.5,0.30000000000000004,8.3,3.8000000000000003,-4.3999999999999995,13.100000000000001,10.2
1698672834315.0,16,-0.5,-0.5,1.3,0.30000000000000004,8.700000000000001,3.6,-7.699999999999999,9.3,10.600000000000001
1698672834331.0,16,-0.4,-0.30000000000000004,1.1,0.5,8.9,3.5,3.8,-0.4,11.3
1698672834349.0,16,-0.30000000000000004,-0.30000000000000004,1.0,0.6000000000000001,8.9,3.3000000000000003,10.3,-4.0,11.3
1698672834365.0,16,-0.1,-0.4,1.0,0.8,8.700000000000001,3.3000000000000003,17.5,-6.8,9.700000000000001
1698672834382.0,16,0.0,-0.2,1.2000000000000002,1.0,8.9,3.5,16.1,-8.200000000000001,7.400000000000001
1698672834398.0,16,0.1,-0.1,1.3,1.1,9.1,3.5,12.9,-8.0,6.2
1698672834415.0,16,0.30000000000000004,-0.1,1.0,1.2000000000000002,9.0,3.2,4.6000000000000005,-3.7000000000000006,3.7000000000000006
1698672834432.0,16,0.30000000000000004,-0.4,0.8,1.3,8.8,3.0,-0.1,1.7,1.8
1698672834448.0,16,0.30000000000000004,-0.5,0.8,1.3,8.700000000000001,3.0,-0.30000000000000004,2.0,1.3
1698672834465.0,16,0.4,-0.4,0.7000000000000001,1.4000000000000001,8.8,2.9000000000000004,1.2000000000000002,0.5,2.1
1698672834482.0,16,0.30000000000000004,-0.30000000000000004,0.8,1.3,8.9,3.0,3.9,-2.1999999999999997,5.9
1698672834500.0,16,0.2,-0.2,0.7000000000000001,1.2000000000000002,8.9,2.9000000000000004,5.1,-3.3000000000000003,8.9
1698672834515.0,16,-0.1,-0.2,0.5,1.0,9.0,2.7,4.0,-1.9,8.5
1698672834531.0,16,-0.1,-0.2,0.30000000000000004,0.9,9.0,2.5,-0.7,-2.9,5.6
1698672834548.0,16,-0.1,-0.1,0.1,1.0,9.1,2.3000000000000003,-5.9,-3.0000000000000004,4.300000000000001
1698672834565.0,16,0.0,0.0,0.1,1.1,9.1,2.3000000000000003,-7.8,-3.0000000000000004,3.8
1698672834582.0,16,0.1,0.0,0.0,1.3,9.1,2.3000000000000003,-9.3,-4.300000000000001,1.6
1698672834598.0,16,0.30000000000000004,-0.30000000000000004,-0.1,1.4000000000000001,8.8,2.1,-9.700000000000001,-2.8,-0.30000000000000004
1698672834615.0,16,0.4,-0.4,-0.2,1.5,8.700000000000001,2.1,-9.700000000000001,-1.6,-0.6000000000000001
1698672834631.0,16,0.4,-0.5,-0.4,1.5,8.6,1.9000000000000001,-9.4,1.2000000000000002,-0.4
1698672834648.0,16,0.30000000000000004,-0.5,-0.7000000000000001,1.5,8.5,1.6,-9.3,7.300000000000001,-0.6000000000000001
1698672834665.0,16,0.30000000000000004,-0.6000000000000001,-0.8,1.4000000000000001,8.5,1.6,-9.1,8.4,-0.30000000000000004
1698672834682.0,16,0.2,-0.7000000000000001,-0.9,1.3,8.4,1.4000000000000001,-7.1000000000000005,10.5,-0.2
1698672834698.0,16,0.30000000000000004,-0.6000000000000001,-1.2000000000000002,1.4000000000000001,8.5,1.2000000000000002,-4.9,15.7,-2.3000000000000003
1698672834715.0,16,0.4,-0.5,-1.2000000000000002,1.5,8.5,1.2000000000000002,-3.8,17.8,-3.9
1698672834731.0,16,0.5,-0.30000000000000004,-1.1,1.6,8.700000000000001,1.3,0.5,19.3,-5.6
1698672834748.0,16,0.4,-0.1,-0.9,1.4000000000000001,9.0,1.5,8.3,16.2,-2.9
1698672834765.0,16,0.30000000000000004,0.0,-0.8,1.3,9.1,1.5,12.700000000000001,14.200000000000001,1.0
1698672834781.0,16,-0.1,0.0,-0.9,0.9,9.0,1.4000000000000001,18.900000000000002,14.800000000000002,7.8
1698672834798.0,16,-0.1,-0.2,-0.8,0.9,8.9,1.4000000000000001,19.500000000000004,14.600000000000001,7.699999999999999
1698672834815.0,16,-0.1,-0.1,-0.8,1.0,9.200000000000001,1.4000000000000001,16.5,7.9,4.300000000000001
1698672834831.0,16,0.1,0.5,-0.6000000000000001,1.4000000000000001,9.9,1.7000000000000002,11.000000000000002,6.3,4.0
1698672834848.0,16,0.5,1.0,-0.4,1.6,10.100000000000001,1.7000000000000002,8.3,8.3,3.2
1698672834865.0,16,0.7000000000000001,1.2000000000000002,-0.4,1.7000000000000002,10.3,1.7000000000000002,5.8,10.9,2.3000000000000003
1698672834882.0,16,0.9,1.4000000000000001,-0.2,1.9000000000000001,10.5,1.9000000000000001,1.7,17.0,1.4
1698672834898.0,16,0.9,1.4000000000000001,0.0,2.0,10.600000000000001,2.1,-1.4,17.9,1.7
1698672834915.0,16,0.9,1.5,0.0,2.0,10.600000000000001,2.1,-2.9,16.8,2.5
1698672834932.0,16,1.0,1.3,0.1,2.0,10.5,2.3000000000000003,-7.9,16.2,3.6
1698672834948.0,16,0.9,1.1,0.4,2.0,10.100000000000001,2.6,-10.700000000000001,18.1,4.1000000000000005
1698672834965.0,16,0.8,0.8,0.4,1.9000000000000001,10.0,2.6,-11.8,19.400000000000002,4.0
1698672834981.0,16,0.5,1.0,0.5,1.6,10.100000000000001,2.8000000000000003,-13.5,17.3,4.300000000000001
1698672834998.0,16,0.0,1.1,0.5,1.1,10.3,2.9000000000000004,-14.900000000000002,13.9,5.9
1698672835015.0,16,-0.30000000000000004,1.0,0.6000000000000001,0.5,10.0,3.0,-14.600000000000001,13.200000000000001,6.6000000000000005
1698672835032.0,16,-0.7000000000000001,0.8,0.6000000000000001,0.4,9.9,3.0,-13.700000000000001,12.8,5.0
1698672835048.0,16,-0.5,0.4,0.5,0.6000000000000001,9.5,3.0,-12.100000000000001,11.3,-2.0
1698672835065.0,16,-0.2,-0.2,0.6000000000000001,0.9,9.0,3.1,-11.700000000000001,14.500000000000002,-5.1
1698672835084.0,16,-0.1,-0.4,0.7000000000000001,1.0,8.700000000000001,3.2,-10.700000000000001,14.500000000000002,-5.1
1698672835098.0,16,-0.2,-0.9,0.7000000000000001,0.9,8.200000000000001,3.2,-5.500000000000001,12.000000000000002,-5.1
1698672835115.0,16,-0.6000000000000001,-1.4000000000000001,0.7000000000000001,0.4,7.7,3.3000000000000003,-1.0999999999999999,11.2,-2.1
1698672835131.0,16,-0.9,-1.4000000000000001,0.7000000000000001,0.1,7.7,3.2,1.5000000000000002,7.0,0.6000000000000001
1698672835148.0,16,-1.5,-1.3,1.1,-0.5,7.800000000000001,3.6,6.7,-0.6000000000000001,3.1
1698672835165.0,16,-1.5,-1.1,1.3,-0.6000000000000001,7.800000000000001,3.8000000000000003,10.2,-2.4000000000000004,2.7
1698672835181.0,16,-1.4000000000000001,-1.0,1.4000000000000001,-0.4,8.1,3.9000000000000004,15.399999999999999,-1.9,-1.3
1698672835198.0,16,-1.0,-0.6000000000000001,1.6,-0.1,8.5,4.0,16.8,2.4000000000000004,-5.6
1698672835215.0,16,-0.9,-0.4,1.6,0.0,8.700000000000001,4.0,16.400000000000002,5.7,-6.7
1698672835233.0,16,-0.7000000000000001,-0.2,1.2000000000000002,0.2,8.9,3.6,12.100000000000001,9.200000000000001,-6.3
1698672835248.0,16,-0.8,-0.6000000000000001,0.8,0.1,8.6,3.2,8.4,9.5,-3.4
1698672835265.0,16,-0.9,-0.7000000000000001,0.6000000000000001,0.0,8.4,3.0,7.500000000000001,7.1000000000000005,-2.3000000000000003
1698672835281.0,16,-1.2000000000000002,-0.8,0.5,-0.30000000000000004,8.3,2.9000000000000004,8.5,0.30000000000000004,-0.8
1698672835298.0,16,-1.3,-0.8,0.7000000000000001,-0.5,8.4,3.1,13.3,-4.1000000000000005,-0.4
1698672835315.0,16,-1.3,-0.5,0.9,-0.5,8.700000000000001,3.2,20.1,-5.7,-2.3000000000000003
1698672835331.0,16,-1.2000000000000002,-0.4,1.0,-0.4,8.8,3.2,22.5,-6.4,-4.0
1698672835349.0,16,-0.9,-0.30000000000000004,0.9,-0.2,8.8,3.1,23.5,-9.3,-7.0
1698672835365.0,16,-0.6000000000000001,-0.30000000000000004,0.8,0.1,8.9,2.9000000000000004,19.6,-10.9,-7.8
1698672835381.0,16,-0.6000000000000001,-0.2,0.7000000000000001,0.1,9.0,2.8000000000000003,16.400000000000002,-11.2,-7.9
1698672835398.0,16,-0.7000000000000001,0.30000000000000004,0.7000000000000001,0.1,9.5,2.8000000000000003,9.9,-10.2,-8.5
1698672835415.0,16,-0.7000000000000001,0.4,0.7000000000000001,0.1,9.700000000000001,2.7,6.4,-8.200000000000001,-11.5
1698672835431.0,16,-0.6000000000000001,0.30000000000000004,0.7000000000000001,0.1,9.5,2.7,5.7,-8.0,-12.6
1698672835448.0,16,-0.30000000000000004,0.1,0.7000000000000001,0.30000000000000004,9.3,2.7,5.9,-6.5,-13.700000000000001
1698672835465.0,16,0.0,0.0,0.5,0.6000000000000001,9.200000000000001,2.5,7.500000000000001,-7.0,-12.4
1698672835481.0,16,0.1,0.1,0.30000000000000004,0.6000000000000001,9.4,2.3000000000000003,6.8,-4.6000000000000005,-11.000000000000002
1698672835498.0,16,-0.2,0.2,0.1,0.4,9.5,2.1,2.9,-1.9,-5.300000000000001
1698672835514.0,16,-0.7000000000000001,0.4,0.0,-0.1,9.600000000000001,1.9000000000000001,0.8,-4.9,0.7
1698672835531.0,16,-0.9,0.4,-0.1,-0.5,9.700000000000001,1.7000000000000002,0.1,-11.8,2.1
1698672835548.0,16,-1.1,0.4,-0.4,-0.5,9.600000000000001,1.6,-0.5,-13.8,0.7
1698672835565.0,16,-1.2000000000000002,0.2,-0.5,-0.6000000000000001,9.4,1.5,-2.7,-17.400000000000002,-4.300000000000001
1698672835581.0,16,-1.2000000000000002,0.1,-0.5,-0.7000000000000001,9.3,1.5,-3.3000000000000003,-19.8,-6.8
1698672835598.0,16,-1.0,-0.1,-0.5,-0.5,9.200000000000001,1.5,-4.300000000000001,-22.8,-11.6
1698672835615.0,16,-0.6000000000000001,-0.2,-0.6000000000000001,-0.1,9.0,1.4000000000000001,-5.7,-24.6,-13.0
1698672835631.0,16,-0.30000000000000004,-0.2,-0.6000000000000001,0.2,9.0,1.4000000000000001,-7.699999999999999,-27.3,-11.3
1698672835649.0,16,-0.2,-0.30000000000000004,-0.5,0.30000000000000004,9.0,1.5,-8.3,-28.900000000000002,-10.0
1698672835664.0,16,-0.2,-0.30000000000000004,-0.5,0.30000000000000004,9.0,1.5,-8.0,-29.1,-7.1000000000000005
1698672835681.0,16,-0.2,-0.30000000000000004,-0.5,0.1,9.0,1.4000000000000001,-7.400000000000001,-28.0,-3.8
1698672835698.0,16,-0.4,-0.2,-0.8,0.1,9.0,1.3,-7.2,-28.1,-2.0
1698672835715.0,16,-0.5,-0.1,-0.8,0.0,9.200000000000001,1.2000000000000002,-7.8,-32.800000000000004,1.5000000000000002
1698672835732.0,16,-0.6000000000000001,0.1,-0.9,-0.1,9.3,1.2000000000000002,-7.9,-34.800000000000004,2.4000000000000004
1698672835748.0,16,-0.5,0.30000000000000004,-0.6000000000000001,0.1,9.5,1.5,-6.7,-35.8,2.6
1698672835765.0,16,-0.1,0.30000000000000004,-0.4,0.4,9.5,1.7000000000000002,-2.6,-32.2,-0.4
1698672835782.0,16,0.0,0.1,-0.5,0.6000000000000001,9.3,1.6,-0.7,-30.599999999999998,-2.4000000000000004
1698672835798.0,16,0.30000000000000004,-0.2,-0.30000000000000004,0.9,9.0,1.8,0.30000000000000004,-32.6,-4.0
1698672835814.0,16,0.2,-0.30000000000000004,-0.2,0.7000000000000001,8.9,1.9000000000000001,-0.5,-27.0,-3.2
1698672835832.0,16,-0.1,-0.1,-0.2,0.5,9.1,1.8,-3.6,-17.1,-0.2
1698672835848.0,16,-0.2,0.0,-0.30000000000000004,0.4,9.200000000000001,1.7000000000000002,-5.500000000000001,-14.0,0.8
1698672835864.0,16,-0.4,0.1,-0.7000000000000001,0.2,9.3,1.4000000000000001,-9.9,-11.5,1.0
1698672835881.0,16,-0.4,0.1,-1.0,0.2,9.3,1.2000000000000002,-14.500000000000002,-11.000000000000002,0.6000000000000001
1698672835898.0,16,-0.4,0.30000000000000004,-1.1,0.2,9.5,1.0,-16.700000000000003,-11.4,0.30000000000000004
1698672835915.0,16,-0.4,0.7000000000000001,-1.3,0.30000000000000004,9.8,0.9,-18.400000000000002,-13.0,-0.5
1698672835931.0,16,-0.5,0.9,-1.3,0.1,10.100000000000001,0.9,-19.3,-17.0,-3.1
1698672835948.0,16,-0.5,1.0,-1.1,0.1,10.200000000000001,1.2000000000000002,-18.2,-16.8,-3.1
1698672835965.0,16,-0.4,1.4000000000000001,-0.6000000000000001,0.2,10.600000000000001,1.6,-10.5,-17.1,-3.8
1698672835982.0,16,-0.30000000000000004,1.6,-0.5,0.5,10.700000000000001,1.9000000000000001,-3.9,-12.3,-5.500000000000001
1698672835998.0,16,0.0,1.2000000000000002,-0.30000000000000004,0.6000000000000001,10.4,2.0,-2.1,-9.9,-5.8
1698672836015.0,16,0.5,1.0,-0.1,1.1,10.100000000000001,2.2,-2.4000000000000004,-10.700000000000001,-6.1000000000000005
1698672836032.0,16,0.7000000000000001,1.0,0.0,1.3,10.100000000000001,2.3000000000000003,-3.3000000000000003,-9.1,-6.000000000000001
1698672836048.0,16,0.6000000000000001,0.9,-0.1,1.2000000000000002,10.100000000000001,2.2,-13.100000000000001,5.8,-0.30000000000000004
1698672836065.0,16,0.5,0.9,-0.1,1.1,10.100000000000001,2.3000000000000003,-17.0,8.3,2.9
1698672836081.0,16,0.4,1.0,-0.30000000000000004,1.0,10.200000000000001,2.1,-22.3,13.9,3.8
1698672836098.0,16,0.5,0.8,-0.2,1.1,10.0,2.3000000000000003,-22.6,13.9,1.3
1698672836116.0,16,0.6000000000000001,0.6000000000000001,0.0,1.2000000000000002,9.8,2.5,-16.2,18.0,-3.2
1698672836131.0,16,0.8,0.2,-0.2,1.3,9.4,2.4000000000000004,-8.0,24.200000000000003,-4.9
1698672836148.0,16,0.6000000000000001,-0.4,-0.1,1.1,8.700000000000001,2.5,-1.9,28.6,-0.8
1698672836165.0,16,0.30000000000000004,-0.7000000000000001,0.1,0.9,8.4,2.7,2.1999999999999997,26.1,4.5
1698672836182.0,16,-0.30000000000000004,-1.0,0.5,0.30000000000000004,8.1,3.1,12.8,18.400000000000002,13.9
1698672836198.0,16,-0.5,-1.0,0.7000000000000001,0.1,8.200000000000001,3.3000000000000003,18.0,14.200000000000001,15.5
1698672836215.0,16,-0.5,-0.9,1.4000000000000001,0.1,8.3,3.8000000000000003,26.500000000000004,5.0,14.100000000000001
1698672836231.0,16,-0.30000000000000004,-0.8,1.8,0.4,8.4,4.2,26.200000000000003,1.2000000000000002,9.200000000000001
1698672836248.0,16,-0.1,-0.8,2.1,0.5,8.4,4.4,21.400000000000002,-1.3,7.9
1698672836265.0,16,-0.1,-0.8,1.9000000000000001,0.6000000000000001,8.3,4.3,5.8,0.6000000000000001,8.600000000000001
1698672836281.0,16,-0.5,-0.7000000000000001,1.6,0.2,8.4,4.0,-5.0,6.1000000000000005,11.2
1698672836298.0,16,-0.6000000000000001,-0.7000000000000001,1.4000000000000001,0.2,8.4,3.7,-2.1999999999999997,5.0,11.9
1698672836315.0,16,-0.5,-0.7000000000000001,1.2000000000000002,0.2,8.4,3.6,2.0,3.0000000000000004,11.2
1698672836331.0,16,-0.30000000000000004,-0.7000000000000001,1.2000000000000002,0.4,8.4,3.6,10.3,1.2000000000000002,9.600000000000001
1698672836348.0,16,-0.1,-0.6000000000000001,1.4000000000000001,0.7000000000000001,8.5,3.7,15.2,0.30000000000000004,9.200000000000001
1698672836364.0,16,0.0,-0.7000000000000001,1.4000000000000001,0.8,8.5,3.7,15.2,0.30000000000000004,9.4
1698672836381.0,16,0.2,-0.8,1.2000000000000002,1.0,8.4,3.6,10.700000000000001,7.0,10.1
1698672836398.0,16,0.1,-0.7000000000000001,0.9,0.9,8.5,3.2,4.800000000000001,9.8,10.1
1698672836414.0,16,0.1,-0.5,0.6000000000000001,0.9,8.6,2.9000000000000004,1.8,10.1,10.700000000000001
1698672836431.0,16,0.0,-0.1,0.4,0.9,9.1,2.7,-3.4,9.5,11.8
1698672836448.0,16,0.0,0.1,0.5,0.9,9.4,2.9000000000000004,-1.0999999999999999,7.2,9.4
1698672836464.0,16,0.0,0.2,0.5,0.9,9.4,2.8000000000000003,1.6,8.1,7.1000000000000005
1698672836481.0,16,0.2,-0.2,0.30000000000000004,1.1,8.9,2.6,6.2,13.6,3.7000000000000006
1698672836498.0,16,0.2,-0.30000000000000004,0.30000000000000004,1.2000000000000002,8.8,2.6,7.6,16.3,3.0000000000000004
1698672836515.0,16,0.4,-0.4,0.30000000000000004,1.4000000000000001,8.700000000000001,2.6,8.9,18.900000000000002,4.300000000000001
1698672836532.0,16,0.4,-0.2,0.2,1.3,8.9,2.5,7.500000000000001,12.8,7.699999999999999
1698672836549.0,16,0.30000000000000004,-0.1,0.30000000000000004,1.1,9.1,2.6,4.5,12.4,10.8
1698672836565.0,16,0.0,-0.1,0.2,1.0,9.1,2.5,3.5,12.8,10.700000000000001
1698672836581.0,16,0.0,-0.1,0.30000000000000004,1.0,9.1,2.5,3.7000000000000006,9.9,8.3
1698672836598.0,16,0.2,0.0,0.2,1.2000000000000002,9.1,2.5,3.9,12.200000000000001,5.4
1698672836615.0,16,0.30000000000000004,-0.1,0.2,1.3,9.1,2.5,3.4,13.700000000000001,4.5
1698672836632.0,16,0.5,-0.4,0.2,1.6,8.8,2.4000000000000004,2.5,16.2,3.4
1698672836648.0,16,0.6000000000000001,-0.5,0.1,1.6,8.700000000000001,2.3000000000000003,1.7,19.1,3.5
1698672836664.0,16,0.5,-0.7000000000000001,-0.2,1.6,8.4,2.1,2.0,23.1,5.2
1698672836681.0,16,0.4,-0.7000000000000001,-0.30000000000000004,1.5,8.4,2.0,1.5000000000000002,24.400000000000002,6.5
1698672836698.0,16,0.2,-0.4,-0.4,1.2000000000000002,8.700000000000001,1.8,1.4,26.700000000000003,7.8
1698672836715.0,16,0.1,-0.30000000000000004,-0.5,1.2000000000000002,8.8,1.7000000000000002,1.7,27.2,7.9
1698672836732.0,16,0.1,-0.2,-0.6000000000000001,1.1,9.0,1.6,4.300000000000001,25.700000000000003,7.6
1698672836748.0,16,0.0,-0.2,-0.7000000000000001,1.1,9.0,1.6,6.2,24.7,6.4
1698672836764.0,16,0.0,-0.2,-0.7000000000000001,1.1,8.9,1.6,10.1,22.900000000000002,2.9
1698672836781.0,16,-0.1,-0.1,-0.6000000000000001,1.0,9.1,1.6,14.500000000000002,19.9,0.8
1698672836798.0,16,-0.2,0.30000000000000004,-0.5,0.8,9.5,1.7000000000000002,17.3,12.6,2.1
1698672836815.0,16,-0.4,0.4,-0.5,0.7000000000000001,9.5,1.6,17.0,9.8,2.1
1698672836831.0,16,-0.4,0.2,-0.6000000000000001,0.6000000000000001,9.4,1.5,12.200000000000001,4.3999999999999995,0.9
1698672836848.0,16,-0.1,0.30000000000000004,-0.5,0.9,9.5,1.6,4.9,1.4,-3.4
1698672836865.0,16,0.1,0.5,-0.30000000000000004,1.1,9.600000000000001,1.7000000000000002,2.1,0.5,-5.4
1698672836881.0,16,0.5,0.6000000000000001,-0.1,1.5,9.700000000000001,1.9000000000000001,-0.6000000000000001,1.8,-7.500000000000001
1698672836898.0,16,0.8,0.2,-0.30000000000000004,1.7000000000000002,9.600000000000001,1.9000000000000001,-1.3,4.300000000000001,-7.8
1698672836915.0,16,0.8,-0.2,-0.5,1.7000000000000002,9.0,1.5,-5.500000000000001,13.100000000000001,-5.6
1698672836933.0,16,0.7000000000000001,-0.30000000000000004,-0.7000000000000001,1.6,8.9,1.4000000000000001,-8.0,15.000000000000002,-3.2
1698672836948.0,16,0.4,-0.1,-0.8,1.3,9.0,1.3,-13.5,13.6,3.1
