timestamp,interval,accx,accy,accz,accGx,accGy,accGz,alpha,beta,gamma
1698673075.007,16,0.1,0.1,-0.1,0.7000000000000001,9.5,0.4,0.6000000000000001,1.0999999999999999,-0.5
1698673075.024,16,-0.1,0.2,0.0,0.5,9.600000000000001,0.5,0.4,2.0,0.4
1698673075.041,16,0.0,0.0,0.0,0.6000000000000001,9.5,0.5,-0.7,2.3000000000000003,0.1
1698673075.059,16,0.0,-0.1,0.0,0.6000000000000001,9.4,0.6000000000000001,-2.0,2.5,-1.7
1698673075.074,16,0.1,-0.1,0.1,0.7000000000000001,9.3,0.6000000000000001,-3.0000000000000004,2.3000000000000003,-1.6
1698673075.091,16,0.0,-0.1,0.0,0.6000000000000001,9.3,0.6000000000000001,-4.6000000000000005,1.8,-0.4
1698673075.108,16,0.0,-0.2,0.0,0.5,9.3,0.6000000000000001,-4.9,1.7,-0.4
1698673075.124,16,0.0,-0.1,0.1,0.5,9.3,0.6000000000000001,-4.1000000000000005,2.0,-0.7
1698673075.141,16,0.0,-0.1,0.0,0.6000000000000001,9.4,0.6000000000000001,-2.4000000000000004,2.4000000000000004,-0.8
1698673075.157,16,0.0,-0.1,0.0,0.6000000000000001,9.3,0.6000000000000001,-1.2000000000000002,1.8,-0.2
1698673075.174,16,0.0,-0.1,0.0,0.5,9.4,0.6000000000000001,1.0999999999999999,2.1999999999999997,0.4
1698673075.192,16,-0.1,0.0,0.0,0.5,9.4,0.6000000000000001,2.3000000000000003,1.8,0.5
1698673075.207,16,-0.1,0.0,0.1,0.5,9.4,0.6000000000000001,2.7,2.1,0.6000000000000001
1698673075.224,16,-0.1,-0.2,0.1,0.5,9.3,0.7000000000000001,2.8,2.3000000000000003,0.4
1698673075.241,16,-0.1,0.0,-0.1,0.5,9.4,0.5,1.0999999999999999,4.0,0.4
1698673075.258,16,0.0,-0.1,-0.1,0.5,9.3,0.5,-0.1,1.2000000000000002,0.4
1698673075.274,16,0.0,0.2,-0.1,0.6000000000000001,9.600000000000001,0.5,-3.3000000000000003,-1.0999999999999999,-0.5
1698673075.293,16,0.0,0.1,0.2,0.5,9.5,0.7000000000000001,-2.4000000000000004,-3.2,-0.7
1698673075.307,16,-0.1,0.0,0.1,0.5,9.4,0.7000000000000001,-0.9,-0.9,-1.0
1698673075.324,16,-0.2,-0.1,0.1,0.4,9.3,0.7000000000000001,2.1999999999999997,0.7,-1.0999999999999999
1698673075.341,16,-0.2,-0.1,0.1,0.4,9.3,0.7000000000000001,4.9,0.9,0.7
1698673075.359,16,-0.1,-0.1,0.0,0.5,9.4,0.6000000000000001,6.7,-0.8,2.4000000000000004
1698673075.374,16,0.0,0.0,0.1,0.5,9.4,0.6000000000000001,7.2,-2.1,2.6
1698673075.391,16,0.0,-0.1,0.0,0.6000000000000001,9.4,0.6000000000000001,7.400000000000001,-2.6,2.4000000000000004
1698673075.407,16,0.1,-0.1,0.0,0.6000000000000001,9.3,0.5,6.5,-1.8,0.8
1698673075.424,16,0.2,-0.2,0.1,0.8,9.200000000000001,0.6000000000000001,5.2,0.1,-2.0
1698673075.441,16,0.4,-0.2,0.0,1.0,9.200000000000001,0.5,3.7000000000000006,2.9,-4.1000000000000005
1698673075.458,16,0.6000000000000001,-0.2,0.0,1.1,9.200000000000001,0.5,1.8,5.0,-4.0
1698673075.475,16,0.5,-0.2,0.1,1.0,9.200000000000001,0.5,1.3,6.000000000000001,-2.8
1698673075.491,16,0.30000000000000004,0.0,0.0,0.9,9.4,0.5,2.1999999999999997,6.6000000000000005,0.6000000000000001
1698673075.507,16,0.2,0.0,0.0,0.6000000000000001,9.4,0.5,3.6,7.2,2.0
1698673075.524,16,-0.1,0.0,0.0,0.4,9.4,0.4,4.7,6.5,2.3000000000000003
1698673075.541,16,-0.30000000000000004,0.0,0.0,0.2,9.3,0.4,6.5,5.2,2.4000000000000004
1698673075.558,16,-0.4,0.1,0.0,0.2,9.5,0.4,8.5,1.9,1.9
1698673075.575,16,-0.4,0.2,0.1,0.2,9.600000000000001,0.5,9.5,0.5,1.3
1698673075.591,16,-0.4,0.1,0.2,0.1,9.5,0.5,11.700000000000001,-2.5,1.0
1698673075.607,16,-0.30000000000000004,0.1,0.2,0.2,9.4,0.5,13.100000000000001,-6.2,1.2000000000000002
1698673075.625,16,-0.30000000000000004,0.1,0.30000000000000004,0.30000000000000004,9.5,0.6000000000000001,13.3,-6.5,0.7
1698673075.641,16,-0.1,0.0,0.2,0.5,9.4,0.5,12.5,-5.1,0.1
1698673075.658,16,0.1,0.1,0.1,0.5,9.4,0.4,11.000000000000002,-4.1000000000000005,-0.2
1698673075.676,16,0.2,0.1,0.1,0.8,9.5,0.30000000000000004,6.7,-2.7,0.1
1698673075.693,16,0.30000000000000004,0.30000000000000004,-0.1,0.9,9.700000000000001,0.1,1.5000000000000002,-0.2,0.6000000000000001
1698673075.708,16,0.4,0.30000000000000004,-0.1,0.9,9.700000000000001,0.1,-1.3,0.9,1.0
1698673075.724,16,0.4,0.4,-0.2,0.9,9.8,0.0,-6.1000000000000005,3.2,1.3
1698673075.741,16,0.30000000000000004,0.2,-0.30000000000000004,0.9,9.700000000000001,-0.1,-9.4,4.300000000000001,0.8
1698673075.758,16,0.30000000000000004,0.2,-0.4,0.9,9.600000000000001,-0.1,-10.9,5.2,0.5
1698673075.774,16,0.30000000000000004,0.30000000000000004,-0.5,0.9,9.700000000000001,-0.2,-13.200000000000001,8.600000000000001,0.1
1698673075.791,16,0.30000000000000004,0.30000000000000004,-0.5,0.9,9.8,-0.1,-14.900000000000002,8.600000000000001,1.2000000000000002
1698673075.808,16,0.0,0.2,-0.5,0.6000000000000001,9.600000000000001,0.0,-14.0,8.3,2.7
1698673075.824,16,-0.2,0.0,-0.5,0.4,9.5,-0.1,-12.6,7.1000000000000005,3.8
1698673075.841,16,-0.30000000000000004,0.0,-0.4,0.30000000000000004,9.4,0.1,-9.1,3.7000000000000006,4.6000000000000005
1698673075.857,16,-0.4,0.2,-0.30000000000000004,0.2,9.600000000000001,0.2,-3.1,2.3000000000000003,2.3000000000000003
1698673075.874,16,-0.4,0.1,-0.2,0.2,9.5,0.2,0.4,2.4000000000000004,0.4
1698673075.891,16,-0.2,0.0,-0.1,0.4,9.4,0.4,7.2,1.0999999999999999,-1.0999999999999999
1698673075.907,16,-0.1,-0.1,0.1,0.5,9.4,0.5,13.700000000000001,-1.0999999999999999,0.8
1698673075.924,16,-0.1,-0.1,0.2,0.5,9.3,0.6000000000000001,16.6,-2.1,2.1
1698673075.941,16,-0.1,-0.1,0.30000000000000004,0.5,9.3,0.6000000000000001,20.0,-3.1,3.6
1698673075.958,16,-0.1,-0.1,0.4,0.5,9.3,0.7000000000000001,19.9,-3.6,3.2
1698673075.974,16,0.0,-0.1,0.4,0.6000000000000001,9.4,0.6000000000000001,18.3,-3.8,2.7
1698673075.99,16,0.1,0.1,0.4,0.7000000000000001,9.5,0.6000000000000001,11.9,-3.5,0.7
1698673076.007,16,0.2,0.0,0.4,0.9,9.4,0.6000000000000001,3.1,-2.7,-0.9
1698673076.024,16,0.30000000000000004,0.1,0.30000000000000004,0.9,9.5,0.5,-2.1,-1.0,-1.4
1698673076.041,16,0.30000000000000004,-0.1,0.2,0.9,9.3,0.4,-11.3,1.2000000000000002,-2.3000000000000003
1698673076.057,16,0.2,-0.1,-0.1,0.8,9.3,0.2,-18.2,2.4000000000000004,-1.8
1698673076.074,16,0.0,0.0,-0.1,0.7000000000000001,9.4,0.2,-21.700000000000003,1.0999999999999999,-1.3
1698673076.091,16,-0.1,0.1,-0.30000000000000004,0.5,9.5,0.1,-20.4,-0.1,-2.9
1698673076.107,16,-0.1,0.1,-0.30000000000000004,0.6000000000000001,9.5,0.1,-18.7,-0.4,-4.300000000000001
1698673076.124,16,0.1,0.1,-0.30000000000000004,0.7000000000000001,9.5,0.2,-13.0,-0.5,-6.3
1698673076.14,16,0.1,0.0,-0.2,0.7000000000000001,9.4,0.2,-9.4,-0.2,-6.3
1698673076.157,16,0.1,0.0,-0.2,0.7000000000000001,9.4,0.30000000000000004,-0.9,-1.2000000000000002,-3.7000000000000006
1698673076.174,16,0.1,-0.1,-0.2,0.6000000000000001,9.3,0.30000000000000004,7.400000000000001,-2.1999999999999997,-0.7
1698673076.191,16,0.0,0.0,-0.1,0.6000000000000001,9.4,0.30000000000000004,10.8,-2.1,-0.5
1698673076.207,16,0.0,0.1,0.0,0.5,9.600000000000001,0.4,16.400000000000002,-1.9,-0.6000000000000001
1698673076.224,16,0.0,0.1,0.0,0.5,9.5,0.4,19.200000000000003,-1.3,0.1
1698673076.241,16,0.0,0.1,0.1,0.5,9.5,0.4,19.400000000000002,-1.0,0.4
1698673076.258,16,-0.1,0.1,0.2,0.5,9.600000000000001,0.5,17.200000000000003,-1.6,1.2000000000000002
1698673076.274,16,-0.1,0.2,0.2,0.4,9.600000000000001,0.4,11.700000000000001,-3.0000000000000004,1.2000000000000002
1698673076.291,16,-0.2,0.1,0.2,0.4,9.600000000000001,0.4,8.1,-3.2,0.6000000000000001
1698673076.308,16,-0.1,0.0,0.1,0.5,9.5,0.4,-0.4,-2.8,-1.4
1698673076.324,16,0.0,0.0,0.1,0.5,9.5,0.30000000000000004,-8.3,-2.5,-1.8
1698673076.341,16,0.0,0.0,0.0,0.6000000000000001,9.4,0.30000000000000004,-11.5,-1.9,-1.6
1698673076.357,16,0.1,-0.1,-0.1,0.6000000000000001,9.4,0.2,-16.2,-0.7,-1.8
1698673076.374,16,0.1,0.0,-0.2,0.6000000000000001,9.4,0.1,-17.9,-0.5,-1.5000000000000002
1698673076.391,16,0.1,0.0,-0.2,0.6000000000000001,9.4,0.2,-17.599999999999998,-0.6000000000000001,-1.4
1698673076.408,16,0.1,0.0,-0.2,0.6000000000000001,9.5,0.2,-13.8,-0.7,-0.9
1698673076.424,16,0.1,0.0,-0.2,0.7000000000000001,9.5,0.2,-7.6,-0.30000000000000004,-0.5
1698673076.44,16,0.1,0.0,-0.2,0.6000000000000001,9.4,0.2,-4.1000000000000005,0.0,-0.30000000000000004
1698673076.458,16,0.1,0.0,-0.2,0.6000000000000001,9.4,0.30000000000000004,3.1,0.4,0.6000000000000001
1698673076.474,16,0.1,0.0,-0.1,0.6000000000000001,9.4,0.30000000000000004,8.799999999999999,0.4,1.5000000000000002
1698673076.491,16,0.1,0.0,-0.1,0.6000000000000001,9.5,0.30000000000000004,11.1,0.4,1.8
1698673076.507,16,0.0,0.0,0.0,0.6000000000000001,9.5,0.30000000000000004,13.8,0.30000000000000004,2.3000000000000003
1698673076.524,16,0.0,0.0,0.1,0.6000000000000001,9.5,0.4,13.8,1.2000000000000002,1.9
1698673076.541,16,0.0,0.0,0.1,0.6000000000000001,9.4,0.4,12.8,1.7,1.9
1698673076.558,16,0.0,0.0,0.1,0.6000000000000001,9.5,0.4,9.1,1.9,2.0
1698673076.574,16,-0.1,0.0,0.1,0.5,9.5,0.4,4.3999999999999995,2.3000000000000003,1.5000000000000002
1698673076.591,16,0.0,0.1,0.1,0.6000000000000001,9.5,0.30000000000000004,-0.8,1.8,1.5000000000000002
1698673076.607,16,-0.1,0.0,0.1,0.5,9.5,0.4,-3.3000000000000003,1.6,1.5000000000000002
1698673076.624,16,-0.1,0.0,0.1,0.5,9.5,0.4,-7.2,1.2000000000000002,0.9
1698673076.64,16,-0.1,0.1,0.0,0.5,9.5,0.30000000000000004,-8.3,1.5000000000000002,0.30000000000000004
1698673076.664,16,0.0,-0.1,0.0,0.6000000000000001,9.3,0.30000000000000004,-9.200000000000001,1.0999999999999999,-0.1
1698673076.674,16,0.0,-0.2,0.0,0.6000000000000001,9.3,0.30000000000000004,-8.5,0.8,0.30000000000000004
1698673076.691,16,-0.1,-0.1,-0.1,0.5,9.4,0.30000000000000004,-6.1000000000000005,-0.2,1.0
1698673076.707,16,-0.1,0.0,-0.1,0.5,9.4,0.30000000000000004,-4.6000000000000005,-0.5,1.0
1698673076.724,16,0.0,-0.1,0.0,0.6000000000000001,9.4,0.30000000000000004,-0.8,-1.0,0.5
1698673076.741,16,0.0,0.0,0.0,0.6000000000000001,9.4,0.4,2.8,-0.5,0.1
1698673076.758,16,0.1,-0.1,0.0,0.7000000000000001,9.4,0.4,4.2,-0.2,0.4
1698673076.774,16,0.1,-0.1,0.0,0.7000000000000001,9.4,0.4,5.1,0.2,0.9
1698673076.791,16,0.1,0.0,0.1,0.7000000000000001,9.4,0.4,5.9,0.5,1.2000000000000002
1698673076.808,16,0.1,0.0,0.1,0.7000000000000001,9.4,0.4,5.4,0.4,1.3
1698673076.824,16,0.0,0.0,0.1,0.6000000000000001,9.4,0.4,3.6,0.7,1.3
1698673076.841,16,0.0,0.0,0.1,0.6000000000000001,9.5,0.4,1.2000000000000002,1.4,0.7
1698673076.858,16,0.0,0.1,0.0,0.6000000000000001,9.5,0.30000000000000004,0.1,1.6,0.4
1698673076.874,16,0.0,0.1,0.0,0.6000000000000001,9.5,0.30000000000000004,-1.2000000000000002,1.4,0.2
1698673076.891,16,0.0,0.0,0.0,0.7000000000000001,9.5,0.30000000000000004,-3.0000000000000004,0.9,0.2
1698673076.908,16,0.0,0.0,-0.1,0.6000000000000001,9.4,0.2,-4.0,0.5,0.4
1698673076.924,16,-0.1,0.0,-0.1,0.5,9.4,0.2,-3.6,0.30000000000000004,0.2
1698673076.941,16,-0.1,0.0,-0.1,0.6000000000000001,9.4,0.2,-2.8,0.4,-0.1
1698673076.958,16,0.0,0.0,-0.1,0.6000000000000001,9.4,0.2,-0.7,-0.6000000000000001,-0.6000000000000001
1698673076.975,16,0.0,0.0,-0.1,0.6000000000000001,9.5,0.2,2.3000000000000003,-1.3,-0.1
1698673076.991,16,0.0,0.0,0.0,0.6000000000000001,9.5,0.30000000000000004,3.7000000000000006,-1.7,0.2
1698673077.009,16,0.0,0.0,0.0,0.7000000000000001,9.5,0.30000000000000004,6.4,-1.4,0.0
1698673077.024,16,0.1,0.0,0.0,0.7000000000000001,9.5,0.30000000000000004,7.300000000000001,-0.7,-0.2
1698673077.041,16,0.1,0.1,0.0,0.7000000000000001,9.600000000000001,0.30000000000000004,6.7,-0.4,0.4
1698673077.058,16,0.0,0.1,0.1,0.7000000000000001,9.600000000000001,0.30000000000000004,4.800000000000001,0.30000000000000004,0.9
1698673077.074,16,0.1,0.1,0.0,0.7000000000000001,9.600000000000001,0.30000000000000004,1.7,1.5000000000000002,0.6000000000000001
1698673077.091,16,0.0,0.1,0.0,0.7000000000000001,9.600000000000001,0.30000000000000004,-1.7,1.8,-0.4
1698673077.108,16,0.0,0.1,0.0,0.7000000000000001,9.600000000000001,0.2,-3.1,2.1999999999999997,-0.6000000000000001
1698673077.124,16,0.0,0.1,-0.1,0.6000000000000001,9.5,0.2,-5.2,2.6,-0.5
1698673077.141,16,0.0,0.1,0.0,0.6000000000000001,9.600000000000001,0.2,-5.8,2.0,-0.7
1698673077.157,16,0.0,0.1,-0.1,0.6000000000000001,9.600000000000001,0.2,-5.6,2.5,-0.9
1698673077.174,16,0.0,0.1,-0.1,0.6000000000000001,9.5,0.2,-5.0,2.1,-0.6000000000000001
1698673077.191,16,0.0,0.0,-0.1,0.6000000000000001,9.5,0.2,-4.7,1.9,-0.1
1698673077.208,16,0.0,-0.1,-0.1,0.6000000000000001,9.4,0.2,-3.8,0.6000000000000001,0.4
1698673077.225,16,0.0,-0.1,-0.1,0.6000000000000001,9.4,0.2,-3.0000000000000004,1.2000000000000002,0.2
1698673077.241,16,0.0,-0.1,-0.1,0.6000000000000001,9.3,0.2,-3.0000000000000004,0.9,-0.1
1698673077.259,16,0.0,-0.1,-0.1,0.6000000000000001,9.3,0.30000000000000004,-2.8,0.7,-0.2
1698673077.274,16,0.0,-0.1,-0.1,0.6000000000000001,9.3,0.30000000000000004,-2.1999999999999997,0.0,-0.30000000000000004
1698673077.291,16,-0.1,-0.1,0.0,0.6000000000000001,9.3,0.30000000000000004,-1.4,-1.0,0.8
1698673077.308,16,-0.1,-0.1,0.1,0.6000000000000001,9.4,0.4,-0.6000000000000001,-1.5000000000000002,0.9
1698673077.324,16,0.0,0.0,0.1,0.6000000000000001,9.4,0.5,1.8,-0.2,-0.1
1698673077.341,16,0.1,-0.1,0.2,0.7000000000000001,9.4,0.5,4.0,0.7,-0.5
1698673077.357,16,0.1,0.0,0.2,0.7000000000000001,9.4,0.5,4.800000000000001,1.4,-0.1
1698673077.375,16,0.1,0.0,0.2,0.7000000000000001,9.4,0.5,5.0,2.3000000000000003,1.0999999999999999
1698673077.392,16,0.0,0.0,0.2,0.7000000000000001,9.4,0.5,4.7,2.1999999999999997,1.4
1698673077.407,16,-0.1,0.0,0.1,0.6000000000000001,9.5,0.4,2.7,2.5,1.5000000000000002
1698673077.424,16,-0.1,-0.1,0.1,0.5,9.4,0.4,-0.5,1.3,1.2000000000000002
1698673077.441,16,-0.1,0.0,0.1,0.5,9.4,0.4,-3.6,1.4,0.1
1698673077.457,16,-0.1,0.0,0.0,0.5,9.4,0.4,-5.7,1.5000000000000002,-0.7
1698673077.474,16,0.0,0.0,0.0,0.6000000000000001,9.4,0.4,-6.3,1.0,-0.9
1698673077.492,16,0.1,-0.1,0.0,0.7000000000000001,9.3,0.4,-6.7,1.0999999999999999,-1.5000000000000002
1698673077.508,16,0.1,-0.1,-0.1,0.7000000000000001,9.3,0.30000000000000004,-6.5,1.9,-1.2000000000000002
1698673077.524,16,0.0,-0.1,-0.1,0.7000000000000001,9.3,0.30000000000000004,-5.4,2.0,0.4
1698673077.541,16,-0.1,-0.1,-0.1,0.5,9.3,0.30000000000000004,-3.0000000000000004,0.7,1.7
1698673077.557,16,-0.2,-0.1,-0.1,0.4,9.3,0.30000000000000004,-1.4,-0.1,1.6
1698673077.574,16,-0.2,-0.1,-0.1,0.4,9.3,0.4,2.3000000000000003,-1.8,1.5000000000000002
1698673077.591,16,-0.1,0.0,0.0,0.5,9.4,0.4,6.1000000000000005,-3.2,1.3
1698673077.607,16,0.0,0.0,0.0,0.6000000000000001,9.4,0.4,8.799999999999999,-3.8,0.8
1698673077.624,16,0.1,0.0,0.0,0.7000000000000001,9.4,0.4,9.4,-4.2,0.4
1698673077.641,16,0.1,0.0,0.1,0.8,9.5,0.4,9.5,-4.0,-0.1
1698673077.658,16,0.2,0.1,0.1,0.8,9.5,0.4,8.700000000000001,-3.8,-0.1
1698673077.675,16,0.1,0.0,0.1,0.7000000000000001,9.4,0.4,6.1000000000000005,-4.300000000000001,-0.2
1698673077.691,16,0.0,0.0,0.2,0.7000000000000001,9.4,0.5,4.3999999999999995,-4.1000000000000005,-0.9
1698673077.707,16,0.0,-0.1,0.1,0.7000000000000001,9.3,0.4,2.5,-3.3000000000000003,-2.6
1698673077.725,16,0.1,0.0,0.1,0.7000000000000001,9.4,0.4,1.7,-3.1,-3.4
1698673077.74,16,0.2,0.0,0.0,0.8,9.4,0.30000000000000004,0.30000000000000004,-1.3,-4.3999999999999995
1698673077.757,16,0.2,-0.1,0.1,0.8,9.3,0.4,-0.30000000000000004,-1.0,-4.0
1698673077.774,16,0.2,0.0,0.0,0.8,9.4,0.30000000000000004,-0.2,-0.5,-3.7000000000000006
1698673077.791,16,0.1,0.1,0.0,0.7000000000000001,9.5,0.30000000000000004,0.0,1.8,-3.0000000000000004
1698673077.807,16,0.0,0.1,-0.1,0.6000000000000001,9.5,0.2,0.5,2.9,-1.5000000000000002
1698673077.824,16,0.0,0.1,-0.1,0.6000000000000001,9.5,0.2,0.6000000000000001,2.8,-0.8
1698673077.84,16,-0.1,0.2,-0.2,0.5,9.700000000000001,0.1,0.6000000000000001,2.8,-0.1
1698673077.857,16,-0.1,0.30000000000000004,-0.30000000000000004,0.5,9.700000000000001,0.0,-0.8,2.1,-0.1
1698673077.874,16,-0.1,0.30000000000000004,-0.30000000000000004,0.5,9.700000000000001,0.0,-1.8,1.6,0.1
1698673077.89,16,-0.2,0.2,-0.30000000000000004,0.4,9.600000000000001,0.0,-3.5,0.9,-0.1
1698673077.907,16,-0.2,0.1,-0.30000000000000004,0.4,9.5,0.0,-4.300000000000001,0.6000000000000001,-0.5
1698673077.924,16,-0.1,0.0,-0.30000000000000004,0.5,9.5,0.0,-4.2,0.30000000000000004,-0.7
1698673077.941,16,-0.1,-0.1,-0.2,0.5,9.3,0.1,-3.2,-1.5000000000000002,-0.4
1698673077.957,16,-0.1,-0.1,-0.1,0.5,9.3,0.2,-0.7,-2.7,0.1
1698673077.974,16,-0.1,-0.1,-0.1,0.5,9.4,0.2,0.9,-3.1,-0.1
1698673077.991,16,0.0,0.0,0.0,0.6000000000000001,9.4,0.30000000000000004,4.800000000000001,-3.1,0.0
1698673078.008,16,0.1,0.1,0.1,0.7000000000000001,9.5,0.30000000000000004,8.200000000000001,-3.0000000000000004,0.2
1698673078.024,16,0.1,0.0,0.2,0.7000000000000001,9.5,0.4,9.700000000000001,-2.4000000000000004,0.2
1698673078.041,16,0.1,0.1,0.2,0.7000000000000001,9.5,0.4,9.5,-1.9,0.4
1698673078.057,16,0.1,0.1,0.2,0.7000000000000001,9.5,0.4,7.300000000000001,-0.8,0.7
1698673078.075,16,0.1,0.1,0.1,0.7000000000000001,9.5,0.30000000000000004,5.4,-0.5,0.6000000000000001
1698673078.09,16,0.1,0.0,0.1,0.7000000000000001,9.5,0.30000000000000004,0.30000000000000004,0.4,0.1
1698673078.107,16,0.0,0.0,0.0,0.7000000000000001,9.4,0.2,-4.5,1.5000000000000002,-0.1
1698673078.124,16,0.0,0.0,0.0,0.6000000000000001,9.4,0.2,-8.0,1.7,-0.4
1698673078.141,16,-0.1,0.0,-0.1,0.6000000000000001,9.4,0.2,-9.0,2.3000000000000003,-0.5
1698673078.157,16,0.0,-0.1,-0.1,0.6000000000000001,9.4,0.1,-9.5,2.6,-1.0999999999999999
1698673078.174,16,0.0,0.0,-0.1,0.6000000000000001,9.4,0.2,-8.5,2.3000000000000003,-1.2000000000000002
1698673078.191,16,-0.1,0.0,-0.1,0.5,9.5,0.2,-5.500000000000001,1.9,-0.6000000000000001
1698673078.207,16,-0.1,0.0,-0.1,0.5,9.5,0.2,-3.5,1.5000000000000002,0.0
1698673078.224,16,-0.1,0.0,-0.1,0.5,9.4,0.2,-1.5000000000000002,1.0,0.2
1698673078.241,16,0.0,0.0,-0.1,0.6000000000000001,9.5,0.2,2.4000000000000004,0.5,0.4
1698673078.257,16,0.0,0.0,0.0,0.5,9.4,0.30000000000000004,6.2,0.2,1.0999999999999999
1698673078.274,16,0.0,0.0,0.1,0.5,9.5,0.30000000000000004,8.5,-0.30000000000000004,1.3
1698673078.291,16,0.0,0.0,0.1,0.6000000000000001,9.4,0.30000000000000004,8.799999999999999,-0.30000000000000004,1.2000000000000002
1698673078.307,16,0.0,0.0,0.1,0.6000000000000001,9.4,0.30000000000000004,8.200000000000001,0.30000000000000004,1.0
1698673078.324,16,0.0,0.0,0.1,0.6000000000000001,9.5,0.30000000000000004,7.2,0.4,1.0999999999999999
1698673078.341,16,0.0,0.0,0.1,0.6000000000000001,9.4,0.30000000000000004,4.1000000000000005,0.2,1.3
1698673078.357,16,0.0,0.0,0.1,0.6000000000000001,9.5,0.30000000000000004,0.30000000000000004,-0.2,0.6000000000000001
1698673078.374,16,0.0,0.1,0.1,0.6000000000000001,9.5,0.30000000000000004,-1.6,0.30000000000000004,0.2
1698673078.391,16,0.1,0.0,0.1,0.7000000000000001,9.5,0.30000000000000004,-4.3999999999999995,0.9,-0.4
1698673078.407,16,0.1,0.0,0.0,0.7000000000000001,9.5,0.2,-5.8,1.2000000000000002,-0.5
1698673078.424,16,0.0,0.0,-0.1,0.6000000000000001,9.4,0.2,-5.7,1.0999999999999999,-0.30000000000000004
1698673078.441,16,0.0,0.0,-0.1,0.6000000000000001,9.5,0.2,-5.2,0.7,0.2
1698673078.458,16,0.0,0.0,-0.1,0.6000000000000001,9.4,0.2,-3.7000000000000006,0.2,0.30000000000000004
1698673078.474,16,0.0,0.0,-0.1,0.6000000000000001,9.4,0.2,-2.8,0.0,0.1
1698673078.492,16,0.0,0.0,-0.1,0.6000000000000001,9.4,0.2,-0.6000000000000001,-0.2,0.1
1698673078.508,16,0.0,0.0,-0.1,0.6000000000000001,9.4,0.2,1.3,-0.30000000000000004,0.1
1698673078.525,16,0.1,0.0,0.0,0.7000000000000001,9.4,0.2,1.9,-0.4,0.4
1698673078.54,16,0.0,0.0,0.0,0.6000000000000001,9.4,0.2,2.7,-1.0999999999999999,0.5
1698673078.558,16,0.0,0.0,0.0,0.6000000000000001,9.5,0.2,3.2,-0.8,0.4
1698673078.574,16,0.0,0.0,0.0,0.6000000000000001,9.5,0.2,2.9,-0.4,0.1
1698673078.591,16,0.0,0.0,0.0,0.6000000000000001,9.5,0.2,2.0,-0.2,-0.1
1698673078.608,16,0.0,0.0,0.0,0.7000000000000001,9.5,0.30000000000000004,1.4,0.0,0.0
1698673078.624,16,0.0,0.0,0.0,0.6000000000000001,9.5,0.30000000000000004,0.8,0.0,0.0
1698673078.641,16,0.0,0.1,0.0,0.6000000000000001,9.5,0.30000000000000004,-0.4,-0.30000000000000004,0.4
1698673078.66,16,0.0,0.0,0.0,0.6000000000000001,9.5,0.2,-1.9,0.1,0.6000000000000001
1698673078.674,16,0.0,0.0,0.0,0.6000000000000001,9.4,0.2,-2.8,-0.30000000000000004,0.4
1698673078.691,16,0.1,0.0,0.0,0.7000000000000001,9.5,0.2,-4.1000000000000005,-0.2,0.0
1698673078.708,16,0.1,0.1,0.0,0.7000000000000001,9.5,0.30000000000000004,-5.0,0.6000000000000001,0.0
1698673078.724,16,0.0,0.2,-0.1,0.7000000000000001,9.700000000000001,0.2,-5.6,2.6,1.0
1698673078.741,16,0.0,0.2,-0.1,0.6000000000000001,9.700000000000001,0.2,-6.000000000000001,2.9,1.7
1698673078.758,16,-0.1,0.1,-0.1,0.5,9.600000000000001,0.2,-7.699999999999999,0.5,3.0000000000000004
1698673078.774,16,-0.2,0.0,-0.1,0.4,9.5,0.2,-7.699999999999999,-1.0999999999999999,3.2
1698673078.791,16,-0.2,0.0,0.0,0.4,9.5,0.30000000000000004,-6.5,-1.6,1.5000000000000002
1698673078.808,16,-0.2,-0.1,0.0,0.4,9.4,0.30000000000000004,-5.4,-1.7,0.30000000000000004
1698673078.824,16,-0.1,-0.1,0.0,0.5,9.3,0.4,-3.1,-3.0000000000000004,-1.0
1698673078.841,16,-0.1,-0.2,0.1,0.6000000000000001,9.3,0.5,-1.0,-4.300000000000001,-1.7
1698673078.86,16,-0.1,-0.2,0.1,0.6000000000000001,9.3,0.5,-0.2,-4.800000000000001,-1.4
1698673078.875,16,-0.1,-0.2,0.1,0.4,9.3,0.5,0.5,-6.3,-0.4
1698673078.891,16,-0.2,-0.1,0.1,0.4,9.4,0.5,0.6000000000000001,-6.7,-0.5
1698673078.907,16,-0.1,0.0,0.2,0.4,9.4,0.5,0.6000000000000001,-6.8,-2.1999999999999997
1698673078.924,16,0.0,-0.1,0.2,0.6000000000000001,9.3,0.6000000000000001,-0.2,-5.500000000000001,-4.300000000000001
1698673078.941,16,0.1,-0.2,0.2,0.7000000000000001,9.3,0.5,-1.0,-4.300000000000001,-5.0
1698673078.958,16,0.4,-0.2,0.1,0.9,9.3,0.5,-3.8,-2.4000000000000004,-4.6000000000000005
1698673078.974,16,0.5,-0.1,0.0,1.1,9.4,0.4,-6.8,-0.4,-2.8
1698673078.991,16,0.5,-0.1,0.0,1.1,9.4,0.4,-7.9,0.6000000000000001,-2.0
1698673079.008,16,0.4,0.0,-0.1,1.0,9.5,0.4,-9.1,2.8,-1.0
1698673079.024,16,0.30000000000000004,0.0,-0.1,0.9,9.5,0.4,-9.0,4.1000000000000005,-1.0999999999999999
1698673079.041,16,0.30000000000000004,0.0,-0.1,0.8,9.5,0.4,-7.9,5.6,-0.7
1698673079.057,16,0.1,0.0,-0.1,0.7000000000000001,9.4,0.4,-4.300000000000001,6.7,0.8
1698673079.074,16,0.0,0.0,-0.1,0.6000000000000001,9.4,0.4,-2.6,6.1000000000000005,1.5000000000000002
1698673079.091,16,-0.2,0.0,-0.1,0.4,9.5,0.4,0.9,5.4,2.3000000000000003
1698673079.107,16,-0.30000000000000004,0.1,-0.1,0.30000000000000004,9.5,0.4,2.5,4.7,2.4000000000000004
1698673079.124,16,-0.4,0.1,-0.1,0.30000000000000004,9.5,0.4,3.9,3.6,2.4000000000000004
1698673079.141,16,-0.4,0.1,0.0,0.2,9.5,0.5,5.8,1.4,2.0
1698673079.158,16,-0.4,0.0,0.0,0.2,9.5,0.5,6.5,-0.4,0.9
1698673079.174,16,-0.30000000000000004,0.0,0.1,0.30000000000000004,9.4,0.5,5.500000000000001,-2.1,-0.5
1698673079.191,16,-0.2,0.0,0.1,0.4,9.4,0.6000000000000001,3.4,-3.8,-0.7
1698673079.207,16,-0.1,0.0,0.1,0.4,9.4,0.5,2.0,-4.0,-0.30000000000000004
1698673079.224,16,0.0,0.0,0.1,0.5,9.5,0.5,-1.4,-4.6000000000000005,-0.4
1698673079.241,16,0.0,0.0,0.1,0.6000000000000001,9.4,0.5,-4.3999999999999995,-4.1000000000000005,-0.9
1698673079.257,16,0.1,0.0,0.1,0.6000000000000001,9.4,0.5,-5.6,-3.6,-1.2000000000000002
1698673079.274,16,0.2,-0.1,0.0,0.7000000000000001,9.4,0.5,-7.300000000000001,-3.2,-1.5000000000000002
1698673079.291,16,0.2,0.0,0.0,0.8,9.4,0.5,-7.699999999999999,-2.1999999999999997,-1.0999999999999999
1698673079.308,16,0.2,-0.1,0.0,0.8,9.3,0.5,-7.500000000000001,-2.0,-0.6000000000000001
1698673079.324,16,0.2,-0.1,0.0,0.7000000000000001,9.4,0.5,-5.9,-1.3,0.0
1698673079.341,16,0.1,-0.1,-0.1,0.7000000000000001,9.4,0.5,-3.7000000000000006,-0.8,0.4
1698673079.358,16,0.1,0.0,0.0,0.7000000000000001,9.4,0.5,-2.1999999999999997,-0.6000000000000001,0.1
1698673079.374,16,0.1,0.0,0.0,0.7000000000000001,9.4,0.5,0.5,0.4,-0.1
1698673079.39,16,0.0,0.0,0.0,0.6000000000000001,9.4,0.5,2.8,1.3,0.1
1698673079.407,16,0.0,0.0,0.0,0.6000000000000001,9.4,0.5,3.6,1.5000000000000002,0.30000000000000004
1698673079.424,16,0.0,0.0,0.0,0.6000000000000001,9.4,0.5,4.5,1.3,0.7
1698673079.441,16,0.0,0.0,0.0,0.5,9.5,0.5,4.2,1.5000000000000002,0.6000000000000001
1698673079.457,16,-0.1,0.0,0.0,0.6000000000000001,9.5,0.5,3.2,1.0999999999999999,0.6000000000000001
1698673079.474,16,0.0,0.1,0.0,0.6000000000000001,9.5,0.5,3.2,1.0999999999999999,0.6000000000000001
1698673079.491,16,-0.1,0.0,0.0,0.5,9.5,0.5,0.9,0.6000000000000001,0.2
1698673079.507,16,-0.1,0.0,0.0,0.5,9.5,0.5,0.1,0.4,-0.1
1698673079.524,16,0.0,0.0,0.0,0.5,9.4,0.5,-0.7,0.30000000000000004,-0.5
1698673079.541,16,0.0,0.0,0.0,0.6000000000000001,9.4,0.5,-1.0,0.1,-0.1
1698673079.557,16,0.0,0.0,0.0,0.6000000000000001,9.4,0.5,-1.0,0.1,0.1
1698673079.575,16,0.0,0.0,0.0,0.5,9.4,0.5,-0.5,0.30000000000000004,0.6000000000000001
1698673079.591,16,-0.1,0.0,0.0,0.5,9.5,0.5,0.1,-0.2,0.5
1698673079.607,16,0.0,0.0,0.0,0.6000000000000001,9.5,0.5,0.4,-0.8,0.1
1698673079.624,16,0.0,0.0,0.0,0.6000000000000001,9.4,0.5,0.6000000000000001,-0.8,0.1
1698673079.641,16,0.0,0.0,0.0,0.6000000000000001,9.4,0.5,1.2000000000000002,-0.30000000000000004,0.30000000000000004
1698673079.658,16,0.0,0.0,0.0,0.6000000000000001,9.4,0.5,1.3,-0.4,0.4
1698673079.675,16,0.0,0.0,0.0,0.6000000000000001,9.4,0.5,1.3,-0.6000000000000001,0.2
1698673079.69,16,0.0,0.0,0.0,0.6000000000000001,9.4,0.5,1.3,-0.4,0.30000000000000004
1698673079.707,16,0.0,0.0,0.0,0.6000000000000001,9.4,0.5,0.9,-0.8,0.5
1698673079.724,16,0.0,0.0,0.0,0.6000000000000001,9.5,0.5,0.9,-0.6000000000000001,0.2
1698673079.74,16,0.0,0.0,0.0,0.6000000000000001,9.4,0.5,0.9,-0.5,0.0
1698673079.757,16,0.0,0.0,0.0,0.6000000000000001,9.4,0.5,0.8,-0.5,-0.1
1698673079.774,16,0.0,0.0,0.0,0.6000000000000001,9.4,0.5,0.9,0.0,0.1
1698673079.79,16,0.0,0.0,0.0,0.6000000000000001,9.4,0.5,1.0,0.0,0.1
1698673079.807,16,0.0,0.0,0.0,0.6000000000000001,9.4,0.5,1.4,0.5,-0.1
1698673079.824,16,0.0,0.0,0.0,0.6000000000000001,9.4,0.4,1.4,0.4,0.4
1698673079.841,16,0.0,0.0,0.0,0.6000000000000001,9.4,0.4,1.0999999999999999,0.30000000000000004,0.4
1698673079.858,16,0.0,0.0,0.0,0.6000000000000001,9.5,0.4,0.8,0.0,0.30000000000000004
1698673079.874,16,-0.1,0.0,0.0,0.5,9.5,0.4,0.6000000000000001,-0.30000000000000004,-0.2
1698673079.894,16,0.0,0.0,0.0,0.6000000000000001,9.5,0.4,0.4,0.0,-0.30000000000000004
1698673079.907,16,0.0,0.1,0.0,0.6000000000000001,9.5,0.4,0.1,0.0,-0.4
1698673079.924,16,0.0,0.1,-0.1,0.6000000000000001,9.5,0.4,-0.1,0.7,-0.2
1698673079.94,16,-0.1,0.0,0.0,0.5,9.4,0.5,0.2,0.2,0.2
1698673079.957,16,-0.1,-0.1,0.0,0.5,9.4,0.5,0.8,0.1,-0.2
1698673079.974,16,-0.1,-0.1,0.0,0.5,9.4,0.5,1.0,-0.1,-0.5
1698673079.991,16,0.0,-0.2,0.1,0.6000000000000001,9.200000000000001,0.5,1.5000000000000002,-1.0999999999999999,-1.3
1698673080.007,16,0.1,-0.2,0.1,0.7000000000000001,9.200000000000001,0.5,2.6,-0.8,-0.4
1698673080.024,16,0.1,-0.2,0.1,0.7000000000000001,9.200000000000001,0.5,2.6,-0.8,-0.4
1698673080.041,16,0.1,0.1,0.0,0.7000000000000001,9.5,0.5,3.1,-0.9,0.7
1698673080.057,16,0.1,0.1,0.0,0.7000000000000001,9.5,0.4,2.9,-0.7,0.6000000000000001
1698673080.074,16,0.1,0.1,0.0,0.7000000000000001,9.5,0.4,3.0000000000000004,-0.2,0.5
1698673080.091,16,0.0,0.1,0.0,0.6000000000000001,9.600000000000001,0.4,2.8,1.0999999999999999,0.7
1698673080.107,16,-0.1,0.0,-0.1,0.5,9.5,0.30000000000000004,1.9,1.6,1.0
1698673080.124,16,-0.1,0.0,-0.1,0.5,9.5,0.30000000000000004,0.9,0.7,0.7
1698673080.141,16,-0.1,0.0,-0.1,0.5,9.4,0.30000000000000004,0.4,0.6000000000000001,0.1
1698673080.157,16,0.0,0.0,-0.1,0.6000000000000001,9.5,0.30000000000000004,-0.30000000000000004,0.2,0.0
1698673080.174,16,0.0,0.0,-0.1,0.6000000000000001,9.4,0.30000000000000004,-0.30000000000000004,-0.5,-0.1
1698673080.191,16,0.0,0.0,0.0,0.6000000000000001,9.4,0.4,0.30000000000000004,-0.30000000000000004,-0.4
1698673080.207,16,0.1,0.0,0.0,0.7000000000000001,9.4,0.4,1.5000000000000002,0.6000000000000001,-0.2
1698673080.224,16,0.1,0.0,0.0,0.7000000000000001,9.5,0.4,2.1999999999999997,0.9,0.1
1698673080.241,16,0.0,0.0,0.0,0.7000000000000001,9.5,0.4,3.4,1.3,1.0
1698673080.257,16,0.0,0.1,0.0,0.6000000000000001,9.5,0.4,3.7000000000000006,0.8,1.5000000000000002
1698673080.274,16,0.0,0.1,0.0,0.6000000000000001,9.5,0.30000000000000004,3.6,0.9,1.5000000000000002
1698673080.291,16,-0.1,0.0,0.0,0.6000000000000001,9.5,0.4,2.3000000000000003,0.1,1.3
1698673080.307,16,-0.1,0.0,0.0,0.5,9.5,0.30000000000000004,1.2000000000000002,0.4,0.9
1698673080.324,16,0.0,0.0,0.0,0.6000000000000001,9.5,0.30000000000000004,0.6000000000000001,0.7,0.5
1698673080.341,16,0.0,-0.1,0.0,0.6000000000000001,9.4,0.30000000000000004,-0.6000000000000001,0.4,0.2
1698673080.358,16,0.0,-0.1,0.0,0.6000000000000001,9.4,0.30000000000000004,-1.0,0.6000000000000001,0.7
1698673080.374,16,0.0,0.0,0.0,0.6000000000000001,9.4,0.30000000000000004,-0.9,0.30000000000000004,0.6000000000000001
1698673080.391,16,0.0,0.0,0.0,0.7000000000000001,9.4,0.30000000000000004,-0.2,0.30000000000000004,0.2
1698673080.407,16,0.1,0.0,0.0,0.7000000000000001,9.5,0.4,0.4,0.6000000000000001,0.1
1698673080.424,16,0.1,0.0,0.0,0.7000000000000001,9.5,0.4,1.6,0.7,0.2
1698673080.441,16,0.0,0.0,0.0,0.7000000000000001,9.5,0.30000000000000004,2.8,1.4,0.8
1698673080.458,16,0.0,0.0,0.0,0.7000000000000001,9.5,0.30000000000000004,2.9,1.4,1.2000000000000002
1698673080.474,16,0.0,0.0,0.0,0.6000000000000001,9.5,0.30000000000000004,2.6,1.2000000000000002,1.2000000000000002
1698673080.491,16,0.0,0.1,0.0,0.6000000000000001,9.5,0.30000000000000004,2.1,0.9,1.2000000000000002
1698673080.508,16,-0.1,0.0,0.0,0.6000000000000001,9.5,0.30000000000000004,1.0999999999999999,0.4,1.2000000000000002
1698673080.524,16,-0.1,0.0,0.0,0.5,9.4,0.30000000000000004,-0.30000000000000004,0.0,0.2
1698673080.541,16,-0.1,0.0,0.0,0.6000000000000001,9.4,0.30000000000000004,-1.7,-0.5,-0.2
1698673080.558,16,0.0,0.0,0.0,0.6000000000000001,9.4,0.30000000000000004,-2.3000000000000003,-0.30000000000000004,0.0
1698673080.575,16,0.0,0.0,0.0,0.6000000000000001,9.4,0.30000000000000004,-2.1,-0.6000000000000001,0.30000000000000004
1698673080.591,16,0.0,0.0,0.0,0.6000000000000001,9.5,0.30000000000000004,-1.7,-0.7,0.4
1698673080.607,16,0.0,0.0,0.0,0.6000000000000001,9.4,0.30000000000000004,-0.6000000000000001,-1.2000000000000002,0.30000000000000004
1698673080.624,16,0.0,0.0,0.0,0.7000000000000001,9.4,0.30000000000000004,0.7,-1.3,0.1
1698673080.641,16,0.1,0.0,0.0,0.7000000000000001,9.4,0.30000000000000004,1.0999999999999999,-1.0999999999999999,0.0
1698673080.658,16,0.1,0.0,0.0,0.7000000000000001,9.4,0.4,2.0,-0.5,0.0
1698673080.674,16,0.1,0.0,0.0,0.8,9.4,0.4,2.1,-0.1,0.1
1698673080.69,16,0.1,0.0,0.0,0.7000000000000001,9.4,0.30000000000000004,1.9,0.6000000000000001,0.5
1698673080.708,16,0.0,0.0,0.0,0.7000000000000001,9.4,0.30000000000000004,1.0999999999999999,1.0999999999999999,0.7
1698673080.724,16,0.0,0.0,0.0,0.7000000000000001,9.4,0.30000000000000004,0.6000000000000001,1.2000000000000002,0.7
1698673080.741,16,0.0,0.0,0.0,0.6000000000000001,9.5,0.30000000000000004,-0.5,1.0,0.2
1698673080.758,16,0.0,0.0,0.0,0.6000000000000001,9.4,0.30000000000000004,-1.2000000000000002,1.2000000000000002,-0.1
1698673080.774,16,0.0,0.0,0.0,0.6000000000000001,9.4,0.30000000000000004,-1.5000000000000002,1.2000000000000002,-0.2
1698673080.791,16,0.0,0.0,0.0,0.6000000000000001,9.4,0.30000000000000004,-1.6,0.9,-0.2
1698673080.807,16,0.0,0.0,0.0,0.7000000000000001,9.4,0.30000000000000004,-1.5000000000000002,0.6000000000000001,-0.30000000000000004
1698673080.824,16,0.0,0.0,0.0,0.7000000000000001,9.4,0.30000000000000004,-0.8,0.6000000000000001,-0.1
1698673080.84,16,0.0,0.0,0.0,0.6000000000000001,9.4,0.30000000000000004,0.1,0.5,0.2
1698673080.857,16,-0.1,0.0,0.0,0.6000000000000001,9.4,0.30000000000000004,0.9,0.2,0.4
1698673080.875,16,0.0,0.0,0.0,0.6000000000000001,9.4,0.30000000000000004,1.8,0.0,0.1
1698673080.891,16,0.0,0.0,0.0,0.7000000000000001,9.4,0.30000000000000004,2.0,0.30000000000000004,0.0
1698673080.908,16,0.0,0.0,0.0,0.7000000000000001,9.5,0.30000000000000004,2.1999999999999997,0.2,0.5
1698673080.924,16,0.0,0.0,0.1,0.6000000000000001,9.4,0.4,1.8,-0.1,0.4
1698673080.941,16,0.0,0.0,0.0,0.6000000000000001,9.4,0.30000000000000004,1.4,0.1,0.4
1698673080.958,16,0.0,0.0,0.0,0.7000000000000001,9.4,0.30000000000000004,0.4,0.4,0.1
1698673080.974,16,0.0,0.0,0.0,0.6000000000000001,9.4,0.30000000000000004,-0.6000000000000001,0.9,0.1
1698673080.99,16,0.0,0.0,0.0,0.7000000000000001,9.4,0.30000000000000004,-1.3,0.4,0.2
1698673081.007,16,0.0,0.0,0.0,0.6000000000000001,9.4,0.30000000000000004,-1.4,0.30000000000000004,0.4
1698673081.024,16,0.0,0.0,0.0,0.6000000000000001,9.4,0.30000000000000004,-1.2000000000000002,0.0,0.4
1698673081.041,16,0.0,0.0,0.0,0.6000000000000001,9.4,0.30000000000000004,-0.8,-0.1,0.2
1698673081.058,16,0.0,-0.1,0.0,0.7000000000000001,9.4,0.30000000000000004,0.1,-0.7,-0.1
1698673081.074,16,0.0,0.0,0.0,0.6000000000000001,9.4,0.30000000000000004,0.7,-0.6000000000000001,-0.1
1698673081.09,16,0.0,0.0,0.0,0.7000000000000001,9.4,0.30000000000000004,2.1,0.1,0.1
1698673081.108,16,0.0,0.0,0.0,0.7000000000000001,9.4,0.30000000000000004,2.1999999999999997,0.30000000000000004,0.1
1698673081.124,16,0.0,0.0,0.0,0.7000000000000001,9.4,0.30000000000000004,2.1999999999999997,0.30000000000000004,0.5
1698673081.141,16,0.0,0.0,0.0,0.7000000000000001,9.5,0.30000000000000004,1.7,0.4,0.5
1698673081.157,16,0.0,0.0,0.0,0.6000000000000001,9.4,0.30000000000000004,1.3,0.4,0.4
1698673081.174,16,0.0,0.0,0.0,0.6000000000000001,9.4,0.30000000000000004,0.9,0.6000000000000001,0.4
1698673081.191,16,0.0,0.0,0.0,0.7000000000000001,9.4,0.30000000000000004,-0.30000000000000004,0.5,0.1
1698673081.208,16,0.0,0.0,0.0,0.7000000000000001,9.4,0.30000000000000004,-0.6000000000000001,0.5,-0.1
1698673081.224,16,0.0,0.0,0.0,0.7000000000000001,9.4,0.30000000000000004,-0.9,0.30000000000000004,0.0
1698673081.241,16,0.0,0.0,0.0,0.7000000000000001,9.4,0.30000000000000004,-1.0,0.30000000000000004,-0.1
1698673081.257,16,0.0,0.0,0.0,0.7000000000000001,9.5,0.30000000000000004,-1.0,0.5,-0.1
1698673081.274,16,0.0,0.0,0.0,0.6000000000000001,9.5,0.30000000000000004,-0.9,0.4,0.1
1698673081.291,16,0.0,0.0,0.0,0.6000000000000001,9.4,0.30000000000000004,-0.4,0.1,0.2
1698673081.307,16,0.0,0.0,0.0,0.6000000000000001,9.4,0.30000000000000004,0.2,0.0,0.0
1698673081.324,16,0.0,0.0,0.0,0.6000000000000001,9.4,0.30000000000000004,0.8,-0.4,0.0
1698673081.341,16,0.0,0.0,0.0,0.7000000000000001,9.4,0.30000000000000004,1.2000000000000002,-0.2,0.2
1698673081.358,16,0.0,0.0,0.0,0.6000000000000001,9.4,0.30000000000000004,1.2000000000000002,-0.2,0.2
1698673081.374,16,0.0,0.0,0.0,0.7000000000000001,9.4,0.30000000000000004,1.0999999999999999,0.0,-0.1
1698673081.39,16,0.0,0.0,0.0,0.7000000000000001,9.4,0.30000000000000004,1.0,0.0,-0.2
1698673081.407,16,0.0,0.0,0.0,0.7000000000000001,9.5,0.30000000000000004,0.4,0.1,-0.2
1698673081.424,16,0.0,0.1,0.0,0.7000000000000001,9.5,0.30000000000000004,-0.30000000000000004,0.7,-0.1
1698673081.442,16,0.0,0.0,0.0,0.7000000000000001,9.5,0.30000000000000004,-1.0,0.5,-0.1
1698673081.458,16,0.0,0.0,0.0,0.6000000000000001,9.5,0.30000000000000004,-1.0999999999999999,0.5,-0.2
1698673081.475,16,0.0,0.0,0.0,0.6000000000000001,9.4,0.30000000000000004,-1.3,0.7,-0.2
1698673081.491,16,0.0,0.0,0.0,0.6000000000000001,9.4,0.30000000000000004,-1.2000000000000002,0.7,-0.4
1698673081.507,16,0.0,0.0,0.0,0.7000000000000001,9.4,0.30000000000000004,-1.0,0.5,-0.5
1698673081.524,16,0.1,0.1,0.0,0.7000000000000001,9.5,0.30000000000000004,-0.7,1.0999999999999999,-0.5
1698673081.541,16,0.0,0.0,0.0,0.7000000000000001,9.5,0.30000000000000004,-0.4,1.2000000000000002,-0.4
1698673081.558,16,0.0,0.0,0.0,0.6000000000000001,9.4,0.30000000000000004,-0.30000000000000004,1.0,0.4
1698673081.574,16,0.0,0.0,0.0,0.6000000000000001,9.4,0.30000000000000004,0.0,0.7,0.4
1698673081.591,16,-0.1,0.0,0.0,0.6000000000000001,9.4,0.30000000000000004,0.1,0.6000000000000001,0.1
1698673081.608,16,-0.1,0.0,0.0,0.6000000000000001,9.5,0.30000000000000004,0.1,0.30000000000000004,0.2
1698673081.624,16,0.0,0.0,0.0,0.6000000000000001,9.4,0.30000000000000004,-0.2,-0.4,0.1
1698673081.641,16,0.0,0.0,0.0,0.7000000000000001,9.5,0.30000000000000004,-0.5,-0.7,-0.2
1698673081.658,16,0.0,0.0,0.0,0.7000000000000001,9.4,0.30000000000000004,-0.7,-0.9,-0.4
1698673081.674,16,0.0,0.0,0.0,0.7000000000000001,9.4,0.30000000000000004,-0.7,-0.5,0.1
1698673081.692,16,0.0,-0.1,0.0,0.7000000000000001,9.4,0.30000000000000004,-0.5,-0.5,0.5
1698673081.707,16,0.0,-0.1,0.0,0.6000000000000001,9.4,0.30000000000000004,-0.2,-0.5,0.4
1698673081.724,16,0.0,0.0,0.0,0.7000000000000001,9.4,0.30000000000000004,-0.2,-0.2,0.30000000000000004
1698673081.741,16,0.0,0.1,0.0,0.7000000000000001,9.5,0.30000000000000004,-0.30000000000000004,-0.6000000000000001,-0.2
1698673081.757,16,0.0,0.1,0.0,0.7000000000000001,9.5,0.30000000000000004,-0.30000000000000004,-0.4,-0.5
1698673081.774,16,0.0,0.0,0.0,0.6000000000000001,9.5,0.30000000000000004,-0.7,0.2,-0.2
1698673081.79,16,0.0,0.0,0.0,0.6000000000000001,9.5,0.30000000000000004,-1.0999999999999999,-0.8,0.7
1698673081.807,16,0.0,0.0,0.0,0.6000000000000001,9.5,0.30000000000000004,-1.5000000000000002,-1.0,0.7
1698673081.824,16,0.0,0.0,0.0,0.6000000000000001,9.5,0.30000000000000004,-1.9,-1.3,0.0
1698673081.841,16,0.0,0.0,0.0,0.7000000000000001,9.5,0.30000000000000004,-1.7,-1.6,-1.0
1698673081.857,16,0.1,0.0,0.0,0.7000000000000001,9.4,0.30000000000000004,-1.8,-1.7,-1.6
1698673081.874,16,0.1,0.0,0.0,0.8,9.4,0.30000000000000004,-1.8,-1.2000000000000002,-2.6
1698673081.891,16,0.1,0.0,0.0,0.8,9.5,0.30000000000000004,-1.6,-0.5,-2.6
1698673081.907,16,0.1,0.0,0.0,0.8,9.5,0.30000000000000004,-2.1,0.2,-2.3000000000000003
1698673081.924,16,0.1,0.0,0.0,0.7000000000000001,9.4,0.30000000000000004,-2.1999999999999997,0.4,-1.9
1698673081.941,16,0.0,0.0,0.0,0.6000000000000001,9.4,0.30000000000000004,-2.5,0.2,-1.4
1698673081.957,16,0.0,0.0,0.0,0.6000000000000001,9.4,0.4,-2.4000000000000004,0.4,-1.3
1698673081.974,16,-0.1,-0.1,0.0,0.5,9.3,0.4,-2.0,-0.30000000000000004,-1.2000000000000002
1698673081.991,16,-0.1,-0.1,0.1,0.5,9.4,0.4,-1.0999999999999999,-1.3,-1.2000000000000002
1698673082.007,16,-0.1,-0.1,0.0,0.5,9.3,0.4,-0.6000000000000001,-1.6,-2.0
1698673082.024,16,-0.1,-0.1,0.1,0.5,9.3,0.5,-0.2,-1.8,-2.3000000000000003
1698673082.041,16,0.0,-0.1,0.1,0.6000000000000001,9.3,0.5,0.8,-0.8,-2.9
1698673082.057,16,0.2,0.0,0.1,0.7000000000000001,9.3,0.5,0.9,-0.1,-3.0000000000000004
1698673082.074,16,0.2,0.0,0.1,0.8,9.4,0.4,0.6000000000000001,1.3,-1.8
1698673082.09,16,0.1,0.0,0.1,0.7000000000000001,9.4,0.4,-0.1,1.5000000000000002,-0.1
1698673082.107,16,0.0,0.0,0.0,0.6000000000000001,9.4,0.4,-0.5,2.5,0.7
1698673082.124,16,-0.1,0.0,0.0,0.4,9.4,0.4,-0.5,2.1999999999999997,1.3
1698673082.14,16,-0.2,0.0,-0.1,0.4,9.5,0.30000000000000004,-0.6000000000000001,1.9,1.7
1698673082.157,16,-0.2,0.1,0.0,0.4,9.5,0.4,-0.8,0.30000000000000004,0.30000000000000004
1698673082.174,16,-0.1,0.0,0.0,0.5,9.4,0.4,-0.6000000000000001,0.4,-1.0
1698673082.19,16,0.1,0.0,0.0,0.6000000000000001,9.4,0.4,-0.2,-0.30000000000000004,-1.8
1698673082.207,16,0.1,0.0,0.0,0.7000000000000001,9.4,0.4,0.0,0.0,-1.0
1698673082.224,16,0.1,0.1,0.0,0.6000000000000001,9.5,0.4,-0.2,0.30000000000000004,-0.6000000000000001
1698673082.241,16,-0.1,0.1,-0.1,0.5,9.5,0.30000000000000004,-0.9,0.30000000000000004,-0.30000000000000004
1698673082.257,16,-0.1,0.1,-0.1,0.5,9.5,0.30000000000000004,-1.7,-0.4,-1.0
1698673082.274,16,-0.1,0.1,-0.1,0.5,9.5,0.30000000000000004,-2.1,-0.7,-1.3
1698673082.29,16,0.0,0.0,-0.1,0.5,9.4,0.30000000000000004,-2.5,-1.3,-1.6
1698673082.307,16,0.0,0.0,-0.1,0.6000000000000001,9.4,0.4,-2.6,-2.3000000000000003,-1.6
1698673082.324,16,0.0,0.0,0.0,0.6000000000000001,9.4,0.4,-2.5,-2.4000000000000004,-2.0
1698673082.341,16,0.1,0.0,0.0,0.6000000000000001,9.4,0.4,-1.9,-1.6,-2.7
1698673082.357,16,0.1,0.0,0.0,0.6000000000000001,9.4,0.4,-1.3,-1.0,-2.3000000000000003
1698673082.374,16,0.1,0.0,0.0,0.7000000000000001,9.4,0.4,-1.2000000000000002,-1.3,-1.9
1698673082.39,16,0.0,-0.1,0.1,0.6000000000000001,9.4,0.5,-0.4,-1.3,-1.6
1698673082.407,16,0.0,0.0,0.0,0.5,9.4,0.4,0.5,-0.2,-2.0
1698673082.424,16,0.0,0.0,0.0,0.5,9.4,0.5,0.6000000000000001,-1.0,-2.1
1698673082.441,16,0.0,0.0,0.0,0.5,9.4,0.5,0.5,-1.0999999999999999,-2.3000000000000003
1698673082.457,16,0.0,0.0,0.0,0.6000000000000001,9.4,0.5,0.0,-0.5,-2.9
1698673082.474,16,0.0,0.0,0.0,0.5,9.4,0.4,-0.5,-0.5,-2.9
1698673082.491,16,0.0,0.0,0.0,0.5,9.5,0.5,-1.4,-0.4,-2.4000000000000004
1698673082.507,16,-0.1,0.1,0.0,0.4,9.5,0.4,-2.1999999999999997,0.30000000000000004,-1.9
1698673082.524,16,-0.1,0.0,0.0,0.4,9.5,0.4,-2.7,0.2,-1.7
1698673082.541,16,-0.1,0.0,-0.1,0.4,9.4,0.4,-3.2,0.30000000000000004,-1.3
1698673082.557,16,-0.1,0.0,0.0,0.30000000000000004,9.4,0.4,-2.8,-0.4,-1.2000000000000002
1698673082.574,16,-0.1,0.0,-0.1,0.4,9.5,0.4,-1.9,-1.3,-0.9
1698673082.591,16,-0.1,0.1,0.0,0.4,9.5,0.4,-1.2000000000000002,-1.8,-1.2000000000000002
1698673082.607,16,0.0,0.0,0.0,0.5,9.5,0.5,0.0,-2.1,-1.8
1698673082.626,16,0.0,0.0,0.0,0.5,9.4,0.5,0.6000000000000001,-1.9,-1.4
1698673082.641,16,0.0,0.0,0.0,0.5,9.4,0.5,0.8,-2.1,-1.0
1698673082.657,16,0.2,-0.1,0.1,0.6000000000000001,9.4,0.6000000000000001,1.2000000000000002,-1.0999999999999999,-1.3
1698673082.674,16,0.2,-0.1,0.1,0.6000000000000001,9.4,0.6000000000000001,1.2000000000000002,0.1,-1.6
1698673082.691,16,0.1,-0.1,0.1,0.6000000000000001,9.4,0.5,0.7,1.4,-0.9
1698673082.707,16,0.1,0.0,0.1,0.5,9.4,0.5,-0.4,1.4,0.8
1698673082.724,16,0.0,0.0,0.0,0.5,9.4,0.5,-0.9,1.2000000000000002,0.9
1698673082.74,16,-0.1,0.0,0.1,0.4,9.4,0.5,-1.8,0.8,0.1
1698673082.757,16,-0.1,0.1,-0.1,0.4,9.5,0.4,-2.7,1.2000000000000002,-0.30000000000000004
1698673082.775,16,-0.1,0.1,-0.1,0.30000000000000004,9.5,0.4,-3.1,1.0999999999999999,-0.4
1698673082.791,16,-0.1,0.1,-0.1,0.30000000000000004,9.600000000000001,0.4,-3.3000000000000003,-0.4,-0.2
1698673082.808,16,-0.1,0.0,-0.1,0.4,9.5,0.4,-2.7,-1.0,-0.9
1698673082.824,16,0.0,-0.1,-0.1,0.4,9.4,0.4,-1.9,-1.0,-1.0
1698673082.841,16,-0.1,-0.1,-0.1,0.4,9.4,0.4,-1.7,-1.4,-0.5
1698673082.857,16,-0.1,0.0,-0.1,0.30000000000000004,9.5,0.4,-1.0999999999999999,-1.7,0.30000000000000004
1698673082.874,16,-0.1,0.1,-0.1,0.4,9.5,0.4,-0.7,-2.1999999999999997,0.1
1698673082.89,16,0.0,0.1,-0.1,0.4,9.600000000000001,0.4,-0.5,-2.4000000000000004,-0.2
1698673082.907,16,0.0,0.2,-0.1,0.4,9.600000000000001,0.4,-0.4,-2.3000000000000003,-0.4
1698673082.924,16,0.1,0.0,0.0,0.5,9.5,0.5,-0.2,-3.2,-0.30000000000000004
1698673082.941,16,0.2,-0.1,0.0,0.6000000000000001,9.4,0.5,0.30000000000000004,-2.6,-0.7
1698673082.957,16,0.2,-0.1,0.1,0.7000000000000001,9.3,0.6000000000000001,1.3,-0.5,-1.5000000000000002
1698673082.975,16,0.2,-0.1,0.1,0.7000000000000001,9.3,0.6000000000000001,1.5000000000000002,0.30000000000000004,-0.1
1698673082.991,16,0.1,0.0,0.1,0.6000000000000001,9.4,0.6000000000000001,1.4,0.7,0.9
1698673083.007,16,0.0,0.1,0.0,0.5,9.5,0.5,0.8,2.0,1.7
1698673083.024,16,-0.1,0.1,0.0,0.4,9.5,0.5,-0.5,2.0,1.2000000000000002
1698673083.041,16,-0.1,0.1,0.0,0.4,9.5,0.5,-1.3,1.7,1.0
1698673083.058,16,-0.1,0.0,0.0,0.30000000000000004,9.5,0.5,-2.7,1.0999999999999999,0.2
1698673083.074,16,-0.1,0.0,0.0,0.4,9.5,0.5,-3.7000000000000006,0.7,-0.4
1698673083.092,16,0.0,0.0,0.0,0.4,9.5,0.5,-3.9,0.6000000000000001,-0.7
1698673083.107,16,0.0,0.0,-0.1,0.5,9.4,0.5,-3.6,0.6000000000000001,-0.5
1698673083.124,16,0.0,0.0,0.0,0.4,9.4,0.5,-2.4000000000000004,0.1,-0.1
1698673083.141,16,0.0,0.0,0.0,0.4,9.4,0.5,-1.6,-0.1,0.1
1698673083.158,16,0.0,0.0,0.0,0.4,9.4,0.6000000000000001,-0.1,-0.1,0.4
1698673083.175,16,0.0,0.0,0.0,0.5,9.4,0.6000000000000001,1.2000000000000002,-0.2,0.5
1698673083.19,16,0.0,0.0,0.1,0.5,9.4,0.6000000000000001,1.9,0.2,0.7
1698673083.207,16,0.0,0.0,0.1,0.5,9.4,0.6000000000000001,2.0,0.30000000000000004,0.7
1698673083.224,16,0.0,0.0,0.0,0.5,9.5,0.6000000000000001,1.9,0.1,1.0
1698673083.241,16,0.0,0.0,0.0,0.4,9.5,0.5,0.9,0.4,0.9
1698673083.257,16,0.0,0.0,0.0,0.4,9.5,0.5,0.0,0.0,0.7
1698673083.274,16,0.0,0.0,0.0,0.4,9.4,0.5,-1.4,0.4,0.4
1698673083.291,16,0.0,0.0,0.0,0.5,9.4,0.5,-2.4000000000000004,0.2,0.2
1698673083.307,16,0.0,0.0,0.0,0.5,9.4,0.5,-2.7,0.30000000000000004,0.2
1698673083.323,16,0.0,-0.1,-0.1,0.5,9.4,0.5,-2.7,-0.4,0.1
1698673083.341,16,0.0,-0.1,0.0,0.5,9.4,0.5,-1.3,0.30000000000000004,0.0
1698673083.357,16,0.1,0.0,0.0,0.5,9.4,0.5,-0.4,0.5,0.0
1698673083.374,16,0.1,0.0,0.0,0.5,9.4,0.5,1.7,1.0999999999999999,0.5
1698673083.39,16,0.0,0.0,0.0,0.4,9.4,0.6000000000000001,3.4,1.0999999999999999,1.2000000000000002
1698673083.407,16,-0.1,0.0,0.0,0.4,9.4,0.5,4.0,0.9,1.3
1698673083.424,16,-0.1,0.0,0.1,0.4,9.5,0.6000000000000001,4.3999999999999995,0.6000000000000001,1.3
1698673083.44,16,0.0,0.0,0.0,0.4,9.5,0.5,3.7000000000000006,0.4,0.8
1698673083.457,16,-0.1,0.0,0.0,0.4,9.5,0.5,3.1,0.30000000000000004,0.7
1698673083.475,16,0.0,0.0,0.1,0.4,9.5,0.5,2.3000000000000003,-0.1,0.6000000000000001
1698673083.49,16,0.0,-0.1,0.0,0.5,9.4,0.5,-0.30000000000000004,0.2,0.0
1698673083.507,16,0.0,0.0,0.0,0.5,9.4,0.5,-1.0999999999999999,-0.1,0.0
1698673083.524,16,0.0,0.0,0.0,0.5,9.4,0.5,-2.0,0.0,0.0
1698673083.54,16,0.0,0.0,-0.1,0.5,9.5,0.4,-1.9,0.0,-0.1
1698673083.557,16,0.0,0.0,0.0,0.5,9.4,0.5,-1.5000000000000002,0.0,-0.1
1698673083.574,16,0.0,0.0,0.0,0.5,9.4,0.5,-1.0999999999999999,-0.1,0.0
1698673083.591,16,0.0,0.0,-0.1,0.5,9.4,0.4,0.9,-0.4,0.4
1698673083.607,16,0.0,0.0,0.0,0.4,9.5,0.5,1.6,-0.5,0.2
1698673083.624,16,0.0,0.0,0.0,0.5,9.5,0.5,2.9,-0.9,-0.1
1698673083.64,16,0.0,0.0,0.0,0.5,9.4,0.5,3.6,-0.30000000000000004,0.2
1698673083.657,16,0.0,0.0,0.0,0.5,9.5,0.5,3.5,-0.4,0.2
1698673083.674,16,0.0,0.0,0.0,0.5,9.5,0.5,2.8,-0.1,0.2
1698673083.69,16,0.0,0.0,0.0,0.5,9.4,0.5,2.3000000000000003,-0.2,0.1
1698673083.707,16,0.0,0.0,0.0,0.5,9.4,0.5,0.30000000000000004,-0.4,-0.1
1698673083.724,16,0.0,0.0,0.0,0.5,9.4,0.5,-0.1,-0.4,-0.2
1698673083.74,16,0.0,0.0,0.0,0.5,9.4,0.5,-0.9,0.0,-0.4
1698673083.757,16,0.0,0.0,0.0,0.5,9.5,0.4,-1.0,0.1,-0.4
1698673083.774,16,0.0,0.0,0.0,0.5,9.5,0.4,-1.0,0.1,-0.30000000000000004
1698673083.79,16,0.0,0.0,0.0,0.5,9.5,0.4,-0.4,0.2,-0.2
1698673083.807,16,0.0,0.0,-0.1,0.5,9.4,0.4,0.0,-0.1,-0.2
1698673083.824,16,0.0,0.0,0.0,0.5,9.4,0.5,0.6000000000000001,-0.4,-0.1
1698673083.84,16,0.0,0.0,0.0,0.5,9.4,0.4,1.4,-0.1,-0.2
1698673083.857,16,0.0,0.0,0.0,0.5,9.4,0.4,1.6,0.0,-0.2
1698673083.874,16,0.0,0.0,0.0,0.5,9.5,0.5,1.8,-0.1,0.1
1698673083.89,16,0.0,0.0,0.0,0.5,9.5,0.4,1.6,-0.6000000000000001,0.4
1698673083.907,16,0.0,0.0,0.0,0.5,9.4,0.5,1.5000000000000002,-0.7,0.1
1698673083.924,16,0.0,0.0,0.0,0.5,9.5,0.4,0.8,-0.2,-0.2
1698673083.941,16,0.0,0.0,0.0,0.5,9.5,0.5,-0.2,-0.2,-0.30000000000000004
1698673083.957,16,0.0,0.0,-0.1,0.5,9.5,0.4,-1.2000000000000002,1.0999999999999999,-0.1
1698673083.974,16,0.0,0.1,-0.1,0.5,9.5,0.30000000000000004,-2.3000000000000003,0.6000000000000001,-0.2
1698673083.99,16,0.0,0.30000000000000004,0.0,0.5,9.8,0.5,-4.6000000000000005,0.4,-1.0
1698673084.007,16,0.0,0.30000000000000004,0.0,0.5,9.8,0.5,-5.0,0.30000000000000004,-1.0999999999999999
1698673084.024,16,0.0,0.30000000000000004,0.0,0.5,9.8,0.5,-4.800000000000001,0.7,-0.5
1698673084.041,16,0.0,0.2,0.0,0.5,9.700000000000001,0.5,-4.9,0.9,-0.4
1698673084.057,16,0.0,0.0,-0.2,0.5,9.5,0.30000000000000004,-7.9,2.5,-0.7
1698673084.074,16,0.1,0.0,-0.30000000000000004,0.5,9.5,0.30000000000000004,-9.9,2.5,-1.0
1698673084.09,16,0.0,0.0,-0.30000000000000004,0.5,9.5,0.30000000000000004,-12.4,4.2,-1.3
1698673084.107,16,0.0,0.1,-0.30000000000000004,0.5,9.600000000000001,0.30000000000000004,-11.5,3.2,-0.5
1698673084.124,16,0.0,-0.1,-0.2,0.5,9.5,0.30000000000000004,-10.4,2.5,-0.4
1698673084.14,16,-0.1,-0.1,-0.30000000000000004,0.4,9.4,0.30000000000000004,-6.000000000000001,0.1,0.30000000000000004
1698673084.157,16,-0.1,-0.2,-0.2,0.4,9.3,0.4,-3.6,-1.0999999999999999,0.7
1698673084.174,16,-0.1,-0.2,0.0,0.30000000000000004,9.200000000000001,0.6000000000000001,1.7,-1.6,-0.4
1698673084.19,16,0.0,-0.2,0.1,0.5,9.200000000000001,0.6000000000000001,7.2,-1.2000000000000002,-1.6
1698673084.207,16,0.1,-0.2,0.2,0.6000000000000001,9.200000000000001,0.8,11.2,-0.6000000000000001,-0.7
1698673084.224,16,0.1,-0.2,0.30000000000000004,0.5,9.4,0.8,12.8,-0.7,1.5000000000000002
1698673084.241,16,0.1,0.0,0.4,0.5,9.5,0.9,12.700000000000001,-0.9,2.0
1698673084.257,16,0.0,0.0,0.5,0.5,9.5,0.9,10.700000000000001,0.1,1.5000000000000002
1698673084.274,16,0.0,-0.1,0.5,0.4,9.4,0.9,8.600000000000001,0.30000000000000004,1.0
1698673084.291,16,0.0,-0.1,0.5,0.4,9.4,0.9,2.9,0.2,0.4
1698673084.307,16,0.0,0.0,0.5,0.5,9.4,0.9,-0.5,0.0,-0.1
1698673084.324,16,0.0,0.0,0.4,0.5,9.4,0.9,-6.8,0.1,-1.0
1698673084.341,16,0.0,-0.1,0.2,0.4,9.3,0.8,-11.6,0.0,-1.2000000000000002
1698673084.358,16,0.0,-0.2,0.2,0.4,9.3,0.7000000000000001,-13.200000000000001,-0.2,-1.4
1698673084.375,16,0.0,-0.1,0.0,0.4,9.3,0.6000000000000001,-14.3,0.1,-1.6
1698673084.391,16,0.0,-0.1,0.0,0.5,9.3,0.6000000000000001,-12.9,-0.2,-1.5000000000000002
1698673084.407,16,0.0,-0.1,-0.1,0.5,9.3,0.5,-9.1,0.1,-1.4
1698673084.423,16,0.0,0.0,-0.1,0.5,9.4,0.5,-4.300000000000001,-0.7,-0.8
1698673084.44,16,0.0,0.0,-0.1,0.4,9.4,0.5,-1.5000000000000002,-1.0,-0.5
1698673084.457,16,0.0,0.0,-0.1,0.4,9.4,0.5,1.3,-1.2000000000000002,-0.4
1698673084.474,16,0.0,0.0,0.0,0.4,9.4,0.7000000000000001,8.200000000000001,-1.6,-0.1
1698673084.49,16,0.0,0.0,0.1,0.5,9.4,0.7000000000000001,9.600000000000001,-1.6,0.2
1698673084.507,16,0.0,0.0,0.1,0.5,9.4,0.7000000000000001,10.5,-1.2000000000000002,0.7
1698673084.524,16,0.0,0.0,0.2,0.4,9.4,0.7000000000000001,9.1,-0.8,0.6000000000000001
1698673084.54,16,0.0,0.0,0.2,0.4,9.4,0.7000000000000001,7.400000000000001,-0.6000000000000001,0.5
1698673084.557,16,0.0,0.0,0.2,0.5,9.5,0.7000000000000001,3.1,-0.5,0.0
1698673084.574,16,0.0,0.0,0.2,0.5,9.4,0.7000000000000001,0.8,-0.6000000000000001,-0.5
1698673084.591,16,0.0,0.0,0.1,0.5,9.5,0.7000000000000001,-3.6,-0.2,-0.9
1698673084.607,16,0.0,0.0,0.1,0.4,9.4,0.6000000000000001,-5.2,-0.1,-1.0
1698673084.624,16,0.0,0.0,0.0,0.4,9.4,0.6000000000000001,-7.300000000000001,-0.7,-1.0
1698673084.64,16,0.0,0.0,-0.1,0.4,9.4,0.6000000000000001,-7.2,-0.4,-1.6
1698673084.658,16,0.0,0.0,-0.1,0.4,9.5,0.6000000000000001,-5.6,-0.5,-1.5000000000000002
1698673084.674,16,0.0,0.0,-0.1,0.5,9.4,0.5,-4.3999999999999995,-0.6000000000000001,-1.3
1698673084.691,16,0.0,-0.1,-0.1,0.5,9.4,0.6000000000000001,-1.4,-0.4,-0.7
1698673084.707,16,0.0,0.0,-0.1,0.5,9.4,0.6000000000000001,1.8,0.2,-0.1
1698673084.724,16,0.0,0.0,-0.1,0.4,9.4,0.5,4.5,0.30000000000000004,0.4
1698673084.741,16,0.0,0.0,0.0,0.4,9.4,0.6000000000000001,5.4,0.4,0.6000000000000001
1698673084.757,16,0.0,0.0,0.0,0.4,9.5,0.6000000000000001,6.8,0.4,0.8
1698673084.774,16,0.0,0.1,0.0,0.5,9.5,0.6000000000000001,7.0,0.2,0.7
1698673084.791,16,0.0,0.1,0.1,0.4,9.5,0.6000000000000001,6.9,0.7,0.8
1698673084.807,16,0.0,0.0,0.0,0.4,9.4,0.6000000000000001,6.1000000000000005,0.4,0.9
1698673084.824,16,-0.1,0.1,0.1,0.4,9.5,0.6000000000000001,4.5,0.30000000000000004,0.9
1698673084.841,16,0.0,0.1,0.1,0.4,9.5,0.6000000000000001,2.6,0.7,0.30000000000000004
1698673084.857,16,0.0,0.0,0.0,0.5,9.5,0.6000000000000001,0.5,0.30000000000000004,0.0
1698673084.874,16,0.0,0.0,0.0,0.4,9.4,0.6000000000000001,-1.3,0.7,-0.1
1698673084.891,16,0.0,0.0,0.0,0.5,9.5,0.5,-2.0,0.9,0.1
1698673084.907,16,0.0,0.0,0.0,0.4,9.5,0.5,-2.0,0.30000000000000004,0.30000000000000004
1698673084.924,16,-0.1,0.0,-0.1,0.4,9.5,0.5,-1.2000000000000002,-0.4,0.9
1698673084.941,16,-0.1,0.0,0.0,0.4,9.5,0.5,-0.5,-0.5,0.8
1698673084.957,16,0.0,0.0,0.0,0.4,9.4,0.5,1.2000000000000002,-0.4,0.4
1698673084.974,16,0.0,0.0,0.0,0.5,9.4,0.5,2.7,-0.2,0.4
1698673084.991,16,0.0,0.0,0.0,0.5,9.4,0.5,3.3000000000000003,0.0,0.5
1698673085.008,16,0.0,0.0,0.0,0.5,9.4,0.5,3.1,0.6000000000000001,0.5
1698673085.024,16,0.0,0.0,0.0,0.4,9.5,0.5,2.7,0.1,0.8
1698673085.041,16,0.0,0.1,0.0,0.5,9.5,0.5,2.4000000000000004,0.0,0.9
1698673085.058,16,0.0,0.1,0.0,0.4,9.5,0.5,1.9,-0.7,0.6000000000000001
1698673085.074,16,0.0,0.0,0.0,0.5,9.5,0.5,0.8,-0.6000000000000001,0.1
1698673085.091,16,0.0,0.0,0.0,0.5,9.5,0.5,0.1,-0.4,0.1
1698673085.107,16,0.0,0.0,0.0,0.5,9.5,0.5,-0.9,0.4,0.2
1698673085.124,16,0.0,0.0,0.0,0.5,9.5,0.5,-1.4,0.4,0.4
1698673085.14,16,0.0,0.0,-0.1,0.4,9.4,0.4,-1.4,0.9,0.2
1698673085.157,16,0.0,0.0,-0.1,0.5,9.5,0.4,-1.0999999999999999,0.4,0.2
1698673085.174,16,0.0,0.0,-0.1,0.4,9.5,0.5,-0.8,0.1,0.30000000000000004
1698673085.19,16,0.0,0.0,-0.1,0.4,9.5,0.5,0.2,0.0,0.5
1698673085.207,16,0.0,0.0,0.0,0.5,9.5,0.5,0.9,-0.2,0.5
1698673085.224,16,0.0,0.0,0.0,0.5,9.5,0.5,1.4,0.1,0.2
1698673085.24,16,0.0,0.1,0.0,0.5,9.5,0.5,1.8,0.30000000000000004,0.7
1698673085.257,16,0.0,0.0,0.0,0.4,9.5,0.5,1.7,0.6000000000000001,0.7
1698673085.276,16,-0.1,0.0,0.0,0.4,9.5,0.5,1.2000000000000002,0.1,0.5
1698673085.291,16,0.0,0.0,0.0,0.4,9.5,0.5,0.9,-0.30000000000000004,0.1
1698673085.307,16,0.0,0.0,0.0,0.5,9.4,0.5,-0.30000000000000004,-0.2,-0.4
1698673085.324,16,0.0,0.0,0.1,0.5,9.4,0.6000000000000001,-1.6,-0.4,-0.4
1698673085.341,16,0.0,0.0,0.1,0.5,9.4,0.6000000000000001,-1.9,-0.1,-0.1
1698673085.357,16,-0.1,0.0,0.0,0.4,9.5,0.5,-2.1,-0.7,0.2
1698673085.374,16,-0.1,0.1,0.1,0.4,9.600000000000001,0.6000000000000001,-1.2000000000000002,-1.7,0.4
1698673085.392,16,-0.1,0.1,0.0,0.4,9.5,0.5,-0.5,-1.8,-0.2
1698673085.407,16,0.0,0.0,0.0,0.4,9.5,0.5,-0.7,-1.6,-0.5
1698673085.424,16,0.0,0.0,0.0,0.5,9.5,0.5,-1.6,-1.3,-0.4
1698673085.44,16,0.0,0.1,-0.1,0.5,9.5,0.5,-2.1999999999999997,-1.5000000000000002,0.1
1698673085.457,16,0.0,0.0,-0.1,0.5,9.5,0.5,-3.0000000000000004,-1.8,0.5
1698673085.474,16,0.0,0.1,-0.1,0.5,9.600000000000001,0.4,-6.8,-0.4,-1.0
1698673085.49,16,0.1,0.2,-0.1,0.5,9.700000000000001,0.5,-7.8,-0.7,-1.5000000000000002
1698673085.507,16,0.0,0.2,-0.1,0.5,9.700000000000001,0.5,-7.6,-0.2,-1.3
1698673085.524,16,0.1,0.1,-0.2,0.5,9.600000000000001,0.4,-7.400000000000001,-0.6000000000000001,-1.5000000000000002
1698673085.541,16,0.1,0.0,-0.1,0.5,9.5,0.5,-7.300000000000001,-0.9,-2.1
1698673085.557,16,0.1,0.0,-0.1,0.6000000000000001,9.5,0.5,-7.1000000000000005,0.0,-2.4000000000000004
1698673085.574,16,0.2,-0.1,-0.2,0.6000000000000001,9.4,0.5,-7.2,1.0999999999999999,-2.5
1698673085.591,16,0.2,0.0,-0.2,0.6000000000000001,9.4,0.5,-8.0,1.8,-1.5000000000000002
1698673085.607,16,0.1,0.1,-0.2,0.6000000000000001,9.600000000000001,0.5,-8.0,2.3000000000000003,-0.2
1698673085.625,16,0.0,0.2,-0.1,0.4,9.700000000000001,0.6000000000000001,-6.5,2.1999999999999997,0.0
1698673085.641,16,-0.1,0.2,-0.1,0.4,9.700000000000001,0.6000000000000001,-5.300000000000001,2.0,-0.5
1698673085.659,16,0.0,0.1,-0.1,0.4,9.600000000000001,0.6000000000000001,-3.6,1.7,-1.5000000000000002
1698673085.676,16,0.1,0.0,0.0,0.5,9.5,0.7000000000000001,-3.1,3.1,-2.0
1698673085.691,16,0.1,0.0,0.0,0.5,9.5,0.7000000000000001,-3.1,2.9,-1.7
1698673085.708,16,0.0,0.0,0.0,0.5,9.5,0.8,-4.2,3.3000000000000003,-0.9
1698673085.724,16,-0.1,0.0,0.0,0.4,9.5,0.8,-5.7,3.2,-0.2
1698673085.741,16,-0.1,0.0,0.1,0.4,9.5,0.8,-7.8,3.2,-0.4
1698673085.757,16,-0.1,0.0,0.0,0.4,9.5,0.8,-8.799999999999999,3.1,-0.9
1698673085.775,16,-0.1,0.0,0.0,0.30000000000000004,9.600000000000001,0.8,-10.700000000000001,2.3000000000000003,-1.0
1698673085.791,16,-0.1,0.0,-0.1,0.30000000000000004,9.5,0.8,-11.9,1.8,-1.3
1698673085.808,16,-0.1,0.1,0.1,0.30000000000000004,9.700000000000001,1.0,-13.8,1.0999999999999999,-2.1
1698673085.824,16,-0.1,0.2,0.1,0.30000000000000004,9.700000000000001,1.1,-13.5,1.5000000000000002,-2.8
1698673085.84,16,0.1,0.1,0.0,0.5,9.700000000000001,1.0,-13.700000000000001,2.9,-3.6
1698673085.857,16,0.1,0.2,0.0,0.5,9.700000000000001,1.0,-14.100000000000001,2.9,-3.6
1698673085.878,16,0.1,0.1,-0.2,0.5,9.600000000000001,0.9,-16.400000000000002,3.2,-2.7
1698673085.89,16,0.1,0.5,-0.1,0.5,10.0,1.0,-20.5,2.8,-1.5000000000000002
1698673085.908,16,0.1,0.6000000000000001,-0.30000000000000004,0.4,10.100000000000001,0.9,-25.6,4.7,-2.1
1698673085.925,16,0.1,0.6000000000000001,-0.2,0.4,10.100000000000001,0.9,-25.6,4.7,-2.1
1698673085.94,16,0.1,0.8,-0.2,0.4,10.3,1.1,-31.6,4.800000000000001,-2.9
1698673085.957,16,0.1,1.0,-0.30000000000000004,0.5,10.5,1.1,-37.0,5.300000000000001,-2.8
1698673085.976,16,0.2,0.8,-0.6000000000000001,0.5,10.3,0.9,-42.800000000000004,10.0,-4.0
1698673085.991,16,0.1,0.5,-1.0,0.4,10.0,0.7000000000000001,-54.6,8.600000000000001,-5.2
1698673086.007,16,0.1,0.7000000000000001,-1.2000000000000002,0.4,10.200000000000001,0.7000000000000001,-67.2,4.800000000000001,-5.300000000000001
1698673086.024,16,0.2,0.9,-1.4000000000000001,0.5,10.3,0.6000000000000001,-73.10000000000001,3.9,-5.7
1698673086.04,16,0.30000000000000004,1.1,-1.7000000000000002,0.5,10.5,0.6000000000000001,-85.0,4.0,-7.6
1698673086.057,16,0.30000000000000004,1.2000000000000002,-1.6,0.5,10.5,0.8,-89.4,4.5,-7.500000000000001
1698673086.073,16,0.30000000000000004,1.2000000000000002,-1.9000000000000001,0.5,10.5,0.8,-93.80000000000001,5.0,-6.8
1698673086.091,16,0.30000000000000004,1.1,-2.4000000000000004,0.5,10.3,0.6000000000000001,-100.8,9.8,-5.500000000000001
1698673086.107,16,0.4,1.3,-2.7,0.6000000000000001,10.4,0.6000000000000001,-107.30000000000001,6.7,-3.1
1698673086.124,16,0.4,1.6,-1.7000000000000002,0.5,10.600000000000001,1.9000000000000001,-105.2,-3.3000000000000003,-3.4
1698673086.141,16,0.2,1.9000000000000001,-1.2000000000000002,0.30000000000000004,10.8,2.6,-98.5,-0.5,-2.1999999999999997
1698673086.157,16,0.1,2.3000000000000003,-0.5,0.2,11.100000000000001,3.4000000000000004,-87.3,3.0000000000000004,0.2
1698673086.174,16,0.1,3.0,0.7000000000000001,0.30000000000000004,11.700000000000001,4.800000000000001,-58.800000000000004,4.7,5.1
1698673086.19,16,0.4,2.6,2.2,0.6000000000000001,11.3,6.5,-61.1,13.700000000000001,5.500000000000001
1698673086.207,16,0.9,0.1,1.5,1.0,8.700000000000001,6.1000000000000005,-105.4,11.5,0.6000000000000001
1698673086.224,16,0.6000000000000001,-0.4,1.4000000000000001,0.8,8.1,6.2,-115.60000000000001,12.6,-0.6000000000000001
1698673086.24,16,-0.4,-0.30000000000000004,0.5,-0.2,8.0,5.6000000000000005,-94.0,5.1,6.1000000000000005
1698673086.257,16,-0.9,-0.1,0.30000000000000004,-1.0,8.1,5.9,-57.5,-2.9,13.4
1698673086.274,16,-1.4000000000000001,-0.2,0.9,-1.2000000000000002,7.9,6.300000000000001,-38.2,-3.0000000000000004,12.100000000000001
1698673086.29,16,-0.6000000000000001,-0.8,1.3,-0.4,7.300000000000001,6.7,-12.5,-2.7,2.1
1698673086.307,16,0.7000000000000001,-0.8,2.1,0.9,7.300000000000001,7.6000000000000005,-13.200000000000001,-3.3000000000000003,-1.7
1698673086.324,16,1.0,-0.7000000000000001,2.4000000000000004,1.2000000000000002,7.300000000000001,7.800000000000001,-18.5,-2.6,1.5000000000000002
1698673086.34,16,0.2,-0.2,1.5,0.5,7.800000000000001,7.1000000000000005,-22.4,7.400000000000001,5.0
1698673086.357,16,0.0,0.1,0.7000000000000001,0.2,8.1,6.300000000000001,-11.3,3.4,5.4
1698673086.374,16,-0.1,0.4,0.8,0.1,8.4,6.5,-2.5,0.7,5.500000000000001
1698673086.39,16,-0.2,0.6000000000000001,1.2000000000000002,0.1,8.6,6.800000000000001,13.700000000000001,-6.000000000000001,4.2
1698673086.407,16,-0.2,0.30000000000000004,1.6,0.1,8.3,7.1000000000000005,18.8,-8.799999999999999,1.5000000000000002
1698673086.424,16,-0.1,0.0,1.4000000000000001,0.2,8.0,6.9,18.0,-8.5,-0.4
1698673086.44,16,0.1,-0.4,0.7000000000000001,0.4,7.7,6.2,15.100000000000001,-5.7,-4.9
1698673086.457,16,0.2,0.0,0.6000000000000001,0.5,8.200000000000001,6.1000000000000005,20.4,-2.6,-7.9
1698673086.474,16,0.2,0.1,0.5,0.5,8.3,5.9,25.0,-3.0000000000000004,-8.0
1698673086.491,16,0.2,0.0,0.7000000000000001,0.5,8.200000000000001,6.0,32.6,-7.0,-6.2
1698673086.507,16,0.1,-0.2,0.6000000000000001,0.30000000000000004,7.7,5.5,35.7,-10.2,-4.6000000000000005
1698673086.524,16,0.0,-0.9,0.0,0.30000000000000004,7.4,5.1000000000000005,35.7,-10.5,-4.300000000000001
1698673086.541,16,0.0,-1.2000000000000002,-0.7000000000000001,0.30000000000000004,7.2,4.4,35.199999999999996,-8.5,-5.2
1698673086.557,16,0.0,-1.1,-0.8,0.30000000000000004,7.4,4.2,36.3,-7.2,-6.2
1698673086.574,16,0.1,-1.0,-0.7000000000000001,0.30000000000000004,7.5,4.2,42.900000000000006,-5.1,-7.699999999999999
1698673086.592,16,0.2,-0.8,-0.4,0.4,7.7,4.3,54.0,-5.0,-7.9
1698673086.607,16,0.2,-1.0,-0.4,0.5,7.6000000000000005,4.1000000000000005,62.8,-6.6000000000000005,-7.0
1698673086.624,16,0.2,-1.2000000000000002,-0.4,0.4,7.4,4.0,64.60000000000001,-5.7,-6.3
1698673086.64,16,0.0,-1.8,-0.4,0.30000000000000004,7.0,3.8000000000000003,64.2,-0.6000000000000001,-4.2
1698673086.658,16,0.0,-1.8,-0.4,0.2,7.0,3.7,62.50000000000001,1.7,-3.3000000000000003
1698673086.674,16,-0.1,-1.7000000000000002,-0.30000000000000004,0.1,7.1000000000000005,3.6,58.7,4.2,-2.1999999999999997
1698673086.691,16,-0.1,-1.6,-0.2,0.1,7.4,3.6,53.2,7.2,-0.7
1698673086.707,16,-0.1,-1.5,0.0,0.1,7.4,3.6,49.2,11.6,-1.3
1698673086.725,16,-0.2,-1.7000000000000002,0.0,0.0,7.300000000000001,3.5,48.400000000000006,13.3,-2.6
1698673086.741,16,-0.2,-1.8,-0.1,-0.1,7.2,3.4000000000000004,48.400000000000006,13.3,-2.6
1698673086.757,16,-0.30000000000000004,-1.9000000000000001,-0.30000000000000004,-0.2,7.2,3.1,46.0,11.5,-0.9
1698673086.774,16,-0.7000000000000001,-2.1,-0.1,-0.5,7.0,3.0,40.9,7.400000000000001,1.8
1698673086.792,16,-0.8,-2.3000000000000003,-0.1,-0.7000000000000001,6.800000000000001,2.9000000000000004,39.6,4.9,3.1
1698673086.807,16,-1.0,-2.6,-0.2,-0.8,6.5,2.8000000000000003,36.5,0.1,4.6000000000000005
1698673086.824,16,-0.9,-2.7,-0.2,-0.8,6.5,2.7,34.6,-2.4000000000000004,4.1000000000000005
1698673086.841,16,-0.7000000000000001,-2.7,0.1,-0.5,6.4,2.9000000000000004,31.2,-5.4,0.2
1698673086.857,16,-0.5,-2.7,0.5,-0.4,6.5,3.2,29.900000000000006,-2.0,-4.1000000000000005
1698673086.874,16,-0.5,-2.6,0.5,-0.30000000000000004,6.5,3.2,28.6,-3.5,-4.0
1698673086.895,16,-0.30000000000000004,-2.6,0.6000000000000001,-0.2,6.6000000000000005,3.2,27.2,-3.7000000000000006,-2.9
1698673086.908,16,0.0,-2.2,0.8,0.1,6.9,3.3000000000000003,22.3,-5.2,-0.7
1698673086.924,16,-0.1,-1.3,1.2000000000000002,0.0,7.800000000000001,3.7,19.500000000000004,-3.2,1.8
1698673086.941,16,-0.2,-0.8,1.3,-0.1,8.4,3.7,19.1,-2.1,3.4
1698673086.957,16,-0.30000000000000004,-0.1,1.4000000000000001,-0.2,9.1,3.8000000000000003,19.200000000000003,-2.6,5.6
1698673086.974,16,-0.4,0.2,1.4000000000000001,-0.30000000000000004,9.4,3.8000000000000003,18.3,-0.2,5.300000000000001
1698673086.993,16,-0.4,0.4,1.4000000000000001,-0.30000000000000004,9.600000000000001,3.7,16.700000000000003,2.0,3.9
1698673087.007,16,-0.2,0.30000000000000004,1.2000000000000002,-0.1,9.5,3.5,11.700000000000001,1.0999999999999999,1.3
1698673087.023,16,0.0,0.4,1.1,0.1,9.700000000000001,3.4000000000000004,-1.8,1.4,1.3
1698673087.041,16,0.0,0.5,1.0,0.1,9.700000000000001,3.4000000000000004,-5.9,0.4,2.1999999999999997
1698673087.058,16,-0.1,0.30000000000000004,1.0,0.0,9.5,3.3000000000000003,-10.8,-2.3000000000000003,4.0
1698673087.074,16,-0.2,0.2,0.9,0.0,9.4,3.3000000000000003,-12.100000000000001,-2.9,3.4
1698673087.09,16,-0.2,0.0,1.0,-0.1,9.200000000000001,3.4000000000000004,-14.700000000000001,-6.6000000000000005,-0.7
1698673087.107,16,-0.2,0.0,1.0,0.0,9.200000000000001,3.5,-15.5,-7.0,-1.2000000000000002
1698673087.124,16,-0.2,-0.1,1.1,0.0,9.0,3.7,-19.6,-3.6,-2.1
1698673087.14,16,-0.1,-0.30000000000000004,1.1,0.1,8.8,3.8000000000000003,-24.3,-1.3,-3.2
1698673087.157,16,0.0,-0.5,1.1,0.2,8.700000000000001,3.8000000000000003,-26.200000000000003,-0.6000000000000001,-3.4
1698673087.174,16,0.0,-0.4,1.2000000000000002,0.2,8.700000000000001,3.9000000000000004,-28.900000000000002,-1.0999999999999999,-2.5
1698673087.191,16,0.1,-0.4,1.1,0.2,8.700000000000001,3.9000000000000004,-30.100000000000005,-3.0000000000000004,-1.7
1698673087.208,16,0.1,-0.7000000000000001,0.9,0.2,8.4,3.8000000000000003,-34.6,-2.0,-0.4
1698673087.224,16,0.0,-0.9,0.6000000000000001,0.1,8.1,3.7,-39.9,7.0,-0.4
1698673087.241,16,-0.1,-1.1,0.4,0.1,7.9,3.5,-41.7,8.799999999999999,-0.4
1698673087.258,16,-0.1,-0.7000000000000001,0.4,0.1,8.0,3.6,-42.300000000000004,9.3,0.30000000000000004
1698673087.274,16,-0.2,-0.7000000000000001,0.30000000000000004,-0.1,8.200000000000001,3.7,-41.6,8.0,3.2
1698673087.291,16,-0.4,-0.8,0.0,-0.30000000000000004,8.1,3.5,-42.1,-0.4,5.6
1698673087.307,16,-0.5,-1.3,-0.1,-0.30000000000000004,7.4,3.5,-47.800000000000004,-9.600000000000001,4.5
1698673087.324,16,-0.5,-1.6,-0.1,-0.30000000000000004,7.1000000000000005,3.7,-53.9,-9.600000000000001,-2.0
1698673087.34,16,-0.6000000000000001,-1.6,-0.1,-0.4,7.1000000000000005,3.7,-56.1,-4.9,-6.8
1698673087.357,16,-0.4,-1.5,-0.30000000000000004,-0.30000000000000004,7.1000000000000005,3.7,-59.80000000000001,2.6,-15.000000000000002
1698673087.376,16,-0.1,-1.3,-0.5,-0.1,7.2,3.7,-62.7,8.600000000000001,-15.9
1698673087.391,16,0.1,-1.3,-0.6000000000000001,0.1,7.1000000000000005,3.7,-63.6,10.3,-12.9
1698673087.409,16,0.5,-1.3,-0.8,0.5,7.0,3.7,-62.8,8.3,-5.500000000000001
1698673087.424,16,0.7000000000000001,-1.4000000000000001,-0.5,0.7000000000000001,6.800000000000001,4.1000000000000005,-59.80000000000001,3.2,-0.4
1698673087.44,16,0.6000000000000001,-1.3,-0.6000000000000001,0.5,6.9,4.2,-57.9,2.9,-0.1
1698673087.457,16,0.0,-1.5,-1.0,-0.1,6.6000000000000005,3.8000000000000003,-58.800000000000004,6.5,-0.9
1698673087.474,16,-0.5,-1.7000000000000002,-1.3,-0.5,6.2,3.7,-63.0,-2.0,2.8
1698673087.49,16,-0.6000000000000001,-1.5,-1.3,-0.6000000000000001,6.300000000000001,3.8000000000000003,-63.50000000000001,-11.4,6.000000000000001
1698673087.507,16,-0.7000000000000001,-0.8,-1.0,-0.7000000000000001,6.9,4.3,-60.00000000000001,-19.200000000000003,10.5
1698673087.524,16,-0.6000000000000001,-0.30000000000000004,-1.0,-0.5,7.300000000000001,4.4,-55.7,-9.8,5.0
1698673087.54,16,-0.5,-0.30000000000000004,-0.6000000000000001,-0.4,7.300000000000001,5.0,-53.7,-8.700000000000001,-6.2
1698673087.557,16,-0.1,-0.4,-0.4,-0.1,7.1000000000000005,5.300000000000001,-52.900000000000006,-12.3,-7.8
1698673087.574,16,0.4,-0.9,0.1,0.5,6.5,5.800000000000001,-52.1,-16.900000000000002,-5.7
1698673087.591,16,0.4,-1.1,0.2,0.7000000000000001,6.1000000000000005,6.0,-48.7,-5.2,-1.5000000000000002
1698673087.607,16,0.8,-1.1,-0.1,0.9,6.1000000000000005,5.800000000000001,-45.800000000000004,0.4,1.3
1698673087.624,16,0.7000000000000001,-0.2,-0.4,0.8,6.9,5.6000000000000005,-38.6,8.700000000000001,5.9
1698673087.64,16,0.5,0.5,-0.6000000000000001,0.6000000000000001,7.5,5.5,-33.5,10.8,7.1000000000000005
1698673087.657,16,0.0,0.5,-0.4,0.2,7.5,5.7,-23.700000000000003,10.4,10.0
1698673087.674,16,0.0,0.6000000000000001,0.1,0.1,7.5,6.300000000000001,-15.9,-0.2,10.4
1698673087.69,16,0.0,0.8,0.7000000000000001,0.2,7.7,6.9,-14.200000000000001,-6.2,9.600000000000001
1698673087.707,16,-0.1,0.9,1.4000000000000001,0.1,7.9,7.6000000000000005,-16.2,-9.700000000000001,5.8
1698673087.724,16,-0.1,0.7000000000000001,1.3,0.1,7.6000000000000005,7.6000000000000005,-20.8,-5.4,2.3000000000000003
1698673087.74,16,-0.4,0.30000000000000004,0.7000000000000001,-0.30000000000000004,7.1000000000000005,7.1000000000000005,-28.700000000000003,12.3,-5.2
1698673087.757,16,-0.30000000000000004,0.5,0.6000000000000001,-0.2,7.300000000000001,7.1000000000000005,-25.700000000000003,12.4,-4.7
1698673087.774,16,0.2,0.9,0.8,0.4,7.6000000000000005,7.300000000000001,-17.9,6.000000000000001,-2.9
1698673087.79,16,0.6000000000000001,0.7000000000000001,0.9,0.7000000000000001,7.5,7.4,-16.2,2.9,-3.0000000000000004
1698673087.807,16,0.6000000000000001,0.30000000000000004,1.0,0.7000000000000001,7.0,7.6000000000000005,-19.1,3.1,-3.0000000000000004
1698673087.824,16,0.1,0.30000000000000004,0.9,0.2,6.9,7.5,-23.0,3.2,-1.9
1698673087.841,16,-0.5,0.1,0.8,-0.5,6.7,7.5,-20.900000000000002,6.4,-1.5000000000000002
1698673087.858,16,-0.6000000000000001,-0.1,0.7000000000000001,-0.5,6.5,7.4,-16.700000000000003,8.200000000000001,-1.6
1698673087.875,16,-0.4,-0.4,0.5,-0.4,6.2,7.2,-8.600000000000001,9.4,-3.0000000000000004
1698673087.891,16,-0.2,-0.30000000000000004,0.5,-0.1,6.2,7.2,-5.300000000000001,7.1000000000000005,-4.0
1698673087.908,16,0.4,-0.1,0.6000000000000001,0.30000000000000004,6.5,7.4,-1.6,1.0,-4.2
1698673087.923,16,0.1,0.0,0.7000000000000001,0.1,6.6000000000000005,7.4,0.8,2.3000000000000003,-3.3000000000000003
1698673087.94,16,-0.2,-0.1,0.7000000000000001,-0.2,6.5,7.5,5.0,3.7000000000000006,-2.7
1698673087.957,16,-0.30000000000000004,-0.2,0.9,-0.30000000000000004,6.4,7.6000000000000005,9.3,5.2,-2.9
1698673087.974,16,-0.1,-0.30000000000000004,0.7000000000000001,-0.30000000000000004,6.300000000000001,7.5,14.200000000000001,7.2,-3.1
1698673087.99,16,0.0,-0.30000000000000004,0.6000000000000001,-0.1,6.300000000000001,7.300000000000001,21.0,7.9,-3.4
1698673088.007,16,0.2,-0.30000000000000004,0.6000000000000001,0.2,6.4,7.300000000000001,25.700000000000003,1.5000000000000002,-2.1
1698673088.023,16,0.0,0.30000000000000004,0.9,-0.1,7.0,7.5,31.900000000000002,-4.0,1.3
1698673088.04,16,-0.1,1.1,1.3,-0.2,7.5,7.800000000000001,36.5,-4.300000000000001,2.9
1698673088.057,16,0.30000000000000004,1.7000000000000002,1.3,0.30000000000000004,8.700000000000001,7.7,49.1,-0.8,1.8
1698673088.074,16,0.6000000000000001,1.8,1.3,0.5,8.9,7.6000000000000005,51.5,-2.7,0.7
1698673088.09,16,0.8,1.9000000000000001,1.2000000000000002,0.7000000000000001,9.0,7.4,57.1,-3.3000000000000003,1.4
1698673088.107,16,0.7000000000000001,1.7000000000000002,1.1,0.6000000000000001,9.0,7.2,60.900000000000006,-0.7,2.7
1698673088.124,16,0.5,1.4000000000000001,0.9,0.5,8.8,6.800000000000001,69.10000000000001,2.5,5.4
1698673088.141,16,0.30000000000000004,1.1,0.5,0.30000000000000004,8.700000000000001,6.300000000000001,71.6,2.5,6.8
1698673088.157,16,0.30000000000000004,1.3,0.6000000000000001,0.30000000000000004,9.0,6.2,71.5,-3.0000000000000004,7.400000000000001
1698673088.174,16,0.2,1.2000000000000002,0.4,0.2,9.0,5.9,72.2,-8.4,7.500000000000001
1698673088.191,16,-0.1,1.0,0.1,-0.1,8.4,5.300000000000001,70.10000000000001,-6.1000000000000005,7.500000000000001
1698673088.207,16,-0.2,0.1,-0.1,-0.1,8.1,5.1000000000000005,68.3,-6.3,8.9
1698673088.224,16,0.1,-0.2,-0.4,0.2,7.9,4.6000000000000005,69.00000000000001,-6.2,4.6000000000000005
1698673088.241,16,0.30000000000000004,-0.5,-0.4,0.4,7.7,4.4,71.10000000000001,-2.1,-4.0
1698673088.257,16,0.2,-0.5,-0.5,0.4,7.800000000000001,4.2,72.0,0.6000000000000001,-5.7
1698673088.274,16,0.2,-0.30000000000000004,-0.5,0.30000000000000004,8.0,4.1000000000000005,71.7,-0.2,-4.300000000000001
1698673088.291,16,-0.2,-0.2,-0.4,0.0,8.3,3.9000000000000004,70.8,-4.1000000000000005,2.8
1698673088.307,16,-0.4,-0.30000000000000004,-0.30000000000000004,-0.30000000000000004,8.3,3.9000000000000004,71.2,-4.800000000000001,5.7
1698673088.324,16,-0.30000000000000004,-0.4,-0.1,-0.1,8.3,3.9000000000000004,73.7,-7.300000000000001,6.5
1698673088.34,16,-0.2,-0.4,0.1,-0.1,8.3,3.8000000000000003,75.4,-4.6000000000000005,0.4
1698673088.357,16,-0.1,-0.2,0.1,0.1,8.700000000000001,3.6,74.7,-5.0,-0.5
1698673088.374,16,-0.1,-0.1,0.1,0.1,8.8,3.5,72.10000000000001,-2.9,2.1
1698673088.391,16,-0.2,0.0,0.0,0.0,9.0,3.2,71.2,-5.500000000000001,3.8
1698673088.407,16,-0.30000000000000004,0.0,0.0,-0.2,8.700000000000001,2.9000000000000004,70.9,-7.8,5.8
1698673088.424,16,-0.30000000000000004,-0.4,-0.1,-0.1,8.700000000000001,2.8000000000000003,69.80000000000001,-6.5,9.600000000000001
1698673088.44,16,-0.30000000000000004,0.0,-0.1,0.0,9.1,2.5,68.0,-8.9,8.9
1698673088.457,16,-0.1,0.2,-0.2,0.2,9.4,2.3000000000000003,65.2,-5.7,7.1000000000000005
1698673088.474,16,0.0,0.6000000000000001,-0.4,0.30000000000000004,9.9,1.9000000000000001,56.800000000000004,-3.6,1.2000000000000002
1698673088.49,16,-0.2,0.9,-0.5,0.1,10.100000000000001,1.7000000000000002,43.400000000000006,0.30000000000000004,1.0
1698673088.507,16,-0.30000000000000004,1.1,-0.30000000000000004,0.0,10.4,1.8,31.3,-1.7,3.6
1698673088.524,16,-0.2,1.4000000000000001,-0.30000000000000004,0.1,10.700000000000001,1.7000000000000002,26.9,-0.5,4.2
1698673088.54,16,-0.1,1.8,-0.5,0.30000000000000004,11.200000000000001,1.4000000000000001,20.2,-3.0000000000000004,3.1
1698673088.558,16,0.1,1.7000000000000002,-0.8,0.5,11.100000000000001,1.1,13.0,-6.3,2.3000000000000003
1698673088.573,16,0.2,1.5,-1.0,0.5,10.9,0.9,8.600000000000001,-7.400000000000001,1.7
1698673088.59,16,0.2,0.7000000000000001,-1.2000000000000002,0.5,10.100000000000001,0.7000000000000001,-1.0,-10.9,-0.1
1698673088.607,16,0.2,0.2,-1.5,0.6000000000000001,9.600000000000001,0.4,-8.700000000000001,-9.8,-0.2
1698673088.623,16,0.30000000000000004,0.1,-1.4000000000000001,0.7000000000000001,9.5,0.4,-12.100000000000001,-9.600000000000001,-0.1
1698673088.641,16,0.5,0.2,-1.5,0.8,9.600000000000001,0.4,-14.4,-8.4,1.0999999999999999
1698673088.657,16,0.5,0.4,-1.6,0.9,9.8,0.30000000000000004,-13.3,-8.200000000000001,2.9
1698673088.674,16,0.5,0.5,-1.5,0.9,9.9,0.4,-11.2,-9.3,3.1
1698673088.69,16,0.4,0.8,-1.4000000000000001,0.9,10.200000000000001,0.6000000000000001,-3.8,-6.2,3.2
1698673088.707,16,0.5,0.7000000000000001,-1.1,1.0,10.100000000000001,0.8,7.0,-1.0999999999999999,1.2000000000000002
1698673088.723,16,0.6000000000000001,0.8,-1.1,1.1,10.100000000000001,0.8,12.700000000000001,1.2000000000000002,1.6
1698673088.74,16,0.6000000000000001,0.9,-1.0,1.1,10.3,0.8,19.700000000000003,5.7,5.4
1698673088.757,16,0.5,1.0,-1.0,1.0,10.4,0.8,21.5,7.500000000000001,7.9
1698673088.774,16,0.30000000000000004,1.2000000000000002,-0.6000000000000001,0.8,10.700000000000001,1.1,21.900000000000002,5.8,9.3
1698673088.79,16,0.2,1.3,-0.4,0.8,10.700000000000001,1.2000000000000002,17.599999999999998,12.5,6.7
1698673088.807,16,0.30000000000000004,1.1,-0.6000000000000001,0.8,10.600000000000001,1.1,4.6000000000000005,16.1,3.2
1698673088.827,16,0.4,0.9,-0.6000000000000001,0.9,10.4,1.0,-20.5,18.7,1.6
1698673088.84,16,0.30000000000000004,1.1,-0.6000000000000001,0.8,10.600000000000001,1.2000000000000002,-35.0,15.9,1.8
1698673088.858,16,0.2,1.2000000000000002,-0.9,0.7000000000000001,10.600000000000001,1.1,-48.9,14.200000000000001,2.3000000000000003
1698673088.874,16,-0.1,1.0,-1.4000000000000001,0.5,10.4,0.8,-87.9,14.700000000000001,0.4
1698673088.891,16,-0.1,1.0,-1.4000000000000001,0.5,10.4,0.8,-87.9,14.700000000000001,0.4
1698673088.907,16,0.1,1.2000000000000002,-2.5,0.6000000000000001,10.4,0.1,-116.80000000000001,15.100000000000001,-6.6000000000000005
1698673088.924,16,0.1,1.3,-2.0,0.6000000000000001,10.600000000000001,0.9,-124.2,14.800000000000002,-9.3
1698673088.941,16,-0.1,1.6,-2.6,0.4,10.600000000000001,1.0,-124.50000000000001,16.8,-10.3
1698673088.957,16,0.1,1.6,-2.8000000000000003,0.5,10.600000000000001,0.8,-119.1,14.500000000000002,-7.6
1698673088.975,16,0.1,1.6,-2.5,0.4,10.5,1.2000000000000002,-113.9,7.8,-8.5
1698673088.99,16,0.2,1.9000000000000001,-1.2000000000000002,0.6000000000000001,10.700000000000001,2.8000000000000003,-93.0,3.3000000000000003,-8.799999999999999
1698673089.007,16,0.6000000000000001,2.4000000000000004,-0.6000000000000001,1.1,11.3,3.9000000000000004,-53.7,14.100000000000001,-12.000000000000002
1698673089.023,16,0.6000000000000001,2.2,1.2000000000000002,0.8,10.9,5.5,-22.000000000000004,12.8,-9.3
1698673089.04,16,0.6000000000000001,2.0,2.3000000000000003,0.9,10.600000000000001,6.7,-28.8,4.0,-3.4
1698673089.057,16,0.5,0.4,2.1,0.7000000000000001,9.0,6.7,-90.10000000000001,-3.0000000000000004,2.0
1698673089.074,16,-0.1,-0.9,1.0,0.5,8.0,6.1000000000000005,-113.7,19.400000000000002,0.1
1698673089.09,16,-0.30000000000000004,-0.9,0.6000000000000001,-0.2,7.4,5.800000000000001,-100.8,22.000000000000004,0.6000000000000001
1698673089.107,16,-0.6000000000000001,-0.30000000000000004,0.2,-0.4,7.9,5.5,-56.400000000000006,0.8,3.5
1698673089.124,16,-0.2,0.0,1.2000000000000002,0.0,8.1,6.6000000000000005,-19.9,2.0,2.8
1698673089.141,16,0.2,-0.1,1.7000000000000002,0.4,8.0,7.1000000000000005,-9.8,-4.3999999999999995,2.5
1698673089.158,16,0.5,-0.4,2.5,0.7000000000000001,7.7,7.9,-14.3,-9.9,4.6000000000000005
1698673089.174,16,0.30000000000000004,-0.4,2.0,0.5,7.7,7.6000000000000005,-24.1,-0.7,5.9
1698673089.19,16,-0.1,-0.6000000000000001,1.4000000000000001,0.1,7.4,7.0,-32.1,17.599999999999998,3.1
1698673089.207,16,-0.2,0.30000000000000004,0.8,0.0,8.200000000000001,6.5,-13.3,2.3000000000000003,-1.2000000000000002
1698673089.224,16,-0.2,0.4,1.0,0.1,8.4,6.9,3.7000000000000006,-6.8,-0.7
1698673089.241,16,0.0,0.5,1.5,0.2,8.4,7.1000000000000005,7.500000000000001,-10.3,-0.5
1698673089.257,16,0.0,0.4,1.6,0.2,8.4,7.300000000000001,8.0,-11.700000000000001,-1.2000000000000002
1698673089.274,16,0.0,0.1,1.5,0.2,8.1,7.2,4.0,-8.200000000000001,-2.7
1698673089.291,16,0.0,0.0,1.3,0.2,7.9,7.0,3.0000000000000004,-3.6,-5.1
1698673089.307,16,0.1,-0.1,0.9,0.30000000000000004,7.800000000000001,6.6000000000000005,7.500000000000001,-3.6,-7.9
1698673089.324,16,0.1,-0.30000000000000004,0.6000000000000001,0.30000000000000004,7.5,6.0,12.000000000000002,-1.7,-8.4
1698673089.34,16,0.1,-0.6000000000000001,0.2,0.30000000000000004,7.5,5.800000000000001,13.9,-1.5000000000000002,-7.8
1698673089.357,16,0.1,-0.6000000000000001,0.2,0.30000000000000004,7.5,5.800000000000001,17.9,-4.6000000000000005,-7.1000000000000005
1698673089.373,16,0.2,-0.6000000000000001,0.2,0.30000000000000004,7.5,5.800000000000001,21.1,-6.2,-7.500000000000001
1698673089.39,16,0.1,-0.6000000000000001,0.1,0.2,7.5,5.5,29.1,-4.1000000000000005,-8.4
1698673089.408,16,0.1,-0.6000000000000001,0.1,0.2,7.5,5.5,29.1,-4.1000000000000005,-8.4
1698673089.424,16,0.0,-0.9,-0.2,0.2,7.300000000000001,5.1000000000000005,30.799999999999997,-1.0,-8.0
1698673089.44,16,0.0,-1.3,-0.7000000000000001,0.1,6.9,4.6000000000000005,32.5,0.4,-7.699999999999999
1698673089.457,16,0.0,-1.4000000000000001,-1.0,0.1,6.9,4.2,33.6,1.3,-7.400000000000001
1698673089.474,16,-0.2,-1.2000000000000002,-0.6000000000000001,-0.1,7.2,4.4,37.900000000000006,0.7,-5.9
1698673089.49,16,-0.30000000000000004,-1.1,-0.5,-0.2,7.300000000000001,4.4,42.0,-0.4,-4.1000000000000005
1698673089.507,16,-0.2,-1.1,-0.6000000000000001,-0.2,7.300000000000001,4.4,45.9,-1.0,-2.0
1698673089.524,16,-0.2,-1.1,-0.6000000000000001,-0.1,7.4,4.1000000000000005,51.300000000000004,-1.2000000000000002,-0.2
1698673089.541,16,-0.1,-1.1,-0.5,-0.1,7.4,4.1000000000000005,53.50000000000001,0.4,-1.2000000000000002
1698673089.557,16,-0.1,-1.0,-0.30000000000000004,-0.1,7.6000000000000005,4.1000000000000005,53.2,4.800000000000001,-2.4000000000000004
1698673089.573,16,-0.1,-1.0,-0.30000000000000004,-0.1,7.7,4.0,52.50000000000001,6.6000000000000005,-2.7
1698673089.59,16,-0.30000000000000004,-1.1,-0.5,-0.2,7.6000000000000005,3.7,49.2,7.8,-3.1
1698673089.608,16,-0.5,-1.5,-0.5,-0.5,7.300000000000001,3.5,43.800000000000004,5.8,-2.1999999999999997
1698673089.624,16,-0.5,-1.6,-0.6000000000000001,-0.6000000000000001,7.2,3.4000000000000004,41.5,4.9,-1.6
1698673089.641,16,-0.8,-2.2,-0.8,-0.7000000000000001,6.9,3.2,37.900000000000006,2.3000000000000003,-0.9
1698673089.657,16,-0.7000000000000001,-2.3000000000000003,-0.9,-0.8,6.6000000000000005,2.9000000000000004,33.800000000000004,-0.4,0.4
1698673089.673,16,-0.8,-2.6,-0.7000000000000001,-0.8,6.300000000000001,2.9000000000000004,30.100000000000005,-3.1,-0.30000000000000004
1698673089.69,16,-0.8,-2.8000000000000003,-0.7000000000000001,-0.9,6.1000000000000005,2.9000000000000004,29.600000000000005,-4.3999999999999995,-0.7
1698673089.707,16,-0.8,-3.3000000000000003,-0.7000000000000001,-0.8,5.6000000000000005,2.8000000000000003,29.800000000000004,-7.400000000000001,-1.0999999999999999
1698673089.724,16,-0.7000000000000001,-3.5,-0.6000000000000001,-0.8,5.5,2.8000000000000003,30.200000000000003,-9.600000000000001,-1.7
1698673089.74,16,-0.6000000000000001,-3.6,-0.5,-0.6000000000000001,5.300000000000001,2.9000000000000004,31.4,-13.200000000000001,-3.2
1698673089.757,16,-0.4,-3.2,0.0,-0.5,5.7,3.2,33.2,-13.100000000000001,-3.9
1698673089.774,16,-0.1,-2.4000000000000004,0.6000000000000001,-0.2,6.5,3.8000000000000003,37.900000000000006,-14.3,-2.3000000000000003
1698673089.791,16,0.1,-1.9000000000000001,0.9,0.1,7.7,4.3,40.2,-14.500000000000002,-0.9
1698673089.807,16,0.30000000000000004,-0.7000000000000001,1.4000000000000001,0.30000000000000004,8.3,4.4,43.0,-11.9,2.9
1698673089.824,16,0.30000000000000004,0.1,1.7000000000000002,0.30000000000000004,9.1,4.6000000000000005,41.1,-8.4,8.200000000000001
1698673089.841,16,0.1,0.30000000000000004,1.7000000000000002,0.2,9.3,4.5,37.900000000000006,-5.8,10.3
1698673089.858,16,0.2,1.1,1.5,0.30000000000000004,10.200000000000001,4.2,26.200000000000003,1.8,10.9
1698673089.874,16,0.30000000000000004,1.4000000000000001,1.3,0.4,10.5,4.0,14.500000000000002,1.0,5.4
1698673089.89,16,0.1,1.1,1.3,0.2,10.3,3.9000000000000004,9.4,-2.3000000000000003,3.5
1698673089.907,16,-0.30000000000000004,0.5,1.0,-0.2,9.700000000000001,3.6,0.1,-0.5,5.7
1698673089.924,16,-0.4,0.30000000000000004,0.8,-0.30000000000000004,9.4,3.5,-3.6,-0.1,5.6
1698673089.94,16,-0.4,-0.1,0.6000000000000001,-0.30000000000000004,9.0,3.3000000000000003,-8.600000000000001,-2.6,1.2000000000000002
1698673089.957,16,-0.2,-0.30000000000000004,0.6000000000000001,-0.1,8.8,3.3000000000000003,-10.9,-1.8,-2.9
1698673089.973,16,-0.1,-0.2,0.6000000000000001,0.0,8.9,3.4000000000000004,-10.2,0.0,-2.9
1698673089.99,16,-0.1,-0.1,0.6000000000000001,0.0,9.0,3.4000000000000004,-9.4,-1.0999999999999999,-2.1
1698673090.007,16,-0.1,0.2,0.7000000000000001,0.0,9.3,3.5,-8.600000000000001,-3.2,-2.4000000000000004
1698673090.024,16,-0.1,0.1,0.7000000000000001,0.0,9.200000000000001,3.6,-10.4,-2.1999999999999997,-3.4
1698673090.04,16,-0.1,0.0,0.7000000000000001,0.0,9.1,3.6,-12.100000000000001,-1.3,-3.5
1698673090.057,16,0.0,0.1,0.6000000000000001,0.1,9.200000000000001,3.5,-16.5,0.6000000000000001,-2.6
1698673090.075,16,0.1,0.0,0.5,0.1,9.1,3.5,-20.3,1.3,-0.1
1698673090.09,16,-0.1,-0.2,0.5,0.0,8.8,3.5,-21.3,3.0000000000000004,1.9
1698673090.107,16,-0.1,-0.30000000000000004,0.4,0.0,8.700000000000001,3.5,-21.200000000000003,2.4000000000000004,2.3000000000000003
1698673090.124,16,-0.2,-0.4,0.5,-0.1,8.6,3.7,-21.3,0.7,2.6
1698673090.14,16,-0.2,-0.4,0.6000000000000001,-0.1,8.6,3.9000000000000004,-22.2,-1.6,3.1
1698673090.158,16,-0.30000000000000004,-0.5,0.7000000000000001,-0.2,8.5,4.0,-23.400000000000002,-3.8,3.4
1698673090.174,16,-0.4,-0.7000000000000001,0.6000000000000001,-0.2,8.200000000000001,4.0,-29.000000000000004,-7.9,3.8
1698673090.191,16,-0.5,-1.2000000000000002,0.2,-0.4,7.6000000000000005,3.7,-38.6,-7.9,2.4000000000000004
1698673090.207,16,-0.6000000000000001,-1.4000000000000001,-0.1,-0.4,7.5,3.5,-43.300000000000004,-7.2,1.4
1698673090.224,16,-0.6000000000000001,-1.0,-0.1,-0.5,7.7,3.6,-50.2,-8.200000000000001,-1.6
1698673090.24,16,-0.4,-0.4,-0.1,-0.30000000000000004,8.3,3.8000000000000003,-50.6,-13.0,-5.500000000000001
1698673090.257,16,-0.2,-0.5,-0.1,-0.1,8.200000000000001,3.8000000000000003,-50.1,-14.3,-7.2
1698673090.274,16,-0.1,-1.3,-0.30000000000000004,0.1,7.300000000000001,3.7,-52.2,-11.000000000000002,-10.700000000000001
1698673090.29,16,0.0,-1.7000000000000002,-0.4,0.1,6.800000000000001,3.8000000000000003,-53.400000000000006,-6.2,-12.3
1698673090.307,16,0.2,-2.4000000000000004,-0.6000000000000001,0.30000000000000004,6.1000000000000005,3.7,-53.8,4.800000000000001,-13.4
1698673090.324,16,0.8,-1.6,-0.7000000000000001,0.8,6.7,3.8000000000000003,-51.6,7.9,-9.1
1698673090.34,16,1.2000000000000002,-0.1,-0.4,1.3,8.200000000000001,4.2,-49.7,7.400000000000001,0.30000000000000004
1698673090.357,16,1.1,0.30000000000000004,-0.30000000000000004,1.1,8.5,4.4,-48.400000000000006,6.8,4.5
1698673090.375,16,0.4,-0.4,-0.5,0.4,7.7,4.3,-45.9,10.0,5.1
1698673090.395,16,0.1,-1.0,-1.0,0.2,7.1000000000000005,3.9000000000000004,-46.900000000000006,1.6,3.4
1698673090.407,16,0.0,-1.3,-0.9,0.1,6.800000000000001,4.1000000000000005,-49.5,1.3,4.5
1698673090.424,16,-0.1,-1.3,-1.0,0.0,6.800000000000001,4.1000000000000005,-53.300000000000004,2.1,5.9
1698673090.441,16,0.0,-1.1,-1.1,0.0,6.800000000000001,4.1000000000000005,-53.300000000000004,2.1,5.9
1698673090.457,16,-0.1,-1.1,-1.1,0.0,6.7,4.3,-55.900000000000006,3.9,2.3000000000000003
1698673090.474,16,-0.2,-1.2000000000000002,-0.5,-0.2,6.5,5.0,-51.6,-0.1,-1.8
1698673090.49,16,-0.1,-0.7000000000000001,-0.30000000000000004,0.0,6.800000000000001,5.300000000000001,-43.6,-1.3,-3.5
1698673090.507,16,0.30000000000000004,-0.2,-0.5,0.4,7.2,5.2,-43.400000000000006,8.0,1.0
1698673090.524,16,0.4,-0.1,-0.8,0.5,7.300000000000001,4.9,-45.800000000000004,13.700000000000001,3.7000000000000006
1698673090.54,16,0.5,-0.2,-0.9,0.5,7.1000000000000005,4.9,-50.5,16.900000000000002,5.0
1698673090.557,16,0.1,-0.6000000000000001,-0.4,0.1,6.6000000000000005,5.6000000000000005,-46.2,7.6,4.300000000000001
1698673090.575,16,-0.1,-0.6000000000000001,-0.30000000000000004,-0.1,6.5,5.7,-40.9,-1.0999999999999999,4.9
1698673090.59,16,-0.30000000000000004,-0.5,-0.1,-0.2,6.6000000000000005,6.0,-37.4,-5.7,5.7
1698673090.608,16,-0.4,-0.30000000000000004,0.1,-0.4,6.7,6.300000000000001,-32.6,4.6000000000000005,6.4
1698673090.623,16,0.1,-0.30000000000000004,-0.7000000000000001,0.2,6.7,5.5,-32.1,17.7,1.7
1698673090.64,16,0.4,-0.1,-0.6000000000000001,0.4,6.800000000000001,5.800000000000001,-29.000000000000004,16.900000000000002,-3.3000000000000003
1698673090.657,16,0.1,0.2,-0.2,0.0,7.0,6.1000000000000005,-17.8,10.5,-0.30000000000000004
1698673090.674,16,-0.1,0.2,0.0,-0.30000000000000004,7.0,6.5,-13.0,4.0,3.2
1698673090.69,16,-0.4,0.4,0.4,-0.5,7.2,6.800000000000001,-11.000000000000002,-7.300000000000001,8.600000000000001
1698673090.707,16,-0.4,0.7000000000000001,1.0,-0.4,7.5,7.4,-14.200000000000001,-6.2,7.6
1698673090.724,16,-0.4,0.6000000000000001,0.9,-0.4,7.300000000000001,7.300000000000001,-16.3,1.4,4.300000000000001
1698673090.74,16,-0.2,0.30000000000000004,0.6000000000000001,-0.2,7.0,7.1000000000000005,-17.599999999999998,9.5,-2.3000000000000003
1698673090.757,16,0.1,0.2,0.6000000000000001,0.1,6.9,7.2,-15.9,7.500000000000001,-3.2
1698673090.774,16,0.5,0.2,0.9,0.5,6.9,7.4,-10.2,-3.1,-0.6000000000000001
1698673090.79,16,0.30000000000000004,0.30000000000000004,0.8,0.30000000000000004,7.0,7.4,-6.9,-10.8,6.1000000000000005
1698673090.807,16,0.1,0.5,0.8,0.1,7.2,7.4,-7.1000000000000005,-12.200000000000001,8.9
1698673090.824,16,-0.5,0.8,1.1,-0.4,7.4,7.7,-3.9,-9.9,9.600000000000001
1698673090.84,16,-0.30000000000000004,0.2,1.1,-0.30000000000000004,6.9,7.7,2.7,3.2,4.6000000000000005
1698673090.857,16,0.1,-0.2,0.9,0.1,6.5,7.6000000000000005,9.8,6.7,-1.8
1698673090.874,16,0.9,-0.6000000000000001,0.7000000000000001,1.0,6.1000000000000005,7.300000000000001,13.100000000000001,1.0999999999999999,-2.9
1698673090.891,16,1.0,-0.5,0.7000000000000001,1.0,6.2,7.300000000000001,18.3,-3.9,2.4000000000000004
1698673090.907,16,0.0,0.30000000000000004,0.6000000000000001,0.1,7.1000000000000005,7.1000000000000005,25.0,-1.4,9.600000000000001
1698673090.924,16,-0.4,0.4,0.5,-0.30000000000000004,7.300000000000001,7.0,28.6,-1.3,8.799999999999999
1698673090.94,16,-0.4,-0.1,0.5,-0.30000000000000004,6.800000000000001,6.9,36.0,-1.0999999999999999,4.300000000000001
1698673090.957,16,0.1,-0.6000000000000001,0.7000000000000001,0.2,6.4,7.0,43.50000000000001,-1.8,-2.1999999999999997
1698673090.974,16,0.30000000000000004,-0.5,0.9,0.4,6.6000000000000005,7.1000000000000005,48.1,-2.1,-2.8
1698673090.99,16,0.4,-0.1,0.9,0.5,7.0,7.1000000000000005,52.800000000000004,-1.0999999999999999,-1.3
1698673091.007,16,0.2,1.2000000000000002,1.0,0.30000000000000004,8.4,7.0,60.1,2.1,1.6
1698673091.024,16,0.2,1.4000000000000001,0.9,0.30000000000000004,8.8,6.800000000000001,65.10000000000001,3.2,2.0
1698673091.041,16,0.2,1.4000000000000001,0.9,0.30000000000000004,8.8,6.7,67.3,3.8,2.0
1698673091.057,16,-0.1,1.0,0.5,0.0,8.6,6.1000000000000005,74.7,5.4,1.7
1698673091.075,16,-0.1,1.5,1.0,0.0,9.3,6.300000000000001,89.10000000000001,-0.2,-1.2000000000000002
1698673091.091,16,0.0,1.9000000000000001,1.2000000000000002,0.1,9.8,6.4,92.7,-4.6000000000000005,-3.9
1698673091.107,16,0.1,2.5,1.3,0.30000000000000004,10.600000000000001,6.2,90.2,-6.2,-6.6000000000000005
1698673091.124,16,0.30000000000000004,2.6,0.6000000000000001,0.4,10.9,5.300000000000001,79.5,0.7,-3.0000000000000004
1698673091.141,16,0.30000000000000004,2.1,0.6000000000000001,0.4,10.5,5.2,75.2,2.0,-1.5000000000000002
1698673091.157,16,0.30000000000000004,0.9,0.0,0.4,9.4,4.4,73.10000000000001,2.8,3.1
1698673091.175,16,0.2,0.2,-0.1,0.30000000000000004,8.3,4.0,75.80000000000001,0.30000000000000004,4.800000000000001
1698673091.19,16,0.1,-0.7000000000000001,-0.30000000000000004,0.2,7.9,3.8000000000000003,78.60000000000001,-3.5,4.6000000000000005
1698673091.207,16,0.0,-1.0,-0.5,0.1,7.6000000000000005,3.1,80.5,-5.1,3.9
1698673091.224,16,-0.2,-1.2000000000000002,-0.7000000000000001,0.0,7.6000000000000005,3.0,77.80000000000001,-0.2,3.0000000000000004
1698673091.24,16,-0.30000000000000004,-0.6000000000000001,-0.6000000000000001,-0.1,8.200000000000001,2.9000000000000004,73.9,2.3000000000000003,5.9
1698673091.257,16,0.2,0.30000000000000004,-0.8,0.4,9.3,2.4000000000000004,68.4,2.3000000000000003,8.9
1698673091.273,16,0.5,0.6000000000000001,-0.6000000000000001,0.7000000000000001,9.5,2.5,64.60000000000001,2.9,8.0
1698673091.29,16,0.0,0.6000000000000001,-0.6000000000000001,0.2,9.600000000000001,2.4000000000000004,60.5,3.9,3.9
1698673091.307,16,-0.5,0.6000000000000001,-0.5,-0.30000000000000004,9.700000000000001,2.2,53.7,1.7,7.2
1698673091.324,16,-0.5,0.8,-0.4,-0.2,10.3,2.2,50.4,1.4,8.9
1698673091.34,16,-0.4,1.3,-0.4,-0.2,10.5,2.1,46.4,-1.5000000000000002,7.9
1698673091.357,16,-0.4,1.3,-0.30000000000000004,-0.1,10.4,2.1,44.9,-2.1,6.8
1698673091.374,16,-0.30000000000000004,1.0,-0.5,0.0,10.3,1.8,42.7,-1.6,6.1000000000000005
1698673091.391,16,-0.30000000000000004,0.7000000000000001,-0.9,0.0,10.0,1.3,34.50000000000001,-4.6000000000000005,6.000000000000001
1698673091.407,16,-0.1,0.6000000000000001,-1.3,0.2,10.0,0.8,22.2,-3.0000000000000004,6.4
1698673091.424,16,-0.1,0.8,-1.0,0.2,10.100000000000001,1.1,11.9,-9.600000000000001,4.300000000000001
1698673091.44,16,-0.1,0.9,-1.0,0.30000000000000004,10.3,1.0,9.700000000000001,-12.100000000000001,4.6000000000000005
1698673091.457,16,0.0,0.9,-1.0,0.4,10.3,1.0,7.0,-12.8,5.6
1698673091.474,16,0.2,0.7000000000000001,-1.1,0.7000000000000001,10.0,0.8,7.8,-13.100000000000001,4.9
1698673091.49,16,0.4,0.6000000000000001,-1.4000000000000001,0.8,9.9,0.5,6.8,-11.5,3.5
1698673091.507,16,0.5,0.7000000000000001,-1.5,1.0,10.100000000000001,0.4,0.8,-6.8,2.4000000000000004
1698673091.524,16,0.5,1.0,-1.4000000000000001,1.0,10.4,0.5,-1.2000000000000002,-6.2,4.2
1698673091.54,16,0.5,1.3,-1.3,1.0,10.700000000000001,0.6000000000000001,-3.0000000000000004,-5.500000000000001,8.4
1698673091.557,16,0.30000000000000004,1.1,-1.4000000000000001,0.8,10.5,0.5,-4.300000000000001,-4.7,11.2
1698673091.573,16,0.4,1.3,-1.3,1.0,10.700000000000001,0.6000000000000001,-8.3,0.1,9.4
1698673091.59,16,0.5,1.3,-1.3,1.0,10.700000000000001,0.6000000000000001,-10.8,3.4,7.400000000000001
1698673091.607,16,0.6000000000000001,1.3,-1.2000000000000002,1.2000000000000002,10.700000000000001,0.8,-16.2,4.9,4.0
1698673091.624,16,0.7000000000000001,1.3,-1.1,1.3,10.700000000000001,0.9,-24.9,15.000000000000002,2.1
1698673091.64,16,0.6000000000000001,1.1,-1.3,1.2000000000000002,10.5,0.8,-29.300000000000004,18.400000000000002,0.9
1698673091.657,16,0.5,1.0,-1.4000000000000001,1.1,10.4,0.8,-42.300000000000004,22.7,2.0
1698673091.674,16,0.6000000000000001,1.4000000000000001,-1.7000000000000002,1.2000000000000002,10.700000000000001,0.6000000000000001,-55.2,16.900000000000002,4.6000000000000005
1698673091.69,16,0.4,1.1,-2.3000000000000003,1.0,10.4,0.1,-66.3,20.0,3.8
1698673091.707,16,0.30000000000000004,1.3,-1.4000000000000001,0.9,10.600000000000001,1.3,-82.8,5.9,0.6000000000000001
1698673091.724,16,0.1,1.4000000000000001,-1.7000000000000002,0.7000000000000001,10.600000000000001,1.2000000000000002,-86.60000000000001,11.3,-1.3
1698673091.741,16,-0.1,1.3,-2.8000000000000003,0.5,10.4,0.30000000000000004,-98.4,20.3,-1.6
1698673091.757,16,0.0,1.3,-2.6,0.5,10.4,0.8,-112.5,7.699999999999999,-2.7
1698673091.774,16,0.30000000000000004,1.9000000000000001,-1.6,0.8,10.5,1.3,-113.9,1.8,-4.0
1698673091.791,16,0.2,2.3000000000000003,-1.0,0.8,11.100000000000001,2.9000000000000004,-101.60000000000001,0.30000000000000004,-9.0
1698673091.807,16,0.5,3.0,0.1,1.0,11.8,4.2,-70.8,5.8,-10.2
1698673091.824,16,0.6000000000000001,3.1,0.6000000000000001,1.0,11.8,4.800000000000001,-54.7,7.300000000000001,-9.8
1698673091.84,16,0.7000000000000001,2.5,2.2,1.1,11.200000000000001,6.7,-60.400000000000006,9.5,-3.3000000000000003
1698673091.857,16,0.7000000000000001,0.2,1.8,1.1,8.700000000000001,6.6000000000000005,-104.5,14.500000000000002,-1.5000000000000002
1698673091.874,16,0.2,-0.9,1.0,0.5,7.5,6.0,-102.30000000000001,20.2,-4.1000000000000005
1698673091.891,16,-0.4,-0.9,0.5,-0.1,7.4,5.7,-84.5,11.700000000000001,-1.3
1698673091.907,16,-1.0,-0.4,0.30000000000000004,-0.6000000000000001,7.7,5.6000000000000005,-45.3,5.7,7.0
1698673091.923,16,-0.5,0.1,1.1,-0.2,8.200000000000001,6.5,-14.4,1.4,3.5
1698673091.94,16,0.4,-0.30000000000000004,1.9000000000000001,0.8,7.800000000000001,7.300000000000001,-6.9,-9.600000000000001,-3.0000000000000004
1698673091.957,16,0.7000000000000001,-0.6000000000000001,2.1,1.0,7.5,7.6000000000000005,-12.5,-9.9,-1.8
1698673091.974,16,0.30000000000000004,-0.2,1.9000000000000001,0.7000000000000001,7.800000000000001,7.4,-25.0,5.1,3.4
1698673091.991,16,0.0,0.1,1.0,0.30000000000000004,8.1,6.6000000000000005,-16.6,7.300000000000001,-0.1
1698673092.007,16,-0.1,0.4,0.9,0.30000000000000004,8.3,6.5,-8.200000000000001,2.6,-1.8
1698673092.023,16,0.1,0.7000000000000001,1.4000000000000001,0.5,8.700000000000001,7.1000000000000005,7.1000000000000005,-7.500000000000001,-2.3000000000000003
1698673092.04,16,0.30000000000000004,0.7000000000000001,1.6,0.6000000000000001,8.700000000000001,7.300000000000001,11.8,-11.5,-2.6
1698673092.057,16,0.2,0.2,1.6,0.6000000000000001,8.3,7.2,11.9,-9.9,-3.4
1698673092.074,16,0.30000000000000004,-0.2,1.4000000000000001,0.7000000000000001,7.9,7.0,8.600000000000001,-3.0000000000000004,-5.4
1698673092.091,16,0.30000000000000004,-0.2,1.3,0.7000000000000001,7.9,6.7,12.200000000000001,-1.0,-9.0
1698673092.107,16,0.4,-0.1,0.9,0.8,8.0,6.5,15.7,-1.3,-10.2
1698673092.124,16,0.4,0.1,0.7000000000000001,0.7000000000000001,8.200000000000001,6.1000000000000005,21.900000000000002,-0.8,-11.2
1698673092.14,16,0.30000000000000004,-0.2,0.30000000000000004,0.6000000000000001,8.0,5.7,27.400000000000002,0.8,-8.9
1698673092.157,16,0.30000000000000004,-0.4,0.1,0.6000000000000001,7.800000000000001,5.5,29.400000000000002,1.4,-7.6
1698673092.173,16,0.2,-0.8,-0.30000000000000004,0.5,7.5,4.9,32.0,1.7,-6.3
1698673092.19,16,0.0,-0.8,-0.7000000000000001,0.30000000000000004,7.5,4.5,34.7,3.2,-5.1
1698673092.207,16,-0.1,-0.7000000000000001,-0.7000000000000001,0.2,7.7,4.5,36.3,3.3000000000000003,-4.2
1698673092.223,16,-0.2,-0.5,-0.5,0.0,7.9,4.5,40.6,-0.2,-2.3000000000000003
1698673092.24,16,-0.30000000000000004,-0.5,-0.30000000000000004,-0.1,7.800000000000001,4.6000000000000005,47.0,0.6000000000000001,-1.4
1698673092.257,16,-0.4,-1.1,-0.6000000000000001,-0.1,7.5,4.2,50.300000000000004,3.2,-1.5000000000000002
1698673092.274,16,-0.30000000000000004,-1.4000000000000001,-0.8,0.0,6.9,3.7,51.7,4.800000000000001,-2.1
1698673092.291,16,-0.1,-1.9000000000000001,-1.1,0.1,6.7,3.5,51.2,3.7000000000000006,-2.7
1698673092.307,16,-0.1,-1.8,-1.1,0.1,6.9,3.3000000000000003,49.2,4.1000000000000005,-2.7
1698673092.324,16,-0.30000000000000004,-1.4000000000000001,-1.0,-0.1,7.300000000000001,3.2,46.2,0.9,-0.7
1698673092.34,16,-0.5,-1.5,-0.9,-0.30000000000000004,7.300000000000001,3.2,44.5,-6.000000000000001,3.8
1698673092.357,16,-0.6000000000000001,-1.7000000000000002,-0.8,-0.4,7.1000000000000005,3.2,44.4,-7.500000000000001,5.0
1698673092.375,16,-0.7000000000000001,-2.4000000000000004,-0.8,-0.5,6.5,3.0,44.8,-7.2,4.9
1698673092.39,16,-0.7000000000000001,-2.7,-0.8,-0.5,6.2,3.0,45.7,-6.000000000000001,2.9
1698673092.407,16,-0.6000000000000001,-3.1,-0.8,-0.4,5.800000000000001,2.9000000000000004,46.300000000000004,-3.2,-0.9
1698673092.424,16,-0.4,-3.6,-0.7000000000000001,-0.2,5.4,2.8000000000000003,45.9,-0.5,-4.5
1698673092.44,16,-0.2,-3.9000000000000004,-0.8,0.0,5.1000000000000005,2.6,43.6,-2.3000000000000003,-6.5
1698673092.457,16,-0.1,-4.0,-0.8,0.0,5.0,2.5,41.300000000000004,-4.9,-7.0
1698673092.474,16,-0.4,-3.9000000000000004,-0.4,-0.2,5.1000000000000005,2.8000000000000003,37.2,-7.500000000000001,-5.7
1698673092.491,16,-0.7000000000000001,-3.2,-0.1,-0.5,5.800000000000001,3.0,34.800000000000004,-8.200000000000001,-0.4
1698673092.507,16,-0.7000000000000001,-2.7,0.2,-0.6000000000000001,6.300000000000001,3.2,34.400000000000006,-8.4,1.7
1698673092.524,16,-0.6000000000000001,-1.6,0.6000000000000001,-0.4,7.4,3.5,34.800000000000004,-11.6,2.1
1698673092.54,16,-0.30000000000000004,-0.6000000000000001,1.3,-0.1,8.4,4.1000000000000005,35.9,-12.000000000000002,-1.0
1698673092.556,16,0.0,-0.30000000000000004,1.5,0.2,8.8,4.2,36.1,-10.600000000000001,-2.1999999999999997
1698673092.574,16,0.30000000000000004,0.30000000000000004,1.7000000000000002,0.5,9.4,4.4,33.7,-7.300000000000001,-3.4
1698673092.59,16,0.30000000000000004,0.6000000000000001,1.6,0.5,9.700000000000001,4.2,27.400000000000002,-5.300000000000001,-0.4
1698673092.608,16,0.2,0.4,1.4000000000000001,0.2,9.5,3.6,17.200000000000003,-4.6000000000000005,4.6000000000000005
1698673092.624,16,-0.2,0.30000000000000004,1.0,0.1,9.5,3.5,11.700000000000001,-3.2,3.6
1698673092.64,16,-0.2,0.6000000000000001,1.1,0.0,9.700000000000001,3.6,4.7,-4.9,0.2
1698673092.657,16,-0.2,0.8,1.2000000000000002,0.1,10.0,3.7,3.3000000000000003,-4.6000000000000005,0.30000000000000004
1698673092.674,16,0.0,0.7000000000000001,1.1,0.2,9.9,3.6,0.9,-3.2,0.4
1698673092.69,16,0.1,0.1,1.2000000000000002,0.30000000000000004,9.3,3.7,-4.6000000000000005,-1.3,-0.9
1698673092.706,16,0.1,-0.2,1.2000000000000002,0.30000000000000004,8.9,3.8000000000000003,-9.9,-2.4000000000000004,0.1
1698673092.723,16,0.0,-0.2,1.2000000000000002,0.2,9.0,3.7,-12.6,-2.9,0.1
1698673092.74,16,-0.1,0.2,1.2000000000000002,0.1,9.3,3.8000000000000003,-19.200000000000003,-4.0,-1.0
1698673092.756,16,-0.1,0.4,1.3,0.1,9.5,4.1000000000000005,-24.8,-4.2,-3.1
1698673092.773,16,-0.1,0.4,1.3,0.1,9.5,4.0,-27.0,-2.9,-3.8
1698673092.79,16,-0.2,-0.1,1.2000000000000002,0.0,9.0,4.1000000000000005,-30.7,-0.1,-5.7
1698673092.807,16,-0.1,-0.5,1.0,0.1,8.6,4.0,-34.6,3.4,-6.8
1698673092.823,16,0.0,-0.6000000000000001,0.8,0.2,8.4,3.9000000000000004,-37.0,4.300000000000001,-6.9
1698673092.84,16,0.1,-0.7000000000000001,0.8,0.2,8.200000000000001,4.0,-42.0,5.6,-5.500000000000001
1698673092.857,16,0.1,-0.7000000000000001,0.8,0.2,8.3,4.0,-45.3,4.300000000000001,-1.6
1698673092.874,16,0.0,-0.7000000000000001,0.6000000000000001,0.2,8.200000000000001,4.0,-47.300000000000004,2.1999999999999997,0.6000000000000001
1698673092.89,16,-0.1,-1.1,0.2,0.0,7.7,3.8000000000000003,-52.800000000000004,0.8,4.5
1698673092.907,16,-0.2,-1.4000000000000001,-0.1,-0.1,7.4,3.6,-56.2,0.4,5.6
1698673092.924,16,-0.4,-1.7000000000000002,-0.4,-0.30000000000000004,7.0,3.4000000000000004,-61.7,1.0,7.0
1698673092.94,16,-0.6000000000000001,-1.4000000000000001,-0.8,-0.4,7.2,3.3000000000000003,-64.30000000000001,-2.6,6.6000000000000005
1698673092.957,16,-0.6000000000000001,-0.9,-0.7000000000000001,-0.4,7.6000000000000005,3.5,-63.10000000000001,-11.6,2.6
1698673092.974,16,-0.6000000000000001,-0.7000000000000001,-0.6000000000000001,-0.4,7.800000000000001,3.7,-61.8,-12.700000000000001,-1.0
1698673092.991,16,-0.4,-1.0,-0.7000000000000001,-0.2,7.4,3.8000000000000003,-60.400000000000006,-14.800000000000002,-10.3
1698673093.007,16,-0.2,-1.8,-0.8,0.0,6.4,3.8000000000000003,-61.199999999999996,-10.600000000000001,-15.6
1698673093.024,16,-0.1,-2.2,-0.9,0.1,6.0,3.8000000000000003,-62.50000000000001,-5.2,-15.000000000000002
1698673093.041,16,0.4,-2.3000000000000003,-0.8,0.5,5.7,4.0,-63.300000000000004,-1.8,-12.6
1698673093.057,16,0.5,-1.1,-0.6000000000000001,0.6000000000000001,6.2,4.2,-63.10000000000001,-1.6,-6.3
1698673093.074,16,0.4,-0.6000000000000001,-0.4,0.5,7.300000000000001,4.7,-62.50000000000001,4.300000000000001,-3.4
1698673093.091,16,0.0,-0.8,-0.9,0.1,6.9,4.5,-61.7,14.100000000000001,-4.300000000000001
1698673093.107,16,0.0,-1.3,-1.4000000000000001,0.1,6.4,4.0,-64.4,11.700000000000001,-2.4000000000000004
1698673093.124,16,0.0,-2.2,-1.3,0.0,5.4,4.3,-64.10000000000001,6.7,0.2
1698673093.14,16,-0.2,-1.6,-0.9,0.0,5.4,4.5,-61.1,2.1,2.8
1698673093.157,16,-0.5,-0.2,-0.5,-0.5,7.2,5.4,-49.8,-9.600000000000001,7.8
1698673093.174,16,-0.8,0.6000000000000001,-0.1,-0.7000000000000001,7.800000000000001,5.800000000000001,-44.4,-9.4,4.2
1698673093.19,16,-0.8,0.4,-0.30000000000000004,-0.7000000000000001,7.6000000000000005,5.6000000000000005,-44.8,-2.1,-0.5
1698673093.206,16,-0.30000000000000004,-0.7000000000000001,-1.0,-0.2,6.300000000000001,5.1000000000000005,-53.9,6.2,-10.700000000000001
1698673093.224,16,0.0,-1.0,-0.9,0.1,6.0,5.300000000000001,-57.699999999999996,4.5,-13.0
1698673093.241,16,0.6000000000000001,-1.0,-0.7000000000000001,0.7000000000000001,5.9,5.7,-55.0,2.0,-8.9
1698673093.257,16,0.7000000000000001,-0.8,-0.5,0.7000000000000001,5.9,5.9,-44.7,-4.300000000000001,-0.5
1698673093.274,16,0.5,-0.5,-0.2,0.6000000000000001,6.2,6.2,-39.1,-8.5,3.6
1698673093.29,16,-0.30000000000000004,0.2,0.2,-0.2,6.9,6.7,-31.3,-4.2,6.2
1698673093.307,16,-0.5,0.2,0.1,-0.30000000000000004,6.6000000000000005,6.6000000000000005,-28.400000000000002,-1.0,3.8
1698673093.324,16,-0.30000000000000004,-0.2,-0.1,-0.2,6.300000000000001,6.6000000000000005,-28.500000000000004,-2.7,1.6
1698673093.34,16,-0.1,0.1,-0.1,0.0,6.5,6.6000000000000005,-28.1,-7.1000000000000005,-0.5
1698673093.357,16,-0.1,0.5,0.2,0.0,7.0,7.0,-24.400000000000002,-6.4,0.1
1698673093.374,16,-0.2,0.4,0.4,-0.1,6.800000000000001,7.2,-20.8,-4.9,-0.5
1698673093.391,16,-0.4,0.0,0.5,-0.30000000000000004,6.300000000000001,7.4,-13.4,2.0,-2.3000000000000003
1698673093.407,16,0.2,-0.4,0.4,0.30000000000000004,6.0,7.2,-7.699999999999999,5.8,-5.6
1698673093.424,16,0.6000000000000001,-0.4,0.6000000000000001,0.7000000000000001,6.0,7.4,-5.8,5.0,-6.9
1698673093.44,16,0.9,-0.1,0.8,0.9,6.2,7.6000000000000005,0.9,7.500000000000001,-4.3999999999999995
1698673093.457,16,0.30000000000000004,0.2,0.7000000000000001,0.30000000000000004,6.5,7.5,8.600000000000001,4.3999999999999995,2.3000000000000003
1698673093.474,16,-0.1,0.30000000000000004,0.8,-0.1,6.7,7.6000000000000005,12.5,2.8,5.300000000000001
1698673093.49,16,-0.7000000000000001,0.5,1.1,-0.6000000000000001,6.9,7.9,20.6,6.2,7.400000000000001
1698673093.507,16,-0.1,0.2,1.0,-0.1,6.7,7.800000000000001,27.8,12.3,1.4
1698673093.524,16,0.4,-0.1,0.7000000000000001,0.4,6.5,7.4,32.4,11.3,-6.1000000000000005
1698673093.54,16,0.7000000000000001,-0.2,0.8,0.6000000000000001,6.4,7.4,34.7,9.1,-5.8
1698673093.557,16,0.4,-0.4,1.0,0.4,6.300000000000001,7.6000000000000005,43.7,7.0,0.0
1698673093.574,16,0.30000000000000004,-0.2,1.0,0.30000000000000004,6.5,7.5,49.4,5.6,3.4
1698673093.591,16,-0.1,0.6000000000000001,1.3,-0.1,7.4,7.7,60.400000000000006,4.5,6.5
1698673093.607,16,-0.1,1.1,1.5,0.0,8.700000000000001,7.7,69.80000000000001,3.3000000000000003,5.7
1698673093.624,16,0.2,2.1,1.4000000000000001,0.2,9.200000000000001,7.6000000000000005,73.60000000000001,0.4,3.5
1698673093.641,16,0.6000000000000001,2.5,1.5,0.6000000000000001,9.8,7.4,80.10000000000001,-1.5000000000000002,2.1999999999999997
1698673093.657,16,0.4,2.1,1.6,0.4,9.600000000000001,7.300000000000001,88.5,5.9,5.9
1698673093.674,16,0.2,2.6,1.8,0.30000000000000004,9.9,7.4,93.4,4.5,8.1
1698673093.692,16,0.30000000000000004,3.0,1.6,0.30000000000000004,10.8,7.0,99.2,-0.9,9.200000000000001
1698673093.707,16,0.30000000000000004,3.3000000000000003,0.7000000000000001,0.4,11.4,5.9,89.2,-0.2,6.6000000000000005
1698673093.724,16,0.30000000000000004,2.5,0.0,0.4,10.700000000000001,5.0,73.2,4.7,7.9
1698673093.74,16,0.2,1.1,-0.5,0.30000000000000004,9.4,4.2,66.5,3.6,11.6
1698673093.757,16,0.2,0.4,-0.8,0.30000000000000004,8.700000000000001,3.9000000000000004,66.7,-2.4000000000000004,11.700000000000001
1698673093.775,16,-0.2,-1.0,-1.1,-0.1,7.5,3.3000000000000003,69.2,-7.699999999999999,8.1
1698673093.79,16,-0.4,-1.2000000000000002,-1.3,-0.2,7.300000000000001,3.0,68.9,-6.7,6.6000000000000005
1698673093.807,16,-0.30000000000000004,-0.6000000000000001,-0.9,-0.1,7.9,3.2,67.3,-5.2,3.9
1698673093.823,16,-0.1,0.30000000000000004,-0.6000000000000001,0.1,9.0,3.3000000000000003,70.10000000000001,-7.1000000000000005,2.6
1698673093.84,16,0.1,0.6000000000000001,-0.7000000000000001,0.30000000000000004,9.4,3.1,70.7,-6.5,3.8
1698673093.857,16,0.4,0.9,-0.8,0.6000000000000001,9.8,2.8000000000000003,67.5,-4.300000000000001,6.7
1698673093.874,16,0.4,1.0,-0.9,0.5,10.0,2.5,56.400000000000006,4.0,6.7
1698673093.89,16,-0.1,1.1,-0.7000000000000001,0.1,10.0,2.6,50.0,5.6,7.1000000000000005
1698673093.907,16,-0.2,1.6,-0.4,0.1,10.600000000000001,2.8000000000000003,45.5,1.4,8.5
1698673093.924,16,-0.30000000000000004,1.8,-0.4,0.1,10.8,2.6,38.5,-2.1999999999999997,7.400000000000001
1698673093.94,16,-0.30000000000000004,1.5,-0.5,0.0,10.600000000000001,2.5,32.0,-8.0,5.1
1698673093.957,16,-0.30000000000000004,0.8,-0.7000000000000001,0.1,10.0,2.2,24.5,-11.9,5.6
1698673093.974,16,-0.30000000000000004,0.30000000000000004,-0.8,0.1,9.4,2.0,17.5,-12.6,5.0
1698673093.991,16,-0.1,0.2,-1.1,0.30000000000000004,9.4,1.7000000000000002,8.1,-10.2,4.0
1698673094.007,16,0.1,0.6000000000000001,-1.0,0.5,9.8,1.8,4.7,-7.2,3.5
1698673094.023,16,0.4,0.9,-1.0,0.8,10.100000000000001,1.8,-1.8,0.4,3.0000000000000004
1698673094.04,16,0.30000000000000004,1.0,-1.3,0.7000000000000001,10.200000000000001,1.5,-3.6,1.3,4.0
1698673094.057,16,0.30000000000000004,1.0,-1.3,0.8,10.3,1.2000000000000002,-8.4,0.4,8.1
1698673094.074,16,0.4,1.4000000000000001,-1.6,0.8,10.700000000000001,1.5,-14.0,-1.9,8.1
1698673094.091,16,0.30000000000000004,1.6,-1.4000000000000001,0.8,10.700000000000001,1.4000000000000001,-14.600000000000001,-1.8,6.6000000000000005
1698673094.107,16,0.5,1.7000000000000002,-1.6,1.0,10.9,1.3,-19.400000000000002,6.7,2.4000000000000004
1698673094.123,16,0.6000000000000001,1.6,-1.3,1.1,10.700000000000001,1.6,-23.700000000000003,3.5,0.2
1698673094.14,16,0.8,1.4000000000000001,-1.3,1.3,10.5,1.7000000000000002,-28.900000000000002,5.0,2.1999999999999997
1698673094.157,16,0.7000000000000001,1.3,-1.3,1.3,10.5,1.7000000000000002,-32.300000000000004,6.6000000000000005,3.2
1698673094.173,16,0.6000000000000001,1.2000000000000002,-1.4000000000000001,1.2000000000000002,10.3,1.8,-40.9,8.700000000000001,4.6000000000000005
1698673094.191,16,0.5,1.1,-1.6,1.1,10.100000000000001,1.7000000000000002,-54.6,9.600000000000001,3.8
1698673094.207,16,0.6000000000000001,1.2000000000000002,-1.8,1.1,10.200000000000001,1.6,-63.0,9.8,2.3000000000000003
1698673094.223,16,0.4,1.5,-1.8,0.9,10.4,1.9000000000000001,-80.4,15.6,-1.8
1698673094.241,16,0.30000000000000004,1.6,-2.2,0.8,10.5,1.5,-87.7,17.7,-1.0999999999999999
1698673094.257,16,0.4,1.8,-1.9000000000000001,0.9,10.600000000000001,2.1,-105.10000000000001,9.8,0.2
1698673094.274,16,0.2,1.9000000000000001,-2.8000000000000003,0.7000000000000001,10.5,1.6,-107.8,9.4,1.2000000000000002
1698673094.291,16,0.30000000000000004,2.1,-1.5,0.8,10.5,3.2,-104.9,2.4000000000000004,1.2000000000000002
1698673094.307,16,0.2,2.0,-1.3,0.7000000000000001,10.4,3.5,-96.4,2.6,1.3
1698673094.323,16,0.30000000000000004,2.2,0.4,0.8,10.5,5.4,-78.80000000000001,3.6,3.0000000000000004
1698673094.34,16,0.2,2.5,1.7000000000000002,0.7000000000000001,10.700000000000001,6.800000000000001,-75.0,1.0999999999999999,4.3999999999999995
1698673094.357,16,0.5,2.5,2.9000000000000004,1.1,10.5,8.3,-82.0,2.1999999999999997,5.0
1698673094.374,16,0.8,0.9,1.7000000000000002,1.3,8.8,7.300000000000001,-94.1,21.6,-2.4000000000000004
1698673094.39,16,0.5,0.1,1.2000000000000002,0.5,7.300000000000001,6.9,-79.00000000000001,22.2,-3.6
1698673094.407,16,-0.4,-0.8,0.8,0.1,6.9,6.9,-64.8,16.6,0.4
1698673094.424,16,-0.8,-0.9,0.9,-0.4,6.6000000000000005,7.0,-36.5,6.7,8.200000000000001
1698673094.44,16,-0.7000000000000001,-0.7000000000000001,1.1,-0.30000000000000004,6.9,7.300000000000001,-25.400000000000002,2.1999999999999997,9.200000000000001
1698673094.457,16,-0.2,-0.2,1.5,0.2,7.300000000000001,7.7,-12.4,-2.6,7.699999999999999
1698673094.473,16,0.30000000000000004,-0.1,1.5,0.7000000000000001,7.4,7.800000000000001,-12.200000000000001,0.1,6.1000000000000005
1698673094.49,16,0.2,0.1,1.3,0.7000000000000001,7.5,7.7,-11.8,7.8,1.5000000000000002
1698673094.507,16,0.2,0.1,1.2000000000000002,0.7000000000000001,7.6000000000000005,7.5,-7.2,6.4,-0.8
1698673094.524,16,0.30000000000000004,0.6000000000000001,1.2000000000000002,0.7000000000000001,8.1,7.5,5.500000000000001,-2.7,-1.2000000000000002
1698673094.541,16,0.30000000000000004,0.8,1.4000000000000001,0.7000000000000001,8.200000000000001,7.7,11.4,-6.8,-0.6000000000000001
1698673094.556,16,0.2,0.7000000000000001,1.5,0.7000000000000001,8.200000000000001,7.800000000000001,19.400000000000002,-9.0,-2.0
1698673094.574,16,0.1,0.4,1.6,0.6000000000000001,7.9,7.800000000000001,19.3,-7.1000000000000005,-2.1
1698673094.591,16,0.0,0.1,1.4000000000000001,0.5,7.7,7.7,19.6,-5.4,-2.1
1698673094.607,16,0.2,-0.1,1.2000000000000002,0.7000000000000001,7.6000000000000005,7.4,22.2,-3.5,-2.6
1698673094.624,16,0.4,0.0,0.7000000000000001,0.9,7.7,6.800000000000001,26.1,-1.2000000000000002,-5.6
1698673094.641,16,0.5,0.30000000000000004,0.7000000000000001,1.0,8.0,6.800000000000001,27.900000000000002,-0.5,-7.500000000000001
1698673094.657,16,0.30000000000000004,0.5,0.7000000000000001,0.8,8.3,6.7,32.6,-2.6,-9.5
1698673094.674,16,0.1,-0.1,0.2,0.5,7.7,6.1000000000000005,37.300000000000004,-2.1,-8.1
1698673094.691,16,-0.1,-1.0,-0.7000000000000001,0.30000000000000004,6.9,5.1000000000000005,38.800000000000004,0.30000000000000004,-7.6
1698673094.707,16,-0.30000000000000004,-1.3,-1.0,0.1,6.7,4.6000000000000005,41.6,0.9,-8.700000000000001
1698673094.724,16,-0.30000000000000004,-1.1,-0.9,0.1,7.0,4.7,44.8,-0.2,-9.3
1698673094.74,16,-0.30000000000000004,-0.8,-0.7000000000000001,0.1,7.5,4.7,55.300000000000004,-6.6000000000000005,-11.2
1698673094.757,16,-0.2,-0.5,-0.8,0.1,7.7,4.6000000000000005,59.300000000000004,-9.5,-12.100000000000001
1698673094.773,16,-0.2,-1.0,-1.0,0.1,7.300000000000001,4.2,61.8,-10.700000000000001,-12.8
1698673094.79,16,-0.2,-1.9000000000000001,-1.1,0.1,6.5,3.9000000000000004,60.900000000000006,-8.9,-13.100000000000001
1698673094.807,16,-0.2,-2.5,-1.1,0.1,6.0,3.7,60.1,-4.6000000000000005,-13.6
1698673094.824,16,-0.2,-2.6,-1.0,0.1,6.0,3.7,59.80000000000001,-2.3000000000000003,-13.6
1698673094.841,16,-0.2,-2.6,-1.1,0.1,6.1000000000000005,3.4000000000000004,59.00000000000001,0.4,-13.3
1698673094.857,16,-0.2,-2.5,-1.0,0.0,6.2,3.4000000000000004,58.1,0.5,-12.9
1698673094.874,16,-0.2,-2.8000000000000003,-0.9,0.0,5.9,3.4000000000000004,57.9,0.1,-9.8
1698673094.89,16,0.0,-3.0,-0.9,0.2,5.7,3.1,57.1,1.4,-6.000000000000001
1698673094.907,16,0.0,-3.1,-1.0,0.1,5.7,3.0,55.800000000000004,0.9,-4.2
1698673094.923,16,-0.1,-3.0,-0.9,0.0,5.800000000000001,2.9000000000000004,55.0,0.30000000000000004,-3.5
1698673094.94,16,-0.2,-3.0,-0.8,-0.1,5.800000000000001,3.0,54.3,-0.6000000000000001,-3.0000000000000004
1698673094.957,16,-0.4,-3.2,-0.5,-0.30000000000000004,5.7,3.0,54.0,-3.4,-3.1
1698673094.974,16,-0.6000000000000001,-3.8000000000000003,-0.30000000000000004,-0.5,5.2,3.1,54.800000000000004,-7.2,-2.8
1698673094.992,16,-0.6000000000000001,-4.0,-0.2,-0.5,5.0,3.0,55.1,-7.300000000000001,-1.9
1698673095.007,16,-0.30000000000000004,-3.4000000000000004,0.1,-0.2,5.6000000000000005,3.1,52.900000000000006,-7.2,-1.2000000000000002
1698673095.024,16,-0.2,-2.8000000000000003,0.4,-0.1,6.2,3.3000000000000003,51.0,-7.300000000000001,-0.8
1698673095.04,16,-0.1,-1.5,1.0,0.0,7.5,3.8000000000000003,47.1,-7.6,1.3
1698673095.057,16,0.1,-0.9,1.3,0.30000000000000004,8.8,4.3,45.1,-7.400000000000001,3.2
1698673095.074,16,0.0,0.7000000000000001,1.7000000000000002,0.30000000000000004,9.5,4.4,43.1,-6.9,6.7
1698673095.09,16,-0.1,0.9,1.5,0.1,10.0,4.0,40.9,-9.4,9.0
1698673095.106,16,0.0,1.4000000000000001,1.6,0.30000000000000004,10.600000000000001,4.0,32.1,-6.3,8.4
1698673095.123,16,0.1,1.7000000000000002,1.6,0.4,10.9,4.0,28.500000000000004,-4.2,6.2
1698673095.14,16,-0.2,1.1,1.4000000000000001,0.0,10.4,3.7,20.0,-2.7,3.1
1698673095.157,16,-0.4,0.4,1.1,-0.1,9.600000000000001,3.4000000000000004,6.9,3.5,3.1
1698673095.174,16,-0.30000000000000004,0.1,1.0,-0.1,9.3,3.3000000000000003,1.0999999999999999,2.4000000000000004,1.5000000000000002
1698673095.19,16,-0.30000000000000004,-0.4,0.9,-0.1,8.8,3.2,-7.1000000000000005,-2.3000000000000003,0.9
1698673095.208,16,-0.4,-0.1,1.0,-0.1,9.1,3.4000000000000004,-9.700000000000001,-4.0,1.3
1698673095.224,16,-0.5,0.2,1.1,-0.2,9.4,3.5,-8.200000000000001,-5.300000000000001,0.7
1698673095.24,16,-0.5,0.4,1.2000000000000002,-0.2,9.600000000000001,3.6,-4.7,-8.799999999999999,-2.3000000000000003
1698673095.257,16,-0.4,0.4,1.2000000000000002,-0.2,9.600000000000001,3.6,-5.2,-8.700000000000001,-4.0
1698673095.274,16,-0.2,0.4,1.1,0.0,9.600000000000001,3.6,-11.8,-7.2,-6.2
1698673095.292,16,-0.1,0.4,1.2000000000000002,0.1,9.600000000000001,3.7,-21.400000000000002,-6.7,-6.8
1698673095.307,16,0.0,0.4,1.1,0.2,9.600000000000001,3.7,-28.200000000000003,-4.9,-6.3
1698673095.323,16,0.0,0.2,1.1,0.2,9.4,3.8000000000000003,-31.099999999999998,-5.7,-3.5
1698673095.34,16,0.0,0.1,1.2000000000000002,0.2,9.3,3.9000000000000004,-31.6,-6.9,-2.1
1698673095.357,16,0.0,0.0,1.1,0.2,9.1,4.0,-32.1,-7.6,-1.0
1698673095.374,16,-0.1,-0.2,1.0,0.1,8.9,4.0,-34.800000000000004,-6.3,-0.2
1698673095.39,16,-0.2,-0.4,0.9,0.0,8.6,3.9000000000000004,-40.9,-2.4000000000000004,-0.7
1698673095.407,16,-0.2,-0.6000000000000001,0.8,0.0,8.5,3.9000000000000004,-44.2,-1.3,-1.0
1698673095.423,16,-0.2,-0.6000000000000001,0.6000000000000001,0.0,8.4,4.0,-53.9,-6.6000000000000005,-1.2000000000000002
1698673095.44,16,-0.2,-0.7000000000000001,0.6000000000000001,0.0,8.200000000000001,4.0,-56.6,-6.9,-0.8
1698673095.457,16,-0.4,-1.1,0.2,-0.2,7.7,3.9000000000000004,-61.0,-3.0000000000000004,-0.30000000000000004
1698673095.474,16,-0.4,-1.3,0.0,-0.2,7.7,3.9000000000000004,-61.0,-3.0000000000000004,-0.30000000000000004
1698673095.49,16,-0.4,-1.8,-0.4,-0.2,6.9,3.6,-66.7,-4.0,1.3
1698673095.507,16,-0.4,-2.0,-0.6000000000000001,-0.1,6.5,3.5,-70.0,-12.6,3.2
1698673095.524,16,-0.4,-2.0,-0.8,-0.2,6.4,3.5,-71.30000000000001,-16.8,3.7000000000000006
1698673095.54,16,-0.8,-1.6,-0.9,-0.5,6.800000000000001,3.5,-73.0,-14.4,4.3999999999999995
1698673095.557,16,-0.9,-0.9,-1.1,-0.6000000000000001,7.4,3.6,-73.30000000000001,-13.0,2.0
1698673095.574,16,-0.6000000000000001,-0.6000000000000001,-1.0,-0.30000000000000004,7.5,3.8000000000000003,-72.6,-17.7,-1.0
1698673095.591,16,-0.1,-0.8,-0.8,0.2,7.2,4.1000000000000005,-70.2,-23.900000000000002,-7.6
1698673095.607,16,-0.1,-2.0,-1.0,0.2,6.0,4.1000000000000005,-70.2,-9.4,-11.2
1698673095.624,16,-0.1,-2.4000000000000004,-1.3,0.30000000000000004,5.1000000000000005,3.9000000000000004,-69.9,5.300000000000001,-10.600000000000001
1698673095.641,16,0.2,-2.8000000000000003,-1.4000000000000001,0.5,4.9,4.0,-67.80000000000001,9.9,-9.5
1698673095.657,16,0.5,-2.6,-1.3,0.7000000000000001,5.1000000000000005,4.2,-64.10000000000001,12.100000000000001,-8.200000000000001
1698673095.675,16,0.8,-1.2000000000000002,-1.2000000000000002,1.0,6.300000000000001,4.4,-56.0,12.200000000000001,-3.0000000000000004
1698673095.69,16,0.6000000000000001,0.0,-0.8,0.8,7.4,4.9,-52.0,5.1,5.300000000000001
1698673095.707,16,0.1,-0.5,-0.7000000000000001,0.30000000000000004,6.800000000000001,5.2,-47.5,0.5,10.2
1698673095.724,16,-0.2,-0.9,-0.9,0.0,6.300000000000001,5.0,-46.300000000000004,1.4,9.9
1698673095.74,16,-0.6000000000000001,-0.9,-0.9,-0.30000000000000004,6.300000000000001,5.2,-45.1,0.7,6.2
1698673095.757,16,-0.6000000000000001,-0.1,-0.8,-0.4,6.9,5.300000000000001,-42.400000000000006,7.8,-2.0
1698673095.774,16,-0.4,0.1,-0.9,0.0,7.0,5.300000000000001,-39.50000000000001,11.9,-9.1
1698673095.79,16,0.1,-0.1,-0.9,0.2,6.800000000000001,5.4,-39.400000000000006,11.700000000000001,-9.3
1698673095.806,16,0.6000000000000001,-0.30000000000000004,-0.1,0.8,6.5,6.300000000000001,-38.6,6.2,-5.0
1698673095.823,16,1.1,-0.5,0.30000000000000004,1.2000000000000002,6.2,6.7,-34.2,-0.8,-1.7
1698673095.84,16,1.0,-0.6000000000000001,0.2,1.1,6.1000000000000005,6.7,-33.7,2.8,-0.8
1698673095.858,16,0.6000000000000001,-0.30000000000000004,-0.6000000000000001,0.7000000000000001,6.4,6.0,-35.199999999999996,7.699999999999999,2.0
1698673095.874,16,0.2,-0.1,-0.6000000000000001,0.30000000000000004,6.5,6.0,-34.7,6.8,3.7000000000000006
1698673095.89,16,-0.5,0.1,-0.1,-0.4,6.6000000000000005,6.6000000000000005,-26.8,5.0,8.4
1698673095.907,16,-0.7000000000000001,0.0,0.6000000000000001,-0.6000000000000001,6.5,7.300000000000001,-14.100000000000001,8.5,10.1
1698673095.923,16,0.2,-0.2,0.8,0.30000000000000004,6.300000000000001,7.6000000000000005,-10.2,14.0,3.5
1698673095.941,16,0.7000000000000001,-0.1,0.9,0.8,6.300000000000001,7.6000000000000005,-13.0,13.0,-0.6000000000000001
1698673095.957,16,1.2000000000000002,-0.2,0.4,1.3,6.2,7.2,-20.2,10.9,-1.0
1698673095.975,16,0.9,-0.2,0.30000000000000004,0.4,6.4,7.300000000000001,-20.1,10.8,1.7
1698673095.99,16,-0.1,0.5,0.7000000000000001,-0.1,6.9,7.5,-8.3,4.3999999999999995,11.8
1698673096.007,16,-0.9,0.9,0.7000000000000001,-0.8,7.2,7.6000000000000005,5.9,9.700000000000001,17.200000000000003
1698673096.024,16,-0.8,0.6000000000000001,0.8,-0.30000000000000004,6.6000000000000005,7.4,8.700000000000001,13.9,14.100000000000001
1698673096.04,16,0.2,-0.2,0.7000000000000001,0.30000000000000004,6.2,7.5,6.7,10.1,8.799999999999999
1698673096.056,16,1.0,-0.2,0.9,1.0,6.2,7.7,8.0,5.8,1.0
1698673096.074,16,0.9,-0.4,0.7000000000000001,1.0,6.0,7.5,20.3,7.9,3.2
1698673096.09,16,0.4,-0.4,0.9,0.5,6.1000000000000005,7.7,27.900000000000002,4.1000000000000005,7.300000000000001
1698673096.107,16,-0.4,0.2,0.9,-0.2,6.7,7.6000000000000005,43.1,2.5,15.5
1698673096.123,16,-0.5,0.0,0.5,-0.4,6.7,7.0,50.6,9.700000000000001,16.2
1698673096.14,16,0.30000000000000004,-0.4,0.30000000000000004,0.4,6.4,6.800000000000001,57.9,10.8,10.600000000000001
1698673096.156,16,0.4,-0.4,0.5,0.6000000000000001,6.4,6.9,63.900000000000006,6.7,6.2
1698673096.173,16,0.30000000000000004,0.6000000000000001,0.9,0.4,7.7,7.1000000000000005,77.5,0.0,4.300000000000001
1698673096.19,16,-0.2,2.3000000000000003,0.8,0.0,9.5,6.800000000000001,86.9,3.4,4.9
1698673096.208,16,-0.30000000000000004,2.5,0.6000000000000001,-0.1,9.8,6.5,88.3,5.1,4.300000000000001
1698673096.224,16,-0.30000000000000004,2.4000000000000004,0.7000000000000001,-0.1,9.700000000000001,6.7,89.9,4.5,4.6000000000000005
1698673096.24,16,-0.2,2.3000000000000003,1.5,0.0,9.9,7.0,100.2,-3.5,5.6
1698673096.257,16,0.0,3.5,2.2,0.2,11.4,7.5,111.30000000000001,-10.700000000000001,2.6
1698673096.274,16,0.2,4.3,1.6,0.5,12.4,6.6000000000000005,104.4,-8.600000000000001,0.2
1698673096.291,16,0.2,3.8000000000000003,1.2000000000000002,0.4,12.0,6.0,94.9,-2.1999999999999997,-1.0
1698673096.307,16,0.0,2.2,0.2,0.2,10.600000000000001,4.800000000000001,79.9,6.1000000000000005,0.5
1698673096.324,16,0.1,0.5,-1.0,0.30000000000000004,9.0,3.4000000000000004,75.80000000000001,5.500000000000001,8.1
1698673096.343,16,0.1,-0.8,-1.4000000000000001,0.4,7.800000000000001,2.7,71.0,0.30000000000000004,8.3
1698673096.356,16,-0.2,-1.3,-1.4000000000000001,0.1,7.300000000000001,2.6,70.39999999999999,-7.400000000000001,3.4
1698673096.373,16,-0.30000000000000004,-1.2000000000000002,-1.2000000000000002,0.0,7.5,2.7,70.9,-8.600000000000001,1.2000000000000002
1698673096.39,16,-0.30000000000000004,-0.8,-1.0,0.1,8.3,2.7,73.30000000000001,-9.0,-3.4
1698673096.407,16,-0.1,-0.1,-0.8,0.2,8.700000000000001,2.7,73.7,-7.699999999999999,-5.2
1698673096.424,16,0.30000000000000004,0.6000000000000001,-0.9,0.5,9.5,2.4000000000000004,72.0,-3.5,-4.6000000000000005
1698673096.44,16,0.30000000000000004,0.8,-0.8,0.6000000000000001,9.700000000000001,2.3000000000000003,68.80000000000001,-2.6,-2.9
1698673096.457,16,0.2,1.1,-0.6000000000000001,0.5,10.200000000000001,2.3000000000000003,61.300000000000004,-0.8,1.5000000000000002
1698673096.474,16,0.1,1.5,-0.5,0.4,10.600000000000001,2.2,55.0,-1.9,6.5
1698673096.49,16,-0.1,1.6,-0.7000000000000001,0.2,10.8,1.9000000000000001,46.6,-5.500000000000001,7.400000000000001
1698673096.507,16,-0.2,1.6,-0.7000000000000001,0.2,10.8,1.9000000000000001,41.1,-5.7,7.0
1698673096.523,16,0.0,1.4000000000000001,-0.5,0.2,10.700000000000001,1.8,36.2,-6.6000000000000005,5.7
1698673096.541,16,-0.1,1.1,-0.4,0.30000000000000004,10.4,1.9000000000000001,28.6,-8.5,1.0999999999999999
1698673096.557,16,0.30000000000000004,0.5,-0.6000000000000001,0.6000000000000001,9.8,1.7000000000000002,22.8,-6.2,-1.6
1698673096.574,16,0.4,0.4,-0.7000000000000001,0.7000000000000001,9.700000000000001,1.5,18.0,-2.5,-3.3000000000000003
1698673096.592,16,0.5,0.1,-1.7000000000000002,0.9,9.4,0.4,7.400000000000001,6.2,1.3
