ts,interval,accx,accy,accz,accGx,accGy,accGz,alpha,beta,gamma
1698923878014.0,16,-0.1,0.0,0.1,-0.1,9.4,1.2000000000000002,0.8,2.3000000000000003,0.30000000000000004
1698923878030.0,16,-0.1,0.0,0.1,-0.1,9.4,1.2000000000000002,0.2,1.9,0.0
1698923878047.0,16,-0.1,0.1,0.0,-0.1,9.5,1.1,-0.9,1.4,-0.9
1698923878064.0,16,0.0,0.1,-0.1,-0.1,9.5,1.1,-1.8,1.8,-0.9
1698923878080.0,16,0.0,0.0,-0.1,-0.1,9.4,1.0,-2.7,2.1,-1.2000000000000002
1698923878097.0,16,0.0,0.0,-0.1,-0.1,9.4,1.0,-2.1999999999999997,1.7,-1.2000000000000002
1698923878114.0,16,-0.1,0.1,-0.1,-0.1,9.5,1.0,-1.3,0.7,-0.6000000000000001
1698923878130.0,16,-0.1,0.1,-0.1,-0.2,9.5,1.1,-0.7,0.1,-0.5
1698923878147.0,16,-0.1,0.1,0.0,-0.2,9.5,1.1,0.6000000000000001,-0.7,-1.0999999999999999
1698923878164.0,16,-0.1,0.0,0.0,-0.2,9.4,1.2000000000000002,1.2000000000000002,-0.9,-1.5000000000000002
1698923878180.0,16,-0.1,0.0,0.0,-0.1,9.4,1.2000000000000002,1.4,-0.7,-1.4
1698923878197.0,16,0.0,0.0,0.1,-0.1,9.4,1.2000000000000002,1.5000000000000002,-0.8,-1.8
1698923878214.0,16,0.0,0.0,0.1,-0.1,9.4,1.2000000000000002,1.2000000000000002,-0.6000000000000001,-1.2000000000000002
1698923878230.0,16,-0.1,0.0,0.1,-0.2,9.4,1.2000000000000002,0.8,-1.0999999999999999,-1.2000000000000002
1698923878247.0,16,-0.1,0.0,0.1,-0.2,9.4,1.2000000000000002,0.4,-1.4,-1.6
1698923878264.0,16,0.0,0.0,0.1,-0.1,9.5,1.3,0.1,-1.2000000000000002,-2.0
1698923878280.0,16,0.0,0.0,0.1,-0.1,9.5,1.2000000000000002,0.5,-0.6000000000000001,-2.5
1698923878297.0,16,0.0,-0.1,0.1,-0.1,9.4,1.3,1.0999999999999999,1.4,-2.1999999999999997
1698923878314.0,16,0.1,-0.1,0.1,-0.1,9.4,1.2000000000000002,1.7,2.3000000000000003,-2.3000000000000003
1698923878330.0,16,0.1,0.0,0.1,-0.1,9.4,1.2000000000000002,1.9,2.0,-2.3000000000000003
1698923878347.0,16,0.0,0.0,0.0,-0.1,9.4,1.2000000000000002,1.8,2.1,-1.8
1698923878364.0,16,0.0,0.0,0.0,-0.1,9.4,1.1,0.30000000000000004,2.3000000000000003,-1.5000000000000002
1698923878380.0,16,0.0,0.0,0.0,-0.1,9.5,1.2000000000000002,-0.5,2.8,-1.5000000000000002
1698923878397.0,16,0.0,0.1,0.0,-0.1,9.5,1.1,-1.3,4.3999999999999995,-1.4
1698923878414.0,16,0.0,0.0,0.0,-0.2,9.4,1.1,-0.4,6.5,-1.0999999999999999
1698923878430.0,16,0.0,0.0,0.0,-0.2,9.4,1.1,0.1,7.0,-1.0999999999999999
1698923878447.0,16,0.0,-0.1,0.0,-0.2,9.3,1.1,1.4,7.699999999999999,-1.2000000000000002
1698923878464.0,16,0.0,-0.1,0.0,-0.2,9.4,1.1,1.9,7.1000000000000005,0.2
1698923878480.0,16,0.0,0.0,0.1,-0.2,9.4,1.2000000000000002,2.3000000000000003,7.2,0.7
1698923878497.0,16,-0.2,0.1,0.0,-0.4,9.5,1.2000000000000002,2.6,8.1,1.0
1698923878514.0,16,-0.2,0.0,0.0,-0.4,9.4,1.1,2.0,8.3,-0.1
1698923878530.0,16,-0.1,0.0,-0.1,-0.30000000000000004,9.4,1.1,1.6,7.500000000000001,-2.5
1698923878547.0,16,-0.1,0.0,-0.1,-0.30000000000000004,9.5,1.0,1.7,6.8,-4.0
1698923878564.0,16,-0.1,0.0,-0.1,-0.30000000000000004,9.5,1.0,2.5,6.3,-4.9
1698923878580.0,16,-0.1,0.1,-0.1,-0.30000000000000004,9.5,1.0,3.2,5.0,-4.7
1698923878597.0,16,-0.1,0.1,0.0,-0.4,9.5,1.0,3.8,4.7,-4.6000000000000005
1698923878614.0,16,-0.1,0.0,0.0,-0.4,9.5,1.0,4.300000000000001,4.3999999999999995,-4.5
1698923878630.0,16,0.0,0.0,0.0,-0.30000000000000004,9.4,1.0,4.5,3.1,-4.9
1698923878648.0,16,0.1,-0.1,0.0,-0.30000000000000004,9.4,1.1,4.5,2.6,-5.1
1698923878664.0,16,0.30000000000000004,-0.2,0.0,-0.1,9.3,1.0,3.2,1.7,-4.5
1698923878680.0,16,0.2,-0.1,0.0,-0.1,9.4,1.0,1.3,2.1999999999999997,-0.9
1698923878697.0,16,0.2,-0.1,0.1,-0.1,9.4,1.1,0.6000000000000001,2.9,0.30000000000000004
1698923878714.0,16,0.1,0.0,0.1,-0.2,9.4,1.1,0.30000000000000004,2.1999999999999997,1.3
1698923878730.0,16,0.1,0.0,0.1,-0.2,9.5,1.1,1.4,2.3000000000000003,1.8
1698923878747.0,16,0.1,0.0,0.1,-0.2,9.4,1.1,1.7,3.0000000000000004,1.8
1698923878764.0,16,0.1,-0.1,0.1,-0.2,9.4,1.1,1.9,4.1000000000000005,2.6
1698923878780.0,16,0.1,0.0,0.1,-0.2,9.5,1.2000000000000002,2.5,5.0,4.300000000000001
1698923878797.0,16,0.0,0.1,0.2,-0.30000000000000004,9.5,1.2000000000000002,2.9,5.2,4.9
1698923878813.0,16,-0.1,0.1,0.2,-0.30000000000000004,9.5,1.2000000000000002,3.6,5.500000000000001,4.300000000000001
1698923878830.0,16,0.0,0.2,0.0,-0.2,9.600000000000001,1.0,2.0,5.7,1.7
1698923878847.0,16,0.1,0.1,0.0,-0.1,9.600000000000001,1.0,0.30000000000000004,6.3,0.7
1698923878864.0,16,0.0,0.0,0.0,-0.2,9.5,1.0,-3.0000000000000004,8.0,1.0999999999999999
1698923878880.0,16,0.0,0.0,0.0,-0.30000000000000004,9.4,1.0,-3.8,8.1,4.2
1698923878897.0,16,-0.1,0.0,0.0,-0.30000000000000004,9.5,1.0,-3.2,7.0,5.2
1698923878914.0,16,-0.2,0.1,-0.1,-0.4,9.600000000000001,1.0,-1.8,5.4,5.4
1698923878930.0,16,-0.30000000000000004,0.2,-0.1,-0.5,9.600000000000001,0.9,-0.5,5.8,4.0
1698923878947.0,16,-0.2,0.2,-0.1,-0.5,9.600000000000001,0.9,0.0,6.5,2.3000000000000003
1698923878964.0,16,0.0,-0.1,-0.1,-0.2,9.4,0.9,0.8,6.6000000000000005,-1.3
1698923878980.0,16,0.1,-0.2,-0.1,-0.2,9.3,0.9,0.8,4.5,-0.2
1698923878997.0,16,0.0,-0.1,0.0,-0.2,9.3,1.0,0.7,5.0,2.1999999999999997
1698923879014.0,16,-0.1,-0.2,0.0,-0.30000000000000004,9.200000000000001,1.0,0.7,4.2,6.2
1698923879030.0,16,-0.2,-0.2,0.0,-0.5,9.4,1.0,0.7,0.1,6.8
1698923879047.0,16,-0.4,0.0,0.0,-0.6000000000000001,9.4,0.9,0.4,-0.8,5.7
1698923879063.0,16,-0.4,0.1,-0.1,-0.6000000000000001,9.600000000000001,0.9,-0.6000000000000001,-2.1999999999999997,1.5000000000000002
1698923879080.0,16,-0.1,0.1,-0.1,-0.30000000000000004,9.5,0.9,-1.0999999999999999,-4.2,-1.8
1698923879097.0,16,0.0,0.0,0.0,-0.2,9.5,0.9,-0.7,-6.3,-0.8
1698923879113.0,16,0.0,0.0,0.0,-0.2,9.5,1.0,0.1,-7.1000000000000005,0.5
1698923879130.0,16,-0.30000000000000004,-0.1,0.0,-0.4,9.4,1.0,3.1,-10.2,1.2000000000000002
1698923879147.0,16,-0.4,-0.1,0.1,-0.6000000000000001,9.3,1.1,4.800000000000001,-13.6,-0.4
1698923879163.0,16,-0.5,-0.1,0.0,-0.7000000000000001,9.4,1.0,4.7,-15.9,-2.1999999999999997
1698923879180.0,16,-0.5,0.1,0.0,-0.7000000000000001,9.600000000000001,0.9,2.3000000000000003,-20.7,-6.2
1698923879197.0,16,-0.30000000000000004,0.30000000000000004,0.0,-0.5,9.8,0.9,-1.8,-23.5,-10.3
1698923879214.0,16,-0.2,0.4,-0.1,-0.5,9.9,0.9,-3.5,-23.8,-11.5
1698923879230.0,16,-0.2,0.4,-0.1,-0.4,9.9,0.9,-5.7,-22.2,-11.700000000000001
1698923879247.0,16,0.0,0.1,-0.1,-0.30000000000000004,9.600000000000001,0.9,-4.800000000000001,-19.6,-10.5
1698923879264.0,16,0.1,-0.1,-0.2,-0.30000000000000004,9.4,0.9,-3.3000000000000003,-19.1,-10.1
1698923879280.0,16,0.1,-0.2,-0.2,-0.2,9.3,0.8,0.4,-19.0,-10.2
1698923879297.0,16,0.2,-0.2,-0.2,-0.2,9.3,0.8,2.3000000000000003,-18.7,-10.0
1698923879314.0,16,0.4,-0.1,-0.2,0.0,9.3,0.8,5.8,-18.0,-9.200000000000001
1698923879330.0,16,0.5,0.0,0.0,0.1,9.4,0.9,8.3,-17.1,-9.1
1698923879347.0,16,0.5,0.0,-0.1,0.1,9.5,0.9,8.9,-15.5,-7.9
1698923879363.0,16,0.5,0.1,0.0,0.1,9.5,0.9,8.1,-14.700000000000001,-7.2
1698923879380.0,16,0.4,0.0,0.1,0.0,9.5,1.0,5.1,-11.000000000000002,-5.0
1698923879397.0,16,0.30000000000000004,0.1,0.2,-0.1,9.5,1.0,3.2,-8.9,-3.2
1698923879414.0,16,0.30000000000000004,0.1,0.1,-0.1,9.600000000000001,1.1,-0.4,-4.2,0.4
1698923879430.0,16,0.4,0.1,0.0,0.0,9.5,0.9,-2.4000000000000004,-1.6,-0.1
1698923879447.0,16,0.30000000000000004,0.0,-0.1,-0.1,9.4,0.8,-4.2,-1.0999999999999999,-3.0000000000000004
1698923879464.0,16,0.4,-0.1,-0.1,0.0,9.4,0.8,-4.5,-0.30000000000000004,-4.0
1698923879480.0,16,0.5,0.0,-0.2,0.1,9.4,0.7000000000000001,-4.7,1.2000000000000002,-4.1000000000000005
1698923879497.0,16,0.4,0.0,-0.2,0.1,9.5,0.7000000000000001,-4.3999999999999995,2.3000000000000003,-2.9
1698923879514.0,16,0.1,0.1,0.0,-0.2,9.5,0.9,-2.6,4.7,1.6
1698923879530.0,16,-0.1,0.0,0.0,-0.4,9.4,1.0,0.4,8.1,4.2
1698923879547.0,16,0.0,-0.2,0.2,-0.4,9.3,1.1,2.7,8.5,3.8
1698923879564.0,16,0.0,-0.1,0.1,-0.30000000000000004,9.3,1.1,3.2,8.3,3.9
1698923879580.0,16,0.0,0.0,0.1,-0.30000000000000004,9.4,1.1,1.4,9.700000000000001,5.1
1698923879597.0,16,0.0,0.0,0.2,-0.30000000000000004,9.4,1.1,-2.1999999999999997,11.6,5.7
1698923879614.0,16,-0.1,0.0,0.1,-0.4,9.5,1.1,-3.7000000000000006,11.700000000000001,5.1
1698923879630.0,16,-0.1,0.1,0.0,-0.4,9.600000000000001,0.9,-6.5,9.9,2.0
1698923879647.0,16,0.0,0.2,-0.2,-0.30000000000000004,9.600000000000001,0.8,-8.5,9.0,-0.4
1698923879664.0,16,0.1,0.1,-0.2,-0.2,9.600000000000001,0.7000000000000001,-9.1,9.700000000000001,-0.30000000000000004
1698923879680.0,16,0.1,0.0,-0.30000000000000004,-0.2,9.4,0.7000000000000001,-9.4,12.8,2.0
1698923879697.0,16,0.0,-0.1,-0.2,-0.30000000000000004,9.4,0.8,-7.1000000000000005,12.9,5.4
1698923879714.0,16,-0.1,-0.1,-0.2,-0.4,9.3,0.8,-5.4,12.200000000000001,7.1000000000000005
1698923879730.0,16,-0.1,-0.2,-0.2,-0.30000000000000004,9.3,0.8,-1.5000000000000002,12.4,8.9
1698923879747.0,16,-0.1,-0.1,-0.1,-0.30000000000000004,9.4,0.9,1.0999999999999999,13.8,8.3
1698923879764.0,16,-0.1,0.0,-0.1,-0.30000000000000004,9.5,0.9,1.9,14.600000000000001,7.9
1698923879780.0,16,-0.1,0.1,-0.1,-0.30000000000000004,9.600000000000001,0.9,2.3000000000000003,14.900000000000002,7.6
1698923879797.0,16,-0.2,0.1,0.0,-0.4,9.600000000000001,1.0,1.2000000000000002,14.3,7.699999999999999
1698923879813.0,16,-0.2,0.1,0.0,-0.4,9.600000000000001,1.0,0.1,14.3,8.200000000000001
1698923879830.0,16,-0.30000000000000004,0.1,0.0,-0.5,9.600000000000001,1.0,-3.0000000000000004,14.4,8.200000000000001
1698923879847.0,16,-0.4,0.1,0.0,-0.6000000000000001,9.5,1.0,-5.8,12.8,5.8
1698923879864.0,16,-0.4,0.1,0.0,-0.6000000000000001,9.5,1.0,-6.6000000000000005,12.100000000000001,4.2
1698923879880.0,16,-0.5,0.0,-0.1,-0.7000000000000001,9.4,1.0,-6.9,9.4,1.8
1698923879897.0,16,-0.4,-0.1,-0.1,-0.6000000000000001,9.4,0.9,-4.9,5.7,0.30000000000000004
1698923879914.0,16,-0.30000000000000004,-0.1,-0.1,-0.6000000000000001,9.4,1.0,-3.5,3.3000000000000003,0.1
1698923879930.0,16,-0.30000000000000004,0.0,0.0,-0.6000000000000001,9.4,1.0,0.1,0.4,0.5
1698923879947.0,16,-0.4,0.0,0.1,-0.6000000000000001,9.4,1.1,3.4,-1.7,0.1
1698923879964.0,16,-0.30000000000000004,0.0,0.2,-0.6000000000000001,9.4,1.2000000000000002,5.0,-2.7,-0.1
1698923879980.0,16,-0.2,-0.1,0.2,-0.5,9.4,1.2000000000000002,6.7,-4.6000000000000005,-0.2
1698923879997.0,16,0.0,-0.1,0.1,-0.30000000000000004,9.3,1.1,4.7,-6.1000000000000005,-0.6000000000000001
1698923880014.0,16,0.1,-0.1,0.2,-0.2,9.4,1.2000000000000002,1.4,-7.400000000000001,-1.0999999999999999
1698923880031.0,16,0.1,0.0,0.2,-0.2,9.5,1.2000000000000002,0.0,-7.6,-0.9
1698923880047.0,16,0.1,0.0,0.2,-0.2,9.5,1.3,-1.0999999999999999,-8.0,0.2
1698923880063.0,16,0.0,-0.1,0.30000000000000004,-0.30000000000000004,9.4,1.4000000000000001,0.6000000000000001,-6.9,0.9
1698923880080.0,16,0.0,-0.1,0.30000000000000004,-0.30000000000000004,9.4,1.3,1.5000000000000002,-6.000000000000001,1.0
1698923880097.0,16,0.0,-0.1,0.2,-0.2,9.4,1.2000000000000002,2.5,-5.0,0.4
1698923880114.0,16,0.1,0.0,0.1,-0.2,9.4,1.2000000000000002,1.8,-4.7,-0.30000000000000004
1698923880130.0,16,0.2,0.1,0.2,-0.1,9.600000000000001,1.3,1.2000000000000002,-4.5,0.0
1698923880147.0,16,0.1,0.1,0.2,-0.1,9.600000000000001,1.2000000000000002,-0.2,-3.2,1.3
1698923880164.0,16,0.1,0.0,0.1,-0.1,9.5,1.2000000000000002,-1.0999999999999999,-2.7,1.6
1698923880180.0,16,0.0,0.0,0.0,-0.2,9.4,1.1,-3.2,-2.5,1.6
1698923880197.0,16,0.0,0.1,0.0,-0.2,9.5,1.1,-4.300000000000001,-2.4000000000000004,1.5000000000000002
1698923880214.0,16,0.0,0.2,-0.1,-0.2,9.600000000000001,1.0,-4.1000000000000005,-1.9,1.3
1698923880230.0,16,0.0,0.1,-0.1,-0.2,9.600000000000001,1.0,-3.8,-1.0999999999999999,1.4
1698923880248.0,16,0.1,0.0,-0.1,-0.2,9.5,1.0,-2.7,0.6000000000000001,1.6
1698923880263.0,16,0.0,-0.1,-0.1,-0.2,9.4,1.0,-1.5000000000000002,0.7,1.2000000000000002
1698923880280.0,16,0.1,0.0,0.0,-0.2,9.4,1.1,-0.8,0.7,1.0
1698923880297.0,16,0.1,0.0,0.0,-0.1,9.4,1.1,-0.30000000000000004,0.9,1.6
1698923880313.0,16,0.0,-0.1,0.0,-0.2,9.4,1.1,-0.9,1.6,2.3000000000000003
1698923880330.0,16,0.0,-0.1,0.0,-0.2,9.4,1.1,-1.4,1.4,2.4000000000000004
1698923880347.0,16,-0.1,-0.1,0.0,-0.2,9.4,1.1,-2.1999999999999997,1.4,2.1
1698923880364.0,16,0.0,0.0,-0.1,-0.2,9.4,1.0,-2.4000000000000004,1.7,1.9
1698923880380.0,16,0.0,-0.1,-0.1,-0.2,9.4,1.0,-2.1999999999999997,1.3,1.6
1698923880397.0,16,0.1,-0.1,-0.1,-0.1,9.4,1.0,-1.5000000000000002,0.2,1.0
1698923880413.0,16,0.1,-0.1,-0.1,-0.1,9.4,1.0,-0.1,0.5,0.8
1698923880430.0,16,0.0,0.0,-0.1,-0.1,9.4,1.0,0.7,0.7,1.0
1698923880446.0,16,0.0,0.0,-0.1,-0.1,9.4,1.0,1.3,1.0,1.2000000000000002
1698923880463.0,16,0.1,0.0,0.0,-0.1,9.4,1.1,1.8,0.4,0.8
1698923880480.0,16,0.1,0.0,0.0,-0.1,9.4,1.1,1.9,-0.4,0.2
1698923880497.0,16,0.1,-0.1,0.0,-0.1,9.4,1.1,1.9,-0.6000000000000001,0.2
1698923880513.0,16,0.0,0.0,0.0,-0.2,9.4,1.1,1.0999999999999999,-0.9,0.30000000000000004
1698923880530.0,16,0.0,0.0,0.0,-0.2,9.4,1.1,0.0,-2.0,-0.30000000000000004
1698923880547.0,16,0.0,0.0,0.0,-0.1,9.4,1.1,-0.5,-2.5,-0.4
1698923880564.0,16,0.1,0.0,0.0,-0.1,9.4,1.0,-1.0999999999999999,-2.8,-0.4
1698923880580.0,16,0.1,0.0,0.0,-0.1,9.4,1.0,-1.0999999999999999,-2.8,-0.4
1698923880597.0,16,0.0,0.1,0.0,-0.1,9.5,1.1,0.1,-3.1,-0.4
1698923880613.0,16,0.1,0.1,0.0,-0.1,9.5,1.1,2.0,-3.1,-0.7
1698923880630.0,16,0.0,0.0,0.0,-0.1,9.5,1.1,2.4000000000000004,-3.1,-0.7
1698923880647.0,16,0.1,0.0,0.0,0.0,9.5,1.1,2.1,-2.7,-1.2000000000000002
1698923880664.0,16,0.1,0.1,0.1,-0.1,9.5,1.2000000000000002,0.7,-2.1999999999999997,-1.3
1698923880680.0,16,0.0,0.1,0.0,-0.1,9.5,1.1,-0.5,-2.0,-1.4
1698923880697.0,16,0.1,0.0,0.1,-0.1,9.5,1.1,-0.9,-2.0,-1.5000000000000002
1698923880714.0,16,0.0,0.0,0.1,-0.1,9.4,1.1,-2.1,-1.3,-1.4
1698923880730.0,16,0.0,0.0,0.0,-0.1,9.4,1.1,-2.4000000000000004,-1.0,-1.2000000000000002
1698923880747.0,16,0.0,0.0,0.0,-0.1,9.5,1.1,-2.4000000000000004,-0.30000000000000004,-0.9
1698923880763.0,16,0.1,0.0,-0.1,-0.1,9.4,1.1,-2.0,0.1,-0.6000000000000001
1698923880780.0,16,0.1,-0.1,0.0,-0.1,9.4,1.1,-1.0999999999999999,0.6000000000000001,-0.4
1698923880799.0,16,0.1,0.0,0.0,-0.1,9.4,1.1,-1.0,0.9,-0.30000000000000004
1698923880813.0,16,0.1,0.0,0.0,0.0,9.4,1.1,-0.2,1.4,-0.1
1698923880830.0,16,0.0,0.0,-0.1,-0.1,9.4,1.1,0.0,1.6,-0.1
1698923880848.0,16,0.0,0.0,0.0,-0.1,9.4,1.1,0.30000000000000004,1.9,0.0
1698923880864.0,16,0.0,0.0,0.0,-0.2,9.4,1.1,0.5,1.7,0.0
1698923880880.0,16,-0.1,0.0,0.0,-0.2,9.4,1.1,0.7,1.7,0.2
1698923880897.0,16,0.0,0.0,0.0,-0.2,9.4,1.1,0.6000000000000001,1.7,0.4
1698923880914.0,16,0.0,0.0,0.0,-0.1,9.4,1.1,0.2,1.4,0.2
1698923880930.0,16,0.0,0.0,0.0,-0.1,9.4,1.1,0.0,1.7,0.1
1698923880947.0,16,0.0,0.0,0.0,-0.2,9.5,1.1,0.1,1.9,0.4
1698923880963.0,16,-0.1,0.1,-0.1,-0.2,9.5,1.0,0.6000000000000001,1.6,1.5000000000000002
1698923880980.0,16,-0.1,0.0,0.0,-0.2,9.5,1.1,1.0,1.4,1.6
1698923880997.0,16,-0.1,0.0,0.0,-0.2,9.4,1.1,1.2000000000000002,1.3,1.4
1698923881014.0,16,-0.1,-0.1,0.0,-0.2,9.4,1.1,1.4,1.6,1.0
1698923881030.0,16,0.0,0.0,0.1,-0.2,9.4,1.1,1.5000000000000002,1.2000000000000002,0.7
1698923881047.0,16,0.0,0.0,0.1,-0.2,9.5,1.1,1.7,1.0,0.7
1698923881064.0,16,-0.1,0.1,0.1,-0.2,9.5,1.2000000000000002,1.7,1.0999999999999999,1.0
1698923881080.0,16,0.0,0.0,0.1,-0.1,9.5,1.2000000000000002,1.6,1.6,0.5
1698923881097.0,16,0.0,0.0,0.1,-0.1,9.4,1.2000000000000002,1.7,1.0999999999999999,-0.2
1698923881113.0,16,0.1,-0.1,0.1,-0.1,9.4,1.2000000000000002,1.5000000000000002,0.6000000000000001,-1.0999999999999999
1698923881130.0,16,0.0,-0.1,0.1,-0.1,9.4,1.2000000000000002,0.9,1.2000000000000002,-0.7
1698923881147.0,16,0.0,-0.1,0.1,-0.1,9.4,1.1,0.4,1.7,-0.30000000000000004
1698923881163.0,16,0.0,0.0,0.0,-0.1,9.5,1.1,-0.6000000000000001,1.9,0.0
1698923881180.0,16,0.0,0.1,0.0,-0.1,9.5,1.1,-1.0999999999999999,1.2000000000000002,-0.4
1698923881196.0,16,0.0,0.1,0.0,-0.2,9.600000000000001,1.1,-1.2000000000000002,1.2000000000000002,-0.4
1698923881213.0,16,0.0,0.1,0.0,-0.2,9.5,1.1,-0.7,1.6,-0.4
1698923881230.0,16,0.0,0.1,0.0,-0.2,9.5,1.1,0.0,1.6,-1.2000000000000002
1698923881246.0,16,0.0,0.0,0.0,-0.1,9.5,1.1,0.4,1.3,-1.5000000000000002
1698923881263.0,16,0.0,0.0,0.0,-0.1,9.5,1.1,0.30000000000000004,1.0,-1.5000000000000002
1698923881280.0,16,0.0,0.0,0.0,-0.1,9.4,1.1,-0.2,1.0999999999999999,-0.7
1698923881297.0,16,0.0,0.0,0.0,-0.2,9.4,1.1,-0.7,1.4,-0.4
1698923881313.0,16,0.0,0.0,0.0,-0.2,9.5,1.1,-1.2000000000000002,1.4,-0.2
1698923881330.0,16,0.0,0.0,0.0,-0.1,9.5,1.1,-1.4,0.30000000000000004,-0.6000000000000001
1698923881347.0,16,0.0,0.0,0.0,-0.2,9.4,1.1,-1.6,0.2,-0.7
1698923881364.0,16,0.0,0.0,0.0,-0.2,9.4,1.1,-1.6,0.8,-0.5
1698923881380.0,16,0.0,-0.1,0.0,-0.2,9.4,1.1,-0.9,1.0999999999999999,-0.6000000000000001
1698923881397.0,16,0.0,-0.1,0.0,-0.2,9.4,1.1,-0.30000000000000004,0.9,-0.8
1698923881414.0,16,0.0,-0.1,0.0,-0.2,9.4,1.1,-0.1,0.9,-1.2000000000000002
1698923881430.0,16,0.0,0.0,0.0,-0.2,9.4,1.1,0.4,1.0,-0.7
1698923881447.0,16,0.0,0.0,0.0,-0.2,9.4,1.1,0.7,0.8,-0.4
1698923881464.0,16,0.0,0.0,0.0,-0.2,9.4,1.1,1.5000000000000002,0.5,-0.1
1698923881480.0,16,-0.1,0.0,0.0,-0.2,9.4,1.1,1.5000000000000002,0.8,0.0
1698923881497.0,16,-0.1,0.0,0.0,-0.2,9.5,1.1,1.8,0.9,-0.4
1698923881514.0,16,-0.1,0.0,0.0,-0.2,9.5,1.1,1.7,0.4,-0.4
1698923881530.0,16,0.0,0.0,0.0,-0.2,9.4,1.1,1.5000000000000002,0.2,0.30000000000000004
1698923881547.0,16,0.0,-0.1,0.0,-0.2,9.4,1.1,0.9,-0.5,1.0999999999999999
1698923881564.0,16,0.0,0.0,0.0,-0.2,9.4,1.1,0.9,-0.8,1.0
1698923881580.0,16,-0.1,0.0,0.0,-0.30000000000000004,9.5,1.1,1.4,-2.0,0.0
1698923881596.0,16,-0.1,-0.1,0.0,-0.30000000000000004,9.4,1.1,1.2000000000000002,-1.2000000000000002,-0.30000000000000004
1698923881613.0,16,0.0,-0.1,0.0,-0.2,9.3,1.1,1.5000000000000002,-1.3,-0.30000000000000004
1698923881630.0,16,0.0,0.0,0.0,-0.2,9.4,1.1,2.5,-2.0,-0.7
1698923881646.0,16,0.0,0.1,0.0,-0.2,9.5,1.1,3.2,-1.7,-0.4
1698923881663.0,16,0.0,0.1,0.0,-0.2,9.5,1.0,3.5,-1.3,0.2
1698923881680.0,16,0.0,0.1,0.0,-0.2,9.5,1.1,4.0,-0.2,1.3
1698923881697.0,16,0.0,0.0,0.1,-0.2,9.5,1.1,4.800000000000001,0.30000000000000004,1.3
1698923881715.0,16,0.0,0.1,0.1,-0.2,9.5,1.1,5.0,0.30000000000000004,1.0999999999999999
1698923881730.0,16,-0.1,0.1,0.1,-0.2,9.5,1.1,5.0,0.4,0.5
1698923881746.0,16,0.0,0.1,0.1,-0.2,9.5,1.1,3.1,0.6000000000000001,0.0
1698923881764.0,16,0.0,0.1,0.1,-0.2,9.600000000000001,1.1,1.9,0.7,-0.1
1698923881780.0,16,0.0,0.1,0.1,-0.2,9.5,1.1,-0.7,1.3,-0.2
1698923881796.0,16,0.0,0.0,0.0,-0.2,9.5,1.0,-2.1,1.8,0.0
1698923881813.0,16,0.0,0.1,0.0,-0.2,9.5,1.0,-2.1999999999999997,1.4,0.0
1698923881830.0,16,0.0,0.1,-0.1,-0.2,9.600000000000001,0.9,-2.3000000000000003,0.6000000000000001,0.2
1698923881847.0,16,0.0,0.1,0.0,-0.2,9.5,1.0,-2.0,0.7,0.6000000000000001
1698923881863.0,16,0.0,0.0,0.0,-0.2,9.5,1.0,-1.6,0.7,0.8
1698923881880.0,16,0.0,0.1,0.0,-0.2,9.5,1.0,-1.0,0.5,0.7
1698923881897.0,16,0.0,0.0,0.0,-0.2,9.5,1.0,-1.3,0.30000000000000004,0.5
1698923881914.0,16,0.0,0.0,0.0,-0.1,9.5,1.0,-1.5000000000000002,0.6000000000000001,0.7
1698923881930.0,16,0.0,0.1,0.0,-0.2,9.600000000000001,1.0,-2.4000000000000004,0.9,1.0999999999999999
1698923881947.0,16,0.0,0.1,0.0,-0.2,9.600000000000001,1.0,-2.7,1.0999999999999999,1.0999999999999999
1698923881963.0,16,0.0,0.1,-0.1,-0.2,9.5,1.0,-3.4,0.7,0.8
1698923881980.0,16,0.0,0.0,0.0,-0.2,9.4,1.0,-4.0,0.6000000000000001,0.30000000000000004
1698923881997.0,16,0.0,-0.1,-0.1,-0.2,9.4,1.0,-3.5,0.30000000000000004,0.2
1698923882014.0,16,0.0,-0.1,-0.1,-0.2,9.3,1.0,-3.0000000000000004,-0.2,0.30000000000000004
1698923882030.0,16,0.0,-0.1,-0.1,-0.1,9.4,1.0,-2.0,-0.6000000000000001,0.4
1698923882047.0,16,0.0,0.0,-0.1,-0.1,9.5,1.0,-1.3,-0.6000000000000001,0.1
1698923882064.0,16,0.0,0.0,0.0,-0.1,9.5,1.1,-0.5,0.6000000000000001,0.0
1698923882080.0,16,0.0,0.0,0.0,-0.2,9.4,1.1,-0.1,1.0,0.2
1698923882097.0,16,0.0,0.0,0.0,-0.1,9.5,1.1,0.1,0.8,0.2
1698923882114.0,16,0.0,0.0,0.0,-0.1,9.5,1.0,0.1,0.6000000000000001,0.2
1698923882130.0,16,0.0,0.0,-0.1,-0.1,9.5,1.0,-0.9,0.4,0.1
1698923882147.0,16,0.0,0.0,-0.1,-0.1,9.4,1.0,-2.6,0.4,-0.2
1698923882164.0,16,0.0,0.0,-0.1,-0.1,9.4,1.0,-3.2,-0.30000000000000004,-0.30000000000000004
1698923882180.0,16,0.0,0.0,-0.1,-0.1,9.5,1.0,-3.3000000000000003,-1.0999999999999999,-0.30000000000000004
1698923882197.0,16,0.0,0.0,-0.1,-0.1,9.5,1.0,-2.7,-1.4,-0.6000000000000001
1698923882214.0,16,0.0,0.0,-0.1,-0.1,9.4,1.0,-1.0,-0.1,-0.2
1698923882230.0,16,0.0,0.0,-0.1,-0.2,9.5,1.0,0.0,0.1,0.2
1698923882246.0,16,0.0,-0.1,-0.1,-0.2,9.4,1.0,1.2000000000000002,0.0,0.4
1698923882263.0,16,0.0,-0.1,0.0,-0.2,9.4,1.0,1.2000000000000002,-0.7,0.4
1698923882280.0,16,0.0,-0.1,0.0,-0.2,9.4,1.1,1.0999999999999999,-1.0999999999999999,-0.1
1698923882297.0,16,-0.1,0.0,0.0,-0.2,9.4,1.1,0.5,-1.6,-0.30000000000000004
1698923882313.0,16,-0.1,0.0,0.0,-0.2,9.5,1.1,-0.5,-1.4,0.5
1698923882330.0,16,0.0,0.0,0.0,-0.2,9.5,1.1,-0.9,-1.3,0.8
1698923882347.0,16,-0.1,0.0,0.0,-0.2,9.4,1.1,-1.0999999999999999,-1.7,0.5
1698923882363.0,16,0.0,0.1,0.0,-0.1,9.5,1.1,-0.5,-1.6,-0.30000000000000004
1698923882380.0,16,0.0,0.0,0.0,-0.1,9.5,1.1,-0.1,-1.4,-0.9
1698923882397.0,16,0.1,0.0,-0.1,-0.1,9.5,1.0,0.5,-1.0999999999999999,-1.0999999999999999
1698923882413.0,16,0.1,0.0,0.0,-0.1,9.4,1.1,0.9,-0.5,-0.1
1698923882430.0,16,0.1,0.0,0.0,-0.1,9.4,1.1,1.0,-0.6000000000000001,0.4
1698923882447.0,16,0.0,0.0,0.0,-0.1,9.4,1.1,0.9,0.1,1.2000000000000002
1698923882464.0,16,0.0,0.0,0.0,-0.2,9.4,1.1,0.30000000000000004,0.2,1.7
1698923882481.0,16,0.0,0.0,0.0,-0.1,9.4,1.1,0.2,-0.30000000000000004,1.3
1698923882497.0,16,0.0,0.0,0.0,-0.1,9.5,1.1,-0.4,-0.6000000000000001,-0.1
1698923882514.0,16,0.0,-0.1,0.0,-0.1,9.4,1.0,-0.4,0.2,-0.4
1698923882530.0,16,0.1,-0.1,0.0,-0.1,9.4,1.1,-0.1,-0.2,-0.30000000000000004
1698923882547.0,16,0.1,0.0,0.1,-0.1,9.5,1.2000000000000002,0.6000000000000001,-0.2,0.4
1698923882563.0,16,0.0,0.0,0.1,-0.1,9.5,1.1,1.4,0.1,0.7
1698923882580.0,16,0.0,0.0,0.1,-0.1,9.5,1.1,1.4,0.5,0.8
1698923882597.0,16,0.0,-0.1,0.0,-0.1,9.4,1.1,0.9,1.5000000000000002,0.5
1698923882614.0,16,0.0,0.0,0.0,-0.1,9.5,1.1,-0.2,1.6,-0.1
1698923882630.0,16,0.0,0.0,0.0,-0.1,9.4,1.1,-0.5,2.1999999999999997,-0.2
1698923882647.0,16,0.0,0.0,0.0,-0.1,9.4,1.0,-1.0999999999999999,2.1,0.5
1698923882664.0,16,0.0,-0.1,-0.1,-0.1,9.3,1.0,-1.2000000000000002,1.2000000000000002,0.4
1698923882680.0,16,0.0,-0.1,0.0,-0.1,9.4,1.1,-1.3,1.4,0.4
1698923882697.0,16,0.0,-0.1,0.0,-0.1,9.3,1.1,-0.8,2.0,0.6000000000000001
1698923882713.0,16,-0.1,-0.1,0.0,-0.2,9.3,1.1,-0.4,2.1,0.4
1698923882730.0,16,0.0,-0.1,0.0,-0.2,9.4,1.1,0.1,2.1,0.4
1698923882747.0,16,0.0,-0.1,0.0,-0.2,9.4,1.1,0.6000000000000001,2.3000000000000003,0.5
1698923882764.0,16,0.0,-0.1,0.0,-0.1,9.3,1.1,0.6000000000000001,2.4000000000000004,0.0
1698923882780.0,16,0.0,-0.1,0.0,-0.1,9.4,1.1,0.4,2.7,-0.4
1698923882797.0,16,0.0,-0.1,0.0,-0.1,9.4,1.1,0.2,4.1000000000000005,0.0
1698923882813.0,16,-0.1,-0.2,0.0,-0.2,9.3,1.1,0.4,5.0,0.6000000000000001
1698923882830.0,16,-0.1,-0.1,0.0,-0.2,9.3,1.1,0.6000000000000001,4.7,0.6000000000000001
1698923882847.0,16,-0.1,0.0,0.0,-0.2,9.4,1.1,1.0999999999999999,2.3000000000000003,-0.1
1698923882863.0,16,-0.1,0.2,0.1,-0.30000000000000004,9.600000000000001,1.1,1.2000000000000002,0.0,-0.8
1698923882880.0,16,-0.2,0.2,0.1,-0.30000000000000004,9.700000000000001,1.2000000000000002,0.6000000000000001,0.5,-0.4
1698923882897.0,16,-0.1,0.2,0.0,-0.30000000000000004,9.700000000000001,1.1,0.30000000000000004,0.9,-0.4
1698923882914.0,16,0.0,0.1,-0.1,-0.2,9.600000000000001,1.0,-1.3,1.6,-0.9
1698923882930.0,16,0.0,0.0,-0.1,-0.2,9.5,1.0,-2.1999999999999997,1.4,-0.9
1698923882947.0,16,0.0,0.0,-0.1,-0.2,9.5,1.0,-2.6,1.0999999999999999,-0.2
1698923882964.0,16,0.0,0.0,-0.2,-0.2,9.4,0.9,-1.0999999999999999,0.7,0.4
1698923882980.0,16,0.0,0.0,-0.1,-0.2,9.4,1.0,-0.2,0.8,0.7
1698923882997.0,16,0.0,0.0,-0.1,-0.2,9.4,0.9,2.0,0.2,1.0999999999999999
1698923883014.0,16,0.0,0.0,0.0,-0.2,9.4,1.1,3.1,-0.6000000000000001,0.9
1698923883030.0,16,-0.1,0.0,0.0,-0.2,9.4,1.1,3.2,-0.8,0.8
1698923883047.0,16,-0.1,0.0,0.1,-0.30000000000000004,9.4,1.1,1.8,-1.4,0.7
1698923883063.0,16,-0.1,0.0,0.0,-0.30000000000000004,9.4,1.1,0.0,-2.7,0.5
1698923883080.0,16,-0.1,0.0,0.0,-0.30000000000000004,9.4,1.0,-1.6,-3.1,0.0
1698923883097.0,16,0.0,0.0,0.0,-0.2,9.4,1.0,-1.9,-3.1,-0.4
1698923883114.0,16,0.0,0.0,-0.1,-0.2,9.4,1.0,-1.0999999999999999,-3.3000000000000003,-0.7
1698923883130.0,16,0.0,0.1,-0.2,-0.2,9.5,0.9,0.0,-3.4,-0.30000000000000004
1698923883147.0,16,0.0,0.1,-0.1,-0.2,9.5,0.9,0.4,-3.3000000000000003,-0.1
1698923883163.0,16,0.0,0.1,-0.1,-0.2,9.5,0.9,1.0999999999999999,-3.6,-0.1
1698923883180.0,16,0.0,0.1,0.0,-0.2,9.5,1.0,0.7,-3.3000000000000003,0.0
1698923883197.0,16,0.0,0.1,-0.1,-0.2,9.600000000000001,1.0,0.4,-2.9,0.0
1698923883214.0,16,0.1,0.0,-0.1,-0.1,9.5,0.9,-0.7,-2.7,0.0
1698923883230.0,16,0.1,0.0,0.0,-0.1,9.5,1.0,-1.4,-2.0,0.30000000000000004
1698923883247.0,16,0.0,0.0,0.0,-0.1,9.5,1.0,-1.6,-1.6,0.5
1698923883263.0,16,0.0,0.0,0.0,-0.2,9.5,1.0,-1.5000000000000002,-0.9,0.8
1698923883280.0,16,0.0,-0.1,0.0,-0.2,9.4,1.0,-1.7,-1.9,1.0
1698923883297.0,16,0.0,-0.1,0.0,-0.2,9.4,1.0,-1.5000000000000002,-1.7,0.9
1698923883314.0,16,0.0,-0.1,0.0,-0.2,9.4,1.0,-1.8,-2.0,0.4
1698923883330.0,16,0.0,-0.1,0.0,-0.2,9.5,1.0,-1.3,-2.4000000000000004,-0.1
1698923883347.0,16,0.0,0.1,-0.1,-0.1,9.5,1.0,-1.2000000000000002,-2.9,-0.4
1698923883363.0,16,0.1,-0.1,-0.1,0.0,9.4,1.0,-0.9,-3.3000000000000003,0.30000000000000004
1698923883380.0,16,0.0,0.0,0.0,-0.1,9.4,1.0,-2.1,-3.9,0.8
1698923883396.0,16,0.0,0.0,0.0,-0.1,9.4,1.0,-2.3000000000000003,-3.7000000000000006,0.5
1698923883413.0,16,0.1,0.1,-0.1,-0.1,9.5,1.0,-2.4000000000000004,-3.5,0.4
1698923883430.0,16,0.1,0.1,-0.1,0.0,9.600000000000001,1.0,-1.8,-3.1,0.1
1698923883447.0,16,0.1,0.1,0.0,0.0,9.600000000000001,1.0,-1.0999999999999999,-2.7,0.1
1698923883464.0,16,0.1,0.1,0.0,0.0,9.600000000000001,1.0,0.1,-1.9,0.0
1698923883480.0,16,0.2,0.0,0.0,0.1,9.5,1.0,0.1,-1.2000000000000002,0.30000000000000004
1698923883497.0,16,0.2,0.0,-0.1,0.1,9.4,1.0,-0.6000000000000001,-0.7,0.5
1698923883514.0,16,0.2,-0.1,0.0,0.1,9.3,1.0,-1.5000000000000002,-0.2,0.8
1698923883530.0,16,0.1,0.0,0.1,0.0,9.4,1.1,-1.8,-0.4,0.7
1698923883547.0,16,0.0,0.0,0.1,-0.1,9.5,1.1,-1.5000000000000002,-0.8,0.5
1698923883564.0,16,0.0,0.0,0.1,-0.1,9.5,1.2000000000000002,-1.3,-1.0999999999999999,0.6000000000000001
1698923883580.0,16,0.1,0.1,0.1,0.0,9.5,1.2000000000000002,-1.3,-0.9,-0.6000000000000001
1698923883596.0,16,0.1,0.0,0.1,0.0,9.5,1.1,-1.5000000000000002,-0.6000000000000001,-0.8
1698923883613.0,16,0.1,0.0,0.0,0.0,9.4,1.1,-2.1,0.6000000000000001,-0.6000000000000001
1698923883630.0,16,0.1,0.0,0.1,0.0,9.5,1.2000000000000002,-2.9,1.9,-0.6000000000000001
1698923883647.0,16,0.1,0.0,0.0,0.0,9.5,1.2000000000000002,-3.0000000000000004,2.5,-0.7
1698923883664.0,16,0.1,0.1,0.0,0.0,9.5,1.2000000000000002,-3.2,2.9,-0.6000000000000001
1698923883680.0,16,0.0,0.0,0.0,-0.1,9.5,1.1,-3.2,3.3000000000000003,-0.30000000000000004
1698923883696.0,16,0.0,-0.1,0.0,-0.1,9.4,1.2000000000000002,-3.8,2.9,-0.9
1698923883714.0,16,0.0,-0.1,0.0,-0.1,9.4,1.2000000000000002,-3.8,2.6,-1.0999999999999999
1698923883730.0,16,0.0,-0.1,0.0,-0.1,9.4,1.1,-3.7000000000000006,1.9,-1.2000000000000002
1698923883747.0,16,0.0,-0.1,0.0,-0.1,9.4,1.1,-3.5,2.3000000000000003,-1.2000000000000002
1698923883764.0,16,0.0,-0.1,0.0,-0.1,9.4,1.1,-2.7,3.0000000000000004,-0.9
1698923883780.0,16,-0.1,-0.1,0.0,-0.2,9.4,1.2000000000000002,-1.7,3.6,-0.7
1698923883797.0,16,0.0,0.0,0.0,-0.1,9.4,1.1,-0.6000000000000001,3.3000000000000003,-0.6000000000000001
1698923883814.0,16,0.0,0.0,0.0,-0.1,9.4,1.2000000000000002,-0.2,3.3000000000000003,-0.5
1698923883830.0,16,-0.1,0.0,0.0,-0.2,9.4,1.2000000000000002,0.0,3.9,-0.1
1698923883847.0,16,-0.1,0.0,0.0,-0.2,9.4,1.2000000000000002,-0.30000000000000004,4.0,-0.30000000000000004
1698923883864.0,16,-0.1,0.0,0.0,-0.2,9.4,1.2000000000000002,-1.2000000000000002,3.5,-0.4
1698923883880.0,16,-0.1,0.0,0.0,-0.2,9.4,1.2000000000000002,-1.6,2.8,-0.4
1698923883897.0,16,-0.1,0.0,0.0,-0.30000000000000004,9.4,1.2000000000000002,-0.9,2.0,-0.1
1698923883913.0,16,-0.1,0.0,0.0,-0.30000000000000004,9.4,1.2000000000000002,-0.5,1.6,-0.1
1698923883930.0,16,-0.2,-0.1,0.0,-0.30000000000000004,9.4,1.2000000000000002,0.2,1.0999999999999999,-0.1
1698923883946.0,16,-0.1,-0.1,0.0,-0.30000000000000004,9.4,1.2000000000000002,-0.1,0.6000000000000001,-0.4
1698923883964.0,16,-0.1,0.0,0.0,-0.30000000000000004,9.4,1.2000000000000002,-0.5,0.2,-0.6000000000000001
1698923883980.0,16,0.0,0.1,0.0,-0.2,9.5,1.2000000000000002,-1.6,-0.5,-0.6000000000000001
1698923883996.0,16,-0.1,0.0,0.0,-0.2,9.5,1.2000000000000002,-2.1,-0.30000000000000004,0.0
1698923884013.0,16,0.0,0.0,0.0,-0.2,9.4,1.3,-1.8,-0.2,0.4
1698923884030.0,16,-0.1,0.0,0.1,-0.2,9.4,1.3,-0.4,-0.8,0.7
1698923884048.0,16,0.0,0.0,0.0,-0.2,9.5,1.3,0.6000000000000001,-0.5,0.4
1698923884063.0,16,0.0,0.1,0.1,-0.2,9.5,1.3,0.7,-0.7,0.4
1698923884080.0,16,0.0,0.0,0.0,-0.2,9.5,1.3,-0.5,-0.8,0.1
1698923884097.0,16,0.0,0.0,0.1,-0.2,9.4,1.3,-2.4000000000000004,-0.8,0.5
1698923884113.0,16,0.0,-0.1,0.1,-0.2,9.4,1.3,-3.1,-0.6000000000000001,0.5
1698923884130.0,16,0.0,-0.1,0.0,-0.2,9.4,1.3,-3.8,-0.8,0.7
1698923884147.0,16,0.0,0.0,0.0,-0.2,9.5,1.3,-3.2,-1.0,0.9
1698923884164.0,16,-0.1,0.0,0.0,-0.2,9.5,1.3,-2.5,-0.8,0.7
1698923884180.0,16,0.0,0.0,0.0,-0.2,9.5,1.3,-1.0999999999999999,-0.4,0.5
1698923884196.0,16,0.0,0.0,0.0,-0.1,9.4,1.3,-0.5,-0.1,0.2
1698923884213.0,16,0.0,0.0,0.0,-0.1,9.4,1.3,-0.5,-0.1,0.2
1698923884230.0,16,0.0,-0.1,0.0,-0.2,9.3,1.3,-1.0,0.5,0.1
1698923884246.0,16,0.0,0.0,0.1,-0.2,9.4,1.3,-1.8,0.0,-0.1
1698923884263.0,16,0.0,0.0,0.0,-0.2,9.4,1.3,-2.4000000000000004,-0.2,-0.2
1698923884280.0,16,0.0,0.0,0.0,-0.2,9.4,1.3,-2.7,0.1,-0.1
1698923884296.0,16,0.0,0.0,0.0,-0.1,9.4,1.3,-3.2,0.5,0.30000000000000004
1698923884313.0,16,0.0,-0.1,-0.1,-0.2,9.3,1.3,-2.7,0.5,0.8
1698923884330.0,16,0.0,0.0,0.0,-0.2,9.4,1.3,-2.4000000000000004,0.2,1.2000000000000002
1698923884347.0,16,-0.1,0.0,0.0,-0.2,9.4,1.3,-1.5000000000000002,-0.30000000000000004,1.0999999999999999
1698923884364.0,16,-0.1,0.0,0.0,-0.30000000000000004,9.4,1.3,-0.8,-0.8,0.2
1698923884380.0,16,-0.1,0.1,0.0,-0.30000000000000004,9.5,1.3,-0.6000000000000001,-0.5,0.0
1698923884396.0,16,0.0,0.0,0.0,-0.2,9.5,1.3,-0.8,-0.30000000000000004,-0.6000000000000001
1698923884413.0,16,0.1,0.0,0.0,-0.1,9.4,1.3,-1.0999999999999999,-0.30000000000000004,-0.7
1698923884430.0,16,0.1,0.0,0.0,-0.1,9.4,1.3,-1.5000000000000002,-0.5,-0.6000000000000001
1698923884446.0,16,0.1,0.0,0.0,-0.1,9.4,1.3,-1.7,-0.30000000000000004,-0.1
1698923884463.0,16,0.1,0.0,0.0,-0.1,9.4,1.3,-2.1999999999999997,0.0,1.0
1698923884480.0,16,0.1,0.0,0.0,-0.1,9.4,1.3,-2.4000000000000004,0.30000000000000004,1.3
1698923884496.0,16,0.0,0.0,0.0,-0.2,9.4,1.4000000000000001,-2.1999999999999997,0.4,1.7
1698923884513.0,16,0.0,0.0,0.0,-0.2,9.4,1.3,-1.9,0.9,1.8
1698923884530.0,16,0.0,0.0,-0.1,-0.2,9.4,1.3,-1.9,1.2000000000000002,1.6
1698923884547.0,16,-0.1,0.0,0.0,-0.2,9.4,1.4000000000000001,-1.6,0.7,1.3
1698923884563.0,16,-0.1,0.0,0.0,-0.30000000000000004,9.4,1.4000000000000001,-1.3,0.5,0.9
1698923884580.0,16,-0.1,0.0,0.0,-0.2,9.4,1.3,-1.5000000000000002,0.4,0.7
1698923884597.0,16,0.0,0.0,0.0,-0.2,9.4,1.4000000000000001,-1.8,0.6000000000000001,0.7
1698923884613.0,16,0.0,0.0,0.0,-0.1,9.4,1.4000000000000001,-2.1999999999999997,1.0,0.9
1698923884630.0,16,0.0,-0.1,0.0,-0.1,9.3,1.4000000000000001,-2.1999999999999997,1.2000000000000002,0.8
1698923884646.0,16,0.0,-0.1,0.0,-0.1,9.3,1.4000000000000001,-1.5000000000000002,1.0999999999999999,1.0
1698923884663.0,16,0.0,0.0,0.0,-0.1,9.3,1.3,-0.6000000000000001,0.1,1.0999999999999999
1698923884680.0,16,0.0,0.0,0.0,-0.1,9.4,1.4000000000000001,-0.5,0.2,1.0999999999999999
1698923884697.0,16,-0.1,0.1,0.0,-0.2,9.5,1.3,-0.7,-0.1,1.3
1698923884714.0,16,0.0,0.1,-0.1,-0.2,9.5,1.3,-1.0999999999999999,0.2,1.6
1698923884730.0,16,0.0,0.0,-0.1,-0.2,9.4,1.3,-1.5000000000000002,0.30000000000000004,1.5000000000000002
1698923884747.0,16,0.0,0.0,0.0,-0.2,9.4,1.3,-1.8,0.4,0.7
1698923884763.0,16,0.0,0.0,-0.1,-0.1,9.4,1.3,-1.6,0.2,0.6000000000000001
1698923884780.0,16,0.0,0.0,0.0,-0.1,9.4,1.4000000000000001,-1.4,-0.30000000000000004,0.7
1698923884797.0,16,0.0,0.0,-0.1,-0.1,9.4,1.3,-0.8,-1.0999999999999999,1.0
1698923884814.0,16,0.0,-0.1,0.0,-0.1,9.3,1.4000000000000001,-0.6000000000000001,-1.3,1.5000000000000002
1698923884830.0,16,0.0,-0.1,0.0,-0.1,9.3,1.4000000000000001,-0.6000000000000001,-1.3,1.8
1698923884847.0,16,0.1,-0.2,0.0,0.0,9.200000000000001,1.3,-0.30000000000000004,-2.5,2.0
1698923884864.0,16,0.1,-0.30000000000000004,0.0,0.0,9.1,1.4000000000000001,-0.9,-4.9,2.0
1698923884880.0,16,0.1,-0.30000000000000004,0.1,0.0,9.1,1.5,-1.2000000000000002,-5.1,2.1999999999999997
1698923884896.0,16,-0.1,-0.2,0.1,-0.2,9.1,1.5,-1.6,-5.7,2.9
1698923884913.0,16,-0.2,-0.1,0.2,-0.30000000000000004,9.200000000000001,1.6,-2.0,-8.4,3.2
1698923884930.0,16,-0.4,0.1,0.2,-0.4,9.4,1.6,-2.8,-14.700000000000001,2.4000000000000004
1698923884946.0,16,-0.30000000000000004,0.2,0.1,-0.4,9.5,1.5,-4.0,-17.599999999999998,1.0
1698923884963.0,16,-0.2,0.5,-0.30000000000000004,-0.2,9.8,1.2000000000000002,-9.8,-25.1,-3.9
1698923884980.0,16,0.0,0.7000000000000001,-0.7000000000000001,-0.1,10.0,0.8,-21.5,-30.200000000000003,-9.700000000000001
1698923884996.0,16,0.0,0.8,-0.9,-0.1,10.100000000000001,0.7000000000000001,-28.400000000000002,-29.800000000000004,-11.9
1698923885013.0,16,0.1,1.0,-1.2000000000000002,0.0,10.3,0.5,-40.1,-25.5,-15.299999999999999
1698923885030.0,16,0.2,1.0,-1.3,0.0,10.3,0.4,-46.900000000000006,-20.4,-17.7
1698923885047.0,16,0.4,1.2000000000000002,-1.4000000000000001,0.2,10.4,0.5,-47.900000000000006,-18.0,-18.5
1698923885063.0,16,0.6000000000000001,1.1,-1.3,0.30000000000000004,10.4,0.7000000000000001,-45.2,-10.0,-16.6
1698923885080.0,16,0.9,0.6000000000000001,-1.5,0.7000000000000001,9.8,0.7000000000000001,-36.6,-2.6,-9.5
1698923885097.0,16,1.0,0.2,-1.6,0.8,9.4,0.5,-31.6,-1.6,-5.2
1698923885113.0,16,1.0,-0.30000000000000004,-1.8,0.8,8.9,0.5,-23.8,-2.6,1.6
1698923885130.0,16,0.7000000000000001,-0.5,-1.7000000000000002,0.5,8.700000000000001,0.6000000000000001,-17.3,-3.4,5.500000000000001
1698923885147.0,16,0.6000000000000001,-0.4,-1.6,0.4,8.8,0.7000000000000001,-14.3,-3.4,6.6000000000000005
1698923885164.0,16,0.30000000000000004,-0.30000000000000004,-1.7000000000000002,0.2,8.9,0.7000000000000001,-10.1,-2.1999999999999997,7.300000000000001
1698923885180.0,16,0.0,-0.2,-1.8,-0.1,8.9,0.6000000000000001,-11.9,0.7,6.9
1698923885197.0,16,0.0,-0.2,-1.8,-0.2,8.9,0.6000000000000001,-14.3,2.7,5.7
1698923885213.0,16,0.0,-0.5,-1.8,-0.1,8.6,0.6000000000000001,-19.400000000000002,6.1000000000000005,0.8
1698923885230.0,16,0.2,-0.8,-2.1,0.0,8.3,0.4,-22.6,9.8,-4.5
1698923885247.0,16,0.30000000000000004,-0.9,-2.1,0.2,8.200000000000001,0.4,-23.400000000000002,12.200000000000001,-6.1000000000000005
1698923885263.0,16,0.5,-0.8,-2.3000000000000003,0.30000000000000004,8.3,0.30000000000000004,-22.900000000000002,16.5,-9.8
1698923885280.0,16,0.6000000000000001,-0.30000000000000004,-2.3000000000000003,0.4,8.700000000000001,0.30000000000000004,-19.500000000000004,18.8,-12.200000000000001
1698923885296.0,16,0.6000000000000001,-0.1,-2.4000000000000004,0.30000000000000004,9.0,0.2,-16.8,19.200000000000003,-12.100000000000001
1698923885313.0,16,0.4,0.1,-2.3000000000000003,0.1,9.200000000000001,0.30000000000000004,-10.700000000000001,16.8,-8.9
1698923885330.0,16,0.0,0.1,-2.0,-0.4,9.1,0.6000000000000001,-2.1999999999999997,15.100000000000001,-2.1999999999999997
1698923885347.0,16,-0.2,0.1,-1.8,-0.6000000000000001,9.200000000000001,0.8,2.1,15.7,0.0
1698923885364.0,16,-0.4,0.5,-1.6,-0.7000000000000001,9.600000000000001,1.0,10.0,11.5,-0.1
1698923885380.0,16,-0.2,0.9,-1.5,-0.6000000000000001,9.9,1.0,12.200000000000001,5.0,-2.6
1698923885397.0,16,-0.1,0.9,-1.5,-0.5,9.9,1.0,9.600000000000001,3.5,-3.4
1698923885413.0,16,0.5,1.0,-1.5,0.1,10.0,1.0,-2.0,6.4,-3.2
1698923885430.0,16,1.1,1.3,-2.0,0.7000000000000001,10.3,0.5,-19.0,14.0,-2.9
1698923885447.0,16,1.3,1.3,-2.2,0.9,10.4,0.30000000000000004,-29.500000000000004,20.7,-0.9
1698923885464.0,16,1.5,1.5,-2.1,1.1,10.5,0.5,-46.300000000000004,26.8,7.9
1698923885480.0,16,1.1,2.5,-0.9,0.8,11.5,1.8,-43.400000000000006,17.7,25.900000000000002
1698923885497.0,16,0.8,3.1,-0.9,0.5,12.100000000000001,1.9000000000000001,-33.1,7.400000000000001,38.0
1698923885514.0,16,-0.6000000000000001,2.8000000000000003,-1.2000000000000002,-0.7000000000000001,11.8,1.7000000000000002,-15.100000000000001,-2.0,54.9
1698923885530.0,16,-0.9,2.3000000000000003,-1.2000000000000002,-0.9,11.3,1.7000000000000002,-3.2,-4.300000000000001,45.3
1698923885547.0,16,-0.8,2.1,-1.3,-0.7000000000000001,11.200000000000001,1.6,0.6000000000000001,-9.1,31.6
1698923885563.0,16,-0.5,2.1,-1.3,-0.4,11.200000000000001,1.6,0.7,-11.1,-0.7
1698923885580.0,16,-0.4,3.5,0.4,-0.30000000000000004,12.600000000000001,3.3000000000000003,7.699999999999999,-17.599999999999998,-10.600000000000001
1698923885597.0,16,-0.6000000000000001,4.3,1.4000000000000001,-0.5,13.4,4.2,23.1,-28.500000000000004,-3.6
1698923885613.0,16,-1.2000000000000002,3.0,1.2000000000000002,-1.1,12.200000000000001,3.8000000000000003,53.50000000000001,-32.2,5.4
1698923885630.0,16,-0.8,1.1,1.8,-0.7000000000000001,10.3,4.3,62.0,-24.8,-5.8
1698923885647.0,16,-0.30000000000000004,0.7000000000000001,2.2,-0.2,9.9,4.6000000000000005,62.300000000000004,-22.7,-16.1
1698923885663.0,16,1.0,0.4,2.6,1.0,9.700000000000001,4.9,52.400000000000006,-12.8,-28.3
1698923885680.0,16,1.2000000000000002,-0.5,2.8000000000000003,1.2000000000000002,8.8,5.0,25.700000000000003,-1.0999999999999999,-17.7
1698923885696.0,16,1.3,-0.9,2.6,1.2000000000000002,8.4,4.800000000000001,10.700000000000001,0.30000000000000004,-9.4
1698923885714.0,16,1.2000000000000002,-1.2000000000000002,1.6,1.2000000000000002,8.1,3.8000000000000003,-17.1,-0.6000000000000001,-1.5000000000000002
1698923885730.0,16,0.9,-1.3,0.9,0.9,8.0,3.2,-32.1,2.4000000000000004,-1.7
1698923885746.0,16,0.5,-0.9,0.6000000000000001,0.5,8.3,3.0,-31.7,7.2,2.4000000000000004
1698923885763.0,16,0.30000000000000004,-0.8,0.5,0.30000000000000004,8.4,3.0,-27.1,10.5,4.1000000000000005
1698923885780.0,16,-0.1,-0.9,0.0,-0.1,8.3,2.6,-16.0,13.3,5.1
1698923885796.0,16,-0.5,-1.6,-0.2,-0.6000000000000001,7.6000000000000005,2.4000000000000004,-9.5,21.200000000000003,4.9
1698923885814.0,16,-0.6000000000000001,-2.0,-0.4,-0.7000000000000001,7.2,2.2,-8.5,26.6,4.800000000000001
1698923885830.0,16,-0.5,-2.7,-0.6000000000000001,-0.6000000000000001,6.4,2.0,-7.500000000000001,30.100000000000005,3.0000000000000004
1698923885846.0,16,-0.5,-2.8000000000000003,-0.6000000000000001,-0.6000000000000001,6.300000000000001,2.1,-7.0,28.200000000000003,1.5000000000000002
1698923885864.0,16,-0.7000000000000001,-2.7,-0.7000000000000001,-0.8,6.5,2.0,-6.2,29.700000000000003,0.9
1698923885880.0,16,-0.9,-2.1,-1.0,-1.1,7.0,1.7000000000000002,-4.300000000000001,32.4,0.4
1698923885897.0,16,-1.0,-2.0,-1.3,-1.1,7.0,1.4000000000000001,-4.3999999999999995,33.800000000000004,-0.9
1698923885914.0,16,-0.9,-2.2,-1.5,-1.1,6.9,1.1,-5.9,36.0,-4.0
1698923885930.0,16,-0.6000000000000001,-2.5,-1.8,-0.8,6.5,0.9,-5.1,35.9,-1.4
1698923885946.0,16,-0.5,-2.5,-1.7000000000000002,-0.7000000000000001,6.5,0.9,-2.1999999999999997,28.6,5.7
1698923885963.0,16,-0.6000000000000001,-2.4000000000000004,-1.7000000000000002,-0.9,6.6000000000000005,0.9,0.4,23.900000000000002,10.2
1698923885980.0,16,-1.0,-1.9000000000000001,-1.6,-1.2000000000000002,7.1000000000000005,1.0,5.7,12.4,18.5
1698923885997.0,16,-1.2000000000000002,-1.5,-1.5,-1.4000000000000001,7.5,1.1,8.1,8.3,20.900000000000002
1698923886014.0,16,-1.3,-0.9,-1.6,-1.5,8.1,1.0,12.100000000000001,7.2,20.2
1698923886030.0,16,-1.1,-0.1,-1.6,-1.2000000000000002,8.9,0.9,11.700000000000001,6.1000000000000005,14.0
1698923886046.0,16,-0.9,0.8,-1.3,-1.0,9.8,1.1,11.9,8.4,8.799999999999999
1698923886064.0,16,-0.9,1.4000000000000001,-1.1,-1.0,10.4,1.2000000000000002,12.6,10.0,8.4
1698923886080.0,16,-0.9,3.2,-0.9,-0.9,12.200000000000001,1.4000000000000001,16.700000000000003,11.2,9.0
1698923886097.0,16,-0.7000000000000001,4.7,-0.9,-0.8,13.8,1.4000000000000001,18.400000000000002,2.8,8.600000000000001
1698923886114.0,16,-0.6000000000000001,4.9,-1.4000000000000001,-0.6000000000000001,14.0,0.9,16.0,0.8,7.8
1698923886130.0,16,-0.4,3.9000000000000004,-2.9000000000000004,-0.5,13.100000000000001,-0.7000000000000001,-6.000000000000001,8.0,3.8
1698923886147.0,16,-0.8,3.4000000000000004,-2.3000000000000003,-0.6000000000000001,12.5,-1.0,-38.6,13.8,4.3999999999999995
1698923886163.0,16,-1.1,4.3,-0.5,-1.1,13.4,1.9000000000000001,-41.9,15.6,6.000000000000001
1698923886180.0,16,-1.3,6.2,2.0,-1.4000000000000001,15.4,4.5,-2.3000000000000003,30.000000000000004,3.7000000000000006
1698923886196.0,16,-0.6000000000000001,4.1000000000000005,1.5,-0.7000000000000001,13.4,3.8000000000000003,55.7,29.900000000000006,-7.500000000000001
1698923886214.0,16,0.0,1.8,3.1,-0.1,11.100000000000001,5.2,81.2,19.9,-13.3
1698923886230.0,16,0.4,-0.4,4.3,0.30000000000000004,9.0,6.300000000000001,109.10000000000001,17.7,-16.900000000000002
1698923886246.0,16,0.2,-3.8000000000000003,4.4,0.30000000000000004,6.1000000000000005,5.9,106.80000000000001,-21.200000000000003,-28.400000000000002
1698923886263.0,16,-0.1,-3.4000000000000004,4.2,-0.4,6.0,5.6000000000000005,46.900000000000006,-32.4,-34.6
1698923886280.0,16,-1.1,0.5,2.6,-1.6,9.9,4.2,-74.89999999999999,-6.2,-42.6
1698923886297.0,16,-1.4000000000000001,3.4000000000000004,3.7,-2.1,12.8,5.6000000000000005,-90.9,9.3,-49.9
1698923886313.0,16,-0.9,3.4000000000000004,1.7000000000000002,-1.6,12.700000000000001,3.8000000000000003,-71.8,14.700000000000001,-47.5
1698923886330.0,16,0.8,1.3,0.30000000000000004,0.0,10.700000000000001,2.6,-40.5,-12.200000000000001,-28.8
1698923886346.0,16,1.2000000000000002,-1.0,-0.30000000000000004,0.30000000000000004,8.200000000000001,2.0,-7.2,-32.6,-6.5
1698923886363.0,16,0.6000000000000001,-1.5,-0.1,-0.2,7.800000000000001,2.1,10.9,-37.1,2.7
1698923886380.0,16,0.1,-1.6,0.2,-0.7000000000000001,7.7,2.4000000000000004,16.6,-37.6,2.7
1698923886396.0,16,-0.5,-2.0,0.2,-1.2000000000000002,7.300000000000001,2.4000000000000004,20.3,-35.199999999999996,-2.5
1698923886413.0,16,-0.30000000000000004,-2.6,-0.2,-1.1,6.6000000000000005,1.9000000000000001,8.9,-34.1,-12.5
1698923886430.0,16,-0.1,-3.0,-0.4,-0.9,6.300000000000001,1.7000000000000002,-0.7,-35.6,-18.0
1698923886446.0,16,0.5,-3.5,-0.7000000000000001,-0.4,5.7,1.6,-20.4,-36.7,-29.000000000000004
1698923886463.0,16,1.1,-3.7,-0.5,-0.1,5.5,1.7000000000000002,-30.5,-28.400000000000002,-37.0
1698923886479.0,16,1.4000000000000001,-3.6,-0.4,0.4,5.5,1.9000000000000001,-30.299999999999997,-22.3,-38.6
1698923886497.0,16,2.1,-3.2,-0.6000000000000001,1.0,5.9,1.8,-21.200000000000003,-8.4,-36.0
1698923886513.0,16,2.5,-2.9000000000000004,-0.9,1.4000000000000001,6.1000000000000005,1.5,-9.0,2.4000000000000004,-25.8
1698923886530.0,16,3.1,-2.6,-1.4000000000000001,1.9000000000000001,6.4,1.1,-3.7000000000000006,6.9,-19.200000000000003
1698923886547.0,16,3.3000000000000003,-2.4000000000000004,-2.1,2.1,6.6000000000000005,0.30000000000000004,1.8,11.700000000000001,-4.5
1698923886564.0,16,3.2,-2.2,-2.1,2.0,6.800000000000001,0.30000000000000004,1.4,10.8,3.4
1698923886580.0,16,2.3000000000000003,-1.4000000000000001,-1.8,1.2000000000000002,7.5,0.5,1.8,15.399999999999999,19.6
1698923886596.0,16,1.1,-0.30000000000000004,-1.9000000000000001,0.1,8.700000000000001,0.5,-1.0999999999999999,22.4,31.4
1698923886613.0,16,0.6000000000000001,0.4,-1.7000000000000002,-0.4,9.3,0.7000000000000001,-2.1999999999999997,24.7,34.50000000000001
1698923886630.0,16,-0.4,1.8,-1.2000000000000002,-1.2000000000000002,10.8,1.1,-0.1,25.0,36.1
1698923886647.0,16,-0.6000000000000001,3.0,-1.9000000000000001,-1.4000000000000001,12.0,0.4,4.3999999999999995,19.8,29.500000000000004
1698923886663.0,16,-0.30000000000000004,3.5,-2.0,-1.2000000000000002,12.4,0.2,2.8,10.8,22.3
1698923886680.0,16,-0.4,3.9000000000000004,-1.9000000000000001,-1.1,13.0,0.4,-3.0000000000000004,-12.4,11.9
1698923886697.0,16,-0.30000000000000004,4.7,-1.7000000000000002,-1.0,13.8,0.6000000000000001,-10.9,-15.2,12.000000000000002
1698923886713.0,16,-0.8,5.9,-0.1,-1.4000000000000001,14.3,1.1,-15.100000000000001,-5.7,16.1
1698923886730.0,16,-0.5,6.6000000000000005,0.8,-1.0,15.700000000000001,3.1,-3.0000000000000004,-15.8,20.4
1698923886747.0,16,-1.7000000000000002,4.800000000000001,2.3000000000000003,-2.2,14.0,4.6000000000000005,36.9,-31.8,29.000000000000004
1698923886763.0,16,-2.3000000000000003,3.9000000000000004,4.3,-2.7,13.200000000000001,6.5,64.50000000000001,-34.900000000000006,35.0
1698923886780.0,16,-2.7,3.2,5.6000000000000005,-3.0,12.600000000000001,7.5,140.0,-59.00000000000001,32.4
1698923886797.0,16,-0.7000000000000001,0.30000000000000004,4.9,-0.9,9.9,6.300000000000001,144.20000000000002,-46.0,2.5
1698923886813.0,16,2.4000000000000004,-1.0,5.2,0.6000000000000001,8.5,6.5,47.300000000000004,-62.199999999999996,-25.900000000000002
1698923886830.0,16,3.5,0.1,4.0,3.2,9.600000000000001,5.300000000000001,-19.9,-48.9,-22.4
1698923886847.0,16,3.5,1.6,3.2,3.3000000000000003,11.100000000000001,4.800000000000001,-89.5,-2.0,-6.4
1698923886864.0,16,2.2,1.8,1.9000000000000001,2.0,11.3,3.8000000000000003,-77.7,-10.4,16.6
1698923886880.0,16,1.9000000000000001,1.5,1.4000000000000001,1.7000000000000002,11.0,3.4000000000000004,-66.5,-18.3,24.8
1698923886897.0,16,0.9,0.30000000000000004,0.4,0.8,9.700000000000001,2.5,-46.1,-9.200000000000001,29.800000000000004
1698923886913.0,16,0.30000000000000004,-0.8,-0.1,0.30000000000000004,8.6,2.2,-35.1,13.6,26.8
1698923886930.0,16,-0.1,-1.3,-0.2,0.0,8.0,2.1,-30.100000000000005,23.5,23.2
1698923886948.0,16,-0.8,-2.7,-0.5,-0.7000000000000001,6.7,1.9000000000000001,-20.1,26.200000000000003,17.7
1698923886964.0,16,-1.0,-4.0,-1.1,-0.9,5.300000000000001,1.4000000000000001,-13.8,21.0,14.3
1698923886980.0,16,-1.1,-4.6000000000000005,-1.3,-0.9,4.7,1.2000000000000002,-13.100000000000001,19.700000000000003,11.9
1698923886997.0,16,-1.3,-5.2,-1.6,-1.2000000000000002,4.0,0.9,-14.0,17.7,6.6000000000000005
1698923887013.0,16,-1.7000000000000002,-5.2,-1.6,-1.6,4.0,1.0,-14.900000000000002,18.8,3.2
1698923887030.0,16,-1.8,-4.9,-1.6,-1.7000000000000002,4.2,0.9,-14.500000000000002,20.8,2.3000000000000003
1698923887047.0,16,-1.7000000000000002,-4.0,-1.5,-1.6,5.0,1.1,-11.000000000000002,24.7,-0.30000000000000004
1698923887063.0,16,-1.1,-2.8000000000000003,-1.5,-1.1,6.2,1.0,-1.5000000000000002,18.400000000000002,-4.5
1698923887080.0,16,-0.9,-2.4000000000000004,-1.8,-0.9,6.6000000000000005,0.8,3.3000000000000003,9.9,-7.300000000000001
1698923887097.0,16,-0.7000000000000001,-2.1,-2.1,-0.8,6.9,0.4,8.1,-16.2,-6.7
1698923887114.0,16,-0.8,-1.8,-1.8,-0.8,7.2,0.6000000000000001,9.1,-33.7,2.7
1698923887130.0,16,-1.0,-1.5,-1.6,-1.0,7.5,0.8,10.8,-32.9,7.500000000000001
1698923887146.0,16,-1.1,-0.4,-1.7000000000000002,-1.0,8.6,0.7000000000000001,15.2,-23.8,11.5
1698923887163.0,16,-0.7000000000000001,1.4000000000000001,-1.2000000000000002,-0.6000000000000001,10.5,1.1,20.3,-19.200000000000003,6.8
1698923887180.0,16,-0.1,3.4000000000000004,-0.4,0.0,12.5,1.8,31.099999999999998,-11.9,-4.300000000000001
1698923887197.0,16,0.4,4.2,-0.4,0.5,13.4,1.7000000000000002,37.2,-2.1999999999999997,-9.8
1698923887213.0,16,1.7000000000000002,4.6000000000000005,-1.7000000000000002,1.7000000000000002,13.700000000000001,0.30000000000000004,37.7,14.100000000000001,-18.2
1698923887230.0,16,1.9000000000000001,4.1000000000000005,-2.4000000000000004,2.0,13.3,-0.5,28.500000000000004,20.0,-18.2
1698923887256.0,16,0.9,3.1,-2.1,0.9,12.4,-0.1,-20.7,34.300000000000004,2.7
1698923887263.0,16,0.30000000000000004,4.2,0.2,0.30000000000000004,13.4,2.2,-24.000000000000004,31.8,8.799999999999999
1698923887280.0,16,-0.4,5.300000000000001,3.1,-0.4,14.5,5.1000000000000005,-8.200000000000001,32.7,10.700000000000001
1698923887298.0,16,-1.1,5.300000000000001,4.4,-1.2000000000000002,14.600000000000001,6.300000000000001,70.8,54.800000000000004,4.2
1698923887313.0,16,-0.5,2.7,7.2,-0.6000000000000001,12.100000000000001,8.700000000000001,140.9,41.0,-13.700000000000001
1698923887330.0,16,0.1,0.8,7.0,-0.1,10.3,8.3,146.4,14.4,-38.800000000000004
1698923887347.0,16,0.8,-1.7000000000000002,5.0,0.5,7.800000000000001,6.0,71.5,-22.1,-45.800000000000004
1698923887363.0,16,-1.9000000000000001,3.0,1.6,-2.3000000000000003,12.600000000000001,2.9000000000000004,-109.4,-1.9,-40.0
1698923887380.0,16,-2.7,6.1000000000000005,4.9,-3.2,14.5,4.9,-140.0,8.799999999999999,-35.0
1698923887397.0,16,-2.0,5.4,3.4000000000000004,-2.6,14.9,5.300000000000001,-115.50000000000001,13.8,-30.599999999999998
1698923887414.0,16,-1.0,0.4,-1.1,-1.7000000000000002,9.8,1.1,-79.3,-9.600000000000001,-21.400000000000002
1698923887430.0,16,0.2,-2.3000000000000003,-0.5,-0.6000000000000001,7.1000000000000005,1.9000000000000001,-57.1,-11.6,-17.400000000000002
1698923887447.0,16,0.7000000000000001,-2.9000000000000004,-1.4000000000000001,-0.1,6.4,1.1,-43.50000000000001,-5.0,-19.3
1698923887463.0,16,1.2000000000000002,-3.7,-1.5,0.4,5.5,1.1,-25.1,-16.900000000000002,-25.2
1698923887481.0,16,1.2000000000000002,-4.0,-1.0,0.30000000000000004,5.2,1.6,-1.8,-20.6,-24.1
1698923887497.0,16,1.3,-4.3,-1.1,0.30000000000000004,4.9,1.5,9.9,-16.0,-20.900000000000002
1698923887513.0,16,1.3,-4.3,-1.3,0.30000000000000004,4.9,1.2000000000000002,23.8,-10.8,-14.700000000000001
1698923887530.0,16,1.1,-4.3,-1.2000000000000002,0.0,4.800000000000001,1.5,27.7,-10.0,-10.1
1698923887546.0,16,0.9,-4.4,-0.7000000000000001,-0.1,4.7,1.7000000000000002,28.1,-8.600000000000001,-9.0
1698923887563.0,16,1.2000000000000002,-4.7,-0.8,0.2,4.4,1.4000000000000001,23.900000000000002,-4.2,-9.9
1698923887580.0,16,1.7000000000000002,-4.7,-0.7000000000000001,0.7000000000000001,4.4,1.5,10.8,2.1999999999999997,-13.4
1698923887597.0,16,1.9000000000000001,-4.3,-0.8,0.8,4.800000000000001,1.4000000000000001,4.0,8.600000000000001,-13.8
1698923887614.0,16,2.0,-3.1,-1.7000000000000002,0.9,5.9,0.5,-9.3,14.900000000000002,-9.1
1698923887630.0,16,2.1,-2.1,-2.0,1.0,6.800000000000001,0.2,-21.400000000000002,14.500000000000002,-2.3000000000000003
1698923887646.0,16,1.9000000000000001,-1.5,-2.0,0.9,7.4,0.30000000000000004,-24.5,15.8,1.2000000000000002
1698923887664.0,16,1.1,0.2,-2.4000000000000004,0.1,9.1,-0.1,-25.6,13.100000000000001,11.8
1698923887680.0,16,0.0,2.4000000000000004,-2.3000000000000003,-1.0,11.3,0.0,-23.400000000000002,-7.2,25.3
1698923887697.0,16,-0.6000000000000001,3.3000000000000003,-2.1,-1.5,12.200000000000001,0.30000000000000004,-19.6,-18.2,30.4
1698923887714.0,16,-1.5,4.2,-1.6,-2.3000000000000003,13.200000000000001,0.9,-9.3,-20.5,31.6
1698923887730.0,16,-1.4000000000000001,4.5,-1.6,-2.1,13.5,0.9,6.2,-15.7,19.9
1698923887747.0,16,-0.5,4.5,-2.2,-1.2000000000000002,13.600000000000001,0.2,10.8,-18.6,9.0
1698923887764.0,16,0.0,4.4,-1.6,-0.7000000000000001,13.5,0.7000000000000001,4.2,-18.2,-16.700000000000003
1698923887780.0,16,-0.30000000000000004,7.4,3.5,-1.1,16.6,5.9,30.299999999999997,1.7,-11.3
1698923887797.0,16,-0.4,8.4,4.2,-1.2000000000000002,17.7,6.5,71.7,-3.3000000000000003,2.1999999999999997
1698923887814.0,16,-3.7,5.7,7.9,-4.4,15.100000000000001,9.700000000000001,168.6,-7.500000000000001,48.00000000000001
1698923887830.0,16,-2.5,1.5,6.800000000000001,-3.0,11.0,8.0,215.2,-51.400000000000006,65.3
1698923887847.0,16,0.5,-2.8000000000000003,5.5,0.2,6.7,6.300000000000001,67.60000000000001,-66.7,6.3
1698923887863.0,16,1.5,-1.4000000000000001,3.8000000000000003,1.2000000000000002,8.200000000000001,4.800000000000001,-48.7,-53.8,-11.3
1698923887880.0,16,3.2,2.3000000000000003,4.3,2.8000000000000003,11.8,5.7,-120.60000000000001,10.3,-18.8
1698923887896.0,16,3.4000000000000004,3.4000000000000004,2.9000000000000004,3.0,12.9,4.5,-104.80000000000001,7.2,-15.8
1698923887914.0,16,2.0,3.0,1.6,1.7000000000000002,12.5,3.4000000000000004,-65.5,-18.5,9.8
1698923887930.0,16,1.2000000000000002,1.1,0.8,1.0,10.600000000000001,2.8000000000000003,-29.1,-17.3,36.6
1698923887947.0,16,0.6000000000000001,0.4,0.5,0.4,9.9,2.5,-17.3,-11.000000000000002,41.800000000000004
1698923887963.0,16,-0.30000000000000004,-0.9,0.2,-0.4,8.6,2.3000000000000003,-9.3,14.700000000000001,37.800000000000004
1698923887980.0,16,-0.9,-2.0,0.1,-0.9,7.4,2.2,-10.5,24.3,20.4
1698923887997.0,16,-1.0,-2.5,-0.2,-1.0,7.0,1.9000000000000001,-13.4,21.400000000000002,12.3
1698923888014.0,16,-1.1,-3.3000000000000003,-0.7000000000000001,-1.1,6.1000000000000005,1.5,-23.1,15.9,3.5
1698923888030.0,16,-1.3,-4.2,-1.1,-1.3,5.2,1.1,-32.0,13.6,5.0
1698923888047.0,16,-1.3,-4.4,-1.2000000000000002,-1.3,4.9,1.1,-34.400000000000006,11.3,8.0
1698923888064.0,16,-1.5,-4.6000000000000005,-1.5,-1.5,4.6000000000000005,0.9,-35.8,7.0,13.700000000000001
1698923888080.0,16,-1.6,-4.7,-1.8,-1.6,4.5,0.7000000000000001,-32.5,2.5,16.0
1698923888096.0,16,-1.8,-4.800000000000001,-2.0,-1.6,4.4,0.6000000000000001,-27.900000000000002,-4.9,12.100000000000001
1698923888114.0,16,-1.8,-4.800000000000001,-2.0,-1.7000000000000002,4.3,0.6000000000000001,-24.5,-8.5,8.5
1698923888130.0,16,-1.7000000000000002,-4.2,-2.3000000000000003,-1.6,4.800000000000001,0.30000000000000004,-17.3,-15.9,-1.0
1698923888146.0,16,-1.3,-3.3000000000000003,-2.0,-1.4000000000000001,5.2,0.4,-8.5,-28.500000000000004,-3.2
1698923888163.0,16,-1.0,-2.8000000000000003,-1.8,-0.9,6.2,0.9,-2.0,-33.400000000000006,0.2
1698923888180.0,16,-0.6000000000000001,-1.4000000000000001,-1.9000000000000001,-0.5,7.5,0.8,12.4,-36.800000000000004,8.200000000000001
1698923888196.0,16,-0.4,-0.6000000000000001,-1.7000000000000002,-0.30000000000000004,8.3,0.9,18.3,-35.6,10.1
1698923888214.0,16,0.4,1.3,-1.2000000000000002,0.6000000000000001,10.3,1.3,29.500000000000004,-25.2,6.5
1698923888230.0,16,0.9,3.0,-0.9,1.2000000000000002,12.0,1.5,41.6,-11.6,-4.300000000000001
1698923888246.0,16,0.9,4.4,-1.6,1.1,13.5,0.6000000000000001,44.3,-1.6,-2.6
1698923888264.0,16,0.7000000000000001,4.6000000000000005,-1.8,0.9,13.8,0.30000000000000004,37.0,3.1,3.5
1698923888280.0,16,0.1,3.8000000000000003,-2.0,0.4,13.0,0.1,17.0,8.1,17.5
1698923888296.0,16,-1.0,3.4000000000000004,-2.5,-0.6000000000000001,12.700000000000001,-0.4,-10.9,9.200000000000001,21.1
1698923888313.0,16,-0.9,4.6000000000000005,-0.6000000000000001,-0.6000000000000001,13.8,1.5,-20.5,6.1000000000000005,21.3
1698923888330.0,16,0.7000000000000001,8.3,4.7,1.1,17.6,6.800000000000001,15.9,26.8,7.9
1698923888347.0,16,0.8,6.800000000000001,2.4000000000000004,1.1,16.2,4.3,83.4,69.2,-21.200000000000003
1698923888364.0,16,1.3,3.2,3.8000000000000003,1.6,12.700000000000001,5.6000000000000005,102.7,49.2,-29.400000000000002
1698923888380.0,16,0.8,-2.8000000000000003,5.6000000000000005,0.9,6.800000000000001,7.0,123.10000000000001,44.00000000000001,-37.0
1698923888397.0,16,-0.1,-4.2,4.5,-0.1,5.4,5.7,41.2,-20.4,-34.1
1698923888413.0,16,-1.2000000000000002,-1.2000000000000002,3.6,-1.3,8.200000000000001,4.9,-38.2,-15.7,-29.700000000000003
1698923888430.0,16,-3.2,4.4,3.1,-3.4000000000000004,13.8,4.7,-115.50000000000001,21.8,-31.8
1698923888446.0,16,-1.9000000000000001,6.7,3.4000000000000004,-2.3000000000000003,16.1,5.4,-100.10000000000001,35.7,-40.8
1698923888463.0,16,-1.2000000000000002,5.4,1.3,-1.6,14.8,3.5,-61.1,16.6,-47.0
1698923888480.0,16,0.0,0.4,0.1,-0.6000000000000001,9.8,2.4000000000000004,-48.300000000000004,4.6000000000000005,-43.50000000000001
1698923888496.0,16,1.1,-2.0,-1.0,0.4,7.300000000000001,1.4000000000000001,-22.900000000000002,16.3,-35.199999999999996
1698923888513.0,16,1.5,-3.3000000000000003,-1.5,0.7000000000000001,6.0,0.9,-12.200000000000001,8.0,-29.800000000000004
1698923888529.0,16,1.3,-3.7,-1.1,0.4,5.6000000000000005,1.3,-7.8,0.6000000000000001,-24.3
1698923888546.0,16,1.1,-4.0,-0.9,0.2,5.2,1.6,3.6,-4.1000000000000005,-6.7
1698923888563.0,16,1.0,-4.1000000000000005,-1.0,0.2,5.2,1.4000000000000001,7.2,-4.3999999999999995,1.8
1698923888580.0,16,0.7000000000000001,-4.3,-1.3,-0.1,4.9,1.2000000000000002,6.3,-7.2,12.100000000000001
1698923888596.0,16,0.2,-4.800000000000001,-1.1,-0.5,4.4,1.3,-1.2000000000000002,-9.0,13.200000000000001
1698923888614.0,16,0.1,-5.0,-1.1,-0.6000000000000001,4.1000000000000005,1.3,-4.800000000000001,-8.9,11.000000000000002
1698923888630.0,16,0.2,-5.300000000000001,-1.1,-0.5,3.8000000000000003,1.3,-9.0,-8.5,2.6
1698923888648.0,16,0.6000000000000001,-5.1000000000000005,-1.4000000000000001,-0.1,3.9000000000000004,1.1,-11.4,-3.4,-8.1
1698923888664.0,16,0.8,-4.7,-1.4000000000000001,0.1,4.3,1.1,-12.3,2.0,-11.6
1698923888680.0,16,1.4000000000000001,-3.5,-1.4000000000000001,0.6000000000000001,5.5,1.1,-9.9,14.4,-14.3
1698923888696.0,16,1.8,-1.8,-1.9000000000000001,1.0,7.2,0.6000000000000001,-3.7000000000000006,20.4,-15.8
1698923888713.0,16,2.0,-0.9,-2.3000000000000003,1.1,8.0,0.2,-2.1999999999999997,19.700000000000003,-16.400000000000002
1698923888730.0,16,1.5,1.0,-2.1,0.6000000000000001,9.9,0.4,-3.7000000000000006,13.8,-11.2
1698923888746.0,16,0.0,3.3000000000000003,-1.7000000000000002,-0.9,12.3,0.7000000000000001,-2.4000000000000004,8.9,9.600000000000001
1698923888764.0,16,-0.6000000000000001,4.1000000000000005,-1.8,-1.5,13.100000000000001,0.6000000000000001,-1.7,5.2,22.7
1698923888781.0,16,-1.6,3.7,-1.6,-2.4000000000000004,12.700000000000001,0.8,-2.6,-7.1000000000000005,38.400000000000006
1698923888796.0,16,-1.9000000000000001,3.4000000000000004,-1.6,-2.5,12.5,0.9,-1.4,-22.3,35.4
1698923888813.0,16,-1.0,3.6,-2.9000000000000004,-1.6,12.700000000000001,-0.4,-10.9,-26.3,14.800000000000002
1698923888830.0,16,-0.30000000000000004,3.1,-3.3000000000000003,-0.8,12.200000000000001,-0.8,-24.7,-19.3,-1.7
1698923888847.0,16,0.7000000000000001,3.8000000000000003,0.1,0.0,12.9,2.7,-47.5,12.6,-29.1
1698923888863.0,16,1.5,6.4,4.2,0.7000000000000001,15.5,6.800000000000001,15.299999999999999,42.1,-28.3
1698923888880.0,16,0.30000000000000004,6.5,6.0,-0.5,15.700000000000001,8.5,68.5,29.200000000000003,-16.900000000000002
1698923888897.0,16,-3.2,6.7,7.5,-3.9000000000000004,16.1,9.600000000000001,211.1,-18.900000000000002,55.4
1698923888913.0,16,-2.3000000000000003,-0.5,6.4,-2.7,9.1,7.7,230.20000000000005,-60.00000000000001,91.10000000000001
1698923888930.0,16,0.2,-4.3,6.4,0.0,5.300000000000001,7.5,154.1,-82.8,59.60000000000001
1698923888946.0,16,0.8,-3.2,3.5,0.5,6.300000000000001,4.800000000000001,-93.1,-48.00000000000001,-9.0
1698923888963.0,16,2.9000000000000004,2.1,3.2,2.6,11.5,5.0,-119.1,30.100000000000005,-26.0
1698923888980.0,16,3.4000000000000004,4.9,2.5,3.0,14.3,4.4,-99.4,15.299999999999999,-26.400000000000002
1698923888996.0,16,1.4000000000000001,5.7,1.4000000000000001,1.0,15.200000000000001,3.5,-53.00000000000001,-18.5,-8.1
1698923889013.0,16,0.7000000000000001,3.7,0.6000000000000001,0.4,13.200000000000001,2.8000000000000003,-35.5,-19.700000000000003,13.8
1698923889029.0,16,0.9,0.0,-0.1,0.7000000000000001,9.4,2.2,-17.1,-3.9,43.400000000000006
1698923889046.0,16,0.0,-1.5,-0.1,-0.1,7.9,2.2,-10.9,15.9,36.1
1698923889063.0,16,-1.0,-2.3000000000000003,-0.2,-1.0,7.1000000000000005,2.1,-9.8,23.5,20.1
1698923889080.0,16,-1.3,-2.6,-0.5,-1.3,6.7,1.9000000000000001,-10.8,18.6,13.9
1698923889096.0,16,-1.6,-3.4000000000000004,-0.8,-1.6,5.9,1.6,-15.8,4.5,8.700000000000001
1698923889113.0,16,-1.8,-4.1000000000000005,-1.5,-1.7000000000000002,5.2,1.0,-23.400000000000002,-1.2000000000000002,8.9
1698923889130.0,16,-1.8,-4.3,-1.6,-1.8,5.0,0.9,-27.8,-2.8,9.5
1698923889146.0,16,-1.7000000000000002,-4.3,-1.8,-1.6,4.9,0.8,-33.1,-1.8,7.2
1698923889163.0,16,-1.3,-4.3,-1.8,-1.2000000000000002,4.800000000000001,0.8,-32.5,0.1,-0.30000000000000004
1698923889181.0,16,-1.2000000000000002,-4.4,-1.9000000000000001,-1.2000000000000002,4.7,0.8,-30.100000000000005,2.7,-5.300000000000001
1698923889197.0,16,-0.8,-4.5,-2.6,-0.8,4.5,0.2,-24.000000000000004,3.1,-12.6
1698923889213.0,16,-0.5,-4.5,-2.3000000000000003,-0.6000000000000001,4.5,0.5,-20.2,-9.600000000000001,-11.4
1698923889230.0,16,-0.6000000000000001,-4.3,-1.8,-0.7000000000000001,4.7,1.1,-14.600000000000001,-13.3,-4.800000000000001
1698923889249.0,16,-0.5,-3.1,-1.9000000000000001,-0.5,5.9,0.9,3.9,-16.700000000000003,14.900000000000002
1698923889263.0,16,-0.5,-1.3,-1.5,-0.5,7.6000000000000005,1.2000000000000002,19.500000000000004,-21.0,24.8
1698923889280.0,16,-0.5,-0.2,-1.1,-0.4,8.700000000000001,1.6,40.1,-13.8,20.3
1698923889297.0,16,0.6000000000000001,1.9000000000000001,-0.5,0.8,10.8,2.0,52.1,-6.7,11.8
1698923889314.0,16,1.4000000000000001,3.3000000000000003,-1.3,1.6,12.3,1.1,68.2,3.3000000000000003,-8.9
1698923889330.0,16,1.4000000000000001,3.9000000000000004,-1.6,1.5,13.0,0.6000000000000001,65.7,10.5,-12.6
1698923889347.0,16,1.2000000000000002,4.4,-2.0,1.3,13.600000000000001,0.0,41.800000000000004,35.1,-3.4
1698923889363.0,16,0.4,3.4000000000000004,-3.3000000000000003,0.5,12.700000000000001,-1.3,4.6000000000000005,46.300000000000004,8.4
1698923889380.0,16,-0.6000000000000001,3.1,-3.7,-0.4,12.3,-1.7000000000000002,-18.7,43.50000000000001,10.8
1698923889396.0,16,-1.5,5.0,0.4,-1.3,14.200000000000001,2.5,-44.4,29.400000000000002,17.9
1698923889413.0,16,-1.3,6.7,4.0,-1.1,16.0,6.2,4.5,59.20000000000001,7.6
1698923889431.0,16,-0.1,5.1000000000000005,4.5,-0.1,14.5,6.6000000000000005,87.9,74.2,-18.400000000000002
1698923889448.0,16,0.9,3.7,5.800000000000001,0.9,13.200000000000001,7.6000000000000005,128.9,63.0,-33.2
1698923889463.0,16,2.0,-0.4,5.0,1.8,9.1,6.300000000000001,163.9,48.1,-49.3
1698923889480.0,16,0.0,-2.5,5.5,-0.4,7.0,6.6000000000000005,35.4,-14.3,-37.1
1698923889497.0,16,-1.6,0.6000000000000001,3.3000000000000003,-2.0,10.100000000000001,4.6000000000000005,-69.00000000000001,6.7,-24.400000000000002
1698923889514.0,16,-3.7,5.1000000000000005,3.8000000000000003,-4.2,14.600000000000001,5.5,-146.5,31.2,-18.7
1698923889530.0,16,-3.2,5.6000000000000005,3.9000000000000004,-3.7,15.0,5.9,-134.8,21.0,-16.2
1698923889547.0,16,-1.7000000000000002,1.6,-0.7000000000000001,-2.4000000000000004,11.0,1.6,-92.9,6.5,-13.0
1698923889564.0,16,-0.4,-1.7000000000000002,-0.5,-1.0,7.6000000000000005,2.1,-63.0,-9.1,-12.100000000000001
1698923889581.0,16,0.30000000000000004,-2.4000000000000004,-1.3,-0.4,6.9,1.3,-46.2,-3.9,-13.700000000000001
1698923889597.0,16,0.9,-3.2,-1.7000000000000002,0.1,6.0,1.0,-25.1,-4.6000000000000005,-19.700000000000003
1698923889613.0,16,0.8,-3.5,-1.0,0.1,5.7,1.7000000000000002,-0.5,-4.1000000000000005,-19.0
1698923889630.0,16,1.0,-3.9000000000000004,-1.0,0.2,5.300000000000001,1.6,25.5,-4.2,-11.1
1698923889647.0,16,1.2000000000000002,-4.0,-0.9,0.30000000000000004,5.2,1.6,35.0,-4.5,-7.400000000000001
1698923889663.0,16,1.2000000000000002,-4.3,-0.9,0.4,4.9,1.5,44.00000000000001,-3.9,-3.1
1698923889680.0,16,1.2000000000000002,-4.5,-0.5,0.4,4.7,1.8,39.699999999999996,-7.400000000000001,-2.8
1698923889697.0,16,1.3,-4.5,-0.30000000000000004,0.5,4.7,1.9000000000000001,33.900000000000006,-9.4,-3.9
1698923889714.0,16,1.4000000000000001,-4.0,-0.4,0.6000000000000001,5.1000000000000005,1.8,13.6,-5.6,-6.000000000000001
1698923889730.0,16,1.4000000000000001,-3.1,-0.8,0.6000000000000001,6.0,1.3,-14.0,4.800000000000001,-6.3
1698923889746.0,16,1.4000000000000001,-2.6,-1.0,0.6000000000000001,6.5,1.2000000000000002,-24.8,10.0,-6.3
1698923889763.0,16,1.3,-1.8,-1.6,0.5,7.300000000000001,0.7000000000000001,-35.9,20.8,-7.6
1698923889780.0,16,1.5,-1.3,-2.3000000000000003,0.6000000000000001,7.7,0.1,-40.3,29.900000000000006,-10.700000000000001
1698923889796.0,16,1.4000000000000001,-1.0,-2.5,0.5,7.9,0.0,-41.300000000000004,31.8,-10.8
1698923889813.0,16,0.8,0.1,-2.4000000000000004,-0.2,9.0,0.1,-39.50000000000001,26.700000000000003,-0.9
1698923889830.0,16,-0.1,1.9000000000000001,-1.9000000000000001,-1.0,10.8,0.7000000000000001,-24.3,6.3,16.3
1698923889846.0,16,-0.6000000000000001,2.6,-2.0,-1.5,11.5,0.6000000000000001,-13.200000000000001,-9.4,23.3
1698923889863.0,16,-2.1,3.2,-1.7000000000000002,-2.9000000000000004,12.200000000000001,1.0,4.6000000000000005,-25.400000000000002,26.700000000000003
1698923889880.0,16,-2.1,4.0,-1.9000000000000001,-2.8000000000000003,13.0,0.6000000000000001,18.2,-26.3,16.2
1698923889897.0,16,-1.1,4.4,-2.4000000000000004,-1.8,13.4,0.1,20.5,-36.3,4.9
1698923889913.0,16,0.30000000000000004,4.1000000000000005,-2.6,-0.4,13.200000000000001,-0.2,5.1,-38.2,-23.2
1698923889930.0,16,0.8,5.7,1.2000000000000002,0.1,14.8,3.7,-1.0,1.7,-20.3
1698923889947.0,16,1.8,6.4,1.3,1.0,15.5,3.7,18.0,10.700000000000001,-8.3
1698923889963.0,16,-0.8,3.9000000000000004,7.1000000000000005,-1.6,13.200000000000001,9.4,71.10000000000001,5.8,28.700000000000003
1698923889980.0,16,-2.0,5.2,6.5,-2.5,14.600000000000001,8.3,182.0,-13.0,72.4
1698923889997.0,16,-2.7,4.1000000000000005,6.7,-3.2,13.600000000000001,8.200000000000001,203.00000000000003,-42.5,73.50000000000001
1698923890013.0,16,0.4,-2.2,5.6000000000000005,0.2,7.300000000000001,6.7,124.90000000000002,-53.9,23.700000000000003
1698923890030.0,16,1.4000000000000001,-1.2000000000000002,4.3,1.2000000000000002,8.4,5.6000000000000005,-59.60000000000001,-62.300000000000004,-14.200000000000001
1698923890047.0,16,1.9000000000000001,0.5,3.4000000000000004,1.6,10.0,4.800000000000001,-100.30000000000001,-10.5,-9.1
1698923890063.0,16,2.2,2.9000000000000004,2.5,2.0,12.4,4.2,-94.9,13.200000000000001,2.1999999999999997
1698923890080.0,16,1.2000000000000002,2.9000000000000004,0.9,1.0,12.4,2.9000000000000004,-62.8,-16.400000000000002,10.2
1698923890096.0,16,0.30000000000000004,1.5,0.4,0.1,10.9,2.5,-50.0,-14.700000000000001,16.2
1698923890113.0,16,-0.30000000000000004,-0.9,-0.30000000000000004,-0.4,8.5,1.9000000000000001,-33.400000000000006,-0.2,28.6
1698923890130.0,16,-0.6000000000000001,-2.0,-0.4,-0.7000000000000001,7.4,1.9000000000000001,-21.5,12.100000000000001,24.3
1698923890146.0,16,-0.8,-2.4000000000000004,-0.5,-0.8,7.0,1.8,-16.0,15.100000000000001,18.400000000000002
1698923890165.0,16,-1.1,-3.2,-0.9,-1.1,6.2,1.4000000000000001,-8.0,12.200000000000001,6.5
1698923890180.0,16,-1.4000000000000001,-3.9000000000000004,-1.0,-1.4000000000000001,5.4,1.3,-5.1,3.3000000000000003,1.0999999999999999
1698923890197.0,16,-1.5,-4.3,-1.0,-1.5,5.0,1.3,-3.9,-1.9,1.0
1698923890214.0,16,-1.6,-4.800000000000001,-1.2000000000000002,-1.6,4.5,1.2000000000000002,-2.6,-11.000000000000002,3.6
1698923890230.0,16,-1.6,-4.6000000000000005,-1.2000000000000002,-1.6,4.6000000000000005,1.1,-1.9,-11.1,6.8
1698923890247.0,16,-1.7000000000000002,-4.3,-1.4000000000000001,-1.7000000000000002,4.9,1.0,-1.9,-8.799999999999999,6.9
1698923890264.0,16,-1.4000000000000001,-3.4000000000000004,-1.7000000000000002,-1.4000000000000001,5.800000000000001,0.6000000000000001,-2.4000000000000004,-7.500000000000001,2.5
1698923890280.0,16,-0.7000000000000001,-2.3000000000000003,-2.0,-0.7000000000000001,6.800000000000001,0.30000000000000004,-3.7000000000000006,-7.500000000000001,-10.5
1698923890296.0,16,-0.30000000000000004,-2.4000000000000004,-2.2,-0.30000000000000004,6.800000000000001,0.1,-7.400000000000001,-22.5,-17.5
1698923890313.0,16,-0.1,-2.3000000000000003,-1.9000000000000001,-0.2,6.800000000000001,0.4,-9.0,-30.200000000000003,-14.4
1698923890329.0,16,0.2,-1.7000000000000002,-1.4000000000000001,0.2,7.4,0.9,-5.8,-29.800000000000004,-3.7000000000000006
1698923890346.0,16,0.1,-0.7000000000000001,-1.2000000000000002,0.1,8.4,1.1,3.2,-20.1,7.8
1698923890364.0,16,0.2,-0.1,-1.0,0.2,9.0,1.3,8.9,-10.1,11.6
1698923890380.0,16,0.6000000000000001,1.4000000000000001,-1.4000000000000001,0.7000000000000001,10.5,0.8,19.700000000000003,7.400000000000001,10.3
1698923890397.0,16,1.2000000000000002,2.8000000000000003,-1.4000000000000001,1.2000000000000002,12.0,0.7000000000000001,22.4,9.9,1.3
1698923890414.0,16,1.1,3.7,-1.5,1.2000000000000002,12.8,0.6000000000000001,21.6,12.5,-2.9
1698923890430.0,16,0.5,4.4,-1.6,0.6000000000000001,13.600000000000001,0.4,13.3,20.7,0.0
1698923890446.0,16,0.30000000000000004,4.2,-2.1,0.4,13.4,-0.1,7.0,23.8,5.500000000000001
1698923890465.0,16,-0.9,3.0,-3.7,-0.8,12.3,-1.7000000000000002,-19.9,31.2,12.6
1698923890480.0,16,-1.7000000000000002,4.1000000000000005,-1.2000000000000002,-1.6,13.4,1.0,-47.0,26.200000000000003,17.5
1698923890496.0,16,-1.4000000000000001,5.4,1.7000000000000002,-0.9,15.4,6.6000000000000005,-8.200000000000001,29.800000000000004,6.3
1698923890513.0,16,-0.8,5.7,4.9,-0.7000000000000001,15.0,7.1000000000000005,38.2,52.2,-5.6
1698923890529.0,16,0.30000000000000004,2.6,5.1000000000000005,0.2,12.0,7.0,128.9,47.300000000000004,-28.400000000000002
1698923890546.0,16,1.2000000000000002,-0.7000000000000001,6.5,1.0,8.9,7.9,189.60000000000002,34.400000000000006,-46.1
1698923890564.0,16,1.3,-2.4000000000000004,5.800000000000001,1.0,7.1000000000000005,6.9,173.8,11.4,-51.7
1698923890580.0,16,-1.1,-0.6000000000000001,1.9000000000000001,-1.5,8.9,3.0,-29.000000000000004,-35.9,-39.699999999999996
1698923890596.0,16,-2.9000000000000004,4.1000000000000005,1.4000000000000001,-3.5,13.600000000000001,2.9000000000000004,-162.3,27.3,-30.799999999999997
1698923890613.0,16,-3.2,5.6000000000000005,4.4,-3.8000000000000003,15.100000000000001,6.2,-167.6,16.400000000000002,-30.000000000000004
1698923890630.0,16,-1.4000000000000001,3.5,0.7000000000000001,-2.2,12.9,2.9000000000000004,-100.8,12.9,-19.9
1698923890646.0,16,0.4,-0.6000000000000001,-1.7000000000000002,-0.4,8.8,0.7000000000000001,-74.10000000000001,-27.400000000000002,-13.9
1698923890663.0,16,0.8,-1.6,-1.0,0.0,7.7,1.6,-64.10000000000001,-29.800000000000004,-14.100000000000001
1698923890679.0,16,1.2000000000000002,-2.6,-1.8,0.30000000000000004,6.7,0.9,-38.1,-14.100000000000001,-16.900000000000002
1698923890696.0,16,1.2000000000000002,-3.0,-1.7000000000000002,0.30000000000000004,5.800000000000001,1.4000000000000001,-27.400000000000002,-14.4,-18.8
1698923890713.0,16,1.2000000000000002,-3.8000000000000003,-1.1,0.30000000000000004,5.4,1.6,11.4,-12.5,-16.8
1698923890729.0,16,1.3,-3.9000000000000004,-1.4000000000000001,0.4,5.2,1.3,23.3,-9.3,-13.4
1698923890746.0,16,1.3,-4.4,-1.3,0.4,4.800000000000001,1.2000000000000002,37.7,-8.600000000000001,-7.0
1698923890764.0,16,1.2000000000000002,-4.6000000000000005,-1.1,0.30000000000000004,4.6000000000000005,1.4000000000000001,41.9,-11.1,-4.300000000000001
1698923890780.0,16,1.0,-4.800000000000001,-0.7000000000000001,0.1,4.3,1.6,45.1,-18.7,-1.0
1698923890796.0,16,1.1,-4.7,-0.6000000000000001,0.30000000000000004,4.4,1.6,36.3,-21.900000000000002,-1.9
1698923890813.0,16,1.3,-3.9000000000000004,-1.0,0.4,5.2,1.2000000000000002,12.000000000000002,-14.800000000000002,-4.0
1698923890830.0,16,1.2000000000000002,-3.2,-1.0,0.4,5.9,1.2000000000000002,-3.0000000000000004,-6.7,-3.2
1698923890846.0,16,1.4000000000000001,-2.1,-1.2000000000000002,0.6000000000000001,7.0,1.0,-25.2,11.1,-2.6
1698923890863.0,16,1.6,-1.6,-1.6,0.7000000000000001,7.4,0.7000000000000001,-31.2,14.900000000000002,-4.800000000000001
1698923890880.0,16,1.6,-0.6000000000000001,-2.2,0.8,8.4,0.2,-38.300000000000004,6.8,-8.4
1698923890896.0,16,0.8,0.7000000000000001,-1.9000000000000001,0.0,9.700000000000001,0.6000000000000001,-39.1,-7.2,-2.1
1698923890913.0,16,-0.6000000000000001,2.2,-1.9000000000000001,-1.4000000000000001,11.100000000000001,0.7000000000000001,-29.800000000000004,-13.700000000000001,14.700000000000001
1698923890930.0,16,-0.8,2.5,-2.1,-1.6,11.4,0.5,-23.900000000000002,-19.200000000000003,20.7
1698923890947.0,16,-1.4000000000000001,2.7,-2.0,-2.1,11.700000000000001,0.6000000000000001,-14.200000000000001,-24.6,17.1
1698923890964.0,16,-1.3,4.4,-2.3000000000000003,-2.0,13.4,0.30000000000000004,-1.5000000000000002,-27.6,12.5
1698923890981.0,16,-0.5,5.1000000000000005,-2.8000000000000003,-1.2000000000000002,14.200000000000001,-0.2,-0.7,-30.9,9.4
1698923890996.0,16,0.4,6.1000000000000005,-1.2000000000000002,-0.2,15.200000000000001,1.5,-3.5,-27.2,-2.5
1698923891013.0,16,1.0,7.0,-0.4,0.4,16.2,2.2,17.7,-10.8,-6.5
1698923891030.0,16,0.4,8.0,2.6,-0.2,17.2,5.1000000000000005,40.5,-9.700000000000001,-1.5000000000000002
1698923891048.0,16,-1.7000000000000002,6.0,7.1000000000000005,-2.2,15.4,9.3,132.5,-9.3,34.50000000000001
1698923891063.0,16,-2.0,4.800000000000001,5.7,-2.5,14.3,7.7,183.5,-12.9,50.300000000000004
1698923891080.0,16,-0.4,-0.8,5.1000000000000005,-0.7000000000000001,8.8,6.5,197.0,-34.300000000000004,39.2
1698923891096.0,16,2.0,-4.7,4.5,1.7000000000000002,4.800000000000001,5.5,59.20000000000001,-61.4,-11.9
1698923891113.0,16,3.5,-0.6000000000000001,3.5,3.2,8.9,4.800000000000001,-99.8,6.1000000000000005,-10.5
1698923891130.0,16,3.2,1.1,2.9000000000000004,2.9000000000000004,10.600000000000001,4.4,-113.0,36.9,-6.7
1698923891146.0,16,2.0,3.8000000000000003,1.8,1.7000000000000002,13.200000000000001,3.6,-90.30000000000001,16.2,7.8
1698923891164.0,16,1.0,3.2,1.1,0.7000000000000001,12.700000000000001,3.1,-57.800000000000004,7.0,25.400000000000002
1698923891180.0,16,0.1,0.4,-0.30000000000000004,0.0,9.8,1.9000000000000001,-45.800000000000004,11.1,31.0
1698923891196.0,16,-0.1,-1.3,-0.5,-0.2,8.1,1.8,-29.500000000000004,23.700000000000003,28.6
1698923891213.0,16,-0.7000000000000001,-1.9000000000000001,-0.6000000000000001,-0.7000000000000001,7.5,1.8,-15.100000000000001,36.5,18.400000000000002
1698923891230.0,16,-0.9,-2.1,-0.6000000000000001,-0.9,7.300000000000001,1.7000000000000002,-8.0,35.199999999999996,14.500000000000002
1698923891247.0,16,-1.2000000000000002,-3.0,-0.7000000000000001,-1.2000000000000002,6.300000000000001,1.6,2.1,26.9,9.700000000000001
1698923891263.0,16,-1.2000000000000002,-4.1000000000000005,-1.0,-1.2000000000000002,5.2,1.3,4.6000000000000005,26.8,7.6
1698923891280.0,16,-1.2000000000000002,-4.5,-1.2000000000000002,-1.2000000000000002,4.800000000000001,1.1,2.6,27.1,6.2
1698923891296.0,16,-1.3,-4.9,-1.3,-1.3,4.3,1.0,-3.6,27.7,4.1000000000000005
1698923891313.0,16,-1.5,-4.6000000000000005,-1.4000000000000001,-1.6,4.6000000000000005,0.9,-7.9,31.2,4.7
1698923891330.0,16,-1.6,-4.2,-1.4000000000000001,-1.7000000000000002,5.0,0.9,-9.4,29.900000000000006,4.5
1698923891346.0,16,-1.6,-3.0,-1.6,-1.7000000000000002,6.1000000000000005,0.7000000000000001,-9.1,22.900000000000002,0.7
1698923891363.0,16,-1.3,-2.3000000000000003,-2.1,-1.4000000000000001,6.9,0.30000000000000004,-10.0,8.4,-4.2
1698923891379.0,16,-0.9,-2.1,-1.9000000000000001,-0.7000000000000001,7.1000000000000005,0.6000000000000001,-10.9,0.9,-3.2
1698923891396.0,16,-0.30000000000000004,-1.8,-1.9000000000000001,-0.5,7.300000000000001,0.5,-7.300000000000001,-6.000000000000001,6.000000000000001
1698923891413.0,16,-0.2,-1.2000000000000002,-2.0,-0.30000000000000004,7.9,0.4,-5.4,-2.4000000000000004,16.5
1698923891429.0,16,-0.30000000000000004,-0.6000000000000001,-1.9000000000000001,-0.30000000000000004,8.4,0.5,-2.1999999999999997,2.1999999999999997,21.700000000000003
1698923891446.0,16,-0.30000000000000004,1.0,-1.2000000000000002,-0.30000000000000004,10.100000000000001,1.2000000000000002,3.0000000000000004,1.9,20.900000000000002
1698923891463.0,16,-0.2,2.8000000000000003,-1.3,-0.1,11.9,1.0,17.7,-1.0999999999999999,14.600000000000001
1698923891479.0,16,-0.5,3.8000000000000003,-1.3,-0.4,13.0,0.9,23.6,-0.4,7.400000000000001
1698923891496.0,16,-0.2,4.0,-1.6,-0.1,13.200000000000001,0.6000000000000001,22.8,5.500000000000001,5.4
1698923891513.0,16,0.4,3.1,-3.4000000000000004,0.5,12.3,-1.3,5.300000000000001,22.000000000000004,-3.4
1698923891529.0,16,0.1,2.7,-3.1,0.30000000000000004,11.8,-2.0,-32.5,28.3,-7.8
1698923891546.0,16,-0.1,3.7,-0.7000000000000001,-0.1,12.9,1.5,-39.699999999999996,25.400000000000002,-8.4
1698923891563.0,16,-0.8,5.9,4.2,-0.8,15.200000000000001,6.5,8.1,39.00000000000001,-7.6
1698923891579.0,16,-0.8,5.2,5.2,-0.9,14.600000000000001,7.300000000000001,101.30000000000001,47.900000000000006,-8.4
1698923891596.0,16,-0.4,3.9000000000000004,6.1000000000000005,-0.6000000000000001,13.3,7.9,144.9,42.5,-16.2
1698923891613.0,16,1.3,-0.5,4.7,1.0,9.0,6.0,171.3,20.0,-38.800000000000004
1698923891630.0,16,0.30000000000000004,-2.7,4.1000000000000005,-0.2,6.800000000000001,5.300000000000001,15.6,-57.699999999999996,-45.0
1698923891648.0,16,-1.4000000000000001,0.4,2.2,-1.9000000000000001,9.9,3.5,-87.5,-19.3,-34.400000000000006
1698923891663.0,16,-3.0,5.1000000000000005,3.9000000000000004,-3.6,14.5,5.7,-160.10000000000002,8.0,-25.400000000000002
1698923891679.0,16,-1.7000000000000002,5.2,2.4000000000000004,-2.4000000000000004,14.600000000000001,4.6000000000000005,-113.80000000000001,4.2,-26.400000000000002
1698923891696.0,16,-1.0,2.7,-0.5,-1.7000000000000002,12.100000000000001,1.9000000000000001,-87.60000000000001,-5.7,-28.700000000000003
1698923891713.0,16,0.2,-1.3,-0.8,-0.6000000000000001,8.0,1.8,-59.7,-37.1,-26.3
1698923891729.0,16,0.7000000000000001,-2.1,-1.1,0.2,6.800000000000001,1.0,-31.7,-28.200000000000003,-26.3
1698923891747.0,16,1.1,-2.7,-1.9000000000000001,0.2,6.5,0.9,-22.1,-29.1,-27.400000000000002
1698923891763.0,16,1.1,-3.3000000000000003,-1.0,0.1,5.9,1.8,-0.5,-32.2,-26.200000000000003
1698923891779.0,16,1.1,-3.7,-0.8,0.2,5.5,1.9000000000000001,24.400000000000002,-23.8,-20.6
1698923891797.0,16,1.2000000000000002,-3.8000000000000003,-0.8,0.2,5.4,1.9000000000000001,33.2,-19.6,-18.0
1698923891813.0,16,1.3,-4.0,-0.5,0.30000000000000004,5.2,2.0,40.4,-16.8,-14.4
1698923891829.0,16,1.6,-4.1000000000000005,-0.1,0.4,5.1000000000000005,2.3000000000000003,36.5,-21.3,-14.700000000000001
1698923891847.0,16,1.7000000000000002,-4.2,-0.1,0.7000000000000001,4.9,2.3000000000000003,29.900000000000006,-23.1,-14.100000000000001
1698923891863.0,16,1.9000000000000001,-4.1000000000000005,-0.7000000000000001,0.8,5.0,1.6,4.0,-19.8,-9.200000000000001
1698923891880.0,16,2.0,-3.9000000000000004,-0.9,1.2000000000000002,5.6000000000000005,1.6,-26.9,-9.700000000000001,-0.30000000000000004
1698923891898.0,16,2.2,-2.9000000000000004,-0.8,1.2000000000000002,6.1000000000000005,1.7000000000000002,-34.800000000000004,-3.0000000000000004,3.2
1698923891913.0,16,2.1,-2.0,-1.3,1.2000000000000002,6.9,1.3,-36.9,9.1,5.6
1698923891930.0,16,2.1,-1.6,-2.2,1.1,7.300000000000001,0.4,-32.4,19.9,2.3000000000000003
1698923891946.0,16,2.0,-1.4000000000000001,-2.4000000000000004,1.0,7.5,0.30000000000000004,-30.200000000000003,23.700000000000003,0.8
1698923891964.0,16,1.6,-0.4,-2.6,0.6000000000000001,8.5,0.2,-23.700000000000003,28.6,3.6
1698923891980.0,16,0.9,1.3,-2.3000000000000003,-0.1,10.200000000000001,0.5,-10.9,10.5,11.1
1698923891998.0,16,0.30000000000000004,2.1,-2.2,-0.6000000000000001,11.0,0.6000000000000001,-1.2000000000000002,-5.2,15.100000000000001
1698923892013.0,16,-1.3,3.1,-1.7000000000000002,-2.1,12.100000000000001,1.0,14.0,-13.9,19.9
1698923892030.0,16,-2.3000000000000003,3.6,-1.3,-3.0,12.600000000000001,1.3,27.400000000000002,0.9,24.6
1698923892047.0,16,-1.3,3.7,-2.0,-2.0,12.8,0.5,32.800000000000004,1.0999999999999999,22.4
1698923892063.0,16,-0.30000000000000004,3.9000000000000004,-2.8000000000000003,-1.1,13.0,-0.30000000000000004,22.8,-9.8,-3.4
1698923892080.0,16,0.1,5.7,0.6000000000000001,-0.7000000000000001,14.9,3.0,18.900000000000002,-13.9,-9.700000000000001
1698923892097.0,16,0.4,6.300000000000001,2.5,-0.30000000000000004,15.5,4.800000000000001,34.400000000000006,-8.200000000000001,-3.6
1698923892113.0,16,-2.2,5.6000000000000005,6.6000000000000005,-2.9000000000000004,14.9,8.700000000000001,99.6,-5.1,28.200000000000003
1698923892130.0,16,-2.9000000000000004,3.2,5.7,-3.4000000000000004,12.700000000000001,7.4,172.4,-21.8,64.10000000000001
1698923892149.0,16,0.7000000000000001,-2.0,3.9000000000000004,0.4,7.6000000000000005,5.1000000000000005,124.2,-33.900000000000006,29.300000000000004
1698923892163.0,16,1.7000000000000002,-3.4000000000000004,4.3,1.3,6.1000000000000005,5.5,58.5,-47.1,-0.4
1698923892180.0,16,3.0,-0.1,3.4000000000000004,2.7,9.4,4.7,-65.2,-18.7,-13.6
1698923892197.0,16,2.6,1.4000000000000001,2.4000000000000004,2.2,10.9,3.9000000000000004,-84.60000000000001,7.6,-6.6000000000000005
1698923892213.0,16,0.9,3.7,2.4000000000000004,0.6000000000000001,13.200000000000001,4.2,-76.0,10.700000000000001,21.700000000000003
1698923892230.0,16,0.1,3.1,1.2000000000000002,-0.1,12.600000000000001,3.1,-46.800000000000004,-10.700000000000001,36.800000000000004
1698923892247.0,16,-0.6000000000000001,0.8,0.4,-0.7000000000000001,10.3,2.4000000000000004,-24.3,-12.4,37.900000000000006
1698923892263.0,16,-0.8,0.0,0.2,-0.8,9.5,2.3000000000000003,-18.7,-2.8,34.900000000000006
1698923892279.0,16,-0.9,-1.2000000000000002,0.1,-0.9,8.200000000000001,2.2,-11.5,14.700000000000001,22.1
1698923892297.0,16,-1.2000000000000002,-2.0,-0.1,-1.2000000000000002,7.4,2.0,-6.7,13.700000000000001,9.4
1698923892313.0,16,-1.3,-2.3000000000000003,-0.1,-1.2000000000000002,7.1000000000000005,2.1,-5.500000000000001,9.200000000000001,7.1000000000000005
1698923892329.0,16,-1.3,-2.8000000000000003,-0.2,-1.2000000000000002,6.5,2.0,-5.1,4.9,5.7
1698923892346.0,16,-1.1,-3.5,-0.7000000000000001,-1.1,5.9,1.6,-10.4,3.9,4.7
1698923892363.0,16,-1.0,-3.8000000000000003,-0.9,-1.0,5.5,1.4000000000000001,-14.600000000000001,3.3000000000000003,3.2
1698923892379.0,16,-1.0,-4.1000000000000005,-1.3,-0.9,5.2,1.0,-23.1,2.3000000000000003,-1.0999999999999999
1698923892396.0,16,-0.9,-4.0,-1.5,-0.8,5.2,0.9,-28.200000000000003,-1.4,-5.9
1698923892413.0,16,-0.9,-3.9000000000000004,-1.5,-0.8,5.300000000000001,0.9,-28.700000000000003,-3.8,-8.4
1698923892429.0,16,-1.0,-3.3000000000000003,-1.8,-1.0,5.800000000000001,0.7000000000000001,-25.1,-2.8,-10.2
1698923892446.0,16,-1.0,-2.8000000000000003,-2.0,-1.0,6.300000000000001,0.5,-19.500000000000004,-7.6,-4.7
1698923892463.0,16,-1.1,-2.6,-1.9000000000000001,-1.1,6.5,0.6000000000000001,-14.900000000000002,-13.4,0.5
1698923892479.0,16,-1.2000000000000002,-2.1,-1.9000000000000001,-1.2000000000000002,6.9,0.7000000000000001,-3.4,-27.3,12.100000000000001
1698923892496.0,16,-1.0,-1.1,-1.6,-0.9,8.0,1.0,9.0,-34.6,16.8
1698923892514.0,16,-0.8,-0.2,-1.4000000000000001,-0.6000000000000001,8.9,1.1,15.9,-34.800000000000004,13.6
1698923892530.0,16,0.1,1.7000000000000002,-1.3,0.2,10.8,1.1,28.500000000000004,-27.6,-1.4
1698923892546.0,16,0.30000000000000004,3.1,-1.3,0.5,12.200000000000001,0.9,35.7,-10.4,-14.200000000000001
1698923892564.0,16,0.5,3.6,-1.5,0.6000000000000001,12.8,0.7000000000000001,35.4,-0.2,-14.200000000000001
1698923892580.0,16,1.1,3.7,-1.7000000000000002,1.2000000000000002,12.9,0.4,25.400000000000002,14.100000000000001,-8.1
1698923892596.0,16,0.8,2.6,-3.1,0.8,11.8,-1.0,4.9,13.3,1.0
1698923892613.0,16,0.2,2.0,-3.8000000000000003,0.30000000000000004,11.200000000000001,-1.7000000000000002,-13.4,14.900000000000002,6.5
1698923892630.0,16,-1.3,2.5,-1.9000000000000001,-1.2000000000000002,11.8,0.30000000000000004,-46.7,15.2,18.7
1698923892647.0,16,-1.6,4.7,2.1,-1.5,14.0,4.4,-25.400000000000002,28.500000000000004,18.400000000000002
1698923892663.0,16,-1.7000000000000002,5.0,2.8000000000000003,-1.5,14.200000000000001,5.1000000000000005,43.800000000000004,60.8,1.0
1698923892679.0,16,-0.5,3.7,4.7,-0.5,13.0,6.800000000000001,87.9,52.50000000000001,-11.700000000000001
1698923892696.0,16,1.1,1.5,5.300000000000001,1.1,11.0,7.0,181.1,37.900000000000006,-43.6
1698923892713.0,16,1.5,-0.1,4.5,1.3,9.4,5.9,193.3,22.900000000000002,-55.4
1698923892730.0,16,0.6000000000000001,-2.5,4.9,0.30000000000000004,7.1000000000000005,5.9,72.30000000000001,-38.400000000000006,-54.9
1698923892746.0,16,-1.6,1.7000000000000002,1.5,-2.1,11.200000000000001,2.8000000000000003,-124.8,22.7,-30.7
1698923892763.0,16,-2.5,3.6,3.9000000000000004,-3.0,13.100000000000001,5.5,-140.6,29.1,-21.3
1698923892779.0,16,-2.1,4.5,1.3,-2.7,13.9,3.2,-113.1,19.1,-11.1
1698923892796.0,16,-0.5,1.4000000000000001,-0.1,-1.1,10.8,2.2,-82.4,-15.5,-0.6000000000000001
1698923892813.0,16,0.0,-0.1,-0.1,-0.6000000000000001,9.3,2.3000000000000003,-62.4,-18.900000000000002,-3.2
1698923892829.0,16,0.9,-1.3,-1.1,0.2,8.0,1.4000000000000001,-26.1,-16.6,-13.0
1698923892847.0,16,1.0,-2.2,-0.7000000000000001,0.30000000000000004,7.1000000000000005,1.8,1.7,-7.0,-20.7
1698923892864.0,16,1.0,-2.6,-0.6000000000000001,0.2,6.7,1.8,15.299999999999999,-0.30000000000000004,-20.8
1698923892880.0,16,1.2000000000000002,-3.1,-0.5,0.4,6.2,1.8,35.0,5.2,-14.100000000000001
1698923892896.0,16,1.3,-3.5,-0.4,0.6000000000000001,5.7,1.9000000000000001,39.400000000000006,5.300000000000001,-2.9
1698923892913.0,16,1.4000000000000001,-3.7,-0.30000000000000004,0.6000000000000001,5.6000000000000005,1.9000000000000001,34.800000000000004,3.8,1.9
1698923892930.0,16,1.2000000000000002,-4.1000000000000005,-0.2,0.5,5.2,1.9000000000000001,14.3,-2.4000000000000004,6.7
1698923892946.0,16,0.8,-4.2,-0.4,0.1,5.1000000000000005,1.7000000000000002,-13.4,-3.8,8.700000000000001
1698923892963.0,16,0.6000000000000001,-3.5,-0.9,0.0,5.7,1.3,-36.4,-0.8,8.4
1698923892979.0,16,0.6000000000000001,-3.0,-1.0,0.0,6.1000000000000005,1.3,-43.0,2.0,8.200000000000001
1698923892996.0,16,0.7000000000000001,-2.3000000000000003,-1.3,0.1,6.800000000000001,1.1,-43.900000000000006,13.6,6.6000000000000005
1698923893013.0,16,0.8,-1.7000000000000002,-1.9000000000000001,0.2,7.4,0.6000000000000001,-36.1,22.3,4.6000000000000005
1698923893029.0,16,0.8,-1.4000000000000001,-2.0,0.2,7.6000000000000005,0.5,-30.599999999999998,25.400000000000002,3.0000000000000004
1698923893046.0,16,0.8,-1.0,-2.3000000000000003,0.1,8.0,0.30000000000000004,-16.900000000000002,26.0,1.0
1698923893063.0,16,0.6000000000000001,-0.6000000000000001,-2.4000000000000004,0.0,8.4,0.2,-9.1,21.5,1.9
1698923893080.0,16,0.2,0.7000000000000001,-2.5,-0.4,9.700000000000001,0.1,3.9,1.8,9.3
1698923893096.0,16,-1.0,2.3000000000000003,-1.8,-1.6,11.3,0.7000000000000001,21.3,-15.299999999999999,18.1
1698923893113.0,16,-2.5,3.3000000000000003,-1.2000000000000002,-2.4000000000000004,11.9,0.7000000000000001,35.0,-20.7,21.8
1698923893130.0,16,-2.4000000000000004,3.8000000000000003,-1.3,-2.9000000000000004,12.9,1.0,39.300000000000004,-20.8,19.8
1698923893147.0,16,-0.9,4.0,-2.3000000000000003,-1.4000000000000001,13.200000000000001,-0.1,30.200000000000003,-30.7,0.6000000000000001
1698923893163.0,16,-0.2,3.2,-2.2,-0.7000000000000001,12.4,-0.1,15.5,-32.4,-12.4
1698923893180.0,16,1.2000000000000002,2.1,-2.7,0.7000000000000001,11.4,-0.6000000000000001,-19.500000000000004,-15.7,-26.3
1698923893196.0,16,1.5,3.3000000000000003,-0.30000000000000004,0.9,12.5,2.0,-44.4,15.5,-29.400000000000002
1698923893213.0,16,2.0,3.6,0.6000000000000001,1.3,12.8,3.0,-16.5,25.0,-17.8
1698923893230.0,16,1.1,2.4000000000000004,3.8000000000000003,0.4,11.700000000000001,6.2,10.9,28.0,-5.1
1698923893247.0,16,-0.30000000000000004,4.800000000000001,5.9,-0.9,14.100000000000001,8.1,125.6,10.0,46.900000000000006
1698923893264.0,16,-4.2,2.9000000000000004,5.5,-4.5,12.4,7.0,210.20000000000002,-65.5,88.4
1698923893280.0,16,-2.9000000000000004,-0.8,5.5,-3.1,8.700000000000001,6.7,190.4,-49.2,85.7
1698923893296.0,16,-0.4,-4.4,3.1,-0.4,5.2,4.2,21.200000000000003,-72.4,16.2
1698923893313.0,16,2.2,-0.6000000000000001,3.7,2.1,8.9,5.1000000000000005,-118.9,-3.8,-24.1
1698923893330.0,16,2.8000000000000003,1.9000000000000001,3.1,2.7,11.3,4.7,-120.7,19.700000000000003,-29.000000000000004
1698923893347.0,16,2.3000000000000003,4.6000000000000005,1.3,2.1,14.0,3.2,-91.7,0.9,-23.3
1698923893363.0,16,0.8,1.3,-0.5,0.6000000000000001,10.700000000000001,1.7000000000000002,-54.3,-5.300000000000001,12.000000000000002
1698923893380.0,16,0.8,-0.6000000000000001,-0.9,0.6000000000000001,8.9,1.3,-40.8,-8.5,28.500000000000004
1698923893396.0,16,0.2,-2.0,-1.2000000000000002,0.2,7.4,1.1,-20.1,-4.1000000000000005,38.400000000000006
1698923893413.0,16,-0.7000000000000001,-2.2,-0.6000000000000001,-0.6000000000000001,7.1000000000000005,1.7000000000000002,-0.4,6.3,27.2
1698923893430.0,16,-1.2000000000000002,-2.2,-0.6000000000000001,-1.1,7.1000000000000005,1.7000000000000002,10.4,8.4,19.500000000000004
1698923893446.0,16,-2.1,-2.5,-0.7000000000000001,-1.9000000000000001,6.800000000000001,1.5,26.200000000000003,-0.6000000000000001,7.6
1698923893463.0,16,-2.0,-3.1,-0.9,-1.9000000000000001,6.2,1.2000000000000002,27.7,-2.7,0.5
1698923893480.0,16,-1.8,-3.3000000000000003,-0.9,-1.7000000000000002,6.1000000000000005,1.2000000000000002,23.0,-0.2,-4.300000000000001
1698923893496.0,16,-1.1,-3.0,-0.8,-1.0,6.300000000000001,1.2000000000000002,9.3,4.7,-15.6
1698923893513.0,16,-0.8,-2.8000000000000003,-0.9,-0.5,6.800000000000001,0.9,-7.400000000000001,5.6,-23.6
1698923893530.0,16,-0.1,-2.3000000000000003,-1.6,-0.2,6.9,0.5,-24.3,-1.3,-22.7
1698923893546.0,16,0.0,-2.4000000000000004,-1.7000000000000002,-0.1,6.800000000000001,0.4,-31.0,-7.400000000000001,-18.900000000000002
1698923893563.0,16,-0.1,-2.7,-1.7000000000000002,-0.2,6.5,0.5,-36.4,-16.1,-8.3
1698923893579.0,16,-0.2,-2.6,-1.9000000000000001,-0.30000000000000004,6.5,0.4,-34.50000000000001,-17.8,-3.0000000000000004
1698923893596.0,16,-0.30000000000000004,-2.4000000000000004,-1.9000000000000001,-0.4,6.7,0.4,-28.0,-17.0,7.500000000000001
1698923893613.0,16,-0.4,-1.5,-1.7000000000000002,-0.5,7.6000000000000005,0.7000000000000001,-19.200000000000003,-12.100000000000001,16.700000000000003
1698923893629.0,16,-0.2,0.0,-1.3,-0.2,9.1,1.1,-6.000000000000001,-5.1,13.8
1698923893646.0,16,-0.1,0.7000000000000001,-1.2000000000000002,-0.1,9.8,1.2000000000000002,2.8,-0.5,8.3
1698923893663.0,16,0.4,1.7000000000000002,-1.0,0.4,10.8,1.4000000000000001,22.900000000000002,7.699999999999999,-3.6
1698923893680.0,16,0.8,2.7,-1.7000000000000002,0.7000000000000001,11.8,0.5,36.1,13.100000000000001,-7.8
1698923893696.0,16,0.7000000000000001,3.0,-2.0,0.7000000000000001,12.200000000000001,0.2,35.199999999999996,15.100000000000001,-6.9
1698923893713.0,16,-0.2,3.2,-3.0,-0.30000000000000004,12.4,-0.9,18.0,24.1,2.1
1698923893729.0,16,-1.3,4.2,-1.7000000000000002,-1.3,13.4,0.30000000000000004,-10.700000000000001,20.1,16.400000000000002
1698923893746.0,16,-1.3,5.300000000000001,0.2,-1.4000000000000001,14.600000000000001,2.2,-12.700000000000001,14.700000000000001,19.6
1698923893762.0,16,-1.1,6.0,2.1,-1.1,15.3,4.1000000000000005,20.3,36.1,8.799999999999999
1698923893779.0,16,-0.4,4.2,3.2,-0.9,14.4,4.0,43.800000000000004,51.7,-3.3000000000000003
1698923893796.0,16,0.4,3.7,4.6000000000000005,0.30000000000000004,13.100000000000001,6.300000000000001,99.7,59.60000000000001,-29.000000000000004
1698923893812.0,16,2.1,0.6000000000000001,3.1,1.8,10.100000000000001,4.4,141.2,52.2,-47.800000000000004
1698923893830.0,16,0.9,-2.8000000000000003,3.2,0.4,6.7,4.2,83.50000000000001,1.0999999999999999,-39.9
1698923893846.0,16,-0.30000000000000004,-2.7,4.1000000000000005,-0.8,6.9,5.0,17.200000000000003,-25.900000000000002,-26.1
1698923893862.0,16,-3.5,2.1,3.3000000000000003,-4.1000000000000005,11.600000000000001,4.5,-89.9,10.700000000000001,-12.000000000000002
1698923893879.0,16,-3.0,4.5,2.1,-3.7,14.0,3.7,-112.1,18.2,-10.700000000000001
1698923893896.0,16,-1.8,4.3,1.7000000000000002,-2.5,13.8,3.5,-101.10000000000001,4.7,-14.0
1698923893912.0,16,0.0,1.1,-0.4,-0.7000000000000001,10.5,1.6,-63.300000000000004,-19.9,-18.900000000000002
1698923893930.0,16,1.1,-1.6,-0.9,0.4,7.7,1.3,-38.800000000000004,-19.9,-18.2
1698923893946.0,16,1.5,-2.3000000000000003,-1.2000000000000002,0.7000000000000001,7.0,1.0,-27.900000000000002,-15.5,-18.7
1698923893963.0,16,1.4000000000000001,-3.1,-1.3,0.6000000000000001,6.300000000000001,0.9,-9.600000000000001,-16.0,-18.1
1698923893979.0,16,1.0,-3.2,-0.8,0.2,6.1000000000000005,1.4000000000000001,10.4,-21.0,-12.3
1698923893996.0,16,1.0,-3.1,-0.7000000000000001,0.1,6.2,1.5,20.5,-20.7,-8.700000000000001
1698923894013.0,16,0.7000000000000001,-3.2,-0.6000000000000001,-0.2,6.1000000000000005,1.5,33.5,-17.1,-3.6
1698923894029.0,16,0.4,-3.5,-0.30000000000000004,-0.4,5.800000000000001,1.7000000000000002,33.400000000000006,-13.6,-4.2
1698923894046.0,16,0.5,-3.7,-0.1,-0.30000000000000004,5.6000000000000005,1.9000000000000001,29.600000000000005,-13.5,-6.000000000000001
1698923894063.0,16,0.9,-3.8000000000000003,0.0,0.0,5.4,1.9000000000000001,16.900000000000002,-17.1,-10.5
1698923894079.0,16,1.2000000000000002,-3.5,-0.5,0.4,5.800000000000001,1.4000000000000001,-5.1,-18.8,-10.4
1698923894096.0,16,1.4000000000000001,-3.0,-0.7000000000000001,0.5,6.2,1.3,-17.400000000000002,-16.1,-7.500000000000001
1698923894113.0,16,1.4000000000000001,-1.9000000000000001,-0.7000000000000001,0.6000000000000001,7.2,1.3,-33.1,-4.5,0.30000000000000004
1698923894129.0,16,1.6,-0.9,-1.4000000000000001,0.7000000000000001,8.3,0.7000000000000001,-37.2,7.8,3.2
1698923894147.0,16,1.6,-0.6000000000000001,-1.8,0.8,8.5,0.4,-37.800000000000004,12.700000000000001,1.6
1698923894163.0,16,1.5,-0.4,-2.0,0.6000000000000001,8.700000000000001,0.30000000000000004,-36.4,18.7,-1.4
1698923894179.0,16,1.1,0.2,-2.3000000000000003,0.2,9.200000000000001,0.0,-31.099999999999998,13.700000000000001,3.9
1698923894197.0,16,0.9,0.7000000000000001,-2.4000000000000004,0.1,9.700000000000001,0.0,-27.900000000000002,6.4,8.5
1698923894213.0,16,0.0,1.7000000000000002,-2.2,-0.7000000000000001,10.8,0.2,-19.1,-12.5,16.700000000000003
1698923894229.0,16,-2.0,3.1,-1.3,-2.6,12.200000000000001,1.2000000000000002,-5.0,-19.9,29.300000000000004
1698923894246.0,16,-2.3000000000000003,4.1000000000000005,-1.2000000000000002,-2.9000000000000004,13.200000000000001,1.2000000000000002,4.5,-17.5,35.4
1698923894263.0,16,-0.8,4.9,-2.1,-1.3,14.0,0.30000000000000004,16.2,-16.3,26.400000000000002
1698923894280.0,16,0.5,3.2,-2.7,0.0,12.4,-0.30000000000000004,5.7,-14.3,-17.400000000000002
1698923894296.0,16,0.6000000000000001,3.1,-1.0,0.0,12.3,1.4000000000000001,-1.8,-5.300000000000001,-29.600000000000005
1698923894313.0,16,2.1,3.3000000000000003,0.4,1.5,12.5,2.7,17.7,30.000000000000004,-25.900000000000002
1698923894330.0,16,0.9,2.4000000000000004,4.3,0.2,11.600000000000001,6.5,53.50000000000001,35.1,-4.0
1698923894346.0,16,-0.2,3.2,7.5,-0.9,12.5,9.600000000000001,100.2,35.9,19.500000000000004
1698923894363.0,16,-3.0,5.1000000000000005,5.6000000000000005,-3.5,14.600000000000001,7.2,199.5,-36.0,76.0
1698923894379.0,16,-1.7000000000000002,-0.7000000000000001,5.0,-1.9000000000000001,8.9,6.0,161.3,-37.0,80.7
1698923894397.0,16,0.2,-2.9000000000000004,3.1,0.0,6.7,4.0,79.2,-62.300000000000004,49.4
1698923894413.0,16,1.2000000000000002,-2.2,2.8000000000000003,1.2000000000000002,7.300000000000001,3.9000000000000004,-105.10000000000001,-29.400000000000002,-5.6
1698923894429.0,16,2.2,1.5,2.3000000000000003,2.0,11.0,3.8000000000000003,-118.60000000000001,28.500000000000004,-18.900000000000002
1698923894446.0,16,1.1,3.4000000000000004,1.1,1.0,12.8,2.9000000000000004,-97.60000000000001,-3.1,-10.8
1698923894463.0,16,0.2,2.7,0.4,0.1,12.200000000000001,2.4000000000000004,-81.5,1.7,0.8
1698923894480.0,16,0.30000000000000004,-0.1,-1.1,0.2,9.3,1.1,-55.800000000000004,3.9,20.900000000000002
1698923894496.0,16,0.2,-1.3,-0.8,0.1,8.0,1.4000000000000001,-33.1,13.3,20.7
1698923894513.0,16,0.0,-2.5,-0.8,0.0,6.9,1.5,-20.7,19.200000000000003,17.7
1698923894529.0,16,-0.6000000000000001,-2.9000000000000004,-0.9,-0.6000000000000001,6.4,1.4000000000000001,1.5000000000000002,21.1,10.3
1698923894547.0,16,-1.0,-3.1,-0.9,-1.0,6.2,1.4000000000000001,10.600000000000001,18.3,9.0
1698923894563.0,16,-1.7000000000000002,-3.4000000000000004,-0.7000000000000001,-1.6,5.9,1.5,24.000000000000004,9.4,10.8
1698923894579.0,16,-2.1,-3.4000000000000004,-0.5,-2.0,5.9,1.6,29.1,7.500000000000001,10.5
1698923894596.0,16,-1.9000000000000001,-2.9000000000000004,-0.6000000000000001,-2.1,6.1000000000000005,1.5,23.6,8.0,2.4000000000000004
1698923894613.0,16,-1.7000000000000002,-2.5,-0.7000000000000001,-1.7000000000000002,6.800000000000001,1.4000000000000001,16.900000000000002,6.4,-4.800000000000001
1698923894630.0,16,-0.7000000000000001,-1.4000000000000001,-1.0,-0.8,7.9,1.0,-1.8,-0.9,-20.0
1698923894646.0,16,-0.2,-1.5,-1.6,-0.30000000000000004,7.7,0.5,-23.400000000000002,-20.8,-19.700000000000003
1698923894663.0,16,0.0,-1.8,-1.5,-0.1,7.4,0.6000000000000001,-32.1,-23.0,-14.100000000000001
1698923894680.0,16,0.4,-2.0,-1.6,0.2,7.2,0.6000000000000001,-37.5,-13.5,-4.5
1698923894696.0,16,0.2,-1.7000000000000002,-1.9000000000000001,0.1,7.5,0.4,-35.4,-4.1000000000000005,2.1999999999999997
1698923894713.0,16,0.0,-1.3,-1.6,-0.1,7.9,0.8,-32.300000000000004,-0.5,5.2
1698923894730.0,16,-0.2,-0.1,-1.5,-0.30000000000000004,9.0,0.9,-15.399999999999999,4.1000000000000005,8.1
1698923894746.0,16,-0.30000000000000004,1.1,-1.4000000000000001,-0.4,10.200000000000001,1.0,3.3000000000000003,-4.7,6.8
1698923894763.0,16,-0.30000000000000004,1.8,-1.1,-0.30000000000000004,10.9,1.3,13.0,-2.4000000000000004,6.2
1698923894779.0,16,0.1,3.0,-1.2000000000000002,0.1,12.100000000000001,1.1,32.300000000000004,6.8,3.2
1698923894796.0,16,0.6000000000000001,3.0,-1.8,0.6000000000000001,12.200000000000001,0.4,39.1,6.7,-0.2
1698923894813.0,16,0.6000000000000001,2.5,-2.0,0.6000000000000001,11.8,0.1,34.50000000000001,9.700000000000001,0.0
1698923894829.0,16,0.0,2.2,-1.2000000000000002,-0.1,11.4,0.8,18.6,20.1,6.6000000000000005
1698923894846.0,16,-0.5,3.1,0.6000000000000001,-0.6000000000000001,12.5,2.6,18.0,26.200000000000003,7.6
1698923894863.0,16,-0.6000000000000001,3.7,1.5,-0.7000000000000001,13.0,3.4000000000000004,28.500000000000004,26.9,3.7000000000000006
1698923894879.0,16,-0.5,4.2,4.7,-0.6000000000000001,13.600000000000001,6.5,67.5,37.1,-6.6000000000000005
1698923894896.0,16,0.4,3.4000000000000004,3.8000000000000003,0.2,12.9,5.2,106.2,38.400000000000006,-27.5
1698923894913.0,16,0.5,1.7000000000000002,3.2,0.2,11.200000000000001,4.5,54.0,-7.0,-40.4
1698923894929.0,16,-0.9,-1.0,2.3000000000000003,-1.3,8.6,3.6,-5.1,-17.5,-36.0
1698923894946.0,16,-2.2,0.4,3.0,-2.7,9.9,4.5,-97.5,-5.500000000000001,-25.400000000000002
1698923894964.0,16,-2.7,1.6,2.8000000000000003,-3.2,11.100000000000001,4.5,-108.7,1.0,-23.1
1698923894980.0,16,-1.7000000000000002,2.6,0.30000000000000004,-2.3000000000000003,12.0,2.4000000000000004,-92.60000000000001,-7.500000000000001,-13.3
1698923894997.0,16,-0.30000000000000004,0.6000000000000001,-0.6000000000000001,-0.9,9.9,1.7000000000000002,-64.9,-32.5,-8.700000000000001
1698923895013.0,16,0.2,-0.6000000000000001,-0.7000000000000001,-0.5,8.700000000000001,1.6,-50.5,-33.0,-10.3
1698923895030.0,16,0.9,-1.9000000000000001,-1.1,0.30000000000000004,7.4,1.4000000000000001,-24.400000000000002,-24.200000000000003,-19.700000000000003
1698923895046.0,16,1.1,-2.2,-1.0,0.5,7.0,1.5,0.0,-16.6,-31.3
1698923895065.0,16,1.4000000000000001,-2.8000000000000003,-1.0,0.7000000000000001,6.5,1.4000000000000001,19.1,-10.1,-33.300000000000004
1698923895080.0,16,1.9000000000000001,-3.2,-0.7000000000000001,1.1,6.0,1.7000000000000002,26.0,-8.3,-30.9
1698923895097.0,16,2.2,-3.3000000000000003,-0.30000000000000004,1.3,5.9,2.0,31.2,-11.5,-19.400000000000002
1698923895113.0,16,2.1,-3.3000000000000003,0.0,1.2000000000000002,5.9,2.3000000000000003,22.000000000000004,-20.2,-2.3000000000000003
1698923895129.0,16,1.8,-3.2,0.0,0.9,6.0,2.2,11.9,-21.1,5.2
1698923895146.0,16,0.9,-3.0,-0.30000000000000004,0.2,6.1000000000000005,2.0,-16.0,-17.1,14.600000000000001
1698923895164.0,16,0.5,-2.1,-0.8,-0.2,7.0,1.6,-37.800000000000004,-8.600000000000001,16.3
1698923895180.0,16,0.5,-1.7000000000000002,-1.0,-0.2,7.4,1.4000000000000001,-43.0,-5.6,14.900000000000002
1698923895196.0,16,0.7000000000000001,-1.3,-1.7000000000000002,0.1,7.800000000000001,0.8,-44.3,1.5000000000000002,9.8
1698923895213.0,16,0.8,-1.2000000000000002,-2.1,0.4,7.800000000000001,0.30000000000000004,-40.3,7.2,2.4000000000000004
1698923895229.0,16,1.2000000000000002,-1.3,-2.5,0.6000000000000001,7.7,0.2,-37.300000000000004,10.4,-0.1
1698923895247.0,16,1.4000000000000001,-1.3,-2.8000000000000003,0.8,7.7,-0.1,-29.200000000000003,7.300000000000001,0.6000000000000001
1698923895264.0,16,1.1,-0.9,-2.8000000000000003,0.5,8.1,0.0,-18.5,-1.6,8.600000000000001
1698923895279.0,16,0.4,1.0,-2.4000000000000004,-0.2,9.9,0.4,-10.2,-7.9,12.700000000000001
1698923895296.0,16,-0.5,2.9000000000000004,-2.2,-1.1,11.9,0.5,8.9,-11.3,15.5
1698923895313.0,16,-1.3,3.5,-1.5,-1.8,12.5,1.3,25.2,0.0,9.9
1698923895329.0,16,-1.1,3.5,-1.5,-1.6,12.600000000000001,1.2000000000000002,33.800000000000004,0.2,6.5
1698923895346.0,16,-0.1,3.0,-1.9000000000000001,-0.6000000000000001,12.100000000000001,0.6000000000000001,36.5,-11.3,-3.7000000000000006
1698923895364.0,16,0.2,3.6,0.0,-0.30000000000000004,12.8,2.4000000000000004,27.7,-5.0,-11.1
1698923895379.0,16,0.5,4.6000000000000005,0.30000000000000004,0.0,13.8,2.7,29.800000000000004,-2.1,-11.700000000000001
1698923895396.0,16,-0.6000000000000001,4.800000000000001,3.8000000000000003,-1.1,14.100000000000001,6.0,40.1,1.3,-9.8
1698923895415.0,16,-1.5,5.300000000000001,6.7,-2.0,14.600000000000001,8.9,66.1,10.0,1.2000000000000002
1698923895430.0,16,-2.5,5.1000000000000005,6.5,-3.0,14.600000000000001,8.4,134.2,-46.7,32.2
1698923895447.0,16,-0.2,-2.8000000000000003,3.2,-0.6000000000000001,6.7,4.7,81.7,-26.1,30.000000000000004
1698923895464.0,16,0.9,-4.7,2.2,0.6000000000000001,4.800000000000001,3.7,25.400000000000002,-35.3,6.2
1698923895479.0,16,3.1,-2.9000000000000004,2.7,2.7,6.5,4.4,-52.400000000000006,-13.0,-27.2
1698923895496.0,16,3.8000000000000003,1.9000000000000001,2.2,3.4000000000000004,11.3,4.1000000000000005,-63.800000000000004,10.4,-22.8
1698923895513.0,16,1.6,4.0,1.8,1.2000000000000002,13.4,3.9000000000000004,-42.2,11.9,14.100000000000001
1698923895530.0,16,0.8,3.1,1.4000000000000001,0.5,12.5,3.5,-28.6,7.699999999999999,31.8
1698923895546.0,16,0.0,0.5,0.5,-0.2,9.9,2.7,-8.5,-1.7,39.300000000000004
1698923895563.0,16,-0.4,-0.6000000000000001,0.2,-0.5,8.8,2.4000000000000004,-8.0,18.1,29.600000000000005
1698923895580.0,16,-0.7000000000000001,-0.7000000000000001,0.30000000000000004,-0.8,8.700000000000001,2.6,-11.000000000000002,28.1,22.900000000000002
1698923895596.0,16,-1.1,-1.2000000000000002,0.2,-1.2000000000000002,8.200000000000001,2.5,-14.3,24.7,14.800000000000002
1698923895613.0,16,-1.5,-2.3000000000000003,-0.4,-1.6,7.0,1.9000000000000001,-18.2,12.4,17.400000000000002
1698923895630.0,16,-1.6,-2.6,-0.6000000000000001,-1.6,6.800000000000001,1.8,-21.0,6.4,20.6
1698923895646.0,16,-1.7000000000000002,-2.4000000000000004,-0.8,-1.7000000000000002,6.9,1.6,-24.200000000000003,3.8,21.200000000000003
1698923895663.0,16,-1.5,-2.3000000000000003,-1.3,-1.4000000000000001,6.9,1.2000000000000002,-22.900000000000002,6.7,8.9
1698923895680.0,16,-1.3,-2.5,-1.5,-1.3,6.7,1.0,-22.000000000000004,8.9,-0.5
1698923895698.0,16,-1.3,-3.1,-1.8,-1.3,6.1000000000000005,0.8,-19.6,14.100000000000001,-17.3
1698923895713.0,16,-0.8,-3.1,-1.7000000000000002,-0.9,6.1000000000000005,0.9,-13.200000000000001,7.699999999999999,-23.1
1698923895730.0,16,-0.5,-3.0,-1.7000000000000002,-0.6000000000000001,6.1000000000000005,0.9,-7.400000000000001,-1.4,-21.0
1698923895746.0,16,0.0,-3.1,-2.0,-0.2,6.0,0.5,2.1,-17.1,-8.4
1698923895763.0,16,0.1,-3.2,-2.3000000000000003,0.0,5.800000000000001,0.30000000000000004,3.6,-23.900000000000002,5.4
1698923895779.0,16,0.0,-3.1,-2.2,-0.1,5.9,0.4,3.1,-27.2,10.5
1698923895796.0,16,-0.6000000000000001,-2.4000000000000004,-2.0,-0.7000000000000001,6.6000000000000005,0.5,4.300000000000001,-40.2,19.500000000000004
1698923895813.0,16,-1.5,-0.7000000000000001,-1.5,-1.5,8.3,1.0,8.1,-55.2,22.6
1698923895829.0,16,-1.7000000000000002,1.6,-1.2000000000000002,-1.5,10.600000000000001,1.3,14.800000000000002,-51.1,15.9
1698923895846.0,16,-1.3,2.6,-1.2000000000000002,-1.1,11.700000000000001,1.2000000000000002,17.7,-43.50000000000001,7.2
1698923895864.0,16,0.0,3.8000000000000003,-1.4000000000000001,-0.4,12.5,1.1,20.2,-30.4,-16.400000000000002
1698923895880.0,16,0.6000000000000001,3.7,-1.5,0.8,12.9,0.8,14.500000000000002,-24.1,-27.5
1698923895896.0,16,1.4000000000000001,3.3000000000000003,-1.7000000000000002,1.5,12.5,0.5,8.1,-19.400000000000002,-24.400000000000002
1698923895915.0,16,1.1,3.1,-2.5,1.2000000000000002,12.3,-0.30000000000000004,-9.3,0.8,-6.2
1698923895930.0,16,0.30000000000000004,2.5,-4.0,0.9,12.0,-1.1,-38.6,17.599999999999998,7.699999999999999
1698923895946.0,16,-0.4,2.6,-3.7,-0.30000000000000004,11.700000000000001,-1.3,-56.2,18.5,10.4
1698923895963.0,16,-0.4,5.0,1.9000000000000001,-0.30000000000000004,14.200000000000001,4.4,-53.50000000000001,11.2,10.5
1698923895979.0,16,-0.5,4.7,1.6,-0.5,13.9,4.2,15.299999999999999,49.5,-7.2
1698923895996.0,16,-0.7000000000000001,3.9000000000000004,3.0,-0.6000000000000001,13.100000000000001,5.5,48.300000000000004,52.800000000000004,-8.700000000000001
1698923896013.0,16,0.7000000000000001,1.8,6.4,0.6000000000000001,11.200000000000001,8.6,149.7,35.9,-16.700000000000003
1698923896029.0,16,0.6000000000000001,-1.1,5.6000000000000005,0.4,8.4,7.2,210.10000000000002,34.1,-37.7
1698923896046.0,16,0.4,-3.4000000000000004,6.300000000000001,0.1,6.1000000000000005,7.6000000000000005,182.1,18.0,-43.800000000000004
1698923896063.0,16,-1.1,-1.4000000000000001,0.9,-1.5,8.200000000000001,2.2,-48.9,-12.5,-42.1
1698923896080.0,16,-1.7000000000000002,1.5,1.9000000000000001,-2.3000000000000003,10.9,3.7,-169.70000000000002,28.8,-48.2
1698923896096.0,16,-2.3000000000000003,2.8000000000000003,5.4,-3.0,12.100000000000001,7.5,-164.4,29.900000000000006,-49.7
1698923896112.0,16,-1.2000000000000002,2.4000000000000004,-1.2000000000000002,-2.0,11.700000000000001,1.2000000000000002,-90.5,38.400000000000006,-24.6
1698923896129.0,16,0.8,0.0,-0.9,-0.1,9.3,1.8,-66.60000000000001,-10.9,-3.4
1698923896146.0,16,1.0,-1.1,-0.6000000000000001,0.2,8.200000000000001,2.1,-47.400000000000006,-12.200000000000001,-1.4
1698923896163.0,16,1.2000000000000002,-2.3000000000000003,-1.8,0.4,6.9,0.9,-14.500000000000002,-5.300000000000001,-3.1
1698923896180.0,16,0.8,-2.8000000000000003,-1.1,0.0,6.4,1.6,10.1,-5.300000000000001,-4.3999999999999995
1698923896196.0,16,0.7000000000000001,-2.8000000000000003,-0.8,-0.2,6.300000000000001,1.9000000000000001,25.3,-1.6,-3.5
1698923896213.0,16,0.7000000000000001,-2.7,-0.6000000000000001,-0.1,6.5,1.9000000000000001,54.3,2.5,-0.7
1698923896229.0,16,0.8,-2.6,-0.1,0.0,6.6000000000000005,2.2,71.10000000000001,0.0,0.30000000000000004
1698923896248.0,16,0.8,-2.7,0.2,0.0,6.5,2.4000000000000004,72.9,1.9,0.7
1698923896263.0,16,1.0,-2.8000000000000003,0.4,0.2,6.5,2.4000000000000004,60.400000000000006,10.2,2.1999999999999997
1698923896279.0,16,1.2000000000000002,-2.7,-0.30000000000000004,0.4,6.6000000000000005,1.6,25.2,14.800000000000002,3.0000000000000004
1698923896297.0,16,1.2000000000000002,-2.6,-0.8,0.5,6.6000000000000005,1.0,0.7,16.8,3.8
1698923896313.0,16,1.3,-2.4000000000000004,-0.9,0.5,6.800000000000001,1.1,-42.2,21.900000000000002,4.1000000000000005
1698923896329.0,16,1.2000000000000002,-2.1,-1.0,0.5,6.9,1.2000000000000002,-59.1,29.900000000000006,1.4
1698923896346.0,16,1.2000000000000002,-1.9000000000000001,-1.5,0.4,7.2,0.7000000000000001,-60.599999999999994,35.199999999999996,-0.4
1698923896363.0,16,1.2000000000000002,-1.6,-2.3000000000000003,0.4,7.5,0.1,-60.900000000000006,39.9,-2.9
1698923896380.0,16,1.3,-1.4000000000000001,-2.4000000000000004,0.5,7.6000000000000005,0.1,-57.9,41.1,-2.7
1698923896396.0,16,1.1,-0.7000000000000001,-2.2,0.30000000000000004,8.3,0.4,-52.900000000000006,40.9,-0.2
1698923896414.0,16,0.2,0.7000000000000001,-2.0,-0.6000000000000001,9.700000000000001,0.6000000000000001,-37.0,31.7,12.5
1698923896430.0,16,-0.8,2.1,-2.2,-1.6,11.0,0.5,-14.200000000000001,9.4,29.000000000000004
1698923896447.0,16,-1.3,2.5,-2.0,-2.5,11.8,1.0,-2.7,-2.5,34.1
1698923896463.0,16,-2.0,3.2,-1.5,-2.7,12.200000000000001,1.2000000000000002,21.1,-12.700000000000001,34.0
1698923896479.0,16,-0.8,4.1000000000000005,-2.1,-1.3,13.200000000000001,0.4,40.6,-16.400000000000002,16.5
1698923896496.0,16,0.2,4.0,-2.7,-0.4,13.100000000000001,-0.2,41.4,-16.8,-0.4
1698923896513.0,16,0.4,4.1000000000000005,-0.9,-0.2,13.3,1.4000000000000001,31.0,-8.600000000000001,-22.5
1698923896529.0,16,1.1,5.4,0.0,0.4,14.600000000000001,2.3000000000000003,47.0,9.700000000000001,-9.700000000000001
1698923896546.0,16,0.7000000000000001,4.9,0.5,0.0,14.200000000000001,2.6,55.7,9.200000000000001,1.6
1698923896563.0,16,-0.9,3.7,6.300000000000001,-1.5,13.100000000000001,8.200000000000001,96.60000000000001,5.8,32.2
1698923896580.0,16,-2.1,3.2,4.9,-2.5,12.700000000000001,6.4,165.7,8.700000000000001,53.6
1698923896596.0,16,-0.6000000000000001,-0.8,4.4,-0.9,8.8,5.4,144.8,-12.8,41.4
1698923896613.0,16,0.7000000000000001,-2.7,2.9000000000000004,0.5,6.9,3.7,96.4,-32.2,21.400000000000002
1698923896630.0,16,1.4000000000000001,-2.5,3.2,1.1,7.0,4.1000000000000005,-41.6,-24.6,-0.6000000000000001
1698923896646.0,16,1.6,-1.2000000000000002,3.6,1.4000000000000001,8.4,4.6000000000000005,-79.3,9.4,3.0000000000000004
1698923896663.0,16,0.9,2.0,2.2,0.7000000000000001,11.5,3.5,-83.7,18.2,17.3
1698923896680.0,16,0.1,3.2,1.3,0.0,12.700000000000001,2.9000000000000004,-65.5,1.3,23.1
1698923896696.0,16,-0.5,1.2000000000000002,0.0,-0.4,11.9,2.3000000000000003,-44.1,6.000000000000001,21.700000000000003
1698923896720.0,16,-0.6000000000000001,0.0,-0.2,-0.7000000000000001,8.6,1.6,-31.7,20.8,17.9
1698923896729.0,16,-0.7000000000000001,-1.5,-0.30000000000000004,-0.7000000000000001,8.0,1.6,-24.5,27.400000000000002,15.6
1698923896746.0,16,-0.7000000000000001,-2.1,-0.4,-0.7000000000000001,7.300000000000001,1.5,-7.500000000000001,23.3,10.5
1698923896763.0,16,-0.9,-2.3000000000000003,-0.5,-0.9,7.1000000000000005,1.5,-0.5,17.7,8.799999999999999
1698923896779.0,16,-1.4000000000000001,-2.7,-0.4,-1.4000000000000001,6.7,1.5,7.9,10.600000000000001,9.1
1698923896796.0,16,-1.8,-2.9000000000000004,-0.7000000000000001,-1.8,6.4,1.1,9.200000000000001,7.2,11.1
1698923896813.0,16,-1.9000000000000001,-2.9000000000000004,-0.8,-1.8,6.5,1.1,6.5,4.5,10.700000000000001
1698923896829.0,16,-1.8,-2.6,-0.8,-1.7000000000000002,6.7,1.0,-0.9,1.3,4.6000000000000005
1698923896846.0,16,-1.8,-2.4000000000000004,-0.9,-1.7000000000000002,6.9,0.9,-4.9,0.7,-0.4
1698923896863.0,16,-1.5,-2.2,-1.6,-1.4000000000000001,7.1000000000000005,0.30000000000000004,-14.500000000000002,-5.2,-10.0
1698923896879.0,16,-0.8,-2.4000000000000004,-1.7000000000000002,-0.8,6.9,0.2,-24.6,-22.1,-13.0
1698923896896.0,16,-0.5,-2.7,-1.3,-0.5,6.5,0.7000000000000001,-26.400000000000002,-31.4,-6.7
1698923896913.0,16,-0.4,-2.8000000000000003,-1.3,-0.4,6.4,0.7000000000000001,-23.700000000000003,-29.300000000000004,-2.0
1698923896930.0,16,-0.4,-2.6,-1.9000000000000001,-0.4,6.6000000000000005,0.2,-19.200000000000003,-24.9,5.500000000000001
1698923896946.0,16,-0.30000000000000004,-2.1,-1.9000000000000001,-0.30000000000000004,7.0,0.30000000000000004,-16.700000000000003,-24.8,6.4
1698923896963.0,16,-0.1,-0.9,-1.5,0.0,8.3,0.6000000000000001,-13.100000000000001,-25.2,4.0
1698923896979.0,16,0.2,0.5,-1.0,0.2,9.700000000000001,1.1,0.0,-20.8,-3.1
1698923896996.0,16,0.6000000000000001,1.7000000000000002,-0.8,0.4,10.3,1.3,17.5,-4.300000000000001,-6.6000000000000005
1698923897013.0,16,0.9,2.0,-1.0,1.0,11.200000000000001,1.0,25.400000000000002,2.5,-6.7
1698923897029.0,16,1.4000000000000001,2.2,-1.2000000000000002,1.4000000000000001,11.4,0.7000000000000001,31.6,4.7,-4.0
1698923897046.0,16,1.2000000000000002,2.2,-1.5,1.3,11.4,0.4,24.1,10.1,2.8
1698923897063.0,16,0.4,2.2,-3.3000000000000003,0.5,11.5,-1.5,10.0,9.200000000000001,4.9
1698923897080.0,16,-1.3,2.0,-3.3000000000000003,-1.3,11.3,-1.5,-27.7,4.3999999999999995,11.000000000000002
1698923897096.0,16,-1.7000000000000002,3.8000000000000003,1.1,-1.6,13.100000000000001,3.1,-36.7,4.5,23.2
1698923897113.0,16,-1.1,4.800000000000001,1.7000000000000002,-0.9,14.100000000000001,3.7,-14.0,16.3,18.400000000000002
1698923897129.0,16,-1.0,4.9,1.9000000000000001,-0.9,14.200000000000001,3.8000000000000003,33.2,40.8,-6.2
1698923897146.0,16,-0.1,4.7,5.0,0.0,14.100000000000001,6.9,67.7,41.4,-18.3
1698923897163.0,16,1.8,3.2,5.2,1.7000000000000002,12.700000000000001,6.6000000000000005,175.70000000000002,43.2,-47.400000000000006
1698923897180.0,16,1.7000000000000002,-0.9,5.2,1.5,8.700000000000001,6.0,193.3,16.1,-55.7
1698923897196.0,16,-0.9,-2.5,4.1000000000000005,-1.3,7.1000000000000005,4.6000000000000005,30.799999999999997,-33.5,-27.5
1698923897214.0,16,-2.1,-0.30000000000000004,1.3,-2.5,9.3,1.9000000000000001,-77.7,-1.3,-15.399999999999999
1698923897230.0,16,-3.0,3.1,4.0,-3.5,12.600000000000001,5.2,-159.4,15.399999999999999,-8.600000000000001
1698923897246.0,16,-1.5,3.6,1.3,-2.0,13.100000000000001,2.9000000000000004,-113.0,19.500000000000004,-9.600000000000001
1698923897263.0,16,0.30000000000000004,0.7000000000000001,-0.30000000000000004,-0.9,11.700000000000001,0.9,-78.5,-8.1,-18.7
1698923897280.0,16,0.6000000000000001,-0.5,-0.1,0.0,8.9,1.9000000000000001,-60.20000000000001,-6.000000000000001,-21.700000000000003
1698923897296.0,16,1.2000000000000002,-1.8,-1.1,0.5,7.6000000000000005,1.0,-27.2,3.6,-20.900000000000002
1698923897313.0,16,1.2000000000000002,-2.3000000000000003,-0.7000000000000001,0.5,7.1000000000000005,1.4000000000000001,5.1,-1.4,-18.1
1698923897330.0,16,1.1,-2.9000000000000004,-0.8,0.4,6.4,1.3,22.000000000000004,-4.7,-15.000000000000002
1698923897346.0,16,1.2000000000000002,-3.0,-0.5,0.5,6.300000000000001,1.4000000000000001,47.900000000000006,-10.8,-7.8
1698923897364.0,16,0.9,-2.6,0.1,0.4,6.5,1.6,57.6,-11.1,-3.7000000000000006
1698923897379.0,16,0.6000000000000001,-2.5,0.4,-0.1,6.9,2.0,66.5,-11.3,2.6
1698923897396.0,16,0.2,-2.1,0.7000000000000001,-0.5,7.300000000000001,2.2,57.1,-9.0,1.0
1698923897413.0,16,0.30000000000000004,-2.3000000000000003,0.30000000000000004,-0.4,7.1000000000000005,1.6,25.900000000000002,-1.2000000000000002,-7.300000000000001
1698923897430.0,16,0.6000000000000001,-2.3000000000000003,0.0,-0.1,7.1000000000000005,1.3,3.9,1.0999999999999999,-10.3
1698923897446.0,16,0.9,-2.2,-0.30000000000000004,0.1,7.1000000000000005,1.1,-33.0,4.7,-10.600000000000001
1698923897463.0,16,1.3,-2.1,-0.8,0.5,7.2,0.8,-47.7,7.9,-9.200000000000001
1698923897480.0,16,1.2000000000000002,-1.9000000000000001,-1.0,0.4,7.300000000000001,0.6000000000000001,-49.1,8.1,-9.3
1698923897496.0,16,1.0,-1.6,-1.3,0.2,7.7,0.5,-45.1,9.4,-9.8
1698923897513.0,16,1.0,-1.2000000000000002,-1.6,0.1,8.0,0.30000000000000004,-37.0,16.900000000000002,-10.9
1698923897529.0,16,1.1,-1.1,-1.6,0.30000000000000004,8.1,0.30000000000000004,-32.9,20.0,-12.200000000000001
1698923897546.0,16,1.3,-0.9,-1.6,0.4,8.200000000000001,0.4,-22.000000000000004,24.1,-14.3
1698923897563.0,16,0.9,-0.6000000000000001,-1.9000000000000001,-0.1,8.5,0.1,-11.5,21.0,-7.2
1698923897579.0,16,0.4,-0.30000000000000004,-1.8,-0.6000000000000001,8.8,0.2,-6.8,17.200000000000003,0.0
1698923897596.0,16,-0.4,0.8,-1.4000000000000001,-1.4000000000000001,9.9,0.6000000000000001,7.0,7.1000000000000005,13.3
1698923897613.0,16,-0.9,1.9000000000000001,-1.0,-1.8,10.5,0.8,27.900000000000002,-8.0,13.200000000000001
1698923897630.0,16,-0.8,2.4000000000000004,-1.1,-1.6,11.600000000000001,0.7000000000000001,37.300000000000004,-14.3,8.4
1698923897646.0,16,0.2,2.6,-1.9000000000000001,-0.7000000000000001,11.9,-0.2,41.5,-20.3,-8.600000000000001
1698923897663.0,16,0.1,2.7,-0.9,-0.8,12.0,0.6000000000000001,27.0,-11.1,-16.8
1698923897679.0,16,0.2,3.2,-0.4,-0.8,12.5,1.1,23.6,-3.4,-8.700000000000001
1698923897696.0,16,0.30000000000000004,3.7,-0.5,-0.6000000000000001,13.100000000000001,1.0,20.3,-17.3,14.700000000000001
1698923897713.0,16,-2.2,4.0,5.300000000000001,-3.0,13.4,6.7,39.9,-35.199999999999996,43.0
1698923897729.0,16,-2.6,5.1000000000000005,6.5,-3.3000000000000003,14.600000000000001,7.9,78.5,-45.6,57.3
1698923897746.0,16,-3.4000000000000004,2.6,4.0,-3.9000000000000004,12.100000000000001,5.0,126.0,-55.300000000000004,61.8
1698923897763.0,16,0.0,-2.5,2.7,-0.30000000000000004,7.0,3.3000000000000003,95.9,-63.6,22.8
1698923897780.0,16,1.6,-4.2,1.7000000000000002,0.6000000000000001,5.6000000000000005,2.3000000000000003,60.5,-83.8,-4.0
1698923897796.0,16,1.9000000000000001,-3.5,2.2,1.5,6.0,2.8000000000000003,-25.400000000000002,-79.2,-24.000000000000004
1698923897813.0,16,1.3,0.1,2.9000000000000004,0.9,9.600000000000001,3.7,-68.7,-63.300000000000004,-1.2000000000000002
1698923897829.0,16,-0.4,3.7,2.2,-0.1,11.8,3.9000000000000004,-65.4,-67.4,26.3
1698923897846.0,16,-0.8,3.6,1.8,-1.1,13.100000000000001,3.0,-57.9,-66.7,31.3
1698923897862.0,16,-1.3,1.5,1.2000000000000002,-1.4000000000000001,11.0,2.5,-35.1,-70.6,31.4
1698923897879.0,16,-1.3,0.7000000000000001,0.9,-1.3,10.200000000000001,2.3000000000000003,-24.6,-72.6,25.900000000000002
1698923897896.0,16,-1.2000000000000002,0.30000000000000004,1.0,-1.2000000000000002,9.8,2.5,-10.5,-69.4,7.699999999999999
1698923897912.0,16,-1.6,0.30000000000000004,1.0,-1.6,9.8,2.5,-2.1999999999999997,-75.60000000000001,-3.7000000000000006
1698923897932.0,16,-2.0,-0.2,0.8,-1.9000000000000001,9.3,2.3000000000000003,-5.9,-91.0,-5.7
1698923897946.0,16,-2.0,-0.6000000000000001,0.5,-1.9000000000000001,8.9,2.0,-12.5,-96.2,-7.8
1698923897962.0,16,-1.6,-1.1,-0.30000000000000004,-1.6,8.4,1.3,-33.0,-107.9,-16.0
1698923897979.0,16,-1.5,-0.8,-0.5,-1.5,8.6,1.3,-52.7,-114.4,-27.0
1698923897996.0,16,-1.3,-0.6000000000000001,-0.5,-1.3,8.9,1.3,-58.00000000000001,-113.4,-32.4
1698923898013.0,16,-0.7000000000000001,-0.2,-1.0,-0.8,9.200000000000001,1.1,-59.1,-114.80000000000001,-41.6
1698923898029.0,16,-0.30000000000000004,-0.4,-1.4000000000000001,-0.5,9.0,0.8,-53.6,-118.80000000000001,-43.50000000000001
1698923898046.0,16,-0.2,-0.6000000000000001,-1.5,-0.30000000000000004,8.700000000000001,0.8,-49.9,-119.89999999999999,-41.2
1698923898062.0,16,-0.2,-0.9,-1.8,-0.30000000000000004,8.3,0.7000000000000001,-40.9,-126.20000000000002,-34.50000000000001
1698923898079.0,16,-0.2,-1.0,-1.8,-0.4,8.200000000000001,0.7000000000000001,-35.4,-134.2,-31.900000000000002
1698923898096.0,16,-0.6000000000000001,-1.0,-1.6,-0.7000000000000001,8.200000000000001,0.9,-22.5,-151.8,-29.600000000000005
1698923898113.0,16,-0.7000000000000001,-0.8,-1.7000000000000002,-0.8,8.3,0.9,-9.3,-163.4,-28.6
1698923898130.0,16,-0.7000000000000001,-0.8,-1.8,-0.7000000000000001,8.4,0.8,-0.6000000000000001,-174.3,-31.8
1698923898146.0,16,-0.9,-0.6000000000000001,-1.6,-0.9,8.5,0.9,2.3000000000000003,-180.50000000000003,-33.900000000000006
1698923898162.0,16,-1.7000000000000002,-0.2,-1.0,-1.7000000000000002,8.9,1.6,7.500000000000001,-186.70000000000002,-38.0
1698923898179.0,16,-2.3000000000000003,0.5,-0.4,-2.3000000000000003,9.700000000000001,2.1,9.200000000000001,-175.1,-44.00000000000001
1698923898196.0,16,-1.8,1.0,-0.4,-1.8,10.200000000000001,2.1,8.4,-167.5,-49.4
1698923898213.0,16,-0.1,1.6,-1.7000000000000002,-0.2,10.8,0.8,0.0,-163.7,-66.2
1698923898229.0,16,1.2000000000000002,0.4,-3.1,0.8,10.3,-0.2,-27.400000000000002,-176.20000000000002,-73.0
1698923898246.0,16,1.1,0.0,-2.9000000000000004,0.9,9.1,-0.30000000000000004,-43.400000000000006,-174.3,-67.2
1698923898264.0,16,0.8,0.2,-1.7000000000000002,0.7000000000000001,9.3,1.0,-58.400000000000006,-160.20000000000002,-47.1
1698923898279.0,16,0.4,1.0,-0.7000000000000001,0.30000000000000004,10.100000000000001,2.2,-46.300000000000004,-158.79999999999998,-30.7
1698923898296.0,16,0.7000000000000001,2.3000000000000003,1.2000000000000002,0.7000000000000001,11.4,4.2,-29.800000000000004,-169.50000000000003,-26.3
1698923898313.0,16,3.7,5.2,4.7,3.8000000000000003,14.4,7.7,38.7,-191.1,-39.8
1698923898329.0,16,1.8,3.7,0.0,1.8,12.9,2.7,56.1,-130.9,-63.10000000000001
1698923898346.0,16,1.2000000000000002,1.4000000000000001,-1.9000000000000001,1.2000000000000002,10.700000000000001,0.8,28.6,-136.7,-57.6
1698923898363.0,16,0.8,-0.7000000000000001,-1.0,0.8,8.4,1.9000000000000001,-61.8,-181.4,-47.0
1698923898379.0,16,0.5,-0.4,-0.2,0.5,8.700000000000001,2.8000000000000003,-100.10000000000001,-175.3,-50.9
1698923898396.0,16,0.7000000000000001,1.0,-0.9,0.7000000000000001,10.0,2.5,-132.70000000000002,-158.5,-67.4
1698923898413.0,16,0.7000000000000001,1.1,-1.8,0.7000000000000001,9.9,2.0,-130.70000000000002,-161.70000000000002,-77.60000000000001
1698923898430.0,16,1.0,0.5,-2.5,0.9,9.200000000000001,1.6,-111.60000000000001,-154.0,-78.3
1698923898446.0,16,0.9,0.2,-3.0,0.9,8.8,1.3,-99.30000000000001,-152.8,-75.80000000000001
1698923898463.0,16,0.4,-0.30000000000000004,-3.4000000000000004,0.4,8.200000000000001,1.1,-74.2,-165.7,-68.9
1698923898479.0,16,-0.1,-0.30000000000000004,-3.2,0.0,8.1,1.4000000000000001,-47.800000000000004,-174.8,-69.3
1698923898496.0,16,-0.1,-0.30000000000000004,-3.3000000000000003,0.0,8.1,1.3,-33.7,-175.0,-74.10000000000001
1698923898514.0,16,0.2,0.0,-3.7,0.4,8.3,0.9,-9.4,-179.8,-87.3
1698923898529.0,16,0.8,0.5,-3.4000000000000004,1.0,8.9,1.2000000000000002,10.1,-183.9,-95.4
1698923898548.0,16,1.2000000000000002,0.6000000000000001,-3.4000000000000004,1.4000000000000001,9.0,1.2000000000000002,19.1,-180.60000000000002,-97.2
1698923898562.0,16,2.2,0.5,-3.3000000000000003,2.4000000000000004,9.0,1.1,32.800000000000004,-173.1,-97.4
1698923898579.0,16,2.9000000000000004,0.30000000000000004,-2.9000000000000004,3.1,8.8,1.3,42.7,-169.60000000000002,-92.10000000000001
1698923898596.0,16,3.1,0.2,-2.6,3.3000000000000003,8.8,1.8,46.5,-168.1,-86.3
