ts,interval,accx,accy,accz,accGx,accGy,accGz,alpha,beta,gamma
1698923883003.0,0.01666666753590107,0.2655610809009522,-0.23516455439776182,-0.4114735997229814,1.2961612160280347,-4.40533163920939,-9.227252613720298,-0.60650580389747,3.3253544370488703,3.7122624554152903
1698923883173.0,0.01666666753590107,0.015594386429712176,-0.08348112402409315,0.3783452371031046,1.0732003827083856,-1.731306344848126,-9.230844500732422,3.3180145450120455,-4.343817604567811,-0.44883200748563634
1698923883189.0,0.01666666753590107,-0.06555325314551591,-0.004941548055410385,0.40894203541874885,0.9844652836788446,-1.6606772497430442,-9.19971987915039,2.7202895362620088,-2.377402513983144,-1.8216453891448392
1698923883206.0,0.01666666753590107,-0.03109305739998817,0.040136487816274165,0.35387598175704477,1.0118489651668816,-1.6183298078790307,-9.255085792541504,-0.10313569638463387,-3.573477920679097,-0.8328301518222192
1698923883223.0,0.01666666753590107,0.08795205889306962,-0.06354892758578062,0.18197043208777902,1.1189894894588739,-1.718886277605593,-9.428815635028482,-1.031053127149979,-3.34535899391078,0.989923755680572
1698923883240.0,0.01666666753590107,-0.040045521597191686,0.02846928476765752,0.13710779253244398,0.9844653567440808,-1.626410238482058,-9.47445510417521,0.6991408848460026,-1.3395608191284074,0.9832556767816413
1698923883256.0,0.01666666753590107,-0.05405227350927889,0.06320420580133795,0.13505378261208534,0.9681547118037939,-1.5963332262568175,-9.475950895690918,2.6844773603397507,-0.2682045866356079,1.0621272862223634
1698923883273.0,0.01666666753590107,0.01662102606371045,0.10131167200803756,0.08915069409310818,1.0669156033504754,-1.6561881216302514,-9.501389288330078,3.93355460810818,-0.6941629042406798,-0.4581175429405629
1698923883289.0,0.01666666753590107,-0.007490136559680104,0.055360652694106095,0.1473907016158104,1.0687113276608287,-1.677137532287091,-9.444826274108886,2.6520602153218125,-2.7366156093690432,-1.64249774478675
1698923883306.0,0.01666666753590107,0.03946538362167775,-0.01583542864397168,0.06914309433102607,1.1212340535152703,-1.755547636657208,-9.521141452026367,1.4411340563795478,-4.823789511696594,-1.6959503783444465
1698923883323.0,0.01666666753590107,0.014729732424393295,-0.07238061494752765,0.1424795486986637,1.0660177777279167,-1.794303629900515,-9.454403080749511,3.295122952565336,-3.6127355001508032,-0.9161510958986758
1698923883340.0,0.01666666753590107,0.04490567497946322,-0.10750848082154989,0.16304653590917587,1.0757442950375378,-1.807920797973126,-9.439888233184814,3.890322498869761,-3.3885990005554265,0.6206529932984176
1698923883357.0,0.01666666753590107,0.0360477571979165,-0.10501987887620925,0.19518822557926177,1.0681127041805536,-1.8107639124445616,-9.406669269672035,3.7985755559567416,-2.044191308437249,1.6344480466847726
1698923883374.0,0.01666666753590107,0.07000986722819506,-0.1413623812370002,0.20551205119490623,1.1047739171016961,-1.8564032354608178,-9.394398401641846,4.448863352681669,-2.787594220343314,2.2477010636260104
1698923883390.0,0.01666666753590107,-0.034762466627731914,-0.13091712119877338,0.2167231810390949,1.0105022267330437,-1.873761343627423,-9.377040439605713,5.934096098550581,-3.708046948036923,1.5801538057552833
1698923883407.0,0.01666666753590107,-0.0314577990591526,-0.08550283911004662,0.19033961650431155,1.0073598370540886,-1.8520637449517845,-9.399785939899086,8.100558251858224,-3.42697804694514,0.8209384723121096
1698923883424.0,0.01666666753590107,-0.13519063379950821,-0.0016465981632471083,0.3029612025558948,0.8913906941402703,-1.8037307989373803,-9.281870923614502,8.487013770192132,-9.449930424285943,1.0656954197334605
1698923883440.0,0.01666666753590107,-0.2609712688926607,0.15979995520338416,0.30903438498973845,0.7390596135128289,-1.6645679735712706,-9.274389043426513,7.211119919081764,-16.611078118078954,0.7753205993409464
1698923883457.0,0.01666666753590107,-0.45610739895850416,0.37532121310681105,0.3575684065341949,0.5057745892513543,-1.4722836527399719,-9.2253084939152,10.58443679825611,-17.92785321269279,0.6893973531907149
1698923883474.0,0.01666666753590107,-0.7252469959333538,0.4083471382655203,0.4635778809696436,0.1788163519710302,-1.4921851617790758,-9.114576082611084,17.975094216087182,-19.95309309406078,2.0703773999414317
1698923883490.0,0.01666666753590107,-0.8418868046503514,0.30491847410351036,0.5847656353145837,0.018255203136801717,-1.6470602278009057,-8.987084844207763,23.422969211305244,-17.458525301611825,1.5800361984355122
1698923883508.0,0.01666666753590107,-0.8651452959671616,0.24570099985077976,0.7328320442348718,-0.04279686613194644,-1.7660222689203917,-8.82996536026001,25.188183790970847,-13.363402568686993,-0.4633681975041573
1698923883523.0,0.01666666753590107,-1.1684453750886021,0.00808817551806569,0.6739204210609198,-0.383222341620177,-2.06080834832713,-8.879794682312012,23.759289433583962,-13.237532427567414,-4.149784736852443
1698923883540.0,0.01666666753590107,-1.6363894884437322,-0.13474471666291354,1.2539257101058958,-0.8782235348574816,-2.279279249816388,-8.285285067096352,21.503033771465923,-10.766005424509851,-14.190097929974073
1698923883557.0,0.01666666753590107,-1.8723042766869067,-0.06653700348585843,1.0062012416034936,-1.1397902123600243,-2.2486033949151634,-8.526500299835204,9.455293830331696,-19.470767332989283,-21.880584430669426
1698923883574.0,0.01666666753590107,-1.8424509902149437,-0.2183776702478528,1.067021913269162,-1.159243100848794,-2.39913897042796,-8.469638594928384,-6.64353888301652,-22.38241038182131,-29.535237197657953
1698923883590.0,0.01666666753590107,-1.828673809275031,-0.3823232008233666,0.9711457103133201,-1.1849806225650013,-2.530820061736554,-8.575581433868408,-14.957576404930785,-24.472313371609104,-35.47089356754706
1698923883606.0,0.01666666753590107,-1.7211780418045817,-0.6686174923472106,0.8368331014573573,-1.1227315620640292,-2.7681451551690697,-8.723722661590577,-18.96488937211229,-25.766994511805237,-39.798211142627416
1698923883624.0,0.01666666753590107,-1.4169991340219974,-0.6980731578037143,1.1037632056891917,-0.8628110443333163,-2.721159093718976,-8.475922789764404,-21.18191755027965,-19.359553070281258,-47.28525960512029
1698923883640.0,0.01666666753590107,-1.0127558508787304,-1.0907600778616964,1.185878594318032,-0.47420222390182315,-3.054252399688214,-8.407090076556802,-20.562958977503925,-13.858774844846863,-51.11411680476228
1698923883657.0,0.01666666753590107,-0.6904515038188547,-1.3755673456981776,1.1453320643961429,-0.15502521508224307,-3.282000832610577,-8.45931360026896,-19.418632499054574,-10.677752550244117,-54.483261292127395
1698923883674.0,0.01666666753590107,0.02120535817928612,-1.6914572956711054,0.8197387587934732,0.5566512283992022,-3.518428100420534,-8.800337114715576,-22.84605386796553,-13.147775204136984,-55.08652409019043
1698923883690.0,0.01666666753590107,0.8894190287411212,-2.2152670886330306,0.04573533073663711,1.3959685478877275,-3.9689870714716613,-9.58952583694458,-30.309596234429808,-31.218339243121665,-48.08289592658355
1698923883707.0,0.01666666753590107,1.1830346761289983,-2.4361530884400007,-0.26511808637380596,1.6027676797511055,-4.097076714159548,-9.920973129272461,-38.511803069063454,-52.68043627579711,-40.88712088124586
1698923883724.0,0.01666666753590107,1.224189620272815,-2.321392298402637,-0.14795301167368888,1.4589659060053526,-3.8449374979548154,-9.832686943054199,-39.089486808684796,-66.52814621418855,-39.89258728148406
1698923883740.0,0.01666666753590107,0.6950950187757611,-2.28553217273131,0.46210254772007464,0.7788629969172179,-3.7144535074763,-9.239523481750489,-34.003335216816026,-64.25549639051519,-41.40732857900154
1698923883757.0,0.01666666753590107,0.6611290362879634,-2.41984098219499,0.6293003580898047,0.6097724407366011,-3.7716150721125303,-9.083601098632812,-26.775289235197324,-52.27874943561408,-41.10714859516865
1698923883774.0,0.01666666753590107,0.6641440001949668,-2.6630261998325584,0.931376594504714,0.49544930233098566,-3.941154623302817,-8.790162342181802,-16.97302862521815,-26.478575572368214,-34.67031001945694
1698923883790.0,0.01666666753590107,0.6057266633439808,-2.920884524336457,0.9841168355673551,0.4070134967752732,-4.169950373321027,-8.740631710815428,-6.533228766599875,-5.60651211510713,-26.50350405529147
1698923883807.0,0.01666666753590107,0.5693321750676259,-3.089030136950314,0.9332979179561137,0.38516640662634744,-4.337544489531964,-8.791807771301269,4.9021932531791705,10.595883341531405,-17.801986486667793
1698923883824.0,0.01666666753590107,0.4049258585799485,-3.3495895371064544,0.6330804611504077,0.2769784191080369,-4.638615056035667,-9.087641313934325,17.845291593552968,15.703820675531576,-10.005788294414506
1698923883840.0,0.01666666753590107,0.06782730815787799,-3.4202778150528665,0.3412099769294262,-0.020052233488252386,-4.760719779095053,-9.3730002243042,21.490647223406103,12.98345365931117,-11.218572051367603
1698923883857.0,0.01666666753590107,-0.11127264652750454,-3.3520579730466005,0.36282150475680824,-0.16475180545710028,-4.745905364061891,-9.344120166778564,19.659888440917765,10.42366524425141,-19.218885324324845
1698923883874.0,0.01666666753590107,-0.23486491386406122,-3.380009517550468,0.13983984784483908,-0.24690284421299,-4.832097062218934,-9.558700490570068,15.489591792214126,7.866431319941236,-22.38912275022814
1698923883891.0,0.01666666753590107,0.04819412206560373,-3.9954683972924947,-0.20102350760400295,0.0604527745016152,-5.488856066729128,-9.893289588055014,17.90806444711997,6.330542902979747,-9.10373716356197
1698923883907.0,0.01666666753590107,0.11166745453136973,-4.183222088956833,-0.32234570198357104,0.1403592663257732,-5.730521089062094,-10.006116925811767,25.321932555298037,7.0898558867837105,5.780869769144631
1698923883924.0,0.01666666753590107,-0.3560217981467023,-3.845704536804557,-0.30600071638226506,-0.2931408557832474,-5.498582657103985,-9.9721491897583,36.65859174722599,16.2894342647793,3.717744962884695
1698923883940.0,0.01666666753590107,-0.7175132598761469,-3.1168045713216066,-0.29175533340871335,-0.6052849200590048,-4.8696559546321625,-9.939827467346191,42.3867264795626,20.965016355449432,-8.202878754493247
1698923883957.0,0.01666666753590107,-0.7443256442822516,-2.8477473919332024,-0.5095873524725437,-0.5719156887548044,-4.712835599761456,-10.135703090667723,46.98259001733493,21.954739794488255,-19.184157227489916
1698923883974.0,0.01666666753590107,-0.5726724254062399,-2.6846453264445067,-0.8966992488771677,-0.30735640530753877,-4.7078975588373835,-10.488698197937012,48.26735884549808,21.533023424564156,-32.87231394686986
1698923883991.0,0.01666666753590107,-0.09084357908349483,-2.206968192973733,-1.431052793815732,0.24525522884465753,-4.348019121795147,-10.995221486663818,48.54058348777152,17.988925349156457,-44.78024333078851
1698923884007.0,0.01666666753590107,0.2672130493590608,-1.7602984844461083,-1.7085773572981358,0.6736676884088665,-4.018517264446616,-11.24302135848999,49.29493690046441,15.96227503372486,-51.655016560608516
1698923884024.0,0.01666666753590107,1.2065095136102288,-1.3084642327621578,-2.170840648537874,1.698685237630643,-3.727471979003399,-11.661707373809813,52.65935489692387,11.55909540130682,-44.07543611033489
1698923884040.0,0.01666666753590107,1.6504641910254954,-1.1652107770815492,-2.10706521871984,2.1923396559014914,-3.71580039204061,-11.560701991271973,58.34135170141705,8.502424384506973,-34.62312024248132
1698923884057.0,0.01666666753590107,1.5359982922814785,-1.0443331115990877,-1.8617437197059392,2.121112156511843,-3.7434830564752217,-11.271452503204346,66.25409170393097,8.99832514655387,-31.339967836766668
1698923884074.0,0.01666666753590107,1.1822867073059082,-0.3855538533076644,-1.155455399003625,1.8426367220453916,-3.3075893012449145,-10.493336963653563,73.89812523430741,18.655637189514326,-34.47741181691744
1698923884090.0,0.01666666753590107,1.1320957123346627,0.22996055601388216,-0.5185311219066381,1.874659023119509,-2.866157785631716,-9.79393080368042,73.74275209106797,26.71340259867513,-32.96642370834888
1698923884108.0,0.01666666753590107,1.1720922071583568,0.09841332021802664,0.09442775771319865,2.0480891520075497,-3.216011087743938,-9.093477765002847,65.11643490520613,37.29822871771393,-19.22662392865447
1698923884124.0,0.01666666753590107,1.207804741052538,0.13523527665883303,0.31399171513617036,2.1884491512689737,-3.3164179198667405,-8.812607398223877,51.59271840518883,40.49133532450572,-4.739866550477824
1698923884140.0,0.01666666753590107,1.2693622025601565,0.21147446673065423,0.30979952414333817,2.3374882776789367,-3.3463454406186934,-8.76607010345459,37.68413440581965,33.32687669651255,8.342714071144565
1698923884158.0,0.01666666753590107,1.1347666120443491,0.8700742768019437,-0.11538403650224208,2.2673081684503704,-2.785802684673667,-9.144353965759278,21.2977729265287,17.30383176219479,16.057130993370706
1698923884174.0,0.01666666753590107,1.0528846668452023,1.2491712090551852,-0.2764659943401813,2.1965296549372373,-2.4456767035886644,-9.288156287494301,5.180126457111683,5.995406010974731,18.134051501093595
1698923884191.0,0.01666666753590107,0.9948281991958617,1.8299170873343944,-0.36099136672019955,2.1220101282648742,-1.8637357703059911,-9.375245372882485,-13.603788515204654,-4.060012999270027,20.687403316634267
1698923884207.0,0.01666666753590107,0.9624771045587956,2.285922779484093,-0.24677988112866878,2.0371655338678507,-1.3522744406551122,-9.289951354217528,-26.6266062622499,-8.325749588793546,28.74073593302373
1698923884224.0,0.01666666753590107,0.9657442896611989,2.3172639664262533,-0.15821663153469562,1.9916757023248821,-1.2702733260557055,-9.227253198242186,-24.409610527481096,-5.508626966564385,38.36117007710799
1698923884240.0,0.01666666753590107,0.853180425146222,2.3158441627562043,0.11543079825341701,1.8330599154047666,-1.238699791662395,-8.971672171020508,-15.744632763369696,-0.5949001919197077,46.240899775363246
1698923884257.0,0.01666666753590107,0.8607369780056178,2.299847259940207,0.6407786144375801,1.7851758822016417,-1.2458823966428636,-8.455572075653075,-5.892019998829187,4.343473960675196,54.889008679772004
1698923884274.0,0.01666666753590107,0.8253564525447785,2.18598239582926,0.9551415009737014,1.7123024422358721,-1.3643950865596532,-8.143129343524574,-6.570087028682203,7.781584148750398,57.736989242897636
1698923884290.0,0.01666666753590107,0.7177971913840622,2.0179221234112976,1.5582704759746788,1.5752342510614543,-1.5429127478450535,-7.538742477416991,-12.623613680625512,10.124637001067313,58.56040269828852
1698923884307.0,0.01666666753590107,0.6212547065392137,1.7146198523327707,1.7544249162375927,1.4495387369684873,-1.8089684073299168,-7.359775903320312,-27.414922790590676,17.021517845683363,61.20531149210592
1698923884324.0,0.01666666753590107,0.5420585663579404,1.5401178564295173,1.7615853093862532,1.361102913146466,-1.9199998015806077,-7.377733000293373,-38.00519427794527,24.121357761486337,67.8235325714165
1698923884341.0,0.01666666753590107,0.39536600307412445,1.105976790085435,1.614804264101386,1.2177500887446104,-2.27643598921448,-7.553257324981689,-41.0177380038386,31.88405387586071,75.0209673527225
1698923884357.0,0.01666666753590107,0.31971367297954856,0.9592018822804093,1.4996329935669899,1.164179972729087,-2.3205793745845553,-7.703643701282143,-37.153053046905306,37.87512698558072,80.838867846226
1698923884374.0,0.01666666753590107,0.26648615985661744,0.9696884972423314,1.53579502479434,1.1358983925532549,-2.249351875194907,-7.68658442993164,-28.02375731546915,39.76218189475559,80.44019653456152
1698923884390.0,0.01666666753590107,0.14626915023997425,1.0146204026415944,1.702830338078737,1.0697586447566747,-2.165853800036013,-7.5276698792606584,-12.071988820235065,49.168619381954194,77.45052711219856
1698923884407.0,0.01666666753590107,-0.06707322925440967,0.7653811456620693,1.9923481216937302,0.9214678524959832,-2.4155992529720067,-7.231237786212563,-5.839092009177112,57.814272833356334,75.58203324209319
1698923884424.0,0.01666666753590107,-0.19389540928974747,0.5902008121058344,2.046096078494191,0.8774743239253758,-2.5933684339776635,-7.167341944885253,-10.90873076495373,61.64430141044098,76.23157740197223
1698923884440.0,0.01666666753590107,-0.4125410828240216,0.13819792585670948,1.5814590438604355,0.7486364201534539,-3.0102587980523703,-7.633163805389404,-30.544841609823386,48.58166024543998,81.35163746797554
1698923884457.0,0.01666666753590107,-0.3236632873881608,-0.08104892844110727,1.6547908220529555,0.8816643229611217,-3.1760572630181905,-7.5722613006591795,-34.784070235178085,42.20626263640711,84.87336496630415
1698923884473.0,0.01666666753590107,-0.3683129417799413,-0.1343339439049363,1.2499497922122478,0.852036004351452,-3.1781521894708273,-7.992144416809081,-29.56876318119896,28.600170639904867,89.06855594698519
1698923884490.0,0.01666666753590107,-0.3014197452675551,0.1334285194978118,1.076361988544464,0.898872720458731,-2.8749866965144872,-8.179939609527587,-17.097915219097246,15.457023742704214,88.3075977413649
1698923884507.0,0.01666666753590107,-0.4976479814190417,0.2618824654534459,1.30421738897264,0.6705256640560925,-2.7477947333186865,-7.9557824790954585,-4.108116314047134,15.910228992249362,81.31342938975848
1698923884524.0,0.01666666753590107,-0.5300815667077898,-0.08626403274089098,1.812355127158761,0.6206964150693267,-3.117848527416587,-7.442675720325112,0.3409763835802592,20.365605784078284,77.44535665899686
1698923884540.0,0.01666666753590107,-0.8379382862202822,-1.0605191072463989,1.858157677912712,0.3113955611631274,-4.113087937761843,-7.390152336883545,-8.377645366107302,31.944719616068767,78.09250342247722
1698923884557.0,0.01666666753590107,-0.8037623873088509,-1.7883391685381531,1.693878969860077,0.37095140052475034,-4.834341480144858,-7.553407547107338,-17.433309950743432,41.285433607978916,81.59308465513548
1698923884574.0,0.01666666753590107,-0.8018153448943048,-1.946109517610073,1.1497019500434398,0.4176383328977972,-4.971110249981284,-8.098686390686035,-19.963212019316153,49.38915252987556,80.94601985392515
1698923884590.0,0.01666666753590107,-0.8046862972207367,-1.7958841770902274,-0.524299768435955,0.4963476394101977,-4.798727145928144,-9.768791686248779,-15.172218514693022,49.04015718404459,74.04459864105834
1698923884607.0,0.01666666753590107,-0.7855170479789376,-2.098156228338182,-1.9925082806915044,0.564432749120891,-5.09171786635071,-11.232995639038085,-14.514992099545008,36.88484859367183,69.31727445233078
1698923884624.0,0.01666666753590107,-0.7547079220868647,-2.3469050714522597,-2.3379256461828946,0.6136635207578539,-5.325301873558759,-11.58060379257202,-19.107580561610316,22.879579851506538,67.13403180489289
1698923884640.0,0.01666666753590107,-0.7405008252970874,-2.548839848682284,-2.435757074859738,0.6085759883604943,-5.48780860350281,-11.693880043140053,-24.304990812416715,7.341980367163684,59.12668685218511
1698923884657.0,0.01666666753590107,-0.921701734317094,-2.183093980911374,-2.2975059575110675,0.39743732945546506,-5.080196063122153,-11.573122496905922,-26.412351765723063,3.7042540586134503,47.924541405771386
1698923884673.0,0.01666666753590107,-1.1642907396271824,-2.3970199324473738,-2.314554707467556,0.13467384338378904,-5.2452463400691745,-11.608137696185707,-25.712166875790253,5.807621912576278,40.674729318815146
1698923884690.0,0.01666666753590107,-1.17230541151762,-2.934676026062667,-2.785487042853236,0.09292495193481445,-5.730221813854575,-12.099696640014647,-17.866096349764828,-3.91694785691494,40.340698917455676
1698923884707.0,0.01666666753590107,-1.3028773725405334,-3.377354326866567,-3.138081752628088,-0.08843589688725768,-6.15160101378113,-12.465410943603516,-12.828500572705677,-12.313547851742674,41.33958676281336
1698923884724.0,0.01666666753590107,-1.4377116671830414,-3.4921187701657415,-2.9957173547416924,-0.28924956113286315,-6.249912627190351,-12.336273691558837,-13.079172784113375,-15.493502075513959,40.761831306205735
1698923884740.0,0.01666666753590107,-1.7922732931166887,-2.9844898582845922,-2.4774463450759647,-0.7242460021972655,-5.720495077349245,-11.833940255737303,-12.418808750815387,-6.0313562847842705,37.81087539605841
1698923884757.0,0.01666666753590107,-2.1778967045292257,-2.0275114972725508,-2.176939549934864,-1.1477206400331108,-4.773289045549929,-11.534814685821532,-1.9392554836803466,5.7300574305879675,35.33390046336412
1698923884774.0,0.01666666753590107,-2.406026391854137,-1.438695709784329,-2.0621026259213684,-1.377713417816162,-4.213345132280886,-11.411662937927245,16.273815329694774,12.4586885178318,28.96064070354146
1698923884790.0,0.01666666753590107,-2.8877131993576883,-0.21379297280609608,-1.8528905511647462,-1.8486230299133806,-3.09360694334656,-11.169400241962075,39.37757052749759,6.302318853781962,10.521387322027723
1698923884807.0,0.01666666753590107,-3.4465444752097127,0.5508411538809538,-1.2542957124620675,-2.4064721628602594,-2.4384935140863058,-10.536133318328856,46.57627230889462,-2.0968070303782076,-6.369448514265786
1698923884824.0,0.01666666753590107,-3.7298248257398603,0.6295186770156026,-0.7557043857783079,-2.688089987005666,-2.4654285750240086,-10.002675260925292,40.97118001936121,-3.95873111227567,-22.921640156415478
1698923884840.0,0.01666666753590107,-4.079674620720744,0.39021512311697004,0.2728255920112133,-3.005321780041605,-2.7925360845819114,-8.940547549438476,17.43861017753936,7.2357581189652915,-34.19050972083105
1698923884857.0,0.01666666753590107,-3.9645930742964146,-0.30359920819848774,0.7087205162853002,-2.827851581982523,-3.4958331145137547,-8.493879302215575,-4.216372251070897,24.787758828236974,-28.459338969408375
1698923884873.0,0.01666666753590107,-3.8506326408565044,-0.6371358740210533,0.5582312641322612,-2.6229975563049317,-3.7897213682979345,-8.646360020446776,-24.130581931960442,35.17881077297522,-15.617919093887618
1698923884891.0,0.01666666753590107,-3.3493224106028676,-0.5889020044669508,-0.1651584134966135,-2.0091843979433177,-3.625867607659101,-9.392902025604247,-46.87114523574242,28.91288402086473,2.2836404518215594
1698923884907.0,0.01666666753590107,-2.833290412035584,0.2646253344208002,-0.7454775907963513,-1.452083453015238,-2.651876444786787,-10.005967288208007,-56.62453242711557,11.106609882945461,7.584970323302412
1698923884924.0,0.01666666753590107,-2.6881948356196284,0.800736536681652,-0.761207659369707,-1.313818161010742,-1.975664405657351,-10.065672692108153,-61.57559653757982,-12.474111938751333,2.6181184440150806
1698923884940.0,0.01666666753590107,-2.534974112676084,2.0916177664801476,-0.3226362093627453,-1.253514060565084,-0.48826633202433584,-9.696666361236572,-56.20146709483039,-43.20044106633207,-13.876592247070487
1698923884957.0,0.01666666753590107,-2.4499853605680166,2.6050384135052562,0.6273568228065968,-1.2811973095215856,0.1476931916937232,-8.794201972961424,-39.11894882966964,-55.433381586811194,-29.826483294056466
1698923884975.0,0.01666666753590107,-2.349300003764778,2.7573464055180548,1.324905956736207,-1.3006502710755914,0.3778359724067151,-8.130708837890625,-16.48089129740393,-57.80951219150483,-49.12270343525878
1698923884990.0,0.01666666753590107,-2.2074293807446956,2.7855256212979556,2.645620891523361,-1.3028948351319878,0.42437326717600227,-6.829460235595703,9.633900715806591,-48.393754911183755,-69.9747689524037
1698923885007.0,0.01666666753590107,-1.9154371698401866,2.088916983088851,3.5411902595877645,-1.0812814708985388,-0.2944859274163842,-5.934777002716064,11.449943001954493,-32.534082979170826,-76.05322067217568
1698923885023.0,0.01666666753590107,-1.6728163080871103,1.876241762266308,3.6522032413989303,-0.855927312701568,-0.5060734991326928,-5.825541551971435,-0.6953170994887061,-19.706302991422586,-81.67883084997582
1698923885040.0,0.01666666753590107,-1.3159773848712444,1.7933774549663066,3.2346178807973858,-0.4740521479066461,-0.5395923223748803,-6.253205823516845,-12.202879150394603,-8.457641395440138,-93.43264384546231
1698923885059.0,0.01666666753590107,-0.969983242405206,1.3804710459612308,1.996781720227003,-0.09950937182642519,-0.9094964788690209,-7.498938874816894,-3.2501359115970474,-18.12681662321526,-102.6272805815934
1698923885074.0,0.01666666753590107,-0.7866619802303612,1.2346956705875693,1.0758768353760242,0.07811039077118039,-1.043272350499779,-8.423250353240967,12.797128660074161,-37.67842436767352,-113.28807889477024
1698923885090.0,0.01666666753590107,-0.06322166839279234,1.0523914765007794,-0.20581717162132263,0.7327749802853911,-1.2494731146112084,-9.705195704650878,16.77156365791216,-57.16933563607246,-116.5586125259933
1698923885107.0,0.01666666753590107,0.6746242584813386,0.5341359566651285,-0.696771719816327,1.383548919036612,-1.775150016619265,-10.201244945636391,5.9345503061303875,-65.7680008010795,-105.55378441451208
1698923885124.0,0.01666666753590107,0.8499557640112936,-0.02327478486448526,-0.9381202235460281,1.4477434145169332,-2.3195317652277647,-10.453383723449706,-2.3139470683859638,-69.5782218295711,-90.9843010657687
1698923885140.0,0.01666666753590107,1.0106307484835386,-0.4336364778228104,-1.313158235797286,1.4450498645840213,-2.7033522188715633,-10.843638594055175,-3.0725857844528006,-67.35723555677973,-77.94900797820443
1698923885157.0,0.01666666753590107,1.024280576716736,0.048484629444777966,-1.5764882697105407,1.3419495190609245,-2.217179644256085,-11.112537368011473,6.252365411513427,-61.78953172276296,-75.72902574322103
1698923885174.0,0.01666666753590107,1.1783886038888245,0.4312700409524142,-1.828500206273794,1.3929758871440774,-1.8640346071220932,-11.360337239837646,21.063294239869453,-56.275834194513486,-77.14209625984829
1698923885190.0,0.01666666753590107,1.5029409490711987,0.8604990775965153,-2.355265488040447,1.600223950085044,-1.5291457960382102,-11.865813065338134,35.767422815268574,-50.44453286985842,-71.99694207883437
1698923885207.0,0.01666666753590107,1.910877460709214,0.7278723760008812,-2.3996517422556876,1.9261345688754226,-1.7601865485042332,-11.885415591430663,42.630734987661306,-49.448018515237315,-63.16992661440088
1698923885224.0,0.01666666753590107,2.247319930975884,0.6940323579803108,-2.1759663209885356,2.1775258253902194,-1.9051850942865014,-11.6316302154541,45.15481431996659,-49.537063691446775,-52.36329010206592
1698923885241.0,0.01666666753590107,2.753411404156685,0.7011331298962235,-1.2512982842117548,2.564937380594853,-2.048388281084597,-10.662727315631509,42.622200666293374,-46.84970868703233,-44.830305202310115
1698923885257.0,0.01666666753590107,3.304473215050995,0.2070031665354967,0.11725567559301853,3.039587951052375,-2.6428990653440354,-9.262418035125732,33.7611298786582,-35.39829548685899,-32.85893019119122
1698923885274.0,0.01666666753590107,3.51277606600821,-0.23933482581973076,0.6428998443752527,3.2040397141169756,-3.1588492308467626,-8.71399621734619,20.947718901376376,-14.926695412145866,-15.631755349598771
1698923885291.0,0.01666666753590107,3.7448084598600864,-0.12956336850225925,0.7195283260256051,3.4272989823939275,-3.113957949718833,-8.616582137298584,19.791835742851365,4.912569164302066,2.429340339648979
1698923885307.0,0.01666666753590107,3.842463947448134,0.8679305427715182,-0.33177871623933314,3.532943021050468,-2.172287924736738,-9.650129066467285,24.33938593752961,6.932716285870166,14.40783496920397
1698923885324.0,0.01666666753590107,3.571348374225199,1.632042399150133,-0.7249258011549711,3.253719288967363,-1.4830574140802024,-10.018238156238198,20.26890738090383,4.933288116262476,35.551305384645616
1698923885340.0,0.01666666753590107,3.4290193399131295,1.9482517903357743,-0.7524567821592092,3.0847785439204425,-1.201739011272788,-10.033051694488524,10.682305725099576,1.6228670340601927,48.60257086958397
1698923885357.0,0.01666666753590107,3.05346285674572,2.3777026530370113,-0.3974591028958559,2.6674392670344558,-0.7861953856319188,-9.67167746593058,4.055779135758265,1.1804080199570015,54.496962651602445
1698923885374.0,0.01666666753590107,2.9591850288972257,2.759363882820308,0.48711190129220483,2.535459010116197,-0.3990823201835155,-8.787318643188476,-4.345050026826176,15.412777777260871,58.267476375354185
1698923885390.0,0.01666666753590107,2.959572566910088,2.7973773871332406,0.7940186266034841,2.535758066128008,-0.33279344623982904,-8.489988724517822,-14.101163744338628,25.26534956066636,64.66005532524422
1698923885407.0,0.01666666753590107,3.0345424676984547,2.702854352352023,1.045212817043066,2.6237451598018406,-0.37364451206624505,-8.257302250671387,-25.314694262325116,31.262018302863897,72.85829723506468
1698923885423.0,0.01666666753590107,2.90728386900723,2.6821456185832617,1.198911678892374,2.5236376028865575,-0.2753323141351342,-8.143278981128335,-41.31883664811486,35.91749914680668,83.42186097521723
1698923885440.0,0.01666666753590107,2.7277219593659043,2.544919752629101,1.3867115477859973,2.3716057244013995,-0.2917927428096533,-7.993940068054199,-50.70829086994222,40.28620766825731,88.45281439330854
1698923885457.0,0.01666666753590107,2.2252160895869135,2.374270632761717,1.897735070541501,1.9108717250881715,-0.3230667097344994,-7.5254247306823725,-56.18212058400633,47.47999512854652,92.00835132802871
1698923885474.0,0.01666666753590107,1.6029693032704293,2.130466844834387,2.4179379250526427,1.38773868061034,-0.37334494459778067,-7.061248883819579,-55.02740880292397,66.5708895380145,96.28036827649406
1698923885490.0,0.01666666753590107,1.1930007012829185,1.9297648242697119,2.58183961648643,1.1056718249226454,-0.4412804167047143,-6.93345895473063,-48.495466673209,86.19240426862784,97.93691454646476
1698923885507.0,0.01666666753590107,0.6932616658687591,1.8451776386998593,2.4203946705549955,0.7821553712598047,-0.4155427488580346,-7.1217030602604146,-40.62578759831742,102.2875128213311,99.41958469073445
1698923885524.0,0.01666666753590107,0.23590631267577408,1.54520860369727,1.8023446052759884,0.6010938889767974,-0.60363721678406,-7.759009030151367,-31.83976692928235,107.08333697724473,102.19706062615262
1698923885540.0,0.01666666753590107,-0.04783212035279721,1.4097957785144448,1.5603636488616466,0.5193918303892016,-0.6784560186639428,-8.004564337921142,-26.97217456066482,98.89447974734387,101.4937833680731
1698923885557.0,0.01666666753590107,-0.5150646148398518,1.2577584201365708,1.519931100708246,0.23104024100936948,-0.7848482088066637,-8.042572289276123,-23.62210679165155,87.2735207614033,97.84243253967598
1698923885574.0,0.01666666753590107,-1.1167543508179485,1.1698847602419555,1.9147873276293277,-0.166546945245564,-0.8289911557853221,-7.638850034332275,-19.575641472600243,77.32777495243509,90.00235208955264
1698923885590.0,0.01666666753590107,-1.4390641047053039,1.0654255839884281,2.1898609908282753,-0.3426701856750995,-0.9082992319084703,-7.353341486358642,-20.256910153626702,77.24217219156732,85.17122268581923
1698923885607.0,0.01666666753590107,-1.7756453989207743,1.0219845016688107,2.592760823473334,-0.46327816737070676,-0.908748290850222,-6.931961994171142,-27.55859069714002,85.96467210132127,80.49549374608195
1698923885624.0,0.01666666753590107,-2.014572959113866,0.6020061084508895,2.206811541107297,-0.5339068240843713,-1.27880193881765,-7.30321347362101,-34.948722190405,81.51655238548548,78.02735024798447
1698923885640.0,0.01666666753590107,-2.107096344510466,0.19943331580311058,2.037136526969075,-0.462230558013916,-1.6249138624444603,-7.45689129268229,-36.008822191104336,79.35543955095844,75.32590114821771
1698923885657.0,0.01666666753590107,-2.3666806160241363,-0.6439059526778758,1.14593412194252,-0.5360018966674804,-2.384025280187279,-8.329876488494872,-42.8411731159894,60.875666072193596,73.25890149026426
1698923885674.0,0.01666666753590107,-2.7549983810871836,-1.1267372540414333,-0.03574292903244495,-0.8149263900756836,-2.793134488866478,-9.503035301971435,-45.01382897021377,54.756666934413836,69.37402649414442
1698923885690.0,0.01666666753590107,-2.994137976595759,-1.3325864282362163,-0.6040589493274688,-0.9490013907834887,-2.9180818880058825,-10.063128852844237,-49.453188968439015,53.91520128904661,66.19478517136774
1698923885707.0,0.01666666753590107,-3.4986513868048785,-1.978565972317755,-1.7525538616687057,-1.3136682311460375,-3.431937273186445,-11.201572326770425,-60.00554778325816,49.77376048203898,58.56443250989883
1698923885724.0,0.01666666753590107,-3.7180531394034624,-2.5436528014332054,-2.971931405484676,-1.4414590370178222,-3.8712734239555893,-12.41782618560791,-67.28940494813233,40.152516960538065,51.37494123859756
1698923885740.0,0.01666666753590107,-3.7504631246209144,-2.68101106159538,-3.5520746416956186,-1.4046477481015025,-3.873817190154269,-12.999018638610838,-62.67653423932667,28.523564945721297,42.346708401215494
1698923885757.0,0.01666666753590107,-3.5721383555591104,-2.2376487240500746,-5.1318935171335935,-1.1613370043881237,-3.2870881458122283,-14.579491009521483,-40.162219244254075,20.82079861867191,22.72336317990459
1698923885774.0,0.01666666753590107,-3.221430482444167,-1.6397266700424253,-6.391966059431433,-0.7706332209713757,-2.623894285948947,-15.836297243499756,-19.53007898819438,13.710126876618936,3.8214771802437943
1698923885790.0,0.01666666753590107,-3.100225484703481,-1.741393292967975,-6.731845664539933,-0.6319193084165453,-2.7006584497429427,-16.174178952789305,0.4683537019897377,-0.5569234329999376,-9.567079267609063
1698923885807.0,0.01666666753590107,-2.969717821088433,-2.4835671660438177,-6.454868798068166,-0.5238812507629395,-3.459021825597435,-15.901389601135254,12.971956743390747,-14.292975946800096,-18.60942412959002
1698923885824.0,0.01666666753590107,-2.910399955201149,-2.611467862030864,-5.700937267181277,-0.5069720554076135,-3.601775880388543,-15.15679288482666,6.965918689199245,-22.719804651347015,-17.654140211893697
1698923885840.0,0.01666666753590107,-2.850388846352696,-2.355006837104261,-5.509930711200833,-0.5039791572019457,-3.3412570314384995,-14.980519787597656,-3.162942997313134,-25.235817530242517,-11.25540299269325
1698923885858.0,0.01666666753590107,-2.8823031570076942,-1.1695724794223903,-5.526137749636173,-0.6290763400755822,-2.127097441466525,-15.022268679046629,-6.200974214424605,-36.12618533161267,-13.158109280351214
1698923885874.0,0.01666666753590107,-2.8692876080900427,0.656656055592373,-5.522313222911953,-0.7260417995728552,-0.28640520455241203,-15.045312870025635,3.3300924538987435,-52.33719877943646,-29.941510509868653
1698923885891.0,0.01666666753590107,-2.8872113873153924,1.2934309142813085,-4.90951567133367,-0.8891464954100549,0.34371859874948857,-14.463371644482015,15.531302049928103,-62.496278716940864,-52.06072638221269
1698923885907.0,0.01666666753590107,-2.9457819419667124,1.6890626556195318,-3.1434798122793435,-1.14128585774526,0.7025495725654065,-12.732065153503417,30.368376842426937,-59.38531879529681,-75.049230675508
1698923885924.0,0.01666666753590107,-2.905670004069805,1.5688761872716248,-1.6055565432846546,-1.2189479202270508,0.5264261129401624,-11.209652172851563,42.395742329267016,-47.53198311341408,-87.11141305164223
1698923885941.0,0.01666666753590107,-2.73159996984303,1.4687193843871353,-0.9868021291285752,-1.1213843487061559,0.3456638875983655,-10.594941481128334,51.78444864538026,-33.09810292535755,-92.23037345718915
1698923885957.0,0.01666666753590107,-2.188194518920779,1.3098552487291395,-0.027657822254300114,-0.6251859085083007,0.06269932501912116,-9.62828256084025,47.116649555269355,-16.447913436543814,-91.34468916713526
1698923885974.0,0.01666666753590107,-1.5304356897182763,1.4582989665292203,-0.038648587346076964,0.025438246508687732,0.15682137778401373,-9.633220017242431,22.728924661436274,-12.752492520074481,-87.11223267434262
1698923885990.0,0.01666666753590107,-1.30054790667966,1.7008906021878123,-0.43648996755778785,0.234931037902832,0.40866131878122686,-10.03559553375244,-1.849143090413076,-27.69947530160258,-84.30897277480766
1698923886006.0,0.01666666753590107,-0.8253674123302102,2.179461469627917,-1.191338028767705,0.5921158519469201,0.963367915918678,-10.818499476623535,-12.837824634696391,-64.11211022926912,-87.87980933326865
1698923886023.0,0.01666666753590107,-0.570140751504153,2.602330323590338,-0.8910948529988527,0.6798034877501428,1.437868830506131,-10.547805051422118,-1.3042282505519314,-87.82632212187829,-97.91729141297932
1698923886040.0,0.01666666753590107,-0.3169097945399582,2.699038593456149,-0.2950321631222963,0.7225998424254357,1.5406696450933812,-9.977386505889893,21.79730393411946,-100.56743213170094,-109.53751273848953
1698923886057.0,0.01666666753590107,0.12214936591871083,2.398800678384304,1.1866261978149413,0.8628101310178637,1.1468236181281506,-8.511536539459229,51.855598725964285,-99.90489012183137,-120.81984460575919
1698923886073.0,0.01666666753590107,0.44560540376435964,1.9549920583762228,2.451541503968835,0.9859618789121508,0.5811934759162366,-7.243357847595214,57.04196968352465,-87.56988266949016,-122.61854760292537
1698923886090.0,0.01666666753590107,0.6536574582982808,1.8092991005890071,2.745165553858876,1.031002724578604,0.31289325237497684,-6.93929423675537,49.1686637781838,-74.97128455669981,-116.6040742651089
1698923886107.0,0.01666666753590107,0.8662459506854414,1.4770472138799726,2.8686873041093346,1.053148980337195,-0.15951280882507562,-6.798634889221191,36.80553302193506,-64.96522134717122,-105.20457050262766
1698923886123.0,0.01666666753590107,0.9195284819312393,1.3525060574539005,2.4182079741656777,0.9841660769699839,-0.36601255588307974,-7.236475102344155,29.415760113601504,-63.91724493224866,-104.99819633685573
1698923886140.0,0.01666666753590107,0.8818105995640159,1.3596179352857172,2.198771442514658,0.8331816480114124,-0.42975832121521235,-7.443124048614502,28.078670328848762,-63.658858875947075,-111.93695136372583
1698923886156.0,0.01666666753590107,0.7501137261644005,1.3884801648937164,1.9181816462427377,0.5662280898387544,-0.5195408834710716,-7.69930362625122,40.02987408380132,-57.6399664057376,-120.05006862592042
1698923886173.0,0.01666666753590107,1.0041280885912478,1.2252528655901551,1.836495881202817,0.7462421271617524,-0.7993632025018333,-7.755417727661133,45.40221743208279,-48.50549680600516,-115.81446341592041
1698923886190.0,0.01666666753590107,1.1690534239843486,1.2395856345862148,1.6345055743932724,0.8619119766017421,-0.9041095251336694,-7.930044811248779,42.19198071085261,-38.67282477874651,-104.96381999476306
1698923886207.0,0.01666666753590107,0.9402784244932234,1.2556338291980325,1.1376719050318003,0.6024403351496904,-1.0283088823847473,-8.393322832489012,35.698482300881054,-25.206196707359464,-93.50787154898083
1698923886224.0,0.01666666753590107,0.7667491460796445,1.2207454711683094,0.6903191826760768,0.429608829741925,-1.1595410608820615,-8.81709652633667,35.011368685472355,-18.700827428610424,-92.07422167238433
1698923886240.0,0.01666666753590107,0.9436676285400986,1.4165829544365405,0.33922260250449177,0.6248859391810372,-1.058834807421267,-9.144504187884927,34.46181166485313,-13.602335392458734,-93.33041640415472
1698923886257.0,0.01666666753590107,2.092854760929197,2.0900945024356243,-0.14669161343574524,1.8189939623850397,-0.4970955351680517,-9.60194575805664,25.65832790965763,-7.482649820667389,-79.8190727918189
1698923886274.0,0.01666666753590107,2.784278251585364,2.013316090920567,-0.4579577030003071,2.5450355975611134,-0.6319187238946556,-9.898078575897216,17.377078710854008,-2.188460271633551,-62.633633821149814
1698923886291.0,0.01666666753590107,2.942833905816078,2.0139979357048867,-0.39731355694532394,2.745999009008333,-0.6753136289849877,-9.825953250885009,16.948586793273257,4.282909392644223,-50.598625352628495
1698923886307.0,0.01666666753590107,3.4142844198569655,2.0184487776339055,-0.3610650164783001,3.278858406399004,-0.7407055540889501,-9.770587337493897,24.583836700377073,6.629087483393242,-38.143703684123956
1698923886324.0,0.01666666753590107,4.003132648310065,2.2855156599879263,-0.16318389855325222,3.901500393444998,-0.5433332624688744,-9.552415711212157,31.067470609639837,0.29250061004997463,-29.816985916015565
1698923886340.0,0.01666666753590107,4.023005515776575,2.730467166420817,0.018625205492973328,3.934719895813893,-0.18480127159953116,-9.344269804382323,38.72379165033314,-4.113298720079881,-22.91556470314875
1698923886357.0,0.01666666753590107,3.4577988596737383,3.215171714310348,0.6163759945869446,3.3776193162119945,0.18106208507120608,-8.7087589012146,26.65750091541316,-1.9478653640159707,-7.789405569123709
1698923886374.0,0.01666666753590107,2.8933523742884395,3.50485900927335,0.37634675676226614,2.801663941878639,0.4495119462162256,-8.941744650268554,-12.221710835709976,-8.366673520979322,9.53196014244415
1698923886390.0,0.01666666753590107,2.9193484008103607,3.6342397146850822,0.07884732674360274,2.7753278332147744,0.6628951691776513,-9.265710062408447,-55.257022687346876,-21.715061626323337,31.348327988310764
1698923886407.0,0.01666666753590107,3.0257661637857556,3.4465184639856217,-0.2778904741853475,2.7439038633599875,0.7205059388861059,-9.693823246765136,-87.61176538948068,-34.568284068729874,50.72411300315456
1698923886424.0,0.01666666753590107,2.9283415623441336,3.617062369912863,0.015292261677980422,2.525582709072344,1.1168956589847803,-9.458742571258544,-89.46497329622356,-32.210509597430644,55.056624937098704
1698923886440.0,0.01666666753590107,2.9746494322717187,3.5554613615244626,0.3740069156378507,2.4709650202326476,1.273716013855487,-9.150189832305907,-79.86743053114259,-19.28205774395829,57.7441267905803
1698923886457.0,0.01666666753590107,3.0346172865003345,3.389502737560868,0.9929039531350136,2.4727605984125285,1.3566152463383971,-8.584259830364584,-64.79879012766553,13.575590932989902,62.86917289467771
1698923886474.0,0.01666666753590107,2.9918045652121306,3.444056165525317,1.0088567245483397,2.469468424999341,1.581221143451333,-8.605060041809082,-65.269936576613,44.03407248472129,67.40906303220179
1698923886491.0,0.01666666753590107,2.781188468876481,3.517877188539505,0.8765829280436038,2.3696603990199043,1.8314153630681336,-8.775197997283936,-67.11384859589549,68.2138369013477,69.59052983045548
1698923886507.0,0.01666666753590107,2.4641139852941034,3.187427382816374,0.38142274485230443,2.2846661487528124,1.719935348267108,-9.313145182800293,-56.36962976729069,90.20918387799898,69.67548372335209
1698923886524.0,0.01666666753590107,2.2347686385691166,2.6702012060284614,0.24909809494316576,2.268355784657027,1.3266881639778614,-9.465027350616454,-39.49260115840436,97.12100746897173,72.23167519004019
1698923886540.0,0.01666666753590107,1.9429791106298564,2.1745234287038446,0.306584653750062,2.200420415298082,0.9039616410955786,-9.414000927734374,-20.331285791046263,98.23709453029765,75.16403249507758
1698923886557.0,0.01666666753590107,1.5334306337505579,1.3884572224095464,0.6923252618014812,2.076819681527279,0.14051044058278203,-9.019407151141762,-2.224427620916015,89.60641968374536,80.42714404305762
1698923886574.0,0.01666666753590107,1.0848935969810933,0.7217595922090113,1.2660358346164227,1.8155525349605828,-0.5364499326959252,-8.432078971862792,-2.394334339492194,78.94911842742354,85.17767721458489
1698923886591.0,0.01666666753590107,0.7613332585107535,0.5072567175678908,1.6154846475809812,1.6440679141171275,-0.7522273573175072,-8.0698063331604,-12.85413512643438,63.217089070619814,88.88293189591175
1698923886607.0,0.01666666753590107,0.3975158015191555,0.11877404426671564,2.065152076619863,1.4116807885434477,-1.0829264616265892,-7.614608742523193,-41.86429214013749,37.44207933182357,93.69416495859292
1698923886624.0,0.01666666753590107,-0.013553235990926622,-0.12169336577951907,2.4944085857927796,1.0408787333615124,-1.2116147277947515,-7.194277298083901,-66.00395651614676,17.040737998007778,97.87379676834468
1698923886640.0,0.01666666753590107,-0.14379150808006524,-0.23095307418256997,2.6521792271256444,0.9105443074215203,-1.1656759103752672,-7.052718955883384,-75.91579043588587,6.243892988734849,100.00405763839078
1698923886657.0,0.01666666753590107,-0.46635633270703253,-0.4125750581588596,2.8499019396185874,0.589871068694815,-1.1355987520195543,-6.872855140686035,-69.18597772591562,13.979381471437302,102.64482733757116
1698923886675.0,0.01666666753590107,-0.7517229149267077,-0.6532390136905014,2.5639965012818573,0.33339228891581296,-1.2392976114250718,-7.164798105621338,-61.83240482018313,22.506830815289554,105.96872523677952
1698923886691.0,0.01666666753590107,-1.173253286826983,-0.8926664862297475,2.104722454985976,-0.020201368768513202,-1.3242917338280007,-7.624334602245688,-55.6786878308522,28.690049099193065,108.6407635419802
1698923886707.0,0.01666666753590107,-1.420830382747948,-1.0545651672780514,1.8491881895154714,-0.1999160578187555,-1.3753181567100807,-7.875875998687744,-59.048897827727835,32.535247526424314,106.58084679019606
1698923886723.0,0.01666666753590107,-2.0156302130818364,-1.1753757588736713,0.9797942961931229,-0.71661463053599,-1.3676866023857146,-8.738536784362793,-68.89523023332652,33.961165628880366,95.21959891725606
1698923886740.0,0.01666666753590107,-2.8545585332527756,-1.9709265634804962,-0.5148182388633489,-1.443105196789652,-1.955463146486692,-10.219350511169432,-74.90913666544188,33.702748836727515,77.43501575259346
1698923886757.0,0.01666666753590107,-3.2262060262829064,-2.5427049991890787,-1.217468495324254,-1.7268180935181676,-2.376094468921702,-10.907384213256835,-64.4004466650812,34.6538287729897,64.77575189959506
1698923886774.0,0.01666666753590107,-3.550846561205387,-3.2886145516619085,-2.719008783817291,-1.9602529015138743,-2.9996342541907914,-12.39148996734619,-52.51183305613535,33.9523205339052,57.1169856511789
1698923886790.0,0.01666666753590107,-3.7716307080730793,-3.6680703803554175,-4.10409477622807,-2.0694880599975587,-3.2375579893698916,-13.7522943359375,-54.39370726682478,26.363963290548106,53.72328663374759
1698923886807.0,0.01666666753590107,-3.8545150352478026,-3.586054360447824,-4.85796785492599,-2.0955252953127026,-3.0277660688987,-14.489408587536214,-66.40697865831254,13.369865635189118,50.500755572011386
1698923886824.0,0.01666666753590107,-3.7828541128769513,-2.8092244767934083,-6.195221836581826,-1.9985598358154295,-2.0958231822807343,-15.811756676483153,-72.08169106605588,0.2200856104481772,39.852091089895055
1698923886840.0,0.01666666753590107,-3.9669770468235015,-1.7196142996191977,-7.035656177401542,-2.2088008152283725,-0.8101367446463554,-16.640449141582845,-50.086111862972835,-18.870456884194983,14.053827118295855
1698923886857.0,0.01666666753590107,-4.1240316488415,-1.3344979609459637,-7.115095040297508,-2.4153007084168494,-0.33683307701945303,-16.72005693130493,-22.50060680540838,-18.32942223211264,-5.764966954322725
1698923886874.0,0.01666666753590107,-4.0667634089604014,-0.7590396676808595,-6.855957197377085,-2.4076690444946287,0.2814695017158985,-16.46507445449829,-1.7190719560671148,-8.44265596040113,-17.457823499674607
1698923886890.0,0.01666666753590107,-3.4784652156054974,-0.1262524173233658,-6.991296811193227,-1.8387470211304724,0.9151848267037421,-16.603638875579833,7.0362995197279945,-4.028455817757275,-18.993605194930314
1698923886907.0,0.01666666753590107,-3.204432293631136,0.4832293607704341,-7.030070486223697,-1.5845127323426305,1.5002677843391894,-16.648379934582113,20.661494701565115,-9.018061831934268,-26.197374976691496
1698923886924.0,0.01666666753590107,-2.565024675285816,1.520896584739536,-6.538734829756617,-1.0179849106386303,2.443732949109748,-16.17851844329834,48.45319804753038,-27.826933461704186,-52.178707654840906
1698923886940.0,0.01666666753590107,-2.183095442216098,1.8594415802434086,-5.054578806784749,-0.7369653446473181,2.6566673323251306,-14.721197820281981,69.41959068609756,-37.71154395495891,-75.0708482242311
1698923886957.0,0.01666666753590107,-2.033672065728903,1.899328915604204,-4.090733190351725,-0.7001544941224157,2.5275300072152165,-13.785962796783446,84.02608682995323,-33.69098383588217,-90.00468118405962
1698923886974.0,0.01666666753590107,-1.7539454621575772,1.5205973095320164,-2.4928181017309425,-0.5273230617798864,1.8839386734444648,-12.215665782928466,93.15705254264147,-16.13256701765891,-94.18388269189367
1698923886990.0,0.01666666753590107,-1.2958064112409948,1.0349281543940305,-1.6190572453707455,-0.09816248726211488,1.1903682704200969,-11.35105970840454,91.43292155083348,-1.0462477367323184,-88.5010628496055
1698923887007.0,0.01666666753590107,-1.1604498462900519,0.9230718536265193,-1.4699989028036593,0.04623780036605894,0.8779249674694379,-11.202020655059814,87.1606655457472,8.732727264262401,-79.46430593613927
1698923887025.0,0.01666666753590107,-0.9959040117338299,0.9856707870110869,-1.5810241595745085,0.2536355922423303,0.6733703494301065,-11.302726762390137,89.85551668277571,12.82360247329713,-65.80675529443015
1698923887040.0,0.01666666753590107,-0.9739049458935857,1.3247840839222074,-1.8305191448807716,0.30930078084096313,0.7977191616218536,-11.538555625915526,95.44153908414646,8.690568775384143,-59.28994203372675
1698923887057.0,0.01666666753590107,-0.9394067562252283,1.779920592021942,-1.805484072345495,0.3631703181944787,1.0196317279975862,-11.495459996032714,104.21633092218603,-1.4091585257801331,-56.652925523495306
1698923887074.0,0.01666666753590107,-0.6244806828483939,2.796641474074125,-1.2756330995231866,0.6658868983395397,1.6838729780219495,-10.933121296581625,122.33629686566377,-16.765583827293813,-64.54026063739137
1698923887090.0,0.01666666753590107,-0.4002009489499032,3.2371254797041416,-0.010579846203327178,0.8593684661313891,1.8167511701606214,-9.631723641204834,140.28148509847006,-24.165974264692153,-74.42538168728655
1698923887107.0,0.01666666753590107,-0.34870515499040483,3.4283050541639324,0.7843406976759433,0.877324978582561,1.6605296579658984,-8.783428650012612,156.0318876641411,-28.057921921697556,-81.05443544662077
1698923887124.0,0.01666666753590107,0.006981237189471721,3.251177385932207,1.9975632259935139,1.1854287316586822,0.9808752232976258,-7.4696104890018695,164.80955501182126,-34.5315171604277,-76.03537338787444
1698923887140.0,0.01666666753590107,0.2386087035022676,2.6515678172290325,2.9034084888786076,1.3687346501339226,0.0040413843452930445,-6.471227812194824,156.44820135443172,-40.57323270774876,-64.21403714225322
1698923887157.0,0.01666666753590107,0.3942733855318278,2.6080156757503747,3.10890884963572,1.456721634209901,-0.3811260999932885,-6.170456228637695,135.86878674366994,-48.88353070109245,-49.79062763419433
1698923887174.0,0.01666666753590107,0.6363374171197415,2.6728452907964586,3.526959489661455,1.5622161448605358,-0.685339348436892,-5.640141145434975,102.03389423707019,-61.00555577963973,-37.7464872027527
1698923887190.0,0.01666666753590107,0.4990089675739407,2.896469629526138,3.832242413163185,1.3034925818294285,-0.6730690649285912,-5.266196189117431,82.63487291867001,-66.00148398766721,-40.170709169392396
1698923887207.0,0.01666666753590107,0.4679701976444572,3.1333748901113867,3.956228273794055,1.1510117905329913,-0.6076774320855737,-5.083039762115479,69.8287941494622,-71.02960970744215,-46.14488439110579
1698923887224.0,0.01666666753590107,0.3500274165701121,2.851008147294819,4.241222442504763,0.8701421178737655,-1.0797840719476341,-4.7280993659973145,55.964176077780394,-71.21881960782983,-46.07736114097104
1698923887240.0,0.01666666753590107,0.32028080534301695,2.2080296847254037,4.025873472428321,0.7284352705806494,-1.8296186889097092,-4.901678986358642,40.19304047288375,-66.58046546323085,-51.59865383957757
1698923887257.0,0.01666666753590107,0.3374870839487761,1.9622700865551828,3.719526719087362,0.6604997619410976,-2.1456530157893896,-5.179406963458657,24.90969136530004,-57.34223162962758,-61.02054121467874
1698923887274.0,0.01666666753590107,0.37143984162881966,2.493685824476182,3.280765299466252,0.6355102455805987,-1.6609768172115087,-5.598391669464111,11.93366980557949,-41.39836395571591,-69.40864189285804
1698923887291.0,0.01666666753590107,0.25013034233404324,2.9138229153871533,3.075107702320814,0.5152016121577471,-1.2663824560970067,-5.792022728729248,16.153137839891695,-26.860355826215248,-80.99175480060757
1698923887307.0,0.01666666753590107,0.08110281405281275,2.747972720234096,3.0011311964839695,0.40192590957898644,-1.4748279303953051,-5.843947561755776,26.5269794154688,-7.738739225860555,-92.44597520852977
1698923887324.0,0.01666666753590107,0.41937633567154403,2.258572123482823,2.8309049782037734,0.8806166040064767,-2.0471917647764086,-5.967847497668862,32.541374206109815,11.259138252395601,-81.28914806725909
1698923887341.0,0.01666666753590107,1.0323805157378316,1.601643169233203,2.70880887684226,1.6129430368067696,-2.752882704107463,-6.0588271607548,14.315113443673754,23.39811756801015,-57.16801057937348
1698923887357.0,0.01666666753590107,1.359078275451064,1.6724211712896824,2.348068270012736,2.050633064336702,-2.6660926016658544,-6.419453201293945,-23.24966169885263,26.960882550419495,-36.923200105861454
1698923887374.0,0.01666666753590107,1.7584785755425691,2.3916207037523387,1.5315174936056135,2.576459530883282,-1.7981947921201586,-7.29722738494873,-62.568507967413744,21.154668510585886,-32.76861801489073
1698923887390.0,0.01666666753590107,2.572268362803757,3.7313887140557167,0.3325052769482136,3.4657558830928057,-0.2934387564510107,-8.565406076812744,-72.0660635932349,11.521169922166678,-37.86213938087394
1698923887407.0,0.01666666753590107,2.9075024801939726,4.494752674676477,-0.18033727792799473,3.8551129280757155,0.6542161881595849,-9.153781134796143,-76.18655962515268,-3.3694780994173876,-47.32310226821674
1698923887424.0,0.01666666753590107,3.149780958250165,4.583420553688705,-0.829271141770482,4.105606057573855,0.995239994867146,-9.905710093688965,-76.8498666162093,-26.495386375462907,-34.13615507541609
1698923887440.0,0.01666666753590107,3.004580167894065,3.718195762744546,-0.7062848135709762,3.911526158562675,0.33818186127990485,-9.867253229522705,-96.80722857850134,-30.326087726180806,-13.906676669043454
1698923887457.0,0.01666666753590107,2.9352216772466897,3.2358348553717136,-0.5111217224329709,3.787177382903546,0.1336269646793604,-9.77507646560669,-133.71044696594592,-16.111424167083136,8.269736914957564
1698923887474.0,0.01666666753590107,3.361621043422818,3.8921523997247216,-0.888207314863801,4.1747389227718115,1.2725187668949365,-10.303447429004311,-159.90852545212192,5.726565496374798,35.63819905126652
1698923887490.0,0.01666666753590107,3.4187820235371587,4.762385374219716,-1.8400380838543176,4.241925987664238,2.5182519643254575,-11.350910070800781,-147.36306621107428,22.814532544945923,42.686066350127575
1698923887507.0,0.01666666753590107,3.2900416618555783,4.980765967077017,-2.31245802744925,4.166209506292269,3.0614360275819896,-11.889455806732178,-119.42763348685716,36.899072462618385,39.54462670931235
1698923887524.0,0.01666666753590107,3.2335780163556334,5.237075308573246,-2.896887562677264,4.227411286230012,3.6450229745060203,-12.522273233032227,-86.20937728871532,43.175995819292595,28.667495814553682
1698923887540.0,0.01666666753590107,3.5663919208616015,4.942687288573384,-2.9314719693243503,4.65657193381302,3.55120034307912,-12.57748950881958,-81.80272365133068,41.066321139404906,24.284068235441676
1698923887557.0,0.01666666753590107,3.56518254507184,4.544376537284255,-2.8042385050743817,4.7391721102841196,3.3616093529850244,-12.468254058074951,-90.88850766265928,31.695523579295436,30.852442594189498
1698923887574.0,0.01666666753590107,3.5034929816171525,3.1957614959195255,-2.2829081078380344,4.746204785399883,2.3234240234259516,-11.971307575988769,-101.40165777654796,17.80226310932918,50.69909743531938
1698923887591.0,0.01666666753590107,2.9055548532575366,2.0200249409094453,-1.4191267937004566,4.1692023314327,1.383400596607104,-11.123161637878418,-99.35988200719937,8.139039537642077,66.16531290509914
1698923887607.0,0.01666666753590107,2.6590941210806367,1.4489330261602997,-0.9603437457919121,3.920953692925721,1.0381866082007065,-10.676792665863037,-97.95779443475749,-2.9603175381784776,76.74553547663736
1698923887624.0,0.01666666753590107,2.13701246708557,0.607954130135104,-0.46038580693006514,3.3484400748103855,0.5039803901778068,-10.191368279266356,-104.19032156182662,-23.027280984760772,85.44171183733008
1698923887640.0,0.01666666753590107,1.4969715192727744,0.19766404110826552,0.05527589702010154,2.634369429668784,0.33339354929113757,-9.684245855602622,-103.50472766350825,-33.9304092870478,86.25763940539063
1698923887657.0,0.01666666753590107,1.1807019223324955,-0.03611380817145109,0.38116497069895267,2.2376801421016452,0.3260613249732181,-9.361627766418456,-92.63885292050176,-32.002236639069444,83.05693079805262
1698923887674.0,0.01666666753590107,0.6286494199004024,-0.31194833620768037,0.8267612047761678,1.6074066281307489,0.30077264300305395,-8.91166749191284,-72.35268565156531,-22.79968883633219,85.79772178743865
1698923887690.0,0.01666666753590107,0.08219444521442056,-1.1924201249159871,1.099585043221712,1.025017074297741,-0.43035665243454274,-8.63184517288208,-64.81240269468135,-19.34937267332335,99.82972389001537
1698923887708.0,0.01666666753590107,-0.09111454151198267,-1.870291475559771,1.118255841422081,0.8274955104000866,-0.968752604631707,-8.603563081249595,-66.06449931294975,-19.504257458037145,116.44468497063748
1698923887724.0,0.01666666753590107,-0.5477193685986101,-2.324719396998733,1.2788035462528466,0.3474580775387585,-1.235257323058322,-8.425943245586753,-67.45968156414075,-18.165547210903817,126.19012182181673
1698923887740.0,0.01666666753590107,-0.9450909393414855,-2.004714705183357,1.456853005504608,-0.051924686896055935,-0.7746727056205273,-8.231265307617187,-66.57564334967682,-14.310214490491562,126.08934921080237
1698923887757.0,0.01666666753590107,-1.2010564358361064,-1.8241234524942933,1.4291338084518908,-0.30211868731714786,-0.46043373772501944,-8.240542839050292,-61.63699993821824,-14.797708997217468,122.04914205257809
1698923887774.0,0.01666666753590107,-1.821523352998495,-1.9414462019741534,1.3047270920604466,-0.9080013449404388,-0.4221265111625194,-8.340351120758056,-52.026070002364044,-10.84079855724243,107.75884951634816
1698923887790.0,0.01666666753590107,-2.4886741337940097,-2.060977567414194,0.6807037975907325,-1.5535380406253039,-0.4474152661979198,-8.946981381878256,-42.0039592633805,-4.438806326015649,95.2223924646266
1698923887807.0,0.01666666753590107,-2.8664705048426984,-2.519237322100997,0.2839426138311624,-1.8930655443605033,-0.8357247018240391,-9.32795930557251,-31.829716305918677,4.282228508161338,83.17741533501164
1698923887824.0,0.01666666753590107,-3.2651465823128816,-3.5234529428452253,-0.6298299349218607,-2.21059646647349,-1.7711095090568065,-10.220846887207031,-27.550459356933118,16.878051429714535,72.77669013486137
1698923887840.0,0.01666666753590107,-3.277404590861499,-3.79454133580029,-1.8841367532998323,-2.1369748384889213,-1.9957155523002146,-11.456703272137045,-24.738415834125508,24.224044533015604,71.7079840958078
1698923887857.0,0.01666666753590107,-3.3340500226691363,-3.6068045952707526,-2.634484580481052,-2.09567478678599,-1.7881679036244749,-12.191124631389975,-7.162998675058085,27.021886384991465,72.07418468815804
1698923887874.0,0.01666666753590107,-3.3397412200480696,-2.39755433158502,-3.937234819510579,-1.968482823590189,-0.627728432597965,-13.484891938018798,18.06830751523764,24.549158122413626,56.02677134642897
1698923887890.0,0.01666666753590107,-3.3045325440227984,-1.2716875767678022,-5.037220260226726,-1.8658312812805176,0.4168916792489588,-14.589666366577148,31.723810807743043,12.719127899752616,35.57770406578772
1698923887907.0,0.01666666753590107,-2.847505984392762,-0.630074703463167,-5.353550062921643,-1.3895347885131835,0.9367327147103846,-14.923807135772703,33.52542688059023,-9.549539341820472,2.9537185082231874
1698923887924.0,0.01666666753590107,-2.4895693290680647,-0.705413145302981,-5.33585775436461,-1.079485965783894,0.7832043871223926,-14.925751840099691,29.727339683159148,-26.70220791862548,-8.684676029677716
1698923887940.0,0.01666666753590107,-2.248097345089167,-1.568607307202369,-4.751773087051511,-0.9199722801759839,-0.14634426130279898,-14.363413725170492,26.101578158487484,-33.147847193082754,-10.934623158323602
1698923887957.0,0.01666666753590107,-2.2859676415391266,-1.759155744151771,-3.9968630665212865,-1.0507553997315466,-0.41629049848541616,-13.632284393200278,23.975230986835793,-17.43824305487147,-0.917588637275552
1698923887974.0,0.01666666753590107,-2.36267342620939,-1.501319485349208,-3.896956000614166,-1.1516110716003924,-0.2247545118033886,-13.544447704315186,29.005644819982674,-4.10576672897265,7.146528100761422
1698923887991.0,0.01666666753590107,-2.398711538796127,-0.4056749233815819,-4.20219450045228,-1.193359963049367,0.7776679419137537,-13.862277974700927,44.66113166185266,-4.781639560554799,6.20867738714791
1698923888007.0,0.01666666753590107,-2.5148566227987406,0.9230801099982112,-4.113379321923852,-1.3464393778260797,1.9114719194710255,-13.799878509411215,70.49724427296384,-16.359583722649916,-14.641384750136094
1698923888024.0,0.01666666753590107,-2.648051333540678,1.4286027703151105,-3.7833179309964176,-1.535581235913187,2.229152552253008,-13.493720556640625,82.53825306267102,-22.57228793320037,-36.669158049872
1698923888040.0,0.01666666753590107,-2.67467981274724,1.581517057657987,-2.914924154627323,-1.6326961868837475,2.1776772896248846,-12.64781918258667,86.52106614129968,-26.030761049625497,-51.47454247216927
1698923888058.0,0.01666666753590107,-2.468009239166975,1.57847111409083,-2.1879916898250578,-1.5264534151490776,1.9167092721352352,-11.943474981689452,73.4750223359818,-26.913745707409944,-56.83557844227979
1698923888074.0,0.01666666753590107,-2.3778519983798265,1.5833590322628617,-1.983215551689267,-1.507449293341115,1.769166485230252,-11.749395009613037,56.21915728478072,-25.904211304683503,-55.37668077141633
1698923888091.0,0.01666666753590107,-2.3273181813202797,1.5750973998740314,-1.7560083860367535,-1.525705300195515,1.646912553825369,-11.52957678516805,42.977626635227914,-25.669302316106545,-56.23677575774477
1698923888107.0,0.01666666753590107,-2.0501080906145273,1.8374959981560706,-1.556815600991249,-1.3482350290711969,1.7878712267994181,-11.33819028995931,38.91837349450305,-31.07605274233196,-64.06584935802063
1698923888124.0,0.01666666753590107,-1.7949014496631919,2.0038651026166976,-1.3429939866125582,-1.1800423624452203,1.8602957950531038,-11.129296779632568,44.36776479171685,-37.18452997369531,-73.66013412286749
1698923888141.0,0.01666666753590107,-1.118596471553296,2.334827387906611,-0.56479836756289,-0.6334162689760326,2.0325285765158942,-10.354772542572022,57.767492867730915,-39.52149968878268,-84.40324987592133
1698923888158.0,0.01666666753590107,-0.5500664066487922,2.1724638658255335,0.32715514809191226,-0.15352851025108247,1.722479479791969,-9.461136772918701,64.85859526403816,-34.216522496285044,-84.29251884909709
1698923888174.0,0.01666666753590107,-0.30166677883118387,1.9410542800471184,0.6622603784054517,0.02917896740697324,1.326388888770342,-9.119514123535156,69.69430772470464,-24.85848202199787,-76.6688119616906
1698923888190.0,0.01666666753590107,0.007741280042845755,1.4221487718701362,1.1076239727705717,0.28640597173739224,0.567426743305102,-8.65773189381063,76.03928025607969,-16.33811302299398,-67.07529900821994
1698923888207.0,0.01666666753590107,0.1721030084701255,1.0987084065176547,1.3516905032873152,0.42362359958617013,0.048034693720191715,-8.39526812133789,81.48991464772244,-15.30103417489217,-65.53684670899875
1698923888224.0,0.01666666753590107,0.42786516441237177,1.3681760664030909,1.398808812814951,0.6533173213574104,0.10429843273386359,-8.323442656055093,90.98333117890657,-21.046491974511223,-70.69593447591951
1698923888240.0,0.01666666753590107,0.9261446852006018,1.868813365831226,1.6472803002923726,1.1017812015591189,0.2681516088508069,-8.026261790466307,112.36075094134678,-28.683208664739297,-81.90020411116511
1698923888257.0,0.01666666753590107,1.1451634298309683,1.8888393780328332,2.1595962009459733,1.2865835874035023,-0.011221943499147891,-7.460182735443115,127.33686960232686,-28.57370536441836,-90.31093320606466
1698923888274.0,0.01666666753590107,1.206686258416623,1.8833169613495468,2.240800904470682,1.3281828503818716,-0.33967662988230585,-7.3097969436645505,131.19681440797618,-26.34513758164826,-91.46827460997747
1698923888290.0,0.01666666753590107,1.0534481459468603,1.1079442907661199,2.0852274809211493,1.1635814497135113,-1.52944507124573,-7.359476628112793,118.934685074079,-20.129419550126535,-75.34273073433262
1698923888307.0,0.01666666753590107,0.9636297817252576,-0.03636456806212664,2.158378641849756,1.0805325430942232,-2.9489073805108665,-7.2050512055546045,107.02045142555642,-13.169046120759695,-55.40553490556505
1698923888324.0,0.01666666753590107,0.9268843976520001,0.053415363845229144,2.0063854148745537,1.0525503385906108,-3.1063261396661397,-7.276428342548012,98.65077176756864,-8.319265177950264,-35.97359207536541
1698923888340.0,0.01666666753590107,0.7504366014432161,0.5675333454847336,1.9633494062244892,0.8990220932010095,-2.9046149420589207,-7.206846272277832,98.8254128744567,4.045346875574717,-20.92670411684754
1698923888358.0,0.01666666753590107,0.5333266130436212,1.098037229257822,2.0525334180653094,0.7158656753322109,-2.613869370214641,-7.02264238204956,102.47515177820969,7.967839138548415,-19.498156391561032
1698923888374.0,0.01666666753590107,0.5471144615080207,1.535129254361987,1.8084388304978607,0.7680891990443691,-2.415898528179526,-7.164349777331948,100.48317491809966,7.032430644450005,-21.151733236790072
1698923888390.0,0.01666666753590107,0.48972982870563864,1.7835513497397302,1.6647902380198238,0.7613554886088706,-2.4563003889337183,-7.173776361846923,82.90590848531447,6.314083000853662,-20.76529650147638
1698923888407.0,0.01666666753590107,0.9004284254681318,2.2070976645722986,1.2312485988736153,1.2048813461528158,-2.193686686596274,-7.52722096644938,58.267223658354894,5.89042258833705,-10.815131560115168
1698923888423.0,0.01666666753590107,1.0710083525568246,2.402187982735038,1.1623825679183006,1.3907312682887538,-2.1049515875667333,-7.541286316680908,35.658385675358495,1.873428895224114,-0.3008813055224332
1698923888440.0,0.01666666753590107,1.5341412662379443,2.816451505437493,0.9618173254758119,1.8390454743540845,-1.7630296629756688,-7.704541526904702,14.644130486182439,-8.193868027430709,8.429193657547035
1698923888457.0,0.01666666753590107,1.6908397482946513,3.345156815356016,1.1026087749570608,1.9550146172679028,-1.261145139965415,-7.550863123321533,8.4244526524894,-17.318952093469907,8.857163065656279
1698923888474.0,0.01666666753590107,1.7500046155773101,3.8987186263725158,1.2894061888098716,1.9638433272212743,-0.7157160742610692,-7.36112264175415,-2.4446965258938715,-19.490060909847276,3.627821253593246
1698923888490.0,0.01666666753590107,2.006769299625605,4.915818570870161,1.6954454885244368,2.1624124274104832,0.3392287399843335,-6.976404947009682,-23.101195584411357,-25.31609445110497,-13.742326949687316
1698923888507.0,0.01666666753590107,2.145671574359387,5.297395044979453,1.6807611296117304,2.261921388244955,0.7923316964298486,-7.02907679901123,-39.787248689009544,-28.808709975643698,-23.796998907991604
1698923888524.0,0.01666666753590107,1.937514269352704,5.04773113284707,1.7721785995930432,2.0235486397898756,0.659902417102456,-6.997652902221679,-62.96418082603258,-24.663615017430114,-30.983414886619077
1698923888540.0,0.01666666753590107,1.7106982949748635,4.801166355773806,1.6332383309364318,1.7865227439330658,0.6554132889896631,-7.253682842254638,-93.08810861315935,-9.899829862272806,-28.724449346947836
1698923888557.0,0.01666666753590107,2.154193757380545,5.461433514535427,1.212356266877055,2.251446719449153,1.5586261575445532,-7.783699819293617,-114.96532063792608,7.488011519165849,-14.926470015903256
1698923888574.0,0.01666666753590107,2.154951297749579,5.35659483744502,0.8508341542810202,2.295589794291975,1.751209169061482,-8.26792652053833,-135.27677326716992,22.382191815767868,-0.9502833654502277
1698923888590.0,0.01666666753590107,2.10547035074383,4.842174950249492,0.06299918474853039,2.332400708748959,1.6906062317997217,-9.220669143676757,-144.18641352999305,33.761785576818525,11.854352526295424
1698923888607.0,0.01666666753590107,2.5150135669261218,4.66446334464997,-0.5892231992453336,2.8157300592951473,1.86074447953552,-9.981726580920816,-141.64645742296207,36.516926793650754,19.42907415074823
1698923888624.0,0.01666666753590107,2.7346497128024696,4.471768689452111,-0.6312859789490699,3.115005412945151,2.0150208490118384,-10.117597525134682,-142.7041668574519,39.96017883351051,22.59986652952159
1698923888640.0,0.01666666753590107,3.251178847236931,4.387577371332049,-0.9765098676949739,3.749768164626695,2.414403321185708,-10.569652141571044,-151.14251040716582,41.9902920548513,26.49356783759639
1698923888657.0,0.01666666753590107,3.4251889679700134,3.606127134400606,-1.3749696720659732,4.014327228878252,2.016517225049436,-11.033978210559487,-156.30446685353797,40.17794916991261,33.10120724633533
1698923888674.0,0.01666666753590107,3.39809754742682,2.9952509062737223,-1.5464531969308852,4.064755210943147,1.7935570493169128,-11.256339105224608,-154.58694748484658,30.763400833074627,47.38511355569129
1698923888690.0,0.01666666753590107,3.1832121032088994,1.636684671998024,-1.758603663226962,3.8881828385066237,0.9196737356208264,-11.513566146087646,-137.04214494118645,1.8795246256149387,73.63109898870577
1698923888707.0,0.01666666753590107,2.73894740999639,0.612716704894416,-1.2947826211512088,3.4096418547481298,0.20305921468269078,-11.069890650939941,-114.527293776264,-18.30095571119932,89.97716918208282
1698923888724.0,0.01666666753590107,2.4357924384340643,0.33016609341092407,-0.7512427301943302,3.0394384961117056,0.16654767589792607,-10.537928969573974,-91.16837466390055,-26.612252619709118,97.99016953142335
1698923888740.0,0.01666666753590107,1.5649705581352114,0.24923852632716298,0.69352119358778,2.089239748769812,0.33668566790539767,-9.098714496612548,-68.98470571145369,-15.812056975761477,100.57627039648695
1698923888757.0,0.01666666753590107,0.8596569276839494,0.25272282477896657,1.7354986819714306,1.3703807733731344,0.48901676679914813,-8.054992210388184,-58.77487063822692,2.155092022773688,102.33190905093619
1698923888774.0,0.01666666753590107,0.5025207750871777,0.06081117318496108,1.9806255351960658,1.050605141073279,0.4255704045386985,-7.803899726757407,-53.59822928513924,20.71004880882744,105.0883753244674
1698923888790.0,0.01666666753590107,-0.11360957417562603,-0.21518347731642423,1.9955144767701625,0.5541076083309948,0.30720709649734196,-7.774421118816733,-52.8995999707899,37.792649036258226,111.56948718637915
1698923888807.0,0.01666666753590107,-0.6503666000593453,-0.17462094610780476,1.4139140274882316,0.13751659252904355,0.45864035150222476,-8.340500758361816,-49.58934195935405,41.68249641009385,112.48669962964182
1698923888824.0,0.01666666753590107,-1.0212015345975756,-0.3375212784793228,1.1370517273068428,-0.11013356862813234,0.38696401236653327,-8.60027105396688,-41.16537595784302,39.41413936031384,105.1921463885274
1698923888840.0,0.01666666753590107,-1.3782663755238056,-0.575495629600808,0.7529992184728383,-0.3187282421387732,0.2539361826241016,-8.960898263549804,-44.56908461750298,31.252766811633116,93.58845412080863
1698923888857.0,0.01666666753590107,-1.4548783444307745,-0.6679237379293889,0.4151338757961988,-0.3046623073853552,0.26979784168787296,-9.278578896331787,-62.87213036658832,24.38260054440828,87.44148877347226
1698923888874.0,0.01666666753590107,-1.649119644548744,-1.234923634124547,0.17716566215455531,-0.41868616145029663,-0.13856317897252737,-9.490016245922446,-82.59059963246999,21.144609349485748,84.62159736330831
1698923888890.0,0.01666666753590107,-2.2462026173837484,-2.5320912507161495,-0.53493982039392,-0.9105449650086462,-1.1785444520376622,-10.155455254364012,-89.35021928797818,21.254850310237046,83.6042406864349
1698923888907.0,0.01666666753590107,-2.7885803326934573,-3.2988314097717404,-1.6796692427217959,-1.3675384991519153,-1.7585400964714586,-11.259780185589193,-82.09310914389377,21.80132862308789,82.93903490278902
1698923888924.0,0.01666666753590107,-3.166179135343432,-3.733663088728487,-2.4722189658164977,-1.65514168131724,-2.0392600949943063,-12.012457332500814,-64.77663982418717,22.982748151372288,77.04298338480224
1698923888940.0,0.01666666753590107,-3.5984161216318604,-3.6000592126637696,-4.1641210826456545,-1.9749172405518591,-1.7769452294729648,-13.66206227634847,-35.61472369108919,18.061781269485692,57.71912829821805
1698923888957.0,0.01666666753590107,-3.752299400137365,-3.1341619488358496,-5.317982490456104,-2.0693384223937987,-1.263538610973209,-14.796315312847494,-20.629461114357756,11.032894212554453,37.46575276748683
1698923888974.0,0.01666666753590107,-3.6838445803314444,-2.859225063759088,-5.627340116050839,-1.9684825313292442,-0.9596247838675975,-15.094094144329429,-13.002088976687904,4.610732432708624,17.903355031687244
1698923888990.0,0.01666666753590107,-3.2474165720939636,-2.7246049963891505,-6.058700319504737,-1.5215150088988243,-0.8057971810720861,-15.519663489422202,-0.709504683055292,-1.4252606967484382,0.02224875425193474
1698923889007.0,0.01666666753590107,-2.8143822979480024,-2.885858219140768,-6.462795499414205,-1.0990883457459508,-0.9763840493582189,-15.927575597271323,8.972121125803117,-5.431974741717094,-5.732359204338262
1698923889024.0,0.01666666753590107,-2.6037393136054274,-2.877653869897127,-6.59079994803667,-0.9091980804443359,-0.9955375165089965,-16.064793279919027,14.945801158801684,-8.978819833831608,-5.488915467506551
1698923889040.0,0.01666666753590107,-2.0806025975994764,-2.580149471442401,-6.895041838052869,-0.42975919799804685,-0.7588109734915196,-16.38860963897705,23.797946596738942,-17.975136904769496,2.0935217093874314
1698923889057.0,0.01666666753590107,-1.8393522935472428,-1.6768151684649288,-6.947494494345784,-0.2454056701660156,0.06584186082854866,-16.46552278278768,39.299907861539964,-30.18704215015227,7.07678888112783
1698923889074.0,0.01666666753590107,-1.8489923746824264,-0.8815054791375995,-6.635544514170289,-0.34192207072153685,0.7342728906929492,-16.190039954265952,60.71252700386784,-40.70644188713152,4.303500278557696
1698923889090.0,0.01666666753590107,-2.224582321728021,0.5671637815199793,-5.152292746561765,-0.8565257900513709,1.9370599497139454,-14.765938879284262,86.07736339243732,-39.67603954894339,-6.800833016960036
1698923889107.0,0.01666666753590107,-2.4499682633027433,1.8995427044853568,-3.461766594260931,-1.1737573638916015,3.0406374966379253,-13.117830895996093,99.12915138684717,-29.79008521596947,-21.089009902094553
1698923889123.0,0.01666666753590107,-2.535348791207373,2.4131638425186277,-2.6978087594002482,-1.3263877197265623,3.3023534464180466,-12.388946128082274,106.42653915646713,-16.61020726895978,-40.86270295496307
1698923889140.0,0.01666666753590107,-2.581485688482225,2.678323722207546,-1.6213310355216264,-1.4196120199341327,3.2324727950600907,-11.343128915405273,103.78567383463839,-4.9609738611763,-63.12446487528528
1698923889157.0,0.01666666753590107,-2.5460136853456494,1.8954823231786488,-0.8732932388484478,-1.389834063720703,2.21478734229207,-10.606313354492187,96.7599978203907,7.056965110835514,-71.43913418969777
1698923889174.0,0.01666666753590107,-2.083383314359188,1.5054342271916568,-0.8463637308686971,-0.8918403376039117,1.544859817659063,-10.580276411437987,86.14097977436681,14.41700962080659,-71.98009883234111
1698923889191.0,0.01666666753590107,-1.8604669777683913,1.3679631543047726,-1.0589268696188927,-0.6334161228455603,1.219547584886942,-10.787374855041504,79.3666069102514,11.573929718410442,-66.36295125892264
1698923889207.0,0.01666666753590107,-1.2311623818948865,1.6699455749563872,-1.3462234700530766,0.014514701434224843,1.3476373919716105,-11.068094999694823,74.89041511692687,-1.58560109506178,-62.580085138056916
1698923889224.0,0.01666666753590107,-0.7198634762641042,2.101213277821243,-1.3029980763107538,0.4845262687131762,1.55219199631121,-11.019911691284179,76.35937707153234,-29.588335088265634,-63.24536605378367
1698923889241.0,0.01666666753590107,-0.5139836877353489,2.3085697878390548,-0.9894254633694887,0.5979516454283148,1.579575641266629,-10.705523085784911,82.167401111496,-50.96846302071176,-69.21706191682834
1698923889257.0,0.01666666753590107,-0.12725662592984735,2.4596347940534353,0.20633271992802618,0.853233397442475,1.5313924059212207,-9.506925879669188,92.26212017645138,-63.07870260784619,-77.17608328115827
1698923889274.0,0.01666666753590107,0.19398111481182276,2.5380150878071785,0.9803057528465986,1.0345940270688385,1.3820540773689747,-8.72162773513794,101.10989258577253,-61.783145495889,-78.8892040080242
1698923889290.0,0.01666666753590107,0.7361125272102653,1.9955133077263831,1.9572867451846598,1.4145239030148833,0.5210390130743384,-7.714117749023437,96.9079806989482,-54.47938174467883,-63.86606632479775
1698923889306.0,0.01666666753590107,0.9054444269992411,1.5014298138558864,2.250962817522883,1.4713861559109762,-0.19782003538757562,-7.390750887298584,89.14012949929776,-53.329553548853035,-45.514232534471006
1698923889324.0,0.01666666753590107,0.9038019204892218,1.967663470031321,2.4082681794315577,1.3117228326993062,-0.022744185119122264,-7.185597732543945,90.92636057103948,-54.71267368596978,-34.39342439578838
1698923889341.0,0.01666666753590107,0.7597723658695816,2.309675703254342,2.550354929420352,1.0501562830609268,0.08798778779357672,-6.996904714202881,97.31412423756466,-55.413434019340166,-38.913954362110054
1698923889357.0,0.01666666753590107,0.46889805307909843,2.695364873379469,2.714741774022579,0.6489778673809953,0.22326047385334968,-6.77349577178955,107.02670787883615,-55.05015333286011,-52.103514102268235
1698923889375.0,0.01666666753590107,0.35189923832397907,2.8040540884181855,2.9310493599981067,0.41225110516780983,-0.033817221666872496,-6.4558151390075675,114.84454923302192,-51.95705777099024,-67.57901179913004
1698923889390.0,0.01666666753590107,0.396527922992967,2.7489000642120835,2.9039865810275076,0.38621413813908,-0.3630202421993017,-6.395811044421792,108.44552258455539,-49.089737527229715,-65.894209036563
1698923889407.0,0.01666666753590107,0.44321580521408466,2.2921660577878353,2.78564720185101,0.3687065168079454,-1.0630249525874853,-6.4288809548526995,91.53844797351017,-47.00570679258084,-55.99780109906437
1698923889423.0,0.01666666753590107,0.30178777486234903,2.388335982993245,2.5083675530403853,0.13886313003348186,-1.2217904501765966,-6.608146219635009,68.87675457162163,-46.83034168564076,-45.537683988986245
1698923889440.0,0.01666666753590107,0.20937566782049832,2.695047477993369,2.405654197540879,-0.019453473010659215,-1.0709560378476977,-6.64615475551188,61.73960987011934,-45.81682015998632,-48.594736642605966
1698923889457.0,0.01666666753590107,-0.07943785824896767,2.721820334106684,2.5051871694386003,-0.3582330444553867,-1.188870177349448,-6.4836483178287745,58.159907726115655,-40.676054375514134,-56.23806324840332
1698923889474.0,0.01666666753590107,-0.0753109327783808,2.4090777422487735,2.6242355736672875,-0.3833721984196454,-1.6738459433957933,-6.286725231280922,47.09382306306317,-30.82467446011881,-62.24349341575869
1698923889490.0,0.01666666753590107,0.18767722889464347,2.3323940232798455,2.5744208646625277,-0.11133103478439152,-1.8474252714961765,-6.291812325286865,31.043161966383764,-16.436503605535307,-55.60964827872171
1698923889506.0,0.01666666753590107,0.9852661517329513,2.31213157197386,2.344972642084956,0.7133218178019859,-1.9191016836971044,-6.497713668060302,10.534266497481427,-6.129054030011663,-37.206389994133936
1698923889523.0,0.01666666753590107,1.785541939035058,2.89572991707474,1.9207523735135792,1.5468032707438804,-1.3365624922603367,-6.922385772052407,-10.143625780733595,3.4525694851047084,-16.4373710395599
1698923889540.0,0.01666666753590107,1.8528839752934871,3.184835612757504,1.7805793481916188,1.6448158464075997,-1.0078086768001318,-7.082198148345947,-25.431510987699845,4.407567175186125,-23.642955944093014
1698923889556.0,0.01666666753590107,1.91154703053385,3.443077091360092,1.4355612111508846,1.7468686739054506,-0.6714233435481787,-7.464671863555908,-43.81264458201865,3.5898095433148325,-38.78095008840239
1698923889573.0,0.01666666753590107,2.8056556783959268,3.444440488667786,1.2276409297704696,2.7081405947924124,-0.48168286198079585,-7.758260842132568,-81.0869539772592,0.5602627551738392,-43.18841310320368
1698923889590.0,0.01666666753590107,3.0924118883430958,3.228994780218601,1.098240642875433,3.031657084987871,-0.466868739208579,-7.985111449432373,-114.01199698452156,0.7502077013101021,-25.855071508699844
1698923889608.0,0.01666666753590107,3.223953863441944,2.5751661300718784,0.6139777012735604,3.19176925479545,-0.7154167990535497,-8.624064017486571,-135.40320006870687,13.33172756641106,5.010150796313569
1698923889624.0,0.01666666753590107,3.3350627068430185,3.1736759208396075,0.03371872972846031,3.3491882559793185,0.213683082690835,-9.315539384460449,-135.29694964597815,32.98025484141815,17.622683775671202
1698923889640.0,0.01666666753590107,3.506207209011912,3.704440501375496,-0.327899828979373,3.6071633547137023,1.0648220651373266,-9.772083713531494,-124.69525295968941,48.68548936610792,21.256854970758447
1698923889657.0,0.01666666753590107,3.88750282035321,4.240724722115695,-0.968803531101346,4.152293136077374,1.965789931244403,-10.504260508728027,-96.13157260542533,58.857584229075776,19.119789524751713
1698923889674.0,0.01666666753590107,4.151327652046084,3.837719091008603,-1.4053835150301455,4.550628473818488,1.789516834015399,-10.98744033126831,-90.2960502238632,56.48187709611068,23.37978875537242
1698923889690.0,0.01666666753590107,4.173135579228401,3.534021975393593,-1.515082491633296,4.685152752663754,1.7223295499272644,-11.139322499084471,-103.15496733649023,43.566467488858464,31.8605511949267
1698923889707.0,0.01666666753590107,4.341484313198924,3.205251501059532,-1.4724807827472686,4.944175517837144,1.77769560944885,-11.155932273101806,-129.01843485522733,22.901870173862875,39.54023148258145
1698923889724.0,0.01666666753590107,4.153433099892736,2.9756472111374137,-1.1371306377619503,4.787953969109803,1.8816935979314147,-10.861894381713867,-137.05091490408074,14.816985498602536,43.94634553502165
1698923889740.0,0.01666666753590107,3.8803023874551057,2.4845897870898246,-0.8135714683353901,4.542548079748079,1.7230778110112994,-10.568155765533447,-128.76575883707187,17.375909040958643,49.97671955322591
1698923889757.0,0.01666666753590107,3.2415719377189873,1.7163618736945092,-0.12584639380574225,3.97751656101644,1.3331223617438226,-9.897330387878418,-99.70787331522234,34.655751471241054,64.7484106523475
1698923889774.0,0.01666666753590107,2.5217168639570473,1.1755695278801024,0.4279010029107332,3.365349197100475,1.0006277157874777,-9.34082813949585,-74.95000168724606,54.11015537852628,73.84743157028758
1698923889790.0,0.01666666753590107,2.022882960689068,0.9182206142030656,0.6164063897252082,3.028365313433483,0.88929730890746,-9.138518099212646,-55.080571580328765,72.87442331169508,79.79184082759807
1698923889807.0,0.01666666753590107,1.292481066210568,0.5866425351023674,0.6040852528125047,2.5694267096370456,0.6808521474197041,-9.118615713390707,-37.94808365120021,83.58766381731928,87.29298680053785
1698923889824.0,0.01666666753590107,0.7281589378573,0.0686619597505778,0.6189584122955799,2.217628849328309,0.21413247955930417,-9.07282660664022,-28.774483897712763,81.04341152130037,91.9346945680193
1698923889840.0,0.01666666753590107,0.4176600332729518,-0.19735526742003856,0.6663835958153009,2.108992095129192,-0.021995650040451436,-8.991723609924316,-26.814374992722723,75.1326614362197,96.58799999671143
1698923889857.0,0.01666666753590107,0.0014510755911469459,-0.4280838486643508,0.8521142572194337,1.9366095755979418,-0.22146255758590994,-8.75948546436727,-28.776700294098433,66.98454628471798,98.2268355861643
1698923889874.0,0.01666666753590107,-0.23958850831985473,-0.23434636988267302,1.0930378135353327,1.8637362086974083,-0.005236201886739581,-8.482656481933594,-30.56437936594421,62.557436230769156,97.42590711352109
1698923889890.0,0.01666666753590107,-0.5268963608004152,-0.31209654903933404,1.0648130050480364,1.729212002917379,-0.05491584980236366,-8.475324239349364,-36.913105086268175,53.6216534188978,96.61194663994151
1698923889907.0,0.01666666753590107,-1.0067116753436625,-0.7115130696132779,0.6247673908352851,1.4019545634947717,-0.390403302632831,-8.876053742218017,-49.147876097444865,31.84192868415466,96.5295608981728
1698923889924.0,0.01666666753590107,-1.497057005599141,-1.1530846512842923,0.26223171728253364,0.9795277542114257,-0.7641980733573436,-9.21857421722412,-54.244296878730744,16.358484062193543,95.12498713687305
1698923889940.0,0.01666666753590107,-1.8230276200816034,-1.363193747945875,0.22302666509747504,0.6959644950866699,-0.8940835499534383,-9.242965146636962,-60.78641599030904,12.213613646448925,91.41960268195196
1698923889957.0,0.01666666753590107,-2.3257471326112746,-1.521223770867288,0.1547965939581394,0.26829993128031493,-0.9099449898215011,-9.28276874923706,-69.67894662926129,24.435090548179826,82.04190321568619
1698923889974.0,0.01666666753590107,-2.6995880440324544,-1.811712299210578,-0.8519266256928444,-0.021098902130126954,-1.0926526136100292,-10.258256288146972,-58.55395499971203,32.76112529737122,72.64890412567959
1698923889990.0,0.01666666753590107,-2.911171524095535,-2.04403710013777,-1.7033821267426013,-0.13392565536499024,-1.2571044132072478,-11.075576295360921,-34.78667936744103,36.178620693870855,62.23143813187362
1698923890007.0,0.01666666753590107,-3.184141493013501,-2.6383967854887245,-3.134977941393852,-0.27742811737060546,-1.8423368623159824,-12.467056372722983,-9.865612322078334,31.38260529266047,53.1079412310428
1698923890024.0,0.01666666753590107,-3.018879326881468,-3.200574449159205,-3.9762563318222757,-0.037708676147460936,-2.420536636308953,-13.286173200225829,-12.908824451118672,20.286443891597838,52.315079211809376
1698923890040.0,0.01666666753590107,-2.8469325684189797,-3.278610167258978,-4.314182464775443,0.18180998082906008,-2.4904173972647636,-13.608043685913085,-27.52370721350147,9.8380832446286,50.491644099658586
1698923890057.0,0.01666666753590107,-2.5625074317678807,-2.96604877718687,-4.99193091969192,0.4845268532350659,-2.1113854930717495,-14.273930438122152,-41.25759034182736,-6.814365329253124,40.71448443487921
1698923890075.0,0.01666666753590107,-2.479652330687642,-2.3327371376290915,-5.732540612190961,0.5472247169494628,-1.408687232750654,-15.014486939129233,-36.487567225503454,-16.17409456781259,28.479182376494553
1698923890090.0,0.01666666753590107,-2.424925299721956,-2.1439760224878786,-6.134032331603765,0.5594950004577637,-1.1688180077932775,-15.42449455795288,-19.602970767016757,-23.15393489008761,17.910396956721527
1698923890107.0,0.01666666753590107,-2.3327757160738107,-1.7008607915714382,-6.744741970992088,0.5702692001894116,-0.720952659740299,-16.060454373931883,8.757229714136177,-29.136504414290947,8.306689945914625
1698923890124.0,0.01666666753590107,-2.3794112105205656,-0.9225611276254058,-6.768126938232779,0.4520552009582519,0.00658522360920906,-16.111031884002685,29.360117977527995,-30.8780660488608,2.7895546980785197
1698923890140.0,0.01666666753590107,-2.486315295708179,-0.5404027619749308,-6.526593141064048,0.2641103706359863,0.2940390604317188,-15.902586117443441,48.40513059124641,-35.314471990270015,-4.730471198387648
1698923890157.0,0.01666666753590107,-2.802445776438713,-0.021552783377468583,-5.615107241943479,-0.17582389215677977,0.6298258432686329,-15.0409733795166,69.59042054742875,-39.000042066408895,-18.444813155498128
1698923890174.0,0.01666666753590107,-2.799314492675662,0.7309539754033089,-4.462208541685342,-0.2745850028991699,1.2129635851204394,-13.926023593902586,79.38472057193027,-40.75732338135353,-28.974266930935634
1698923890190.0,0.01666666753590107,-2.740036958798766,1.1523961575634778,-3.8918841041773558,-0.3179797618590295,1.4607634569466112,-13.389722422027587,77.53429938236877,-38.855163508829165,-40.36966916482029
1698923890207.0,0.01666666753590107,-2.5856857705205676,1.751115937820077,-3.053285746613145,-0.29224209401234985,1.8598470375054514,-12.587365590667725,65.63058422516801,-36.952549428725,-55.02294527430137
1698923890225.0,0.01666666753590107,-2.1362397291474045,2.1575956747785208,-2.6230910798072813,0.0658406917847693,2.152538059170457,-12.179303845214843,53.584917246446885,-35.78397236362752,-64.57456867759234
1698923890240.0,0.01666666753590107,-1.940130443200469,2.183681571540981,-2.419569325646758,0.17597382202148437,2.097471442678105,-11.994800679779052,42.9523241994476,-33.97096012015017,-72.55581547748149
1698923890257.0,0.01666666753590107,-1.533625864061713,2.148756973154098,-2.1332693350344893,0.47539866714477536,1.9856920796043238,-11.730540671539305,38.950123628859856,-32.50011644842835,-81.87237792048647
1698923890274.0,0.01666666753590107,-1.1348800823561846,2.4712457368701695,-1.770246754747629,0.7963711810790002,2.24471473517986,-11.382183745464681,48.49985165465615,-33.21888799064006,-87.61705195589826
1698923890290.0,0.01666666753590107,-0.8631495921052992,2.651825591382384,-1.4764321507215499,0.986710213061422,2.324471632782742,-11.101464185333251,68.46698420255589,-37.162560670229965,-92.85564995494714
1698923890307.0,0.01666666753590107,-0.48200113414973017,2.717000366604328,-0.6015829146027565,1.246929859869182,2.167202328568138,-10.238953037261963,100.5043963158509,-43.23852620114406,-98.07969965106388
1698923890323.0,0.01666666753590107,-0.15411182656437158,2.5968556915715335,0.7237871525138616,1.480215030261129,1.811364362555742,-8.913762418365478,120.7873875468233,-45.421707376879425,-102.4359055112388
1698923890341.0,0.01666666753590107,0.011903642152994871,2.638492939339578,1.3363573250770568,1.5590739013120531,1.578827380182594,-8.289324697875976,129.75707883282917,-43.07130267969464,-104.46583090237742
1698923890357.0,0.01666666753590107,0.2938800704777241,2.45449684664309,2.3059669118642807,1.75255532297343,1.013347021704912,-7.283910222736001,128.2702832543008,-36.14064825718017,-97.17095664237202
1698923890374.0,0.01666666753590107,0.4041208988726139,2.0396431029625237,2.7419594512939454,1.8160016669675707,0.3200757112249732,-6.808960468402504,123.09468008996696,-32.35666881547974,-88.09680444319996
1698923890390.0,0.01666666753590107,0.38063232512697576,2.1355516007527706,2.861361491265893,1.755547928918153,0.14529913616403936,-6.642263593292236,119.31888321489221,-30.31789149917679,-81.70986722956437
1698923890407.0,0.01666666753590107,0.37013942655473947,2.1273481282919646,2.9224095419466494,1.7060178820736704,-0.2070975668206811,-6.508188300323486,110.94926502860696,-29.25000166772905,-74.0624186046029
1698923890424.0,0.01666666753590107,0.43355318345353006,2.1191452403530477,2.797419472709298,1.7429783702023327,-0.4528028044551611,-6.574926671600341,102.884020562305,-29.761886779981072,-69.22670614393641
1698923890441.0,0.01666666753590107,0.5648629572317004,1.9443752411633728,2.412200842705369,1.8366516562864184,-0.9160808256953954,-6.881384484100342,93.38389678535593,-33.06935807423555,-64.93130262775294
1698923890457.0,0.01666666753590107,0.7029382796220481,1.9327251353800297,2.168658043801784,1.9399014567501842,-1.1222811514154076,-7.067534247699379,84.2623362431548,-36.00933445529209,-60.76242153575478
1698923890474.0,0.01666666753590107,0.9350118092019111,1.792007627917826,1.8854156871944665,2.1270980990536508,-1.4377175124019383,-7.297077747344971,76.6659432822392,-40.36874708928233,-54.01396923953958
1698923890490.0,0.01666666753590107,0.9635868924316018,1.5397747420802712,1.716180233517289,2.0802615290768443,-1.9023422720760106,-7.398382405090332,69.6938842529761,-41.79072758768187,-41.675970164341905
1698923890507.0,0.01666666753590107,1.0674606700126081,1.683548129981756,1.6294512136131525,2.12395563630946,-1.907729225811362,-7.434594705200195,64.51162848439067,-35.35934974821158,-31.187374580519414
1698923890524.0,0.01666666753590107,0.7569522669475525,1.6535750165224075,1.6992039642751215,1.7684166897762565,-2.07816674875468,-7.313088970947265,61.54892464887092,-23.747153894976144,-21.628094535168856
1698923890540.0,0.01666666753590107,0.791985951732099,1.734379322552681,1.6994477099031209,1.7787416113704442,-2.180967782537639,-7.237372343444823,58.83128800077123,-6.41837486683788,-10.078475167561782
1698923890557.0,0.01666666753590107,0.970165905495733,1.9149682371541856,1.4492834470331668,1.9529197821468114,-2.128594621221721,-7.430704127502441,51.61462965204623,-3.8187395550470886,-0.8846875626827476
1698923890574.0,0.01666666753590107,1.53917546101287,2.6204630693912505,0.9803115980654954,2.5023891362179067,-1.5286971754878758,-7.852982029834389,37.97723831367241,-10.188508661317043,8.013241967282429
1698923890590.0,0.01666666753590107,1.7697367593988775,3.441716032139957,0.9372826036781072,2.669085499871522,-0.7888888624995947,-7.864054627990722,13.234488724518528,-24.425234585207498,4.527399429079415
1698923890607.0,0.01666666753590107,1.7401967766597866,3.6024095751821994,1.1213602371782063,2.572718809984997,-0.6374558997556566,-7.682095886340737,-4.9478031220224,-33.78622399366883,-5.788907194250443
1698923890624.0,0.01666666753590107,1.989972916994989,3.7918437672793863,1.583602485629916,2.751535746477917,-0.4135980445310473,-7.242759881702065,-23.36827305643178,-36.587325553426076,-12.74842514242374
1698923890640.0,0.01666666753590107,2.033658329464495,3.4051065494060513,1.789568125811219,2.700658815069124,-0.6893798559993505,-7.096414305225014,-45.8049356308305,-35.10814222072768,-6.454546694908621
1698923890658.0,0.01666666753590107,2.0876716592028735,3.269897576232254,1.7267478047609328,2.6759686104487628,-0.7017994848504662,-7.2203142411381,-59.335779433246714,-30.72441069819761,8.719815645410138
1698923890674.0,0.01666666753590107,1.8846170841626821,3.033878158570826,1.417805774229765,2.3726532241603357,-0.732475485882163,-7.623586998748779,-73.65005276365255,-16.131684215708685,26.703500531925904
1698923890690.0,0.01666666753590107,1.7922598491132258,3.509033080087602,1.238058278888464,2.230946486465074,-0.07242401569783687,-7.8806644020080565,-84.65913608298669,-2.178447214310312,29.07837267426497
1698923890707.0,0.01666666753590107,1.9804254825793206,3.853873814734816,1.1144991192370652,2.406920198888704,0.481085772870481,-8.084021905517577,-92.5671427644058,12.12835154126601,23.236675801693146
1698923890724.0,0.01666666753590107,2.416168577292561,4.251453329139948,0.5270528665363788,2.8842642279475927,1.2000941666752099,-8.781033863830565,-110.04737269965263,23.83821056189617,17.174068413248303
1698923890741.0,0.01666666753590107,2.757199106001854,4.031972958347201,-0.45629356918036934,3.2668875807613134,1.2623434098392725,-9.849895267486572,-121.45852193466875,20.958891383311226,19.995921795251345
1698923890757.0,0.01666666753590107,2.9762390395507214,3.7647912174418567,-0.6302472835510968,3.517231218786165,1.2994535355716943,-10.10652434245646,-127.64021196374547,16.90808889413696,24.197604870738484
1698923890774.0,0.01666666753590107,3.1229651397779583,3.371583926771581,-0.4469932413935661,3.6923074343807993,1.3298302613958715,-10.021828874206543,-130.62163051759106,14.151919733834639,26.760433573752547
1698923890790.0,0.01666666753590107,3.004050883322954,2.800864060205221,0.11457038203179835,3.6062655930232252,1.0902604577764867,-9.522937687793373,-137.69166861049797,24.294545745628476,30.409808769932237
1698923890807.0,0.01666666753590107,2.8938115162327884,2.387400601839274,0.3297422419756651,3.5622722836483267,1.0314528794988989,-9.35968247756958,-147.9249039118212,39.55495737043199,38.151117854468005
1698923890824.0,0.01666666753590107,2.610658006952703,1.6247097181744872,0.2885007155269384,3.4326862649228422,0.7784157646063715,-9.446921200561523,-159.61668512926562,60.33207180671979,53.38161325070687
1698923890840.0,0.01666666753590107,2.4233543971434233,0.8390127835839987,-0.3778045543551445,3.396024832805991,0.38816096706613895,-10.12567737121582,-160.32590465192305,63.627924949196085,66.18953275589601
1698923890857.0,0.01666666753590107,2.2342643423087893,0.3331346608929336,-0.7913543758302927,3.3550242024410513,0.2552828023269307,-10.53343925693929,-145.39127255996164,55.21825453361789,77.35417363357719
1698923890874.0,0.01666666753590107,1.7870972056530414,-0.27100385647676883,-1.2430237923413514,3.0680194976255297,0.045490890988893806,-10.960505562591552,-105.7940772997023,37.70749023768651,83.25635183124948
1698923890891.0,0.01666666753590107,1.2139810915999114,-0.484528278007172,-0.94350659275949,2.585587716973573,0.03262213013079017,-10.639981815338134,-76.40594530129349,27.10008009815706,81.49801525207808
1698923890907.0,0.01666666753590107,0.8777050639413296,-0.6741603672966361,-0.6026397301793098,2.3223753180906175,-0.01182027471847832,-10.279654465484619,-64.36163070002803,21.225258515657966,77.667447090049
1698923890924.0,0.01666666753590107,0.2527025491759181,-0.7925538147479295,-0.015126257461309432,1.7688658217832445,0.046239188605546946,-9.667486443981527,-63.986236673054954,9.450861037560358,72.928012975923
1698923890940.0,0.01666666753590107,-0.30162673908174037,-1.0734627599716187,0.4689133967787027,1.248875148718059,-0.1071393552482128,-9.166051418304443,-58.916487780477965,5.355798068790765,68.92572019778146
1698923890957.0,0.01666666753590107,-0.5296295851565898,-1.163213100458309,0.7677250784397125,1.0541967723570764,-0.087087843279168,-8.850166436767578,-49.70276408071128,7.960850147480199,65.73438260998469
1698923890974.0,0.01666666753590107,-1.0153345422603188,-1.2173224379170686,1.3459428995460272,0.6416457526609302,-0.03381685634069145,-8.246977256011963,-37.24635684606227,21.753773430991675,64.19188683877486
1698923890991.0,0.01666666753590107,-1.282124507369101,-1.2011889761745929,1.6098942802280187,0.4652231639586389,0.04115165620818734,-7.959523419189453,-32.86082898378048,34.36422192199199,61.94176980917338
1698923891007.0,0.01666666753590107,-1.3641948878124355,-1.2367837289080024,1.4367553893715141,0.4991909000121057,0.059108168659359216,-8.103624431610108,-33.19110961128562,41.30528213770697,57.57169866498333
1698923891025.0,0.01666666753590107,-1.476223184145987,-1.8674609283089636,0.5035825590997934,0.5500678314208984,-0.49081017128825183,-8.992172522735595,-39.32289486319164,38.35886488826311,60.16873466290811
1698923891041.0,0.01666666753590107,-1.480689077513665,-2.514281745520234,-0.6886240691959857,0.6564600215636194,-1.0706558858573436,-10.15006830062866,-42.34836130699464,32.767784731811986,67.68250965562325
1698923891057.0,0.01666666753590107,-1.666407025566697,-2.5061276651591062,-1.2846990340322255,0.5746082523070275,-1.004366281261295,-10.71300438145101,-34.60080259936831,30.22934834187133,68.7155006355068
1698923891074.0,0.01666666753590107,-2.074149622067809,-1.9412347511805592,-2.369682135927677,0.29658173065185545,-0.41314825493693347,-11.761964568328857,-13.72663459006921,28.830204580961727,55.63612209194468
1698923891090.0,0.01666666753590107,-2.286717436993122,-1.4108752443142234,-3.36417189694941,0.17268150247782468,0.11118190863728522,-12.734608408245444,-6.727682971609669,27.747510314487986,38.1457220050237
1698923891107.0,0.01666666753590107,-2.274395423297584,-1.3910437317714095,-3.8930513943910596,0.2603694305419922,0.12644509035125373,-13.244125033569334,-6.597107683925596,23.17881897678126,24.387275808895154
1698923891123.0,0.01666666753590107,-2.0453771165698766,-1.5549235036343336,-4.920833768683671,0.5515639151975512,-0.030674393596500156,-14.253729946136474,-7.619211769158977,7.9905836684845575,14.988455690168413
1698923891140.0,0.01666666753590107,-1.5674752344325185,-1.6422623259998856,-5.647325503981113,1.0354919257566333,-0.10998246971964835,-14.97722717579305,-4.698420962594187,-7.586122917724851,9.001487524139588
1698923891157.0,0.01666666753590107,-1.420629307217896,-1.6197551645070314,-5.747311480343342,1.1432312927246093,-0.09157689832672476,-15.088707190594077,6.495812563439722,-25.404680297092742,-0.3139193095547677
1698923891175.0,0.01666666753590107,-1.3582330567985772,-1.8813246184885501,-5.42629147400558,1.0990881996154784,-0.39055297676920886,-14.802301401519774,16.8044902923535,-35.79145142076868,-8.132219593755819
1698923891191.0,0.01666666753590107,-1.3882977940641343,-1.9405298177815973,-4.760712180310487,0.9787794200621545,-0.4899124917961657,-14.166191363415122,20.722221913475696,-34.453021211391324,-7.584732120455107
1698923891207.0,0.01666666753590107,-1.3150573474168776,-1.8656395581007004,-4.45255282458961,0.9717464526854455,-0.47135742892995475,-13.88636904438436,28.39502249308895,-28.765754915953487,-2.4067072271736722
1698923891225.0,0.01666666753590107,-1.3827261314116417,-1.3139986321441828,-4.0601153492480515,0.8258499351501465,-0.0375578694999218,-13.52918466873169,44.240818895802995,-19.050355529196658,0.20793866595805166
1698923891240.0,0.01666666753590107,-1.411752611670643,-0.33171514948382974,-3.836472013556957,0.7540238853454589,0.8201650213815271,-13.331363756561279,56.786868948213844,-16.158586623302075,-3.356102454588387
1698923891257.0,0.01666666753590107,-1.358194478353858,0.29796814350895584,-3.750376030859351,0.7633014167785644,1.2982571653939783,-13.272406540679931,67.73659792366057,-18.40919030388193,-10.341815672332563
1698923891275.0,0.01666666753590107,-1.3374554955773055,1.0919793905235826,-3.433130282363295,0.704493984631449,1.86134339527674,-12.993930960083008,79.06468522818017,-26.926904066845974,-23.945140588447302
1698923891290.0,0.01666666753590107,-1.3289710142180322,1.5195931009255348,-2.6718402054071424,0.6404489440917969,2.1024095384011043,-12.261005392345785,82.02458185595104,-24.874114617460737,-38.528677051407975
1698923891307.0,0.01666666753590107,-1.254900984878838,1.667701449291408,-2.3141449576228856,0.6524199523925781,2.0709857146767896,-11.925069556427001,78.83360626818029,-20.82751269462603,-49.595724771133426
1698923891324.0,0.01666666753590107,-1.0636762561030686,1.0260708211343734,-2.313224335646629,0.7710824260435998,1.2090730074226856,-11.94497135772705,72.22336968000945,-20.239056039136287,-46.38174852133266
1698923891340.0,0.01666666753590107,-0.9286346023201942,0.6601151100050657,-2.56822551715374,0.8530836867734789,0.6866880687652621,-12.211624983105063,68.3397036273727,-21.287761576752754,-38.02386801513609
1698923891357.0,0.01666666753590107,-0.8359545650571584,0.9075782972227782,-2.6197522907733917,0.889745045825094,0.7800619791771285,-12.272528072357177,67.49406473642259,-23.96577458992991,-33.667791928555395
1698923891374.0,0.01666666753590107,-0.6221962251730263,1.7278414452165365,-2.4625796153336763,1.0133458526611328,1.3831015040626748,-12.125733583068847,75.7667966893312,-32.645514100385,-38.84850065929382
1698923891391.0,0.01666666753590107,-0.20601839328184723,2.77181829072386,-2.0457371820539234,1.3398548118039966,2.2393277631781996,-11.71512799835205,88.55176334381451,-42.7422753919022,-49.680764041394674
1698923891407.0,0.01666666753590107,0.06280453895926476,3.170002493023872,-1.6522154186069964,1.497423354693502,2.417396438587084,-11.324124939727783,102.96420015297178,-52.611096195343144,-61.21464153051216
1698923891424.0,0.01666666753590107,0.4066699988335371,3.337078138318658,-0.517969980892539,1.6714517417356372,2.239627111450955,-10.180594371795653,120.06376998539547,-59.68959006244254,-72.02757547726188
1698923891440.0,0.01666666753590107,0.8702885040745139,2.881624527093768,0.46117724956870076,2.0045449746396393,1.492636412677914,-9.180117353057861,128.05313788020774,-61.89470297560282,-66.70692641571364
1698923891457.0,0.01666666753590107,1.0472039177950472,2.778549352544546,0.8582493989735841,2.0489872698910534,1.0809829263433814,-8.748263228607177,131.07817402209304,-63.00773694236975,-52.60427625145689
1698923891473.0,0.01666666753590107,1.1637253608293832,2.6652339390099047,1.7088222719699144,1.9906286774899808,0.540192480225116,-7.829040013232826,133.89826350774294,-57.61983100806441,-32.75236899485527
1698923891490.0,0.01666666753590107,0.9685940530691295,2.9404247988477348,2.6238971354931593,1.6766889117367565,0.48572453858703374,-6.844124720764159,136.69167427449474,-52.68851980467983,-30.309346932525102
1698923891507.0,0.01666666753590107,0.8813912051081657,3.1977240281641484,2.8800667762577534,1.490689406795986,0.41389819652140136,-6.5034004815250634,135.2317486601612,-46.44875950727966,-37.76615814756234
1698923891524.0,0.01666666753590107,0.7440018191553652,3.4289398449361324,3.3190012143582104,1.2591999241817742,0.22385873200744388,-5.934777002716064,127.99263606453978,-39.869081185455464,-50.86462365476006
1698923891540.0,0.01666666753590107,0.7690694787859916,2.832817533826828,3.435236899253726,1.2428895349698141,-0.6554121199458837,-5.717802477264404,112.13105167955925,-33.13867424902743,-51.987943886417035
1698923891557.0,0.01666666753590107,0.9589916005305945,2.49729846201539,3.2719021940529345,1.4007571704037487,-1.228673487688601,-5.7885810638427735,93.00893306030056,-31.92698502988883,-40.3491205407023
1698923891574.0,0.01666666753590107,1.2257698021363466,1.9267162503540516,2.939095303809643,1.6068080777157097,-2.0537755270808935,-6.0152826180607075,74.2382823153524,-32.529117431644224,-20.24153369025771
1698923891590.0,0.01666666753590107,0.9881503288671374,1.726405859455466,2.8297686676502227,1.3109745350826532,-2.417993454632163,-6.0522425216674804,69.08780741697502,-30.836654611923013,-10.105433924215824
1698923891607.0,0.01666666753590107,0.8623308230683207,1.9862690940409897,2.850445544975996,1.1257231998943724,-2.3166887968868015,-5.957821193695068,69.0247647709358,-27.681937083361277,-7.322473346894127
1698923891624.0,0.01666666753590107,0.464883227947168,2.5722932049840685,3.1628596355319023,0.6723212239696644,-1.9391534148618579,-5.541978877368569,67.56630764727382,-17.07609617979364,-13.423922313601539
1698923891640.0,0.01666666753590107,0.3276139612426981,2.7231670725405213,3.598161270087957,0.527621661133971,-1.9331676184505222,-5.0302182725101705,59.59549737643645,-6.011659299878423,-19.283999225229866
1698923891657.0,0.01666666753590107,0.29895693535059686,2.69525089161098,3.6803181597709655,0.5229829136837274,-2.072480519811809,-4.886415950775146,38.667299155707965,3.3006835803233727,-21.283337321717877
1698923891674.0,0.01666666753590107,0.3643974853692576,2.6011381911963225,3.4052702155351637,0.6383535061825066,-2.2261580466121433,-5.12658430480957,0.9703192984936371,4.697909979066905,-14.19263363770344
1698923891690.0,0.01666666753590107,0.8069792304635047,2.5854265350624916,2.655664146631956,1.1071681552944703,-2.2162822570249436,-5.889736083984375,-21.687469369623777,5.751281389660136,-9.010569114414766
1698923891707.0,0.01666666753590107,0.9933942208699882,3.0792151376396415,2.3728443993508814,1.3196534795681014,-1.6208739394038916,-6.227917653003335,-44.36413454617299,1.5317113293972027,-13.40431540181537
1698923891724.0,0.01666666753590107,1.1268050585806368,3.250785756266117,2.3373627516031266,1.4787182523647322,-1.3328215521663427,-6.3250318733215325,-57.09882417817583,0.8111254114655053,-25.865786367960304
1698923891740.0,0.01666666753590107,1.6726944352731108,3.8259173017948864,2.100923647224903,2.068589795983583,-0.61620736002177,-6.63298606185913,-63.319985870466056,4.983900671785918,-39.386856169674225
1698923891757.0,0.01666666753590107,2.191413773228228,4.0855335758820175,1.9780776042789219,2.6587605052120984,-0.20709785908162592,-6.826766758728027,-61.56928544278673,12.565610860420117,-47.868561175333966
1698923891773.0,0.01666666753590107,3.2270880698144433,4.0763203418567775,1.371639066338539,3.8058823391018435,-0.024090777422487733,-7.517793797412514,-59.915819588131704,16.823811189968172,-37.512881072759924
1698923891790.0,0.01666666753590107,3.1536078230619426,3.465848602877557,1.4534598559349774,3.8096233157284556,-0.4821314825311303,-7.499387787628174,-68.10635021437922,23.83575169379496,-22.000052976989412
1698923891806.0,0.01666666753590107,2.6274641803249716,3.1246786656975742,1.8606535863816738,3.410539680370688,-0.5738596258968115,-7.187991934204101,-91.37080098033222,46.95172439247564,-7.387991082733828
1698923891823.0,0.01666666753590107,2.5418662102773784,3.1100778934150934,1.7454291243553162,3.4603691485531627,-0.33728228209167715,-7.389254511260986,-120.31532585252702,60.564339219635244,-4.303820016788217
1698923891839.0,0.01666666753590107,2.972295854882896,3.5148514109775424,0.4666331768870353,4.038269501208141,0.39459465337544675,-8.769062855529784,-150.3799197863339,58.26455988457859,-1.535219698753062
1698923891857.0,0.01666666753590107,3.4955510827019807,3.5316976240992544,-0.9586001169949769,4.743960513604432,0.9481044419437646,-10.33606784210205,-177.9762062975032,53.818704376452665,1.4655056654420344
1698923891874.0,0.01666666753590107,3.495644313943386,3.203420778501034,-1.617637441700697,4.862323712047934,1.060482428497821,-11.089194486346841,-177.04548374006225,43.12631302326992,5.030804434590041
1698923891890.0,0.01666666753590107,3.3365245960891246,2.4572931993633507,-2.4016104751080274,4.818031127465516,0.8565268129646778,-11.962628594970703,-151.4020575956263,31.861637195004732,19.038348056635773
1698923891907.0,0.01666666753590107,2.941174155910313,1.7496325673945248,-1.8413959282040595,4.498554843438416,0.4956006204351783,-11.442039371490479,-135.8615057620147,38.66266487235611,33.85659884778205
1698923891924.0,0.01666666753590107,2.7980191921681166,1.474151346307993,-1.3237462653070688,4.46309058521688,0.5394444383367896,-10.94269868774414,-133.37355471532422,57.140761539679715,43.4073855528997
1698923891941.0,0.01666666753590107,2.880469804100692,1.337785604314506,-1.0251888506680726,4.697722640173137,0.7185607231024652,-10.64207674179077,-134.06843084072463,69.15940829004427,50.996589739713876
1698923891957.0,0.01666666753590107,2.6948265287190676,0.574004696923308,-1.693057716605067,4.733635518945008,0.35688674441296603,-11.282974598693848,-127.32453428068581,64.85540556569576,60.992339363595754
1698923891974.0,0.01666666753590107,2.4261294148147106,0.11162573428149335,-1.8877678032785652,4.606742977087199,0.16146005673559846,-11.448773063659667,-113.31365795321194,48.736247916924874,69.08327900155531
1698923891990.0,0.01666666753590107,1.791752484112978,-0.8803884578064084,-1.6941572022795677,4.102763673754781,-0.5512638728050515,-11.218929704284667,-90.16894040340927,28.18564304408221,79.35008468264914
1698923892007.0,0.01666666753590107,0.9674451022297144,-1.1320332415577024,-0.5020265618294477,3.3506847849972545,-0.6483786045799032,-10.002375401195883,-75.39509096450995,25.073083150625084,83.39079727487201
1698923892024.0,0.01666666753590107,0.5476230686172843,-1.2871683467552064,0.0784486828148365,3.007116992895305,-0.6793536250907928,-9.395295642742514,-69.4014292130945,25.960792591767888,85.91016719174458
1698923892040.0,0.01666666753590107,-0.01895224549025297,-1.1707859468653798,0.4861591306120157,2.517353115789592,-0.4484628024894744,-8.959251665386557,-69.39178498598645,23.187247430217056,88.82878898636106
1698923892057.0,0.01666666753590107,-0.8839519955068826,-1.4242948439881205,0.7919178549319505,1.7395368514463305,-0.5609901343863457,-8.617779238128662,-64.7482740485641,14.720172689759483,88.58928840311457
1698923892074.0,0.01666666753590107,-1.3419415549501776,-1.5175765004061161,1.0067559528768062,1.3325228614807128,-0.5611396989248693,-8.379556172943115,-60.20212062757113,10.743945621038002,83.92829218141699
1698923892091.0,0.01666666753590107,-2.121558146713674,-1.4556144036203622,1.413420691013336,0.6169558403015136,-0.3860639217216521,-7.94216545715332,-56.12564857994867,13.375105244056165,76.5016294213762
1698923892107.0,0.01666666753590107,-2.5990543706595894,-1.5701935534805058,1.6435317614138125,0.20814561456888914,-0.412848979729414,-7.681196891674399,-61.73684364350548,25.860639820420698,74.68406144172245
1698923892124.0,0.01666666753590107,-2.824361547909677,-1.9061242748327551,1.4509639474660156,0.0846945914670825,-0.6443383527457713,-7.828889206585288,-69.52935182605967,37.84643336087749,75.23148744332063
1698923892141.0,0.01666666753590107,-3.110490273608267,-2.5508313147604462,0.4350935447633266,-0.03007715835571289,-1.1490658440969883,-8.769062855529784,-61.5121918915146,43.68010817626914,76.5612364822629
1698923892157.0,0.01666666753590107,-3.221475198368728,-2.2504728420488536,-1.6179600977838038,-0.016460136413574217,-0.7929284932792187,-10.770764496502279,-34.25745581998093,36.36142729191166,69.70135647992811
1698923892174.0,0.01666666753590107,-3.4218080933600663,-1.8829943052664397,-2.5633716473817825,-0.11551993784159421,-0.427513464897871,-11.680411489757894,-8.83402153097463,29.72249707903761,50.89298260019395
1698923892190.0,0.01666666753590107,-3.4474291490897535,-1.2739885471865533,-3.7852345782727,-0.038007659094035626,0.13991232855916022,-12.87077921218872,3.5186944674503056,23.461211440468144,24.10648673211593
1698923892207.0,0.01666666753590107,-2.864013174818456,-1.1338047082096339,-4.644689261382818,0.6040872986391186,0.2636627729989588,-13.710545444488524,-4.496408726380951,19.52952574287161,13.357068422005453
1698923892224.0,0.01666666753590107,-2.4952225325241684,-1.3310305770963429,-5.080467281278968,1.0142439705446362,0.08065598360076547,-14.12818341206014,-15.279230503514196,11.680703504384313,9.20898952489822
1698923892240.0,0.01666666753590107,-1.5942358155861496,-1.494173559117317,-6.060064593595266,1.9321210320070386,-0.0478827180288732,-15.095740157970786,-6.563720011715282,-4.4631922357867095,1.7485162612488052
1698923892258.0,0.01666666753590107,-0.978801778024435,-0.8960426846645771,-6.970655005180835,2.517952250726521,0.5400434271432459,-16.019453670501708,19.296066461945987,-19.5229909593832,-10.283741135140883
1698923892274.0,0.01666666753590107,-0.8135258756279945,-0.8569909233450889,-7.0511337325185535,2.6185084281921385,0.5262767675973474,-16.13287897415161,35.228777021848444,-28.753890877365173,-22.294668064196035
1698923892291.0,0.01666666753590107,-0.7131202125489712,-0.7886790191411972,-6.486867279875278,2.61416922994405,0.5111633696176111,-15.619771630859374,34.92233033945207,-27.84353252893461,-28.087226848331493
1698923892307.0,0.01666666753590107,-0.46342707432210445,-0.9728979608081281,-6.209386555534601,2.792387323760986,0.27039646516814825,-15.375862336730956,32.17603080250042,-25.254588597629006,-23.89021391468935
1698923892324.0,0.01666666753590107,-0.3494347844392061,-0.7708502247229218,-6.208589852198958,2.839074256134033,0.4083621166389435,-15.407136011394858,37.53728192356979,-26.116725810519277,-18.92631587877464
1698923892340.0,0.01666666753590107,-0.25267653795182704,0.03690481241866946,-6.15198241431415,2.823212670135498,1.083676695472002,-15.404741809734702,59.3981458905581,-41.59187346018612,-20.449055327810207
1698923892357.0,0.01666666753590107,-0.39833120955526824,0.8559451406192033,-5.247505517172813,2.556259185028076,1.7571956230599433,-14.554950442504882,76.700606492277,-52.838773721136356,-30.547139968479097
1698923892374.0,0.01666666753590107,-0.4772019171744585,1.294438191627711,-4.406779499930143,2.3303066956117746,2.018313168555498,-13.775039251708984,90.97806510305648,-60.09709963889301,-44.21353912025796
1698923892391.0,0.01666666753590107,-0.8473223467677831,1.4095391734048723,-2.466996262732148,1.7576432937622068,1.8640368721444158,-11.910405071258545,101.66548066342888,-54.47787568796684,-57.24239816962409
1698923892407.0,0.01666666753590107,-1.143468608611822,1.1337450139116496,-0.9216063111186027,1.3385086578920482,1.3733751146172173,-10.40594860305786,103.70619775345611,-40.41187631879638,-60.46833408066155
1698923892424.0,0.01666666753590107,-0.9849342894300818,1.3067514374949036,-0.46892158008515833,1.415422093963623,1.331626166086027,-9.977236868286132,97.93023462145649,-23.974944118890654,-55.23063083639395
1698923892440.0,0.01666666753590107,-0.7933660079136491,1.3723125816859305,-0.208352827578783,1.553687093707174,1.1474223512062802,-9.727342070007323,76.7465053634995,-11.289156933797807,-48.34002522807785
1698923892457.0,0.01666666753590107,-0.5632834329552948,1.5986802277743815,-0.619510200959444,1.76198278427124,1.2360076299689708,-10.139593668365478,58.30378566098197,-10.451480335872642,-49.14234705931174
1698923892474.0,0.01666666753590107,-0.3447143317885697,1.763349980971217,-0.8870534686535596,1.9557631888791918,1.3061878122627735,-10.409090408214926,43.60630798228715,-14.561275168908306,-53.59694179448069
1698923892490.0,0.01666666753590107,0.05327770894020795,1.904480453148484,-1.1829402027785778,2.3011269244872032,1.3609549925757571,-10.7130049659729,39.60443526077957,-23.981772600513374,-59.90868887063821
1698923892507.0,0.01666666753590107,0.4259050067879259,1.6504539618924259,-1.095230355143547,2.611175893346965,1.0307050568062812,-10.635192827495931,51.45774362190562,-34.3487071472923,-59.50307125658783
1698923892524.0,0.01666666753590107,0.7014601698935031,1.4194573408290743,-0.9377975674629211,2.7946317416869104,0.6783082807563245,-10.48974566116333,71.8319383688652,-47.683705520542155,-48.66168615685043
1698923892541.0,0.01666666753590107,0.8150574691094458,0.8059717339213937,-0.0925000045210123,2.734178149767965,-0.19632358628474175,-9.657162033843994,100.97072065124435,-63.495050449082655,-30.542737911559023
1698923892557.0,0.01666666753590107,0.7669530711539089,1.1807393317334354,1.1187643754661083,2.526630501092225,-0.07766074730753898,-8.44629454421997,112.52835012320055,-69.16311708276359,-23.618022338527883
1698923892574.0,0.01666666753590107,0.6965877415515482,1.5357622915685176,1.7489678198754786,2.2873601188108323,0.005238339044898748,-7.805995237731933,112.66064405723453,-73.50368180973918,-22.4050524589199
1698923892590.0,0.01666666753590107,0.6900675460025668,1.9911916451349854,2.394320902621746,2.040906839288026,0.12030951020568609,-7.136965511322021,97.87950680649081,-78.87074883688682,-24.116054119595823
1698923892607.0,0.01666666753590107,0.5219405650239437,2.1056066904745996,2.970458410322666,1.6871636901304126,0.016909926007688043,-6.540061109924316,84.35676360843023,-80.68199206136914,-28.670627456288134
1698923892624.0,0.01666666753590107,0.6306488500893116,2.1439216619521377,3.0861931599587202,1.6157864070065318,-0.12659238986745475,-6.402993064880371,68.72065059814099,-77.56830689424626,-31.41185557778105
1698923892640.0,0.01666666753590107,0.5201498822148889,1.9447586875230072,2.98570624833703,1.2820945506222545,-0.5117597280755639,-6.477662229156493,50.695361321843386,-73.95245938915487,-30.02117100615851
1698923892657.0,0.01666666753590107,0.45825730700138956,1.6546914533317088,2.322358074694872,1.055094269186072,-0.9096464087337255,-7.124246899524331,42.42770761458268,-73.34830183631055,-24.141336064808627
1698923892674.0,0.01666666753590107,0.5344056404519826,1.6372542885795234,2.330824874266982,0.970848298269324,-1.0244181585565209,-7.097610821533203,39.19488004267268,-69.73101999149347,-21.531826433912112
1698923892690.0,0.01666666753590107,0.6642419076114893,1.7546563869059084,1.9519407079815863,0.8987229915234259,-1.0362395292535425,-7.446267022815347,43.53817684531627,-67.25254924737094,-22.502131645140587
1698923892707.0,0.01666666753590107,0.5583075807714835,2.1787419231817124,1.9202613751262425,0.64897777604945,-0.728135703112185,-7.445218975067138,52.319320759283954,-65.85885597741901,-28.246180718243323
1698923892723.0,0.01666666753590107,0.4841750441227108,2.2952643160641193,1.8393635455936193,0.4496604650085559,-0.751179601830244,-7.482029825592041,61.57742019808821,-56.803835138112156,-34.913802848273306
1698923892741.0,0.01666666753590107,0.6178828920185565,2.3652350933909414,1.9930121385604143,0.4562444876079447,-0.8843573614373803,-7.258171970367431,61.154535865816044,-47.215755600126236,-41.10929668966263
