msFromStart,interval,accx,accy,accz,accGx,accGy,accGz,rotRate_alpha,rotRate_beta,rotRate_gamma
1698672659011.0,16,-0.1,-0.1,0.0,0.9,9.3,0.9,-1.8,-0.1,-0.2
1698672659028.0,16,0.0,0.0,0.0,1.0,9.3,0.9,-0.9,-0.30000000000000004,-0.7
1698672659044.0,16,0.0,0.0,0.0,1.0,9.3,0.9,-0.30000000000000004,-0.2,-0.7
1698672659061.0,16,0.0,0.0,0.0,1.0,9.3,0.9,-0.1,-0.2,-0.5
1698672659078.0,16,0.0,0.0,0.0,1.0,9.3,0.9,0.1,-0.2,0.1
1698672659094.0,16,0.0,0.0,0.0,1.0,9.3,0.9,0.4,0.0,-0.1
1698672659111.0,16,0.0,0.0,0.0,1.0,9.3,0.9,0.30000000000000004,-0.1,-0.2
1698672659128.0,16,0.0,0.0,0.0,1.0,9.3,0.9,0.30000000000000004,-0.1,-0.2
1698672659144.0,16,0.0,0.0,0.0,1.0,9.3,0.9,0.30000000000000004,-0.2,-0.2
1698672659161.0,16,0.0,0.0,0.0,1.0,9.3,1.0,0.30000000000000004,-0.2,-0.2
1698672659177.0,16,0.0,0.0,0.0,1.0,9.3,1.0,0.30000000000000004,-0.5,-0.1
1698672659194.0,16,0.0,0.0,0.0,1.0,9.3,0.9,0.30000000000000004,-0.5,-0.2
1698672659211.0,16,0.0,0.0,0.0,1.0,9.4,0.9,0.30000000000000004,-0.6000000000000001,-0.2
1698672659228.0,16,0.0,0.0,0.0,1.0,9.3,1.0,0.2,-0.7,-0.1
1698672659244.0,16,0.0,0.0,0.0,1.0,9.3,0.9,-0.1,-0.6000000000000001,-0.2
1698672659261.0,16,0.0,0.0,0.0,1.0,9.4,0.9,-0.2,-0.30000000000000004,0.0
1698672659278.0,16,0.0,0.0,0.0,1.0,9.3,0.9,-0.2,-0.2,0.0
1698672659294.0,16,0.0,0.0,0.0,1.0,9.4,0.9,-0.2,-0.4,0.1
1698672659311.0,16,0.0,0.0,0.0,1.0,9.4,0.9,0.1,-0.5,0.0
1698672659328.0,16,0.0,0.0,0.0,1.0,9.4,0.9,0.4,-0.30000000000000004,0.0
1698672659344.0,16,0.0,0.0,0.0,1.0,9.4,0.9,0.5,0.0,0.1
1698672659361.0,16,0.0,0.0,0.0,1.0,9.4,0.9,0.1,0.0,0.4
1698672659377.0,16,0.0,0.0,0.0,1.0,9.4,0.9,-0.7,0.2,0.2
1698672659394.0,16,0.0,0.1,0.0,1.0,9.4,0.9,-0.7,0.2,0.2
1698672659411.0,16,0.0,0.0,0.0,1.0,9.4,0.9,-1.2000000000000002,0.2,0.2
1698672659428.0,16,0.0,0.0,0.0,1.0,9.4,0.9,-1.8,0.30000000000000004,0.30000000000000004
1698672659444.0,16,0.0,0.0,0.0,1.0,9.3,0.9,-1.9,0.1,0.4
1698672659461.0,16,0.0,0.0,0.0,1.0,9.3,1.0,-2.1,0.1,0.4
1698672659478.0,16,0.0,0.0,0.0,1.0,9.3,1.0,-2.1,0.1,0.4
1698672659495.0,16,0.0,0.0,0.0,1.0,9.4,0.9,-2.1,0.30000000000000004,0.30000000000000004
1698672659511.0,16,0.0,0.0,0.0,1.0,9.3,1.0,-2.0,-0.30000000000000004,0.5
1698672659528.0,16,0.0,0.0,0.0,1.0,9.3,1.0,-1.9,-0.5,0.4
1698672659544.0,16,0.0,0.0,0.0,1.0,9.4,1.0,-1.8,-0.7,0.30000000000000004
1698672659561.0,16,0.0,0.0,0.0,1.0,9.4,1.0,-1.9,-0.9,0.2
1698672659578.0,16,0.0,0.0,0.0,1.1,9.3,1.0,-1.8,-0.8,0.2
1698672659594.0,16,0.0,0.0,0.0,1.0,9.3,1.0,-1.6,-0.5,0.1
1698672659611.0,16,0.0,0.0,0.0,1.0,9.4,1.0,-1.7,-0.30000000000000004,0.1
1698672659628.0,16,0.0,0.0,0.0,1.0,9.3,1.0,-2.1999999999999997,-0.5,0.1
1698672659645.0,16,0.0,0.0,0.0,1.0,9.3,1.0,-2.3000000000000003,-0.7,0.1
1698672659661.0,16,0.0,0.0,0.0,1.0,9.4,1.0,-2.4000000000000004,-0.5,0.0
1698672659678.0,16,0.0,0.0,0.0,1.0,9.3,1.0,-2.4000000000000004,-0.8,-0.2
1698672659695.0,16,0.1,0.0,0.0,1.1,9.3,1.0,-2.4000000000000004,-0.1,-0.7
1698672659712.0,16,0.0,0.0,0.0,1.0,9.3,1.0,-2.1999999999999997,0.8,-0.4
1698672659728.0,16,0.0,0.0,0.0,1.0,9.4,1.0,-2.4000000000000004,0.7,0.0
1698672659745.0,16,0.0,0.1,0.0,1.0,9.4,1.0,-2.1999999999999997,0.5,0.5
1698672659761.0,16,0.0,0.0,0.0,1.0,9.4,1.0,-2.1,0.4,0.2
1698672659777.0,16,0.0,0.0,0.0,1.0,9.3,1.0,-1.8,0.1,0.0
1698672659794.0,16,0.0,0.0,0.0,1.0,9.3,1.0,-1.6,0.1,0.0
1698672659811.0,16,0.0,0.0,0.0,1.0,9.3,1.0,-1.0999999999999999,0.1,0.2
1698672659828.0,16,0.0,0.0,0.0,1.0,9.3,1.0,-0.8,-0.2,0.2
1698672659844.0,16,0.0,0.0,0.0,1.0,9.3,1.0,-0.6000000000000001,-0.2,0.1
1698672659861.0,16,0.0,0.0,0.0,1.0,9.3,1.1,-0.5,-0.2,0.0
1698672659877.0,16,0.0,0.0,0.0,1.0,9.4,1.1,-0.5,0.0,0.1
1698672659894.0,16,0.0,0.0,0.0,1.0,9.3,1.1,-0.8,-0.30000000000000004,0.30000000000000004
1698672659911.0,16,0.0,0.0,0.0,1.0,9.3,1.1,-1.0,-0.5,0.2
1698672659927.0,16,0.0,0.0,0.0,1.0,9.4,1.1,-1.0999999999999999,-0.4,0.1
1698672659944.0,16,0.0,0.0,0.0,1.0,9.3,1.1,-1.6,0.0,0.1
1698672659961.0,16,0.0,0.0,0.0,1.0,9.3,1.0,-2.1999999999999997,-0.4,0.1
1698672659977.0,16,0.0,0.0,0.0,1.0,9.3,1.1,-3.0000000000000004,-0.4,0.1
1698672659994.0,16,0.0,0.0,-0.1,1.0,9.4,1.0,-3.1,-0.4,0.2
1698672660011.0,16,0.0,0.0,-0.1,1.0,9.3,1.0,-3.3000000000000003,-1.0,-0.2
1698672660027.0,16,0.0,0.0,-0.1,1.0,9.3,1.0,-2.7,-0.8,-0.4
1698672660044.0,16,0.0,0.0,0.0,1.0,9.3,1.0,-2.1,-0.6000000000000001,-0.2
1698672660061.0,16,0.0,0.0,-0.1,1.0,9.3,1.0,-0.30000000000000004,-0.5,0.1
1698672660077.0,16,0.0,0.0,0.0,1.0,9.3,1.1,1.2000000000000002,-0.9,0.5
1698672660094.0,16,0.0,0.0,0.0,1.0,9.3,1.1,2.1999999999999997,-0.9,0.7
1698672660111.0,16,0.0,0.0,0.0,1.0,9.3,1.1,3.4,-1.7,0.9
1698672660129.0,16,0.0,0.1,0.1,1.1,9.4,1.1,3.4,-2.7,0.4
1698672660144.0,16,0.1,0.1,0.1,1.1,9.4,1.2000000000000002,3.1,-2.4000000000000004,-0.4
1698672660161.0,16,0.0,0.1,0.1,1.1,9.4,1.2000000000000002,2.5,-1.0999999999999999,-0.30000000000000004
1698672660178.0,16,0.0,0.0,0.1,1.0,9.4,1.2000000000000002,0.9,-0.4,0.2
1698672660195.0,16,0.0,0.0,0.1,1.0,9.3,1.1,0.0,0.2,0.2
1698672660212.0,16,0.0,0.0,0.0,1.0,9.3,1.1,-2.1,0.4,-0.1
1698672660227.0,16,0.0,0.0,0.0,1.0,9.3,1.1,-3.5,0.1,0.0
1698672660244.0,16,-0.1,0.0,-0.1,1.0,9.3,1.0,-3.6,-0.4,0.1
1698672660261.0,16,-0.1,0.0,-0.1,0.9,9.3,1.0,-3.0000000000000004,-1.6,0.2
1698672660278.0,16,-0.1,-0.1,-0.1,0.9,9.3,1.0,-1.4,-2.8,-0.30000000000000004
1698672660294.0,16,-0.1,-0.1,-0.1,0.9,9.3,1.0,-0.30000000000000004,-3.3000000000000003,-0.5
1698672660312.0,16,0.0,0.0,0.0,1.0,9.3,1.1,2.1,-3.9,-0.8
1698672660327.0,16,0.1,0.0,0.0,1.1,9.3,1.1,4.3999999999999995,-3.2,-1.0
1698672660345.0,16,0.2,0.0,0.1,1.2000000000000002,9.3,1.1,5.300000000000001,-2.5,-0.9
1698672660361.0,16,0.30000000000000004,0.0,0.1,1.3,9.3,1.1,5.8,-1.3,-0.5
1698672660378.0,16,0.2,-0.1,0.1,1.2000000000000002,9.3,1.1,4.6000000000000005,0.2,-0.30000000000000004
1698672660394.0,16,0.1,0.0,0.0,1.1,9.3,1.1,3.6,1.0,-0.1
1698672660412.0,16,0.1,0.0,0.0,1.1,9.4,1.1,0.5,2.3000000000000003,-0.6000000000000001
1698672660428.0,16,0.0,0.0,0.0,1.0,9.3,1.1,-1.6,3.4,-0.5
1698672660446.0,16,0.0,0.0,0.0,1.0,9.3,1.0,-2.1,3.6,-0.5
1698672660461.0,16,0.0,-0.1,0.0,1.0,9.3,1.0,-1.9,3.6,-0.4
1698672660478.0,16,-0.1,0.0,-0.1,1.0,9.3,1.0,-1.0999999999999999,3.2,-0.4
1698672660494.0,16,0.0,-0.1,0.0,1.0,9.3,1.0,0.6000000000000001,2.6,-0.5
1698672660511.0,16,0.0,-0.1,0.0,1.0,9.3,1.1,1.8,2.6,-0.4
1698672660527.0,16,0.0,0.0,0.0,1.0,9.3,1.0,3.7000000000000006,3.1,0.6000000000000001
1698672660545.0,16,0.0,0.0,0.0,1.0,9.4,1.0,4.3999999999999995,2.9,1.0
1698672660573.0,16,0.0,0.1,0.0,1.0,9.4,1.0,5.1,1.9,2.0
1698672660578.0,16,0.0,0.1,0.0,1.0,9.4,1.0,4.800000000000001,1.8,2.1
1698672660594.0,16,0.0,0.1,0.0,1.0,9.4,1.0,4.3999999999999995,1.5000000000000002,2.3000000000000003
1698672660612.0,16,-0.1,0.1,0.0,1.0,9.4,1.0,3.4,1.0999999999999999,2.1
1698672660628.0,16,-0.1,0.1,0.0,1.0,9.4,1.0,2.0,1.7,1.5000000000000002
1698672660644.0,16,-0.1,0.0,0.0,0.9,9.4,1.0,1.0999999999999999,2.0,1.0
1698672660661.0,16,0.0,0.0,0.0,1.0,9.4,1.0,-0.30000000000000004,1.2000000000000002,0.9
1698672660678.0,16,-0.1,0.0,0.0,1.0,9.3,1.0,-1.4,0.30000000000000004,1.0
1698672660694.0,16,0.0,0.0,-0.1,1.0,9.3,0.9,-1.7,-0.8,1.0999999999999999
1698672660711.0,16,0.0,0.0,0.0,1.0,9.4,1.0,-1.6,-1.4,1.0999999999999999
1698672660727.0,16,0.0,0.0,-0.1,1.1,9.4,0.9,-0.7,-1.0,0.30000000000000004
1698672660744.0,16,0.1,0.1,-0.1,1.1,9.4,0.9,0.4,-1.0999999999999999,0.6000000000000001
1698672660761.0,16,0.0,0.1,0.0,1.1,9.4,1.0,0.9,-1.0999999999999999,1.0
1698672660778.0,16,0.0,0.0,0.0,1.0,9.3,1.0,1.8,-1.5000000000000002,1.2000000000000002
1698672660794.0,16,-0.1,0.0,0.0,1.0,9.4,0.9,1.8,-1.5000000000000002,1.0999999999999999
1698672660811.0,16,0.0,0.0,0.0,1.0,9.3,0.9,1.3,-1.6,1.0
1698672660828.0,16,0.0,0.0,0.0,1.0,9.3,0.9,0.4,-2.6,0.7
1698672660847.0,16,0.0,0.0,0.0,1.1,9.3,1.0,-0.5,-2.8,-0.4
1698672660863.0,16,0.0,0.0,0.0,1.1,9.4,1.0,-0.8,-2.8,-1.0999999999999999
1698672660878.0,16,0.1,0.0,0.0,1.2000000000000002,9.4,1.0,-1.0,-2.1,-1.3
1698672660894.0,16,0.1,0.0,0.0,1.2000000000000002,9.4,1.0,-0.7,-1.8,-1.4
1698672660911.0,16,0.1,-0.1,0.0,1.1,9.3,1.0,-0.2,-1.5000000000000002,-1.2000000000000002
1698672660928.0,16,0.1,-0.1,0.0,1.1,9.3,1.0,0.9,-1.0999999999999999,-0.5
1698672660944.0,16,0.1,-0.1,0.1,1.1,9.3,1.0,1.2000000000000002,-1.3,-0.5
1698672660962.0,16,0.1,-0.1,0.1,1.1,9.200000000000001,1.0,1.4,-0.8,-1.5000000000000002
1698672660978.0,16,0.1,-0.1,0.1,1.1,9.3,1.0,1.2000000000000002,-0.2,-1.6
1698672660996.0,16,0.0,0.0,0.1,1.1,9.3,1.0,0.5,1.7,-1.5000000000000002
1698672661013.0,16,0.0,0.0,0.0,1.0,9.4,0.9,-0.7,2.1999999999999997,-0.7
1698672661028.0,16,-0.1,0.0,0.0,1.0,9.4,0.9,-1.9,1.6,-0.2
1698672661044.0,16,-0.1,0.0,-0.1,0.9,9.3,0.9,-2.4000000000000004,-0.5,0.2
1698672661061.0,16,-0.1,0.0,0.0,0.9,9.4,1.0,-2.3000000000000003,-0.8,1.0
1698672661078.0,16,-0.2,0.1,0.0,0.8,9.4,0.9,-1.0999999999999999,-0.8,0.1
1698672661094.0,16,-0.1,0.0,-0.1,0.9,9.4,0.9,0.0,-0.7,-1.6
1698672661111.0,16,0.0,0.0,-0.1,1.0,9.4,0.9,-0.30000000000000004,-1.2000000000000002,-1.2000000000000002
1698672661128.0,16,0.0,0.1,0.0,1.0,9.4,0.9,-0.7,-1.0999999999999999,-0.7
1698672661144.0,16,0.1,0.1,0.0,1.1,9.5,1.0,-1.0,-0.6000000000000001,-0.2
1698672661161.0,16,0.1,0.1,0.0,1.1,9.4,0.9,-1.7,0.2,0.1
1698672661177.0,16,0.0,0.0,0.0,1.1,9.4,0.9,-1.9,0.30000000000000004,0.30000000000000004
1698672661195.0,16,0.0,0.0,-0.1,1.0,9.3,0.9,-2.7,0.9,0.4
1698672661211.0,16,0.0,0.0,-0.1,1.0,9.4,0.9,-3.2,1.2000000000000002,0.5
1698672661228.0,16,0.0,0.1,-0.1,1.0,9.4,0.9,-4.300000000000001,0.7,0.6000000000000001
1698672661244.0,16,0.0,0.0,-0.1,1.0,9.4,0.9,-4.5,0.1,0.5
1698672661261.0,16,0.0,0.1,-0.1,1.0,9.4,0.9,-4.2,-0.5,0.2
1698672661278.0,16,0.0,0.0,0.0,1.0,9.3,1.0,-2.8,-1.0,-0.1
1698672661294.0,16,0.0,0.0,0.1,1.1,9.3,1.1,-1.9,-1.0999999999999999,0.0
1698672661311.0,16,0.0,0.0,0.1,1.0,9.3,1.1,-0.2,-0.4,0.7
1698672661328.0,16,0.0,0.0,0.1,1.0,9.3,1.1,0.6000000000000001,-0.7,1.5000000000000002
1698672661344.0,16,0.0,0.0,0.1,1.0,9.3,1.2000000000000002,0.2,-1.2000000000000002,1.3
1698672661361.0,16,0.0,-0.1,0.1,1.0,9.3,1.2000000000000002,-1.0,-2.4000000000000004,0.7
1698672661378.0,16,-0.1,0.0,0.1,1.0,9.3,1.2000000000000002,-2.0,-2.6,0.6000000000000001
1698672661394.0,16,0.0,0.0,0.0,1.0,9.3,1.1,-4.300000000000001,-2.6,-0.30000000000000004
1698672661411.0,16,0.0,0.0,0.1,1.0,9.4,1.1,-6.5,-2.7,-1.3
1698672661428.0,16,0.0,0.0,0.0,1.0,9.3,1.1,-6.9,-2.9,-1.4
1698672661444.0,16,0.1,-0.1,0.0,1.2000000000000002,9.200000000000001,1.2000000000000002,-7.1000000000000005,-1.9,-1.6
1698672661461.0,16,0.2,0.0,0.0,1.2000000000000002,9.3,1.1,-6.3,-0.8,-1.3
1698672661478.0,16,0.2,0.0,-0.1,1.2000000000000002,9.3,1.1,-5.7,-0.2,-0.7
1698672661494.0,16,0.2,0.1,-0.1,1.2000000000000002,9.4,1.1,-4.7,0.9,-0.2
1698672661511.0,16,0.2,0.1,-0.1,1.2000000000000002,9.5,1.0,-3.8,2.1,-0.5
1698672661528.0,16,0.2,0.1,-0.1,1.2000000000000002,9.5,1.1,-3.5,2.8,-0.2
1698672661544.0,16,0.0,0.1,-0.2,1.1,9.4,1.0,-3.6,2.8,0.7
1698672661561.0,16,-0.1,0.1,-0.2,0.9,9.4,1.0,-4.6000000000000005,0.7,2.0
1698672661578.0,16,-0.30000000000000004,0.1,-0.2,0.8,9.4,1.0,-4.9,-0.6000000000000001,2.4000000000000004
1698672661594.0,16,-0.30000000000000004,0.1,-0.2,0.8,9.4,1.0,-4.7,-3.9,1.8
1698672661611.0,16,-0.30000000000000004,0.0,-0.1,0.7000000000000001,9.3,1.0,-4.300000000000001,-4.7,0.1
1698672661628.0,16,-0.2,-0.1,-0.1,0.9,9.3,1.1,-3.0000000000000004,-3.9,-5.4
1698672661645.0,16,0.2,-0.2,0.1,1.2000000000000002,9.200000000000001,1.3,-1.2000000000000002,-2.1,-7.500000000000001
1698672661661.0,16,0.5,-0.30000000000000004,0.30000000000000004,1.6,9.1,1.5,2.1,1.2000000000000002,-6.000000000000001
1698672661677.0,16,0.5,-0.4,0.30000000000000004,1.5,8.9,1.5,5.300000000000001,5.0,-2.1
1698672661694.0,16,0.4,-0.4,0.30000000000000004,1.4000000000000001,9.0,1.5,5.9,6.7,0.7
1698672661711.0,16,0.0,-0.1,0.30000000000000004,1.0,9.200000000000001,1.5,6.2,8.200000000000001,4.0
1698672661728.0,16,-0.2,0.0,0.30000000000000004,0.8,9.3,1.5,5.9,8.200000000000001,4.800000000000001
1698672661745.0,16,-0.5,0.0,0.1,0.5,9.4,1.3,3.7000000000000006,6.8,4.9
1698672661761.0,16,-0.5,-0.1,0.1,0.5,9.3,1.2000000000000002,-0.5,5.7,2.7
1698672661778.0,16,-0.6000000000000001,0.0,0.1,0.5,9.4,1.2000000000000002,-2.7,4.300000000000001,0.5
1698672661794.0,16,-0.30000000000000004,0.1,0.0,0.7000000000000001,9.5,1.2000000000000002,-5.7,2.6,-1.2000000000000002
1698672661811.0,16,-0.30000000000000004,0.0,-0.1,0.8,9.3,1.1,-7.400000000000001,-0.30000000000000004,-0.1
1698672661828.0,16,-0.2,-0.1,0.0,0.8,9.3,1.2000000000000002,-7.300000000000001,-1.8,-0.2
1698672661844.0,16,-0.1,-0.1,-0.1,1.0,9.200000000000001,1.2000000000000002,-5.4,-2.0,-1.0
1698672661861.0,16,0.1,-0.2,0.0,1.1,9.1,1.2000000000000002,-2.4000000000000004,-2.1,-1.6
1698672661877.0,16,0.2,-0.2,0.0,1.2000000000000002,9.1,1.2000000000000002,1.4,-1.6,-0.6000000000000001
1698672661894.0,16,0.2,-0.1,0.0,1.2000000000000002,9.200000000000001,1.2000000000000002,3.3000000000000003,-1.5000000000000002,0.1
1698672661911.0,16,0.2,-0.1,0.1,1.2000000000000002,9.3,1.3,6.5,-0.8,1.3
1698672661928.0,16,0.2,0.0,0.1,1.2000000000000002,9.4,1.3,8.5,-0.1,1.9
1698672661945.0,16,0.1,0.0,0.2,1.1,9.4,1.3,8.600000000000001,0.30000000000000004,1.7
1698672661961.0,16,0.0,0.0,0.2,1.0,9.4,1.3,7.1000000000000005,1.2000000000000002,1.5000000000000002
1698672661978.0,16,0.0,0.0,0.1,1.0,9.4,1.3,3.7000000000000006,1.4,1.0
1698672661994.0,16,-0.1,0.0,0.1,1.0,9.4,1.3,1.5000000000000002,1.4,0.4
1698672662011.0,16,-0.1,0.0,0.0,1.0,9.3,1.2000000000000002,-1.9,1.0999999999999999,-0.2
1698672662028.0,16,-0.1,0.0,0.0,1.0,9.3,1.2000000000000002,-3.3000000000000003,0.6000000000000001,-0.5
1698672662044.0,16,0.0,0.0,-0.1,1.0,9.3,1.1,-4.5,0.1,-0.9
1698672662061.0,16,0.0,0.0,-0.1,1.0,9.3,1.1,-4.1000000000000005,0.0,-0.7
1698672662077.0,16,0.0,0.0,-0.1,1.0,9.3,1.1,-2.5,-0.1,-0.2
1698672662094.0,16,0.0,0.0,-0.1,1.0,9.4,1.1,-1.3,-0.1,0.0
1698672662111.0,16,0.0,0.0,-0.1,1.0,9.4,1.1,0.1,-0.2,0.2
1698672662128.0,16,0.0,0.0,-0.1,1.0,9.3,1.1,2.5,-0.2,0.5
1698672662144.0,16,0.0,0.0,0.0,1.0,9.3,1.1,4.0,-0.2,0.8
1698672662161.0,16,0.0,0.0,0.0,1.0,9.3,1.2000000000000002,4.3999999999999995,-0.4,0.9
1698672662177.0,16,0.0,0.0,0.1,1.0,9.3,1.2000000000000002,3.7000000000000006,-0.2,0.7
1698672662195.0,16,0.0,0.0,0.1,1.0,9.3,1.2000000000000002,3.1,0.0,0.4
1698672662211.0,16,0.0,0.0,0.1,1.1,9.3,1.2000000000000002,1.8,0.1,0.5
1698672662227.0,16,0.0,0.0,0.1,1.0,9.3,1.2000000000000002,0.30000000000000004,0.6000000000000001,0.6000000000000001
1698672662244.0,16,0.0,-0.1,0.1,1.0,9.3,1.2000000000000002,-0.30000000000000004,0.6000000000000001,0.6000000000000001
1698672662261.0,16,0.0,0.0,0.0,1.0,9.3,1.2000000000000002,-1.0,0.4,0.4
1698672662278.0,16,0.0,0.0,0.0,1.0,9.3,1.2000000000000002,-1.0999999999999999,0.4,0.4
1698672662296.0,16,0.0,0.0,0.0,1.0,9.3,1.2000000000000002,-1.0,0.8,0.4
1698672662310.0,16,0.0,0.0,0.0,1.0,9.3,1.1,-0.30000000000000004,0.7,0.6000000000000001
1698672662327.0,16,0.0,0.0,0.0,1.0,9.3,1.2000000000000002,0.5,0.4,0.7
1698672662344.0,16,0.0,0.0,0.0,1.0,9.3,1.2000000000000002,0.9,0.4,0.8
1698672662361.0,16,0.0,0.0,0.0,1.0,9.3,1.2000000000000002,2.0,0.1,0.6000000000000001
1698672662377.0,16,0.0,0.0,0.0,1.0,9.3,1.1,2.6,0.1,0.4
1698672662394.0,16,0.0,0.0,0.0,1.0,9.3,1.1,2.8,-0.1,0.5
1698672662411.0,16,0.0,0.0,0.0,1.0,9.3,1.1,2.8,-0.8,0.2
1698672662427.0,16,0.0,0.0,0.0,1.1,9.3,1.2000000000000002,2.7,-0.9,-0.2
1698672662444.0,16,0.0,0.0,0.0,1.1,9.3,1.1,2.6,-0.7,-0.2
1698672662461.0,16,0.1,0.0,0.1,1.1,9.3,1.2000000000000002,2.1,-0.2,0.30000000000000004
1698672662478.0,16,0.0,0.0,0.0,1.1,9.3,1.1,1.6,0.1,0.4
1698672662494.0,16,0.0,0.0,0.0,1.1,9.4,1.1,0.9,0.4,0.2
1698672662511.0,16,0.0,0.0,0.0,1.1,9.4,1.1,0.7,0.30000000000000004,0.1
1698672662528.0,16,0.0,0.0,0.0,1.0,9.3,1.1,0.4,0.30000000000000004,0.0
1698672662544.0,16,0.0,0.0,0.0,1.0,9.4,1.1,0.6000000000000001,0.4,-0.1
1698672662561.0,16,0.0,0.0,0.0,1.0,9.3,1.1,0.9,0.4,-0.1
1698672662578.0,16,0.0,-0.1,0.0,1.0,9.3,1.1,1.4,-0.2,-0.1
1698672662594.0,16,0.0,-0.1,0.0,1.0,9.200000000000001,1.1,1.7,-0.4,-0.1
1698672662611.0,16,0.0,0.0,0.0,1.0,9.3,1.1,2.5,-0.30000000000000004,-0.1
1698672662628.0,16,0.0,0.0,0.0,1.1,9.3,1.1,3.1,-0.2,0.0
1698672662644.0,16,0.0,0.0,0.0,1.1,9.3,1.1,3.3000000000000003,-0.2,0.1
1698672662661.0,16,0.0,0.0,0.0,1.1,9.3,1.1,3.2,-0.2,0.1
1698672662677.0,16,0.0,0.0,0.0,1.0,9.4,1.1,2.9,-0.30000000000000004,0.0
1698672662694.0,16,0.0,0.0,0.0,1.0,9.3,1.1,2.8,-0.2,-0.1
1698672662711.0,16,0.0,0.0,0.0,1.0,9.3,1.1,2.0,0.0,-0.5
1698672662728.0,16,0.0,0.0,0.0,1.0,9.4,1.1,1.5000000000000002,0.1,-0.30000000000000004
1698672662744.0,16,0.0,0.0,0.0,1.1,9.3,1.0,0.9,0.1,-0.30000000000000004
1698672662761.0,16,0.0,0.0,0.0,1.0,9.3,1.0,0.8,0.0,-0.1
1698672662777.0,16,0.0,0.0,-0.1,1.0,9.4,1.0,0.30000000000000004,-0.7,-0.1
1698672662794.0,16,0.0,0.0,-0.1,1.0,9.4,1.0,0.2,-1.0,-0.4
1698672662812.0,16,-0.1,0.0,-0.1,1.0,9.4,0.9,0.1,-1.5000000000000002,-0.7
1698672662827.0,16,0.0,0.0,-0.1,1.0,9.4,0.9,0.30000000000000004,-2.6,-0.8
1698672662845.0,16,0.0,0.1,-0.1,1.1,9.4,0.9,0.4,-3.1,-1.2000000000000002
1698672662861.0,16,0.1,0.0,0.0,1.1,9.4,1.0,0.9,-3.5,-2.4000000000000004
1698672662878.0,16,0.1,-0.1,0.0,1.2000000000000002,9.3,1.0,1.8,-2.3000000000000003,-3.4
1698672662894.0,16,0.2,-0.1,0.0,1.2000000000000002,9.200000000000001,1.0,2.3000000000000003,-1.5000000000000002,-3.0000000000000004
1698672662911.0,16,0.2,-0.1,0.1,1.2000000000000002,9.3,1.1,2.7,-0.1,-2.9
1698672662928.0,16,0.2,0.0,0.1,1.3,9.3,1.1,3.2,1.4,-2.6
1698672662945.0,16,0.2,0.0,0.1,1.2000000000000002,9.4,1.1,3.5,2.3000000000000003,-2.6
1698672662961.0,16,0.1,0.0,0.0,1.1,9.4,1.0,3.9,4.1000000000000005,-2.1999999999999997
1698672662978.0,16,0.0,0.0,0.1,1.0,9.4,1.0,3.6,4.300000000000001,-1.6
1698672662994.0,16,-0.1,0.0,0.0,0.9,9.3,1.0,3.2,4.800000000000001,-1.9
1698672663011.0,16,-0.1,0.0,0.1,0.9,9.3,1.0,2.9,5.1,-2.1
1698672663028.0,16,-0.1,0.0,0.0,0.9,9.3,0.9,2.1,5.0,-2.1
1698672663044.0,16,-0.1,0.1,-0.1,0.9,9.4,0.9,0.9,4.300000000000001,-1.3
1698672663061.0,16,-0.1,0.1,-0.1,0.9,9.4,0.9,-0.2,2.8,-0.4
1698672663078.0,16,-0.1,0.2,-0.1,0.8,9.5,0.9,-1.7,2.1999999999999997,1.2000000000000002
1698672663094.0,16,-0.2,0.2,-0.1,0.8,9.600000000000001,0.8,-2.4000000000000004,1.8,1.5000000000000002
1698672663112.0,16,-0.30000000000000004,0.2,-0.1,0.7000000000000001,9.5,0.9,-3.5,0.0,1.0999999999999999
1698672663127.0,16,-0.30000000000000004,0.1,-0.1,0.7000000000000001,9.4,0.9,-3.6,0.0,0.2
1698672663144.0,16,-0.1,0.0,-0.2,0.8,9.3,0.8,-3.6,-0.2,-1.8
1698672663161.0,16,0.0,0.0,-0.1,0.9,9.3,0.8,-3.9,-1.6,-1.3
1698672663178.0,16,0.0,0.0,-0.1,0.9,9.4,0.9,-3.7000000000000006,-2.1,-0.8
1698672663194.0,16,0.0,0.0,0.0,1.0,9.4,0.9,-2.4000000000000004,-2.8,-0.1
1698672663211.0,16,0.1,0.0,0.0,1.0,9.4,1.0,-1.6,-3.2,-0.30000000000000004
1698672663227.0,16,0.1,0.0,0.1,1.0,9.4,1.0,0.4,-2.1999999999999997,0.1
1698672663244.0,16,0.1,0.0,0.1,1.0,9.4,1.1,1.7,-1.8,0.7
1698672663261.0,16,0.1,0.0,0.1,1.0,9.3,1.1,1.5000000000000002,-1.0999999999999999,0.7
1698672663278.0,16,0.0,-0.1,0.1,1.0,9.3,1.1,0.9,-1.0,0.4
1698672663294.0,16,0.0,-0.1,0.1,1.0,9.3,1.1,-0.8,-0.4,0.2
1698672663311.0,16,0.0,0.0,0.1,1.0,9.3,1.1,-2.1,-0.1,0.1
1698672663328.0,16,0.0,-0.1,0.1,1.0,9.3,1.1,-4.1000000000000005,0.30000000000000004,-0.30000000000000004
1698672663345.0,16,0.0,-0.1,0.0,1.0,9.200000000000001,1.0,-5.2,0.2,-0.6000000000000001
1698672663363.0,16,0.0,-0.1,0.0,1.0,9.3,1.1,-5.500000000000001,0.1,-0.8
1698672663378.0,16,0.0,-0.1,0.0,1.0,9.3,1.0,-5.2,0.0,-0.8
1698672663394.0,16,0.0,0.0,0.0,0.9,9.3,1.0,-3.6,0.1,-0.9
1698672663411.0,16,0.0,0.0,0.0,0.9,9.3,1.0,-1.4,-0.2,-0.4
1698672663428.0,16,0.0,0.0,0.0,0.9,9.3,1.1,-0.30000000000000004,-0.7,-0.1
1698672663444.0,16,0.0,0.0,0.0,0.9,9.3,1.1,0.6000000000000001,-1.0,-0.1
1698672663461.0,16,0.0,0.0,0.0,1.0,9.3,1.1,2.0,-1.0999999999999999,0.1
1698672663478.0,16,0.0,0.0,0.1,0.9,9.3,1.1,2.4000000000000004,-0.7,0.0
1698672663494.0,16,-0.1,0.0,0.0,0.9,9.3,1.1,1.6,-1.2000000000000002,-0.2
1698672663511.0,16,-0.1,0.0,0.1,0.9,9.3,1.1,0.4,-1.2000000000000002,-0.7
1698672663528.0,16,0.0,0.0,0.0,0.9,9.3,1.1,-0.30000000000000004,-1.0999999999999999,-0.8
1698672663544.0,16,0.0,-0.1,0.0,0.9,9.200000000000001,1.1,-2.1,-0.2,-1.0
1698672663561.0,16,0.0,0.0,0.0,0.9,9.3,1.0,-3.3000000000000003,0.1,-0.4
1698672663578.0,16,0.0,0.0,0.0,0.9,9.3,1.0,-3.5,-0.4,-0.4
1698672663594.0,16,0.0,0.0,-0.1,1.0,9.4,1.0,-3.4,-0.2,-0.5
1698672663611.0,16,0.0,0.0,-0.1,1.0,9.3,1.0,-2.7,-0.7,-1.0
1698672663627.0,16,0.1,0.1,-0.1,1.0,9.4,1.0,-1.2000000000000002,-0.2,-0.2
1698672663645.0,16,0.0,0.0,-0.1,0.9,9.4,1.0,0.8,0.2,0.8
1698672663661.0,16,-0.1,0.0,0.0,0.9,9.4,1.0,2.8,0.0,1.2000000000000002
1698672663678.0,16,-0.1,0.0,0.0,0.9,9.3,1.1,3.7000000000000006,-0.30000000000000004,1.5000000000000002
1698672663694.0,16,0.0,-0.1,0.0,0.9,9.200000000000001,1.1,4.7,-0.30000000000000004,1.8
1698672663711.0,16,0.0,-0.1,0.0,0.9,9.200000000000001,1.0,4.6000000000000005,-0.5,2.0
1698672663729.0,16,0.0,-0.1,0.1,0.9,9.200000000000001,1.1,3.7000000000000006,-2.1999999999999997,2.1
1698672663744.0,16,-0.1,-0.1,0.1,0.9,9.200000000000001,1.1,3.4,-2.6,2.6
1698672663761.0,16,-0.1,-0.1,0.1,0.9,9.3,1.1,3.1,-3.8,3.4
1698672663779.0,16,-0.1,0.0,0.1,0.9,9.3,1.1,3.2,-4.1000000000000005,3.5
1698672663794.0,16,-0.1,0.0,0.1,0.9,9.4,1.1,3.4,-4.1000000000000005,3.4
1698672663811.0,16,0.0,0.1,0.1,0.9,9.4,1.1,3.3000000000000003,-4.0,3.1
1698672663827.0,16,0.0,0.1,0.0,1.0,9.4,1.0,2.6,-4.6000000000000005,2.6
1698672663844.0,16,0.0,0.1,0.0,0.9,9.5,1.0,1.2000000000000002,-6.3,2.0
1698672663861.0,16,-0.1,0.1,0.0,0.9,9.4,1.0,0.0,-6.5,1.8
1698672663877.0,16,0.0,0.1,-0.1,1.0,9.4,0.9,-0.8,-6.2,1.8
1698672663894.0,16,0.0,0.0,-0.1,1.0,9.4,0.9,-2.5,-7.400000000000001,1.8
1698672663910.0,16,0.1,0.0,0.0,1.1,9.4,1.0,-3.3000000000000003,-7.400000000000001,1.0
1698672663927.0,16,0.2,0.0,-0.1,1.2000000000000002,9.4,0.9,-3.5,-6.6000000000000005,-0.1
1698672663944.0,16,0.2,0.0,-0.1,1.2000000000000002,9.4,0.9,-3.5,-6.5,-0.8
1698672663961.0,16,0.2,0.0,-0.1,1.3,9.3,0.9,-3.0000000000000004,-6.2,-2.5
1698672663977.0,16,0.30000000000000004,0.0,-0.1,1.3,9.3,0.9,-1.8,-4.7,-3.5
1698672663994.0,16,0.30000000000000004,0.0,-0.1,1.3,9.3,0.9,-1.0999999999999999,-3.8,-3.7000000000000006
1698672664011.0,16,0.30000000000000004,-0.1,-0.1,1.4000000000000001,9.200000000000001,0.9,0.6000000000000001,-2.6,-2.9
1698672664027.0,16,0.30000000000000004,-0.1,0.0,1.3,9.200000000000001,1.0,2.1999999999999997,-1.6,-1.0
1698672664044.0,16,0.2,0.0,-0.1,1.3,9.3,0.9,3.1,-1.2000000000000002,-0.5
1698672664061.0,16,0.1,0.0,0.0,1.2000000000000002,9.4,1.0,4.300000000000001,0.1,-1.7
1698672664077.0,16,0.0,0.1,0.0,1.1,9.4,1.0,5.1,2.1999999999999997,-2.0
1698672664094.0,16,0.0,0.0,0.0,1.1,9.4,1.0,5.1,2.8,-1.8
1698672664111.0,16,0.0,0.0,0.1,1.1,9.3,1.0,4.2,3.4,-1.3
1698672664128.0,16,-0.1,0.0,0.0,1.0,9.3,0.9,3.4,3.7000000000000006,-1.0
1698672664144.0,16,-0.1,0.0,0.0,0.9,9.3,0.9,1.7,3.8,-0.7
1698672664161.0,16,-0.1,0.0,0.0,0.9,9.4,0.9,0.1,4.300000000000001,-0.4
1698672664178.0,16,-0.2,0.1,0.0,0.9,9.4,0.9,-0.30000000000000004,4.300000000000001,-0.5
1698672664194.0,16,-0.1,0.1,0.0,0.9,9.4,0.9,-0.30000000000000004,4.5,-0.7
1698672664212.0,16,-0.1,0.0,-0.1,0.9,9.4,0.9,0.1,4.1000000000000005,-0.5
1698672664227.0,16,-0.1,0.0,0.0,0.9,9.3,0.9,0.9,3.6,0.1
1698672664244.0,16,-0.1,0.0,-0.1,0.9,9.3,0.9,1.2000000000000002,3.3000000000000003,0.6000000000000001
1698672664261.0,16,-0.1,0.0,0.0,0.9,9.3,0.9,1.8,2.4000000000000004,1.8
1698672664277.0,16,-0.1,0.1,0.0,0.9,9.4,0.9,2.4000000000000004,1.7,1.7
1698672664294.0,16,0.0,0.0,0.0,1.0,9.4,0.9,3.1,2.0,1.0999999999999999
1698672664311.0,16,0.0,0.0,0.0,1.0,9.3,0.9,3.3000000000000003,2.0,1.2000000000000002
1698672664327.0,16,0.0,-0.1,0.0,0.9,9.3,0.9,2.6,1.8,2.0
1698672664345.0,16,-0.1,0.0,0.0,0.9,9.3,0.9,1.8,1.7,2.4000000000000004
1698672664361.0,16,-0.1,0.1,0.0,0.9,9.4,0.9,0.30000000000000004,0.6000000000000001,2.1999999999999997
1698672664377.0,16,0.0,0.0,0.0,1.0,9.4,0.9,-0.7,0.5,1.6
1698672664394.0,16,0.0,0.0,0.0,1.1,9.4,0.9,-1.0999999999999999,0.4,1.6
1698672664411.0,16,0.0,0.0,0.0,1.1,9.3,0.9,-1.0999999999999999,0.6000000000000001,1.7
1698672664427.0,16,0.0,0.0,0.0,1.1,9.3,0.9,-0.5,1.0999999999999999,2.1
1698672664445.0,16,0.0,0.0,0.0,1.1,9.3,0.8,-0.2,1.0999999999999999,2.1
1698672664461.0,16,0.0,0.0,0.0,1.1,9.3,0.9,0.5,0.7,2.1
1698672664478.0,16,0.0,0.0,0.0,1.1,9.3,0.9,1.4,0.7,2.0
1698672664495.0,16,0.0,0.0,0.0,1.1,9.3,0.9,1.8,0.7,1.9
1698672664511.0,16,0.0,0.0,0.0,1.1,9.3,0.9,2.0,1.0,1.5000000000000002
1698672664528.0,16,0.0,0.0,0.0,1.1,9.4,0.9,1.8,1.5000000000000002,1.5000000000000002
1698672664544.0,16,0.0,0.0,0.0,1.1,9.3,0.9,1.2000000000000002,1.7,1.6
1698672664561.0,16,0.0,0.0,0.0,1.1,9.3,0.9,0.8,1.8,1.7
1698672664577.0,16,0.0,0.0,0.0,1.1,9.3,0.8,0.1,1.5000000000000002,1.7
1698672664594.0,16,0.0,0.0,0.0,1.1,9.4,0.8,-0.30000000000000004,0.9,1.6
1698672664611.0,16,-0.1,0.0,0.0,1.0,9.3,0.8,-0.8,0.9,1.4
1698672664627.0,16,0.0,0.0,0.0,1.1,9.4,0.8,-0.6000000000000001,0.4,0.9
1698672664644.0,16,0.0,0.0,0.0,1.1,9.3,0.8,-0.4,0.30000000000000004,0.7
1698672664662.0,16,0.0,0.0,0.0,1.1,9.3,0.9,0.30000000000000004,0.6000000000000001,0.6000000000000001
1698672664677.0,16,0.0,0.0,0.0,1.1,9.3,0.9,0.9,1.2000000000000002,0.9
1698672664694.0,16,0.0,0.0,0.0,1.1,9.3,0.9,1.0,1.2000000000000002,1.2000000000000002
1698672664711.0,16,0.0,0.0,0.0,1.1,9.3,0.9,1.0999999999999999,0.7,1.5000000000000002
1698672664727.0,16,-0.1,0.0,0.0,1.0,9.3,0.9,0.9,0.30000000000000004,1.4
1698672664744.0,16,0.0,0.0,0.0,1.1,9.4,0.9,0.8,0.1,1.0
1698672664761.0,16,0.0,0.0,0.0,1.1,9.3,0.9,0.4,-0.1,0.6000000000000001
1698672664777.0,16,0.0,0.0,0.0,1.1,9.3,0.9,-0.1,-0.1,0.6000000000000001
1698672664794.0,16,0.0,0.0,0.0,1.1,9.4,0.9,-0.4,-0.2,0.8
1698672664811.0,16,0.0,0.0,0.0,1.1,9.4,0.9,-0.7,0.0,0.4
1698672664827.0,16,0.0,0.0,0.0,1.1,9.4,0.9,-0.6000000000000001,0.1,0.2
1698672664844.0,16,0.0,0.0,0.0,1.1,9.3,0.9,-0.7,0.2,0.30000000000000004
1698672664861.0,16,0.0,0.0,0.0,1.1,9.3,0.9,-0.8,0.4,0.30000000000000004
1698672664878.0,16,0.0,0.1,0.0,1.2000000000000002,9.4,0.8,-1.2000000000000002,1.0999999999999999,0.1
1698672664894.0,16,0.0,0.1,-0.1,1.1,9.4,0.8,-1.5000000000000002,0.9,0.1
1698672664911.0,16,0.0,0.1,0.0,1.1,9.4,0.8,-1.6,0.7,0.2
1698672664927.0,16,0.0,0.1,-0.1,1.1,9.4,0.8,-1.6,0.9,0.1
1698672664944.0,16,0.0,0.0,0.0,1.1,9.4,0.8,-1.5000000000000002,1.0,0.0
1698672664960.0,16,0.0,0.0,0.0,1.2000000000000002,9.4,0.8,-1.7,1.2000000000000002,0.2
1698672664977.0,16,0.0,0.1,-0.1,1.1,9.4,0.8,-2.0,1.0999999999999999,0.2
1698672664994.0,16,0.0,0.2,-0.1,1.2000000000000002,9.5,0.7000000000000001,-2.8,0.7,0.4
1698672665011.0,16,0.0,0.2,-0.1,1.2000000000000002,9.5,0.8,-4.1000000000000005,0.9,-0.1
1698672665027.0,16,0.0,0.4,-0.1,1.1,9.8,0.8,-5.500000000000001,-0.2,-0.7
1698672665044.0,16,0.0,0.6000000000000001,0.0,1.2000000000000002,10.0,0.9,-6.2,-2.4000000000000004,-0.6000000000000001
1698672665060.0,16,0.1,0.4,-0.1,1.2000000000000002,9.8,0.8,-9.1,0.30000000000000004,-2.5
1698672665077.0,16,0.1,0.4,-0.1,1.2000000000000002,9.8,0.8,-11.6,1.8,-3.9
1698672665094.0,16,0.2,0.5,-0.2,1.3,9.9,0.9,-16.400000000000002,3.7000000000000006,-5.6
1698672665111.0,16,0.2,0.6000000000000001,-0.30000000000000004,1.3,10.0,0.8,-19.200000000000003,5.6,-5.8
1698672665127.0,16,0.1,0.5,-0.4,1.2000000000000002,9.9,0.7000000000000001,-24.5,4.3999999999999995,-5.4
1698672665144.0,16,0.1,0.4,-0.4,1.1,9.9,0.8,-29.800000000000004,3.9,-3.9
1698672665161.0,16,0.1,0.5,-0.5,1.1,9.9,0.7000000000000001,-32.300000000000004,4.2,-3.0000000000000004
1698672665177.0,16,0.1,0.6000000000000001,-0.6000000000000001,1.1,10.100000000000001,0.7000000000000001,-38.6,1.9,-2.5
1698672665194.0,16,0.0,0.6000000000000001,-0.5,1.1,10.100000000000001,0.9,-41.5,1.0999999999999999,-3.5
1698672665211.0,16,0.1,0.6000000000000001,-0.5,1.1,10.100000000000001,0.9,-45.0,5.4,-4.7
1698672665227.0,16,0.2,0.7000000000000001,-0.5,1.2000000000000002,10.200000000000001,1.1,-46.1,6.2,-5.2
1698672665244.0,16,0.2,0.8,-0.7000000000000001,1.2000000000000002,10.200000000000001,1.1,-46.900000000000006,9.5,-3.9
1698672665261.0,16,0.30000000000000004,0.9,-0.9,1.3,10.200000000000001,1.0,-49.6,10.0,-2.9
1698672665278.0,16,0.4,1.0,-0.9,1.4000000000000001,10.4,1.1,-51.6,8.3,-2.9
1698672665294.0,16,0.4,1.0,-0.8,1.3,10.4,1.4000000000000001,-55.300000000000004,12.6,-3.6
1698672665311.0,16,0.4,1.3,-1.0,1.3,10.600000000000001,1.3,-58.3,16.0,-3.2
1698672665327.0,16,0.5,1.2000000000000002,-1.3,1.4000000000000001,10.5,1.2000000000000002,-69.80000000000001,23.8,-4.1000000000000005
1698672665344.0,16,0.6000000000000001,1.1,-1.8,1.5,10.4,0.9,-87.10000000000001,27.400000000000002,-5.8
1698672665361.0,16,0.6000000000000001,1.0,-2.0,1.5,10.200000000000001,0.9,-99.0,29.400000000000002,-6.000000000000001
1698672665378.0,16,0.6000000000000001,1.3,-2.6,1.4000000000000001,10.4,0.7000000000000001,-125.9,29.000000000000004,-4.0
1698672665394.0,16,0.5,1.8,-2.6,1.3,10.8,1.1,-148.9,24.9,-6.2
1698672665412.0,16,0.5,1.9000000000000001,-2.6,1.2000000000000002,10.8,1.3,-156.20000000000002,25.2,-8.4
1698672665427.0,16,0.4,1.7000000000000002,-2.4000000000000004,1.1,10.4,2.0,-158.7,21.700000000000003,-12.9
1698672665444.0,16,0.7000000000000001,1.9000000000000001,-1.5,1.3,10.3,3.4000000000000004,-144.5,26.6,-16.700000000000003
1698672665461.0,16,0.8,2.0,-1.0,1.3,10.3,4.0,-130.70000000000002,31.900000000000002,-17.9
1698672665477.0,16,1.0,1.7000000000000002,0.4,1.5,9.8,5.7,-94.1,39.9,-15.2
1698672665494.0,16,1.4000000000000001,1.5,1.8,1.7000000000000002,9.5,7.300000000000001,-62.7,45.5,-8.200000000000001
1698672665511.0,16,0.9,0.9,2.0,1.2000000000000002,8.9,7.6000000000000005,-64.7,42.400000000000006,-6.000000000000001
1698672665527.0,16,-1.2000000000000002,-0.30000000000000004,2.2,-0.9,7.5,8.200000000000001,-100.10000000000001,15.2,-0.1
1698672665544.0,16,-1.8,-0.4,1.7000000000000002,-1.5,7.2,7.9,-114.70000000000002,2.9,9.700000000000001
1698672665561.0,16,-1.8,-0.6000000000000001,1.4000000000000001,-1.6,6.800000000000001,7.7,-105.7,-1.0,10.8
1698672665578.0,16,-1.1,-1.8,1.3,-0.9,5.4,7.9,-73.30000000000001,-2.3000000000000003,2.1
1698672665594.0,16,0.2,-1.8,1.7000000000000002,0.5,5.300000000000001,8.5,-44.3,4.2,-8.600000000000001
1698672665611.0,16,0.7000000000000001,-1.7000000000000002,1.9000000000000001,0.9,5.300000000000001,8.6,-36.4,7.2,-4.2
1698672665628.0,16,0.2,-1.3,1.8,0.5,5.7,8.700000000000001,-33.5,6.7,9.3
1698672665644.0,16,-0.8,-0.5,1.3,-0.6000000000000001,6.4,8.200000000000001,-31.4,12.9,7.0
1698672665661.0,16,-0.5,0.1,0.7000000000000001,-0.30000000000000004,7.0,7.7,-18.3,11.1,1.3
1698672665677.0,16,-0.30000000000000004,0.2,0.7000000000000001,-0.1,7.0,7.800000000000001,-10.700000000000001,5.300000000000001,0.2
1698672665694.0,16,-0.4,0.1,1.3,-0.2,6.9,8.4,3.3000000000000003,-1.7,1.4
1698672665711.0,16,-0.4,-0.1,1.5,-0.2,6.800000000000001,8.5,7.0,-3.5,3.4
1698672665728.0,16,-0.6000000000000001,-0.5,1.4000000000000001,-0.4,6.300000000000001,8.4,8.0,-5.4,4.300000000000001
1698672665744.0,16,-0.4,-0.8,1.0,-0.1,6.1000000000000005,8.0,9.200000000000001,-5.9,5.4
1698672665761.0,16,-0.4,-0.4,0.5,-0.2,6.4,7.5,18.5,-6.9,4.5
1698672665777.0,16,-0.4,-0.30000000000000004,0.2,-0.1,6.6000000000000005,7.2,24.1,-7.1000000000000005,4.800000000000001
1698672665794.0,16,-0.4,-0.2,0.0,-0.1,6.800000000000001,6.9,32.2,-10.2,4.0
1698672665811.0,16,-0.5,-0.30000000000000004,-0.1,-0.1,6.7,6.7,37.300000000000004,-12.9,1.2000000000000002
1698672665827.0,16,-0.5,-0.4,-0.1,-0.2,6.7,6.4,39.400000000000006,-13.8,-1.2000000000000002
1698672665844.0,16,-0.5,-0.5,-0.4,-0.1,6.7,6.2,42.900000000000006,-16.400000000000002,-4.800000000000001
1698672665861.0,16,-0.4,-0.5,-0.5,0.1,6.7,5.800000000000001,46.2,-14.500000000000002,-7.2
1698672665877.0,16,-0.2,-0.7000000000000001,-0.9,0.2,6.7,5.6000000000000005,48.00000000000001,-13.0,-7.6
1698672665894.0,16,-0.1,-0.9,-1.1,0.30000000000000004,6.5,5.2,52.0,-10.4,-5.7
1698672665910.0,16,-0.1,-1.3,-1.3,0.30000000000000004,6.2,4.800000000000001,56.7,-8.700000000000001,0.4
1698672665927.0,16,-0.1,-1.1,-1.4000000000000001,0.4,6.5,4.6000000000000005,65.0,-11.6,8.1
1698672665944.0,16,-0.1,-1.0,-1.4000000000000001,0.4,6.800000000000001,4.5,70.8,-10.2,11.5
1698672665960.0,16,0.0,-1.0,-1.8,0.5,6.9,3.9000000000000004,79.00000000000001,-3.6,16.2
1698672665977.0,16,0.0,-1.1,-1.8,0.6000000000000001,7.0,3.6,83.4,-0.4,17.200000000000003
1698672665994.0,16,0.0,-1.1,-1.6,0.6000000000000001,7.0,3.7,86.1,-0.6000000000000001,16.5
1698672666010.0,16,-0.2,-1.5,-1.4000000000000001,0.5,6.800000000000001,3.6,92.9,-3.6,14.600000000000001
1698672666027.0,16,-0.30000000000000004,-1.7000000000000002,-1.3,0.4,6.7,3.6,95.5,-6.000000000000001,13.9
1698672666044.0,16,-0.5,-2.0,-0.9,0.2,6.5,3.7,98.30000000000001,-15.9,13.9
1698672666060.0,16,-1.0,-1.9000000000000001,-0.1,-0.2,6.7,4.2,99.4,-24.400000000000002,14.900000000000002
1698672666077.0,16,-1.4000000000000001,-1.5,-0.1,-0.5,7.2,3.8000000000000003,93.60000000000001,-40.3,23.0
1698672666094.0,16,-1.6,-1.5,0.0,-0.6000000000000001,7.300000000000001,3.8000000000000003,83.50000000000001,-36.0,22.900000000000002
1698672666111.0,16,-1.4000000000000001,-1.9000000000000001,0.2,-0.4,7.0,3.8000000000000003,60.7,-32.2,15.299999999999999
1698672666127.0,16,-1.1,-2.1,0.2,-0.1,6.7,3.8000000000000003,50.5,-34.2,8.9
1698672666144.0,16,-0.6000000000000001,-2.5,-0.1,0.5,6.4,3.3000000000000003,30.599999999999998,-36.0,-5.7
1698672666160.0,16,-0.30000000000000004,-2.3000000000000003,0.1,0.8,6.6000000000000005,3.5,10.5,-32.800000000000004,-15.7
1698672666177.0,16,0.0,-1.8,0.4,1.1,7.1000000000000005,3.7,2.7,-31.5,-17.599999999999998
1698672666194.0,16,0.4,-0.8,0.6000000000000001,1.5,8.1,4.0,-6.5,-24.8,-19.0
1698672666211.0,16,0.8,-0.2,0.6000000000000001,1.8,8.700000000000001,4.0,-9.200000000000001,-19.8,-15.9
1698672666227.0,16,0.9,-0.2,0.30000000000000004,2.0,8.700000000000001,3.7,-10.5,-20.900000000000002,-13.200000000000001
1698672666244.0,16,0.9,-0.8,-0.1,2.0,8.1,3.3000000000000003,-16.700000000000003,-17.599999999999998,-6.8
1698672666260.0,16,0.8,-1.4000000000000001,-0.7000000000000001,1.9000000000000001,7.4,2.8000000000000003,-24.400000000000002,-12.4,-0.1
1698672666277.0,16,0.6000000000000001,-1.6,-0.9,1.7000000000000002,7.1000000000000005,2.7,-31.2,-11.4,1.7
1698672666294.0,16,0.4,-1.6,-0.9,1.5,7.1000000000000005,2.7,-32.2,-12.000000000000002,1.2000000000000002
1698672666311.0,16,0.4,-1.3,-1.2000000000000002,1.5,7.4,2.6,-31.5,-10.5,-3.2
1698672666327.0,16,0.6000000000000001,-1.1,-1.3,1.7000000000000002,7.6000000000000005,2.5,-28.400000000000002,-4.3999999999999995,-8.4
1698672666344.0,16,0.8,-1.0,-1.4000000000000001,1.9000000000000001,7.6000000000000005,2.4000000000000004,-26.500000000000004,1.2000000000000002,-10.5
1698672666360.0,16,1.2000000000000002,-1.2000000000000002,-1.7000000000000002,2.2,7.4,2.2,-22.7,16.900000000000002,-13.0
1698672666377.0,16,1.6,-1.1,-1.8,2.6,7.5,2.1,-18.400000000000002,30.200000000000003,-11.2
1698672666394.0,16,1.7000000000000002,-0.9,-1.8,2.7,7.7,2.1,-15.100000000000001,30.599999999999998,-9.3
1698672666410.0,16,1.3,-0.5,-1.6,2.3000000000000003,8.0,2.3000000000000003,-4.7,18.900000000000002,-0.2
1698672666427.0,16,0.4,0.30000000000000004,-1.6,1.3,8.8,2.3000000000000003,9.700000000000001,8.9,17.599999999999998
1698672666444.0,16,-0.2,0.8,-1.7000000000000002,0.8,9.3,2.2,15.9,12.8,25.5
1698672666461.0,16,-0.30000000000000004,1.5,-1.5,0.7000000000000001,10.100000000000001,2.3000000000000003,28.1,17.200000000000003,32.5
1698672666477.0,16,0.1,1.9000000000000001,-1.3,1.5,10.8,2.5,43.6,8.600000000000001,21.400000000000002
1698672666494.0,16,0.6000000000000001,2.2,-1.4000000000000001,1.7000000000000002,10.9,2.2,48.800000000000004,5.8,10.9
1698672666511.0,16,1.2000000000000002,2.4000000000000004,-1.6,2.3000000000000003,11.200000000000001,1.9000000000000001,46.300000000000004,3.0000000000000004,-0.30000000000000004
1698672666527.0,16,1.3,2.7,-1.6,2.5,11.5,1.8,40.3,4.2,-1.3
1698672666544.0,16,1.2000000000000002,2.8000000000000003,-1.3,2.4000000000000004,11.700000000000001,2.0,24.7,7.300000000000001,-2.6
1698672666561.0,16,1.0,2.5,-0.5,2.1,11.3,2.8000000000000003,12.3,8.0,-8.1
1698672666577.0,16,0.9,2.3000000000000003,-0.2,1.8,11.100000000000001,2.9000000000000004,8.4,-1.5000000000000002,-10.600000000000001
1698672666594.0,16,0.5,1.7000000000000002,-0.30000000000000004,1.6,10.600000000000001,2.9000000000000004,5.9,-5.7,-9.5
1698672666611.0,16,-0.4,-0.1,1.0,0.7000000000000001,8.9,4.2,5.500000000000001,-10.3,-6.5
1698672666628.0,16,-1.5,-1.0,1.8,-0.4,8.0,4.9,26.0,-16.2,-1.5000000000000002
1698672666644.0,16,-1.7000000000000002,-1.0,2.1,-0.6000000000000001,8.0,5.1000000000000005,37.5,-22.8,-1.0
1698672666661.0,16,-1.4000000000000001,-0.8,2.6,-0.30000000000000004,8.200000000000001,5.5,55.0,-34.0,-2.0
1698672666677.0,16,-0.8,-0.8,2.6,0.4,8.3,5.4,55.6,-27.5,-4.1000000000000005
1698672666694.0,16,-0.2,-0.8,2.5,0.9,8.3,5.2,49.0,-19.200000000000003,-8.200000000000001
1698672666711.0,16,0.7000000000000001,-0.4,2.6,1.8,8.8,5.2,26.400000000000002,-11.000000000000002,-18.5
1698672666728.0,16,1.4000000000000001,0.8,2.5,2.4000000000000004,9.9,5.1000000000000005,2.1,-15.8,-17.599999999999998
1698672666744.0,16,1.2000000000000002,1.1,2.2,2.2,10.200000000000001,4.9,-9.1,-8.0,-12.5
1698672666761.0,16,0.2,0.6000000000000001,1.4000000000000001,1.2000000000000002,9.8,4.1000000000000005,-23.900000000000002,9.4,-5.9
1698672666777.0,16,-0.5,0.0,1.1,0.4,9.1,3.9000000000000004,-25.400000000000002,8.4,-7.300000000000001
1698672666794.0,16,-0.6000000000000001,-0.2,0.8,0.30000000000000004,8.9,3.7,-22.2,5.8,-9.0
1698672666811.0,16,-0.8,-0.8,0.0,0.1,8.3,2.9000000000000004,-15.000000000000002,9.3,-13.700000000000001
1698672666827.0,16,-1.1,-1.4000000000000001,-0.4,-0.30000000000000004,7.7,2.5,-10.700000000000001,8.600000000000001,-16.8
1698672666844.0,16,-1.2000000000000002,-1.6,-0.6000000000000001,-0.5,7.5,2.3000000000000003,-9.200000000000001,8.4,-17.0
1698672666861.0,16,-1.2000000000000002,-1.7000000000000002,-0.7000000000000001,-0.5,7.300000000000001,2.3000000000000003,-6.6000000000000005,6.4,-17.5
1698672666877.0,16,-1.1,-1.5,-0.7000000000000001,-0.4,7.5,2.3000000000000003,-2.5,5.4,-22.000000000000004
1698672666894.0,16,-1.0,-1.3,-0.8,-0.4,7.7,2.2,-0.7,7.400000000000001,-24.8
1698672666911.0,16,-0.6000000000000001,-1.1,-1.0,-0.1,7.9,1.9000000000000001,0.6000000000000001,5.8,-26.700000000000003
1698672666927.0,16,-0.4,-1.1,-1.2000000000000002,0.0,7.9,1.8,-1.8,2.3000000000000003,-22.1
1698672666944.0,16,-0.4,-1.1,-1.4000000000000001,0.0,7.9,1.6,-4.9,-0.8,-15.9
1698672666961.0,16,-0.4,-1.1,-1.6,0.0,7.9,1.4000000000000001,-6.8,-1.5000000000000002,-13.200000000000001
1698672666977.0,16,-0.2,-1.3,-2.2,0.1,7.6000000000000005,0.8,-13.6,-3.3000000000000003,-8.200000000000001
1698672666994.0,16,-0.2,-1.6,-2.4000000000000004,0.2,7.2,0.5,-18.400000000000002,-6.8,-6.000000000000001
1698672667012.0,16,-0.1,-1.9000000000000001,-2.4000000000000004,0.2,7.0,0.6000000000000001,-26.6,-15.399999999999999,-3.0000000000000004
1698672667027.0,16,-0.30000000000000004,-1.8,-2.1,0.0,7.1000000000000005,1.0,-30.000000000000004,-19.1,1.2000000000000002
1698672667044.0,16,-0.4,-0.9,-1.7000000000000002,-0.1,7.4,1.3,-28.1,-16.8,3.8
1698672667061.0,16,-0.30000000000000004,-0.30000000000000004,-1.6,0.1,8.6,1.7000000000000002,-17.400000000000002,-4.800000000000001,9.200000000000001
1698672667077.0,16,0.8,2.0,-1.0,1.2000000000000002,10.8,2.2,2.1,-13.6,8.4
1698672667094.0,16,1.5,3.3000000000000003,0.0,2.3000000000000003,12.9,3.9000000000000004,36.0,-32.300000000000004,-1.2000000000000002
1698672667111.0,16,1.9000000000000001,4.0,0.7000000000000001,2.3000000000000003,12.9,3.8000000000000003,54.1,-23.400000000000002,-4.5
1698672667127.0,16,1.4000000000000001,3.5,-0.30000000000000004,1.9000000000000001,12.5,2.6,66.80000000000001,18.8,5.4
1698672667145.0,16,0.7000000000000001,3.3000000000000003,-1.0,1.2000000000000002,12.4,1.8,60.900000000000006,31.7,14.700000000000001
1698672667161.0,16,-1.0,3.8000000000000003,-1.3,-0.5,12.9,1.3,32.4,23.900000000000002,30.5
1698672667177.0,16,-1.3,4.5,-0.6000000000000001,-0.7000000000000001,13.600000000000001,2.0,-2.5,17.9,31.2
1698672667194.0,16,-0.7000000000000001,3.8000000000000003,-0.30000000000000004,-0.1,13.0,2.3000000000000003,-24.8,24.7,20.6
1698672667211.0,16,-0.6000000000000001,2.8000000000000003,0.0,0.0,12.0,2.7,-29.300000000000004,25.1,14.200000000000001
1698672667227.0,16,-0.4,-0.2,1.6,0.30000000000000004,9.0,4.4,-16.400000000000002,13.100000000000001,3.2
1698672667244.0,16,-0.5,-1.6,2.6,0.1,7.5,5.4,3.1,1.7,-2.0
1698672667261.0,16,-0.6000000000000001,-2.8000000000000003,3.1,0.0,6.4,5.800000000000001,51.6,-11.000000000000002,-6.2
1698672667277.0,16,-0.5,-2.2,2.9000000000000004,0.1,7.0,5.4,77.0,-3.3000000000000003,-12.200000000000001
1698672667294.0,16,-0.5,-1.5,3.2,0.1,7.800000000000001,5.5,78.00000000000001,-0.4,-12.6
1698672667311.0,16,-0.30000000000000004,0.7000000000000001,4.1000000000000005,0.2,10.0,6.300000000000001,61.300000000000004,-9.200000000000001,-5.1
1698672667327.0,16,-0.2,2.6,2.2,0.4,11.9,4.3,13.9,1.0,8.700000000000001
1698672667344.0,16,0.1,1.0,1.1,0.8,10.4,3.4000000000000004,-47.0,12.4,13.9
1698672667361.0,16,0.30000000000000004,0.30000000000000004,1.0,1.0,9.600000000000001,3.4000000000000004,-61.0,6.7,10.0
1698672667378.0,16,0.5,-0.6000000000000001,0.6000000000000001,1.2000000000000002,8.700000000000001,3.2,-65.0,-0.2,-0.4
1698672667394.0,16,0.6000000000000001,-1.1,0.1,1.2000000000000002,8.1,2.8000000000000003,-55.0,5.9,-5.9
1698672667411.0,16,0.7000000000000001,-1.5,0.0,1.3,7.7,2.8000000000000003,-47.5,8.700000000000001,-7.0
1698672667427.0,16,0.8,-2.3000000000000003,-0.2,1.4000000000000001,6.800000000000001,2.8000000000000003,-29.000000000000004,11.000000000000002,-6.8
1698672667444.0,16,0.8,-2.7,-0.2,1.4000000000000001,6.1000000000000005,2.6,-19.0,10.700000000000001,-4.800000000000001
1698672667461.0,16,0.8,-3.2,-0.5,1.4000000000000001,5.9,2.5,-1.2000000000000002,8.4,3.1
1698672667478.0,16,0.6000000000000001,-3.2,-0.6000000000000001,1.3,5.800000000000001,2.3000000000000003,10.600000000000001,2.0,13.700000000000001
1698672667494.0,16,0.30000000000000004,-2.4000000000000004,-0.2,1.1,6.1000000000000005,2.5,13.9,-2.1,18.7
1698672667511.0,16,0.1,-2.0,-0.1,0.7000000000000001,7.5,2.9000000000000004,15.8,6.9,22.8
1698672667527.0,16,-0.30000000000000004,-1.2000000000000002,0.0,0.5,7.800000000000001,2.8000000000000003,14.200000000000001,8.200000000000001,20.900000000000002
1698672667545.0,16,-0.4,-0.9,-0.9,0.4,8.1,1.9000000000000001,3.7000000000000006,9.3,12.8
1698672667561.0,16,-0.5,-1.1,-1.1,0.30000000000000004,7.9,1.7000000000000002,-4.9,11.5,6.8
1698672667578.0,16,-0.6000000000000001,-1.4000000000000001,-1.3,0.30000000000000004,7.6000000000000005,1.6,-12.700000000000001,13.3,1.3
1698672667596.0,16,-0.1,-2.0,-1.8,0.7000000000000001,6.9,1.1,-24.1,6.8,-9.200000000000001
1698672667611.0,16,0.2,-1.9000000000000001,-1.9000000000000001,0.9,7.0,1.0,-26.0,5.9,-11.8
1698672667628.0,16,1.1,-0.9,-1.8,1.8,8.0,1.2000000000000002,-28.500000000000004,15.000000000000002,-18.7
1698672667645.0,16,1.3,1.3,-1.0,2.0,10.200000000000001,2.1,-22.6,24.1,-25.0
1698672667661.0,16,1.4000000000000001,2.7,-0.30000000000000004,1.9000000000000001,11.5,2.8000000000000003,-12.200000000000001,26.0,-24.1
1698672667678.0,16,1.3,4.4,0.1,1.8,13.3,3.2,21.6,21.1,-12.000000000000002
1698672667694.0,16,1.2000000000000002,2.9000000000000004,-0.8,1.7000000000000002,11.9,2.2,47.400000000000006,8.3,6.3
1698672667711.0,16,0.7000000000000001,2.1,-1.0,1.2000000000000002,11.100000000000001,1.9000000000000001,50.6,4.6000000000000005,14.100000000000001
1698672667728.0,16,-0.2,2.0,-1.2000000000000002,0.4,11.100000000000001,1.5,46.800000000000004,-1.5000000000000002,24.200000000000003
1698672667745.0,16,-0.30000000000000004,2.2,-1.2000000000000002,0.4,11.3,1.4000000000000001,41.5,-4.9,24.400000000000002
1698672667761.0,16,-0.2,2.4000000000000004,-0.4,0.5,11.5,2.1,30.200000000000003,-17.7,15.399999999999999
1698672667778.0,16,0.2,1.3,1.3,0.9,10.5,3.7,24.9,-22.900000000000002,2.1
1698672667795.0,16,0.0,-1.0,3.4000000000000004,0.8,8.200000000000001,5.7,38.2,-1.0,-2.7
1698672667812.0,16,-0.5,-2.4000000000000004,4.9,0.30000000000000004,6.9,7.1000000000000005,66.9,-14.500000000000002,13.9
1698672667828.0,16,-0.6000000000000001,-2.4000000000000004,5.2,0.2,6.800000000000001,7.300000000000001,78.80000000000001,-20.900000000000002,26.500000000000004
1698672667844.0,16,-0.5,-1.0,4.7,0.5,8.3,6.6000000000000005,69.4,-17.1,42.2
1698672667861.0,16,0.0,1.2000000000000002,3.6,0.7000000000000001,9.5,6.0,44.4,-12.700000000000001,39.50000000000001
1698672667877.0,16,0.1,1.9000000000000001,3.2,1.2000000000000002,11.100000000000001,5.0,-12.5,14.800000000000002,21.700000000000003
1698672667894.0,16,-0.30000000000000004,2.2,2.0,0.8,11.5,4.0,-38.2,25.400000000000002,6.2
1698672667911.0,16,-1.0,1.4000000000000001,0.5,0.1,10.700000000000001,2.6,-44.5,20.8,-3.7000000000000006
1698672667928.0,16,-1.3,1.0,0.4,-0.30000000000000004,10.200000000000001,2.6,-46.1,17.400000000000002,-7.400000000000001
1698672667944.0,16,-1.4000000000000001,0.0,0.6000000000000001,-0.4,9.3,2.9000000000000004,-36.7,14.4,-13.200000000000001
1698672667962.0,16,-1.2000000000000002,-0.30000000000000004,0.5,-0.30000000000000004,8.9,2.9000000000000004,-27.0,10.600000000000001,-15.7
1698672667977.0,16,-0.9,-1.6,-0.2,0.0,7.7,2.3000000000000003,-2.5,-1.7,-19.3
1698672667995.0,16,-0.9,-1.9000000000000001,-0.30000000000000004,0.0,7.300000000000001,2.2,2.0,-6.8,-17.5
1698672668011.0,16,-1.0,-2.2,-0.2,-0.2,7.0,2.2,5.2,-11.000000000000002,-15.100000000000001
1698672668028.0,16,-1.3,-2.3000000000000003,-0.30000000000000004,-0.6000000000000001,6.9,2.1,8.3,-14.500000000000002,-10.700000000000001
1698672668044.0,16,-1.5,-1.9000000000000001,-0.5,-0.7000000000000001,7.2,1.9000000000000001,4.7,-11.1,-10.9
1698672668061.0,16,-1.4000000000000001,-1.7000000000000002,-0.5,-0.5,7.800000000000001,1.8,-4.2,-9.3,-19.0
1698672668078.0,16,-0.9,-1.1,-0.6000000000000001,-0.30000000000000004,8.1,1.8,-8.9,-9.4,-26.200000000000003
1698672668095.0,16,-0.2,-0.8,-0.6000000000000001,0.30000000000000004,8.3,1.8,-15.7,-16.3,-31.3
1698672668112.0,16,0.0,-0.8,-0.8,0.5,8.3,1.7000000000000002,-18.8,-15.299999999999999,-28.1
1698672668128.0,16,0.30000000000000004,-1.2000000000000002,-1.5,0.7000000000000001,7.5,0.6000000000000001,-28.8,-3.0000000000000004,-15.100000000000001
1698672668144.0,16,0.1,-2.0,-2.3000000000000003,0.5,7.1000000000000005,0.30000000000000004,-42.5,2.8,1.7
1698672668160.0,16,-0.30000000000000004,-2.3000000000000003,-2.7,0.2,6.7,0.1,-55.2,-10.2,15.000000000000002
1698672668178.0,16,-0.5,-2.3000000000000003,-2.6,0.0,6.7,0.2,-59.80000000000001,-18.5,19.200000000000003
1698672668194.0,16,-0.8,-1.4000000000000001,-1.8,-0.2,7.4,1.2000000000000002,-59.60000000000001,-33.400000000000006,25.1
1698672668211.0,16,-1.1,0.4,-1.0,-0.30000000000000004,9.200000000000001,2.1,-53.400000000000006,-33.5,26.700000000000003
1698672668228.0,16,-0.9,1.4000000000000001,-0.8,0.7000000000000001,11.200000000000001,2.6,-14.600000000000001,-23.5,23.6
1698672668245.0,16,0.7000000000000001,3.5,-0.2,1.6,12.3,3.0,4.300000000000001,-32.300000000000004,13.6
1698672668261.0,16,0.7000000000000001,3.5,-0.6000000000000001,1.6,12.4,2.5,40.9,-38.800000000000004,-13.3
1698672668278.0,16,0.4,3.1,-1.3,1.3,12.100000000000001,1.7000000000000002,47.800000000000004,-27.7,-17.1
1698672668295.0,16,-0.5,2.6,-1.5,0.30000000000000004,11.5,1.3,40.2,-9.9,-3.0000000000000004
1698672668311.0,16,-0.8,2.8000000000000003,-0.30000000000000004,0.1,11.9,2.5,28.6,-8.5,15.399999999999999
1698672668328.0,16,-0.6000000000000001,3.3000000000000003,1.4000000000000001,0.30000000000000004,12.3,4.0,33.5,-9.3,15.5
1698672668344.0,16,-0.30000000000000004,3.3000000000000003,2.1,0.7000000000000001,12.4,4.6000000000000005,40.7,-11.2,8.4
1698672668361.0,16,0.6000000000000001,2.6,4.6000000000000005,1.6,11.8,7.0,62.300000000000004,-8.9,-18.3
1698672668378.0,16,1.1,1.7000000000000002,5.300000000000001,2.0,11.0,7.7,78.5,-4.1000000000000005,-32.0
1698672668395.0,16,1.2000000000000002,-0.9,3.8000000000000003,2.0,8.5,5.800000000000001,92.9,2.0,-46.800000000000004
1698672668410.0,16,-0.30000000000000004,-2.9000000000000004,2.9000000000000004,0.4,6.4,4.800000000000001,53.300000000000004,11.000000000000002,-32.5
1698672668428.0,16,-1.3,-1.8,2.9000000000000004,-0.7000000000000001,7.6000000000000005,4.800000000000001,-5.300000000000001,24.000000000000004,-3.6
1698672668444.0,16,-1.8,-0.4,2.8000000000000003,-1.2000000000000002,8.9,4.7,-23.1,24.400000000000002,4.7
1698672668461.0,16,-1.8,0.8,2.5,-0.9,10.8,4.1000000000000005,-37.6,16.900000000000002,6.8
1698672668477.0,16,-0.7000000000000001,1.3,1.6,-0.1,10.600000000000001,3.7,-34.7,10.600000000000001,-4.2
1698672668494.0,16,0.5,-0.6000000000000001,1.2000000000000002,1.1,8.700000000000001,3.5,-28.200000000000003,9.4,-10.2
1698672668510.0,16,1.0,-1.7000000000000002,0.8,1.5,7.5,3.1,-11.3,11.5,-12.200000000000001
1698672668527.0,16,1.4000000000000001,-1.9000000000000001,0.7000000000000001,1.9000000000000001,7.4,3.0,-3.6,14.4,-11.4
1698672668544.0,16,1.7000000000000002,-1.7000000000000002,1.2000000000000002,2.2,7.6000000000000005,3.5,12.8,14.500000000000002,-8.799999999999999
1698672668560.0,16,1.7000000000000002,-1.5,1.5,2.2,7.7,3.7,30.200000000000003,17.200000000000003,-1.6
1698672668577.0,16,1.6,-1.7000000000000002,1.5,2.1,7.300000000000001,3.6,35.199999999999996,21.700000000000003,3.5
1698672668595.0,16,1.6,-2.1,1.4000000000000001,2.1,7.1000000000000005,3.4000000000000004,34.7,27.400000000000002,12.9
1698672668611.0,16,1.3,-1.7000000000000002,1.5,1.8,7.6000000000000005,3.5,21.0,35.4,19.8
1698672668627.0,16,1.1,-1.2000000000000002,1.5,1.7000000000000002,8.1,3.6,11.6,44.7,21.1
1698672668644.0,16,1.0,-0.1,1.5,1.6,9.200000000000001,3.5,-4.3999999999999995,53.2,19.700000000000003
1698672668661.0,16,0.8,0.2,1.2000000000000002,1.5,9.5,3.3000000000000003,-14.900000000000002,61.0,17.8
1698672668677.0,16,0.6000000000000001,-0.1,0.7000000000000001,1.3,9.1,2.9000000000000004,-20.3,64.8,16.1
1698672668694.0,16,0.6000000000000001,-0.4,0.6000000000000001,1.3,8.9,2.8000000000000003,-21.5,66.4,15.399999999999999
1698672668711.0,16,0.6000000000000001,-0.6000000000000001,0.4,1.3,8.6,2.7,-21.5,73.10000000000001,13.5
1698672668727.0,16,0.8,-0.6000000000000001,0.30000000000000004,1.5,8.6,2.6,-20.1,79.6,12.700000000000001
1698672668746.0,16,1.1,-0.30000000000000004,0.1,1.7000000000000002,8.8,2.5,-16.5,92.10000000000001,10.9
1698672668761.0,16,1.5,0.2,0.2,2.1,9.4,2.7,-12.700000000000001,104.9,12.9
1698672668777.0,16,1.7000000000000002,0.2,0.30000000000000004,2.4000000000000004,9.200000000000001,2.7,-6.1000000000000005,114.3,16.8
1698672668795.0,16,1.9000000000000001,-0.4,-0.2,2.4000000000000004,8.700000000000001,2.4000000000000004,-4.300000000000001,118.50000000000001,18.900000000000002
1698672668811.0,16,1.9000000000000001,-1.0,-0.6000000000000001,2.3000000000000003,8.1,2.0,-7.8,130.5,24.7
1698672668827.0,16,1.8,-0.8,-0.7000000000000001,2.2,8.3,2.0,-14.3,141.1,30.5
1698672668844.0,16,1.7000000000000002,-0.6000000000000001,-0.8,2.1,8.5,1.9000000000000001,-16.8,146.8,33.900000000000006
1698672668861.0,16,2.0,-0.4,-0.8,2.4000000000000004,8.700000000000001,1.9000000000000001,-19.500000000000004,154.6,39.00000000000001
1698672668877.0,16,1.8,0.1,-0.9,2.4000000000000004,8.8,2.0,-19.1,154.1,39.8
1698672668894.0,16,1.5,0.4,-1.2000000000000002,1.9000000000000001,9.4,1.7000000000000002,-17.200000000000003,156.7,44.2
1698672668911.0,16,0.9,0.5,-1.7000000000000002,1.5,9.5,1.3,-18.400000000000002,160.20000000000002,49.1
1698672668927.0,16,-0.1,0.7000000000000001,-1.9000000000000001,0.4,9.700000000000001,1.2000000000000002,-22.900000000000002,156.10000000000002,60.1
1698672668944.0,16,-1.3,1.8,-0.9,-0.8,10.700000000000001,2.2,-15.2,150.1,63.800000000000004
1698672668960.0,16,-1.9000000000000001,2.4000000000000004,-0.7000000000000001,-1.4000000000000001,11.3,2.5,-5.2,143.4,66.1
1698672668977.0,16,-2.7,2.4000000000000004,0.9,-2.1,11.4,4.0,23.2,120.10000000000001,73.60000000000001
1698672668994.0,16,-3.0,1.9000000000000001,1.5,-2.4000000000000004,10.9,4.6000000000000005,42.1,112.7,76.4
1698672669012.0,16,-2.9000000000000004,1.1,1.7000000000000002,-2.1,10.200000000000001,4.6000000000000005,73.2,115.2,82.30000000000001
1698672669027.0,16,-1.4000000000000001,0.0,1.6,-0.5,9.1,4.2,76.60000000000001,99.7,73.4
1698672669044.0,16,-0.9,-0.4,1.7000000000000002,0.0,8.8,4.5,65.89999999999999,100.30000000000001,58.9
1698672669060.0,16,-0.8,0.1,1.9000000000000001,0.1,9.3,4.5,29.000000000000004,131.9,25.900000000000002
1698672669077.0,16,-0.9,0.6000000000000001,0.9,-0.1,9.8,3.5,-14.200000000000001,139.70000000000002,18.3
1698672669094.0,16,-0.8,0.8,0.8,0.0,9.9,3.5,-33.7,145.7,23.8
1698672669111.0,16,-0.9,1.0,0.30000000000000004,-0.1,10.100000000000001,3.2,-50.7,155.70000000000002,30.799999999999997
1698672669127.0,16,-0.9,0.1,-0.30000000000000004,-0.30000000000000004,9.1,2.8000000000000003,-45.0,152.6,37.5
1698672669144.0,16,-1.0,-0.5,-0.6000000000000001,-0.4,8.6,2.5,-31.099999999999998,144.10000000000002,47.7
1698672669161.0,16,-1.2000000000000002,-1.1,-0.9,-0.6000000000000001,7.6000000000000005,2.3000000000000003,-15.100000000000001,134.9,56.900000000000006
1698672669177.0,16,-1.3,-1.6,-0.9,-0.6000000000000001,7.4,2.4000000000000004,-5.8,130.5,59.400000000000006
1698672669195.0,16,-1.3,-1.6,-0.7000000000000001,-0.7000000000000001,7.300000000000001,2.6,14.500000000000002,131.20000000000002,59.300000000000004
1698672669210.0,16,-1.4000000000000001,-1.3,-0.8,-0.7000000000000001,7.6000000000000005,2.5,24.1,135.5,57.400000000000006
1698672669227.0,16,-1.3,-0.7000000000000001,-0.6000000000000001,-0.6000000000000001,8.200000000000001,2.6,38.5,140.0,50.7
1698672669244.0,16,-1.2000000000000002,-0.1,-0.30000000000000004,-0.6000000000000001,8.8,2.8000000000000003,48.1,135.4,48.800000000000004
1698672669262.0,16,-1.3,0.1,-0.1,-0.6000000000000001,9.0,2.9000000000000004,50.1,134.8,49.7
1698672669277.0,16,-1.5,-0.1,0.1,-0.8,8.9,3.0,48.2,134.1,52.1
1698672669294.0,16,-1.3,-0.8,0.1,-0.7000000000000001,8.6,3.0,44.1,133.4,52.2
1698672669313.0,16,-1.2000000000000002,-0.9,0.1,-0.5,8.1,2.8000000000000003,28.3,142.4,49.6
1698672669327.0,16,-1.0,-0.4,-0.2,-0.30000000000000004,8.6,2.5,10.5,154.9,46.0
1698672669344.0,16,-1.0,0.0,-0.4,-0.30000000000000004,9.1,2.4000000000000004,4.2,155.5,44.3
1698672669362.0,16,-1.2000000000000002,0.7000000000000001,-0.5,-0.5,9.700000000000001,2.3000000000000003,-1.7,148.3,41.300000000000004
1698672669377.0,16,-1.5,0.8,-0.30000000000000004,-0.9,9.8,2.5,1.7,143.0,40.3
1698672669394.0,16,-1.7000000000000002,0.5,-0.2,-1.0,9.5,2.6,6.5,145.1,40.8
1698672669410.0,16,-1.6,-0.2,-0.5,-1.0,8.8,2.3000000000000003,17.200000000000003,150.8,40.8
1698672669427.0,16,-1.6,-0.2,-0.6000000000000001,-1.1,8.8,2.2,23.0,146.5,40.2
1698672669444.0,16,-1.9000000000000001,0.6000000000000001,-0.6000000000000001,-1.1,9.200000000000001,2.2,23.6,144.5,40.5
1698672669461.0,16,-2.1,1.0,-0.7000000000000001,-1.6,10.100000000000001,2.0,21.200000000000003,135.8,42.800000000000004
1698672669477.0,16,-2.4000000000000004,1.5,-0.2,-1.8,10.600000000000001,2.4000000000000004,16.700000000000003,117.4,43.900000000000006
1698672669494.0,16,-2.4000000000000004,1.4000000000000001,0.1,-1.9000000000000001,10.5,2.7,13.6,99.6,41.800000000000004
1698672669511.0,16,-2.4000000000000004,1.5,0.4,-1.8,10.700000000000001,3.0,8.700000000000001,95.9,37.5
1698672669527.0,16,-2.4000000000000004,1.6,0.30000000000000004,-1.8,10.700000000000001,2.9000000000000004,5.6,97.7,33.5
1698672669544.0,16,-2.2,1.4000000000000001,0.30000000000000004,-1.7000000000000002,10.700000000000001,2.9000000000000004,1.8,97.2,29.000000000000004
1698672669561.0,16,-2.2,1.0,0.2,-1.7000000000000002,10.200000000000001,2.9000000000000004,-5.2,89.9,19.400000000000002
1698672669577.0,16,-1.9000000000000001,0.5,-0.1,-1.4000000000000001,9.600000000000001,2.6,-11.700000000000001,84.4,14.0
1698672669595.0,16,-1.5,0.1,-0.2,-1.1,9.3,2.6,-17.400000000000002,80.30000000000001,11.5
1698672669611.0,16,-1.3,0.0,-0.1,-0.9,9.1,2.7,-19.0,78.60000000000001,10.700000000000001
1698672669627.0,16,-1.2000000000000002,-0.1,-0.1,-0.8,9.0,2.8000000000000003,-19.200000000000003,80.2,10.5
1698672669644.0,16,-1.1,0.0,0.1,-0.8,9.1,3.0,-15.399999999999999,83.30000000000001,11.8
1698672669661.0,16,-1.3,0.0,0.0,-1.0,9.0,3.0,-13.200000000000001,83.30000000000001,12.000000000000002
1698672669677.0,16,-1.4000000000000001,0.0,-0.5,-1.2000000000000002,9.0,2.5,-14.900000000000002,85.0,12.000000000000002
1698672669694.0,16,-1.2000000000000002,0.30000000000000004,-0.7000000000000001,-1.2000000000000002,9.200000000000001,2.3000000000000003,-19.0,84.80000000000001,10.5
1698672669710.0,16,-1.1,0.6000000000000001,-0.8,-1.1,9.600000000000001,2.3000000000000003,-29.400000000000002,80.9,8.5
1698672669728.0,16,-1.1,0.5,-1.0,-1.1,9.4,2.2,-31.3,80.5,10.9
1698672669744.0,16,-1.5,-0.1,-1.2000000000000002,-1.3,9.1,2.1,-32.800000000000004,78.5,15.100000000000001
1698672669761.0,16,-1.6,-0.4,-1.3,-1.7000000000000002,8.5,2.0,-32.5,71.7,24.8
1698672669777.0,16,-2.1,-1.0,-1.3,-2.2,7.9,2.1,-28.3,54.6,33.5
1698672669794.0,16,-1.6,-1.2000000000000002,-1.9000000000000001,-1.8,7.7,2.0,-25.2,53.1,37.1
1698672669811.0,16,-1.4000000000000001,-1.1,-2.1,-1.4000000000000001,7.7,1.4000000000000001,-23.1,57.3,31.900000000000002
1698672669827.0,16,-1.3,-0.5,-2.5,-1.3,8.200000000000001,1.1,-22.6,52.2,20.8
1698672669844.0,16,-1.5,-0.4,-2.8000000000000003,-1.5,8.4,0.8,-20.4,33.2,19.0
1698672669861.0,16,-1.8,-0.4,-2.6,-1.7000000000000002,8.3,1.0,-19.500000000000004,22.000000000000004,24.200000000000003
1698672669877.0,16,-1.8,-0.5,-1.7000000000000002,-1.7000000000000002,8.200000000000001,2.0,-9.600000000000001,8.0,38.300000000000004
1698672669894.0,16,-1.8,0.0,-1.0,-1.6,8.700000000000001,2.6,0.6000000000000001,5.4,44.2
1698672669911.0,16,-1.9000000000000001,0.4,-0.1,-1.3,9.5,4.6000000000000005,26.3,7.6,50.7
1698672669927.0,16,-1.1,1.3,2.0,-0.7000000000000001,10.100000000000001,5.4,67.60000000000001,23.3,45.9
1698672669944.0,16,1.2000000000000002,3.2,1.8,1.6,12.100000000000001,4.9,107.8,46.6,26.6
1698672669961.0,16,1.8,3.3000000000000003,0.4,1.7000000000000002,11.4,2.8000000000000003,96.5,52.50000000000001,11.000000000000002
1698672669977.0,16,-0.8,-0.5,-0.6000000000000001,-0.30000000000000004,8.6,2.1,52.6,69.5,33.6
1698672669994.0,16,-1.4000000000000001,-1.1,-1.1,-0.8,8.1,1.5,27.7,74.5,51.300000000000004
1698672670010.0,16,-2.0,-0.9,-1.0,-1.4000000000000001,8.200000000000001,2.4000000000000004,5.1,69.2,61.8
1698672670027.0,16,-1.7000000000000002,-0.9,0.5,-1.0,8.200000000000001,3.2,-15.5,59.5,59.5
1698672670044.0,16,-0.6000000000000001,-0.6000000000000001,2.1,0.2,8.5,4.800000000000001,1.2000000000000002,57.1,36.2
1698672670060.0,16,0.2,-0.6000000000000001,2.5,1.8,8.5,5.2,36.5,64.0,13.6
1698672670077.0,16,1.5,-0.2,2.7,2.3000000000000003,8.9,5.300000000000001,50.1,73.0,9.0
1698672670094.0,16,1.9000000000000001,0.6000000000000001,2.4000000000000004,2.6,9.8,4.9,63.6,91.9,9.600000000000001
1698672670110.0,16,1.9000000000000001,0.1,1.5,2.6,9.3,3.8000000000000003,49.3,91.2,23.3
1698672670127.0,16,1.8,-0.4,1.1,2.6,8.8,3.4000000000000004,31.5,86.80000000000001,34.2
1698672670144.0,16,1.3,-0.7000000000000001,0.6000000000000001,2.2,8.5,2.9000000000000004,-10.1,81.2,57.1
1698672670161.0,16,0.6000000000000001,-0.4,0.5,0.7000000000000001,9.200000000000001,3.0,-24.6,76.1,65.5
1698672670177.0,16,-1.0,0.4,0.4,0.1,9.600000000000001,2.9000000000000004,-34.400000000000006,69.7,74.2
1698672670194.0,16,-1.3,0.5,-0.30000000000000004,0.0,9.600000000000001,2.3000000000000003,-30.7,71.2,65.8
1698672670212.0,16,-1.4000000000000001,-0.2,-0.8,-0.1,8.8,1.9000000000000001,-21.0,64.2,45.800000000000004
1698672670227.0,16,-1.3,-0.30000000000000004,-0.9,0.1,8.700000000000001,1.8,-11.6,60.7,34.1
1698672670244.0,16,-1.0,-0.1,-0.9,0.4,8.9,1.9000000000000001,-7.400000000000001,59.7,31.7
1698672670260.0,16,-0.8,0.1,-0.9,0.6000000000000001,9.0,1.9000000000000001,0.6000000000000001,51.6,29.900000000000006
1698672670277.0,16,-0.7000000000000001,0.0,-0.8,0.7000000000000001,9.0,2.0,4.3999999999999995,45.5,31.5
1698672670294.0,16,-1.1,-0.30000000000000004,-1.1,0.5,8.6,1.7000000000000002,7.300000000000001,37.4,38.6
1698672670311.0,16,-1.6,-0.30000000000000004,-1.4000000000000001,0.30000000000000004,8.6,1.5,5.300000000000001,38.0,40.8
1698672670327.0,16,-1.7000000000000002,-0.2,-1.4000000000000001,-0.1,8.8,1.4000000000000001,-0.6000000000000001,35.199999999999996,38.2
1698672670344.0,16,-1.9000000000000001,0.2,-1.4000000000000001,-0.2,9.1,1.4000000000000001,-5.7,27.400000000000002,28.400000000000002
1698672670361.0,16,-2.0,0.0,-1.4000000000000001,-0.2,9.1,1.5,-7.699999999999999,24.1,21.700000000000003
1698672670379.0,16,-1.9000000000000001,-0.4,-1.4000000000000001,-0.2,8.5,1.5,-9.3,17.200000000000003,5.7
1698672670394.0,16,-1.4000000000000001,-1.2000000000000002,-1.5,0.30000000000000004,7.6000000000000005,1.4000000000000001,-9.0,14.0,2.0
1698672670410.0,16,-0.9,-1.4000000000000001,-1.6,0.8,7.4,1.3,-8.700000000000001,10.0,-1.9
1698672670428.0,16,0.1,-1.4000000000000001,-1.4000000000000001,1.7000000000000002,7.4,1.5,-9.4,7.400000000000001,-7.500000000000001
1698672670444.0,16,0.4,-0.4,-1.1,2.0,8.4,1.9000000000000001,-6.6000000000000005,16.900000000000002,-5.9
1698672670461.0,16,0.1,1.5,-0.8,1.7000000000000002,10.3,2.1,1.4,20.6,5.1
1698672670477.0,16,-0.1,2.2,-0.9,1.5,11.0,2.1,7.0,20.3,11.2
1698672670494.0,16,-0.5,2.6,-1.2000000000000002,1.2000000000000002,11.4,1.7000000000000002,15.6,19.1,17.8
1698672670510.0,16,-0.1,2.8000000000000003,-1.3,1.3,11.5,1.6,17.400000000000002,18.5,16.5
1698672670528.0,16,0.30000000000000004,3.2,-1.2000000000000002,2.3000000000000003,12.5,1.8,17.400000000000002,17.7,6.8
1698672670544.0,16,0.8,3.8000000000000003,-0.6000000000000001,2.5,12.8,2.2,17.0,19.9,-2.1
1698672670560.0,16,0.4,4.1000000000000005,0.2,2.1,13.100000000000001,3.0,22.6,22.8,-1.8
1698672670577.0,16,-0.7000000000000001,4.0,0.30000000000000004,1.0,13.0,3.0,28.1,7.0,8.700000000000001
1698672670594.0,16,-1.1,3.0,0.2,0.6000000000000001,12.100000000000001,2.8000000000000003,26.3,-0.9,12.000000000000002
1698672670611.0,16,-1.5,-0.30000000000000004,2.2,0.2,8.8,4.800000000000001,21.6,-3.8,9.3
1698672670627.0,16,-1.7000000000000002,-1.6,2.1,0.0,7.5,4.7,26.6,0.4,-7.9
1698672670644.0,16,-1.0,-2.4000000000000004,3.0,0.6000000000000001,6.7,5.4,29.400000000000002,-3.1,-12.3
1698672670661.0,16,-0.6000000000000001,-1.8,3.4000000000000004,1.0,7.300000000000001,5.800000000000001,32.7,-1.4,3.1
1698672670677.0,16,-0.6000000000000001,-1.0,3.2,1.0,8.1,5.6000000000000005,29.700000000000003,4.800000000000001,13.5
1698672670694.0,16,-0.1,0.4,2.7,1.5,9.5,5.0,16.8,4.300000000000001,19.700000000000003
1698672670711.0,16,-0.30000000000000004,0.4,2.6,1.4000000000000001,9.5,4.9,2.7,4.3999999999999995,8.9
1698672670727.0,16,-0.7000000000000001,0.4,2.1,1.3,9.600000000000001,4.7,-2.7,5.8,2.4000000000000004
1698672670744.0,16,-0.9,0.2,1.8,0.6000000000000001,9.0,3.8000000000000003,-10.9,5.7,-9.200000000000001
1698672670760.0,16,-1.1,-0.6000000000000001,1.0,0.5,8.6,3.4000000000000004,-18.2,5.4,-16.5
1698672670777.0,16,-0.9,-0.9,0.7000000000000001,0.6000000000000001,8.200000000000001,3.2,-22.8,4.800000000000001,-19.200000000000003
1698672670793.0,16,-0.9,-1.0,0.7000000000000001,0.6000000000000001,8.1,3.2,-21.6,-0.2,-20.5
1698672670810.0,16,-1.4000000000000001,-1.3,0.30000000000000004,0.0,7.800000000000001,2.9000000000000004,-15.2,-5.500000000000001,-17.3
1698672670827.0,16,-1.8,-1.9000000000000001,-0.1,-0.4,7.1000000000000005,2.5,-9.5,-4.7,-12.8
1698672670844.0,16,-1.8,-2.2,-0.2,-0.5,6.9,2.4000000000000004,-6.3,-8.0,-12.100000000000001
1698672670861.0,16,-1.9000000000000001,-2.4000000000000004,-0.1,-0.6000000000000001,6.7,2.5,0.6000000000000001,-10.2,-14.200000000000001
1698672670877.0,16,-1.8,-1.9000000000000001,-0.2,-0.6000000000000001,7.1000000000000005,2.4000000000000004,6.1000000000000005,-1.5000000000000002,-20.2
1698672670894.0,16,-1.6,-1.6,-0.30000000000000004,-0.4,7.5,2.3000000000000003,7.8,2.8,-23.400000000000002
1698672670911.0,16,-0.7000000000000001,-1.2000000000000002,-0.7000000000000001,0.4,7.9,1.9000000000000001,7.8,5.4,-27.0
1698672670927.0,16,-0.2,-1.2000000000000002,-0.8,0.8,7.800000000000001,1.7000000000000002,-1.0999999999999999,-4.9,-29.300000000000004
1698672670944.0,16,-0.1,-1.2000000000000002,-0.8,0.8,7.800000000000001,1.7000000000000002,-5.300000000000001,-5.1,-24.8
1698672670963.0,16,-0.1,-1.1,-0.9,0.8,8.0,1.4000000000000001,-12.700000000000001,1.3,-7.9
1698672670977.0,16,-0.1,-1.1,-1.5,0.8,8.0,1.1,-15.399999999999999,3.8,-5.1
1698672670994.0,16,-0.1,-1.2000000000000002,-1.7000000000000002,0.8,7.800000000000001,0.9,-18.8,5.9,-3.0000000000000004
1698672671010.0,16,0.1,-1.4000000000000001,-1.6,0.9,7.5,1.1,-23.2,5.300000000000001,0.6000000000000001
1698672671027.0,16,0.0,-1.1,-1.2000000000000002,0.9,7.9,1.5,-17.200000000000003,-1.9,5.4
1698672671043.0,16,-0.4,0.30000000000000004,-1.3,0.5,9.3,1.5,-5.1,-8.5,13.6
1698672671060.0,16,-0.2,1.1,-1.0,0.7000000000000001,10.0,1.7000000000000002,1.8,-13.4,15.100000000000001
1698672671077.0,16,0.0,2.9000000000000004,0.2,1.0,11.9,2.9000000000000004,23.5,-28.700000000000003,10.1
1698672671093.0,16,0.1,3.6,0.6000000000000001,1.1,12.600000000000001,3.2,37.6,-28.200000000000003,7.1000000000000005
1698672671110.0,16,-0.2,4.2,0.0,0.9,13.3,2.4000000000000004,54.7,-3.6,7.6
1698672671127.0,16,-0.4,4.0,-0.5,0.7000000000000001,13.200000000000001,1.8,45.5,15.100000000000001,14.3
1698672671144.0,16,-0.5,3.8000000000000003,-0.30000000000000004,0.6000000000000001,13.0,1.9000000000000001,34.7,16.2,15.399999999999999
1698672671160.0,16,-0.5,4.2,1.2000000000000002,0.6000000000000001,13.4,3.4000000000000004,15.8,9.4,12.100000000000001
1698672671177.0,16,-0.30000000000000004,3.4000000000000004,1.4000000000000001,0.8,12.700000000000001,3.6,12.4,5.300000000000001,3.1
1698672671194.0,16,-0.6000000000000001,1.7000000000000002,1.5,0.30000000000000004,9.200000000000001,4.800000000000001,10.8,3.1,2.0
1698672671210.0,16,-1.0,-1.3,3.5,0.2,8.0,5.7,19.1,1.4,2.1
1698672671227.0,16,-0.8,-2.4000000000000004,2.9000000000000004,0.30000000000000004,6.9,5.0,42.6,-7.8,-8.1
1698672671244.0,16,-0.9,-2.8000000000000003,2.3000000000000003,0.2,6.5,4.3,38.1,-2.8,-17.0
1698672671261.0,16,-1.0,-0.9,3.2,0.0,7.2,4.6000000000000005,28.6,5.300000000000001,-14.600000000000001
1698672671278.0,16,-1.0,0.5,3.6,0.0,9.8,5.5,11.1,9.0,-7.300000000000001
1698672671295.0,16,-1.5,2.9000000000000004,2.2,-0.5,12.3,4.2,-6.8,-5.1,-3.5
1698672671310.0,16,-1.3,2.3000000000000003,1.5,-0.30000000000000004,11.600000000000001,3.4000000000000004,-20.900000000000002,-6.3,-2.3000000000000003
1698672671327.0,16,-1.2000000000000002,-0.5,1.3,-0.30000000000000004,8.8,3.4000000000000004,-39.300000000000004,-4.3999999999999995,-5.2
1698672671344.0,16,-1.0,-0.8,0.7000000000000001,0.30000000000000004,8.4,2.5,-42.800000000000004,-16.5,-5.7
1698672671361.0,16,-0.5,-1.1,0.2,0.4,8.200000000000001,2.5,-44.1,-22.7,-4.9
1698672671377.0,16,-0.1,-1.6,0.1,0.8,7.6000000000000005,2.6,-41.7,-22.6,-5.2
1698672671394.0,16,0.1,-1.9000000000000001,0.1,1.2000000000000002,7.0,2.7,-32.5,-19.9,-9.9
1698672671410.0,16,0.30000000000000004,-2.5,0.1,1.2000000000000002,6.6000000000000005,2.6,-26.6,-18.1,-12.3
1698672671438.0,16,0.5,-3.0,-0.30000000000000004,1.3,6.0,2.3000000000000003,-13.100000000000001,-11.1,-14.200000000000001
1698672671444.0,16,0.5,-3.0,-0.30000000000000004,1.3,6.1000000000000005,2.3000000000000003,-10.1,-10.5,-12.6
1698672671460.0,16,0.6000000000000001,-2.7,-0.4,1.4000000000000001,6.4,2.3000000000000003,-7.400000000000001,-10.5,-9.8
1698672671477.0,16,0.6000000000000001,-1.9000000000000001,-0.5,1.4000000000000001,7.1000000000000005,2.2,-3.5,-10.4,-1.2000000000000002
1698672671494.0,16,0.2,-1.3,-0.6000000000000001,1.1,7.7,2.1,-2.1999999999999997,-13.3,10.4
1698672671511.0,16,0.0,-1.1,-0.8,0.9,7.9,1.9000000000000001,-2.7,-12.200000000000001,13.6
1698672671527.0,16,-0.2,-1.2000000000000002,-1.2000000000000002,0.7000000000000001,7.800000000000001,1.4000000000000001,-5.7,-8.700000000000001,6.9
1698672671544.0,16,-0.1,-1.8,-1.6,0.8,7.2,1.1,-9.200000000000001,-8.700000000000001,-7.699999999999999
1698672671560.0,16,0.2,-1.9000000000000001,-1.7000000000000002,1.1,7.1000000000000005,1.0,-11.3,-8.3,-14.0
1698672671577.0,16,0.9,-1.5,-1.4000000000000001,1.8,7.4,1.3,-15.299999999999999,1.8,-22.8
1698672671594.0,16,1.4000000000000001,-0.9,-1.2000000000000002,2.2,8.0,1.6,-14.900000000000002,13.8,-26.6
1698672671611.0,16,1.3,1.5,-0.30000000000000004,2.0,10.4,2.4000000000000004,-3.9,25.1,-27.0
1698672671627.0,16,0.8,4.3,0.7000000000000001,1.5,13.3,3.4000000000000004,24.1,13.0,-9.1
1698672671644.0,16,0.6000000000000001,4.5,0.4,1.3,13.5,3.1,40.3,3.4,4.0
1698672671661.0,16,-0.4,2.9000000000000004,-0.30000000000000004,0.30000000000000004,12.0,2.2,55.4,-8.600000000000001,20.3
1698672671677.0,16,-0.9,2.1,0.2,-0.1,11.200000000000001,2.5,50.9,-11.700000000000001,21.5
1698672671694.0,16,-0.4,2.4000000000000004,0.7000000000000001,0.4,11.600000000000001,2.9000000000000004,38.7,-3.3000000000000003,12.100000000000001
1698672671711.0,16,0.1,2.2,0.9,1.0,11.4,3.0,30.4,-6.6000000000000005,7.0
1698672671727.0,16,1.0,-0.2,2.7,1.9000000000000001,9.1,4.800000000000001,20.8,-5.8,-0.9
1698672671744.0,16,0.7000000000000001,-2.5,3.4000000000000004,1.5,6.7,5.4,30.100000000000005,16.400000000000002,0.7
1698672671761.0,16,0.2,-3.2,3.8000000000000003,0.8,6.2,5.800000000000001,46.800000000000004,9.600000000000001,21.1
1698672671777.0,16,-0.30000000000000004,-1.9000000000000001,3.8000000000000003,0.7000000000000001,7.4,5.7,50.6,10.9,33.5
1698672671794.0,16,-1.0,1.8,4.5,0.2,11.100000000000001,6.2,46.4,2.4000000000000004,48.800000000000004
1698672671810.0,16,-0.9,3.6,4.4,0.30000000000000004,12.9,6.1000000000000005,41.4,-5.8,52.1
1698672671827.0,16,-0.7000000000000001,3.9000000000000004,3.1,0.6000000000000001,13.200000000000001,4.800000000000001,14.200000000000001,-0.7,46.1
1698672671844.0,16,-1.3,1.9000000000000001,2.5,0.4,12.200000000000001,4.4,-6.8,8.5,35.6
1698672671860.0,16,-1.5,1.2000000000000002,2.1,-0.1,10.5,3.9000000000000004,-33.900000000000006,11.1,7.9
1698672671877.0,16,-1.4000000000000001,0.5,1.3,0.0,9.8,3.3000000000000003,-44.9,23.400000000000002,-17.9
1698672671894.0,16,-0.9,-0.4,0.8,0.30000000000000004,8.9,2.9000000000000004,-43.800000000000004,27.8,-29.200000000000003
1698672671910.0,16,-0.9,-0.9,0.5,0.30000000000000004,8.3,2.7,-39.8,28.0,-28.200000000000003
1698672671927.0,16,-0.8,-2.1,0.0,0.30000000000000004,7.1000000000000005,2.3000000000000003,-28.700000000000003,20.5,-17.200000000000003
1698672671944.0,16,-0.9,-3.0,-0.4,0.2,6.2,2.0,-17.599999999999998,5.1,-5.7
1698672671960.0,16,-1.0,-3.1,-0.4,0.0,6.0,2.0,-9.700000000000001,-0.4,3.2
1698672671977.0,16,-1.2000000000000002,-2.9000000000000004,-0.30000000000000004,-0.1,6.2,2.1,-6.5,0.4,6.000000000000001
1698672671994.0,16,-1.4000000000000001,-1.8,0.0,-0.4,7.300000000000001,2.4000000000000004,0.2,-0.2,7.9
1698672672010.0,16,-1.3,-1.1,0.1,-0.30000000000000004,8.0,2.5,3.1,0.1,6.5
1698672672027.0,16,-1.2000000000000002,-1.1,-0.30000000000000004,-0.1,8.0,2.1,4.3999999999999995,5.300000000000001,-1.5000000000000002
1698672672044.0,16,-0.6000000000000001,-1.3,-1.1,0.5,7.800000000000001,1.4000000000000001,-6.000000000000001,2.6,-2.9
1698672672061.0,16,-0.30000000000000004,-1.4000000000000001,-1.3,0.7000000000000001,7.6000000000000005,1.2000000000000002,-14.600000000000001,3.6,-0.4
1698672672078.0,16,-0.1,-1.8,-1.3,1.0,7.2,1.2000000000000002,-28.400000000000002,9.200000000000001,7.8
1698672672094.0,16,0.2,-2.1,-1.4000000000000001,1.3,6.9,1.2000000000000002,-34.50000000000001,19.9,15.399999999999999
1698672672111.0,16,0.30000000000000004,-2.2,-1.3,1.4000000000000001,6.7,1.4000000000000001,-35.199999999999996,25.0,18.400000000000002
1698672672127.0,16,0.5,-1.8,-0.7000000000000001,1.6,7.1000000000000005,2.1,-26.500000000000004,31.0,23.400000000000002
1698672672144.0,16,0.6000000000000001,-0.4,-0.5,1.8,8.5,2.3000000000000003,-4.9,31.099999999999998,29.700000000000003
1698672672160.0,16,1.0,0.30000000000000004,-0.30000000000000004,2.6,10.100000000000001,2.7,7.9,24.3,32.5
1698672672177.0,16,1.2000000000000002,2.1,0.4,2.6,11.0,3.1,36.0,4.2,34.7
1698672672194.0,16,0.30000000000000004,2.9000000000000004,0.4,1.7000000000000002,11.9,2.9000000000000004,58.7,16.8,42.7
1698672672210.0,16,-0.4,2.8000000000000003,-0.4,1.1,11.700000000000001,2.1,60.20000000000001,35.199999999999996,47.900000000000006
1698672672227.0,16,-1.8,2.6,-1.1,-0.1,11.600000000000001,1.2000000000000002,41.800000000000004,47.2,52.50000000000001
1698672672244.0,16,-1.9000000000000001,2.7,-0.1,-0.1,11.8,2.2,13.8,36.800000000000004,47.400000000000006
1698672672260.0,16,-1.5,3.0,0.8,0.30000000000000004,12.0,3.1,-0.9,36.9,30.799999999999997
1698672672277.0,16,-1.7000000000000002,2.5,1.3,0.1,11.5,3.6,-3.6,39.400000000000006,24.5
1698672672294.0,16,-1.5,1.2000000000000002,3.5,0.30000000000000004,10.200000000000001,5.800000000000001,10.1,38.300000000000004,14.4
1698672672310.0,16,-0.2,1.4000000000000001,5.5,1.6,10.5,7.800000000000001,46.300000000000004,44.3,-13.100000000000001
1698672672327.0,16,0.6000000000000001,0.9,5.300000000000001,2.3000000000000003,10.0,7.5,64.4,52.0,-28.6
1698672672344.0,16,1.0,-0.8,4.5,2.5,8.4,6.5,68.5,61.0,-38.400000000000006
1698672672361.0,16,0.2,-1.5,4.800000000000001,1.7000000000000002,7.7,6.9,54.2,74.7,-27.8
1698672672377.0,16,-0.7000000000000001,-1.4000000000000001,3.3000000000000003,0.8,7.800000000000001,5.300000000000001,2.0,113.4,16.5
1698672672394.0,16,-0.6000000000000001,0.6000000000000001,1.4000000000000001,0.9,9.8,3.7,-45.9,116.80000000000001,40.4
1698672672410.0,16,0.2,0.6000000000000001,1.2000000000000002,1.7000000000000002,9.700000000000001,3.7,-58.9,102.9,29.1
1698672672427.0,16,0.4,-0.1,1.3,1.9000000000000001,9.0,4.0,-53.400000000000006,105.4,20.0
1698672672444.0,16,0.4,-1.5,0.8,1.8,7.6000000000000005,3.6,-26.9,118.50000000000001,12.100000000000001
1698672672461.0,16,1.0,-1.7000000000000002,0.5,2.4000000000000004,7.300000000000001,3.3000000000000003,-13.3,124.8,11.9
1698672672478.0,16,2.0,-1.9000000000000001,0.6000000000000001,3.2,7.1000000000000005,3.5,12.5,137.4,10.1
1698672672494.0,16,2.0,-1.7000000000000002,0.6000000000000001,3.2,7.300000000000001,3.5,35.5,142.3,16.700000000000003
1698672672511.0,16,1.9000000000000001,-1.5,0.5,3.1,7.5,3.4000000000000004,42.2,141.4,25.8
1698672672528.0,16,1.3,-1.1,0.6000000000000001,2.0,8.1,3.5,41.0,139.20000000000002,50.800000000000004
1698672672544.0,16,0.5,-0.6000000000000001,0.7000000000000001,1.8,8.4,3.5,25.8,159.70000000000002,66.80000000000001
1698672672560.0,16,0.4,-0.5,0.5,1.7000000000000002,8.5,3.3000000000000003,5.8,169.9,61.300000000000004
1698672672577.0,16,0.6000000000000001,-0.4,0.4,2.2,8.5,3.1,-12.100000000000001,177.70000000000002,56.900000000000006
1698672672593.0,16,1.2000000000000002,-0.30000000000000004,-0.1,2.5,8.700000000000001,2.9000000000000004,-18.400000000000002,182.4,60.20000000000001
1698672672610.0,16,1.4000000000000001,0.2,-0.6000000000000001,2.7,9.1,2.6,-25.400000000000002,191.1,68.80000000000001
1698672672628.0,16,1.2000000000000002,0.4,-0.8,2.4000000000000004,9.3,2.3000000000000003,-26.200000000000003,199.4,75.4
1698672672644.0,16,1.1,0.4,-1.2000000000000002,2.4000000000000004,9.200000000000001,2.2,-25.6,204.70000000000002,78.4
1698672672660.0,16,0.9,0.2,-1.8,2.2,9.0,1.7000000000000002,-24.000000000000004,209.60000000000002,82.50000000000001
1698672672677.0,16,0.7000000000000001,0.2,-2.0,2.1,8.9,1.6,-23.8,209.8,84.3
1698672672694.0,16,0.0,0.7000000000000001,-1.9000000000000001,1.4000000000000001,9.4,1.8,-19.9,203.9,89.4
1698672672710.0,16,-0.30000000000000004,1.2000000000000002,-2.0,1.1,9.700000000000001,1.9000000000000001,-9.600000000000001,196.50000000000003,92.7
1698672672727.0,16,-0.2,1.3,-1.8,1.5,9.8,2.4000000000000004,5.2,192.10000000000002,87.2
1698672672744.0,16,0.30000000000000004,0.8,-1.3,1.7000000000000002,9.4,2.7,15.5,195.20000000000002,80.2
1698672672760.0,16,1.3,-0.2,-1.4000000000000001,2.6,8.4,2.5,36.5,207.3,68.4
1698672672777.0,16,2.3000000000000003,-0.6000000000000001,-1.6,3.5,8.0,2.3000000000000003,42.900000000000006,210.5,66.60000000000001
1698672672794.0,16,2.4000000000000004,-0.6000000000000001,-1.3,3.6,8.0,2.6,45.7,215.70000000000002,69.00000000000001
1698672672810.0,16,0.8,0.7000000000000001,-0.9,1.9000000000000001,9.3,2.9000000000000004,42.6,210.20000000000002,86.2
1698672672827.0,16,-0.30000000000000004,2.2,-0.8,-0.2,11.8,3.0,35.1,209.20000000000002,100.7
1698672672844.0,16,-2.1,3.5,-1.1,-0.8,12.100000000000001,2.7,15.6,209.70000000000002,113.9
1698672672860.0,16,-2.9000000000000004,2.6,-0.9,-1.6,11.3,3.0,-4.6000000000000005,187.0,108.6
1698672672877.0,16,-3.1,2.0,-0.30000000000000004,-1.8,10.600000000000001,3.7,-10.1,180.4,101.0
1698672672894.0,16,-3.8000000000000003,1.3,0.4,-2.5,9.9,4.4,-6.6000000000000005,178.8,82.8
1698672672910.0,16,-3.9000000000000004,1.3,-0.30000000000000004,-2.7,9.8,3.9000000000000004,-4.0,177.70000000000002,66.80000000000001
1698672672927.0,16,-3.6,0.5,-0.9,-2.6,9.0,3.3000000000000003,-13.200000000000001,171.50000000000003,56.1
1698672672945.0,16,-3.0,-0.2,-0.9,-2.0,8.3,3.4000000000000004,-18.7,160.8,50.7
1698672672961.0,16,-1.2000000000000002,-1.0,-1.0,-0.30000000000000004,7.4,3.4000000000000004,-22.5,140.9,36.1
1698672672977.0,16,0.0,-0.9,-1.4000000000000001,0.8,7.4,3.1,-25.400000000000002,138.00000000000003,30.200000000000003
1698672672995.0,16,0.1,-0.7000000000000001,-1.7000000000000002,0.8,7.6000000000000005,2.8000000000000003,-27.8,146.70000000000002,32.800000000000004
1698672673010.0,16,0.2,-0.7000000000000001,-2.4000000000000004,0.7000000000000001,7.6000000000000005,2.2,-35.5,162.9,46.6
1698672673027.0,16,0.0,-0.2,-2.6,0.5,8.0,2.2,-40.0,143.4,66.80000000000001
1698672673044.0,16,-0.5,0.4,-2.1,0.0,8.5,2.8000000000000003,-37.2,116.4,85.80000000000001
1698672673062.0,16,-1.1,0.8,-2.1,-0.5,8.8,2.8000000000000003,-33.1,109.9,92.8
1698672673077.0,16,-2.2,1.2000000000000002,-1.5,-1.5,9.200000000000001,3.5,-18.7,90.8,100.10000000000001
1698672673094.0,16,-2.6,1.2000000000000002,-1.2000000000000002,-1.9000000000000001,9.200000000000001,3.8000000000000003,-6.8,81.6,100.10000000000001
1698672673110.0,16,-2.9000000000000004,0.9,-0.8,-2.0,9.0,4.2,14.200000000000001,83.60000000000001,92.0
1698672673127.0,16,-2.5,0.5,-0.30000000000000004,-1.7000000000000002,8.6,4.7,24.8,94.4,75.1
1698672673149.0,16,-1.5,0.8,0.1,-0.7000000000000001,8.9,5.0,21.700000000000003,85.0,57.9
1698672673160.0,16,-1.2000000000000002,0.6000000000000001,0.2,-0.4,8.700000000000001,5.1000000000000005,13.200000000000001,79.7,53.2
1698672673177.0,16,-1.1,-0.2,0.2,-0.30000000000000004,7.9,5.2,-12.4,82.10000000000001,51.7
1698672673194.0,16,-1.3,-0.5,0.0,-0.5,7.5,5.0,-23.6,83.4,53.300000000000004
1698672673210.0,16,-2.0,-0.8,-1.1,-1.1,7.1000000000000005,4.0,-38.7,80.30000000000001,57.1
1698672673227.0,16,-2.2,-0.2,-0.9,-1.4000000000000001,7.6000000000000005,4.3,-44.8,76.5,58.00000000000001
1698672673244.0,16,-2.2,0.2,-1.0,-1.3,8.0,4.3,-39.400000000000006,69.80000000000001,57.3
1698672673260.0,16,-2.1,1.4000000000000001,-0.1,-1.2000000000000002,9.1,5.300000000000001,-23.3,50.2,50.4
1698672673277.0,16,-1.5,2.1,1.5,-0.6000000000000001,9.8,6.9,4.300000000000001,36.5,36.800000000000004
1698672673293.0,16,-0.6000000000000001,1.7000000000000002,1.4000000000000001,0.2,9.5,6.800000000000001,20.6,51.1,17.7
1698672673310.0,16,-0.30000000000000004,0.9,0.7000000000000001,0.5,8.700000000000001,6.1000000000000005,15.299999999999999,63.900000000000006,9.8
1698672673327.0,16,-0.1,-1.2000000000000002,-0.5,0.6000000000000001,6.6000000000000005,4.9,-14.4,70.3,8.200000000000001
1698672673344.0,16,-0.2,-2.2,-0.8,0.5,5.5,4.7,-31.8,65.8,15.399999999999999
1698672673361.0,16,-0.5,-1.9000000000000001,-0.9,0.1,5.7,4.800000000000001,-56.800000000000004,47.400000000000006,37.1
1698672673377.0,16,-0.9,-0.6000000000000001,-0.7000000000000001,-0.6000000000000001,8.0,5.300000000000001,-62.8,22.7,49.5
1698672673394.0,16,-1.4000000000000001,1.2000000000000002,-0.1,-0.8,8.6,6.1000000000000005,-50.1,12.5,48.300000000000004
1698672673410.0,16,-1.9000000000000001,0.8,0.4,-1.1,8.1,6.4,-38.800000000000004,15.2,45.0
1698672673427.0,16,-1.9000000000000001,-1.0,0.1,-1.0,6.2,6.1000000000000005,-13.3,20.2,37.1
1698672673443.0,16,-0.5,-2.0,-0.4,-0.30000000000000004,5.5,5.800000000000001,-4.6000000000000005,17.7,29.700000000000003
1698672673461.0,16,0.2,-1.6,-0.30000000000000004,1.0,5.6000000000000005,5.7,-1.0999999999999999,19.0,10.9
1698672673477.0,16,1.1,-0.8,-0.4,1.9000000000000001,6.4,5.7,-6.6000000000000005,27.5,2.9
1698672673494.0,16,1.6,-0.4,-0.1,2.4000000000000004,6.800000000000001,6.0,-12.200000000000001,33.300000000000004,7.8
1698672673510.0,16,1.4000000000000001,-0.30000000000000004,-0.1,2.2,6.800000000000001,6.0,-13.700000000000001,32.300000000000004,14.700000000000001
1698672673527.0,16,1.2000000000000002,-0.7000000000000001,-0.1,2.0,6.4,6.1000000000000005,-14.4,30.000000000000004,33.800000000000004
1698672673544.0,16,1.0,-0.8,0.1,1.6,6.300000000000001,6.300000000000001,-7.9,35.5,43.2
1698672673560.0,16,0.7000000000000001,-0.8,-0.1,1.6,6.300000000000001,6.1000000000000005,-2.7,40.4,43.800000000000004
1698672673577.0,16,1.3,-0.9,-0.8,2.2,6.1000000000000005,5.4,-1.0,61.4,39.1
1698672673594.0,16,0.5,-1.4000000000000001,-1.4000000000000001,1.3,5.6000000000000005,4.9,-6.6000000000000005,67.9,31.5
1698672673610.0,16,-0.4,-1.6,-1.4000000000000001,0.4,5.4,4.9,-13.3,59.20000000000001,34.7
1698672673627.0,16,-1.5,-0.5,0.30000000000000004,-0.7000000000000001,6.4,6.6000000000000005,-22.7,28.500000000000004,45.0
1698672673644.0,16,-2.8000000000000003,0.30000000000000004,-0.5,-1.9000000000000001,7.2,5.9,-23.0,20.7,49.8
1698672673660.0,16,-3.3000000000000003,-0.1,-1.5,-2.5,6.7,4.9,-29.700000000000003,32.9,52.7
1698672673677.0,16,-2.7,-1.4000000000000001,-1.6,-1.9000000000000001,5.300000000000001,4.9,-35.6,48.50000000000001,52.7
1698672673693.0,16,-1.5,-1.9000000000000001,-1.9000000000000001,-0.7000000000000001,4.7,4.6000000000000005,-18.0,32.9,28.0
1698672673710.0,16,-1.4000000000000001,-1.8,-1.8,-0.6000000000000001,4.800000000000001,4.7,-10.8,22.4,9.600000000000001
1698672673727.0,16,-0.4,-0.9,-0.6000000000000001,0.4,5.6000000000000005,6.0,-3.6,-2.1,-7.9
1698672673744.0,16,-1.2000000000000002,-0.5,-0.1,-0.4,6.1000000000000005,6.5,-9.0,-2.6,1.6
1698672673760.0,16,-1.6,-0.6000000000000001,0.1,-0.9,6.0,6.7,-14.4,1.2000000000000002,9.600000000000001
1698672673777.0,16,-2.1,-0.8,0.0,-1.4000000000000001,5.4,6.4,-17.599999999999998,7.8,7.400000000000001
1698672673794.0,16,-1.0,-1.1,-0.5,-0.30000000000000004,5.300000000000001,6.2,-15.5,12.8,-6.3
1698672673810.0,16,-0.30000000000000004,-0.9,-0.5,0.4,5.5,6.2,-14.800000000000002,11.5,-11.2
1698672673827.0,16,0.4,-0.8,-0.2,1.0,5.6000000000000005,6.5,-12.6,3.2,-9.8
1698672673844.0,16,-0.4,-1.4000000000000001,0.6000000000000001,0.30000000000000004,5.0,7.300000000000001,-5.7,-5.300000000000001,-1.0
1698672673862.0,16,-0.8,-1.1,0.7000000000000001,-0.1,5.2,7.4,-1.9,0.4,5.9
1698672673877.0,16,-1.2000000000000002,-0.6000000000000001,0.7000000000000001,-0.6000000000000001,5.800000000000001,7.5,3.2,11.6,10.1
1698672673894.0,16,-0.1,-0.6000000000000001,0.6000000000000001,0.5,5.800000000000001,7.300000000000001,6.4,9.5,2.6
1698672673910.0,16,0.4,-0.7000000000000001,0.6000000000000001,1.0,5.7,7.300000000000001,6.9,8.600000000000001,0.2
1698672673927.0,16,0.30000000000000004,-0.5,0.6000000000000001,0.9,5.9,7.4,8.5,5.300000000000001,3.1
1698672673944.0,16,-0.6000000000000001,0.0,0.9,0.0,6.4,7.6000000000000005,11.6,2.0,10.9
1698672673961.0,16,-1.0,0.0,1.0,-0.4,6.5,7.7,13.100000000000001,5.8,11.2
1698672673977.0,16,-1.2000000000000002,-0.30000000000000004,1.1,-0.6000000000000001,6.2,7.7,19.500000000000004,12.000000000000002,6.2
1698672673994.0,16,-0.5,-0.7000000000000001,1.1,0.1,5.800000000000001,7.7,23.0,20.7,-2.3000000000000003
1698672674010.0,16,0.1,-0.8,1.1,0.6000000000000001,5.7,7.7,24.9,21.700000000000003,-2.6
1698672674027.0,16,0.30000000000000004,-0.9,0.9,0.8,5.7,7.5,28.8,12.8,1.2000000000000002
1698672674044.0,16,-0.7000000000000001,-1.4000000000000001,0.8,0.2,5.0,7.4,31.900000000000002,9.0,5.4
1698672674061.0,16,-1.1,-0.8,0.8,-0.6000000000000001,5.9,7.300000000000001,37.0,4.800000000000001,21.700000000000003
1698672674077.0,16,-1.3,-0.2,0.7000000000000001,-0.8,6.5,7.1000000000000005,47.300000000000004,7.6,22.1
1698672674094.0,16,-0.6000000000000001,-0.8,0.6000000000000001,0.0,6.1000000000000005,6.800000000000001,59.5,5.8,11.700000000000001
1698672674111.0,16,-0.2,-1.0,0.4,0.4,6.0,6.6000000000000005,64.10000000000001,4.3999999999999995,7.6
1698672674127.0,16,0.2,-0.8,0.4,0.8,6.300000000000001,6.4,70.5,1.8,6.7
1698672674143.0,16,-0.6000000000000001,-1.6,-0.2,-0.1,5.7,5.6000000000000005,79.8,1.6,12.3
1698672674161.0,16,-0.9,-1.1,-0.2,-0.30000000000000004,6.2,5.5,84.0,-0.30000000000000004,18.1
1698672674177.0,16,-1.1,-0.1,-0.2,-0.4,7.4,5.2,97.4,-3.0000000000000004,20.2
1698672674194.0,16,-0.4,0.7000000000000001,0.2,0.30000000000000004,8.4,5.300000000000001,115.8,-8.5,13.9
1698672674210.0,16,0.2,1.6,0.5,0.9,9.4,5.5,126.1,-11.4,10.4
1698672674227.0,16,0.7000000000000001,3.5,1.5,1.4000000000000001,11.600000000000001,6.1000000000000005,144.3,-10.5,10.8
1698672674244.0,16,0.2,5.9,2.2,1.0,14.3,6.4,155.20000000000002,-7.6,16.2
1698672674261.0,16,0.1,6.9,2.3000000000000003,0.8,15.9,5.800000000000001,143.5,-15.7,14.900000000000002
1698672674277.0,16,-0.2,7.0,1.5,0.8,15.700000000000001,5.1000000000000005,127.10000000000001,-17.400000000000002,10.600000000000001
1698672674294.0,16,-0.1,4.9,0.2,0.8,13.700000000000001,3.4000000000000004,91.9,-24.8,0.2
1698672674311.0,16,-0.2,3.5,-0.4,0.8,12.4,2.8000000000000003,78.00000000000001,-26.700000000000003,-2.4000000000000004
1698672674327.0,16,0.0,0.9,-1.2000000000000002,1.0,9.9,1.7000000000000002,57.00000000000001,-30.000000000000004,-0.1
1698672674344.0,16,0.0,-0.30000000000000004,-1.4000000000000001,1.0,8.700000000000001,1.3,40.7,-32.9,2.1
1698672674360.0,16,1.5,1.0,-6.5,2.6,10.100000000000001,-4.0,78.9,-116.10000000000001,6.2
1698672674377.0,16,-0.5,-2.2,-1.5,0.7000000000000001,7.0,0.8,123.19999999999999,-111.0,10.3
1698672674394.0,16,-0.8,-1.3,-2.3000000000000003,0.4,7.9,-0.4,126.60000000000001,48.7,15.6
1698672674410.0,16,-0.7000000000000001,0.1,-2.5,0.5,9.3,-0.8,122.3,-23.1,7.6
1698672674427.0,16,-0.30000000000000004,1.1,-0.8,0.9,10.4,0.7000000000000001,67.3,-34.800000000000004,-3.6
1698672674444.0,16,-0.2,0.9,-0.9,1.0,10.3,0.30000000000000004,64.60000000000001,-90.30000000000001,-2.7
1698672674461.0,16,-0.2,0.9,-1.5,1.0,10.3,-0.5,79.7,-49.6,-0.2
1698672674477.0,16,0.1,1.2000000000000002,-1.3,1.4000000000000001,10.600000000000001,-0.7000000000000001,110.10000000000001,-16.8,3.5
1698672674494.0,16,0.8,3.0,-0.5,2.1,12.5,-0.2,87.80000000000001,-30.799999999999997,0.6000000000000001
1698672674510.0,16,0.6000000000000001,2.9000000000000004,0.6000000000000001,2.2,13.0,-0.7000000000000001,61.4,-23.5,-0.1
1698672674528.0,16,0.6000000000000001,1.9000000000000001,-0.30000000000000004,1.9000000000000001,11.4,-0.2,43.2,-13.8,9.0
1698672674543.0,16,-0.2,0.2,-0.6000000000000001,1.1,9.600000000000001,-0.7000000000000001,42.7,-13.5,6.5
1698672674561.0,16,-0.5,0.2,-0.8,0.8,9.700000000000001,-1.0,34.50000000000001,-15.5,4.9
1698672674577.0,16,-0.30000000000000004,0.2,-0.2,1.1,9.700000000000001,-0.5,30.5,-12.700000000000001,3.0000000000000004
1698672674594.0,16,0.30000000000000004,0.0,0.30000000000000004,1.6,9.5,0.0,24.6,-5.8,-0.5
1698672674610.0,16,-0.5,-0.30000000000000004,0.2,0.9,9.200000000000001,-0.30000000000000004,20.7,-6.9,-2.7
1698672674627.0,16,-0.7000000000000001,0.2,-0.2,0.7000000000000001,9.600000000000001,-0.7000000000000001,20.7,-11.5,-0.4
1698672674644.0,16,-0.4,0.2,-0.1,0.9,9.700000000000001,-0.6000000000000001,21.900000000000002,-12.5,0.8
1698672674660.0,16,-0.1,0.0,0.1,1.2000000000000002,9.600000000000001,-0.6000000000000001,22.900000000000002,-12.200000000000001,0.6000000000000001
1698672674677.0,16,-0.2,-0.1,0.0,1.1,9.3,-0.6000000000000001,21.400000000000002,-8.3,-0.2
1698672674694.0,16,-0.5,-0.30000000000000004,-0.1,0.9,9.200000000000001,-0.8,15.8,-5.1,0.6000000000000001
1698672674710.0,16,-0.4,-0.30000000000000004,-0.1,1.1,9.3,-0.8,12.700000000000001,-3.9,1.2000000000000002
1698672674727.0,16,-0.2,-0.1,0.1,1.1,9.4,-0.7000000000000001,9.1,-1.6,1.7
1698672674744.0,16,-0.30000000000000004,0.30000000000000004,0.2,1.0,9.700000000000001,-0.6000000000000001,8.0,0.4,2.3000000000000003
1698672674760.0,16,-0.4,0.2,0.2,0.9,9.700000000000001,-0.6000000000000001,6.6000000000000005,0.9,2.0
1698672674777.0,16,-0.4,0.2,0.1,1.0,9.600000000000001,-0.7000000000000001,6.1000000000000005,0.7,1.8
1698672674794.0,16,-0.30000000000000004,-0.1,0.0,1.0,9.4,-0.9,6.1000000000000005,-0.2,1.2000000000000002
1698672674811.0,16,-0.30000000000000004,0.0,0.1,1.0,9.4,-0.7000000000000001,4.9,-0.4,0.8
1698672674828.0,16,-0.30000000000000004,-0.1,0.2,1.0,9.4,-0.7000000000000001,4.300000000000001,-0.30000000000000004,0.9
1698672674844.0,16,-0.2,-0.1,0.2,1.1,9.3,-0.7000000000000001,3.3000000000000003,-0.4,1.3
1698672674860.0,16,-0.30000000000000004,-0.2,0.1,1.1,9.3,-0.8,2.9,0.1,1.6
1698672674877.0,16,-0.30000000000000004,-0.1,0.1,1.1,9.3,-0.8,3.1,0.1,2.0
1698672674894.0,16,-0.30000000000000004,0.0,0.0,1.1,9.4,-0.9,3.3000000000000003,0.5,1.8
1698672674910.0,16,-0.2,-0.1,0.0,1.2000000000000002,9.3,-0.9,2.9,0.8,2.1
1698672674927.0,16,-0.2,-0.1,0.0,1.2000000000000002,9.3,-0.9,2.1,1.0999999999999999,2.6
1698672674944.0,16,-0.30000000000000004,-0.1,0.0,1.1,9.3,-0.9,1.0,0.9,2.7
1698672674960.0,16,-0.2,0.0,0.1,1.1,9.4,-0.8,0.1,0.8,2.9
1698672674977.0,16,-0.2,0.0,0.1,1.2000000000000002,9.4,-0.8,-0.30000000000000004,1.7,3.0000000000000004
1698672674994.0,16,-0.2,-0.1,0.1,1.2000000000000002,9.3,-0.8,-0.6000000000000001,1.9,3.1
1698672675012.0,16,-0.2,0.0,0.1,1.1,9.4,-0.8,-1.3,2.1,3.0000000000000004
1698672675028.0,16,-0.2,0.0,0.1,1.2000000000000002,9.4,-0.8,-1.6,2.3000000000000003,2.6
1698672675044.0,16,-0.2,0.0,0.1,1.2000000000000002,9.4,-0.7000000000000001,-1.5000000000000002,1.8,1.7
1698672675061.0,16,-0.2,0.0,0.1,1.2000000000000002,9.4,-0.8,-1.6,1.7,1.5000000000000002
1698672675077.0,16,-0.2,0.0,0.1,1.2000000000000002,9.3,-0.8,-1.7,1.4,1.4
1698672675094.0,16,-0.1,-0.1,0.1,1.2000000000000002,9.3,-0.8,-1.6,0.9,1.3
1698672675110.0,16,-0.1,0.0,0.0,1.2000000000000002,9.4,-0.8,-1.3,0.4,1.0
1698672675127.0,16,-0.1,0.0,0.0,1.2000000000000002,9.4,-0.8,-1.0999999999999999,0.30000000000000004,0.6000000000000001
1698672675144.0,16,-0.1,0.0,0.0,1.2000000000000002,9.4,-0.8,-1.0999999999999999,0.4,0.1
1698672675160.0,16,-0.1,-0.1,0.0,1.2000000000000002,9.3,-0.8,-1.3,0.5,-0.1
1698672675177.0,16,-0.1,-0.1,0.0,1.2000000000000002,9.3,-0.8,-1.9,0.7,-0.2
1698672675194.0,16,-0.1,0.0,0.1,1.2000000000000002,9.3,-0.7000000000000001,-2.1,0.7,-0.2
1698672675210.0,16,-0.1,0.0,0.0,1.2000000000000002,9.3,-0.7000000000000001,-2.4000000000000004,1.3,-0.2
1698672675227.0,16,-0.1,-0.1,0.0,1.2000000000000002,9.3,-0.7000000000000001,-2.7,1.7,-0.4
1698672675245.0,16,-0.1,0.0,0.0,1.2000000000000002,9.3,-0.7000000000000001,-2.9,1.8,-0.2
1698672675260.0,16,-0.1,0.0,0.0,1.2000000000000002,9.3,-0.7000000000000001,-3.3000000000000003,2.1,-0.30000000000000004
1698672675277.0,16,-0.1,0.0,0.0,1.2000000000000002,9.4,-0.7000000000000001,-4.1000000000000005,2.6,-0.5
1698672675294.0,16,-0.1,-0.1,0.0,1.2000000000000002,9.3,-0.7000000000000001,-4.300000000000001,2.7,-0.5
1698672675310.0,16,-0.1,0.0,0.0,1.1,9.4,-0.7000000000000001,-4.9,2.5,-0.5
1698672675327.0,16,-0.1,-0.1,0.1,1.1,9.3,-0.6000000000000001,-3.7000000000000006,1.8,-0.1
1698672675345.0,16,-0.1,0.0,0.1,1.2000000000000002,9.3,-0.6000000000000001,-3.3000000000000003,1.6,-0.2
1698672675360.0,16,-0.1,-0.1,0.1,1.2000000000000002,9.3,-0.6000000000000001,-3.3000000000000003,1.4,-0.1
1698672675377.0,16,-0.1,-0.1,0.0,1.2000000000000002,9.3,-0.6000000000000001,-3.7000000000000006,1.2000000000000002,-0.30000000000000004
1698672675394.0,16,-0.1,0.0,0.1,1.2000000000000002,9.3,-0.6000000000000001,-3.1,1.0,-0.2
1698672675410.0,16,-0.1,0.0,0.1,1.2000000000000002,9.3,-0.6000000000000001,-3.2,1.0999999999999999,-0.2
1698672675427.0,16,-0.1,0.0,0.0,1.2000000000000002,9.3,-0.6000000000000001,-3.1,1.3,-0.2
1698672675444.0,16,0.0,0.0,0.1,1.2000000000000002,9.4,-0.6000000000000001,-3.1,0.9,-0.30000000000000004
1698672675460.0,16,0.0,-0.1,0.0,1.2000000000000002,9.3,-0.6000000000000001,-3.5,1.0,-0.1
1698672675477.0,16,-0.1,0.0,0.0,1.1,9.3,-0.6000000000000001,-3.5,1.0999999999999999,-0.30000000000000004
1698672675494.0,16,-0.1,0.0,0.1,1.1,9.4,-0.5,-3.5,0.9,0.0
1698672675511.0,16,0.0,0.0,0.0,1.2000000000000002,9.3,-0.5,-3.6,1.3,-0.4
1698672675527.0,16,0.0,-0.1,0.0,1.2000000000000002,9.3,-0.5,-4.1000000000000005,1.7,-0.7
1698672675543.0,16,0.0,0.0,0.0,1.2000000000000002,9.3,-0.5,-4.3999999999999995,1.9,-0.8
1698672675560.0,16,-0.1,0.0,0.0,1.1,9.4,-0.6000000000000001,-4.1000000000000005,1.4,-0.7
1698672675577.0,16,0.0,-0.1,0.0,1.2000000000000002,9.3,-0.5,-4.1000000000000005,1.6,-1.0
1698672675594.0,16,-0.1,0.0,0.1,1.1,9.4,-0.5,-4.1000000000000005,1.6,-1.2000000000000002
1698672675610.0,16,0.0,0.0,0.1,1.2000000000000002,9.3,-0.4,-3.9,1.2000000000000002,-0.9
1698672675627.0,16,0.0,0.0,0.1,1.2000000000000002,9.4,-0.4,-3.2,0.8,-0.9
1698672675644.0,16,0.0,0.0,0.0,1.1,9.4,-0.4,-3.0000000000000004,0.7,-1.0
1698672675661.0,16,0.0,0.0,0.0,1.2000000000000002,9.3,-0.4,-2.8,0.7,-0.8
1698672675677.0,16,-0.1,0.0,0.0,1.1,9.4,-0.4,-3.0000000000000004,1.0999999999999999,-0.7
1698672675694.0,16,-0.1,0.0,0.0,1.1,9.4,-0.4,-2.8,1.0999999999999999,-0.6000000000000001
1698672675710.0,16,0.0,0.0,0.0,1.2000000000000002,9.3,-0.4,-2.7,1.9,-0.30000000000000004
1698672675727.0,16,0.0,0.0,0.0,1.1,9.3,-0.4,-3.0000000000000004,2.1999999999999997,-0.6000000000000001
1698672675744.0,16,0.0,0.0,0.1,1.1,9.3,-0.30000000000000004,-3.1,2.3000000000000003,-0.7
1698672675760.0,16,0.0,0.0,-0.1,1.2000000000000002,9.4,-0.5,-2.1,1.6,-0.2
1698672675777.0,16,0.0,-0.1,0.0,1.2000000000000002,9.3,-0.4,-1.8,1.5000000000000002,-0.30000000000000004
1698672675794.0,16,-0.1,0.0,0.0,1.1,9.4,-0.4,-3.2,1.0999999999999999,-0.5
1698672675810.0,16,-0.1,0.0,0.1,1.1,9.4,-0.30000000000000004,-4.0,0.9,-0.1
1698672675827.0,16,0.0,0.0,0.1,1.1,9.4,-0.30000000000000004,-5.6,0.30000000000000004,-0.30000000000000004
1698672675843.0,16,0.0,0.0,0.1,1.2000000000000002,9.4,-0.2,-6.2,-0.4,-0.1
1698672675861.0,16,0.0,0.0,0.0,1.2000000000000002,9.4,-0.30000000000000004,-5.6,-1.3,-0.1
1698672675877.0,16,-0.1,-0.1,-0.1,1.1,9.3,-0.4,-4.300000000000001,-2.1,0.1
1698672675894.0,16,0.0,0.0,0.0,1.1,9.3,-0.30000000000000004,-3.7000000000000006,-2.7,0.2
1698672675910.0,16,0.0,0.0,0.0,1.2000000000000002,9.4,-0.30000000000000004,-2.7,-3.3000000000000003,0.1
1698672675928.0,16,0.0,0.0,0.0,1.2000000000000002,9.4,-0.30000000000000004,-2.4000000000000004,-3.0000000000000004,0.1
1698672675944.0,16,0.0,0.0,0.0,1.1,9.3,-0.30000000000000004,-2.3000000000000003,-2.1,0.1
1698672675961.0,16,0.0,-0.1,-0.2,1.2000000000000002,9.3,-0.5,-1.5000000000000002,0.1,0.2
1698672675978.0,16,0.1,-0.1,-0.2,1.2000000000000002,9.3,-0.5,-1.0999999999999999,1.9,0.1
1698672675993.0,16,0.0,0.0,-0.1,1.2000000000000002,9.4,-0.30000000000000004,-2.1999999999999997,3.1,-0.7
1698672676012.0,16,0.0,-0.1,0.1,1.2000000000000002,9.200000000000001,-0.2,-2.9,3.4,-1.0
1698672676028.0,16,0.0,-1.2000000000000002,0.1,1.1,8.1,-0.2,-5.0,4.2,-1.6
1698672676044.0,16,-0.1,-1.1,0.1,1.0,8.9,-0.1,-7.699999999999999,6.2,-1.6
1698672676061.0,16,-0.1,0.1,0.1,1.1,9.5,-0.2,-9.1,5.9,-2.5
1698672676077.0,16,0.0,0.9,0.1,1.1,10.200000000000001,-0.1,-8.4,4.2,-4.1000000000000005
1698672676094.0,16,0.0,0.9,0.30000000000000004,1.1,10.200000000000001,0.2,-4.9,3.3000000000000003,-5.1
1698672676110.0,16,0.0,0.6000000000000001,0.4,1.1,10.0,0.2,-3.1,2.6,-5.1
1698672676127.0,16,-0.1,0.0,0.4,1.0,9.4,0.2,-0.6000000000000001,0.9,-2.1
1698672676143.0,16,-0.1,0.0,0.2,1.0,9.4,0.1,1.4,-1.3,-0.7
1698672676160.0,16,-0.1,0.0,0.1,1.1,9.4,-0.1,1.8,-2.1999999999999997,-0.9
1698672676177.0,16,0.0,0.0,0.0,1.1,9.4,-0.1,2.9,-3.0000000000000004,-0.7
1698672676194.0,16,0.0,0.0,0.0,1.1,9.4,-0.1,3.6,-2.7,-0.7
1698672676210.0,16,0.1,0.0,-0.1,1.1,9.3,-0.30000000000000004,3.6,-2.4000000000000004,-1.0
1698672676227.0,16,0.0,0.0,-0.2,1.1,9.3,-0.4,2.8,-1.9,-1.3
1698672676244.0,16,0.0,0.0,-0.2,1.1,9.4,-0.4,2.6,-1.3,-1.5000000000000002
1698672676261.0,16,0.0,0.0,-0.2,1.0,9.4,-0.4,2.3000000000000003,-0.8,-1.8
1698672676277.0,16,0.0,0.1,-0.1,1.0,9.4,-0.30000000000000004,1.2000000000000002,0.0,-2.5
1698672676294.0,16,0.0,0.0,0.0,1.1,9.3,-0.2,0.6000000000000001,1.0,-3.1
1698672676310.0,16,0.1,0.0,0.1,1.1,9.3,-0.2,0.6000000000000001,1.4,-3.5
1698672676328.0,16,0.1,0.0,0.1,1.1,9.3,-0.1,0.8,2.5,-4.5
1698672676343.0,16,0.0,0.0,0.1,1.0,9.4,-0.1,1.0999999999999999,2.6,-4.9
1698672676360.0,16,0.0,0.0,0.1,1.0,9.4,-0.1,1.0999999999999999,2.8,-4.5
1698672676377.0,16,-0.1,0.1,0.1,0.9,9.4,-0.1,0.6000000000000001,2.4000000000000004,-3.4
1698672676393.0,16,-0.2,0.1,0.1,0.8,9.5,-0.2,0.30000000000000004,1.8,-2.0
1698672676410.0,16,-0.1,0.1,0.0,0.8,9.5,-0.2,0.4,1.4,-1.4
1698672676427.0,16,-0.1,0.0,0.0,0.9,9.4,-0.2,0.9,0.1,0.1
1698672676444.0,16,0.0,0.0,0.0,0.9,9.4,-0.2,0.9,0.0,0.2
1698672676460.0,16,0.0,0.0,0.0,0.9,9.4,-0.30000000000000004,1.2000000000000002,0.0,0.4
1698672676477.0,16,0.0,0.0,-0.1,0.9,9.4,-0.30000000000000004,1.0999999999999999,0.0,0.6000000000000001
1698672676493.0,16,0.0,0.0,0.0,1.0,9.4,-0.2,1.4,-0.2,0.6000000000000001
1698672676510.0,16,0.0,0.0,0.0,1.0,9.3,-0.2,1.5000000000000002,0.0,0.9
1698672676527.0,16,0.0,0.0,0.0,1.0,9.4,-0.2,1.5000000000000002,0.1,1.3
1698672676544.0,16,0.0,-0.1,0.0,1.0,9.3,-0.2,1.2000000000000002,-0.1,1.0999999999999999
1698672676560.0,16,0.0,0.0,0.0,1.0,9.4,-0.2,1.2000000000000002,0.2,2.0
1698672676577.0,16,0.0,0.0,0.0,1.0,9.4,-0.2,0.9,0.30000000000000004,1.8
1698672676594.0,16,0.0,0.0,0.0,1.0,9.4,-0.2,0.7,0.5,2.0
1698672676611.0,16,0.0,0.0,0.0,1.0,9.4,-0.2,0.4,0.4,1.9
1698672676627.0,16,0.0,0.0,0.0,1.0,9.4,-0.2,0.4,0.30000000000000004,1.8
1698672676643.0,16,0.0,0.0,0.0,1.0,9.4,-0.30000000000000004,0.6000000000000001,0.1,1.6
1698672676660.0,16,0.0,0.0,0.0,1.0,9.4,-0.30000000000000004,0.6000000000000001,0.0,1.3
1698672676677.0,16,0.0,0.0,0.0,1.1,9.4,-0.30000000000000004,0.4,0.30000000000000004,1.2000000000000002
1698672676694.0,16,0.1,0.0,0.0,1.1,9.4,-0.30000000000000004,0.1,0.5,0.6000000000000001
1698672676710.0,16,0.0,0.0,0.0,1.0,9.4,-0.30000000000000004,0.0,0.6000000000000001,0.2
1698672676727.0,16,0.0,0.0,0.0,1.0,9.4,-0.30000000000000004,0.1,0.6000000000000001,0.1
1698672676744.0,16,0.0,0.0,0.0,1.0,9.4,-0.2,0.30000000000000004,0.6000000000000001,0.1
1698672676760.0,16,0.0,0.0,0.0,1.0,9.4,-0.2,0.30000000000000004,0.6000000000000001,0.1
1698672676777.0,16,0.0,0.0,0.0,1.0,9.4,-0.2,0.0,0.7,0.1
1698672676794.0,16,0.0,0.0,0.0,1.0,9.4,-0.2,-0.30000000000000004,0.9,0.0
1698672676810.0,16,0.0,0.0,0.0,1.0,9.4,-0.2,-0.4,0.9,0.2
1698672676827.0,16,0.0,0.0,0.0,1.0,9.4,-0.2,-0.30000000000000004,0.9,0.2
1698672676844.0,16,0.0,0.0,0.0,1.0,9.4,-0.30000000000000004,-0.7,1.2000000000000002,-0.1
1698672676860.0,16,0.0,0.0,0.0,1.0,9.4,-0.30000000000000004,-1.2000000000000002,1.3,0.1
1698672676877.0,16,0.0,0.0,0.0,1.0,9.4,-0.30000000000000004,-1.3,1.3,0.1
1698672676894.0,16,0.0,0.0,-0.1,1.0,9.4,-0.30000000000000004,-1.7,2.0,0.0
1698672676912.0,16,0.0,0.0,-0.1,1.0,9.4,-0.30000000000000004,-2.6,2.5,-0.1
1698672676927.0,16,0.0,0.0,-0.1,1.0,9.4,-0.30000000000000004,-2.7,2.8,-0.1
1698672676944.0,16,0.0,0.0,0.0,1.0,9.4,-0.30000000000000004,-3.0000000000000004,3.2,-0.1
1698672676960.0,16,0.0,0.0,0.0,1.0,9.4,-0.2,-3.2,3.2,0.1
1698672676977.0,16,0.0,0.0,0.0,1.0,9.4,-0.2,-2.8,3.2,-0.1
1698672676994.0,16,0.0,0.0,0.1,1.0,9.4,-0.1,-2.8,2.9,0.2
1698672677010.0,16,0.0,0.0,0.1,1.0,9.4,-0.1,-2.1999999999999997,2.3000000000000003,0.5
1698672677027.0,16,0.0,0.0,0.1,1.0,9.4,-0.1,-1.0999999999999999,1.7,0.6000000000000001
1698672677044.0,16,0.0,0.0,0.1,1.0,9.4,-0.1,-0.5,0.30000000000000004,0.4
1698672677060.0,16,0.0,0.0,0.1,1.0,9.4,-0.1,0.0,-0.2,0.30000000000000004
1698672677077.0,16,0.0,-0.1,0.1,1.0,9.3,-0.1,0.1,-0.8,1.0
1698672677094.0,16,0.0,0.0,0.0,1.1,9.4,-0.1,1.0999999999999999,-1.0,1.7
1698672677110.0,16,0.1,0.0,0.0,1.1,9.4,-0.1,1.4,-1.0999999999999999,1.0
1698672677127.0,16,0.1,0.0,0.0,1.1,9.4,-0.1,1.7,-0.8,-0.4
1698672677144.0,16,0.1,0.0,0.0,1.1,9.3,-0.2,2.0,-1.0999999999999999,-0.4
1698672677160.0,16,0.0,0.0,0.0,1.0,9.3,-0.2,1.8,-1.7,-0.5
1698672677177.0,16,0.1,0.1,0.0,1.1,9.4,-0.2,1.6,-2.7,-0.8
1698672677194.0,16,0.0,0.1,0.0,1.1,9.4,-0.2,1.5000000000000002,-2.9,-1.0
1698672677210.0,16,0.0,0.0,0.1,1.0,9.4,-0.1,1.8,-2.1999999999999997,-0.2
1698672677227.0,16,0.0,0.0,-0.1,1.0,9.4,-0.30000000000000004,1.4,-2.0,-0.1
1698672677244.0,16,-0.1,0.0,0.0,1.0,9.4,-0.2,-0.5,-1.0,0.1
1698672677260.0,16,0.0,0.0,0.0,1.1,9.4,-0.1,-2.3000000000000003,0.7,0.0
1698672677277.0,16,0.0,0.1,0.0,1.1,9.4,-0.2,-2.5,1.0,-0.1
1698672677294.0,16,0.0,0.1,-0.1,1.1,9.4,-0.30000000000000004,-2.5,0.9,-0.2
1698672677310.0,16,0.0,0.0,-0.1,1.0,9.4,-0.30000000000000004,-2.7,0.6000000000000001,-0.2
1698672677327.0,16,0.0,0.0,-0.1,1.0,9.3,-0.30000000000000004,-3.3000000000000003,0.7,-0.2
1698672677344.0,16,0.0,0.0,-0.1,1.0,9.4,-0.30000000000000004,-3.9,1.0999999999999999,-0.2
1698672677360.0,16,0.1,0.0,0.0,1.1,9.4,-0.1,-5.300000000000001,2.3000000000000003,-0.4
1698672677377.0,16,0.0,0.0,0.1,1.1,9.4,0.0,-5.7,2.9,-0.5
1698672677394.0,16,0.0,0.0,0.1,1.0,9.4,0.0,-5.6,2.5,-0.8
1698672677410.0,16,0.0,0.1,-0.1,1.0,9.4,-0.2,-5.500000000000001,2.8,-1.0999999999999999
1698672677427.0,16,0.2,0.0,-0.1,1.2000000000000002,9.4,-0.2,-5.500000000000001,3.4,-1.0
1698672677444.0,16,0.0,0.0,-0.1,1.1,9.4,-0.2,-5.9,2.6,-1.7
1698672677460.0,16,0.1,0.1,-0.1,1.1,9.5,-0.2,-7.500000000000001,3.6,-2.7
1698672677477.0,16,0.2,0.30000000000000004,0.1,1.3,9.700000000000001,0.0,-10.3,5.0,-4.1000000000000005
1698672677494.0,16,0.2,0.30000000000000004,0.1,1.3,9.700000000000001,0.1,-11.700000000000001,6.5,-4.5
1698672677510.0,16,0.1,0.4,0.0,1.1,9.8,0.0,-13.3,6.6000000000000005,0.4
1698672677527.0,16,0.1,0.5,0.0,1.1,10.0,0.0,-14.200000000000001,7.500000000000001,3.4
1698672677544.0,16,0.1,0.30000000000000004,0.0,1.1,9.700000000000001,0.1,-16.3,10.8,5.2
1698672677560.0,16,0.1,0.1,0.0,1.2000000000000002,9.5,0.2,-19.1,13.200000000000001,7.2
1698672677577.0,16,0.0,0.2,0.0,1.1,9.600000000000001,0.2,-22.8,16.900000000000002,10.3
1698672677594.0,16,0.0,0.30000000000000004,-0.1,1.1,9.700000000000001,0.2,-24.5,17.0,12.200000000000001
1698672677610.0,16,0.0,0.4,-0.1,1.1,9.8,0.2,-26.3,18.6,16.2
1698672677627.0,16,-0.1,0.30000000000000004,-0.2,1.1,9.8,0.2,-29.300000000000004,19.6,18.6
1698672677644.0,16,-0.4,0.1,-0.2,0.9,9.5,0.30000000000000004,-30.799999999999997,19.200000000000003,20.3
1698672677660.0,16,-0.6000000000000001,0.0,-0.2,0.7000000000000001,9.4,0.4,-36.1,18.3,22.1
1698672677677.0,16,-0.6000000000000001,0.2,-0.1,0.7000000000000001,9.600000000000001,0.7000000000000001,-41.2,15.9,21.8
1698672677694.0,16,-0.6000000000000001,0.30000000000000004,0.0,0.8,9.700000000000001,0.9,-42.400000000000006,14.500000000000002,20.900000000000002
1698672677711.0,16,-0.5,0.1,0.0,0.9,9.5,1.0,-41.5,14.100000000000001,17.599999999999998
1698672677727.0,16,-0.1,-0.30000000000000004,0.0,1.4000000000000001,9.1,1.1,-39.8,13.8,14.3
1698672677744.0,16,0.0,-0.30000000000000004,0.0,1.5,9.0,1.2000000000000002,-38.6,14.500000000000002,13.6
1698672677760.0,16,0.0,-0.2,-0.2,1.5,9.1,1.2000000000000002,-37.0,14.600000000000001,16.1
1698672677777.0,16,-0.1,-0.1,-0.30000000000000004,1.5,9.200000000000001,1.1,-36.800000000000004,10.5,19.500000000000004
1698672677794.0,16,0.0,0.0,-0.2,1.6,9.3,1.3,-36.1,8.3,20.0
1698672677810.0,16,0.30000000000000004,0.2,-0.1,2.0,9.4,1.5,-30.599999999999998,8.700000000000001,17.200000000000003
1698672677827.0,16,0.5,0.0,-0.1,2.2,9.200000000000001,1.6,-23.1,14.100000000000001,13.100000000000001
1698672677844.0,16,0.5,-0.2,-0.1,2.3000000000000003,9.0,1.7000000000000002,-19.700000000000003,15.8,12.4
1698672677861.0,16,0.7000000000000001,-0.2,0.0,2.5,8.9,1.8,-13.700000000000001,17.5,13.100000000000001
1698672677877.0,16,0.7000000000000001,-0.30000000000000004,0.2,2.5,8.8,2.0,-9.200000000000001,23.1,16.1
1698672677894.0,16,0.7000000000000001,-0.2,0.2,2.5,8.9,2.2,-7.400000000000001,26.400000000000002,17.599999999999998
1698672677910.0,16,0.5,-0.1,0.30000000000000004,2.4000000000000004,9.0,2.2,-5.7,32.4,19.0
1698672677927.0,16,0.4,0.0,0.30000000000000004,2.3000000000000003,9.1,2.2,-7.8,37.300000000000004,19.200000000000003
1698672677944.0,16,0.30000000000000004,-0.1,0.2,2.2,9.0,2.2,-10.1,38.6,18.900000000000002
1698672677960.0,16,0.1,-0.1,0.2,2.0,9.0,2.3000000000000003,-16.8,39.699999999999996,18.400000000000002
1698672677977.0,16,-0.1,-0.1,0.2,1.9000000000000001,8.9,2.3000000000000003,-22.4,39.6,18.3
1698672677994.0,16,-0.1,-0.2,0.1,1.9000000000000001,8.8,2.3000000000000003,-26.400000000000002,41.0,17.9
1698672678012.0,16,-0.2,-0.1,0.1,1.9000000000000001,8.9,2.4000000000000004,-27.1,41.4,17.8
1698672678027.0,16,-0.2,0.0,0.0,1.9000000000000001,8.9,2.5,-25.2,43.0,16.3
1698672678044.0,16,-0.30000000000000004,0.0,0.1,1.7000000000000002,8.9,2.5,-23.3,43.800000000000004,16.400000000000002
1698672678060.0,16,-0.4,-0.1,0.0,1.7000000000000002,8.8,2.6,-18.2,43.900000000000006,17.400000000000002
1698672678077.0,16,-0.5,0.0,0.0,1.6,8.9,2.7,-14.0,41.2,18.7
1698672678093.0,16,-0.7000000000000001,-0.1,0.0,1.5,8.9,2.7,-12.700000000000001,38.400000000000006,18.400000000000002
1698672678111.0,16,-0.8,-0.1,0.1,1.3,8.700000000000001,2.8000000000000003,-11.8,30.799999999999997,16.8
1698672678127.0,16,-0.9,-0.1,0.30000000000000004,1.2000000000000002,8.700000000000001,3.1,-13.100000000000001,24.6,13.9
1698672678145.0,16,-0.6000000000000001,-0.1,0.30000000000000004,1.3,8.700000000000001,3.2,-14.4,22.8,11.000000000000002
1698672678161.0,16,-0.4,-0.2,0.4,1.7000000000000002,8.6,3.3000000000000003,-18.5,17.8,5.1
1698672678177.0,16,-0.1,-0.5,0.5,2.0,8.3,3.5,-22.000000000000004,15.7,4.6000000000000005
1698672678194.0,16,0.0,-0.4,0.30000000000000004,2.1,8.3,3.4000000000000004,-23.400000000000002,18.7,7.6
1698672678210.0,16,0.1,-0.30000000000000004,0.2,2.3000000000000003,8.4,3.4000000000000004,-23.6,18.900000000000002,8.9
1698672678227.0,16,0.2,-0.2,0.30000000000000004,2.3000000000000003,8.4,3.5,-22.000000000000004,18.6,9.5
1698672678244.0,16,0.30000000000000004,-0.30000000000000004,0.4,2.4000000000000004,8.3,3.7,-17.200000000000003,21.6,10.1
1698672678261.0,16,0.30000000000000004,-0.30000000000000004,0.4,2.4000000000000004,8.3,3.7,-14.600000000000001,22.5,9.9
1698672678277.0,16,0.2,-0.30000000000000004,0.30000000000000004,2.4000000000000004,8.3,3.7,-10.1,20.8,9.5
1698672678293.0,16,-0.1,-0.5,0.30000000000000004,2.1,8.1,3.7,-7.699999999999999,18.900000000000002,10.5
1698672678310.0,16,-0.1,-0.6000000000000001,0.30000000000000004,2.0,8.0,3.8000000000000003,-7.2,18.5,11.700000000000001
1698672678327.0,16,-0.2,-0.4,0.30000000000000004,2.0,8.1,3.8000000000000003,-6.1000000000000005,15.8,10.1
1698672678344.0,16,0.0,-0.7000000000000001,0.4,2.2,7.9,3.9000000000000004,-4.5,12.3,8.3
1698672678360.0,16,0.1,-0.8,0.5,2.3000000000000003,7.800000000000001,4.0,-3.0000000000000004,12.200000000000001,8.200000000000001
1698672678377.0,16,0.1,-0.8,0.5,2.3000000000000003,7.7,4.0,1.7,14.4,8.3
1698672678394.0,16,0.0,-1.0,0.4,2.2,7.5,3.9000000000000004,6.1000000000000005,12.200000000000001,9.4
1698672678410.0,16,0.0,-1.0,0.4,2.2,7.5,4.0,7.6,9.8,10.0
1698672678428.0,16,-0.2,-0.8,0.5,2.1,7.7,3.9000000000000004,9.8,6.6000000000000005,10.8
1698672678444.0,16,-0.2,-0.6000000000000001,0.6000000000000001,2.1,7.9,4.1000000000000005,11.9,3.7000000000000006,9.4
1698672678460.0,16,-0.2,-0.5,0.8,2.1,8.1,4.3,12.8,2.5,7.8
1698672678477.0,16,-0.2,-0.4,0.9,2.1,8.1,4.3,13.3,3.3000000000000003,4.6000000000000005
1698672678494.0,16,-0.1,-0.4,0.8,2.2,8.1,4.2,9.1,4.0,2.6
1698672678510.0,16,-0.30000000000000004,-0.6000000000000001,0.8,2.0,8.0,4.2,4.0,2.3000000000000003,0.9
1698672678527.0,16,-0.4,-0.6000000000000001,0.7000000000000001,1.9000000000000001,8.0,4.1000000000000005,2.4000000000000004,1.4,-0.8
1698672678543.0,16,-0.4,-0.5,0.5,1.9000000000000001,8.0,3.9000000000000004,1.5000000000000002,-2.8,-4.6000000000000005
1698672678560.0,16,-0.2,-0.4,0.30000000000000004,2.0,8.1,3.7,2.1999999999999997,-4.1000000000000005,-5.8
1698672678576.0,16,-0.1,-0.6000000000000001,0.30000000000000004,2.1,8.0,3.7,3.9,-7.6,-6.7
1698672678593.0,16,0.0,-0.5,0.30000000000000004,2.2,8.0,3.7,7.300000000000001,-10.2,-7.699999999999999
1698672678610.0,16,0.1,-0.4,0.4,2.3000000000000003,8.1,3.7,11.4,-8.600000000000001,-9.600000000000001
1698672678627.0,16,0.2,-0.4,0.30000000000000004,2.4000000000000004,8.200000000000001,3.6,12.9,-7.400000000000001,-9.9
1698672678643.0,16,0.2,-0.4,0.30000000000000004,2.4000000000000004,8.200000000000001,3.5,14.3,-7.2,-10.700000000000001
1698672678660.0,16,0.2,-0.30000000000000004,0.2,2.4000000000000004,8.3,3.5,14.200000000000001,-8.9,-10.9
1698672678677.0,16,0.2,-0.2,0.2,2.4000000000000004,8.4,3.4000000000000004,14.100000000000001,-9.5,-10.9
1698672678694.0,16,0.2,-0.1,0.2,2.3000000000000003,8.6,3.3000000000000003,13.6,-11.1,-11.2
1698672678710.0,16,0.1,-0.1,0.2,2.2,8.6,3.3000000000000003,14.0,-13.5,-13.200000000000001
1698672678727.0,16,0.2,-0.1,0.30000000000000004,2.2,8.5,3.3000000000000003,14.4,-13.700000000000001,-14.500000000000002
1698672678743.0,16,0.1,-0.1,0.2,2.2,8.6,3.2,15.000000000000002,-11.8,-16.5
1698672678760.0,16,0.2,-0.1,0.0,2.2,8.6,3.0,13.8,-11.5,-17.1
1698672678777.0,16,0.2,-0.2,0.0,2.2,8.5,3.0,12.700000000000001,-13.4,-17.0
1698672678793.0,16,-0.1,-0.2,-0.1,1.9000000000000001,8.5,2.8000000000000003,11.8,-13.8,-16.400000000000002
1698672678810.0,16,-0.2,0.0,-0.1,1.8,8.8,2.7,10.9,-17.200000000000003,-17.0
1698672678827.0,16,-0.2,0.1,-0.1,1.7000000000000002,8.9,2.7,11.1,-19.500000000000004,-18.400000000000002
1698672678843.0,16,-0.2,0.2,0.0,1.6,9.0,2.8000000000000003,12.8,-21.700000000000003,-21.400000000000002
1698672678860.0,16,-0.2,0.1,0.0,1.6,9.0,2.7,14.4,-23.1,-23.700000000000003
1698672678877.0,16,-0.2,0.1,0.1,1.6,9.0,2.8000000000000003,14.700000000000001,-24.200000000000003,-25.2
1698672678894.0,16,-0.1,0.0,0.1,1.6,8.9,2.7,14.0,-25.5,-27.2
1698672678910.0,16,0.0,0.0,0.1,1.7000000000000002,8.9,2.7,13.0,-26.200000000000003,-28.0
1698672678927.0,16,0.2,0.0,0.1,1.8,8.9,2.6,10.3,-26.0,-30.100000000000005
1698672678944.0,16,0.30000000000000004,0.1,0.2,1.8,9.0,2.7,8.5,-25.900000000000002,-33.1
1698672678960.0,16,0.30000000000000004,0.1,0.0,1.7000000000000002,9.1,2.5,7.2,-22.6,-34.400000000000006
1698672678977.0,16,0.30000000000000004,0.0,-0.1,1.7000000000000002,9.0,2.4000000000000004,6.2,-23.1,-34.0
1698672678993.0,16,0.2,0.0,-0.1,1.6,9.1,2.4000000000000004,4.6000000000000005,-22.900000000000002,-32.5
