ts,interval,accx,accy,accz,accGx,accGy,accGz,alpha,beta,gamma
1698672664001.0,0.01666666753590107,0.05753792366795241,-0.13307809862494469,-1.131799213606119,0.5538088080475106,-5.8641486382633445,-9.074023707470298,5.965943989989881,-2.2047129202070077,7.9550163121553625
1698672664175.0,0.01666666753590107,-0.07336787241920828,-0.11847411147207021,-0.05243219802677631,1.0726022706847638,-4.434660025024414,-8.783278427886962,-0.49025971948355535,-6.218798873724222,7.771594143315609
1698672664191.0,0.01666666753590107,-0.09056538319662213,-0.01981938371360302,-0.0827273830473423,1.0293570762634277,-4.338742028753459,-8.815600150299073,1.0799990097942307,-9.030547417737052,6.3141841730307435
1698672664208.0,0.01666666753590107,-0.17847484505698083,-0.06482172400057315,-0.003265723797678947,0.9100958330016583,-4.388421713201701,-8.737788011822104,1.2906652024075786,-12.715622305161107,5.908692063706365
1698672664225.0,0.01666666753590107,-0.3613409108102321,-0.24127426944971084,0.28702012158036233,0.6777087074279785,-4.565892203521728,-8.45302823638916,-2.554802590409062,-12.632798577511887,5.97344140326444
1698672664241.0,0.01666666753590107,-0.4126360676310956,-0.2736699338808656,0.42616848002970215,0.5951087501525879,-4.58998385772705,-8.321647004809975,-5.433047935190432,-9.97304095243888,2.5343713601674387
1698672664258.0,0.01666666753590107,-0.503304107484594,-0.08790040177106857,0.5771925697118043,0.5571007987976074,-4.488678907720744,-8.122179494476319,-5.17146620413093,-3.9157598308861807,-4.110816373203405
1698672664275.0,0.01666666753590107,-0.4438002175059169,-0.1944336078196764,0.684628862079978,0.608276786218211,-4.5459901099607345,-8.040476778301596,-0.5512828706842706,3.5338410522650436,-9.594169505404627
1698672664291.0,0.01666666753590107,-0.27158172942996023,-0.6217097568303346,0.8451613693416118,0.7646480821471661,-4.9678185149595135,-7.88455497970581,2.519289021819581,7.344052475803137,-8.353995836106133
1698672664308.0,0.01666666753590107,-0.15808884043656288,-1.177085339270532,0.7896843967914581,0.8345287700377404,-5.571755883733928,-7.920767279815673,-5.231156934834964,3.926311619380204,-2.4919449998076697
1698672664325.0,0.01666666753590107,-0.016752981880307195,-1.3900333856850862,0.45940497919917106,0.9285012582641095,-5.782445922088622,-8.257451888275146,-20.788812842788737,-8.540010915509553,3.390429704696402
1698672664342.0,0.01666666753590107,-0.010892200088128447,-1.3047297224089502,0.4127811751902103,0.8851063531737774,-5.657498230688273,-8.329128300476073,-25.93282638221127,-20.04474057234401,1.9932534651545863
1698672664358.0,0.01666666753590107,-0.004604644251242279,-0.954157750633359,0.6391232484459877,0.8303389901977032,-5.267542635290324,-8.128314636230469,-23.221142243973244,-25.02202065639007,-2.842501043863989
1698672664375.0,0.01666666753590107,-0.17711729296818374,-1.0037062099173664,1.249677405011654,0.5984007043700665,-5.2591629294797775,-7.551461673736572,-13.159455681391352,-18.327181930064878,-8.925112348840504
1698672664391.0,0.01666666753590107,-0.18503391131162641,-1.2208622294157743,1.49739485925138,0.5645826789855957,-5.450699062292277,-7.318326287078857,-8.393325772894359,-13.551745035050095,-9.473248690112367
1698672664408.0,0.01666666753590107,-0.21956980264186857,-1.4881357402577995,1.7276923921346663,0.5132569078307598,-5.694309373474121,-7.100753211212158,-12.073097018427898,-9.447268358056931,-7.5168776061456155
1698672664425.0,0.01666666753590107,-0.2714918591894209,-1.6613310374766588,1.5806868904441593,0.4459199861388653,-5.810128878784179,-7.276128482818603,-23.379640198757976,-8.008288372586877,-7.339311470745502
1698672664441.0,0.01666666753590107,-0.36859453520029783,-1.7370333441928028,1.5287363384544848,0.34042540242299435,-5.828384081920981,-7.355436412811279,-23.221015885473598,-7.075304595643821,-9.382514749630626
1698672664458.0,0.01666666753590107,-0.45027854667454953,-1.5067171066090463,1.5712135441780088,0.25917232971191406,-5.54167901763916,-7.338677001190185,-10.566716726228158,-3.4159276546417057,-16.296093699220062
1698672664475.0,0.01666666753590107,-0.3755094291552901,-1.2305170697286725,1.6723662262320518,0.3506008325438946,-5.244947649383545,-7.245452774047851,-5.274449662002267,0.3156090876832583,-22.243419447306135
1698672664491.0,0.01666666753590107,-0.35090142292566595,-1.1852964105159043,1.60535955940783,0.4086602228026837,-5.180453549902141,-7.318326287078857,-7.415461249801973,6.031872817840252,-29.202067400133902
1698672664508.0,0.01666666753590107,-0.1425477185640484,-1.1964891279205678,1.4237860176831483,0.6889314546447247,-5.159953198187053,-7.507617855834961,-5.080469728252965,8.677303694242333,-35.57063140490217
1698672664524.0,0.01666666753590107,-0.06795008515417575,-1.2673486707806587,1.6376356891125439,0.818367981896922,-5.21920968927592,-7.293636082458495,2.177304011397981,7.007459472844439,-35.41545975224324
1698672664540.0,0.01666666753590107,-0.1269193567994982,-1.255156420944631,1.8967729475110768,0.8105868265014141,-5.209483245031535,-7.0281789733886715,6.031421598468208,6.719695492262162,-33.66660006054523
1698672664558.0,0.01666666753590107,-0.4031783573254943,-1.1777820893630384,2.056948311898112,0.6093241763792931,-5.134065892736613,-6.858938843536377,1.2528160292870703,12.746503297946028,-35.422501677277516
1698672664574.0,0.01666666753590107,-0.5672570858266204,-0.944892201898992,1.793736351406574,0.5253775537353008,-4.885218557684123,-7.119757186889648,-6.239233945947254,24.154660056332027,-37.767104128762384
1698672664591.0,0.01666666753590107,-0.6881044292360544,-1.128034015853703,1.486072085726261,0.5119101693969219,-5.0376995681762695,-7.427112825012206,-9.73541098725132,34.31768101298752,-35.63005746577586
1698672664607.0,0.01666666753590107,-0.9272735431000589,-1.416943896703422,0.1445844120234251,0.3884590732298791,-5.297769431249797,-8.764872418102621,-3.8004777636405898,33.67721417451543,-31.76184471613626
1698672664625.0,0.01666666753590107,-0.7024241926200687,-0.30458354306071994,-1.50735394320786,0.7375637489318847,-4.195688479559124,-10.393079769134522,23.583362543584652,15.251706548706338,-36.32211272304907
1698672664641.0,0.01666666753590107,-0.5207094888590276,0.31070319498479365,-1.8428280068337917,0.9789292037963867,-3.6486134002134203,-10.688464398956299,48.14772466709073,2.7172063461819826,-43.10903605976437
1698672664658.0,0.01666666753590107,-0.42685850812047715,0.755120448410511,-1.4672586641848087,1.1391910774230956,-3.3598128249570727,-10.229975365558266,65.16460139923306,1.0342844469576296,-43.18154876308781
1698672664675.0,0.01666666753590107,-0.5878714923754335,0.5103744111970067,-0.7217103462398052,1.0287583797179163,-3.7336075591489672,-9.413402377319336,60.03594212506472,6.33671355200803,-34.529266613096176
1698672664691.0,0.01666666753590107,-0.7594055783838033,0.3799301682069897,-0.7333546068042516,0.9153330760680138,-3.9728783798217773,-9.359981752777099,46.66680305124856,17.01261640164754,-23.415423559819672
1698672664708.0,0.01666666753590107,-0.5869672370120883,0.5238964483320713,-1.4688520708560944,1.1761514194212854,-3.930231662750244,-10.025869089508056,27.736634945782033,20.19638101720205,-11.866432569616238
1698672664724.0,0.01666666753590107,-0.6160618140712381,0.67859162774235,-3.222006821027398,1.1938088027954101,-3.8177041847229,-11.74715103007853,14.15893946075412,12.284392335496829,-4.320773400081835
1698672664741.0,0.01666666753590107,-0.46157077893093224,1.0031260719418524,-4.0372675576239825,1.361103643798828,-3.5166333259582516,-12.547262712860107,9.224591384509822,-2.6718617874993256,1.239036336079981
1698672664758.0,0.01666666753590107,-0.015304244376718998,1.9352201670661568,-5.215133525878191,1.762730972290039,-2.6247932075500486,-13.71308928375244,18.111587008913425,-22.610825568044877,2.876573655982009
1698672664775.0,0.01666666753590107,0.4267065324291587,2.402929448752105,-5.166068758457898,2.14999294468984,-2.2049097991392017,-13.649493302154541,22.71053949973789,-20.0034025599398,4.961794337650348
1698672664791.0,0.01666666753590107,0.36662893421575427,2.1296049673080444,-4.658573994350433,2.0537759654723104,-2.530521517181396,-13.120674594989419,20.306710770412558,-3.426207943116221,9.915386471881156
1698672664808.0,0.01666666753590107,0.24408348165154456,1.6866542793035506,-3.806358030322194,1.9358616798400878,-3.0181901755735274,-12.242750189208984,2.290186974697605,19.186279708774496,18.00404397288428
1698672664825.0,0.01666666753590107,0.3743326404608786,1.1322463728517294,-4.295832569092512,2.080411458941549,-3.566911560821533,-12.732514066314696,-16.433703227975602,16.648454620764557,28.817708749875187
1698672664842.0,0.01666666753590107,0.519338931158185,0.9702727268710732,-4.7970478145390745,2.198774949645996,-3.6941035240173337,-13.258340605926513,-27.7969335633222,-3.610287731107,42.26205845173694
1698672664859.0,0.01666666753590107,0.7159658112384378,1.2164362296670674,-5.287643466293812,2.253093399810791,-3.3861490432187913,-13.80960553817749,-30.525638532971897,-39.84236490051696,49.84959948748822
1698672664874.0,0.01666666753590107,0.5190719507850706,1.8446821102678774,-4.614648343384266,1.8915688029967248,-2.709488091278076,-13.190554771423338,-29.229405232286876,-54.47758540492712,43.61040268069458
1698672664891.0,0.01666666753590107,0.30715112852640447,1.8891773778155445,-3.8291754268079994,1.5138835641723125,-2.6123732864379883,-12.457629788208006,-29.721561343121316,-49.01588610682895,32.31388792561337
1698672664908.0,0.01666666753590107,-0.22758871231600641,1.2781021199852227,-2.143007469716668,0.8493428928099572,-3.136553520147502,-10.833313599395751,-33.41397526880855,-10.523405642927461,14.541585441078452
1698672664924.0,0.01666666753590107,-0.1482894040212035,0.500543337534368,-1.5789970376610756,0.9241618408203125,-3.8419454765319823,-10.306140321350098,-31.841508627520703,14.806105007254706,6.7547578414795995
1698672664941.0,0.01666666753590107,0.061300783332809805,0.15744038646519184,-1.6782915246278047,1.1742062036376446,-4.117278667449951,-10.433781197357177,-29.363171072086992,24.414427518393246,7.018215740126739
1698672664958.0,0.01666666753590107,0.42799174993410705,-0.051477089259028434,-2.207926224350929,1.5893009164672345,-4.237288025665283,-11.00000988998413,-32.73928235240552,13.018192001429856,10.681665394864888
1698672664975.0,0.01666666753590107,0.5737663946554065,0.14301877014189956,-2.51939981918633,1.7419312723021954,-3.9592610656186937,-11.349862607574462,-43.481776558244896,3.8997840184175208,7.682459320873296
1698672664992.0,0.01666666753590107,0.5262971527982503,0.06938508639335632,-2.4671575907737013,1.7010802064757793,-3.915567177581787,-11.350311520385741,-59.36007441612445,8.108584577906637,2.481699289165827
1698672665008.0,0.01666666753590107,0.13075900802761314,-0.4698708436340093,-2.574983174720406,1.3593078464232384,-4.2506057723999024,-11.539752726745604,-66.3983521293908,26.55763501201111,-9.85550961852224
1698672665025.0,0.01666666753590107,0.7728156795769929,-0.4905243400841951,-3.0120769533902405,2.100911810656637,-4.126705836486816,-12.022333998870849,-49.28465746576354,45.15927101840003,-19.548079951751948
1698672665041.0,0.01666666753590107,1.186619183552265,-0.38713147788792845,-3.1646231380730865,2.651877467700094,-3.9371147002622484,-12.18798282623291,-16.15069092462154,53.03328043322539,-22.133374854493475
1698672665058.0,0.01666666753590107,1.7879380403913556,-0.09778291335999965,-3.0672248401165008,3.438073583984375,-3.6547485419675705,-12.055852822113037,23.617744008319203,45.62263788188286,-16.496914921196776
1698672665075.0,0.01666666753590107,1.8608103843785821,0.06451309644281863,-2.027030143496394,3.613299071856588,-3.5507504073545335,-10.972925483703612,27.010780497401022,31.113635858239956,-9.91167767916184
1698672665091.0,0.01666666753590107,1.60848835895285,-0.05524199475049972,-1.4003326613813638,3.4235587364196776,-3.710713005773723,-10.317363141632079,7.5377592019856365,17.632659266954008,-1.798481229461564
1698672665108.0,0.01666666753590107,1.120446191073209,-0.46940994812399145,-0.39854982074201106,2.9536966606140136,-4.094234184210002,-9.324368003082276,-29.594915975530938,-2.242766678837499,13.237407776615061
1698672665125.0,0.01666666753590107,0.42661885414570566,-0.5897983687847852,-0.3119569944381714,2.2177789253234863,-4.1317932227537035,-9.279476137432455,-46.316059176990066,-17.83525975320951,25.99514673574576
1698672665141.0,0.01666666753590107,0.25181436816453934,-0.25494506740570066,-0.3773497963249683,1.9580080451965332,-3.703530693054199,-9.39769042892456,-41.488095565936945,-31.0931487058245,30.01293038292489
1698672665158.0,0.01666666753590107,0.05352759204804897,0.7547986691102385,-0.06780570824742317,1.6166846710205076,-2.6135700950071215,-9.144204912677406,-18.04961841012119,-36.28496332415337,25.082139981464522
1698672665175.0,0.01666666753590107,-0.4776961304321885,1.1642498230949043,0.7205594226390123,0.9864112301148473,-2.1918916198730467,-8.376862696075438,0.4651368963340733,-30.198598830227933,15.676653598107851
1698672665190.0,0.01666666753590107,-0.5977892214082181,1.1515338416457175,1.3622288484364746,0.805798203985393,-2.224661670574546,-7.737311577606201,12.164549836319784,-11.167417349578793,5.103541253495623
1698672665207.0,0.01666666753590107,-0.7601321390926837,0.7005398401781916,2.5932243493318556,0.6642413230895996,-2.7240026465818286,-6.484994471740722,17.17446285667287,22.662038326441632,-7.349890579996205
1698672665225.0,0.01666666753590107,-0.4302025578513741,-0.01669891360551119,2.9800439847916365,1.0729016189575196,-3.4727895080566404,-6.073491061401366,11.53941848008166,34.39667898092789,-8.887825492387758
1698672665241.0,0.01666666753590107,-0.2925977755822241,-0.31237872698158026,2.9886686052739617,1.2921205623351038,-3.778349202673137,-6.047154843139648,-2.180240565854264,28.04855943989276,-1.8240374494582245
1698672665258.0,0.01666666753590107,-0.3291054053768515,-0.6625967707529664,3.03220145753026,1.2970587493896484,-4.086902233886718,-6.012139643859863,-26.29086660605063,2.2475183560657124,18.411970190874122
1698672665275.0,0.01666666753590107,-0.7014850120738149,-0.4003071858033538,3.022202626085281,0.8815151237487793,-3.7614401534482833,-6.053439622497558,-33.44897998830486,-19.720147784870203,32.79607879044876
1698672665291.0,0.01666666753590107,-0.8006215319998562,-0.15924685136526823,2.85916602704823,0.6771101570129394,-3.4644095099851486,-6.254702199554443,-22.72601500084985,-41.25324292642065,34.147308774330725
1698672665308.0,0.01666666753590107,-0.6055475804500281,0.7601476289227604,3.470194230866432,0.7018003616333007,-2.530221949712932,-5.675006122589111,6.0508385456180855,-39.97564238179142,20.61002922616907
1698672665325.0,0.01666666753590107,-0.8270400217175483,0.7185527589917182,4.533901320499181,0.39354675175771114,-2.614617265972495,-4.607790732574463,24.625400109023893,-19.607417220166433,11.098322302161298
1698672665341.0,0.01666666753590107,-0.9338630775582045,0.534605766133964,4.977917591908573,0.26381109542846676,-2.8727424247190356,-4.139425032806396,34.39205494285979,5.5414635278860445,3.250929067314415
1698672665358.0,0.01666666753590107,-0.9349377941176295,0.3012780717745423,5.168769249588251,0.31379005508422847,-3.212120802307129,-3.901351605224609,30.709555036752832,20.671214060754043,-3.4397319311162575
1698672665375.0,0.01666666753590107,-0.9365333927460014,0.21902064432650803,4.650577734899521,0.35793314819335936,-3.353677975463867,-4.389918381500244,21.71080641847042,12.619730718082359,-8.500507662671138
1698672665391.0,0.01666666753590107,-0.9864968625716865,0.11536153240948915,4.4124096147716045,0.3369837375365197,-3.4970305076047774,-4.608090007781982,16.656360564728846,5.396686569370223,-11.326208148724188
1698672665408.0,0.01666666753590107,-1.0908163380935787,-0.08574351599812507,4.139929475197196,0.27129282948598266,-3.7512647963926193,-4.853345455822348,22.700131998990084,12.59235275856801,-12.578579682106678
1698672665425.0,0.01666666753590107,-0.989179525784403,-0.24778701234459877,3.931010830429196,0.42272608449086546,-3.961654975017905,-5.034706816101074,22.86773801103303,22.34429109606347,-9.926882534027934
1698672665441.0,0.01666666753590107,-1.1931371871441603,-0.4956406601846218,3.5354479165434833,0.28042086944580075,-4.246864540044963,-5.4047606101989745,12.416962038418545,24.96337665217634,-5.943080785516909
1698672665458.0,0.01666666753590107,-1.3383729026831686,-0.7539493588045239,2.5051947682231663,0.19812018737792966,-4.511274478149414,-6.421847402954101,-6.720162079559839,10.989039275441094,-0.9013101620492959
1698672665475.0,0.01666666753590107,-1.3844465254634617,-0.5750426982015371,1.717351615384221,0.155772745513916,-4.304774292699992,-7.22061293182373,-15.760430990919934,-6.037419358333126,2.6197162813940404
1698672665492.0,0.01666666753590107,-1.3483631124302744,-0.47828532849699257,1.4015584037840365,0.15592238311767578,-4.173841389410198,-7.556698989868163,-12.924865150384447,-20.518769361121237,5.221653153491714
1698672665508.0,0.01666666753590107,-1.062026735330373,-0.1938119687899947,1.032291960671544,0.34551322708129883,-3.8739676314756273,-7.948001323699951,1.676211024921404,-33.578688695737995,4.260369341496358
1698672665525.0,0.01666666753590107,-0.9961381127506493,0.013313070559501648,1.2372855409502983,0.3360860580444336,-3.685723525945842,-7.746738746643066,13.458355858528511,-25.82054319489814,-0.5785575769482769
1698672665541.0,0.01666666753590107,-0.9411128294907509,-0.09443652554154396,1.8090695296168327,0.34880525436401366,-3.857956700134277,-7.154323473358154,28.0963588112518,-2.6630262974776797,-4.966502899309425
1698672665558.0,0.01666666753590107,-0.930738588862121,-0.11526420951485633,1.9397195243120193,0.37903190419301386,-3.9498338965818283,-6.99061993484497,33.19966442322106,14.384118844858394,-6.272108073309349
1698672665575.0,0.01666666753590107,-0.6209688753351569,-0.5556400785952806,1.4846891069352626,0.7402572257995605,-4.463689427892864,-7.40601392288208,30.348039954173224,24.235162373437092,-5.039655505980732
1698672665592.0,0.01666666753590107,-0.22537527405023575,-1.0257555446401239,0.5722931072324514,1.215655892944336,-5.010166249084472,-8.271817098236083,18.839092655526287,23.591920770614678,2.0761623567250207
1698672665608.0,0.01666666753590107,-0.030733138046413658,-1.1988342297419905,0.08995791882276534,1.451484610339254,-5.217862950842083,-8.731653454589843,9.281561992376899,17.73772635940902,10.320491821743783
1698672665625.0,0.01666666753590107,0.44861835837736724,-1.2002481881931424,-0.7032330247849226,1.9479821796141563,-5.238063735088706,-9.513360296630859,2.5002483754042895,10.962601320711267,18.22134302623365
1698672665641.0,0.01666666753590107,0.5664814983442426,-1.0342202983856201,-1.0077771126180886,2.0594621944151816,-5.08229098957479,-9.814281517791747,-0.6909263550694458,3.1355842477058244,23.583446213401984
1698672665658.0,0.01666666753590107,0.629942016994208,-0.6332046720519662,-1.3866858288228512,2.0823568939208985,-4.688594746343791,-10.196605595397948,-3.028623058416602,-5.372956357759483,25.488259614418894
1698672665675.0,0.01666666753590107,0.506127275146544,-0.36173049464970825,-1.3543477397978305,1.9144636486329136,-4.418648509161174,-10.170718289947509,-4.274411356656258,-8.47212225025421,24.72319817265472
1698672665691.0,0.01666666753590107,0.28516192649304867,-0.144375737708807,-0.9057225132882595,1.6356885005675255,-4.195539134216308,-9.733776486968994,-7.140021064916516,-5.545979563587892,18.94113226663169
1698672665708.0,0.01666666753590107,0.2870554851546883,0.002846329341828823,-0.6249608675807714,1.6223708999633788,-4.034977693121135,-9.46143604812622,-9.189350169713496,8.039999233355953,11.727705451157755
1698672665725.0,0.01666666753590107,0.3993675668656826,0.03831190273761749,-0.2855219919770956,1.7615337253294885,-3.981856343786418,-9.125947955974937,-9.038344932448268,24.45568015343283,6.9402845623573635
1698672665741.0,0.01666666753590107,0.4852599898152053,0.023764906468987462,-0.3129319769501686,1.9150620529174804,-3.9805098976135254,-9.149890557098388,-6.438845370667231,38.65346802263869,3.919947163734222
1698672665758.0,0.01666666753590107,0.7014832585081457,0.059096624352037906,-0.6049748951286077,2.255637239074707,-3.936665787450969,-9.424774835205078,-0.9203646822863389,42.85485056980235,3.8239364752318217
1698672665775.0,0.01666666753590107,0.7684815958954393,0.08322568795830011,-0.670592737942934,2.4070706402100623,-3.913621596471965,-9.47460474177897,-1.5779879954581546,35.54715604472484,6.749305642974637
1698672665791.0,0.01666666753590107,0.6234793968513608,0.008100304347276687,-0.5607517225205898,2.326715246991068,-3.9824551864624023,-9.355342987060546,-7.765861907054675,29.040171426237087,9.969829055981682
1698672665808.0,0.01666666753590107,0.3457430903144181,-0.039344168394804,-0.18217384570538997,2.112583689880371,-4.004152346746623,-8.975862023925782,-12.726863088987656,24.458627380059692,13.010840156561983
1698672665825.0,0.01666666753590107,0.1810411884136498,0.20585165841281414,0.3561544480830431,2.004395848492533,-3.7307644446775314,-8.438663026428221,-11.702857222957249,27.955689357748096,16.079383749686606
1698672665841.0,0.01666666753590107,-0.13028028459995986,0.08945727582424878,0.7832564095705747,1.745522647857666,-3.8304227965205904,-8.008005418285727,-11.494198358907944,34.43518758746842,21.403231047313696
1698672665858.0,0.01666666753590107,-0.3698499420888722,-0.0873389684960246,0.803886525145173,1.5581763679504395,-3.9885903282165525,-7.9843632614135736,-16.97603732354754,32.15222417814834,28.992298630344468
1698672665875.0,0.01666666753590107,-0.7409039992704987,-0.24524843377768993,0.33961072503924367,1.2228383517943322,-4.094832442364097,-8.463502284130454,-32.196596502091325,20.43560497778716,36.786401662069856
1698672665891.0,0.01666666753590107,-1.063012385366857,-0.017998305766284466,-0.18289982189238072,0.8970775806702673,-3.803039407293498,-9.01476780090332,-39.54883069074649,9.537259515466435,36.169977089476205
1698672665908.0,0.01666666753590107,-1.0930132636159657,0.22863602941185235,-0.28880115977823734,0.8502408645629882,-3.4831142104551196,-9.1554271484375,-37.559507359129015,6.3119728992869515,30.6933674884199
1698672665928.0,0.01666666753590107,-1.0684316339366138,0.6839923177421092,-0.21991876221001147,0.8699928821288049,-2.9644702758237718,-9.113827894592285,-28.070250413149427,13.865172170778225,22.132632071421234
1698672665941.0,0.01666666753590107,-0.7856799834556877,0.8423135786950587,-0.09499591298997402,1.2006919864378869,-2.759317121069133,-8.997409254345298,-9.145035048604806,32.51804227990505,13.485224115176049
1698672665958.0,0.01666666753590107,-0.6480809002749621,0.8007283533751964,-0.06401274570524693,1.4110826034545898,-2.8028619560241697,-8.949077477374672,4.077059443891086,38.89485032300153,13.126564905443155
1698672665975.0,0.01666666753590107,-0.31648323969095943,0.6075982293695211,-0.19857728349566459,1.8279729675292968,-3.029413288116455,-9.049783000183105,6.440975962801452,28.214077121596972,21.847635598113285
1698672665991.0,0.01666666753590107,-0.2551996266886592,0.27093027978390455,-0.1742296087026596,1.9119196632385254,-3.3868972312375902,-9.011326136016844,-2.303836040536818,13.689877927050787,30.77379979608597
1698672666008.0,0.01666666753590107,-0.2570968386121094,0.1800163754105568,-0.06704232265949249,1.8908209072388706,-3.478176461791992,-8.908674739837647,-14.140237549032978,-0.8588246778645241,37.7777592238676
1698672666025.0,0.01666666753590107,-0.43943698079511523,0.2029080061763525,0.3150952924638986,1.6347908210754394,-3.427149746648967,-8.555679632568358,-20.773019737880375,-11.543812853038917,40.98325920890838
1698672666041.0,0.01666666753590107,-0.5144368383303284,0.46944385039359326,0.7509066301077604,1.490390679577738,-3.139696202087402,-8.144325859832763,-14.890997428448795,-13.123692810897165,41.483673018449366
1698672666058.0,0.01666666753590107,-0.5329691048428415,0.5691442878127098,1.026118824994564,1.4012065216064453,-3.0382416144773363,-7.885453389850259,-5.2355927158140645,-13.43598015880755,42.28287003813797
1698672666075.0,0.01666666753590107,-0.7131599600374698,0.5888584575861692,1.505561214572191,1.124227317047119,-3.040935091345012,-7.417386380767822,-0.8371520607412505,-12.763197987824832,43.322281395841344
1698672666092.0,0.01666666753590107,-0.9281735606797039,0.47890170682966704,1.7304969281613827,0.840215145111084,-3.164086839239299,-7.201010405731201,-5.694650156817445,-11.142165286443609,41.097002349156604
1698672666108.0,0.01666666753590107,-0.9396316510222852,0.3689893797367811,1.7744401147842406,0.7683892414368688,-3.2698809173583983,-7.170484334564208,-13.33253609005406,-8.1643624639899,37.41153472585527
1698672666125.0,0.01666666753590107,-0.9376068671964108,-0.01858838061392307,1.5103373429328202,0.7047931137084961,-3.6222771819517012,-7.461080561065673,-21.32720933430416,-7.128998847143407,31.894627008695892
1698672666141.0,0.01666666753590107,-0.7033965447835624,-0.14478314946591853,0.854333102312684,0.8854057014465332,-3.7084684417173266,-8.142679846191406,-23.17315674995932,-14.13299669473912,27.92740212930049
1698672666158.0,0.01666666753590107,-0.62974722507447,-0.17389847705215214,0.5751712930172681,0.8976759849548339,-3.6951504027217625,-8.449137658691406,-20.81358252381379,-17.52172333445466,21.708047022045733
1698672666175.0,0.01666666753590107,-0.5351199992664158,-0.2851099040448665,0.27703239605128765,0.9139864837646484,-3.761739720916748,-8.777442561340331,-12.316098073624028,-18.29409820127263,10.993844313522198
1698672666191.0,0.01666666753590107,-0.3492284482121467,-0.4758566400453448,0.08144085036814212,1.054346702221781,-3.93606723703593,-8.986486293792725,-3.117520745228668,-14.327378755875804,1.2230766385888943
1698672666208.0,0.01666666753590107,-0.18863631971776484,-0.6514677662342786,0.05662088188827037,1.189619096020609,-4.117876925604045,-9.012822512054443,9.235628970208563,-8.671249585316763,-5.839255079943546
1698672666225.0,0.01666666753590107,0.029042846871912477,-1.0888391928017138,-0.020445406657457352,1.4034510856628417,-4.608388990728557,-9.069984661212564,26.860485599809476,0.028164605207664922,-9.612904714297972
1698672666241.0,0.01666666753590107,0.31230390817970033,-1.3295868080288171,-0.2495581136703491,1.698835715484619,-4.92202970046997,-9.268553176879882,37.32921728597828,1.649143625570878,-11.293074901060455
1698672666258.0,0.01666666753590107,0.42732685628458855,-1.3122528113901615,-0.3947743938565254,1.8266263752259313,-4.994753575897216,-9.375394425964355,41.654270653348775,0.006981733992222409,-11.118513195121501
1698672666275.0,0.01666666753590107,0.5872296873405576,-1.3865528500929474,-0.45357203526198864,1.9994575153075158,-5.19017970188558,-9.381529567718506,37.502167921046755,2.1783962013349485,-8.173955464679182
1698672666292.0,0.01666666753590107,0.8194821536839008,-1.515891762189567,-0.5407131430983543,2.246958111926168,-5.397278437750042,-9.432706212726234,31.094528404036843,5.350942658064532,-4.50005092475586
1698672666309.0,0.01666666753590107,0.8990798604033887,-1.5261802242308855,-0.6698854664564132,2.340032701464742,-5.471947602026164,-9.531316224560141,24.842945049183385,5.029168177397,1.9330462013945702
1698672666324.0,0.01666666753590107,0.9492596033282578,-1.7118427888348697,-1.0437176100492478,2.392106733703613,-5.72618218307495,-9.873986921691895,16.859196692510714,2.11826513687286,12.679953349768008
1698672666341.0,0.01666666753590107,0.7778932751022278,-1.6344938839554786,-1.327520523148775,2.2026656734742223,-5.686228650610149,-10.143633883666991,10.0705675160502,-3.1173802994638597,16.501936817784028
1698672666358.0,0.01666666753590107,0.6640326487749815,-1.4911416440755128,-1.3414385738641024,2.0623056011475622,-5.564423641149699,-10.151863951873779,3.208996615009003,-4.010211101823702,15.775385690107678
1698672666375.0,0.01666666753590107,0.4325030898787081,-1.4219713694766163,-1.2037556117922068,1.8026842124938964,-5.500229401397704,-10.01629228286743,-5.483250679363672,0.05309690343190065,13.87848420947058
1698672666391.0,0.01666666753590107,0.16437208542451262,-1.382348091879487,-1.4200684584647416,1.5177742149353026,-5.445013125610351,-10.242394702148436,-13.365178417871197,-2.9342994266391953,12.840642941502667
1698672666408.0,0.01666666753590107,0.12808993494883178,-1.2740890849515796,-1.749288137871027,1.448641641998291,-5.304204140472412,-10.59149923171997,-17.78321883437589,-14.873016955458736,10.680358267412476
1698672666425.0,0.01666666753590107,0.04270706895664334,-0.5910206040561199,-1.950270144420862,1.2701239807128906,-4.585344799749553,-10.822090779113768,-5.9770575615431385,-38.0972515675787,3.976853311691006
1698672666441.0,0.01666666753590107,-0.22408917976245282,0.44060178679078815,-1.1260972025722265,0.8922891773499548,-3.567061198425293,-10.006565838623047,12.374503021216807,-49.39826058713378,-2.721607335884998
1698672666458.0,0.01666666753590107,-0.3889202610008418,0.8962874532058834,-0.2767103244900703,0.621445114544779,-3.1606451743528243,-9.147496355438232,27.351033201094378,-41.77558505829195,-10.429185744648073
1698672666475.0,0.01666666753590107,-0.8410796529859303,1.2569964958533644,1.2407628616720436,0.10504567090459167,-2.8936919815063473,-7.593659477996826,30.066188782978063,-7.131106814276003,-19.490880532547678
1698672666491.0,0.01666666753590107,-1.17339912503846,1.0899304951697588,1.532801688197255,-0.19303258191533385,-3.1173996146053073,-7.271040804290771,21.448742305300783,16.913189337899666,-22.67575505384231
1698672666508.0,0.01666666753590107,-1.0897210902027785,1.2315174789428711,1.0966145029783247,-0.03097483784779906,-3.005171996307373,-7.684040590667724,9.163084677260212,25.727420395754184,-27.30254568817646
1698672666525.0,0.01666666753590107,-0.543646054745093,1.5393188150063155,-0.0945914238423109,0.6308721374511719,-2.6874910712644455,-8.865279834747314,-8.156436883231745,19.867772078496273,-32.06097285083697
1698672666541.0,0.01666666753590107,-0.1321472475156188,1.3054688503384588,-0.8788958811610936,1.114949931744486,-2.8793264792844653,-9.65970587310791,-19.61571077736612,13.891126035850627,-32.56908086847797
1698672666558.0,0.01666666753590107,-0.0952995721116662,1.024865610063076,-1.0889362234354019,1.2155064014710486,-3.095852091924846,-9.890746333312988,-25.950748798593384,11.847973983384279,-30.629932106503407
1698672666575.0,0.01666666753590107,-0.06200535140559077,0.7272960374176501,-1.4082985256940126,1.3123217849731446,-3.3062425628110765,-10.240748688507079,-19.102522806529922,2.0434555689975915,-28.09797244344322
1698672666591.0,0.01666666753590107,0.05413432576954364,1.0217407560408114,-1.1909645192801952,1.4490905548095703,-2.9722514312192794,-10.038139957538247,-6.492537914619525,-8.578767116407498,-28.26340816287739
1698672666608.0,0.01666666753590107,0.038286914426833386,1.0575827615335582,-0.7935457483947277,1.434126940564066,-2.921524575805664,-9.64728595199585,1.2368699921743234,-13.91645579238762,-27.13075960036147
1698672666625.0,0.01666666753590107,-0.29450448598638174,0.7426195710167288,0.27796295489966866,1.0866684246338902,-3.234716080474853,-8.578873461151122,5.409870115128817,-16.932021876988685,-22.44598578261579
1698672666641.0,0.01666666753590107,-0.6713241209574043,0.7113412201777101,1.056665938949585,0.6886322525024413,-3.276315042059123,-7.798812632751464,10.498489112835253,-19.50167393898359,-21.02863102983164
1698672666658.0,0.01666666753590107,-0.64438292253986,0.9080684918925166,1.3411632640540598,0.6922234088622033,-3.102286216625571,-7.507617855834961,15.644573907123593,-19.062380077230465,-22.990193057567602
1698672666675.0,0.01666666753590107,-0.8668404094472527,0.930263080304861,1.8259271409153937,0.4596868648804724,-3.1248817870542407,-7.00393768157959,20.648531002520432,-7.778542153248804,-25.242065445785787
1698672666691.0,0.01666666753590107,-0.8817835654266178,0.7420388485193252,2.0679583662122485,0.46252983322143554,-3.3547251464292405,-6.739977533069252,22.64859139151317,0.21712432323657999,-24.397597932278334
1698672666709.0,0.01666666753590107,-0.8357626957468688,0.6452580979391932,1.9655337645262478,0.5406406623840332,-3.49538449396342,-6.816890676879883,22.360169578336457,5.7539575431543115,-21.410421528962427
1698672666725.0,0.01666666753590107,-0.539051931887865,0.4537339478254318,1.4218342990934847,0.8795698348999023,-3.7424361777707933,-7.327454765430092,19.51394095873293,3.484179814026939,-13.389667207366632
1698672666741.0,0.01666666753590107,-0.2803907665684819,0.3617117899492383,0.6449111841976642,1.1480196960449218,-3.8739676314756273,-8.083722630310058,18.28266617214932,-4.180079187142389,-5.836893542038014
1698672666758.0,0.01666666753590107,-0.22779899406582116,0.35790129175037144,0.4122638733178377,1.1827356201171875,-3.9158664527893063,-8.300697155761718,15.22887664140557,-12.889127039326002,1.3883477931527506
1698672666775.0,0.01666666753590107,-0.2900356700092554,0.3552729890733957,0.039351767179369924,1.067963578033447,-3.9573160690307616,-8.66282015686035,9.761241055145016,-15.567874297838936,5.796269711288894
1698672666792.0,0.01666666753590107,-0.35927374914735555,0.4802694880515337,-0.28090602261424064,0.9623194297790527,-3.8572082198545337,-8.97631093673706,11.596918427609411,-9.750003686413054,5.004826663855544
1698672666808.0,0.01666666753590107,-0.34609029631689187,0.5887596733868121,-0.4933931735187769,0.9593266777038574,-3.7855318076536055,-9.172785110473633,20.616014179429293,0.08300704885932696,3.4161918975852203
1698672666825.0,0.01666666753590107,-0.23490546507015822,0.8076338949799537,-0.9759837979942559,1.0845733520507812,-3.653102528326213,-9.609128363037108,35.233834776928845,11.740998706829892,3.437700803611825
1698672666841.0,0.01666666753590107,0.016884937696903943,0.6893351400747895,-1.3387228851646185,1.3596072677612303,-3.8578070625305174,-9.923068055725096,38.308113167635334,13.966599626179269,7.687028717428034
1698672666858.0,0.01666666753590107,0.21000877809226512,0.48089112708121534,-1.6463479878783225,1.5722423027038572,-4.170400016784668,-10.171616115570068,25.622691397663086,10.49709831556551,15.269984134925291
1698672666875.0,0.01666666753590107,0.2711700798891485,0.4519660613700747,-1.722120144960284,1.6277577075682579,-4.2452185264036055,-10.223091451263427,9.798477538952634,4.525923254445045,20.52852116370872
1698672666891.0,0.01666666753590107,0.3572469194948673,0.5540621617540716,-1.6623627186119556,1.6913538352966309,-4.155136981201172,-10.160243657684326,-5.239241744378144,1.0521989659335151,23.592547440471026
1698672666908.0,0.01666666753590107,0.4978637430615723,0.6852993086874485,-1.5405775828957557,1.795800882720947,-4.0010099570676685,-10.056694435882568,-15.332340346952924,2.52612006476324,24.622673155997763
1698672666925.0,0.01666666753590107,0.6712617232456803,0.718071989737451,-1.5525234567552804,1.9446902984619139,-3.9419033958435055,-10.08677159423828,-15.04822326050061,3.5188626608586175,26.898218979879214
1698672666941.0,0.01666666753590107,0.8970464548796415,0.5434595191970467,-1.655929470694065,2.141014980725199,-4.094533459417522,-10.206482261767983,-12.914847824192977,1.180025422641775,30.777153418968446
1698672666958.0,0.01666666753590107,0.8016446645025164,0.23006810804158448,-1.5332225439578293,1.983446364770457,-4.381837658636272,-10.10667281101644,-14.227063767535828,-5.802147515956513,35.65094076916318
1698672666975.0,0.01666666753590107,0.7634841529343277,0.22164836248159409,-1.3546148663014173,1.8851346052307634,-4.369417737524211,-9.94730934753418,-12.711294526548258,-9.843152098766394,34.41547907661835
1698672666991.0,0.01666666753590107,0.7575109968088567,0.8443447922617197,-0.7987590991288424,1.813907105841115,-3.734804659979045,-9.406070134735106,-3.8161675619377555,-13.548123327242696,27.48820047510116
1698672667008.0,0.01666666753590107,0.9027503656096756,1.3250263682454824,0.3406009051203728,1.8881272111754863,-3.276614609527588,-8.263138117218016,13.972874008705572,-6.626983358242056,18.837140928970953
1698672667025.0,0.01666666753590107,0.7991350928343832,1.2704238404422998,0.9686141460090875,1.7604864082336424,-3.3735797767639157,-7.615057655334472,17.8676058215714,5.695496673387702,18.76248354624813
1698672667041.0,0.01666666753590107,0.4844572951301932,1.0233376698434353,1.3648930992096662,1.445349614715576,-3.6540003539487715,-7.200711130523681,6.113033394426576,13.947895153137189,19.074066530900357
1698672667058.0,0.01666666753590107,0.2864677483946085,1.1648439895957707,0.7181184592276811,1.2605471010070293,-3.4905963829040525,-7.857919486236572,-25.50660550252955,11.441077416411817,14.59561052986596
1698672667075.0,0.01666666753590107,0.31358401111811396,1.239264732068777,0.14251871166527272,1.2850878872193396,-3.3366192886352537,-8.476521340179444,-46.02274353327304,-1.7690634979846134,7.753093722174983
1698672667091.0,0.01666666753590107,0.5083870367720723,1.6340388336643576,-0.7112170092761516,1.4654010536193847,-2.8293478118896482,-9.390657461547852,-50.557442727027905,-5.169942645059194,-2.6140634460822083
1698672667108.0,0.01666666753590107,0.706410558842495,1.8512801933586596,-0.7264987495601177,1.6844705785889178,-2.4863784240722655,-9.467122861590981,-24.17153916131842,11.571890053169547,-16.53403187669392
1698672667125.0,0.01666666753590107,0.7558008318901062,1.9655010313004253,-0.5612532423019408,1.8026841394286601,-2.34960965423584,-9.305064752197264,9.381719886365966,28.574601826746925,-23.281461352080917
1698672667141.0,0.01666666753590107,1.026002724334225,1.7033336114257573,-0.04277355832159519,2.1779753957886245,-2.6556185539245605,-8.751555255889892,32.92860495091452,38.91685377741272,-21.870123995955552
1698672667158.0,0.01666666753590107,0.8905689294286072,0.7840303165525198,0.36874797219634053,2.1739351074218747,-3.6734535346984862,-8.271517823028564,31.515510528625164,27.783035835908514,-7.915662469705041
1698672667175.0,0.01666666753590107,0.8009732680469751,0.5697223799616098,0.554682631739974,2.126200857952982,-3.938461730957031,-8.052897283935547,13.216258095850117,7.362377019572635,4.749196161997238
1698672667191.0,0.01666666753590107,0.5733633668124676,0.34180122082084413,0.9923626858651637,1.8637363548278807,-4.172794218444824,-7.617152581787109,-9.977571929179538,-16.349657750238595,18.683359219808118
1698672667208.0,0.01666666753590107,0.4220394904661923,0.5810737950593233,1.6089590452045202,1.6386814718384295,-3.910329861450195,-7.023390570068359,-14.269442530014818,-24.450731681379157,24.817866302098388
1698672667225.0,0.01666666753590107,0.31720994653031226,0.7039972871556878,2.0116578023195264,1.4477438163757324,-3.769221601104736,-6.641815265002847,-7.924556229778044,-22.56158331922367,29.058100672808372
1698672667241.0,0.01666666753590107,0.015557050094008444,0.8688646087512374,2.6991549133121966,1.0485106895446776,-3.605817045538127,-5.965752571216226,0.3599706860948151,-9.537735921161042,30.73405834040025
1698672667258.0,0.01666666753590107,-0.24857626302614808,0.8325009174719452,2.9186083960980174,0.7416039642333984,-3.649361880493164,-5.747580360412598,-1.8516730351703308,3.6813093187572616,31.075608780035907
1698672667275.0,0.01666666753590107,-0.2896918980728835,0.650946957230568,2.8085668896675107,0.6841431974548846,-3.8256349777221677,-5.862202764892578,-10.643809925163739,13.448227541763028,32.29313439582029
1698672667291.0,0.01666666753590107,-0.3325846988599747,0.2512546884551644,2.052455676653981,0.633715105792135,-4.180574789318442,-6.642113955688476,-25.95750556322982,12.813895920712897,31.974830505024766
1698672667308.0,0.01666666753590107,-0.1469783944878727,0.2474552961722016,0.8632716110497712,0.806995597076416,-4.125807718603313,-7.862258976745605,-30.382720239683966,6.670066483979204,28.260611200412267
1698672667325.0,0.01666666753590107,-0.012066577629745006,0.22923428756594658,0.37499826476275916,0.9187749601501971,-4.087650129644572,-8.381052548980712,-22.881106398786034,-1.3381450489795106,23.667959559097138
1698672667341.0,0.01666666753590107,0.13094320548810065,0.24414397966712711,-0.2995598696798086,1.0269628746032715,-4.042309643444419,-9.074173929595947,-7.437854878769507,-7.126811479061711,19.13618539385433
1698672667358.0,0.01666666753590107,0.1789533492889255,-0.10786591595709323,-0.4476379690378904,1.0287584527831524,-4.40817387689799,-9.220070008739828,12.304306605795647,-6.053727288750178,15.236285689107742
1698672667375.0,0.01666666753590107,0.14856734417974948,-0.35559126124233004,-0.43471243649125096,0.9674071813721209,-4.697573002569377,-9.189544522094726,20.289117910657897,-8.062070135885204,12.268245768298918
1698672667391.0,0.01666666753590107,0.1161483719382435,-0.86508304438591,-0.4492115019649267,0.887500700964406,-5.271283867645264,-9.176226775360107,18.61344028082199,-11.330412983931977,10.132998006385055
1698672667408.0,0.01666666753590107,0.09765950617603956,-1.258222238256037,-0.5236088635623455,0.8337807281494141,-5.706130451910197,-9.23249051437378,17.06450534877213,-9.368819366571104,8.733751792637904
1698672667425.0,0.01666666753590107,0.15522906709127127,-1.3122104335531593,-0.638184506291151,0.8638578865051268,-5.8020481559202075,-9.327809667968749,19.287933414191794,-6.808999788773256,7.606485419187951
1698672667441.0,0.01666666753590107,0.4323884505230933,-1.2847808670967817,-1.2163666715621948,1.1082160934448242,-5.842151033727824,-9.873387786754964,23.622960565297802,-7.727696517519936,8.143413420031823
1698672667458.0,0.01666666753590107,0.5292968460708857,-1.294888711874187,-1.8132020993769167,1.1733085241455583,-5.9066448409482835,-10.44380691680908,22.819540781154835,-11.750036754649113,9.965523475483636
1698672667475.0,0.01666666753590107,0.5619893745567649,-1.2094754507437349,-2.069539497923851,1.156399438388087,-5.870432833099365,-10.677242163196205,19.23067764592687,-21.20772200496396,11.713552445423842
1698672667491.0,0.01666666753590107,0.35623591582141817,-1.081658341386914,-2.2841648299008606,0.8493431120056658,-5.795614031219482,-10.869376261901856,15.509715237056277,-32.05104517087835,12.228082548431951
1698672667508.0,0.01666666753590107,0.19025982926636933,-0.7618503411874175,-1.8271107977420091,0.5919663970062509,-5.507411714117229,-10.399663823699951,11.126064823022597,-35.876910747663885,11.101236231615955
1698672667525.0,0.01666666753590107,0.07776599778030067,-0.5869111229106784,-1.6005822620034218,0.389506719119288,-5.349245059204101,-10.167575900268554,2.8215372723105157,-32.93630598920371,8.770246347146928
1698672667540.0,0.01666666753590107,-0.12995034025954083,-0.24262334597110746,-1.4045757057785988,0.08020573734892532,-4.997895673315226,-9.97858360671997,-5.852754948838077,-29.170809039397337,3.0504105080952963
1698672667558.0,0.01666666753590107,-0.04858301178533583,0.4712032612815499,-1.5781740308403969,0.09651627269135787,-4.272751845495403,-10.159795329394935,-2.5226343204090065,-29.211284740418833,-4.474506017260013
1698672667575.0,0.01666666753590107,0.027256621042266487,0.8412848201692104,-1.4759090036302804,0.12644378431015646,-3.9050925453186034,-10.056844658008217,5.7956754848311025,-20.57563580860347,-15.199033837374492
1698672667591.0,0.01666666753590107,0.2926084431067109,1.3763997048690915,-1.0225655164271592,0.40297410345766693,-3.407247945348918,-9.58264250717163,20.64651951180986,3.611658037809234,-29.042534671689914
1698672667608.0,0.01666666753590107,0.6430166026227175,1.62068075491935,-0.5378320347040891,0.8204630362137221,-3.2182556518003342,-9.06564458618164,29.835669898490135,20.797524749075087,-32.349281965892374
1698672667625.0,0.01666666753590107,0.680425638236478,1.6289941174954174,-0.40375674173533915,0.9576806457961909,-3.276614609527588,-8.890718227386474,30.51978164575861,32.27603501723316,-28.234746981572723
1698672667641.0,0.01666666753590107,0.8323444117359816,1.501829626828432,-0.6207669230222702,1.2409446845123544,-3.468599655151367,-9.064597122955321,12.778577866288407,27.13487649688369,-16.207116824902307
1698672667658.0,0.01666666753590107,1.0034113916892557,1.4611971721887587,-1.2217068635463715,1.4706384062835947,-3.5124434730529783,-9.660604283252358,-8.318230404291008,12.920984749162233,-4.205433276228299
1698672667675.0,0.01666666753590107,1.0530372270584105,1.5842793619781732,-1.5236159267008305,1.5278000074524432,-3.3494881225585935,-9.98546693649292,-26.358499139212096,-5.4599140574038545,5.302553756002753
1698672667691.0,0.01666666753590107,1.0296047674141824,2.1377865201979875,-1.8998884491831063,1.441010160739161,-2.7033526572629807,-10.41836852416992,-32.341259908712196,-27.099296333949802,7.925175215671576
1698672667708.0,0.01666666753590107,0.9074516021031885,2.8294261378228662,-1.6994962252199648,1.241692835998535,-1.9485802916377781,-10.256909549713134,-22.376492022905495,-34.33960592022326,3.007968779809895
1698672667725.0,0.01666666753590107,0.7733556316725909,2.959643001797795,-1.2979331941366195,1.0327987959488294,-1.7851763205930589,-9.87638112335205,-6.45504359117074,-31.88682351756915,-4.6181359308820955
1698672667741.0,0.01666666753590107,0.5059473885349929,2.873962906424701,-0.13714929358661174,0.710030484639015,-1.8778017050594091,-8.713248029327392,11.334173856843716,-14.677108347042553,-15.699017344997765
1698672667758.0,0.01666666753590107,0.31846462276652454,2.54548995373249,0.9818442144602536,0.531812043762207,-2.2381290549129247,-7.576300931438803,18.45127451445296,1.2171368286102162,-21.85691782519533
1698672667775.0,0.01666666753590107,0.271501576865837,2.4058777771636843,1.3491630306363105,0.5340565895522944,-2.4200889656066895,-7.183802081298828,20.69833503440087,15.849699855824708,-24.77307733661603
1698672667791.0,0.01666666753590107,0.4303013420507312,2.111938669975102,1.6262579705297946,0.8023568313598632,-2.7678464644834397,-6.871957315063476,17.30109456388491,28.19473744096208,-22.298453696543515
1698672667808.0,0.01666666753590107,0.7564614877559244,1.8338316304296254,1.3287749071240424,1.2199954199859873,-3.076549133300781,-7.147290505981445,12.689920303314349,31.00347173711682,-16.592916645075892
1698672667825.0,0.01666666753590107,0.8762684552669525,1.6669173131763935,1.180073122909665,1.4254478134155273,-3.26239903717041,-7.279869422912597,5.872264957315394,32.373327646865405,-6.261427791881565
1698672667841.0,0.01666666753590107,1.0594646297574042,1.3582178592294454,0.7313409288942814,1.6955437612671405,-3.5703532257080077,-7.722946367645263,-6.301071063597965,26.993045911221085,9.334131397097549
1698672667858.0,0.01666666753590107,1.1973059972614049,1.3090578147411345,0.18924948318004606,1.8664299047607928,-3.5972874098628758,-8.275408400726318,-15.356012075068895,20.864166904806904,21.537751623017098
1698672667875.0,0.01666666753590107,1.1743572294808924,1.2229755683079362,0.030765725141763685,1.8486229568481445,-3.646368836157024,-8.454823887634277,-21.434354511814153,15.664634172715921,33.00489816394356
1698672667890.0,0.01666666753590107,1.1245475619774312,1.3221741936847566,-0.13339023331403732,1.7753005310058592,-3.488351818847656,-8.654290813446044,-22.871371671671476,13.185558956851848,43.80211926050766
1698672667908.0,0.01666666753590107,1.0129070228524506,1.4871306548684835,-0.19677111085653304,1.6352397338867186,-3.2820012710019943,-8.743025912475586,-20.384875455274184,13.653744518794127,49.396433511530795
1698672667925.0,0.01666666753590107,0.9361092490497976,1.4837567945212125,-0.20381986032426355,1.5254057327270507,-3.251624837438762,-8.77115778198242,-16.98461945623966,14.069083199580724,53.59426094523146
1698672667941.0,0.01666666753590107,0.751014985853061,1.4840052163243294,-0.18887538917064667,1.2931682082245126,-3.2124200775146483,-8.780734588623046,-16.94388762312429,15.436874684652675,57.205948865118316
1698672667958.0,0.01666666753590107,0.5897920121092349,1.3107359770864246,-0.3015408143639564,1.0983400846619158,-3.3520316695615646,-8.913762418365478,-19.442792585696203,17.857444207633712,59.20559602766627
1698672667975.0,0.01666666753590107,0.545911953850463,1.2043369188115,-0.41920974693298335,1.0239701955933123,-3.4217627929136154,-9.05292538986206,-19.09010552261884,19.053616944525338,59.99953721678855
1698672667991.0,0.01666666753590107,0.58534380052872,1.2804539438083766,-0.5941553949505091,1.0296564245361834,-3.3035493782043455,-9.252093040466308,-13.930895666066673,22.57705369769375,59.16229945851756
1698672668008.0,0.01666666753590107,0.7596126452632248,1.340842069275677,-0.6016133097410201,1.1891700736114754,-3.224689776501059,-9.27004955291748,-7.500491128553109,26.601850241603188,59.01461027809437
1698672668025.0,0.01666666753590107,0.8381788169778883,1.2993427686735988,-0.5220224711537361,1.2621932973114773,-3.2610520064756274,-9.19343509979248,-3.207187682096007,31.14659493607985,60.89479060186963
1698672668041.0,0.01666666753590107,0.8930999092109501,1.1218336999088525,-0.3373766823768615,1.3183073987213894,-3.437325395965576,-9.009380847167968,-4.484569020341557,35.19152858520978,65.25049102804597
1698672668058.0,0.01666666753590107,1.0551192940294742,1.011573582291603,-0.2799450686275959,1.4833576391357928,-3.539377949468791,-8.95610986022949,-9.075415784168513,38.36172673752535,69.98990465160446
1698672668075.0,0.01666666753590107,1.0665198820311574,0.9200716488972306,-0.25783435910642144,1.5007156377045436,-3.611503566741943,-8.94383957672119,-15.188136270553736,43.19365185829707,76.41558952840154
1698672668091.0,0.01666666753590107,1.0285959556978195,0.9038362611502408,-0.7230652679800987,1.4739305796967819,-3.5883094458982345,-9.42896527263224,-16.607502514048452,44.89135343311169,81.07367608951269
1698672668108.0,0.01666666753590107,1.1569187495544553,1.2179174081355333,-1.2489566895216702,1.6071080470429733,-3.2511762168884277,-9.966462960815429,-10.680377050432694,43.44014997034825,83.34202289400895
1698672668125.0,0.01666666753590107,1.1335259643334894,1.2694029729619623,-1.3342255737453699,1.5828667552338913,-3.194762548010051,-10.054300234222412,-2.09944455061489,42.61937979816616,85.86866013215841
1698672668141.0,0.01666666753590107,1.2138429983034729,1.2051996731206773,-1.0235153644979,1.6660651533264665,-3.277212867681682,-9.734075762176513,3.64352727358969,50.71920209714131,89.25474690375974
1698672668158.0,0.01666666753590107,1.441101309621334,0.7426657482460141,-0.6650333502501249,1.911770244830474,-3.756801679992676,-9.36581761932373,1.8484771469689996,59.08729032105248,94.47825018474288
1698672668175.0,0.01666666753590107,1.6139872486300766,0.5159206471472978,-0.5852782610118389,2.110039996746927,-3.9938273520871994,-9.279327084350586,-4.091591525123935,64.91245813583288,103.66907567531709
1698672668191.0,0.01666666753590107,2.018055102141201,0.30886312007606026,-0.7621504931777715,2.5397991947449743,-4.186710515594482,-9.462034598541258,-18.57764325938195,64.49602833232636,118.90732333626393
1698672668208.0,0.01666666753590107,2.251370667671412,0.5278028081208467,-1.1312363190263508,2.7673980631288138,-3.9269393432065844,-9.852439106750488,-31.68445525774543,56.771203909352415,130.14351727569016
1698672668225.0,0.01666666753590107,2.3305374356277286,0.9732119951933622,-1.528538185533881,2.7850553003724663,-3.3837551338195797,-10.302399381256103,-46.14427650426966,38.72080002747668,141.0010182067742
1698672668241.0,0.01666666753590107,2.3375002603776753,1.293639004074037,-1.588511300459504,2.7088897600587454,-2.966715132141113,-10.413580120849609,-49.60768443237012,28.6550102287509,142.02965835615646
1698672668258.0,0.01666666753590107,1.9678768205210566,1.9694763646721838,-1.2668383831709622,2.2498015551911665,-2.191292777197063,-10.142586420440674,-45.27045283770949,27.968171528456296,136.9479702929103
1698672668275.0,0.01666666753590107,1.6235384824380277,2.4313036025822163,-0.7592278837293386,1.8254293291947803,-1.615936483001709,-9.689483756256102,-33.96716936516081,42.27483090548487,123.59667167320622
1698672668291.0,0.01666666753590107,1.4238858247958124,2.408235446205735,-0.6279530351340771,1.6207250689851118,-1.5758336051940918,-9.586682722473144,-24.951919009843643,58.677164782149895,111.97008461138957
1698672668308.0,0.01666666753590107,1.4042176861211657,2.3671169616147876,-0.7125672548413277,1.6464627916307188,-1.5746365043640136,-9.688885205841064,-15.916869643669907,72.48409166100718,102.78436810231452
1698672668325.0,0.01666666753590107,1.5457947330221533,2.0835230150908233,-1.0798340485692024,1.8899231912141665,-1.833658904211223,-10.063577181133628,-6.863791566295098,75.96763157168625,99.02000496391037
1698672668342.0,0.01666666753590107,1.6455829948551952,1.9007219773977995,-1.2753612968444823,2.056769119406305,-2.0126254783079025,-10.257957012939453,-5.212997169379192,66.94867413119708,102.2681082538991
1698672668358.0,0.01666666753590107,1.8447561984173952,1.7068299291089175,-1.3298451667040585,2.291251317563094,-2.203712990570068,-10.311976187896727,-6.781984256171739,53.05305724596716,108.47325315258564
1698672668375.0,0.01666666753590107,1.8200493349231779,1.7386574382632969,-0.7169277881383895,2.253093765136972,-2.163759458105266,-9.703250415802001,-8.9020288707668,37.8379126998879,118.42572669788632
1698672668391.0,0.01666666753590107,1.7878480240203438,1.8026511870071291,-0.23380232613384722,2.1832129676485432,-2.0904373245239256,-9.22590645980835,-9.884887115916111,35.735822945073515,124.04246445995462
1698672668408.0,0.01666666753590107,1.5409268347248435,1.978573863363266,0.5444523296266794,1.8977043466096744,-1.9023425643369554,-8.454524612426757,-10.428374659684135,39.07139363757343,127.53897489986754
1698672668424.0,0.01666666753590107,1.355592479161918,2.213266416335106,0.948849707353115,1.6750436287477612,-1.6470608123227952,-8.060379748645424,-12.22520618501773,46.92273365454352,128.93893145328838
1698672668441.0,0.01666666753590107,1.2562129442602394,2.250536116543412,1.0321955145597457,1.565509012393467,-1.5885528015136718,-7.98645818786621,-14.819514376142733,54.328171601738504,128.8743315241184
1698672668458.0,0.01666666753590107,1.2109852707847952,2.3912667757481336,0.895758753156662,1.534683592953719,-1.4190133964538574,-8.134599415588378,-17.971342734685553,64.74196978396019,126.28029397923925
1698672668475.0,0.01666666753590107,1.6444956380099056,2.5116274316191673,0.29496845023632046,2.0241482679171487,-1.2574050766542553,-8.750507792663575,-16.85860075850563,72.89983161540752,123.81846157593488
1698672668491.0,0.01666666753590107,1.7932140810981392,2.3920760463044046,-0.003955459627509117,2.2242137806765734,-1.3518258201047777,-9.057563571056724,-15.661996012149004,73.12975627343766,127.42436432559472
1698672668508.0,0.01666666753590107,2.1203855958029627,2.2630700194239615,-0.5075917947411537,2.599205579165928,-1.4483423667907713,-9.572167290386558,-19.002132686109075,61.94888686628853,132.86597603734387
1698672668525.0,0.01666666753590107,2.3067580622419714,2.3754285706251856,-0.7627759315997362,2.7923877621524036,-1.3028943236753343,-9.840467513927816,-22.92034583556776,52.881264327963,135.80426877677002
1698672668541.0,0.01666666753590107,2.3305099630989132,2.3751906702160834,-0.6586416033864021,2.8066033345095813,-1.263539926147461,-9.752780462646484,-24.449319539768254,49.42960432523496,136.96007338811955
1698672668558.0,0.01666666753590107,2.1182811708696185,2.3181810812711716,-0.2829372361809015,2.5896288821231574,-1.269225862829387,-9.39769042892456,-21.46925165583104,56.85072097166971,135.18464767564478
1698672668575.0,0.01666666753590107,1.7837579782277344,2.0567337923645974,0.11011807879805564,2.2810759970400483,-1.4993687896728514,-9.015515988922118,-19.03222137695027,68.79545482993097,132.69326787399095
1698672668591.0,0.01666666753590107,1.6414724907964466,1.872698828962445,0.1380003574579954,2.1938373105807227,-1.6573863915041087,-8.994566724395751,-18.02127483261293,77.91301288127846,130.05221130686542
1698672668608.0,0.01666666753590107,1.6139464782282709,1.630858450062573,-0.12227730314731597,2.2668604977481066,-1.8685247581481932,-9.260023833465576,-18.2174822618053,82.8065019121341,129.76217415395
1698672668624.0,0.01666666753590107,1.7196017323985695,1.419377845852077,-0.38729192914664745,2.451213806384429,-2.0593124106809495,-9.526976734051107,-19.461806124798226,81.7068756067079,133.10630307347995
1698672668641.0,0.01666666753590107,1.711728514805436,1.3588418363466859,-0.5219944141030312,2.513912254620716,-2.0964228286743163,-9.664643329510092,-23.164019664397134,79.10109013645634,137.3265676786041
1698672668658.0,0.01666666753590107,1.671880780802667,1.3437956583842634,-0.7459937236249446,2.549825133392587,-2.0673934258058666,-9.898227628979086,-30.065755065965767,71.48732800448137,139.85228967140478
1698672668675.0,0.01666666753590107,1.5517980650901793,1.3675158489286898,-0.9545429505586623,2.4721631439760325,-2.0003557793214917,-10.118644403839111,-33.0191015423226,66.20313166253351,138.3803702448887
1698672668691.0,0.01666666753590107,1.4410194765567779,1.2270771584078668,-0.9269225377053022,2.3964465895388276,-2.0962734833315015,-10.103680643463134,-31.725122204063688,63.09524532601596,136.644600610735
1698672668708.0,0.01666666753590107,1.1720993675515055,0.8587155551806092,-0.5765472575455903,2.176030472265929,-2.4154504921510815,-9.765798934173583,-28.7473475561403,64.63565788952893,134.68190477159683
1698672668725.0,0.01666666753590107,0.8752658540956676,0.4592500808984041,-0.18275719855129718,1.92628531159088,-2.779518782098591,-9.379285003662108,-31.894900216262695,68.26244735767068,133.09603046896825
1698672668741.0,0.01666666753590107,0.673328592647612,0.2855567710295319,-0.17387421939373016,1.7782937214724719,-2.906710745294392,-9.380331882366537,-37.81132277344904,66.43205228275565,129.37740227724652
1698672668758.0,0.01666666753590107,0.549475418485701,0.16576193234771489,-0.5830664301812648,1.7073654242251068,-2.945167317199707,-9.810839268383383,-43.78337380633056,51.71967454638644,126.19547669012603
1698672668775.0,0.01666666753590107,0.31599129145555194,-0.14436755440235138,-0.7283002460241317,1.484555105292052,-3.188179077966511,-9.977086646160483,-43.271007165742056,39.03483163494635,125.76681401781603
1698672668791.0,0.01666666753590107,0.2231046987697482,-0.20150340007543563,-0.5883405711919069,1.3709802371036262,-3.1841388626649976,-9.859621711730956,-38.62546083194705,24.988462229450505,124.39080410762526
1698672668808.0,0.01666666753590107,-0.14987974195256829,-0.1290101185336709,0.04849953475296497,0.935235681085661,-3.0445275628790256,-9.251644127655029,-33.395957229778055,14.74806376723523,120.14110138717835
1698672668824.0,0.01666666753590107,-0.5759752298112958,-0.19367986684292554,0.8912649488687515,0.45714324481226504,-3.063680591638386,-8.428935997661947,-31.698142956842137,15.777573058189374,116.21796367132808
1698672668841.0,0.01666666753590107,-0.7432645909219979,-0.2687421220898628,1.221625615003705,0.25034414948150513,-3.0936081123903394,-8.116642903137206,-30.376805295862734,20.8274051191466,111.20674949993811
1698672668858.0,0.01666666753590107,-0.8505291799850762,-0.20842589281499385,1.4717869552642107,0.11956073766499757,-2.9735984619140625,-7.886798959240317,-29.723511362129354,27.58977221824842,102.72881134360563
1698672668875.0,0.01666666753590107,-0.7244181438937782,-0.11619301479756831,1.2124708331674336,0.24645357178375124,-2.8324904938295483,-8.160336498913168,-31.772226603674678,29.541452669802666,95.40759987416067
1698672668891.0,0.01666666753590107,-0.5943270251903683,-0.12221417478322982,0.904712459462881,0.3827733557436615,-2.779668419702351,-8.48430191105306,-35.65522671286736,27.37132910821307,89.39471114023164
1698672668908.0,0.01666666753590107,-0.28609168162383136,-0.25061872863918544,0.1139408519566059,0.6937203694216907,-2.817975938525796,-9.299827436065673,-36.54053875761149,20.6597444655903,83.06675944026826
1698672668925.0,0.01666666753590107,0.019286153619736433,-0.21510113279521464,-0.5168775094807148,0.9894042744509876,-2.717569106402993,-9.949104998779296,-33.03601992089672,13.813339572714291,77.43231099768214
1698672668941.0,0.01666666753590107,0.1379800453223288,-0.18642434275671838,-0.6900573168694972,1.0892125561587511,-2.63362211843282,-10.13869584274292,-26.620793771266218,9.425854007461648,68.12380134770859
1698672668958.0,0.01666666753590107,0.4596209600374102,-0.2826353306248784,-0.7108189498692751,1.3923783413760362,-2.6837507156923412,-10.173111907085776,-13.220137643298683,11.362948590043333,54.845732601190804
1698672668975.0,0.01666666753590107,0.5126750893548131,-0.7399279938451946,-0.19833061525821685,1.449240557739511,-3.1355066414430737,-9.661651161956787,-2.486142540664332,17.276610043257705,47.6341320075462
1698672668990.0,0.01666666753590107,0.5027534147992729,-1.0134531124278903,0.046240357649326325,1.463456203161925,-3.423409391076863,-9.411008175659179,3.880557035903935,24.463698795518425,42.75170105295682
1698672669008.0,0.01666666753590107,0.5436470045931637,-1.4175120519801974,0.14120412193536758,1.5587752836916595,-3.8591540932253,-9.30222105320394,5.704892879251525,27.395328685409204,39.37921660308756
1698672669025.0,0.01666666753590107,0.8022485486797988,-1.5478776767760514,-0.38702538716495033,1.8558060002200305,-4.018218866021931,-9.818770645904541,8.931593344589201,21.749835826935165,38.04465228078043
1698672669041.0,0.01666666753590107,1.0171399842470883,-1.4818813560381532,-0.6784837834537029,2.087444864709675,-3.9930797485902905,-10.097544917187093,15.76992324631896,10.946423163888445,36.77679841609682
1698672669057.0,0.01666666753590107,1.2720046798929572,-1.4117743851110338,-0.8076923471689224,2.3261168427065013,-4.008791696985066,-10.205284576416014,27.970956538090366,-0.9409532203222846,35.344757049049846
1698672669075.0,0.01666666753590107,1.3214813891150057,-1.625058239351213,-0.26707681922614573,2.3454200935915113,-4.311657914733886,-9.642796239361166,35.788391496020516,-3.927909456759164,36.00253158687875
1698672669091.0,0.01666666753590107,1.2676932464346289,-1.7277447068437932,0.09811901344656944,2.2550390539858487,-4.517559549768269,-9.251344267925619,39.30494171095826,-4.596072285428838,38.761637728524185
1698672669108.0,0.01666666753590107,1.177764553706348,-1.8917495663911104,0.7114677691668272,2.113032894952595,-4.818330841064453,-8.601468154796958,32.932163479472095,-0.9144201765526064,45.804583876088245
1698672669125.0,0.01666666753590107,0.7810358839768916,-2.032636877462268,0.9476181197315454,1.689259201104939,-5.034707108362019,-8.343941838726401,17.078677991299905,11.191369115450735,54.209155555451034
1698672669141.0,0.01666666753590107,0.58018473726511,-1.8176330675616859,0.6784691704064607,1.492635462829843,-4.850054597583413,-8.602814893230795,-4.136316030696001,28.38685870948349,59.655623531700066
1698672669158.0,0.01666666753590107,0.6678575408253818,-0.6406456357076764,-1.2912877647727727,1.6165353256776929,-3.6423292053773997,-10.578929673004149,-23.267855615254252,24.87873524043425,54.38387520951454
1698672669174.0,0.01666666753590107,1.0585675347872079,0.9910030879497528,-3.4494431192606685,2.004096792480722,-1.9774615182071924,-12.748076377105711,-11.689702278615805,0.9423029297353026,42.242162110684696
1698672669191.0,0.01666666753590107,1.42082687561661,1.7418904288351535,-3.6076118200004097,2.3113027199342846,-1.2416931282594799,-12.906841290172935,18.273544454512766,-23.44029398613498,25.022693430023317
1698672669208.0,0.01666666753590107,1.2202581260427832,1.7425541534408926,-1.7990093233734368,2.0177137413576243,-1.3748708878666163,-11.062708045959472,57.753087998771356,-17.96756393252724,8.590820692745277
1698672669225.0,0.01666666753590107,0.49015872164219615,0.2779948113426566,1.1263830337762832,1.2704235481813548,-3.001880261285603,-8.08252494495809,71.86609614490443,7.009883336226147,2.2568059192330487
1698672669241.0,0.01666666753590107,0.26317703530862924,-0.184268187636137,2.188481519168615,1.0934023359987883,-3.6409824669435618,-6.951115607452392,72.85491629142552,35.06376306659553,2.9391883479810432
1698672669258.0,0.01666666753590107,-0.07821019788384437,-0.9873574249237775,3.197035461378097,0.8972273644044995,-4.662857955279946,-5.842300963592529,60.41650660523949,57.294765229990574,15.538589861772506
1698672669275.0,0.01666666753590107,-0.004655936047062277,-0.9492989124253391,2.6905887450188395,1.0820298781130462,-4.754286238916218,-6.28223493412435,42.21006363668022,51.7107338287629,27.726307699756973
1698672669291.0,0.01666666753590107,0.0502394372228533,-0.7325462130308151,2.10835175139904,1.2047327131960541,-4.619463050189614,-6.820780670055747,18.303742428380687,34.835843069086785,41.86493417791947
1698672669308.0,0.01666666753590107,0.09369615550301968,-0.585522298900783,1.051779335951805,1.243638490173593,-4.5058881089359515,-7.8633064399719235,-9.016817883731681,6.009426681793475,59.56666031776065
1698672669325.0,0.01666666753590107,0.0888963540058583,-0.3810384217098355,0.4470096080064773,1.1655275879457592,-4.28696800237447,-8.483553723034262,-19.26312616712631,-11.837435855268595,68.13642353729477
1698672669341.0,0.01666666753590107,-0.0012265461202710867,-0.2491968791425228,0.4628565809577703,0.9717468910768627,-4.126407145801187,-8.492083066448568,-20.58519295079961,-14.244348415004191,70.2053219878375
1698672669358.0,0.01666666753590107,-0.1557666810993105,0.1520584011659026,0.723299661257863,0.6946180489137769,-3.695899467523396,-8.256703115734458,-10.84849020402151,-5.940603134395488,65.09756992271856
1698672669375.0,0.01666666753590107,-0.1754833350908011,0.500039771926403,0.9442232165962458,0.6066311379030347,-3.351433703668415,-8.040476778301596,1.4110302110561284,0.5057681976025982,59.98356823450906
1698672669392.0,0.01666666753590107,-0.13581336880773306,0.45779286782741546,1.1052145735412835,0.593612666375935,-3.420715914209187,-7.872284696197509,10.510820165608067,3.888252524664424,57.07188249699472
1698672669408.0,0.01666666753590107,-0.06443769311904907,0.09109510615915059,1.3943611857563256,0.5994484598573296,-3.841945768792927,-7.564479560741781,13.116813956629317,2.9667991742574085,57.92115846367786
1698672669426.0,0.01666666753590107,0.058211804341524835,-0.28390345086455343,1.7971265783667563,0.6660372300630435,-4.253898384204507,-7.149385432434082,8.52552066918537,1.4480003174861147,61.49664638096365
1698672669442.0,0.01666666753590107,0.12901479470878838,-0.4484732508182525,1.9284639708042144,0.6730702339723705,-4.439897925677895,-7.012616662597656,1.0112184712436734,0.15847100755402108,65.51095346185524
1698672669458.0,0.01666666753590107,0.19471907369755206,-0.6869356777176261,2.1220079363077877,0.6447887268617749,-4.676175702014565,-6.825270382690429,-11.119899723523014,0.9032219746866648,70.74989297036261
1698672669475.0,0.01666666753590107,0.09907989436797797,-0.9125316087812185,2.040736012765765,0.47988801445327695,-4.873996614184976,-6.922085327801108,-19.797477479105794,3.9293262941251186,74.3475858326401
1698672669491.0,0.01666666753590107,0.09658807755224406,-0.9703130588814616,1.85172735260427,0.41060576737988735,-4.886565880639851,-7.133523846435547,-24.418124358281514,4.146099849795221,76.06446316354953
1698672669508.0,0.01666666753590107,0.04199996186690405,-0.905562938812375,1.2937211293995379,0.25842432435620577,-4.749348197992146,-7.725639259991049,-26.162271219452215,-2.523769199028286,74.03837633872446
1698672669525.0,0.01666666753590107,-0.08417327100671827,-0.7618181924834847,0.9788052851557731,0.04698639024365693,-4.54838548066467,-8.066364083752037,-25.908517738955194,-8.709041021994443,69.51890163662955
1698672669540.0,0.01666666753590107,-0.16133589606638996,-0.7826905923813581,1.0025012180417776,-0.1182135380068561,-4.512023250690103,-8.067261909374594,-23.930797191190276,-10.318823548039008,62.4790051685299
1698672669558.0,0.01666666753590107,-0.23274441457875072,-1.2632415277227758,1.1511936499059199,-0.29059603927179706,-4.926668758447468,-7.945307846832275,-17.040686771589,-4.4015245922047805,54.43015998642513
1698672669575.0,0.01666666753590107,-0.31539288717098535,-1.8651880149409175,1.2600795565605163,-0.4224268092833459,-5.498134767206013,-7.848193041992187,-8.566994431599335,4.276437788405636,49.9536266836421
1698672669591.0,0.01666666753590107,-0.30576431381050495,-2.0335954933613536,1.1324608923852444,-0.44247822992084546,-5.6534585999086495,-7.980622321319579,-1.7343914300452188,7.738603475850801,46.39734867339697
1698672669608.0,0.01666666753590107,-0.3545268103485927,-2.208510161718726,0.7688198879390955,-0.5280709392714313,-5.832874379077554,-8.341846912273764,5.053962617857793,2.5921805871985453,40.68300409299462
1698672669625.0,0.01666666753590107,-0.42958387796375896,-2.2157266689687964,0.7542302215725183,-0.63685749547109,-5.855768640191853,-8.349478430065512,8.788292560707747,0.8018668766021415,37.47824859857337
1698672669641.0,0.01666666753590107,-0.49364163185451176,-2.2074854948461056,0.8250181605011224,-0.7309795482359827,-5.870283780017495,-8.268823761638998,11.32991779521715,3.9914904070823436,35.67793709185766
1698672669658.0,0.01666666753590107,-0.7335434073746204,-2.195915760822594,1.0017594597637653,-0.9850641628874465,-5.889886013849079,-8.079083280071616,7.879847519018433,16.616269061848165,34.03119214334592
1698672669675.0,0.01666666753590107,-0.8035637229315936,-2.1942498734369873,0.8036059546381235,-1.0313022189818322,-5.89572188039571,-8.27480926578939,-1.5878137561877468,29.460187079057853,30.73371000075258
1698672669691.0,0.01666666753590107,-0.7150231235608459,-2.1151544171512127,0.43059097264707086,-0.8867522937498986,-5.7978591797977685,-8.6566850151062,-12.993372801533322,40.35509695622606,25.53945017470085
1698672669708.0,0.01666666753590107,-0.22949931344399227,-1.7873218081891535,-0.5910977609455585,-0.284460938616842,-5.418078941455483,-9.700706576538085,-17.740227916192538,50.04364857690286,19.756755891274178
1698672669725.0,0.01666666753590107,0.295888085831888,-1.4479621353015302,-1.5348545290738342,0.34566301538210825,-5.0402439919620745,-10.659733394512534,-15.274408389960168,52.12098231107054,18.079585865104622
1698672669741.0,0.01666666753590107,0.5024840963385999,-1.330674603265524,-1.9157985504984854,0.6585552037445828,-4.89000783778727,-11.052383051300048,-13.77846377303856,50.33376427699374,17.366959785598635
1698672669758.0,0.01666666753590107,0.8412411271579563,-1.2080743517741561,-2.202663773778081,1.1305122425355016,-4.721515895953774,-11.353753185272216,-18.261791406498467,47.48136116638052,19.814532461463315
1698672669776.0,0.01666666753590107,1.005506098946184,-1.132082998983562,-2.0151772086173296,1.4134769147126003,-4.572925755420327,-11.189300874218343,-30.354887218816163,42.580652625572185,22.73089346346453
1698672669791.0,0.01666666753590107,0.9996091498620807,-0.9450628822907805,-1.9483610959291457,1.4850037258423865,-4.310910311236977,-11.146505104064941,-33.94839659022703,39.216251704585645,22.418676978766786
1698672669808.0,0.01666666753590107,1.0333360628969968,-0.7181529460191727,-1.7679793943375348,1.5910967869080601,-4.013730030170083,-10.98744033126831,-26.35621614848202,37.382653270949874,22.181302291899453
1698672669825.0,0.01666666753590107,0.959476972894743,-0.23377543812692164,-1.3466267901569604,1.5863083835877476,-3.489549504199624,-10.575787283325194,-10.494658230484523,35.62937444685886,23.132366860236
1698672669841.0,0.01666666753590107,0.6244102479606867,0.07717004118114709,-0.5362210923761129,1.3332711225647478,-3.1826424866273997,-9.758017194256185,4.955609174470078,33.11675617198086,28.006555484044473
1698672669861.0,0.01666666753590107,0.29449564509280024,0.0844090525239706,-0.2025982095748186,1.0544962667603046,-3.1902742966800925,-9.415047806438803,-0.31606924499816147,30.785851664876457,32.10273604251701
1698672669875.0,0.01666666753590107,-0.11391564445011317,0.18040040629208087,0.07662380547523498,0.7038954342164099,-3.0761008050113916,-9.137320413860678,-18.004952388043893,28.639690114442562,32.67884542353466
1698672669891.0,0.01666666753590107,-0.28269451346620916,0.48711423937976356,-0.056764674273133274,0.5773020214356481,-2.7253505540594456,-9.28231925190389,-24.066948474558018,28.746876273087572,29.728521305885558
1698672669908.0,0.01666666753590107,-0.21842647782564162,0.7135989359766245,-0.22683365616500376,0.6893804405212401,-2.4555530776977537,-9.462782202038168,-16.32517322961139,30.03543585624008,25.669807750105125
1698672669925.0,0.01666666753590107,-0.16310243081487713,0.9718886376351118,-0.48467561405599113,0.815525086621195,-2.1875527138859034,-9.71671780014038,4.699825420242271,30.233542078021717,23.428967824943808
1698672669941.0,0.01666666753590107,-0.1139866638597101,0.9596820670127868,-0.3495832529991865,0.915183730725199,-2.2351371796205637,-9.56393722217977,16.875179335168546,27.06290167095739,23.01942285212067
1698672669958.0,0.01666666753590107,-0.2062842046111822,0.8738520417749881,-0.09743687640130519,0.8622120189942419,-2.373552255359292,-9.288903890991211,19.26222628970316,22.427223252965764,24.671160668915686
1698672669975.0,0.01666666753590107,-0.44479076291322706,0.5562970811992883,0.7101414889991283,0.6564603138245642,-2.755277782550454,-8.454524612426757,12.051047460239806,17.83001246037965,29.04310499248561
1698672669991.0,0.01666666753590107,-0.6007783202216029,0.32201310902833935,1.4928087005048989,0.5147534299988299,-3.0192385155826806,-7.659349801525473,3.823648326626212,16.64902152646567,32.39014698769656
1698672670008.0,0.01666666753590107,-0.6525344456177204,0.2644645909011364,1.7022686125427484,0.47240606120005246,-3.089268914142251,-7.44417151184082,-1.4365757588822106,15.546946598222016,33.70416268588571
1698672670025.0,0.01666666753590107,-0.5349127862565219,0.2710027604982257,1.8852040902704,0.5964555616516619,-3.094206955066323,-7.256226681518554,0.6495510967899184,13.815543162495267,36.067114440575814
1698672670041.0,0.01666666753590107,-0.47091048888005316,0.23803543365895746,1.9206804773211479,0.657208501843363,-3.148076200158894,-7.213430326843262,6.662383801823409,10.677909644595026,38.16527342152286
1698672670059.0,0.01666666753590107,-0.3584725157670676,0.22943127144277095,1.9317010530292986,0.7549217109680175,-3.190573571887612,-7.191582652172446,10.70284751902839,6.455730878955972,41.528724946214766
1698672670075.0,0.01666666753590107,-0.40303047328740355,-0.12979367012679577,2.136733211752772,0.6708253776550293,-3.5971389413028954,-6.973411610412597,5.28220448803117,3.479853742961382,49.550170824464026
1698672670091.0,0.01666666753590107,-0.5021743728023023,-0.5246630487903953,2.215000108259916,0.5310639288086444,-4.007444958551228,-6.893953458294272,-5.832089357730556,2.037316296150808,54.02133218346485
1698672670108.0,0.01666666753590107,-0.5064763808451592,-0.6358282985538244,2.1298995663404465,0.4791396803040057,-4.10485933085978,-6.989572471618652,-18.434122201899765,0.15887486916912452,56.68507180882397
1698672670124.0,0.01666666753590107,-0.5904419273853302,-0.7257675126761197,1.642018434241414,0.34072489682622253,-4.1542400323614475,-7.498489962005615,-27.302805235364918,-2.9294124262880508,57.01020588878951
1698672670141.0,0.01666666753590107,-0.4939153707619756,-0.5244777553513645,0.9289490750968455,0.35179800643920894,-3.881749371393025,-8.246228483471274,-26.36626335675111,-11.203496116322093,50.251631252224335
1698672670158.0,0.01666666753590107,-0.4687879437681287,-0.46247196555435655,0.6983195337802172,0.30226803265996277,-3.7744595017582174,-8.499864806365967,-19.61979523048979,-16.622559666073748,44.00372936933351
1698672670175.0,0.01666666753590107,-0.41316980918161567,-0.7931506115972995,0.4163847526401281,0.24779987182617186,-4.065504348810017,-8.80452638309896,-12.525500574519217,-21.069094778022087,36.305703193568114
1698672670191.0,0.01666666753590107,-0.340210407965444,-1.261165598231554,0.2595867557317018,0.24585461950991302,-4.515614553180336,-8.972719049724937,-7.272390984805009,-17.14374237333345,29.245712308930283
1698672670208.0,0.01666666753590107,-0.3328240240411833,-1.4968486235454677,0.1606353831142187,0.19617493506167083,-4.748450664630532,-9.076118633922935,2.5197366126536282,-12.224401076469313,21.364558516233085
1698672670224.0,0.01666666753590107,-0.3618676015654579,-1.592254578641057,-0.03160685214102268,0.1197100830078125,-4.889857907922566,-9.254636879730224,25.074604575262704,-7.878188636823766,7.835187473356658
1698672670242.0,0.01666666753590107,-0.3257066663166508,-1.6914570034101604,0.017083821269869803,0.13527243033144623,-5.069423324695229,-9.177872789001464,39.073565637729494,-5.4468073512734225,1.2996347348916861
1698672670258.0,0.01666666753590107,-0.40075302987471223,-1.845585781109333,0.13690905508995055,0.05476739950869232,-5.32410652629435,-9.020753305053711,42.797084244896965,0.9489557474303065,-2.0384925827919314
1698672670274.0,0.01666666753590107,-0.491881124988012,-2.0350369243413207,0.25148177520930765,-0.017657200711034236,-5.636699480548501,-8.857498679351806,32.08122777682064,8.043398960015328,-3.3973292629751723
1698672670291.0,0.01666666753590107,-0.47260907295886423,-2.0941595599174496,-0.06941548153162003,0.024690204620361325,-5.756259925952554,-9.153032946777342,18.09615419648378,8.513035937156234,-1.6844243273983444
1698672670307.0,0.01666666753590107,-0.4591501641878858,-2.0299933772161602,-0.3703215051233768,0.05237319784853607,-5.719299145562946,-9.44213221271932,4.540259394626079,3.0234323280908035,1.5436513538400312
1698672670324.0,0.01666666753590107,-0.26460093063190576,-1.7254375989452004,-1.1218208404272794,0.2341828864166513,-5.408801410022377,-10.196755233001708,-7.913711596923356,-9.929207359666677,3.594779786596486
1698672670341.0,0.01666666753590107,-0.3192079884797335,-1.3992282072708009,-1.6397960820168256,0.13572134314272552,-5.059247967639565,-10.72647176578939,-12.785110088455879,-23.776711538609373,2.86713412110564
1698672670357.0,0.01666666753590107,-0.3969412530342117,-1.28206108674407,-1.587052918344736,-0.008379705810546874,-4.906617611804604,-10.691007653698325,-17.96889752696269,-28.77493810529257,-0.5377284136372332
1698672670374.0,0.01666666753590107,-0.5963195507144555,-1.0903680098041892,-1.1157301223367453,-0.28012159423828126,-4.648792020526528,-10.248529259380698,-22.741012388719906,-18.537560294237732,-6.857795513977473
1698672670390.0,0.01666666753590107,-0.5201749435909092,-0.8957496930673718,-1.0399474438607692,-0.23567915285639462,-4.406379102435708,-10.192265520367025,-16.64368031853472,-15.556329570594322,-9.859804099962886
1698672670407.0,0.01666666753590107,-0.4653493110889569,-0.673362202656269,-1.0885901864767074,-0.21143787931362165,-4.160524227197468,-10.250774407958984,-1.9077708729275265,-18.752248507776866,-12.201012801203898
1698672670424.0,0.01666666753590107,-0.3380858535595238,-0.017250994530320165,-0.8361807750284671,-0.13811547173764555,-3.534590422931313,-9.988159828838706,18.861871336408278,-25.520954022428455,-16.415022660595618
1698672670441.0,0.01666666753590107,-0.44649113709032534,0.21812428000867365,-0.2979536035269499,-0.2883516076461412,-3.352331529290974,-9.430161204418539,23.485024895009392,-21.39999866028899,-19.507597420541284
1698672670457.0,0.01666666753590107,-0.5295690506083891,0.22646686867922544,-0.01884557024538517,-0.39264906313247044,-3.398270565906167,-9.12998817127645,21.298640360553293,-13.189761230738698,-22.501913079087146
1698672670474.0,0.01666666753590107,-0.5096366349743678,0.3808578044459224,0.17895546818077562,-0.36780918437573124,-3.299659385028481,-8.909722203063964,13.231173521450131,-3.2831428007611336,-27.154837724733053
1698672670491.0,0.01666666753590107,-0.33366226496361195,0.43117286418825385,0.13873451695144176,-0.16325460743559522,-3.2727249086126684,-8.939948999023438,6.044605998000449,4.543924218002614,-29.429574171197856
1698672670507.0,0.01666666753590107,-0.29548063754215836,0.3853986627459526,0.05147182856202125,-0.07990646214140579,-3.3239006768375634,-9.024045332336426,-0.9264564639740499,8.16533491217298,-30.267047570995214
1698672670524.0,0.01666666753590107,-0.03209262636397034,0.30853812590539453,-0.29242461097240446,0.2419640783447772,-3.3877956413820383,-9.371653485870361,-5.715177863481094,3.8645709781515203,-28.50900468995812
1698672670541.0,0.01666666753590107,0.19744186799125746,0.2410465981736779,-0.341312852782011,0.4996399954864755,-3.439719889886677,-9.425971351513265,-6.793226747545581,-2.2079389039293695,-25.69609373312592
1698672670558.0,0.01666666753590107,0.18295809141825883,0.17877455865591763,-0.2549228555738926,0.49320557852480557,-3.4841622582033276,-9.34651378391683,-7.015779497027161,-10.886437881276455,-23.59231179894466
1698672670575.0,0.01666666753590107,-0.017638550809491425,0.11718845557570456,0.24977029511630533,0.2691981039627455,-3.5272581803470846,-8.850016214641927,-3.1962649289526874,-21.703450304734314,-23.42164415460626
1698672670591.0,0.01666666753590107,-0.33784722249805926,0.1937397803366184,1.1464765582561491,-0.08723866819301619,-3.4486984383732078,-7.95518392868042,1.9379189010371396,-27.724461841133778,-25.765903389085327
1698672670608.0,0.01666666753590107,-0.47560661080703137,0.24144144271016119,1.5536258650392294,-0.2669534303084947,-3.4118878801092505,-7.5447273970454924,8.356062822103707,-28.85180505421189,-30.145849279267924
1698672670625.0,0.01666666753590107,-0.5905041789665818,0.32548604583591223,2.4411878677368164,-0.42048159349970515,-3.368193407550454,-6.641664458355307,16.975533597096252,-21.24095087527607,-36.06544787441833
1698672670641.0,0.01666666753590107,-0.7370693895436823,0.14713614233285188,2.9394349110275506,-0.5714659722259268,-3.5907048166021704,-6.125415309906005,20.138360267750084,-12.898360601310213,-38.26791750436981
1698672670658.0,0.01666666753590107,-0.7453200621470809,0.07038344978094101,3.0222628318399187,-0.5626372622725554,-3.7129584466129537,-6.0233624641418455,18.566948890689005,-5.054982023591417,-39.112777753754536
1698672670675.0,0.01666666753590107,-0.8400851620558649,-0.2260460129186511,2.8274878632366653,-0.6090249742370099,-4.053533340509236,-6.198437876018882,10.209003497695312,3.141671013473364,-37.20597676768915
1698672670691.0,0.01666666753590107,-0.7600759519260376,-0.39569501583278177,2.2057225768268105,-0.4801869791335426,-4.238635348621011,-6.81225132664144,4.4407738473834355,7.005030486820853,-36.93699708798488
1698672670708.0,0.01666666753590107,-0.798850869065523,-0.3866699978560209,1.8650006756752728,-0.4578909944396466,-4.234146220508218,-7.1489365196228025,2.3894902412667745,13.235234068911705,-38.24440457815204
1698672670725.0,0.01666666753590107,-0.6602635785650461,-0.33188889861553905,1.1474626466840505,-0.20964217326957732,-4.188806026569009,-7.857620211029052,7.701161232594437,24.438348548413924,-37.70371314307549
1698672670741.0,0.01666666753590107,-0.39783962664604183,-0.5963391687303781,0.31185411858558654,0.1536779286591336,-4.476110518048704,-8.677783917236328,15.18034814735263,30.044642951241258,-31.503059093768233
1698672670758.0,0.01666666753590107,-0.3343451326612383,-0.6949509341299533,-0.2032125420808792,0.3104981739319861,-4.614524717004597,-9.169343445587158,21.467494589667055,24.705190378907982,-21.50401390361182
1698672670775.0,0.01666666753590107,-0.06810987882576883,-0.6809189016461372,-1.2094295657753944,0.6435914068359881,-4.66974099279195,-10.139892359051109,23.46061550646306,3.8382593819213384,-7.429493873451765
1698672670791.0,0.01666666753590107,0.13046682014800606,-0.3672071724951267,-1.7134154449790715,0.8340800764221697,-4.406678085382283,-10.621725443157553,18.988040298304046,-12.940472132637927,-0.5223291651840577
1698672670808.0,0.01666666753590107,0.18841690481342374,-0.14016162714511154,-1.6997545838952064,0.8536826755799353,-4.2142444192081685,-10.595239587292074,9.819667347078951,-15.425119929091084,3.495252831331999
1698672670825.0,0.01666666753590107,0.1590704718850553,-0.055957157282531256,-1.4607570272058248,0.7921815473694354,-4.147805323138833,-10.350433052062987,1.7255021522838587,0.4890643830179502,6.624866853372998
1698672670841.0,0.01666666753590107,0.21281484848894178,0.09080927495509386,-1.6209668783843516,0.8520365158081055,-4.005499669702351,-10.508150501903891,0.5194168365549877,10.963307391516716,8.250813022088396
1698672670861.0,0.01666666753590107,0.2568057467110455,0.183662038436532,-1.8445511773645877,0.9165304691590368,-3.9149692116886374,-10.729165242657064,-0.5561264886620146,13.519898424271265,9.249237268356167
1698672670874.0,0.01666666753590107,0.4230238983936608,0.30330168655663725,-2.1436773318022486,1.0998365337647498,-3.790919638171792,-11.029039585113525,-5.263003118726972,6.2309233132746416,11.014643093318533
1698672670892.0,0.01666666753590107,0.41899676176942885,0.024985388174653053,-1.7902689675569534,1.092653928784281,-4.053234357562661,-10.683226498302817,-11.815119919702871,3.5868776846136043,14.374319230946718
1698672670908.0,0.01666666753590107,0.443553841529414,-0.28032150072455403,-1.4651403568565844,1.1043255157470702,-4.312106827545166,-10.38021035068929,-19.96056361346548,1.752080125891671,17.910982645442857
1698672670925.0,0.01666666753590107,0.6428973601572215,-0.1592144104003906,-1.630017030802369,1.278952672399953,-4.153341622216999,-10.563816275024413,-13.257681485618951,-7.59592167786288,16.72274829591408
1698672670941.0,0.01666666753590107,0.9533972876548766,0.5707771497115492,-1.5001146396040916,1.5447090201446785,-3.4171249039798974,-10.439766116985679,5.963296011026032,-15.94363886257448,14.831284499629957
1698672670958.0,0.01666666753590107,1.052774338338524,1.4017767227098346,-0.2940969280987978,1.5640123806275426,-2.6517285607486962,-9.209147048187255,30.797924024234455,-21.582101748845282,11.015322697140949
1698672670975.0,0.01666666753590107,0.9281086787499487,1.5415782843708992,0.41232174098491664,1.3844471830505878,-2.5884315620973704,-8.470535836029052,30.48452079416842,-14.169031065252813,11.080992404689683
1698672670991.0,0.01666666753590107,0.5707317761998624,1.2324226110890506,1.4176707496732472,0.9965865506378934,-2.952050939233601,-7.4411787597656245,12.120615498257324,-0.7085518716660753,12.212654858644184
1698672671008.0,0.01666666753590107,0.4789213613782078,1.0388935508936643,1.3338695999145507,0.9156326070038602,-3.1266783150821924,-7.5333555236816405,-27.12312686396398,19.287197461308725,12.175257011617425
1698672671025.0,0.01666666753590107,0.5939090920392424,0.9466635954856872,0.7806739918619394,1.071405315985158,-3.12817469111979,-8.12651840046346,-50.51253081814048,24.74865428769136,10.987493091367732
1698672671043.0,0.01666666753590107,0.9767388541452586,1.0823869479224084,-0.7621043159484863,1.5049055271424352,-2.8251582512453197,-9.741108729553222,-53.218935220150094,14.705948820812932,11.12868334679565
1698672671058.0,0.01666666753590107,1.2397259198397397,1.4236620990425348,-1.9727140314191578,1.7745523795196785,-2.381782323566079,-10.995071849060057,-33.60919573566586,-0.2123855593347663,9.396306609112173
1698672671075.0,0.01666666753590107,1.4057102627664804,1.645043335020542,-1.982490160024166,1.9204491162506863,-2.113631737628579,-11.02559733570516,-7.758537382943483,-8.487193062657845,4.911411447237749
1698672671091.0,0.01666666753590107,1.3267602063007653,1.5650801559895275,-0.7119780567765236,1.8257284765381365,-2.199822705133259,-9.753378428539634,9.881110021305094,-1.2181601830469544,0.03277183460710298
1698672671108.0,0.01666666753590107,1.2871224617868662,0.8832526150658726,0.7871329587429762,1.8044799002716316,-2.9279595772892235,-8.233808562359213,17.112805031487873,11.461853998093348,-0.9228916388358321
1698672671125.0,0.01666666753590107,1.3258920451641083,0.5830053476437926,1.3599281702786683,1.8749592116424814,-3.2695819344118235,-7.641542926678061,17.0495933382667,15.885928886729749,4.162038096223446
1698672671141.0,0.01666666753590107,1.29907914930135,0.31282763979285955,2.1984084544211626,1.8861821415223181,-3.5926495209291573,-6.777834677776694,15.038640505095083,14.64164258977726,13.24555533852124
1698672671158.0,0.01666666753590107,1.3911848938077687,0.27288550550490615,2.585230427968502,1.9873371981965378,-3.667468615069985,-6.375159886059165,11.455787082563084,7.519572115773186,21.16927657767325
1698672671175.0,0.01666666753590107,1.4188941539883613,0.30100071613788604,2.720935952487588,1.9975124821869654,-3.662680211749673,-6.2303106856197115,4.219335699397037,1.054081109936677,30.858429254997013
1698672671191.0,0.01666666753590107,1.2893025823049247,0.1358718209967017,2.984371200340986,1.8139071423737332,-3.829077227130532,-5.969641979870199,-8.835945082999634,-1.428889021301596,42.98874276810211
1698672671208.0,0.01666666753590107,1.1406338966425507,0.19960604202151297,3.1334722130060193,1.6201263724396004,-3.7386958221986886,-5.834819083404541,-19.764433023901272,4.82882976441724,48.46833716182571
1698672671225.0,0.01666666753590107,0.9783655785642563,0.09625409635752438,3.0383640718132257,1.430834803683497,-3.7901711578920483,-5.953930031475425,-29.511451063873384,15.42228710813282,50.77282932740967
1698672671241.0,0.01666666753590107,0.8312031327463686,0.09515461068302393,2.246633263885975,1.2777555715698747,-3.6960493973881006,-6.78651365879476,-34.789988594093906,21.758341119999123,49.163602608008816
1698672671258.0,0.01666666753590107,0.8551353586062789,0.07599836705327033,1.105767531248927,1.305737803472951,-3.6415810173586007,-7.957727767944336,-31.97844709019029,20.579645129646266,46.553968326159946
1698672671275.0,0.01666666753590107,0.8732003729332238,0.009130231916904449,0.6129734926670789,1.324292866339162,-3.6462200753360983,-8.475773152160643,-24.385122591759306,15.98757576195788,43.159681912460016
1698672671291.0,0.01666666753590107,0.943461219247803,0.00663578475266695,-0.1617383759200573,1.3874398620605468,-3.610755963245034,-9.266009337615966,-11.387526171997978,10.563057452380324,38.14983719399863
1698672671308.0,0.01666666753590107,1.1490760732300578,-0.020552958685159682,-0.4120359097808599,1.5768811049530282,-3.641282034412026,-9.515753913769124,9.875398275611671,8.725463358080093,31.41152089851172
1698672671325.0,0.01666666753590107,1.2061249712720512,-0.17961890052556992,-0.2485486443668604,1.6343419447967782,-3.8426942490726708,-9.335291548156738,21.721676664534495,16.593309380953166,30.440616338183577
1698672671341.0,0.01666666753590107,1.2288406609490512,-0.678328885152936,0.04376958362162113,1.6835728260315954,-4.425233440509438,-9.007434973797201,25.733029688610056,25.201620480615556,35.78991804330001
1698672671358.0,0.01666666753590107,1.4222969481691716,-0.977662252600491,0.03591887012124061,1.900696916021779,-4.783765139117837,-8.98932882374227,18.80923277602228,28.016227031909214,43.086458869462895
1698672671375.0,0.01666666753590107,1.3854653471171856,-1.0679375668093563,-0.06382102252542972,1.887229458618164,-4.912154203143715,-9.07162950581014,8.514768243884479,31.17533978720185,50.9090301296489
1698672671391.0,0.01666666753590107,1.335244541529566,-0.9721174779549241,-0.6069178458899259,1.8525135345458983,-4.840627428546548,-9.603442134094237,1.3557287306674737,24.3518237120082,59.97791966806546
1698672671408.0,0.01666666753590107,1.4061565452292561,-0.5893760517194867,-1.2814987766861914,1.9059342321533708,-4.464737767902016,-10.276062578472494,-3.308699234201206,16.01517484884661,67.10428633105748
1698672671425.0,0.01666666753590107,1.4095184228777884,-0.5206897612452507,-1.5058043756783008,1.868075881869532,-4.391415342059731,-10.504559783935546,-8.429939001940213,9.592076052424018,73.48168177042257
1698672671441.0,0.01666666753590107,1.315937052860856,-0.3726604694649577,-1.6901736856013536,1.713949040399119,-4.22606578990519,-10.699237721905112,-14.273902643542836,5.360722635182344,80.56738831728549
1698672671458.0,0.01666666753590107,0.9613890901263803,-0.16461188552975653,-1.8153811969816684,1.2574048026596196,-3.9746746155887838,-10.84678098373413,-19.21695750343161,-0.414728953001042,86.53424840639781
1698672671475.0,0.01666666753590107,0.8297375171732156,0.05799480058997869,-1.8657769207447765,1.026663581129443,-3.7131080842167137,-10.916212831878662,-18.2762475018768,-11.697767024478297,85.71622397026206
1698672671490.0,0.01666666753590107,0.508936268152669,0.6749579474151134,-1.4601906254947186,0.5841851776786614,-3.0599396515443917,-10.527453752788901,-15.476091923319597,-19.94695446154423,80.96122385501761
1698672671508.0,0.01666666753590107,0.08054236715845763,0.815102623425424,-0.18082944535911083,0.01496364164496772,-2.8761846741273995,-9.266008753094077,-12.647225644586246,-1.5886953841992075,70.45264996787283
1698672671525.0,0.01666666753590107,-0.09101334615983069,0.8269047049000858,0.353539881670475,-0.1903390776481945,-2.8339871621280905,-8.743623878368735,-12.384422163438957,27.24374458961182,61.51666566542095
1698672671541.0,0.01666666753590107,-0.16315153065361082,0.9672487028747796,0.33005262309908867,-0.19437933404890353,-2.6521774735599757,-8.784175668987631,-12.938842278747233,58.085089833947336,52.67731487934642
1698672671558.0,0.01666666753590107,0.2685433846473694,1.285621409574151,-0.6447241371929645,0.34207147999643345,-2.303371926935017,-9.770736975097655,-13.844848089129206,69.24865154173966,49.98862457294924
1698672671575.0,0.01666666753590107,0.43344058992452916,1.2689946844220161,-1.1729326035052536,0.6295253624847158,-2.2824226624086497,-10.311825965771078,-20.462000243834673,71.8663556920929,52.93511695447397
1698672671591.0,0.01666666753590107,0.7805638094857335,0.9109586603760719,-2.365239185044169,1.1152489512236787,-2.560150054986775,-11.530924108123779,-32.78059475160034,56.153891412166665,61.866992898140076
1698672671608.0,0.01666666753590107,1.2255667538449166,1.1426368339627981,-3.296159267953038,1.6123450343810022,-2.2554876014709473,-12.48710781162679,-31.872913837324422,35.150178619974525,66.82521163175993
1698672671625.0,0.01666666753590107,1.460958394996822,1.4668535905152558,-3.329090062174201,1.8499695126188918,-1.8763067903265356,-12.540080107879637,-18.601574534686385,17.84273539525609,68.99778552371426
1698672671640.0,0.01666666753590107,1.760567364515364,2.0497867497056723,-2.2532044589698312,2.1157258968962354,-1.2794018044069408,-11.470620153808593,3.4080765656341874,14.994445766070514,68.8053586042275
1698672671658.0,0.01666666753590107,1.5573168285116552,1.9195485506817698,-0.5889215859502553,1.8980032199583947,-1.4399629532411693,-9.795875508007407,15.39881345550278,25.099777237448787,72.1684686194609
1698672671675.0,0.01666666753590107,1.5096923230275512,1.7798595094844698,0.04952010997235775,1.8586485301695763,-1.6346417679935692,-9.136871501049399,23.811202286370644,36.09689065026248,76.06247557850105
1698672671691.0,0.01666666753590107,1.2885834742501376,1.7559987414255738,0.8777975645303726,1.6799811216825618,-1.7525561997562646,-8.271368185424803,26.83151193735028,48.37644038163777,79.0144286962672
1698672671708.0,0.01666666753590107,1.0830719345118849,1.5497174594238399,1.2497732666015624,1.517923669875972,-2.0271412026554345,-7.8709379577636716,21.2715330472848,50.46396134295252,84.23394314677506
1698672671725.0,0.01666666753590107,0.9341521236326545,1.3608774338275194,1.264710723492503,1.4059947787962852,-2.2647657174259423,-7.834875295257568,9.993143052939875,50.417495566028926,91.88102294152134
1698672671741.0,0.01666666753590107,0.8006590875312686,1.051749525335431,1.0730974337905645,1.303343346084468,-2.598756849017739,-8.014888748058675,-4.442553538549046,46.00317504130095,102.76401413858788
1698672671758.0,0.01666666753590107,0.8206564581602811,1.1305725944206118,0.6258055017113685,1.325789023181051,-2.5155580490663647,-8.463801559337973,-10.843020076269976,42.220981694068485,109.99780601684586
1698672671775.0,0.01666666753590107,0.8984272417135536,1.2425076595127582,0.46496378237009045,1.3950711971892042,-2.3886653610780835,-8.631096400341391,-14.040012206925859,41.9009156144671,116.16703778087647
1698672671791.0,0.01666666753590107,0.6955757880300283,1.2663289723441005,0.07632277670204639,1.180939822741598,-2.3397335723876953,-9.030329527172446,-14.10386252283443,46.226061189391395,121.19606508562184
1698672671808.0,0.01666666753590107,0.6273588686332107,1.4924664629384874,-0.37705987346768377,1.111807213271968,-2.0985183396488427,-9.489716970714927,-11.929258357149308,49.83355878822244,122.42125075856038
1698672671825.0,0.01666666753590107,0.5919784893028438,1.565424439382553,-0.6151327165275812,1.0845731693876905,-2.0153195396974684,-9.731382285308838,-9.93722429420498,53.3919473269211,122.89642701911816
1698672671841.0,0.01666666753590107,0.8049186446718871,1.821530951783061,-1.109091122713685,1.3150149695798754,-1.7552496766239403,-10.225933981212973,-5.999986079700048,53.96243546225183,122.56576390101951
1698672671858.0,0.01666666753590107,1.0943309220857917,2.0398861179381607,-1.1777841351896523,1.6211735434049739,-1.5451581886842847,-10.290428372955322,-0.830048770726143,56.83517546111876,123.01408385776081
1698672671875.0,0.01666666753590107,1.2360785032480954,2.07983643553257,-1.0394494312107563,1.7835303069517014,-1.5280995018556713,-10.141838232421874,5.0081200956959595,58.721239992863985,126.82545235803299
1698672671891.0,0.01666666753590107,1.2344181688204408,2.023852097982168,-0.6643062050193548,1.810614676699601,-1.628356988635659,-9.747243871307372,4.5021857857583125,65.33001492055243,133.6697663592493
1698672671908.0,0.01666666753590107,1.0263798140183091,1.8350646793559193,-0.43136254154145715,1.6358380651060491,-1.8418898492008446,-9.502136891826988,-1.89370473866212,71.86897848473419,137.14144223134008
1698672671925.0,0.01666666753590107,0.9072463618546723,1.8712690884202718,-0.45373979304432865,1.556529988982901,-1.817498627527058,-9.516951599121093,-7.028309479059549,73.45522844776711,139.2705214786598
1698672671940.0,0.01666666753590107,0.8382114040732384,2.039557324375212,-0.6176140119493008,1.5402195632383227,-1.657236753900349,-9.673622170257568,-7.855464597455134,76.07782984375524,142.03143420534067
1698672671958.0,0.01666666753590107,0.6877733706507831,1.9888851217582821,-0.5717366423934698,1.4389148324277252,-1.7196353424072264,-9.619003860363364,-5.266811376076077,83.31092504271788,144.67455348959552
1698672671975.0,0.01666666753590107,0.5725350992947816,2.0014000276774166,-0.5909452007323504,1.3880381932798773,-1.7286138908937572,-9.623792848205566,-1.8364888843151579,91.00821355805292,146.3483050060855
1698672671991.0,0.01666666753590107,0.39802521234601734,2.1186942817151544,-0.6228302852928638,1.3199530105039476,-1.6593316803529858,-9.625438277325033,3.082018702583411,98.62471459588505,148.42603489122504
1698672672008.0,0.01666666753590107,0.36982773025706406,2.035005067898333,-0.49015316868424413,1.375468707629293,-1.7845786469608544,-9.466224451446532,-1.6899822871137364,99.28101381285323,153.32725569622113
1698672672025.0,0.01666666753590107,0.29197942448817193,1.8989578903347253,-0.5139858796924353,1.3672383471615612,-1.943493197631836,-9.472209371075033,-16.18780788011868,93.23038145357071,159.6651794723727
1698672672041.0,0.01666666753590107,0.06327522521093487,1.7515449768871068,-0.5589449653595686,1.1933595246579498,-2.0693387146547435,-9.51964507598877,-36.44686612823935,82.08813676617801,163.85473554698848
1698672672058.0,0.01666666753590107,-0.007707067245990037,2.0357950492322443,-0.554583847540617,1.1516107062742114,-1.7426798256471752,-9.529520573315024,-38.79053967399709,82.21390103936545,160.1567072058035
1698672672075.0,0.01666666753590107,0.010876637192815541,2.1347037517517804,-0.46528994558453557,1.2132613990232348,-1.6142907616212963,-9.446921200561523,-26.43116381424457,87.5901683313251,155.52713668447717
1698672672091.0,0.01666666753590107,0.05006634567826986,2.1125822285756466,-0.10168576601743698,1.335066408483684,-1.65020378652364,-9.06609349899292,-9.791018118605333,92.59216857752473,152.64001572231277
1698672672108.0,0.01666666753590107,0.08811243708655238,1.6751847907841204,0.25029051959812637,1.436221574755758,-2.117671368408203,-8.692149127197265,-11.671672286754264,89.93498593376881,154.79825987738843
1698672672125.0,0.01666666753590107,0.07540683090090751,1.371827866908908,0.35167642588615416,1.4654006152279675,-2.4346041054323315,-8.578574185943603,-26.287016086906036,78.44287163633138,159.76820604581317
1698672672141.0,0.01666666753590107,0.06291939751058817,0.9537000699937344,0.31975685453414915,1.439513309777528,-2.8110923164919015,-8.630199159240723,-51.57182827161235,51.78778519278981,170.7329682676231
1698672672158.0,0.01666666753590107,-0.1699286966383457,1.0454811125904322,0.033681904849410055,1.1338038314267993,-2.6434982002809644,-8.958653699493407,-63.08215868356621,30.855823537828652,173.79126743076637
1698672672175.0,0.01666666753590107,-0.24255429932288824,1.3054209195435047,-0.05629004249870777,0.955735009887442,-2.2916999015808104,-9.100360510253905,-60.43571309718556,20.97785881863635,169.36249081066006
1698672672191.0,0.01666666753590107,-0.5328844952993095,1.7471683692380784,0.019123218142986297,0.5368993569638579,-1.7525556152343749,-9.07911197052002,-40.17084918827038,27.664574742491105,154.69926311555827
1698672672207.0,0.01666666753590107,-0.6810566296163946,1.936180244269967,0.17228139724433422,0.33698359140604733,-1.5291469650819898,-8.945036677551268,-22.727587651906244,42.2189975241146,139.3269115204474
1698672672225.0,0.01666666753590107,-0.5497752782151103,1.6887588503673672,0.15939268957674502,0.4762960543759167,-1.7699135772705077,-8.959551525115966,-13.780818480754922,59.22254172699707,122.20235685603981
1698672672241.0,0.01666666753590107,-0.44260845043808217,1.4232190314501523,-0.06210019008219242,0.6174042416561395,-2.0292355445861814,-9.179518218120933,-19.894529344569797,57.420471446570076,116.03378079016952
1698672672258.0,0.01666666753590107,0.009447481172531842,0.9573939560756086,-0.5355927313446999,1.088613202026114,-2.467374448394775,-9.661202249145507,-30.351912671432622,44.27807757772542,114.83602515693774
1698672672275.0,0.01666666753590107,0.2955425237972289,0.9650392101317643,-0.5414361966758966,1.334766987145692,-2.3919570960998535,-9.696815998840332,-36.724844582175116,16.55748503875645,116.79077065588203
1698672672291.0,0.01666666753590107,0.38282070201672613,1.0900105746686457,-0.24514614244699476,1.341949665191397,-2.214785880987346,-9.428216500091553,-30.92772152412679,3.3932966766005146,116.60676535964188
1698672672308.0,0.01666666753590107,0.34117651305124164,1.3375421509474514,0.7366068865984677,1.2069764735348523,-1.9342156661987304,-8.467543083953856,-18.946285644360465,2.660342886907511,112.66109484971975
1698672672325.0,0.01666666753590107,0.018569237522035837,1.2384338342025876,1.8919015420824288,0.7873927056577056,-2.0239982284545897,-7.324162153625488,-8.302301549372892,17.400359410639997,108.95400967769532
1698672672341.0,0.01666666753590107,-0.07617752301245927,1.0751175414413212,2.2408932589292525,0.6587044394895434,-2.185307565307617,-6.978648926544189,-12.620301038878056,30.78503545727064,106.78202318200961
1698672672358.0,0.01666666753590107,-0.2099303790938109,0.7783429185658692,2.1863532749682664,0.520888133361563,-2.456001990509033,-7.042693236431479,-26.49990966824075,39.56878850350127,106.04445837429662
1698672672375.0,0.01666666753590107,-0.2237737571377307,0.5837459368780255,1.3317460318893193,0.5101141528256237,-2.561945121710002,-7.927650609588623,-44.22594615888529,32.602039946317866,105.65035645918688
1698672672391.0,0.01666666753590107,-0.07512779476381838,0.6251195652738213,0.7743301757931709,0.638353652312979,-2.425475627081096,-8.518419869232178,-49.25832025632397,20.82763734557838,104.38598599097998
1698672672408.0,0.01666666753590107,0.03793196350932121,0.7879410602554678,0.04694470652639866,0.7080847756650298,-2.164956558935344,-9.280524185180663,-45.39703673359734,11.294968571007843,102.92136120649747
1698672672425.0,0.01666666753590107,-0.06047496350053697,0.8061918794780969,-0.032066286346316336,0.5392936316892505,-2.039111334173381,-9.39769042892456,-33.881600755238885,10.638229660611838,100.07492085102966
1698672672441.0,0.01666666753590107,-0.13111428773868827,0.7150757305309176,0.0020376433074474334,0.42826252969950435,-2.0723308822080493,-9.383474856567382,-25.908879738981206,15.70443710010417,96.08015494135348
1698672672458.0,0.01666666753590107,-0.5611304561724886,0.4361991679176688,0.011267828467488288,-0.020949520254693925,-2.307411849975586,-9.388263259887696,-20.958821373872233,24.049041426101535,90.25451584352035
1698672672475.0,0.01666666753590107,-0.8638998259507119,0.27227964856624604,-0.2523784317880869,-0.312742884118855,-2.425625264684856,-9.664493691906332,-17.001387570652042,30.85963478338552,81.17838971967817
1698672672490.0,0.01666666753590107,-0.8880532933458686,0.31429128260463474,-0.48453123714923857,-0.3161845855379477,-2.3569418968200684,-9.903016616821288,-13.757491677192036,29.885311713377785,75.30196133517681
1698672672508.0,0.01666666753590107,-0.8429695583857595,0.4061430523499846,-0.9331348363488912,-0.24794976515825837,-2.246210070037842,-10.35552073059082,-5.9541798429181805,25.68768918535222,68.85695385321776
1698672672525.0,0.01666666753590107,-0.8191842667158693,0.5390814502432942,-1.0036012882381677,-0.21233605199605227,-2.116923180389404,-10.424204390716552,0.3511143052992622,21.459508390980016,65.24443948044134
1698672672541.0,0.01666666753590107,-0.8090409852989018,0.5928676932275295,-0.9927665904909372,-0.20006573195513336,-2.079363849584758,-10.408642079925537,4.273788955668141,16.53398406536973,62.711941939984015
1698672672558.0,0.01666666753590107,-0.7698479888778179,0.6654296560913324,-0.6659206544786691,-0.1743281006410718,-2.0364178573057052,-10.074202035522461,5.844314542571233,9.671522251528668,58.59602896499931
1698672672575.0,0.01666666753590107,-0.7877461222052574,0.7480214300602674,-0.04398644124269485,-0.214281267779693,-1.9786577422544358,-9.446472287750243,7.694382269843199,5.916380722277684,55.59814624015941
1698672672591.0,0.01666666753590107,-0.851407351059094,0.7903171417370438,0.36257775912880896,-0.30346535268574953,-1.9651906501770018,-9.033023588562012,9.412885185775087,5.295716736643571,52.36139130947665
1698672672608.0,0.01666666753590107,-1.0195292905364184,0.7845444035544991,1.1228110205084085,-0.4936547105317935,-2.0114283774778245,-8.262090653991699,9.183781004218996,12.901248063781836,48.535942374230494
1698672672625.0,0.01666666753590107,-1.2501472144804895,0.680958356873691,1.5258733502388,-0.7158664425171911,-2.1416130927488206,-7.850587243652344,7.153824450342288,21.833529549929914,45.36410497651412
1698672672641.0,0.01666666753590107,-1.3285492816746234,0.7137234391391277,1.4912766686320305,-0.7652469613557681,-2.127098537445068,-7.877970925140381,2.3548246833514326,27.180814641693907,40.91609795879965
1698672672658.0,0.01666666753590107,-1.2769449127741157,0.6728609751358627,0.9911632469475269,-0.6676832071717829,-2.1664532272338866,-8.37566559524536,-8.56178214348897,22.724963151717667,36.188415185140656
1698672672675.0,0.01666666753590107,-1.1325348344042896,0.4668319143295288,0.4021645041078329,-0.4984431503847241,-2.346766247503459,-8.970774345397949,-16.23202481725805,19.082887720213428,33.58984239465262
1698672672691.0,0.01666666753590107,-1.0376611595544964,0.3346896352499723,0.3054407444119453,-0.3826235720094293,-2.4416364882871506,-9.077166681671143,-17.800246495976733,18.249676358458156,32.43583070796019
1698672672708.0,0.01666666753590107,-0.8996571488346904,0.126909931384027,0.3182850284159183,-0.21009141487441957,-2.6027961875364185,-9.075520668029785,-15.220163027571926,23.205063978667035,33.84287016755033
1698672672725.0,0.01666666753590107,-0.831664905039221,-0.01078150625526905,0.2833808882951736,-0.10175371668711304,-2.7114330878660082,-9.115773183441162,-13.554334530519176,29.834607804074196,35.941886337238216
1698672672741.0,0.01666666753590107,-0.8651214767001568,-0.029790158107876778,0.22035540006160734,-0.08319872688613832,-2.7054478759765623,-9.181763366699219,-12.63356099737799,32.5479141122401,35.95784848932853
1698672672758.0,0.01666666753590107,-0.9193827167849987,0.15175620334893464,-0.20865385635197162,-0.06943206734023988,-2.4967028342097994,-9.612569443401695,-8.496386497280682,26.9345060673922,32.569661434557425
1698672672774.0,0.01666666753590107,-0.940945437034592,0.033999884757399554,-0.39277240638434885,-0.05476750910654664,-2.6075845908567308,-9.795277542114258,-3.0201141368146467,21.387998017917276,31.68781229572249
1698672672790.0,0.01666666753590107,-0.9915724122703075,-0.0680462390050292,-0.2925087821245193,-0.0745196728028357,-2.713976927129924,-9.69083049468994,0.40112278928755346,21.656043669252547,30.36447680441086
1698672672808.0,0.01666666753590107,-0.8091461992390453,-0.13662410066872835,-0.023507716837525366,0.14993673283681272,-2.800168479156494,-9.412654189300536,5.026606856458245,19.271057724299986,27.969986651228226
1698672672825.0,0.01666666753590107,-0.6315246100105345,0.07617664622962475,0.32160803535878657,0.3470093839231878,-2.614767488098144,-9.057713793182373,12.465181466411542,11.487749806557806,27.66708825210567
1698672672841.0,0.01666666753590107,-0.6281980959363281,0.18754121795743703,0.6879512845009566,0.348954745837301,-2.5513211441040036,-8.677634279632567,20.12734146507156,5.553593943851987,30.76414873878874
1698672672858.0,0.01666666753590107,-0.9766474495347589,-0.11186579924821853,1.728297372290492,-0.00448927424326539,-2.9273604423522945,-7.615057655334472,16.640377922071018,14.2338119944358,37.58632951199965
1698672672875.0,0.01666666753590107,-1.3016872859731317,-0.22755583295971155,1.9311971951603888,-0.31154571022354066,-3.0772970290586352,-7.39987878112793,2.9281908896436764,23.359178659551908,38.653239211301496
1698672672891.0,0.01666666753590107,-1.361510178773105,-0.1805614420726895,1.5476836155086755,-0.337881782354787,-3.0297122710630298,-7.7799582946777335,-10.498003315630537,26.167665361349233,35.48392215338886
1698672672908.0,0.01666666753590107,-1.2026401978962122,0.08970774345397949,0.4935755443483591,-0.1292869627136737,-2.7274446037292477,-8.838195428466797,-12.497159558331896,21.389987310513042,27.993443228385342
1698672672925.0,0.01666666753590107,-0.82590385729447,0.33380759171843527,-0.4844891515731811,0.26680362830795346,-2.4765020499631762,-9.816077169036864,2.7499754593855883,9.4930007434184,26.652846141493796
1698672672941.0,0.01666666753590107,-0.6021037236064672,0.3983496219947934,-0.795822461155057,0.4724058420043438,-2.454206047002971,-10.116699114990233,25.622262803292667,-7.671634324812472,27.46758013399689
1698672672958.0,0.01666666753590107,-0.4087796844638884,0.26475860541164875,-0.379679700577259,0.5924151271544397,-2.709038886205852,-9.670778471264242,37.15531383952058,-16.094452854542947,35.37627837206946
1698672672975.0,0.01666666753590107,-0.6526109449200331,-0.4002911114513874,0.2811334016293287,0.27338775593861936,-3.461117482702434,-8.989479045867919,24.648431506905176,-20.740615612910542,41.436763279229716
1698672672991.0,0.01666666753590107,-0.699952541809529,-0.4226645635619759,0.3668511986643076,0.13886355015859006,-3.5283050590515135,-8.897152644348145,4.342800333268303,-21.912454093336706,44.15902396539751
1698672673008.0,0.01666666753590107,-0.8893181987151503,-0.2657493700146675,0.06386953784227371,-0.1654993358887732,-3.3720831084653735,-9.209595960998534,-6.106909276062012,-20.421753354150376,38.570658809141456
1698672673025.0,0.01666666753590107,-0.6982374815199524,0.3331023660585284,-0.6020791736871004,-0.0505776562012732,-2.7759268950864673,-9.880271701049804,5.359577724722721,-19.428126462000893,31.829996343674647
1698672673041.0,0.01666666753590107,-0.6276946764588356,0.4160355008110404,-0.9496230298131704,-0.05237327091377228,-2.731783801977336,-10.219500148773193,22.388832467188415,-19.655344657572414,27.88161083355743
1698672673058.0,0.01666666753590107,-0.3972267554447055,0.5298688007399439,-1.2745979112565518,0.09472042051684111,-2.719214243261516,-10.514285643658042,35.176003565226345,-14.067382482477392,23.86947063018002
1698672673075.0,0.01666666753590107,-0.22745569705348462,0.6002955051407217,-1.2567244009137153,0.2192189433775842,-2.737619960784912,-10.467000745391845,35.37717654194532,-6.2760917811427595,21.066232928759852
1698672673091.0,0.01666666753590107,-0.25197186028119173,0.5846297339752317,-1.1617869401127099,0.17732037779223173,-2.8363804870054126,-10.34235262145996,31.72464750591637,6.8213090703180885,19.065448539715092
1698672673108.0,0.01666666753590107,-0.38957781159412114,0.32848844252228737,-1.2768383836597204,0.06449366108998655,-3.1857845840454098,-10.420912363433837,24.726674738942258,20.90319802081894,17.146720335811573
1698672673125.0,0.01666666753590107,-0.3594345291996375,0.21678075644522904,-2.3986761752218007,0.12928670698534697,-3.353079132787883,-11.519402012634277,21.351511147371067,18.910263226677817,14.920090619218463
1698672673141.0,0.01666666753590107,-0.08513093705773353,0.4853238488316536,-3.083546444842219,0.422426845815964,-3.139845547430217,-12.18139877166748,25.00932504227031,6.577639510356945,11.749470702721647
1698672673158.0,0.01666666753590107,0.2917530683863908,0.9607590485945343,-3.66686246587038,0.7779657923491671,-2.7653029174804686,-12.725032770648598,38.72889721673773,-10.292967013162277,10.095392692362259
1698672673175.0,0.01666666753590107,0.5042813184862956,1.1720564051926134,-3.1198055067032575,0.9507971881590783,-2.6595088393613695,-12.13590894012451,49.315427467974445,-13.426160908102009,10.265681261201724
1698672673191.0,0.01666666753590107,0.4771100376399234,1.1224883644253014,-2.711265037822723,0.8855552294524386,-2.8344351981565357,-11.674875482940672,55.4321043414364,-7.566813119167579,12.660801499335292
1698672673208.0,0.01666666753590107,0.20031079275738448,0.9907704482376575,-2.0064380218446254,0.5855317608488724,-3.1387977919429537,-10.892868781170248,51.92669074994036,4.50391980003385,15.929558427600497
1698672673225.0,0.01666666753590107,0.14043284530192612,1.1742688205450773,-2.056801012381911,0.5190927013121545,-3.063829644720256,-10.892270815277099,39.97695036301748,3.1252896585227345,15.603440800394484
1698672673241.0,0.01666666753590107,0.28101828734967854,1.3758879559546708,-2.262496603450179,0.6405984355650842,-2.9396307258605954,-11.061211669921875,26.184875730510374,-5.6432811578434245,14.131655416340857
1698672673257.0,0.01666666753590107,0.24734834693269803,1.4267621108844875,-2.2780291036248204,0.5491698779341765,-2.951451804296672,-11.047893923187255,17.001042646098956,-14.526886873984585,17.79162850479147
1698672673274.0,0.01666666753590107,0.28394922623503954,1.5468012797161936,-2.6598557531028986,0.5349543055769987,-2.8782793083190916,-11.407772360229492,24.07175180509183,-9.91827393435278,17.15112410027894
1698672673291.0,0.01666666753590107,0.27461221969965843,1.7699267290130256,-2.756988093599677,0.5054756976363248,-2.722207287597656,-11.471219288745521,34.59750703309378,10.720470260860669,13.874310963887703
1698672673307.0,0.01666666753590107,0.05384436637964099,1.9641233132064342,-2.7440760050565003,0.3583819331404753,-2.6595091316223143,-11.386972733306884,52.45046380644279,46.22198698155148,3.2143666378005133
1698672673324.0,0.01666666753590107,0.2354837764147669,2.0287401622846724,-2.908101615130901,0.659303172567673,-2.722206995336711,-11.476605657958984,59.83842671464629,56.185562999348015,-3.8672215184363083
1698672673340.0,0.01666666753590107,0.23136472372338174,1.7926435877338052,-3.1338077285706993,0.7802103929381817,-3.088071228790283,-11.621903771209716,55.38697386649554,48.00352571333342,-5.609247178982898
1698672673357.0,0.01666666753590107,0.09110869629308581,0.8116682650625705,-2.9217829344809054,0.7573157664977014,-4.199280074310303,-11.3251724029541,31.929194596085328,29.9722258705662,2.563667108734681
1698672673375.0,0.01666666753590107,-0.15621318275779486,0.046477673536539074,-2.593412565380335,0.5550057262144983,-5.016750303649902,-10.96170266342163,16.442548322950767,19.992689408226635,12.489722336099398
1698672673392.0,0.01666666753590107,-0.2571265761632472,-0.05040449159145355,-2.766886971801519,0.47150801638178524,-5.149628495788574,-11.111789179992675,16.934490990373643,17.066166792287735,17.872617472874897
1698672673408.0,0.01666666753590107,0.2955727728050202,0.816906165716052,-3.098603144198656,1.0577880017820744,-4.364329766735434,-11.38981584777832,40.05431591574621,25.018361382542235,7.431115189605997
1698672673425.0,0.01666666753590107,0.5677238265555352,0.8830763817161321,-2.679355403342843,1.3929762342039496,-4.408472859844565,-10.894515379333495,62.101329858374044,39.429517531230125,2.5937410719804816
1698672673441.0,0.01666666753590107,0.5963176875509322,0.5483312168866395,-2.092844385665655,1.510441899285838,-4.892102179718017,-10.200646395221352,74.6439409105378,47.88367979906179,7.6494319411416996
1698672673458.0,0.01666666753590107,0.6264470875505358,-0.35457799254655836,-0.943997006624937,1.6246153178893028,-5.988646540069579,-8.908374880108237,52.77639018835204,29.69618036016555,27.067445454302742
1698672673476.0,0.01666666753590107,0.5000686326947062,-0.8283668864071368,-0.1065343750923872,1.4800654657226056,-6.5385647338867185,-8.01877991027832,10.778340746150894,1.6508022943221334,40.47743247445016
1698672673492.0,0.01666666753590107,0.4190533873274922,-0.7781254764229059,0.3955184902220964,1.3151647533141075,-6.472573966106772,-7.537994289398193,-34.76887989446398,-18.516967273890142,44.420070380380814
1698672673508.0,0.01666666753590107,-0.12391666785217821,-0.8712234468370675,1.5592968964129685,0.6227916337829082,-6.423045088306069,-6.489932512664795,-68.64579855502681,-21.214494137526028,42.56395964324068
1698672673525.0,0.01666666753590107,-0.4650808328785002,-0.6047317340224981,1.587696476945281,0.2006639535766095,-6.025906303405761,-6.5571197967529296,-55.818197859744295,-2.6226793028333564,31.07110768537287
1698672673541.0,0.01666666753590107,-0.15746405960172413,-0.1540302857607603,1.5388339540988205,0.49500104710683224,-5.498133890423178,-6.657825904083252,-17.4204709026511,19.87913409818059,16.326646842924823
1698672673558.0,0.01666666753590107,-0.0718395668733865,-0.0604845715790987,1.339005209237337,0.646733723449707,-5.440075084686279,-6.828861685180664,37.00770320627285,40.85188393531777,9.858017151721281
1698672673575.0,0.01666666753590107,-0.19929178844057022,-0.8907108221173285,1.8518869270801543,0.6001963556151837,-6.366929817852378,-6.24392829208374,47.19923337252398,50.599578164017714,17.100722426846122
1698672673591.0,0.01666666753590107,-0.179905900773406,-0.8930670298546552,1.7408686845719814,0.6860883401732891,-6.4567129646301265,-6.28822102279663,28.61028956516024,38.716049630908934,25.62920910567857
1698672673608.0,0.01666666753590107,-0.18254165610447526,-0.6154746618330478,1.3128104452729223,0.6777086343627423,-6.213251998791098,-6.693139794048666,-9.608995284771787,-5.124452304526439,30.196467811206887
1698672673625.0,0.01666666753590107,-1.1796453259516506,-0.4420440945535898,1.3100930030077695,-0.4025251541137695,-6.008398703765868,-6.726210289001465,-21.41255767062535,-30.74983607738298,26.28378540742862
1698672673641.0,0.01666666753590107,-1.76015556884408,-0.5706926862984896,1.2636316960841416,-1.0814309623718261,-6.114491764831542,-6.797138513183594,1.3134211515662397,-30.297851724151972,14.533081855561786
1698672673657.0,0.01666666753590107,-1.0688582618508486,0.2580892106503248,1.806133476164937,-0.4569932784149423,-5.36271244354248,-6.206518891143799,51.093346199496274,-8.571593710231692,-4.186878640461137
1698672673675.0,0.01666666753590107,-0.6602121406387538,0.26734160764217374,2.0390940907776356,-0.0282815071105957,-5.477184625896811,-5.883750579833984,65.64835637738838,16.60021982484593,-11.123371167168672
1698672673691.0,0.01666666753590107,-0.33093415517397223,-0.709662765571475,1.8033610888421534,0.3919008842468262,-6.621613603973389,-5.9874494392395015,55.59990501387069,23.969666090209525,-11.289468561178689
1698672673708.0,0.01666666753590107,-0.3497228076003492,-1.198078150677681,1.539519598275423,0.41748884142450987,-7.201309680938721,-6.176890645599365,35.182587867586236,7.144207543990911,-3.113771611704566
