msFromStart,interval,accx,accy,accz,accGx,accGy,accGz,rotRate_alpha,rotRate_beta,rotRate_gamma
1698745575000.0,16,-1.8,0.9,0.5,-1.3,9.3,5.2,0.0,-2.6,-7.2
1698745575015.0,16,-1.3,0.8,0.6000000000000001,-0.8,9.200000000000001,5.300000000000001,2.1,-3.1,-17.599999999999998
1698745575033.0,16,-1.2000000000000002,0.5,0.6000000000000001,-0.7000000000000001,8.9,5.2,-0.1,-3.0000000000000004,-19.3
1698745575049.0,16,-1.1,0.1,0.4,-0.7000000000000001,8.5,5.1000000000000005,-7.2,-0.6000000000000001,-17.8
1698745575067.0,16,-0.9,0.0,0.2,-0.5,8.4,4.9,-12.000000000000002,0.9,-16.5
1698745575082.0,16,-0.6000000000000001,0.0,0.1,-0.30000000000000004,8.4,4.800000000000001,-12.6,1.6,-15.9
1698745575099.0,16,-0.9,-0.1,-0.1,-0.6000000000000001,8.200000000000001,4.7,-12.000000000000002,2.8,-12.4
1698745575115.0,16,-1.0,-0.2,-0.1,-0.8,8.1,4.7,-11.1,4.9,-10.4
1698745575132.0,16,-1.2000000000000002,-0.4,-0.2,-1.0,7.9,4.6000000000000005,-8.9,7.500000000000001,-11.000000000000002
1698745575149.0,16,-1.2000000000000002,-0.4,-0.30000000000000004,-1.0,7.9,4.5,-8.0,7.500000000000001,-11.2
1698745575167.0,16,-1.1,-0.4,-0.30000000000000004,-1.0,7.9,4.6000000000000005,-6.1000000000000005,4.300000000000001,-10.2
1698745575182.0,16,-1.4000000000000001,-0.4,-0.2,-1.3,7.800000000000001,4.6000000000000005,-3.2,-1.0,-7.400000000000001
1698745575199.0,16,-1.5,-0.4,-0.5,-1.5,7.9,4.4,-2.1,-0.4,-6.2
1698745575216.0,16,-1.5,-0.30000000000000004,-0.8,-1.4000000000000001,7.9,4.1000000000000005,-0.7,-9.3,-7.1000000000000005
1698745575232.0,16,-1.4000000000000001,0.30000000000000004,0.2,-1.4000000000000001,8.6,5.1000000000000005,0.5,-14.0,-6.7
1698745575249.0,16,-0.7000000000000001,1.1,0.2,-0.7000000000000001,9.3,5.0,13.0,-20.3,-9.0
1698745575266.0,16,0.0,2.0,0.1,0.0,10.3,4.9,15.299999999999999,-33.5,-15.9
1698745575282.0,16,0.1,1.5,0.30000000000000004,0.1,9.9,5.1000000000000005,13.3,-20.1,-23.8
1698745575299.0,16,-0.1,0.9,-0.1,-0.5,8.9,4.9,2.4000000000000004,-5.9,-26.1
1698745575315.0,16,-0.6000000000000001,0.2,0.2,-0.7000000000000001,8.6,4.9,0.5,3.2,-24.5
1698745575332.0,16,-0.1,-0.2,-0.30000000000000004,-0.30000000000000004,8.200000000000001,4.4,4.300000000000001,10.0,-22.3
1698745575349.0,16,0.0,-0.30000000000000004,-0.9,-0.30000000000000004,8.1,3.8000000000000003,8.0,-0.2,-17.599999999999998
1698745575365.0,16,-0.5,-0.4,-0.7000000000000001,-0.8,8.0,4.0,9.0,-5.8,-14.3
1698745575382.0,16,-1.2000000000000002,-1.1,-0.5,-1.4000000000000001,7.300000000000001,4.2,10.9,-10.2,-12.9
1698745575399.0,16,-0.30000000000000004,-1.4000000000000001,0.2,-0.6000000000000001,7.0,4.800000000000001,9.700000000000001,-15.100000000000001,-16.0
1698745575415.0,16,0.30000000000000004,-1.3,0.4,0.0,7.1000000000000005,5.0,8.9,-15.6,-15.399999999999999
1698745575432.0,16,1.5,-1.3,0.1,1.2000000000000002,7.1000000000000005,4.7,5.1,-13.9,-11.3
1698745575448.0,16,1.5,-1.3,-0.30000000000000004,1.2000000000000002,7.1000000000000005,4.3,-2.3000000000000003,-14.900000000000002,-4.7
1698745575466.0,16,1.0,-1.1,-0.4,0.7000000000000001,7.300000000000001,4.2,-5.1,-15.100000000000001,0.1
1698745575482.0,16,-0.1,0.2,-0.4,-0.30000000000000004,8.6,4.3,-7.400000000000001,-16.6,3.8
1698745575499.0,16,-0.6000000000000001,1.4000000000000001,-0.30000000000000004,-0.8,9.8,4.3,-2.6,-17.0,3.3000000000000003
1698745575515.0,16,-0.6000000000000001,1.5,-0.4,-0.8,9.9,4.2,2.1,-16.5,0.9
1698745575532.0,16,-0.2,1.1,-0.4,-0.4,9.5,4.2,13.700000000000001,-16.0,-6.9
1698745575549.0,16,0.30000000000000004,0.1,-0.2,-0.1,9.0,4.2,18.6,-15.5,-9.3
1698745575566.0,16,0.6000000000000001,-0.2,-0.1,0.4,8.3,4.4,23.1,-13.0,-8.0
1698745575582.0,16,0.6000000000000001,-0.4,0.0,0.4,8.1,4.5,18.8,-8.0,-2.8
1698745575599.0,16,0.5,-0.4,0.1,0.30000000000000004,8.1,4.5,14.800000000000002,-5.500000000000001,-0.8
1698745575616.0,16,0.4,-0.5,0.0,0.2,8.1,4.4,8.5,-2.5,0.6000000000000001
1698745575632.0,16,0.2,0.1,-0.1,0.0,8.6,4.3,7.0,-2.7,1.0999999999999999
1698745575649.0,16,0.0,-0.1,0.0,-0.2,8.5,4.3,7.6,-2.5,0.9
1698745575666.0,16,-0.4,-0.1,0.0,-0.5,8.4,4.3,7.9,-1.0,-1.8
1698745575682.0,16,-0.4,-0.1,0.1,-0.5,8.5,4.4,6.000000000000001,-0.9,-4.3999999999999995
1698745575698.0,16,-0.30000000000000004,0.1,0.1,-0.5,8.6,4.4,3.8,-1.6,-5.1
1698745575715.0,16,-0.30000000000000004,0.1,0.0,-0.5,8.700000000000001,4.3,3.0000000000000004,-1.0999999999999999,-4.6000000000000005
1698745575732.0,16,0.0,0.4,0.2,-0.30000000000000004,9.0,4.4,2.9,0.9,-3.6
1698745575749.0,16,0.1,0.4,0.5,-0.1,9.0,4.7,3.9,3.0000000000000004,-3.4
1698745575766.0,16,0.0,0.4,0.5,-0.2,9.0,4.800000000000001,3.3000000000000003,4.3999999999999995,-3.0000000000000004
1698745575782.0,16,-0.2,0.1,0.30000000000000004,-0.5,8.700000000000001,4.6000000000000005,-2.1999999999999997,6.1000000000000005,-3.2
1698745575799.0,16,-0.5,0.30000000000000004,0.30000000000000004,-0.7000000000000001,8.9,4.6000000000000005,-10.4,6.8,-6.000000000000001
1698745575816.0,16,-0.6000000000000001,0.30000000000000004,0.30000000000000004,-0.9,8.9,4.6000000000000005,-12.9,6.3,-8.0
1698745575832.0,16,-1.3,0.0,0.1,-1.6,8.5,4.5,-16.0,8.799999999999999,-7.699999999999999
1698745575849.0,16,-1.4000000000000001,-0.30000000000000004,0.2,-1.8,8.200000000000001,4.6000000000000005,-17.0,10.4,-5.7
1698745575866.0,16,-1.0,-0.1,-0.2,-1.4000000000000001,8.4,4.2,-15.299999999999999,11.5,-4.0
1698745575882.0,16,-0.1,-0.6000000000000001,-0.6000000000000001,-0.5,7.9,3.9000000000000004,-11.2,2.7,2.1
1698745575899.0,16,0.1,-0.6000000000000001,-0.6000000000000001,-0.2,7.9,4.1000000000000005,-8.5,1.0999999999999999,8.1
1698745575915.0,16,0.6000000000000001,-0.1,0.2,0.2,8.3,4.7,0.30000000000000004,1.6,15.5
1698745575944.0,16,1.4000000000000001,1.2000000000000002,0.1,1.1,9.700000000000001,4.6000000000000005,9.3,3.6,9.5
1698745575948.0,16,0.8,1.3,0.1,0.5,9.8,4.5,9.5,13.0,6.6000000000000005
1698745575965.0,16,0.30000000000000004,0.9,-0.2,-0.6000000000000001,8.9,4.1000000000000005,5.0,23.700000000000003,4.9
1698745575982.0,16,-0.6000000000000001,-0.1,-0.30000000000000004,-0.9,8.4,4.1000000000000005,1.9,25.2,7.0
1698745575998.0,16,-0.6000000000000001,-0.6000000000000001,-0.4,-0.9,7.9,4.0,2.1,26.6,13.4
1698745576015.0,16,-0.4,-0.5,-0.5,-0.8,8.0,3.9000000000000004,4.3999999999999995,25.0,15.399999999999999
1698745576032.0,16,0.0,0.1,-0.5,-0.30000000000000004,8.6,3.8000000000000003,8.4,20.6,16.2
1698745576049.0,16,-0.30000000000000004,0.0,-0.4,-0.6000000000000001,8.6,3.9000000000000004,8.700000000000001,18.8,17.200000000000003
1698745576065.0,16,-0.5,-0.1,-0.5,-0.9,8.4,3.8000000000000003,5.2,15.8,11.700000000000001
1698745576082.0,16,-0.7000000000000001,-0.1,-0.6000000000000001,-1.0,8.4,3.7,3.6,13.8,8.600000000000001
1698745576099.0,16,-0.7000000000000001,-0.1,-0.6000000000000001,-1.0,8.5,3.7,4.2,9.700000000000001,2.9
1698745576115.0,16,-0.7000000000000001,0.0,-0.5,-1.0,8.6,3.7,6.4,8.1,1.0999999999999999
1698745576132.0,16,-0.5,0.2,-0.4,-0.8,8.700000000000001,3.8000000000000003,10.1,6.1000000000000005,-0.7
1698745576150.0,16,-0.5,0.4,-0.30000000000000004,-0.8,9.0,3.9000000000000004,9.0,4.5,-0.6000000000000001
1698745576166.0,16,-0.5,0.4,-0.30000000000000004,-0.8,9.0,3.9000000000000004,6.5,3.9,-0.4
1698745576182.0,16,-0.5,0.5,-0.30000000000000004,-0.8,9.1,3.9000000000000004,1.5000000000000002,2.8,-0.8
1698745576199.0,16,-0.4,0.4,-0.2,-0.8,9.0,4.0,0.2,1.5000000000000002,-1.3
1698745576216.0,16,-0.4,0.30000000000000004,-0.2,-0.8,8.9,4.0,0.6000000000000001,0.9,-1.8
1698745576232.0,16,-0.30000000000000004,0.2,-0.1,-0.6000000000000001,8.8,4.1000000000000005,1.0999999999999999,-0.30000000000000004,-2.5
1698745576248.0,16,-0.30000000000000004,0.2,0.0,-0.7000000000000001,8.8,4.2,0.1,-1.4,-3.1
1698745576265.0,16,-0.4,0.2,0.0,-0.7000000000000001,8.8,4.2,-2.8,-1.9,-3.0000000000000004
1698745576283.0,16,-0.30000000000000004,0.2,0.0,-0.7000000000000001,8.8,4.1000000000000005,-4.5,-2.0,-2.9
1698745576299.0,16,-0.30000000000000004,0.2,0.0,-0.7000000000000001,8.8,4.2,-6.2,-1.7,-2.3000000000000003
1698745576315.0,16,-0.2,0.2,0.0,-0.6000000000000001,8.9,4.2,-5.9,-0.5,-1.9
1698745576332.0,16,-0.2,0.2,-0.1,-0.6000000000000001,8.9,4.2,-4.3999999999999995,2.0,-0.8
1698745576349.0,16,-0.30000000000000004,0.1,-0.1,-0.8,8.8,4.1000000000000005,-4.0,3.3000000000000003,-0.1
1698745576365.0,16,-0.4,0.1,-0.1,-0.9,8.700000000000001,4.1000000000000005,-5.500000000000001,2.9,-0.2
1698745576383.0,16,-0.30000000000000004,0.1,-0.2,-0.8,8.700000000000001,4.1000000000000005,-6.4,2.3000000000000003,-0.2
1698745576399.0,16,-0.30000000000000004,0.1,-0.2,-0.8,8.700000000000001,4.1000000000000005,-6.9,0.8,-0.4
1698745576415.0,16,-0.2,0.1,-0.2,-0.8,8.700000000000001,4.1000000000000005,-5.9,-0.4,-0.30000000000000004
1698745576432.0,16,-0.2,0.1,-0.2,-0.8,8.700000000000001,4.1000000000000005,-5.4,-0.7,-0.2
1698745576449.0,16,-0.2,0.0,-0.2,-0.8,8.6,4.1000000000000005,-5.0,-1.3,-0.1
1698745576465.0,16,-0.30000000000000004,0.0,-0.2,-0.8,8.6,4.1000000000000005,-5.1,-1.8,-0.2
1698745576482.0,16,-0.2,0.0,-0.2,-0.8,8.6,4.1000000000000005,-5.300000000000001,-2.7,-0.2
1698745576499.0,16,-0.1,0.0,-0.1,-0.7000000000000001,8.6,4.1000000000000005,-5.0,-3.8,-0.8
1698745576515.0,16,-0.1,0.0,-0.2,-0.7000000000000001,8.6,4.1000000000000005,-3.5,-4.7,-0.8
1698745576532.0,16,-0.1,0.0,-0.2,-0.7000000000000001,8.6,4.1000000000000005,-3.2,-5.4,-0.9
1698745576549.0,16,-0.1,0.0,-0.1,-0.6000000000000001,8.6,4.2,-2.3000000000000003,-6.1000000000000005,-1.3
1698745576565.0,16,-0.1,-0.1,0.0,-0.6000000000000001,8.4,4.3,-1.7,-6.2,-1.9
1698745576582.0,16,0.0,-0.2,0.1,-0.6000000000000001,8.4,4.4,-1.4,-5.6,-1.8
1698745576599.0,16,-0.1,-0.30000000000000004,0.1,-0.7000000000000001,8.3,4.4,-0.4,-5.1,-1.4
1698745576615.0,16,-0.2,-0.4,0.1,-0.7000000000000001,8.200000000000001,4.4,1.0,-5.4,-1.0999999999999999
1698745576632.0,16,-0.2,-0.30000000000000004,0.1,-0.7000000000000001,8.200000000000001,4.5,1.6,-5.8,-1.0999999999999999
1698745576649.0,16,-0.1,-0.2,0.1,-0.7000000000000001,8.3,4.4,3.1,-6.4,-1.0
1698745576665.0,16,-0.1,-0.1,0.1,-0.7000000000000001,8.5,4.4,4.300000000000001,-7.1000000000000005,-1.8
1698745576682.0,16,-0.1,-0.1,0.1,-0.7000000000000001,8.5,4.4,4.7,-7.400000000000001,-2.3000000000000003
1698745576700.0,16,-0.2,-0.1,0.1,-0.7000000000000001,8.4,4.4,5.4,-8.0,-3.2
1698745576715.0,16,-0.2,-0.1,0.1,-0.7000000000000001,8.5,4.4,6.1000000000000005,-8.700000000000001,-3.4
1698745576733.0,16,-0.2,-0.1,0.1,-0.7000000000000001,8.5,4.3,6.3,-9.0,-3.4
1698745576749.0,16,-0.1,0.0,0.1,-0.7000000000000001,8.6,4.3,6.3,-8.799999999999999,-2.9
1698745576767.0,16,0.0,0.0,0.0,-0.6000000000000001,8.6,4.2,6.6000000000000005,-8.3,-2.7
1698745576782.0,16,0.0,0.0,0.0,-0.6000000000000001,8.6,4.2,6.9,-7.400000000000001,-2.1999999999999997
1698745576799.0,16,0.0,0.0,-0.1,-0.5,8.6,4.1000000000000005,7.2,-6.000000000000001,-1.8
1698745576815.0,16,0.0,0.0,-0.1,-0.5,8.6,4.1000000000000005,7.1000000000000005,-5.1,-1.4
1698745576833.0,16,0.0,0.0,-0.2,-0.5,8.6,4.0,6.9,-4.2,-1.4
1698745576849.0,16,0.1,0.1,-0.2,-0.5,8.700000000000001,3.9000000000000004,6.3,-2.1,-1.6
1698745576865.0,16,0.1,0.2,-0.2,-0.5,8.8,3.9000000000000004,5.500000000000001,-1.0,-1.4
1698745576882.0,16,0.1,0.2,-0.30000000000000004,-0.5,8.9,3.8000000000000003,5.2,-0.30000000000000004,-1.2000000000000002
1698745576898.0,16,0.1,0.4,-0.30000000000000004,-0.5,9.0,3.8000000000000003,4.0,1.3,-0.30000000000000004
1698745576915.0,16,0.0,0.4,-0.4,-0.6000000000000001,9.1,3.7,2.5,2.6,0.7
1698745576932.0,16,0.1,0.30000000000000004,-0.4,-0.5,9.0,3.7,1.0,3.9,1.2000000000000002
1698745576948.0,16,0.1,0.4,-0.4,-0.5,9.0,3.7,0.30000000000000004,4.3999999999999995,1.5000000000000002
1698745576965.0,16,0.0,0.30000000000000004,-0.4,-0.5,9.0,3.7,-0.5,4.6000000000000005,1.7
1698745576982.0,16,0.0,0.30000000000000004,-0.4,-0.6000000000000001,8.9,3.7,-0.9,4.5,1.7
1698745577000.0,16,-0.1,0.2,-0.30000000000000004,-0.7000000000000001,8.8,3.7,-1.2000000000000002,3.9,1.5000000000000002
1698745577016.0,16,-0.1,0.1,-0.30000000000000004,-0.7000000000000001,8.8,3.8000000000000003,-1.4,3.3000000000000003,1.4
1698745577032.0,16,-0.1,0.1,-0.2,-0.7000000000000001,8.8,3.8000000000000003,-1.3,2.1999999999999997,0.9
1698745577049.0,16,-0.1,0.0,-0.2,-0.7000000000000001,8.700000000000001,3.8000000000000003,-1.3,1.9,0.6000000000000001
1698745577065.0,16,-0.1,0.0,-0.2,-0.8,8.700000000000001,3.8000000000000003,-0.9,0.8,-0.30000000000000004
1698745577082.0,16,-0.2,0.0,-0.2,-0.8,8.700000000000001,3.8000000000000003,-0.4,0.2,-0.6000000000000001
1698745577099.0,16,-0.2,-0.1,-0.2,-0.8,8.6,3.8000000000000003,0.5,-1.4,-1.4
1698745577115.0,16,-0.1,0.0,-0.1,-0.7000000000000001,8.6,3.9000000000000004,1.0999999999999999,-2.0,-2.1
1698745577132.0,16,-0.1,0.0,-0.1,-0.7000000000000001,8.700000000000001,3.9000000000000004,1.0,-1.4,-2.3000000000000003
1698745577149.0,16,0.0,0.1,-0.1,-0.7000000000000001,8.700000000000001,3.9000000000000004,0.7,-1.2000000000000002,-2.1
1698745577166.0,16,0.0,0.1,0.0,-0.6000000000000001,8.8,3.9000000000000004,-0.1,-0.30000000000000004,-1.6
1698745577183.0,16,0.1,0.1,-0.1,-0.6000000000000001,8.8,3.9000000000000004,-0.6000000000000001,0.8,-0.8
1698745577199.0,16,0.1,0.1,-0.1,-0.6000000000000001,8.8,3.8000000000000003,-0.6000000000000001,1.6,-0.5
1698745577215.0,16,0.0,0.1,0.0,-0.6000000000000001,8.8,3.9000000000000004,0.30000000000000004,2.4000000000000004,0.0
1698745577232.0,16,0.0,0.1,0.0,-0.7000000000000001,8.8,3.9000000000000004,0.5,2.7,0.2
1698745577249.0,16,0.0,0.1,0.0,-0.7000000000000001,8.8,3.9000000000000004,0.1,3.2,0.4
1698745577265.0,16,-0.1,0.0,0.0,-0.7000000000000001,8.700000000000001,3.9000000000000004,-0.9,3.3000000000000003,0.4
1698745577282.0,16,-0.1,0.0,0.0,-0.8,8.700000000000001,3.9000000000000004,-1.4,3.1,0.4
1698745577299.0,16,-0.1,0.0,0.0,-0.8,8.700000000000001,4.0,-1.8,2.9,0.1
1698745577315.0,16,-0.2,0.1,0.0,-0.9,8.8,3.9000000000000004,-2.1999999999999997,1.7,-0.30000000000000004
1698745577332.0,16,-0.2,0.1,0.0,-0.9,8.8,3.9000000000000004,-3.1,0.5,-0.8
1698745577349.0,16,-0.1,0.1,-0.1,-0.8,8.8,3.9000000000000004,-3.7000000000000006,0.0,-1.0999999999999999
1698745577365.0,16,0.0,0.1,0.0,-0.7000000000000001,8.8,3.9000000000000004,-5.0,-0.5,-1.4
1698745577382.0,16,0.0,0.0,0.0,-0.8,8.700000000000001,4.0,-5.0,-1.0,-1.7
1698745577399.0,16,0.0,0.0,0.0,-0.7000000000000001,8.700000000000001,4.0,-4.5,-1.2000000000000002,-1.9
1698745577418.0,16,0.0,0.0,-0.1,-0.7000000000000001,8.700000000000001,3.9000000000000004,-3.4,-0.8,-2.1
1698745577432.0,16,0.1,0.0,0.0,-0.7000000000000001,8.6,4.0,-2.8,-0.5,-1.9
1698745577450.0,16,0.1,-0.1,0.0,-0.7000000000000001,8.6,4.0,-2.5,-0.5,-1.8
1698745577467.0,16,0.1,-0.1,0.0,-0.6000000000000001,8.6,4.0,-1.7,0.0,-1.4
1698745577482.0,16,0.1,0.0,0.0,-0.6000000000000001,8.6,4.0,-1.0999999999999999,0.30000000000000004,-1.0999999999999999
1698745577499.0,16,0.1,0.0,0.1,-0.6000000000000001,8.6,4.1000000000000005,-0.2,1.4,-0.5
1698745577516.0,16,0.1,0.0,0.0,-0.6000000000000001,8.6,4.1000000000000005,0.1,2.1,0.30000000000000004
1698745577532.0,16,0.0,0.0,0.0,-0.7000000000000001,8.6,4.0,-0.30000000000000004,2.5,0.4
1698745577549.0,16,0.0,0.0,0.0,-0.7000000000000001,8.6,4.0,-0.4,2.5,0.7
1698745577567.0,16,-0.1,0.1,0.0,-0.8,8.700000000000001,4.0,-0.2,2.3000000000000003,1.4
1698745577582.0,16,-0.1,0.1,0.0,-0.8,8.8,4.1000000000000005,0.5,1.7,1.4
1698745577599.0,16,-0.1,0.1,0.1,-0.9,8.8,4.1000000000000005,0.7,1.4,1.2000000000000002
1698745577615.0,16,-0.1,0.1,0.1,-0.8,8.700000000000001,4.1000000000000005,0.6000000000000001,0.5,0.7
1698745577632.0,16,-0.1,0.0,0.0,-0.8,8.6,4.1000000000000005,-0.6000000000000001,-0.5,0.0
1698745577649.0,16,-0.1,-0.1,0.0,-0.8,8.6,4.1000000000000005,-1.2000000000000002,-0.5,-0.2
1698745577667.0,16,-0.1,-0.1,0.1,-0.8,8.6,4.1000000000000005,-1.8,-0.6000000000000001,-0.7
1698745577682.0,16,-0.1,0.0,0.0,-0.8,8.700000000000001,4.1000000000000005,-1.5000000000000002,-0.8,-0.8
1698745577699.0,16,0.0,0.0,0.0,-0.8,8.700000000000001,4.1000000000000005,-1.4,-0.8,-0.7
1698745577715.0,16,0.0,-0.1,0.0,-0.8,8.6,4.1000000000000005,-1.0999999999999999,-0.6000000000000001,-0.8
1698745577732.0,16,0.0,-0.1,0.0,-0.8,8.5,4.1000000000000005,-0.8,-0.1,-0.8
1698745577748.0,16,0.0,-0.1,0.1,-0.7000000000000001,8.5,4.1000000000000005,0.0,0.7,-0.7
1698745577765.0,16,0.0,-0.1,0.1,-0.7000000000000001,8.6,4.2,0.5,1.2000000000000002,-0.7
1698745577786.0,16,0.0,0.0,0.0,-0.8,8.6,4.1000000000000005,1.0,2.1,-0.5
1698745577798.0,16,0.0,0.0,0.0,-0.8,8.6,4.1000000000000005,0.8,2.5,-0.2
1698745577815.0,16,0.0,0.0,0.0,-0.8,8.700000000000001,4.1000000000000005,0.0,2.8,0.2
1698745577832.0,16,0.0,0.1,-0.1,-0.8,8.700000000000001,4.0,-0.7,3.4,0.7
1698745577848.0,16,0.0,0.1,-0.1,-0.8,8.700000000000001,4.0,-0.8,3.7000000000000006,0.8
1698745577865.0,16,0.0,0.1,0.0,-0.8,8.700000000000001,4.0,-0.8,3.7000000000000006,0.9
1698745577881.0,16,-0.1,0.1,-0.1,-0.9,8.8,4.0,-1.0,3.6,1.0
1698745577898.0,16,-0.1,0.1,-0.1,-0.9,8.8,4.0,-1.7,3.4,0.6000000000000001
1698745577915.0,16,-0.1,0.1,-0.1,-0.9,8.700000000000001,4.0,-2.1999999999999997,3.3000000000000003,0.4
1698745577931.0,16,0.0,0.0,-0.1,-0.9,8.700000000000001,4.0,-2.5,3.2,0.1
1698745577948.0,16,0.0,0.0,-0.1,-0.8,8.700000000000001,4.0,-1.9,3.1,-0.1
1698745577965.0,16,0.0,0.0,-0.1,-0.8,8.6,4.0,-1.6,3.0000000000000004,0.0
1698745577981.0,16,0.0,0.0,0.0,-0.8,8.6,4.0,-1.2000000000000002,3.0000000000000004,-0.1
1698745577998.0,16,0.1,0.0,0.0,-0.8,8.6,4.0,-1.3,3.2,-0.1
1698745578015.0,16,0.0,0.0,-0.1,-0.8,8.6,4.0,-1.4,3.5,0.1
1698745578032.0,16,0.0,0.0,-0.1,-0.8,8.700000000000001,4.0,-1.6,3.6,0.4
1698745578048.0,16,0.0,0.0,-0.1,-0.8,8.700000000000001,4.0,-1.3,3.6,0.6000000000000001
1698745578065.0,16,0.0,0.0,-0.1,-0.8,8.6,4.0,-1.0,3.6,0.4
1698745578082.0,16,-0.1,0.0,-0.1,-0.9,8.700000000000001,4.0,-0.6000000000000001,3.1,0.0
1698745578098.0,16,-0.1,0.1,0.0,-0.9,8.8,4.0,-1.0999999999999999,2.6,-0.7
1698745578115.0,16,-0.1,0.1,-0.1,-0.9,8.8,4.0,-1.5000000000000002,2.1999999999999997,-0.8
1698745578132.0,16,-0.1,0.1,-0.1,-1.0,8.8,4.0,-2.5,1.0,-1.2000000000000002
1698745578148.0,16,-0.1,0.1,-0.1,-1.0,8.8,4.0,-2.8,-0.6000000000000001,-1.3
1698745578165.0,16,-0.1,0.1,-0.1,-1.0,8.8,3.9000000000000004,-2.3000000000000003,-2.6,-1.7
1698745578182.0,16,-0.1,0.2,-0.1,-1.0,8.8,4.0,-1.9,-3.3000000000000003,-1.7
1698745578198.0,16,0.1,0.1,-0.2,-0.8,8.8,3.9000000000000004,-1.2000000000000002,-4.7,-1.9
1698745578215.0,16,0.1,0.1,-0.2,-0.8,8.8,3.9000000000000004,-1.0999999999999999,-5.0,-1.8
1698745578232.0,16,0.1,0.1,-0.1,-0.8,8.8,4.0,-1.4,-5.2,-1.3
1698745578249.0,16,0.1,0.1,-0.1,-0.7000000000000001,8.8,3.9000000000000004,-2.3000000000000003,-5.4,-1.0
1698745578266.0,16,0.2,0.0,-0.1,-0.7000000000000001,8.700000000000001,4.0,-2.5,-5.4,-0.8
1698745578282.0,16,0.2,0.0,-0.1,-0.7000000000000001,8.6,4.0,-2.1,-5.1,-0.30000000000000004
1698745578299.0,16,0.2,-0.1,-0.1,-0.6000000000000001,8.6,4.0,-0.8,-4.9,0.30000000000000004
1698745578315.0,16,0.1,-0.1,0.0,-0.7000000000000001,8.6,4.0,0.0,-4.9,0.8
1698745578332.0,16,0.1,-0.1,0.0,-0.7000000000000001,8.6,4.0,1.6,-4.9,1.6
1698745578348.0,16,0.1,0.0,0.0,-0.7000000000000001,8.6,4.0,2.4000000000000004,-4.7,2.1
1698745578365.0,16,0.1,0.0,0.0,-0.7000000000000001,8.6,4.0,2.6,-4.3999999999999995,2.3000000000000003
1698745578382.0,16,0.0,0.0,0.0,-0.7000000000000001,8.700000000000001,4.0,2.7,-3.7000000000000006,2.6
1698745578398.0,16,0.0,0.0,0.0,-0.8,8.700000000000001,4.0,2.5,-3.2,2.7
1698745578415.0,16,-0.1,0.1,0.0,-0.8,8.700000000000001,4.1000000000000005,2.1,-3.1,2.7
1698745578432.0,16,-0.1,0.0,0.1,-0.9,8.700000000000001,4.1000000000000005,1.9,-3.2,2.5
1698745578448.0,16,-0.2,0.0,0.1,-0.9,8.700000000000001,4.1000000000000005,1.2000000000000002,-3.5,2.1999999999999997
1698745578465.0,16,-0.1,0.0,0.1,-0.9,8.6,4.1000000000000005,0.1,-4.0,1.4
1698745578482.0,16,-0.1,0.0,0.1,-0.9,8.700000000000001,4.1000000000000005,-0.30000000000000004,-4.2,1.2000000000000002
1698745578498.0,16,-0.1,0.0,0.1,-0.9,8.6,4.2,-0.9,-4.6000000000000005,0.9
1698745578515.0,16,-0.2,-0.1,0.1,-0.9,8.6,4.2,-1.0999999999999999,-5.1,0.7
1698745578532.0,16,-0.2,-0.1,0.2,-0.9,8.6,4.2,-1.4,-5.300000000000001,0.7
1698745578548.0,16,-0.1,-0.1,0.2,-0.9,8.6,4.3,-1.9,-5.9,0.4
1698745578565.0,16,-0.1,-0.1,0.2,-0.8,8.6,4.3,-2.5,-6.2,0.4
1698745578582.0,16,-0.1,-0.1,0.2,-0.8,8.6,4.3,-2.6,-6.1000000000000005,0.30000000000000004
1698745578598.0,16,-0.1,-0.1,0.2,-0.9,8.6,4.4,-3.3000000000000003,-5.9,-0.1
1698745578615.0,16,-0.1,0.0,0.2,-0.8,8.6,4.4,-3.6,-5.7,-0.5
1698745578632.0,16,-0.1,0.0,0.2,-0.8,8.6,4.4,-3.8,-5.2,-0.5
1698745578648.0,16,0.0,-0.1,0.2,-0.7000000000000001,8.5,4.4,-4.0,-3.9,-0.4
1698745578665.0,16,0.1,-0.1,0.2,-0.6000000000000001,8.5,4.5,-4.3999999999999995,-1.7,0.1
1698745578682.0,16,0.2,-0.1,0.2,-0.5,8.5,4.5,-4.9,-0.4,0.30000000000000004
1698745578698.0,16,0.30000000000000004,-0.1,0.2,-0.4,8.5,4.5,-5.6,2.1999999999999997,0.9
1698745578715.0,16,0.30000000000000004,-0.1,0.2,-0.4,8.5,4.5,-5.8,5.1,1.6
1698745578732.0,16,0.30000000000000004,-0.1,0.2,-0.4,8.5,4.5,-5.8,6.2,1.9
1698745578748.0,16,0.30000000000000004,-0.1,0.1,-0.4,8.4,4.4,-5.8,7.8,2.6
1698745578765.0,16,0.1,-0.2,0.0,-0.5,8.4,4.4,-5.8,8.9,3.1
1698745578782.0,16,0.1,-0.2,0.1,-0.6000000000000001,8.4,4.4,-5.7,9.200000000000001,3.6
1698745578799.0,16,0.1,-0.1,0.0,-0.5,8.4,4.4,-5.1,9.5,4.300000000000001
1698745578815.0,16,0.30000000000000004,0.0,0.0,-0.4,8.5,4.4,-3.6,9.4,4.5
1698745578832.0,16,0.2,0.0,0.0,-0.5,8.5,4.4,-2.8,9.4,5.0
1698745578848.0,16,0.1,0.0,0.0,-0.6000000000000001,8.5,4.4,-2.1,9.8,5.6
1698745578865.0,16,0.1,0.0,-0.1,-0.6000000000000001,8.5,4.3,-2.0,9.3,5.300000000000001
1698745578882.0,16,0.0,-0.1,-0.1,-0.6000000000000001,8.4,4.2,-1.7,8.799999999999999,5.300000000000001
1698745578898.0,16,0.0,-0.1,-0.1,-0.6000000000000001,8.4,4.2,-1.6,8.1,5.300000000000001
1698745578915.0,16,0.0,0.1,-0.2,-0.7000000000000001,8.6,4.2,-1.2000000000000002,7.2,5.1
1698745578932.0,16,-0.1,0.1,-0.1,-0.8,8.700000000000001,4.2,-0.8,6.000000000000001,5.1
1698745578948.0,16,-0.1,0.2,-0.1,-0.8,8.700000000000001,4.2,-0.9,5.4,4.7
1698745578965.0,16,-0.2,0.2,-0.1,-0.8,8.700000000000001,4.2,-1.5000000000000002,4.3999999999999995,4.2
1698745578981.0,16,-0.2,0.1,-0.1,-0.8,8.700000000000001,4.2,-1.3,3.0000000000000004,3.5
1698745578998.0,16,-0.2,0.1,-0.2,-0.9,8.6,4.2,-0.8,2.4000000000000004,2.8
1698745579015.0,16,-0.2,0.1,-0.1,-0.9,8.700000000000001,4.2,-0.1,0.8,1.2000000000000002
1698745579031.0,16,-0.2,0.1,-0.1,-0.9,8.700000000000001,4.2,0.6000000000000001,-0.30000000000000004,0.1
1698745579048.0,16,-0.2,0.1,-0.1,-0.9,8.700000000000001,4.2,0.7,-0.8,-0.4
1698745579065.0,16,-0.2,0.0,0.0,-0.8,8.6,4.3,0.30000000000000004,-2.4000000000000004,-1.0999999999999999
1698745579081.0,16,0.0,-0.1,-0.1,-0.7000000000000001,8.5,4.3,0.4,-3.5,-1.8
1698745579098.0,16,0.0,0.0,-0.1,-0.7000000000000001,8.5,4.3,0.6000000000000001,-4.1000000000000005,-1.9
1698745579115.0,16,0.0,0.0,0.0,-0.7000000000000001,8.5,4.3,1.0999999999999999,-4.9,-2.0
1698745579132.0,16,0.0,0.0,0.0,-0.7000000000000001,8.5,4.4,1.4,-5.500000000000001,-2.0
1698745579149.0,16,0.0,0.0,0.0,-0.6000000000000001,8.5,4.3,1.3,-5.8,-2.1
1698745579165.0,16,0.1,0.0,0.0,-0.6000000000000001,8.5,4.3,0.6000000000000001,-6.000000000000001,-2.3000000000000003
1698745579182.0,16,0.1,0.0,0.0,-0.5,8.5,4.3,0.2,-5.6,-2.4000000000000004
1698745579199.0,16,0.1,-0.1,0.0,-0.5,8.5,4.4,0.1,-5.300000000000001,-2.3000000000000003
1698745579215.0,16,0.1,0.0,0.1,-0.6000000000000001,8.5,4.4,0.2,-4.6000000000000005,-2.3000000000000003
1698745579232.0,16,0.1,0.0,0.1,-0.6000000000000001,8.5,4.4,0.0,-4.1000000000000005,-2.1
1698745579249.0,16,0.0,0.0,0.1,-0.6000000000000001,8.5,4.4,-0.4,-3.8,-2.1
1698745579265.0,16,0.1,-0.1,0.1,-0.5,8.5,4.4,-0.9,-3.3000000000000003,-2.5
1698745579282.0,16,0.1,0.0,0.1,-0.6000000000000001,8.5,4.4,-0.5,-2.8,-2.4000000000000004
1698745579298.0,16,0.0,0.0,0.1,-0.6000000000000001,8.5,4.4,0.0,-3.2,-2.4000000000000004
1698745579315.0,16,0.0,0.0,0.1,-0.7000000000000001,8.5,4.4,0.9,-3.6,-1.6
1698745579332.0,16,0.0,0.0,0.1,-0.7000000000000001,8.6,4.5,1.0,-3.9,-1.4
1698745579349.0,16,0.0,0.0,0.1,-0.7000000000000001,8.5,4.4,0.5,-4.7,-1.5000000000000002
1698745579365.0,16,-0.2,0.0,0.1,-0.9,8.5,4.5,0.0,-7.8,-2.4000000000000004
1698745579382.0,16,-0.6000000000000001,0.1,0.1,-1.2000000000000002,8.700000000000001,4.5,-0.4,-13.700000000000001,-2.6
1698745579399.0,16,-0.8,0.30000000000000004,0.1,-1.4000000000000001,8.8,4.5,-1.0999999999999999,-17.9,-2.7
1698745579415.0,16,-1.0,0.30000000000000004,0.2,-1.6,8.8,4.6000000000000005,-3.2,-27.3,-3.8
1698745579432.0,16,-1.0,0.2,0.2,-1.7000000000000002,8.6,4.4,-4.3999999999999995,-31.3,-6.000000000000001
1698745579449.0,16,-1.0,0.2,-0.2,-1.6,8.700000000000001,4.3,-7.9,-40.4,-10.0
1698745579466.0,16,-0.8,0.5,-0.30000000000000004,-1.3,9.0,4.2,-12.5,-47.2,-14.4
1698745579482.0,16,-0.5,0.30000000000000004,-0.4,-1.0,8.8,4.1000000000000005,-14.200000000000001,-52.6,-17.9
1698745579499.0,16,-0.5,0.2,-0.4,-1.0,8.700000000000001,4.2,-13.9,-57.1,-18.400000000000002
1698745579515.0,16,-0.8,-0.2,-0.5,-1.3,8.3,4.1000000000000005,-11.2,-67.4,-18.3
1698745579532.0,16,-1.2000000000000002,-0.4,-0.6000000000000001,-1.6,8.0,4.1000000000000005,-9.0,-78.3,-19.1
1698745579549.0,16,-1.3,-0.4,-0.6000000000000001,-1.7000000000000002,8.1,4.0,-8.600000000000001,-83.50000000000001,-20.6
1698745579566.0,16,-1.4000000000000001,-0.1,-0.7000000000000001,-1.7000000000000002,8.3,4.0,-9.1,-93.5,-26.500000000000004
1698745579582.0,16,-1.3,0.1,-0.7000000000000001,-1.6,8.5,4.0,-10.5,-101.4,-33.2
1698745579598.0,16,-1.1,0.2,-0.8,-1.4000000000000001,8.6,4.0,-11.2,-105.10000000000001,-37.4
1698745579615.0,16,-0.9,0.30000000000000004,-0.7000000000000001,-1.1,8.6,4.0,-11.6,-111.60000000000001,-45.9
1698745579632.0,16,-0.6000000000000001,0.4,-0.8,-0.8,8.700000000000001,4.0,-10.5,-115.50000000000001,-50.6
1698745579649.0,16,-0.5,0.4,-0.8,-0.6000000000000001,8.8,4.0,-9.700000000000001,-117.0,-51.6
1698745579665.0,16,-0.30000000000000004,0.5,-0.9,-0.4,8.8,4.0,-8.700000000000001,-120.3,-52.900000000000006
1698745579682.0,16,-0.30000000000000004,0.6000000000000001,-0.9,-0.30000000000000004,8.9,4.0,-8.5,-123.19999999999999,-53.6
1698745579698.0,16,-0.30000000000000004,0.6000000000000001,-0.9,-0.30000000000000004,8.9,3.9000000000000004,-8.700000000000001,-125.2,-54.4
1698745579715.0,16,-0.2,0.5,-1.0,-0.2,8.8,3.9000000000000004,-10.3,-128.3,-56.300000000000004
1698745579732.0,16,-0.1,0.6000000000000001,-1.1,0.0,8.9,3.8000000000000003,-13.100000000000001,-131.0,-58.2
1698745579749.0,16,0.2,0.5,-1.0,0.30000000000000004,8.700000000000001,3.9000000000000004,-14.800000000000002,-131.79999999999998,-60.599999999999994
1698745579765.0,16,0.30000000000000004,0.30000000000000004,-0.9,0.5,8.6,4.0,-14.500000000000002,-130.5,-61.300000000000004
1698745579782.0,16,0.7000000000000001,0.2,-0.8,0.9,8.4,4.1000000000000005,-12.5,-125.9,-62.0
1698745579799.0,16,0.9,0.30000000000000004,-0.8,1.1,8.5,4.2,-11.000000000000002,-123.6,-62.1
1698745579815.0,16,1.0,0.4,-0.7000000000000001,1.3,8.6,4.3,-8.700000000000001,-117.8,-60.599999999999994
1698745579832.0,16,1.1,0.30000000000000004,-0.6000000000000001,1.4000000000000001,8.5,4.4,-8.600000000000001,-109.2,-61.0
1698745579849.0,16,1.5,0.1,-0.5,1.8,8.3,4.5,-7.9,-99.2,-60.300000000000004
1698745579865.0,16,1.6,0.0,-0.4,1.9000000000000001,8.200000000000001,4.6000000000000005,-6.9,-92.7,-57.400000000000006
1698745579882.0,16,1.9000000000000001,-0.2,-0.30000000000000004,2.2,8.0,4.7,-2.5,-77.2,-50.0
1698745579898.0,16,1.9000000000000001,-0.30000000000000004,-0.2,2.3000000000000003,7.9,4.800000000000001,2.4000000000000004,-62.4,-40.8
1698745579915.0,16,1.9000000000000001,-0.4,-0.2,2.3000000000000003,7.800000000000001,4.800000000000001,4.7,-54.5,-34.800000000000004
1698745579932.0,16,1.8,-0.30000000000000004,-0.2,2.1,7.9,4.7,7.699999999999999,-37.900000000000006,-23.700000000000003
1698745579948.0,16,1.7000000000000002,-0.2,-0.2,2.1,8.0,4.7,8.3,-23.5,-15.100000000000001
1698745579965.0,16,1.6,-0.1,-0.2,2.0,8.1,4.7,8.799999999999999,-16.6,-11.1
1698745579981.0,16,1.4000000000000001,-0.1,-0.30000000000000004,1.8,8.200000000000001,4.6000000000000005,10.700000000000001,-3.2,-4.7
1698745579998.0,16,1.3,0.0,-0.30000000000000004,1.7000000000000002,8.3,4.6000000000000005,12.6,10.0,1.2000000000000002
1698745580015.0,16,1.2000000000000002,0.1,-0.30000000000000004,1.6,8.4,4.5,12.9,16.3,4.3999999999999995
1698745580032.0,16,1.1,0.4,-0.5,1.4000000000000001,8.700000000000001,4.3,11.700000000000001,26.9,10.5
1698745580048.0,16,0.9,0.4,-0.5,1.3,8.8,4.2,8.600000000000001,35.8,15.000000000000002
1698745580065.0,16,0.8,0.4,-0.5,1.2000000000000002,8.8,4.2,7.2,40.0,16.900000000000002
1698745580082.0,16,0.7000000000000001,0.5,-0.6000000000000001,1.1,8.8,4.1000000000000005,5.500000000000001,47.2,19.500000000000004
1698745580098.0,16,0.5,0.4,-0.7000000000000001,0.9,8.700000000000001,4.0,5.9,52.7,20.900000000000002
1698745580115.0,16,0.5,0.30000000000000004,-0.7000000000000001,0.8,8.700000000000001,4.0,6.2,55.0,21.1
1698745580132.0,16,0.4,0.30000000000000004,-0.8,0.6000000000000001,8.700000000000001,3.9000000000000004,7.1000000000000005,59.20000000000001,21.6
1698745580149.0,16,0.2,0.30000000000000004,-0.6000000000000001,0.5,8.700000000000001,4.0,8.0,62.300000000000004,22.5
1698745580165.0,16,0.2,0.4,-0.6000000000000001,0.5,8.700000000000001,4.0,8.5,63.300000000000004,22.7
1698745580182.0,16,0.30000000000000004,0.4,-0.7000000000000001,0.5,8.8,3.9000000000000004,7.9,65.2,22.900000000000002
1698745580198.0,16,0.30000000000000004,0.30000000000000004,-0.7000000000000001,0.5,8.700000000000001,3.9000000000000004,6.6000000000000005,67.80000000000001,24.000000000000004
1698745580215.0,16,0.30000000000000004,0.2,-0.7000000000000001,0.5,8.6,3.9000000000000004,6.5,69.10000000000001,24.7
1698745580232.0,16,0.2,0.2,-0.7000000000000001,0.30000000000000004,8.6,3.9000000000000004,7.0,71.30000000000001,26.700000000000003
1698745580253.0,16,0.2,0.30000000000000004,-0.6000000000000001,0.30000000000000004,8.700000000000001,4.0,7.400000000000001,73.7,28.6
1698745580266.0,16,0.2,0.30000000000000004,-0.5,0.30000000000000004,8.700000000000001,4.0,6.9,75.4,29.200000000000003
1698745580282.0,16,0.1,0.2,-0.4,0.1,8.700000000000001,4.0,4.7,78.2,30.299999999999997
1698745580298.0,16,-0.2,0.2,-0.5,-0.2,8.700000000000001,4.0,2.1,80.6,31.900000000000002
1698745580315.0,16,-0.30000000000000004,0.30000000000000004,-0.5,-0.30000000000000004,8.8,4.0,1.0999999999999999,81.30000000000001,32.5
1698745580332.0,16,-0.4,0.4,-0.5,-0.5,8.9,3.9000000000000004,0.8,81.0,32.5
1698745580348.0,16,-0.4,0.30000000000000004,-0.5,-0.5,8.9,3.9000000000000004,1.4,81.6,32.0
1698745580365.0,16,-0.5,0.30000000000000004,-0.6000000000000001,-0.5,8.8,3.9000000000000004,1.9,82.0,31.7
1698745580382.0,16,-0.6000000000000001,0.30000000000000004,-0.5,-0.8,8.9,3.9000000000000004,2.1999999999999997,82.0,32.1
1698745580398.0,16,-0.8,0.2,-0.6000000000000001,-1.0,8.8,3.8000000000000003,2.7,81.8,31.900000000000002
1698745580415.0,16,-0.9,0.30000000000000004,-0.6000000000000001,-1.1,8.8,3.7,2.4000000000000004,80.30000000000001,31.2
1698745580432.0,16,-0.9,0.2,-0.6000000000000001,-1.1,8.8,3.8000000000000003,2.1999999999999997,79.6,30.599999999999998
1698745580449.0,16,-0.8,0.2,-0.6000000000000001,-1.1,8.700000000000001,3.8000000000000003,1.9,78.2,29.1
1698745580465.0,16,-0.9,0.2,-0.5,-1.2000000000000002,8.700000000000001,3.9000000000000004,1.4,76.5,27.8
1698745580482.0,16,-0.9,0.1,-0.5,-1.2000000000000002,8.700000000000001,3.8000000000000003,1.6,75.0,27.2
1698745580499.0,16,-1.0,0.1,-0.4,-1.3,8.700000000000001,3.9000000000000004,1.8,71.9,25.900000000000002
1698745580515.0,16,-1.0,0.1,-0.4,-1.4000000000000001,8.6,3.9000000000000004,1.9,70.9,25.1
1698745580532.0,16,-0.9,0.0,-0.4,-1.3,8.5,3.9000000000000004,1.9,66.2,22.900000000000002
1698745580548.0,16,-0.9,0.0,-0.30000000000000004,-1.4000000000000001,8.5,3.9000000000000004,2.1999999999999997,61.1,21.3
1698745580565.0,16,-0.9,0.0,-0.2,-1.4000000000000001,8.6,4.0,2.8,58.60000000000001,20.3
1698745580582.0,16,-0.8,0.0,-0.2,-1.4000000000000001,8.6,4.0,4.1000000000000005,52.6,19.0
1698745580599.0,16,-0.7000000000000001,0.1,-0.2,-1.4000000000000001,8.700000000000001,3.9000000000000004,4.3999999999999995,48.800000000000004,16.900000000000002
1698745580615.0,16,-0.5,0.0,-0.1,-1.2000000000000002,8.6,4.0,4.1000000000000005,43.800000000000004,14.4
1698745580632.0,16,-0.5,0.0,-0.1,-1.3,8.6,4.0,4.300000000000001,42.0,13.700000000000001
1698745580649.0,16,-0.5,0.0,-0.1,-1.3,8.6,4.0,4.6000000000000005,37.6,12.100000000000001
1698745580665.0,16,-0.30000000000000004,-0.1,0.0,-1.1,8.6,4.1000000000000005,4.9,34.800000000000004,10.600000000000001
1698745580682.0,16,-0.30000000000000004,-0.1,0.1,-1.1,8.6,4.1000000000000005,4.9,33.800000000000004,10.0
1698745580698.0,16,-0.2,0.0,0.1,-1.1,8.6,4.1000000000000005,4.7,32.7,9.600000000000001
1698745580715.0,16,-0.2,0.0,0.1,-1.1,8.700000000000001,4.1000000000000005,2.7,29.900000000000006,9.1
1698745580732.0,16,-0.2,0.0,0.1,-1.1,8.6,4.1000000000000005,2.1,29.000000000000004,8.9
1698745580748.0,16,-0.2,0.0,0.1,-1.1,8.700000000000001,4.1000000000000005,1.6,25.5,9.4
1698745580765.0,16,-0.30000000000000004,0.1,0.1,-1.3,8.8,4.1000000000000005,1.7,24.400000000000002,8.799999999999999
1698745580782.0,16,-0.2,0.0,0.1,-1.2000000000000002,8.700000000000001,4.1000000000000005,1.8,22.6,7.699999999999999
1698745580798.0,16,-0.1,0.0,0.1,-1.1,8.700000000000001,4.1000000000000005,2.1999999999999997,20.0,6.9
1698745580815.0,16,-0.1,0.0,0.2,-1.1,8.700000000000001,4.1000000000000005,2.4000000000000004,17.200000000000003,6.1000000000000005
1698745580832.0,16,-0.1,0.0,0.1,-1.1,8.700000000000001,4.1000000000000005,2.5,15.7,5.6
1698745580848.0,16,-0.2,0.1,0.1,-1.2000000000000002,8.8,4.1000000000000005,1.7,12.8,4.9
1698745580865.0,16,-0.1,0.0,0.1,-1.2000000000000002,8.700000000000001,4.1000000000000005,0.5,10.0,3.9
1698745580882.0,16,-0.1,0.0,0.1,-1.1,8.700000000000001,4.1000000000000005,0.30000000000000004,8.600000000000001,3.6
1698745580898.0,16,0.0,0.0,0.1,-1.1,8.700000000000001,4.1000000000000005,1.0999999999999999,5.7,2.9
1698745580915.0,16,0.0,0.0,0.1,-1.0,8.700000000000001,4.1000000000000005,1.8,3.3000000000000003,2.1999999999999997
1698745580932.0,16,0.0,0.0,0.1,-1.0,8.700000000000001,4.1000000000000005,1.7,1.9,1.8
1698745580948.0,16,0.1,0.0,0.1,-0.9,8.700000000000001,4.1000000000000005,0.4,0.1,0.9
1698745580965.0,16,0.1,-0.1,0.1,-0.9,8.700000000000001,4.0,-0.4,-0.5,0.30000000000000004
1698745580982.0,16,0.1,0.0,0.1,-0.8,8.700000000000001,4.1000000000000005,-0.4,-0.8,0.1
1698745580998.0,16,0.1,0.0,0.1,-0.9,8.700000000000001,4.0,0.1,-1.0,0.0
1698745581015.0,16,0.1,0.0,0.0,-0.9,8.700000000000001,4.0,0.2,-1.0999999999999999,0.30000000000000004
1698745581032.0,16,0.1,0.0,0.0,-0.9,8.700000000000001,4.0,0.0,-1.7,0.30000000000000004
1698745581049.0,16,0.1,0.0,0.0,-0.9,8.700000000000001,4.0,-0.30000000000000004,-3.0000000000000004,-0.1
1698745581065.0,16,0.2,0.0,0.0,-0.8,8.700000000000001,4.0,-0.1,-3.6,-0.5
1698745581082.0,16,0.2,0.0,0.0,-0.7000000000000001,8.700000000000001,4.0,0.5,-3.5,-1.0
1698745581098.0,16,0.2,0.0,0.0,-0.7000000000000001,8.700000000000001,4.0,0.6000000000000001,-3.3000000000000003,-1.0
1698745581115.0,16,0.1,0.0,0.1,-0.8,8.700000000000001,4.1000000000000005,0.6000000000000001,-3.5,-1.0
1698745581132.0,16,0.1,0.0,0.0,-0.8,8.700000000000001,4.0,0.5,-3.9,-1.0
1698745581149.0,16,0.1,0.0,0.0,-0.8,8.700000000000001,4.0,0.2,-4.6000000000000005,-1.0
1698745581165.0,16,0.2,0.0,0.0,-0.7000000000000001,8.700000000000001,4.0,0.2,-4.9,-1.0
1698745581182.0,16,0.2,0.0,0.0,-0.7000000000000001,8.700000000000001,4.0,0.2,-4.9,-1.0
1698745581198.0,16,0.2,0.0,0.0,-0.7000000000000001,8.700000000000001,4.0,0.4,-4.6000000000000005,-0.9
1698745581215.0,16,0.1,0.0,0.0,-0.8,8.700000000000001,4.0,0.1,-4.7,-1.2000000000000002
1698745581232.0,16,0.1,-0.1,0.0,-0.7000000000000001,8.6,4.0,-0.4,-5.0,-1.3
1698745581253.0,16,0.1,-0.1,0.0,-0.7000000000000001,8.6,4.0,-0.30000000000000004,-5.300000000000001,-1.3
1698745581265.0,16,0.1,0.0,0.0,-0.7000000000000001,8.700000000000001,4.0,0.0,-5.500000000000001,-1.4
1698745581282.0,16,0.2,0.0,0.0,-0.7000000000000001,8.700000000000001,4.0,0.2,-5.500000000000001,-1.4
1698745581298.0,16,0.2,0.0,0.0,-0.6000000000000001,8.700000000000001,4.0,0.4,-5.300000000000001,-1.3
1698745581315.0,16,0.1,0.0,0.0,-0.7000000000000001,8.700000000000001,4.0,0.30000000000000004,-5.0,-1.3
1698745581332.0,16,0.1,0.0,0.0,-0.7000000000000001,8.700000000000001,4.0,0.2,-4.800000000000001,-1.3
1698745581349.0,16,0.1,0.0,0.0,-0.7000000000000001,8.700000000000001,4.0,0.2,-4.7,-1.0
1698745581365.0,16,0.1,0.0,0.0,-0.6000000000000001,8.700000000000001,4.0,0.4,-4.6000000000000005,-1.0
1698745581382.0,16,0.1,0.0,0.0,-0.7000000000000001,8.700000000000001,4.0,0.5,-4.6000000000000005,-0.8
1698745581399.0,16,0.1,0.0,0.0,-0.6000000000000001,8.700000000000001,4.1000000000000005,0.5,-4.300000000000001,-0.8
1698745581415.0,16,0.1,0.0,0.0,-0.6000000000000001,8.700000000000001,4.0,-0.1,-3.5,-0.8
1698745581432.0,16,0.1,0.0,0.0,-0.7000000000000001,8.700000000000001,4.0,-0.30000000000000004,-3.4,-0.8
1698745581449.0,16,0.1,0.0,0.0,-0.6000000000000001,8.700000000000001,4.0,-0.30000000000000004,-3.5,-0.8
1698745581465.0,16,0.1,0.0,0.0,-0.6000000000000001,8.700000000000001,4.0,0.2,-3.3000000000000003,-0.9
1698745581482.0,16,0.1,0.0,0.0,-0.6000000000000001,8.700000000000001,4.0,0.30000000000000004,-2.9,-0.9
1698745581499.0,16,0.1,0.0,0.0,-0.6000000000000001,8.700000000000001,4.0,0.5,-2.1999999999999997,-0.7
1698745581515.0,16,0.1,0.0,0.0,-0.6000000000000001,8.700000000000001,4.0,0.30000000000000004,-1.6,-0.4
1698745581533.0,16,0.1,0.0,0.0,-0.6000000000000001,8.700000000000001,4.0,0.4,-1.3,-0.4
1698745581548.0,16,0.1,0.0,0.0,-0.6000000000000001,8.700000000000001,4.0,0.6000000000000001,-1.3,-0.2
1698745581565.0,16,0.1,0.0,0.0,-0.6000000000000001,8.700000000000001,4.0,0.7,-0.8,-0.2
1698745581582.0,16,0.1,0.0,0.0,-0.6000000000000001,8.700000000000001,4.0,0.7,-0.4,0.0
1698745581599.0,16,0.1,0.0,0.0,-0.6000000000000001,8.700000000000001,4.0,0.5,-0.1,0.1
1698745581615.0,16,0.0,0.0,0.0,-0.7000000000000001,8.700000000000001,4.0,0.6000000000000001,0.30000000000000004,0.0
1698745581635.0,16,0.0,0.0,0.0,-0.7000000000000001,8.700000000000001,4.0,1.0,0.5,0.2
1698745581649.0,16,0.0,0.0,0.0,-0.7000000000000001,8.700000000000001,4.0,1.0999999999999999,0.5,0.30000000000000004
1698745581665.0,16,0.0,0.0,0.0,-0.7000000000000001,8.700000000000001,4.0,0.9,0.30000000000000004,0.2
1698745581682.0,16,0.0,0.0,0.0,-0.7000000000000001,8.700000000000001,4.0,0.5,0.0,0.0
1698745581699.0,16,0.0,0.0,0.0,-0.7000000000000001,8.700000000000001,4.0,0.5,-0.2,-0.1
1698745581715.0,16,0.0,0.0,0.0,-0.6000000000000001,8.700000000000001,4.0,0.5,-0.30000000000000004,-0.4
1698745581732.0,16,0.1,0.0,0.0,-0.6000000000000001,8.700000000000001,3.9000000000000004,0.4,-0.1,-0.4
1698745581748.0,16,0.0,0.0,0.0,-0.7000000000000001,8.700000000000001,4.0,0.2,0.30000000000000004,-0.2
1698745581765.0,16,0.0,0.0,0.0,-0.7000000000000001,8.700000000000001,4.0,0.5,0.4,0.0
1698745581782.0,16,0.0,0.0,0.0,-0.7000000000000001,8.700000000000001,4.0,0.9,0.30000000000000004,0.2
1698745581799.0,16,0.0,0.0,0.0,-0.7000000000000001,8.700000000000001,4.0,0.9,0.5,0.30000000000000004
1698745581815.0,16,0.0,0.0,0.0,-0.6000000000000001,8.700000000000001,3.9000000000000004,0.4,1.0,0.2
1698745581832.0,16,0.0,0.0,0.0,-0.7000000000000001,8.700000000000001,4.0,0.30000000000000004,1.0999999999999999,0.2
1698745581848.0,16,0.0,0.0,-0.1,-0.7000000000000001,8.700000000000001,3.9000000000000004,0.7,0.9,0.1
1698745581865.0,16,-0.1,0.0,0.0,-0.8,8.700000000000001,3.9000000000000004,1.4,0.9,0.4
1698745581882.0,16,0.0,0.0,-0.1,-0.7000000000000001,8.700000000000001,3.9000000000000004,1.4,1.0,0.4
1698745581899.0,16,0.0,0.0,-0.1,-0.7000000000000001,8.700000000000001,3.9000000000000004,1.0999999999999999,0.9,0.6000000000000001
1698745581915.0,16,0.0,0.0,-0.1,-0.7000000000000001,8.700000000000001,3.9000000000000004,0.8,0.6000000000000001,0.7
1698745581932.0,16,0.0,0.1,0.0,-0.7000000000000001,8.8,3.9000000000000004,1.2000000000000002,0.5,0.8
1698745581948.0,16,0.0,0.1,-0.1,-0.7000000000000001,8.8,3.9000000000000004,1.5000000000000002,0.30000000000000004,0.30000000000000004
1698745581965.0,16,0.0,0.1,0.0,-0.7000000000000001,8.8,3.9000000000000004,1.6,0.30000000000000004,0.30000000000000004
1698745581982.0,16,-0.1,0.1,0.0,-0.8,8.8,3.9000000000000004,1.4,0.0,0.2
1698745581998.0,16,-0.1,0.1,0.0,-0.7000000000000001,8.8,4.0,1.0,0.1,0.1
1698745582015.0,16,0.0,0.0,0.0,-0.7000000000000001,8.8,4.0,0.6000000000000001,0.2,0.1
1698745582032.0,16,0.0,0.0,0.0,-0.7000000000000001,8.8,3.9000000000000004,0.4,0.4,0.2
1698745582048.0,16,0.0,0.0,0.0,-0.7000000000000001,8.8,3.9000000000000004,0.30000000000000004,0.30000000000000004,0.2
1698745582065.0,16,0.0,0.0,0.0,-0.7000000000000001,8.700000000000001,3.9000000000000004,0.0,0.2,0.5
1698745582082.0,16,0.0,0.0,0.0,-0.7000000000000001,8.700000000000001,3.9000000000000004,-0.30000000000000004,0.2,0.4
1698745582099.0,16,0.0,0.0,0.0,-0.7000000000000001,8.8,3.9000000000000004,-1.0,0.6000000000000001,0.5
1698745582115.0,16,0.0,0.0,0.0,-0.8,8.700000000000001,4.0,-1.8,0.9,0.5
1698745582132.0,16,0.0,0.0,0.0,-0.7000000000000001,8.700000000000001,3.9000000000000004,-2.5,0.8,0.2
1698745582149.0,16,0.0,0.0,0.0,-0.7000000000000001,8.700000000000001,3.9000000000000004,-2.4000000000000004,1.0999999999999999,0.30000000000000004
1698745582165.0,16,0.0,0.0,0.0,-0.7000000000000001,8.8,3.9000000000000004,-2.1999999999999997,1.2000000000000002,0.1
1698745582182.0,16,0.0,0.0,0.0,-0.7000000000000001,8.700000000000001,3.9000000000000004,-1.9,1.3,0.30000000000000004
1698745582199.0,16,-0.1,0.0,0.0,-0.8,8.700000000000001,3.9000000000000004,-1.7,1.2000000000000002,0.4
1698745582215.0,16,-0.1,0.0,0.0,-0.8,8.700000000000001,3.9000000000000004,-1.4,0.8,0.6000000000000001
1698745582232.0,16,-0.1,0.0,0.0,-0.8,8.700000000000001,3.9000000000000004,-1.0,0.2,0.7
1698745582248.0,16,0.0,0.0,-0.1,-0.7000000000000001,8.8,3.9000000000000004,-0.9,0.30000000000000004,1.0
1698745582265.0,16,0.0,0.0,-0.1,-0.7000000000000001,8.8,3.9000000000000004,-0.9,0.1,1.0999999999999999
1698745582282.0,16,0.0,0.1,0.0,-0.8,8.8,3.9000000000000004,-1.2000000000000002,-0.1,1.2000000000000002
1698745582298.0,16,-0.1,0.1,0.0,-0.8,8.8,3.9000000000000004,-1.4,-0.30000000000000004,1.2000000000000002
1698745582316.0,16,-0.1,0.1,0.0,-0.8,8.8,3.9000000000000004,-1.6,-0.5,0.9
1698745582332.0,16,-0.1,0.1,0.0,-0.8,8.8,3.9000000000000004,-1.9,-0.9,0.7
1698745582348.0,16,-0.1,0.0,0.0,-0.8,8.8,3.9000000000000004,-2.0,-0.8,0.5
1698745582365.0,16,0.0,0.0,0.0,-0.8,8.700000000000001,4.0,-2.1,-0.5,0.1
1698745582382.0,16,0.0,0.0,0.0,-0.8,8.700000000000001,4.0,-2.5,-1.0,0.0
1698745582399.0,16,-0.1,0.0,0.0,-0.8,8.700000000000001,4.0,-2.7,-1.0999999999999999,0.1
1698745582415.0,16,-0.1,0.0,0.0,-0.8,8.700000000000001,3.9000000000000004,-3.1,-1.0999999999999999,0.0
1698745582432.0,16,0.0,0.0,0.0,-0.8,8.700000000000001,4.0,-3.3000000000000003,-1.0,-0.2
1698745582449.0,16,0.0,0.0,0.0,-0.7000000000000001,8.700000000000001,4.0,-3.2,-0.8,0.2
1698745582465.0,16,0.0,0.0,0.0,-0.7000000000000001,8.700000000000001,4.0,-3.3000000000000003,-0.8,0.2
1698745582482.0,16,0.0,0.0,0.0,-0.7000000000000001,8.700000000000001,4.0,-3.7000000000000006,0.2,0.2
1698745582498.0,16,0.0,0.1,0.0,-0.8,8.8,4.0,-4.7,1.6,0.6000000000000001
1698745582515.0,16,-0.1,0.1,0.0,-0.8,8.8,4.1000000000000005,-5.1,2.1999999999999997,0.6000000000000001
1698745582532.0,16,-0.1,0.0,0.0,-0.9,8.700000000000001,4.0,-5.7,3.1,0.6000000000000001
1698745582548.0,16,-0.1,0.1,0.0,-0.9,8.700000000000001,4.1000000000000005,-7.300000000000001,4.3999999999999995,0.7
1698745582565.0,16,-0.1,0.0,0.0,-0.8,8.700000000000001,4.1000000000000005,-8.4,5.4,0.6000000000000001
1698745582582.0,16,0.0,0.0,0.0,-0.8,8.700000000000001,4.1000000000000005,-10.3,7.6,0.7
1698745582598.0,16,0.0,0.0,0.0,-0.7000000000000001,8.6,4.2,-12.6,8.4,1.3
1698745582615.0,16,-0.1,0.0,0.0,-0.9,8.6,4.2,-13.8,9.5,1.6
1698745582632.0,16,-0.30000000000000004,0.1,0.0,-1.1,8.8,4.2,-16.3,13.3,3.6
1698745582649.0,16,-0.30000000000000004,0.0,-0.2,-1.1,8.6,4.1000000000000005,-17.400000000000002,14.200000000000001,5.4
1698745582665.0,16,-0.4,-0.1,-0.1,-1.2000000000000002,8.5,4.1000000000000005,-17.1,12.4,6.8
1698745582682.0,16,-0.7000000000000001,0.1,-0.1,-1.5,8.700000000000001,4.3,-15.2,9.4,6.8
1698745582699.0,16,-0.30000000000000004,0.30000000000000004,-0.1,-1.1,8.8,4.3,-13.9,8.600000000000001,2.6
1698745582715.0,16,-0.2,0.30000000000000004,-0.1,-1.1,8.8,4.3,-13.9,8.700000000000001,2.9
1698745582732.0,16,-0.1,0.2,-0.1,-1.0,8.8,4.3,-14.600000000000001,10.5,3.7000000000000006
1698745582750.0,16,0.0,0.1,-0.2,-0.9,8.6,4.3,-15.8,12.4,4.7
1698745582765.0,16,-0.1,0.1,-0.2,-0.9,8.6,4.3,-16.400000000000002,13.100000000000001,5.4
1698745582782.0,16,-0.2,0.0,-0.30000000000000004,-1.0,8.5,4.3,-17.1,12.8,6.7
1698745582798.0,16,-0.1,0.1,-0.2,-0.9,8.6,4.4,-16.6,10.600000000000001,7.9
1698745582815.0,16,-0.2,0.1,-0.2,-1.0,8.5,4.4,-15.6,11.700000000000001,8.700000000000001
1698745582832.0,16,0.0,0.1,-0.1,-0.8,8.5,4.5,-14.900000000000002,13.8,6.000000000000001
1698745582848.0,16,0.1,0.0,-0.2,-0.7000000000000001,8.4,4.5,-15.299999999999999,15.100000000000001,7.400000000000001
1698745582865.0,16,0.2,-0.1,-0.30000000000000004,-0.7000000000000001,8.3,4.4,-15.100000000000001,15.2,8.600000000000001
1698745582882.0,16,0.1,-0.1,-0.4,-0.7000000000000001,8.3,4.3,-15.100000000000001,14.800000000000002,9.200000000000001
1698745582898.0,16,0.0,-0.1,-0.4,-0.9,8.200000000000001,4.3,-15.000000000000002,14.200000000000001,9.9
1698745582915.0,16,0.1,-0.1,-0.4,-0.8,8.200000000000001,4.3,-14.4,12.8,8.700000000000001
1698745582932.0,16,0.2,-0.1,-0.4,-0.7000000000000001,8.200000000000001,4.4,-13.9,12.100000000000001,7.699999999999999
1698745582949.0,16,0.30000000000000004,-0.2,-0.5,-0.5,8.1,4.4,-12.700000000000001,11.700000000000001,5.1
1698745582965.0,16,0.4,-0.4,-0.4,-0.4,7.9,4.4,-12.3,10.5,2.3000000000000003
1698745582983.0,16,0.5,-0.4,-0.4,-0.4,7.800000000000001,4.5,-11.9,11.000000000000002,1.0999999999999999
1698745582999.0,16,0.8,-0.2,-0.30000000000000004,0.0,8.0,4.6000000000000005,-10.600000000000001,13.3,-0.1
1698745583015.0,16,0.9,0.4,0.0,0.0,8.6,4.9,-10.600000000000001,10.5,1.7
1698745583032.0,16,0.7000000000000001,0.5,0.2,-0.2,8.700000000000001,5.1000000000000005,-11.000000000000002,7.9,4.3999999999999995
1698745583048.0,16,0.1,0.8,0.0,-0.8,9.0,5.0,-15.100000000000001,5.6,9.9
1698745583065.0,16,0.30000000000000004,0.5,-0.30000000000000004,-0.5,8.6,4.7,-21.6,4.7,9.600000000000001
1698745583082.0,16,0.5,0.30000000000000004,-0.5,-0.30000000000000004,8.5,4.6000000000000005,-22.7,4.3999999999999995,8.600000000000001
1698745583098.0,16,0.7000000000000001,0.6000000000000001,-0.6000000000000001,-0.1,8.700000000000001,4.5,-20.0,2.1999999999999997,7.699999999999999
1698745583115.0,16,0.30000000000000004,1.2000000000000002,-0.6000000000000001,-0.5,9.3,4.6000000000000005,-17.1,1.0999999999999999,8.1
1698745583132.0,16,0.2,1.1,-0.5,-0.6000000000000001,9.200000000000001,4.7,-12.3,0.30000000000000004,10.9
1698745583148.0,16,-0.5,0.5,-0.30000000000000004,-1.2000000000000002,8.6,4.9,-11.1,-4.2,13.3
1698745583165.0,16,-0.8,0.7000000000000001,-0.4,-1.4000000000000001,8.700000000000001,4.9,-15.2,-8.5,14.700000000000001
1698745583182.0,16,-0.6000000000000001,0.6000000000000001,-0.4,-1.2000000000000002,8.700000000000001,4.800000000000001,-17.5,-12.200000000000001,14.700000000000001
1698745583198.0,16,-0.30000000000000004,0.7000000000000001,-0.9,-0.8,8.700000000000001,4.4,-20.0,-16.900000000000002,14.200000000000001
1698745583215.0,16,0.1,-0.1,-1.1,-0.5,7.9,4.2,-18.1,-21.200000000000003,10.700000000000001
1698745583233.0,16,0.1,-0.1,-1.3,-0.4,7.800000000000001,4.1000000000000005,-16.6,-22.8,9.1
1698745583249.0,16,0.0,0.1,-1.5,-0.4,8.0,3.9000000000000004,-13.9,-23.6,8.0
1698745583265.0,16,0.1,0.2,-1.6,-0.30000000000000004,8.1,3.8000000000000003,-13.0,-22.5,5.9
1698745583282.0,16,0.30000000000000004,0.0,-1.7000000000000002,0.0,7.9,3.7,-12.5,-21.200000000000003,4.7
1698745583299.0,16,0.5,0.1,-1.8,0.2,8.0,3.7,-11.3,-19.700000000000003,2.9
1698745583315.0,16,0.5,0.4,-1.8,0.2,8.200000000000001,3.6,-8.9,-16.3,2.0
1698745583332.0,16,0.6000000000000001,0.4,-1.9000000000000001,0.4,8.3,3.6,-6.5,-12.5,0.5
1698745583348.0,16,0.7000000000000001,0.4,-2.0,0.6000000000000001,8.3,3.5,-5.500000000000001,-9.9,0.0
1698745583365.0,16,0.8,0.5,-1.7000000000000002,0.7000000000000001,8.4,3.7,-2.6,-4.7,0.4
1698745583382.0,16,0.7000000000000001,0.5,-1.6,0.6000000000000001,8.4,3.8000000000000003,0.7,0.2,2.4000000000000004
1698745583398.0,16,0.8,0.6000000000000001,-1.6,0.6000000000000001,8.4,3.9000000000000004,1.4,2.9,3.3000000000000003
1698745583415.0,16,0.9,0.6000000000000001,-1.6,0.8,8.5,3.9000000000000004,1.6,8.9,4.3999999999999995
1698745583432.0,16,1.1,0.7000000000000001,-1.2000000000000002,1.0,8.6,4.2,2.1999999999999997,12.6,6.000000000000001
1698745583448.0,16,1.1,0.8,-1.1,0.9,8.700000000000001,4.3,3.7000000000000006,14.200000000000001,7.9
1698745583465.0,16,0.9,0.9,-0.9,0.8,8.8,4.5,6.000000000000001,16.8,12.100000000000001
1698745583481.0,16,0.9,1.4000000000000001,-0.6000000000000001,0.8,9.3,4.7,6.9,16.6,11.9
1698745583498.0,16,1.0,1.7000000000000002,-0.7000000000000001,0.9,9.700000000000001,4.6000000000000005,6.000000000000001,18.2,10.2
1698745583515.0,16,0.8,2.3000000000000003,-1.0,0.7000000000000001,10.3,4.3,2.1,17.5,11.9
1698745583531.0,16,-0.4,3.0,-1.0,-0.5,11.0,4.3,5.500000000000001,9.0,19.1
1698745583548.0,16,-0.6000000000000001,2.9000000000000004,-0.9,-0.6000000000000001,10.9,4.4,8.600000000000001,3.7000000000000006,19.1
1698745583565.0,16,0.0,2.4000000000000004,-0.8,-0.1,10.4,4.5,14.700000000000001,-3.1,16.400000000000002
1698745583581.0,16,0.5,1.9000000000000001,-0.8,0.5,10.0,4.5,15.7,-1.7,13.3
1698745583598.0,16,1.0,1.9000000000000001,-0.4,1.1,10.0,4.800000000000001,19.700000000000003,-3.1,12.000000000000002
1698745583615.0,16,-0.1,1.1,0.4,0.0,9.3,5.5,25.8,-2.0,17.200000000000003
1698745583632.0,16,0.1,0.30000000000000004,1.3,0.30000000000000004,8.5,6.300000000000001,25.900000000000002,2.3000000000000003,14.0
1698745583649.0,16,0.30000000000000004,-0.1,1.7000000000000002,0.5,8.200000000000001,6.7,23.1,5.1,13.100000000000001
1698745583665.0,16,0.0,-1.0,2.2,0.2,7.300000000000001,7.1000000000000005,15.100000000000001,9.8,14.800000000000002
1698745583682.0,16,-0.4,-1.8,1.5,-0.2,6.5,6.5,2.9,13.4,15.399999999999999
1698745583698.0,16,-0.7000000000000001,-1.7000000000000002,1.4000000000000001,-0.5,6.6000000000000005,6.300000000000001,-2.7,15.399999999999999,14.800000000000002
1698745583715.0,16,-1.3,-0.7000000000000001,1.2000000000000002,-1.0,7.6000000000000005,6.300000000000001,-6.5,16.5,13.100000000000001
1698745583732.0,16,-1.1,-0.2,1.1,-0.9,8.0,6.1000000000000005,-8.9,15.000000000000002,10.4
1698745583748.0,16,-0.8,-0.5,1.0,-0.6000000000000001,7.7,6.1000000000000005,-10.8,13.8,8.3
1698745583766.0,16,-0.4,-1.1,0.9,-0.2,7.1000000000000005,6.0,-13.700000000000001,10.1,5.300000000000001
1698745583781.0,16,0.0,-0.8,0.7000000000000001,0.2,7.300000000000001,5.800000000000001,-13.6,8.9,4.5
1698745583799.0,16,0.1,-0.7000000000000001,0.5,0.2,7.4,5.7,-12.100000000000001,7.300000000000001,1.0
1698745583815.0,16,0.1,-1.1,-0.1,0.30000000000000004,7.1000000000000005,5.1000000000000005,-13.6,9.700000000000001,-3.8
1698745583831.0,16,-0.7000000000000001,-1.7000000000000002,-0.6000000000000001,-0.6000000000000001,6.4,4.7,-13.100000000000001,8.700000000000001,-4.2
1698745583850.0,16,-1.1,-1.8,-0.8,-1.0,6.2,4.5,-11.6,9.8,-3.3000000000000003
1698745583865.0,16,-1.4000000000000001,-1.4000000000000001,-1.1,-1.3,6.6000000000000005,4.2,-5.300000000000001,5.500000000000001,-4.9
1698745583882.0,16,-1.3,-0.7000000000000001,-1.0,-1.2000000000000002,7.300000000000001,4.2,2.3000000000000003,0.4,-8.5
1698745583898.0,16,-1.1,-0.4,-1.0,-1.0,7.6000000000000005,4.3,5.7,-1.2000000000000002,-11.000000000000002
1698745583915.0,16,-0.7000000000000001,-0.2,-0.9,-0.7000000000000001,7.9,4.3,9.5,-5.300000000000001,-14.3
1698745583932.0,16,-0.4,-0.1,-0.8,-0.5,8.0,4.4,8.600000000000001,-7.2,-13.0
1698745583949.0,16,-0.4,0.0,-0.9,-0.4,8.0,4.3,7.1000000000000005,-7.8,-12.4
1698745583965.0,16,-0.4,0.0,-1.2000000000000002,-0.4,8.0,4.0,2.6,-10.3,-11.3
1698745583982.0,16,-0.8,-0.2,-1.3,-0.9,7.9,3.8000000000000003,-1.4,-15.399999999999999,-8.799999999999999
1698745583999.0,16,-0.9,-0.30000000000000004,-1.4000000000000001,-1.0,7.800000000000001,3.7,-2.1999999999999997,-18.2,-7.699999999999999
1698745584015.0,16,-1.2000000000000002,-0.30000000000000004,-1.4000000000000001,-1.3,7.800000000000001,3.7,-0.9,-25.3,-9.1
1698745584032.0,16,-1.1,-0.2,-1.3,-1.1,7.9,3.8000000000000003,2.8,-30.200000000000003,-12.6
1698745584049.0,16,-1.0,0.0,-1.0,-1.1,8.0,4.1000000000000005,5.2,-31.2,-13.5
1698745584065.0,16,-0.9,0.7000000000000001,-0.9,-0.9,8.8,4.2,10.600000000000001,-28.8,-14.4
1698745584081.0,16,-0.5,1.2000000000000002,-0.4,-0.6000000000000001,9.3,4.6000000000000005,9.600000000000001,-22.7,-15.299999999999999
1698745584098.0,16,0.6000000000000001,0.9,-0.6000000000000001,0.5,9.0,4.4,9.700000000000001,-12.000000000000002,-15.7
1698745584115.0,16,1.6,0.7000000000000001,-1.0,1.4000000000000001,8.8,4.0,10.5,11.000000000000002,-14.100000000000001
1698745584132.0,16,2.9000000000000004,1.9000000000000001,-1.9000000000000001,2.7,10.100000000000001,3.1,10.4,19.1,-14.500000000000002
1698745584148.0,16,2.6,2.9000000000000004,-1.5,2.4000000000000004,11.100000000000001,3.5,15.9,27.8,-14.3
1698745584165.0,16,0.7000000000000001,3.9000000000000004,-0.1,0.5,12.200000000000001,4.7,21.400000000000002,34.1,-13.0
1698745584182.0,16,-1.7000000000000002,2.1,0.7000000000000001,-2.1,10.5,5.5,29.700000000000003,36.800000000000004,-16.3
1698745584199.0,16,-2.3000000000000003,1.1,1.2000000000000002,-2.7,9.5,5.9,29.800000000000004,30.100000000000005,-17.7
1698745584215.0,16,-1.7000000000000002,1.5,2.8000000000000003,-2.2,9.9,7.5,31.2,15.399999999999999,-18.2
1698745584232.0,16,0.1,1.2000000000000002,3.5,-0.5,9.700000000000001,8.1,34.800000000000004,17.9,-24.8
1698745584248.0,16,1.1,0.4,3.7,0.4,8.9,8.3,31.6,17.8,-30.299999999999997
1698745584265.0,16,1.1,-1.8,3.0,0.30000000000000004,6.7,7.6000000000000005,12.9,16.900000000000002,-37.0
1698745584282.0,16,0.4,-1.3,2.6,-0.5,7.2,7.1000000000000005,-8.600000000000001,12.100000000000001,-24.200000000000003
1698745584299.0,16,-0.6000000000000001,0.4,1.9000000000000001,-1.6,8.8,6.5,-16.400000000000002,8.799999999999999,-19.1
1698745584315.0,16,-0.8,1.1,1.8,-1.8,9.5,6.5,-23.6,-0.30000000000000004,-17.3
1698745584332.0,16,-0.5,0.6000000000000001,0.9,-1.6,9.0,5.7,-21.8,-4.3999999999999995,-17.1
1698745584349.0,16,0.0,-0.9,0.4,-1.1,7.4,5.2,-15.9,-12.5,-8.600000000000001
1698745584367.0,16,0.0,-1.4000000000000001,0.1,-1.0,7.0,4.9,-14.600000000000001,-13.3,-5.2
1698745584382.0,16,0.1,-1.7000000000000002,-0.6000000000000001,-1.0,6.6000000000000005,4.3,-13.5,-13.8,-2.4000000000000004
1698745584398.0,16,0.1,-1.8,-0.9,-1.0,6.5,4.0,-13.100000000000001,-12.5,-1.9
1698745584416.0,16,1.2000000000000002,-2.5,-0.9,0.1,5.7,4.0,-9.5,-8.5,-1.9
1698745584432.0,16,2.0,-2.5,-0.9,1.0,5.7,4.0,0.0,-6.000000000000001,1.6
1698745584448.0,16,2.7,-2.0,-0.8,1.5,6.0,4.1000000000000005,5.0,-3.9,5.4
1698745584466.0,16,2.7,-1.8,-0.8,1.8,6.4,4.0,11.3,2.4000000000000004,16.6
1698745584482.0,16,2.4000000000000004,-1.7000000000000002,-0.9,0.9,6.7,3.8000000000000003,11.4,6.4,22.5
1698745584498.0,16,1.0,-1.3,-1.1,0.2,6.9,3.7,7.699999999999999,14.3,31.4
1698745584515.0,16,0.0,-0.9,-1.3,-0.7000000000000001,7.4,3.5,4.6000000000000005,17.3,34.300000000000004
1698745584532.0,16,-0.4,-0.2,-1.5,-1.0,8.1,3.3000000000000003,3.4,21.6,32.9
1698745584548.0,16,-0.4,0.1,-1.6,-1.0,8.3,3.2,2.6,24.200000000000003,29.600000000000005
1698745584566.0,16,0.2,0.1,-1.9000000000000001,-0.4,8.4,2.9000000000000004,-1.5000000000000002,28.6,18.900000000000002
1698745584582.0,16,0.7000000000000001,-0.4,-1.8,0.1,7.9,2.9000000000000004,-3.9,32.9,12.200000000000001
1698745584598.0,16,0.9,-0.6000000000000001,-1.7000000000000002,0.1,7.7,3.1,-2.4000000000000004,35.4,10.5
1698745584615.0,16,0.8,-0.30000000000000004,-1.4000000000000001,0.1,8.0,3.2,6.3,38.7,9.9
1698745584632.0,16,0.4,0.4,-1.6,-0.30000000000000004,8.700000000000001,3.0,16.0,34.50000000000001,10.600000000000001
1698745584648.0,16,-0.2,1.0,-0.9,-0.9,9.4,3.6,24.3,21.6,12.5
1698745584665.0,16,-0.5,0.6000000000000001,-1.0,-1.2000000000000002,9.0,3.5,29.800000000000004,9.700000000000001,11.6
1698745584683.0,16,-1.7000000000000002,0.5,-1.8,-2.4000000000000004,8.9,2.6,30.200000000000003,-1.7,6.4
1698745584698.0,16,-2.3000000000000003,3.2,-1.7000000000000002,-3.0,11.700000000000001,2.6,14.0,19.6,6.5
1698745584715.0,16,-1.7000000000000002,3.7,-1.0,-2.4000000000000004,12.200000000000001,3.3000000000000003,12.000000000000002,14.700000000000001,5.9
1698745584732.0,16,-1.3,4.800000000000001,3.2,-2.0,13.4,7.4,32.5,1.6,13.100000000000001
1698745584749.0,16,-1.3,3.2,4.3,-2.0,11.9,8.4,59.400000000000006,-21.200000000000003,24.400000000000002
1698745584765.0,16,-1.3,2.5,6.1000000000000005,-1.9000000000000001,11.200000000000001,10.200000000000001,57.5,-34.300000000000004,25.3
1698745584782.0,16,-1.0,0.2,5.2,-1.4000000000000001,9.0,9.200000000000001,30.299999999999997,-52.50000000000001,30.4
1698745584798.0,16,0.0,-1.3,3.5,1.1,7.2,6.800000000000001,-4.5,-43.400000000000006,26.700000000000003
1698745584815.0,16,2.2,-0.8,3.5,2.0,7.9,7.7,-49.4,-30.4,10.8
1698745584832.0,16,2.8000000000000003,0.7000000000000001,3.1,2.6,9.4,7.4,-31.3,-24.5,10.3
1698745584848.0,16,1.7000000000000002,1.1,2.8000000000000003,1.6,9.8,7.1000000000000005,-6.5,-20.6,13.4
1698745584865.0,16,1.0,0.1,2.3000000000000003,1.0,8.8,6.6000000000000005,-2.3000000000000003,-13.700000000000001,12.6
1698745584882.0,16,0.2,-1.2000000000000002,1.6,0.2,7.4,6.1000000000000005,-13.8,-1.7,8.1
1698745584898.0,16,0.1,-1.7000000000000002,0.4,0.1,6.9,4.9,-28.8,5.2,9.0
1698745584915.0,16,0.0,-1.9000000000000001,0.0,0.1,6.7,4.5,-31.099999999999998,4.1000000000000005,10.5
1698745584932.0,16,-0.4,-2.2,-0.6000000000000001,-0.4,6.4,4.1000000000000005,-23.700000000000003,0.1,10.2
1698745584948.0,16,-1.0,-2.0,-0.6000000000000001,-0.9,6.5,4.0,-9.700000000000001,-2.5,1.7
1698745584965.0,16,-1.2000000000000002,-1.7000000000000002,-0.6000000000000001,-1.2000000000000002,6.800000000000001,4.1000000000000005,-3.6,-3.1,-4.7
1698745584982.0,16,-1.6,-1.3,-0.7000000000000001,-1.6,7.2,3.9000000000000004,1.7,-5.500000000000001,-15.100000000000001
1698745584998.0,16,-1.6,-1.1,-1.0,-1.6,7.4,3.6,-4.2,-10.2,-22.000000000000004
1698745585016.0,16,-1.3,-1.2000000000000002,-1.1,-1.4000000000000001,7.2,3.5,-12.5,-14.900000000000002,-27.1
1698745585032.0,16,-1.0,-1.3,-1.2000000000000002,-1.1,7.1000000000000005,3.5,-14.200000000000001,-17.200000000000003,-28.900000000000002
1698745585049.0,16,-0.6000000000000001,-1.6,-1.4000000000000001,-0.7000000000000001,6.800000000000001,3.3000000000000003,-14.4,-25.5,-28.500000000000004
1698745585065.0,16,-0.7000000000000001,-1.7000000000000002,-1.6,-0.9,6.6000000000000005,3.1,-13.4,-35.6,-23.8
1698745585082.0,16,-0.9,-1.7000000000000002,-1.7000000000000002,-1.1,6.6000000000000005,3.0,-13.8,-41.1,-22.1
1698745585098.0,16,-1.2000000000000002,-1.2000000000000002,-1.8,-1.4000000000000001,7.0,3.0,-14.4,-49.5,-21.900000000000002
1698745585115.0,16,-0.9,-0.5,-1.9000000000000001,-1.1,7.7,2.9000000000000004,-13.8,-51.900000000000006,-23.3
1698745585132.0,16,-0.6000000000000001,-0.30000000000000004,-2.0,-0.8,7.9,2.8000000000000003,-12.000000000000002,-50.300000000000004,-24.200000000000003
1698745585148.0,16,0.1,0.2,-1.9000000000000001,-0.1,8.4,2.9000000000000004,-4.6000000000000005,-42.0,-26.6
1698745585165.0,16,0.4,0.30000000000000004,-1.6,0.2,8.5,3.3000000000000003,1.4,-34.2,-27.6
1698745585183.0,16,1.3,0.1,-1.3,1.1,8.4,3.5,18.0,-12.100000000000001,-25.3
1698745585199.0,16,1.9000000000000001,0.9,-2.2,1.7000000000000002,9.200000000000001,2.5,25.700000000000003,-1.7,-13.8
1698745585215.0,16,1.9000000000000001,2.0,-2.8000000000000003,1.1,11.3,1.5,19.9,-15.000000000000002,-13.3
1698745585232.0,16,0.1,3.6,-2.5,-0.2,12.0,2.1,16.5,-25.700000000000003,-15.000000000000002
1698745585248.0,16,-1.6,4.6000000000000005,2.2,-1.9000000000000001,13.0,6.7,34.2,-17.9,-22.1
1698745585265.0,16,-0.2,1.7000000000000002,4.0,-0.6000000000000001,10.3,8.3,63.2,5.0,-42.6
1698745585283.0,16,1.2000000000000002,1.8,4.5,0.7000000000000001,10.4,8.8,66.2,8.0,-41.800000000000004
1698745585298.0,16,2.9000000000000004,-0.30000000000000004,4.1000000000000005,2.3000000000000003,8.4,8.200000000000001,50.7,16.1,-36.2
1698745585315.0,16,2.7,-1.1,3.7,2.0,7.6000000000000005,7.800000000000001,17.1,27.1,-38.800000000000004
1698745585332.0,16,1.9000000000000001,-0.7000000000000001,3.6,1.1,8.0,7.7,1.7,31.099999999999998,-37.0
1698745585349.0,16,0.9,0.4,2.7,-0.1,9.1,6.800000000000001,-16.900000000000002,35.5,-26.400000000000002
1698745585365.0,16,-1.4000000000000001,1.2000000000000002,2.4000000000000004,-2.4000000000000004,9.9,6.7,-27.2,22.4,-12.8
1698745585382.0,16,-2.3000000000000003,2.0,2.5,-3.3000000000000003,10.600000000000001,6.800000000000001,-24.1,17.5,-6.9
1698745585398.0,16,-1.2000000000000002,1.5,1.4000000000000001,-2.3000000000000003,10.100000000000001,5.7,-13.9,9.8,0.9
1698745585415.0,16,-0.1,0.1,0.8,-1.2000000000000002,8.700000000000001,5.2,-11.2,0.1,1.7
1698745585432.0,16,0.2,-0.30000000000000004,0.30000000000000004,-0.8,8.3,4.7,-12.000000000000002,-3.2,4.2
1698745585449.0,16,0.5,-1.2000000000000002,-0.2,-0.5,7.300000000000001,4.3,-13.6,-9.4,9.0
1698745585465.0,16,0.8,-2.0,-0.5,-0.1,6.5,4.0,-10.0,-5.9,12.000000000000002
1698745585482.0,16,1.1,-2.4000000000000004,-0.6000000000000001,0.2,6.1000000000000005,3.9000000000000004,-4.300000000000001,-3.3000000000000003,15.6
1698745585498.0,16,1.4000000000000001,-2.6,-0.8,0.5,5.9,3.7,-1.7,-1.6,19.200000000000003
1698745585515.0,16,1.3,-2.3000000000000003,-0.9,0.5,6.2,3.5,3.5,0.2,29.600000000000005
1698745585531.0,16,0.9,-1.6,-1.2000000000000002,0.30000000000000004,6.9,3.2,5.300000000000001,1.5000000000000002,39.9
1698745585548.0,16,0.8,-1.3,-1.5,0.2,7.2,2.9000000000000004,3.7000000000000006,3.1,42.300000000000004
1698745585565.0,16,0.8,-1.2000000000000002,-1.6,0.30000000000000004,7.300000000000001,2.8000000000000003,-2.1999999999999997,5.500000000000001,41.0
1698745585582.0,16,0.6000000000000001,-1.0,-1.7000000000000002,-0.1,7.5,2.7,-7.0,10.8,32.2
1698745585598.0,16,0.0,-0.9,-1.8,-0.30000000000000004,7.5,2.6,-9.1,11.700000000000001,27.400000000000002
1698745585615.0,16,0.0,-0.9,-1.9000000000000001,-0.4,7.6000000000000005,2.5,-11.6,14.800000000000002,18.3
1698745585631.0,16,0.30000000000000004,-1.0,-1.9000000000000001,0.0,7.5,2.5,-11.4,18.5,11.700000000000001
1698745585648.0,16,0.5,-0.9,-1.9000000000000001,0.2,7.5,2.6,-10.3,20.7,9.8
1698745585665.0,16,0.6000000000000001,-0.8,-1.6,0.30000000000000004,7.6000000000000005,2.9000000000000004,-4.7,25.8,10.0
1698745585682.0,16,0.6000000000000001,-0.4,-1.6,0.2,8.0,2.9000000000000004,-1.2000000000000002,31.3,11.6
1698745585698.0,16,0.2,0.30000000000000004,-1.7000000000000002,-0.2,8.700000000000001,2.7,4.800000000000001,29.800000000000004,13.5
1698745585715.0,16,-0.2,0.6000000000000001,-1.4000000000000001,-0.5,9.1,3.0,13.0,8.799999999999999,12.6
1698745585732.0,16,-0.4,0.0,-1.4000000000000001,-0.7000000000000001,8.4,2.9000000000000004,17.0,-4.5,9.5
1698745585748.0,16,-0.4,0.4,-2.6,-0.6000000000000001,8.9,1.7000000000000002,14.200000000000001,-6.7,2.4000000000000004
1698745585765.0,16,-0.30000000000000004,2.2,-1.8,-0.6000000000000001,10.700000000000001,2.4000000000000004,4.7,18.1,5.8
1698745585782.0,16,-0.5,3.1,2.0,-0.8,11.600000000000001,6.300000000000001,27.400000000000002,16.400000000000002,13.6
1698745585798.0,16,-1.2000000000000002,4.5,4.4,-1.5,13.100000000000001,8.5,53.7,2.8,27.7
1698745585815.0,16,-2.1,2.9000000000000004,5.800000000000001,-2.2,11.600000000000001,9.8,78.2,-22.4,46.0
1698745585831.0,16,-1.5,0.8,5.1000000000000005,-1.5,9.600000000000001,8.9,28.700000000000003,-26.1,41.4
1698745585848.0,16,-0.2,-0.2,3.7,-0.1,8.6,7.6000000000000005,-15.399999999999999,-16.1,35.199999999999996
1698745585865.0,16,1.6,1.1,4.0,1.8,9.8,8.1,-54.3,-16.6,18.5
1698745585882.0,16,1.6,1.6,3.7,1.9000000000000001,10.3,7.9,-43.0,-17.9,17.5
1698745585898.0,16,1.5,2.5,3.5,1.8,11.200000000000001,7.800000000000001,-13.0,-10.0,17.0
1698745585917.0,16,0.5,2.1,3.9000000000000004,0.9,10.8,8.200000000000001,-0.6000000000000001,-8.9,6.2
1698745585932.0,16,-0.6000000000000001,0.2,2.3000000000000003,-0.2,8.9,6.7,-10.3,-1.0999999999999999,2.1
1698745585948.0,16,-0.5,-0.1,1.4000000000000001,-0.1,8.5,5.9,-45.4,17.1,-1.9
1698745585965.0,16,-0.5,-1.3,0.0,-0.2,7.2,4.6000000000000005,-55.7,19.9,-2.6
1698745585982.0,16,-0.7000000000000001,-2.1,-1.1,-0.5,6.4,3.7,-49.2,19.0,-1.5000000000000002
1698745585999.0,16,-0.8,-2.3000000000000003,-1.2000000000000002,-0.6000000000000001,6.2,3.6,-26.3,13.0,-1.6
1698745586015.0,16,-1.2000000000000002,-2.2,-0.9,-1.0,6.2,3.9000000000000004,-5.6,6.4,-8.0
1698745586032.0,16,-1.6,-2.1,-1.0,-1.5,6.300000000000001,3.8000000000000003,-0.8,5.4,-11.9
1698745586049.0,16,-1.6,-2.1,-1.0,-1.5,6.300000000000001,3.8000000000000003,-6.1000000000000005,2.4000000000000004,-21.1
1698745586065.0,16,-1.4000000000000001,-2.0,-1.4000000000000001,-1.3,6.300000000000001,3.4000000000000004,-18.0,-1.3,-28.500000000000004
1698745586082.0,16,-1.2000000000000002,-2.1,-1.6,-1.2000000000000002,6.2,3.2,-21.6,-2.1,-29.500000000000004
1698745586099.0,16,-0.7000000000000001,-1.8,-1.9000000000000001,-0.8,6.5,3.0,-19.8,-5.2,-28.500000000000004
1698745586115.0,16,-0.4,-1.6,-2.1,-0.6000000000000001,6.7,2.9000000000000004,-13.100000000000001,-12.9,-26.500000000000004
1698745586132.0,16,-0.7000000000000001,-1.6,-2.0,-0.9,6.6000000000000005,2.9000000000000004,-9.200000000000001,-22.3,-21.6
1698745586149.0,16,-1.2000000000000002,-1.3,-1.9000000000000001,-1.4000000000000001,6.9,3.0,-12.000000000000002,-30.799999999999997,-17.400000000000002
1698745586165.0,16,-1.3,-1.1,-1.8,-1.5,7.0,3.2,-13.700000000000001,-33.400000000000006,-15.8
1698745586181.0,16,-0.8,-0.6000000000000001,-1.7000000000000002,-1.0,7.5,3.3000000000000003,-11.2,-27.3,-14.4
1698745586198.0,16,0.2,-0.30000000000000004,-2.0,0.0,7.800000000000001,3.1,-7.1000000000000005,-21.0,-16.900000000000002
1698745586215.0,16,1.5,0.2,-1.9000000000000001,1.3,8.3,3.1,6.4,-6.4,-22.000000000000004
1698745586232.0,16,2.0,0.7000000000000001,-1.6,1.7000000000000002,8.8,3.4000000000000004,24.6,15.2,-19.1
1698745586248.0,16,1.6,0.5,-1.6,1.3,8.6,3.3000000000000003,32.5,24.9,-11.700000000000001
1698745586265.0,16,0.6000000000000001,1.2000000000000002,-2.8000000000000003,0.2,9.4,2.0,33.1,28.3,0.2
1698745586281.0,16,-1.2000000000000002,3.9000000000000004,-0.9,-1.6,12.200000000000001,3.7,21.900000000000002,-6.7,-7.2
1698745586298.0,16,-2.6,4.6000000000000005,1.1,-3.0,13.0,5.7,28.400000000000002,-8.799999999999999,-12.6
1698745586315.0,16,-1.4000000000000001,2.7,3.3000000000000003,-1.9000000000000001,11.100000000000001,7.800000000000001,49.8,18.8,-32.800000000000004
1698745586334.0,16,0.5,1.7000000000000002,3.8000000000000003,-0.2,10.200000000000001,8.200000000000001,49.8,22.6,-39.00000000000001
1698745586348.0,16,1.3,-0.6000000000000001,3.8000000000000003,0.5,7.9,8.1,29.900000000000006,23.3,-30.299999999999997
1698745586365.0,16,2.1,-0.9,3.9000000000000004,1.2000000000000002,7.7,8.200000000000001,18.900000000000002,27.6,-28.8
1698745586382.0,16,1.9000000000000001,0.2,3.8000000000000003,1.0,8.8,8.1,2.1,29.900000000000006,-30.4
1698745586398.0,16,1.4000000000000001,0.9,3.4000000000000004,0.30000000000000004,9.4,7.7,-3.6,33.900000000000006,-27.0
1698745586415.0,16,-0.4,1.1,3.0,-1.6,9.600000000000001,7.300000000000001,-18.400000000000002,27.1,-15.2
1698745586432.0,16,-1.7000000000000002,2.2,3.2,-2.9000000000000004,10.700000000000001,7.6000000000000005,-15.8,21.700000000000003,-4.9
1698745586448.0,16,-1.3,2.2,2.6,-2.5,10.8,7.0,-14.100000000000001,18.0,-2.5
1698745586465.0,16,-0.4,1.4000000000000001,1.5,-1.6,9.9,6.1000000000000005,-17.0,10.0,0.30000000000000004
1698745586481.0,16,-0.30000000000000004,0.30000000000000004,0.5,-1.6,8.8,5.1000000000000005,-21.8,-0.2,7.699999999999999
1698745586498.0,16,0.0,-0.7000000000000001,-0.2,-1.2000000000000002,7.7,4.5,-22.1,-5.0,11.2
1698745586515.0,16,0.4,-1.3,-0.6000000000000001,-0.8,7.1000000000000005,4.1000000000000005,-19.6,-2.1999999999999997,11.6
1698745586532.0,16,1.3,-2.4000000000000004,-1.2000000000000002,0.1,6.0,3.6,-11.6,-1.2000000000000002,12.000000000000002
1698745586549.0,16,1.6,-2.6,-1.4000000000000001,0.5,5.800000000000001,3.4000000000000004,-3.3000000000000003,-0.2,21.3
1698745586565.0,16,1.5,-2.5,-1.4000000000000001,0.5,5.800000000000001,3.3000000000000003,0.4,0.5,28.900000000000002
1698745586581.0,16,1.3,-2.1,-1.5,0.4,6.2,3.2,4.800000000000001,3.7000000000000006,42.900000000000006
1698745586598.0,16,1.2000000000000002,-1.9000000000000001,-1.7000000000000002,0.30000000000000004,6.6000000000000005,2.9000000000000004,4.9,4.800000000000001,46.5
1698745586615.0,16,0.8,-1.8,-1.8,0.1,6.6000000000000005,2.8000000000000003,2.8,7.2,46.0
1698745586633.0,16,0.5,-1.8,-2.0,-0.1,6.6000000000000005,2.6,0.5,14.3,41.5
1698745586648.0,16,0.1,-1.7000000000000002,-2.3000000000000003,-0.4,6.7,2.3000000000000003,-2.1999999999999997,20.8,35.6
1698745586666.0,16,0.1,-1.5,-2.4000000000000004,-0.4,6.800000000000001,2.2,-3.9,23.900000000000002,32.2
1698745586682.0,16,0.2,-1.5,-2.6,-0.2,6.800000000000001,2.0,-5.300000000000001,28.200000000000003,22.000000000000004
1698745586698.0,16,0.4,-1.3,-2.2,0.0,7.0,2.4000000000000004,-2.1999999999999997,35.5,13.100000000000001
1698745586715.0,16,0.5,-1.0,-2.2,0.0,7.4,2.4000000000000004,1.8,39.300000000000004,12.5
1698745586732.0,16,-0.2,-0.1,-2.2,-0.7000000000000001,8.200000000000001,2.3000000000000003,9.9,37.300000000000004,14.900000000000002
1698745586748.0,16,0.0,0.8,-1.6,-0.5,9.200000000000001,2.9000000000000004,15.5,26.500000000000004,12.000000000000002
1698745586766.0,16,-0.2,0.7000000000000001,-1.1,-0.7000000000000001,9.1,3.3000000000000003,21.5,10.3,7.699999999999999
1698745586782.0,16,-0.8,0.0,-1.4000000000000001,-1.3,8.4,2.9000000000000004,28.400000000000002,-9.9,5.0
1698745586799.0,16,-1.5,1.9000000000000001,-2.2,-1.9000000000000001,10.3,2.0,15.299999999999999,-9.3,3.9
1698745586815.0,16,-1.5,3.1,-1.5,-1.9000000000000001,11.600000000000001,2.7,7.500000000000001,-3.5,2.0
1698745586833.0,16,-0.9,3.9000000000000004,-0.4,-1.5,12.8,6.1000000000000005,16.0,-0.5,4.7
1698745586848.0,16,-1.9000000000000001,5.4,4.3,-2.3000000000000003,14.100000000000001,8.4,56.0,-30.299999999999997,29.300000000000004
1698745586866.0,16,-1.4000000000000001,3.4000000000000004,4.4,-1.7000000000000002,12.100000000000001,8.4,56.900000000000006,-35.7,31.0
1698745586882.0,16,0.2,1.3,5.0,0.0,10.100000000000001,9.0,25.1,-31.900000000000002,17.9
1698745586899.0,16,1.4000000000000001,0.2,3.9000000000000004,1.3,8.9,7.9,-22.8,-18.5,14.700000000000001
1698745586915.0,16,1.6,0.7000000000000001,4.4,1.6,9.5,8.5,-33.400000000000006,-18.400000000000002,13.4
1698745586933.0,16,0.7000000000000001,2.4000000000000004,3.5,0.8,11.100000000000001,7.800000000000001,-23.8,-18.8,19.200000000000003
1698745586948.0,16,0.1,2.5,3.5,0.2,11.200000000000001,7.800000000000001,-24.1,-12.100000000000001,17.7
1698745586965.0,16,0.1,1.7000000000000002,3.0,0.2,10.4,7.4,-26.0,-11.4,9.1
1698745586981.0,16,0.0,0.2,1.7000000000000002,0.1,8.8,6.2,-37.7,-5.300000000000001,-2.4000000000000004
1698745586998.0,16,-0.2,-0.6000000000000001,0.1,-0.1,8.0,4.800000000000001,-44.00000000000001,1.2000000000000002,-7.300000000000001
1698745587015.0,16,-0.4,-1.1,-0.5,-0.30000000000000004,7.5,4.2,-43.900000000000006,-1.7,-7.2
1698745587031.0,16,-0.8,-2.4000000000000004,-1.1,-0.7000000000000001,6.1000000000000005,3.7,-36.3,-7.1000000000000005,-5.0
1698745587048.0,16,-1.2000000000000002,-2.6,-1.2000000000000002,-1.1,5.7,3.7,-21.400000000000002,-13.8,-7.300000000000001
1698745587065.0,16,-1.4000000000000001,-2.5,-1.2000000000000002,-1.3,5.800000000000001,3.7,-13.9,-16.0,-10.1
1698745587082.0,16,-1.6,-2.2,-1.2000000000000002,-1.6,6.1000000000000005,3.7,-5.1,-16.5,-18.8
1698745587098.0,16,-1.3,-1.8,-1.3,-1.3,6.5,3.6,-5.0,-15.000000000000002,-29.800000000000004
1698745587115.0,16,-0.5,-1.7000000000000002,-1.6,-1.0,6.5,3.5,-7.2,-15.7,-34.2
1698745587132.0,16,-0.30000000000000004,-1.5,-1.6,-0.5,6.800000000000001,3.3000000000000003,-11.6,-17.200000000000003,-35.4
1698745587148.0,16,0.0,-1.4000000000000001,-1.9000000000000001,-0.2,6.800000000000001,3.0,-14.200000000000001,-20.4,-28.400000000000002
1698745587166.0,16,0.1,-1.5,-1.9000000000000001,-0.1,6.7,3.0,-15.6,-22.8,-24.9
1698745587182.0,16,-0.30000000000000004,-1.8,-1.9000000000000001,-0.5,6.4,3.0,-17.7,-29.000000000000004,-17.9
1698745587198.0,16,-0.9,-1.3,-1.9000000000000001,-1.1,6.800000000000001,3.1,-20.6,-40.4,-12.8
1698745587215.0,16,-1.4000000000000001,-0.7000000000000001,-2.1,-1.6,7.300000000000001,3.0,-21.1,-43.900000000000006,-10.8
1698745587231.0,16,-1.2000000000000002,-0.4,-2.1,-1.3,7.6000000000000005,2.9000000000000004,-17.7,-46.1,-9.200000000000001
1698745587248.0,16,-0.2,0.1,-2.2,-0.30000000000000004,8.1,2.9000000000000004,-8.700000000000001,-33.1,-18.400000000000002
1698745587265.0,16,0.6000000000000001,0.0,-2.1,0.4,8.0,3.0,-0.8,-24.8,-23.2
1698745587281.0,16,1.4000000000000001,0.1,-1.6,1.2000000000000002,8.200000000000001,3.5,21.0,-0.5,-25.1
1698745587299.0,16,2.4000000000000004,0.2,-2.2,2.1,8.3,2.8000000000000003,41.4,19.0,-15.2
1698745587315.0,16,2.3000000000000003,0.8,-2.8000000000000003,2.0,8.9,2.0,43.900000000000006,18.3,-9.1
1698745587331.0,16,0.4,2.9000000000000004,-2.5,0.2,11.100000000000001,2.2,32.300000000000004,-0.5,-4.2
1698745587348.0,16,-1.3,6.2,2.6,-1.6,14.5,7.2,40.1,3.3000000000000003,-15.9
1698745587365.0,16,-2.2,2.1,2.4000000000000004,-2.6,10.600000000000001,6.9,54.4,20.8,-28.1
1698745587381.0,16,-1.3,1.6,3.5,-1.9000000000000001,10.100000000000001,7.9,51.6,19.400000000000002,-31.5
1698745587398.0,16,2.3000000000000003,0.4,4.6000000000000005,1.7000000000000002,8.9,9.0,40.7,13.0,-37.6
1698745587415.0,16,3.4000000000000004,-1.0,4.4,2.6,7.6000000000000005,8.700000000000001,22.000000000000004,27.900000000000002,-47.5
1698745587432.0,16,2.9000000000000004,-0.6000000000000001,4.5,2.0,8.0,8.8,10.4,34.800000000000004,-48.00000000000001
1698745587448.0,16,1.2000000000000002,0.30000000000000004,3.1,0.2,8.8,7.4,-12.8,34.900000000000006,-30.5
1698745587465.0,16,-1.0,2.8000000000000003,3.9000000000000004,-0.4,10.0,7.800000000000001,-25.0,29.300000000000004,-18.900000000000002
1698745587482.0,16,-2.0,3.3000000000000003,3.2,-3.1,11.8,7.6000000000000005,-28.0,25.2,-1.8
1698745587498.0,16,-1.2000000000000002,2.0,1.6,-2.3000000000000003,10.5,6.2,-23.3,20.4,11.8
1698745587515.0,16,-0.2,0.5,0.4,-1.3,9.0,5.0,-21.5,12.200000000000001,11.5
1698745587532.0,16,0.2,-0.1,-0.1,-0.9,8.4,4.6000000000000005,-21.6,8.9,10.0
1698745587548.0,16,0.6000000000000001,-1.1,-0.8,-0.5,7.300000000000001,3.9000000000000004,-19.9,7.9,6.1000000000000005
1698745587565.0,16,1.1,-2.6,-1.5,0.0,5.800000000000001,3.2,-15.000000000000002,9.600000000000001,3.6
1698745587581.0,16,1.1,-2.9000000000000004,-1.6,0.0,5.5,3.1,-11.700000000000001,9.1,5.0
1698745587598.0,16,1.0,-3.2,-1.7000000000000002,-0.1,5.2,3.1,-3.5,6.7,14.800000000000002
1698745587615.0,16,0.9,-3.1,-1.7000000000000002,-0.1,5.300000000000001,3.0,4.1000000000000005,5.300000000000001,26.6
1698745587632.0,16,0.9,-2.7,-1.7000000000000002,-0.1,5.6000000000000005,3.0,6.1000000000000005,5.500000000000001,30.7
1698745587648.0,16,0.8,-1.8,-1.7000000000000002,-0.1,6.5,2.9000000000000004,7.699999999999999,7.699999999999999,32.300000000000004
1698745587665.0,16,1.1,-1.5,-1.9000000000000001,0.30000000000000004,6.9,2.7,6.3,10.4,29.700000000000003
1698745587682.0,16,1.0,-1.1,-2.0,0.30000000000000004,7.300000000000001,2.6,-0.9,15.8,20.8
1698745587699.0,16,0.8,-1.3,-2.3000000000000003,0.0,7.0,2.3000000000000003,-9.4,26.1,16.400000000000002
1698745587715.0,16,0.9,-2.0,-2.4000000000000004,0.1,6.300000000000001,2.2,-13.3,37.4,10.3
1698745587732.0,16,1.1,-1.9000000000000001,-2.3000000000000003,0.30000000000000004,6.4,2.4000000000000004,-10.8,42.300000000000004,7.400000000000001
1698745587749.0,16,1.0,-1.2000000000000002,-2.3000000000000003,0.1,7.1000000000000005,2.3000000000000003,2.0,46.7,7.699999999999999
1698745587765.0,16,0.4,0.1,-1.8,-0.5,8.4,2.7,19.0,42.300000000000004,15.6
1698745587783.0,16,0.2,0.6000000000000001,-1.2000000000000002,-0.7000000000000001,8.9,3.3000000000000003,27.6,36.3,18.0
1698745587799.0,16,0.0,0.5,-0.5,-0.9,8.9,3.9000000000000004,41.9,11.3,12.6
1698745587816.0,16,-0.7000000000000001,0.9,-0.9,-2.5,10.600000000000001,2.2,28.500000000000004,6.8,14.500000000000002
1698745587832.0,16,-2.0,2.9000000000000004,-3.0,-2.8000000000000003,11.4,1.2000000000000002,8.3,13.6,19.700000000000003
1698745587848.0,16,-0.6000000000000001,3.9000000000000004,-1.8,-1.5,12.3,2.5,-23.3,22.8,10.600000000000001
1698745587865.0,16,-0.8,4.1000000000000005,1.8,-1.6,12.600000000000001,6.0,10.4,-2.0,13.4
1698745587881.0,16,-3.2,5.1000000000000005,3.7,-3.9000000000000004,13.8,7.800000000000001,66.60000000000001,-30.599999999999998,41.300000000000004
1698745587898.0,16,-2.6,3.7,5.1000000000000005,-3.2,12.4,9.1,74.0,-39.2,43.900000000000006
1698745587915.0,16,-2.3000000000000003,1.0,6.800000000000001,-2.8000000000000003,9.8,10.700000000000001,52.400000000000006,-56.6,25.900000000000002
1698745587931.0,16,-1.9000000000000001,-0.7000000000000001,5.300000000000001,-2.3000000000000003,8.1,9.200000000000001,14.800000000000002,-53.7,24.3
1698745587950.0,16,1.5,-0.4,3.7,1.3,8.3,7.800000000000001,-60.7,-38.900000000000006,20.6
1698745587965.0,16,2.0,1.6,3.8000000000000003,1.9000000000000001,10.3,8.1,-60.1,-28.0,17.7
1698745587982.0,16,2.3000000000000003,3.2,3.3000000000000003,2.1,11.9,7.7,-45.9,-21.0,15.8
1698745587998.0,16,1.2000000000000002,2.7,2.7,1.1,11.4,7.2,-18.0,-19.9,5.8
1698745588015.0,16,0.2,-0.1,2.0,0.1,8.5,6.6000000000000005,-18.3,-12.200000000000001,-2.6
1698745588031.0,16,0.0,-0.7000000000000001,1.4000000000000001,-0.1,7.9,6.0,-26.9,-7.2,-4.1000000000000005
1698745588048.0,16,-0.30000000000000004,-1.1,-0.4,-0.30000000000000004,7.5,4.4,-44.7,3.0000000000000004,-3.2
1698745588065.0,16,-0.9,-2.0,-1.7000000000000002,-0.9,6.4,3.2,-47.5,-0.4,-0.1
1698745588081.0,16,-1.3,-2.8000000000000003,-2.2,-1.4000000000000001,5.6000000000000005,2.7,-36.3,-6.000000000000001,-4.6000000000000005
1698745588098.0,16,-1.5,-3.0,-2.3000000000000003,-1.6,5.300000000000001,2.7,-27.5,-8.700000000000001,-9.8
1698745588115.0,16,-1.7000000000000002,-2.8000000000000003,-2.1,-1.8,5.4,2.9000000000000004,-9.700000000000001,-13.3,-18.8
1698745588131.0,16,-1.6,-2.5,-2.0,-1.7000000000000002,5.800000000000001,3.0,0.5,-22.4,-22.8
1698745588150.0,16,-1.6,-2.4000000000000004,-2.0,-1.7000000000000002,5.9,3.0,0.2,-26.8,-22.8
1698745588165.0,16,-1.5,-2.0,-2.0,-1.6,6.2,3.1,-8.1,-29.500000000000004,-21.3
1698745588181.0,16,-0.9,-1.5,-2.2,-1.1,6.7,2.8000000000000003,-17.599999999999998,-34.0,-22.900000000000002
1698745588198.0,16,-0.6000000000000001,-1.3,-2.2,-0.8,6.800000000000001,2.9000000000000004,-20.7,-37.800000000000004,-23.3
1698745588215.0,16,-0.5,-1.4000000000000001,-2.5,-0.7000000000000001,6.6000000000000005,2.6,-20.6,-43.2,-20.0
1698745588231.0,16,-0.6000000000000001,-1.3,-2.3000000000000003,-0.7000000000000001,6.7,2.8000000000000003,-14.800000000000002,-47.800000000000004,-16.900000000000002
1698745588248.0,16,-0.5,-1.0,-2.4000000000000004,-0.6000000000000001,7.0,2.7,-11.000000000000002,-48.9,-16.2
1698745588265.0,16,0.2,0.0,-2.0,0.1,8.0,3.1,-3.4,-44.1,-16.0
1698745588281.0,16,0.5,1.0,-1.7000000000000002,0.4,9.0,3.4000000000000004,6.4,-30.599999999999998,-14.100000000000001
1698745588298.0,16,0.4,1.7000000000000002,-1.0,0.2,9.5,3.8000000000000003,11.3,-21.5,-11.000000000000002
1698745588315.0,16,0.9,1.3,-1.2000000000000002,0.8,9.4,3.8000000000000003,21.900000000000002,2.5,-7.400000000000001
1698745588331.0,16,1.5,1.0,-2.4000000000000004,1.4000000000000001,9.1,2.5,21.5,11.6,-1.4
1698745588349.0,16,1.4000000000000001,2.0,-1.9000000000000001,1.3,10.200000000000001,3.0,19.400000000000002,8.799999999999999,0.1
1698745588365.0,16,0.8,4.6000000000000005,0.5,0.7000000000000001,12.8,5.4,31.4,5.4,-9.0
1698745588382.0,16,-0.4,3.2,3.8000000000000003,-0.6000000000000001,11.600000000000001,8.6,52.900000000000006,19.1,-20.7
1698745588399.0,16,-0.7000000000000001,2.4000000000000004,4.1000000000000005,-1.0,10.8,8.700000000000001,59.1,27.7,-22.6
1698745588415.0,16,0.30000000000000004,1.3,5.0,-0.1,9.8,9.5,43.6,31.5,-30.599999999999998
1698745588432.0,16,2.3000000000000003,-0.1,4.9,1.8,8.5,9.4,23.1,60.00000000000001,-41.4
1698745588448.0,16,1.9000000000000001,-0.6000000000000001,4.0,1.3,7.9,8.4,13.200000000000001,61.7,-45.9
1698745588464.0,16,0.7000000000000001,-0.2,1.9000000000000001,-0.1,8.3,6.4,-13.3,47.6,-22.3
1698745588481.0,16,-1.5,1.9000000000000001,3.1,-2.4000000000000004,10.3,7.7,-33.2,35.1,-7.699999999999999
1698745588498.0,16,-1.8,2.4000000000000004,2.0,-2.8000000000000003,10.9,6.7,-25.8,34.400000000000006,1.2000000000000002
1698745588515.0,16,-1.0,1.8,1.6,-2.1,10.3,6.4,-23.6,31.0,3.6
1698745588532.0,16,0.1,0.30000000000000004,0.5,-1.0,8.700000000000001,5.300000000000001,-20.6,24.200000000000003,3.0000000000000004
1698745588548.0,16,0.5,-0.2,0.1,-0.6000000000000001,8.200000000000001,4.9,-19.9,20.900000000000002,5.0
1698745588565.0,16,1.1,-1.7000000000000002,-0.6000000000000001,0.0,6.6000000000000005,4.3,-17.5,18.2,9.1
1698745588582.0,16,0.8,-2.2,-1.1,-0.2,6.1000000000000005,3.8000000000000003,-12.4,16.1,17.3
1698745588599.0,16,0.6000000000000001,-2.4000000000000004,-1.3,-0.4,5.9,3.6,-9.700000000000001,16.3,21.1
1698745588615.0,16,0.4,-2.6,-1.4000000000000001,-0.6000000000000001,5.7,3.5,-3.3000000000000003,17.5,25.700000000000003
1698745588631.0,16,0.5,-2.4000000000000004,-1.8,-0.5,5.800000000000001,3.1,3.3000000000000003,19.1,31.900000000000002
1698745588648.0,16,0.8,-2.1,-2.0,0.0,6.1000000000000005,2.8000000000000003,5.9,18.2,34.6
1698745588664.0,16,1.0,-1.8,-2.1,0.2,6.5,2.7,5.500000000000001,16.8,34.1
1698745588681.0,16,0.8,-1.2000000000000002,-2.2,0.1,7.1000000000000005,2.6,0.7,18.2,32.4
1698745588698.0,16,0.4,-1.3,-2.3000000000000003,-0.1,7.1000000000000005,2.5,-2.6,20.900000000000002,30.7
1698745588715.0,16,0.1,-1.4000000000000001,-2.3000000000000003,-0.5,6.9,2.4000000000000004,-8.9,26.1,24.3
1698745588731.0,16,0.1,-1.6,-2.7,-0.6000000000000001,6.6000000000000005,2.1,-10.9,29.800000000000004,18.3
1698745588748.0,16,0.30000000000000004,-1.8,-2.6,-0.4,6.5,2.2,-5.9,33.900000000000006,12.5
1698745588765.0,16,0.8,-1.5,-2.5,0.1,6.7,2.2,-0.30000000000000004,34.6,11.1
1698745588782.0,16,0.4,0.1,-2.3000000000000003,-0.30000000000000004,8.3,2.4000000000000004,11.5,31.099999999999998,14.100000000000001
1698745588798.0,16,0.0,1.1,-1.7000000000000002,-0.7000000000000001,9.4,2.9000000000000004,20.3,19.6,16.3
1698745588815.0,16,-0.1,0.8,-1.1,-0.7000000000000001,9.1,3.5,24.5,8.1,12.5
1698745588831.0,16,-0.30000000000000004,0.0,-1.6,-1.0,8.3,2.9000000000000004,26.9,-4.6000000000000005,5.0
1698745588849.0,16,-1.6,2.3000000000000003,-1.6,-2.2,10.700000000000001,2.8000000000000003,15.100000000000001,-1.9,8.3
1698745588865.0,16,-1.5,3.3000000000000003,-1.7000000000000002,-2.1,11.700000000000001,2.7,11.3,6.7,14.600000000000001
1698745588882.0,16,-1.1,4.4,3.1,-1.7000000000000002,12.8,7.5,27.5,-1.0999999999999999,16.900000000000002
1698745588899.0,16,-2.0,5.0,4.800000000000001,-2.5,13.600000000000001,9.0,70.6,-29.900000000000006,41.6
1698745588915.0,16,-2.0,2.9000000000000004,6.300000000000001,-2.4000000000000004,11.5,10.4,65.5,-33.300000000000004,38.5
1698745588932.0,16,-1.2000000000000002,0.0,4.800000000000001,-1.5,8.8,8.9,24.400000000000002,-45.5,34.6
1698745588948.0,16,1.7000000000000002,0.30000000000000004,4.1000000000000005,1.6,9.0,8.3,-33.2,-29.500000000000004,17.5
1698745588965.0,16,1.8,1.2000000000000002,3.9000000000000004,1.8,9.9,8.1,-34.2,-26.200000000000003,12.6
1698745588982.0,16,1.1,3.0,3.6,1.1,11.600000000000001,7.9,-16.2,-21.900000000000002,14.4
1698745588998.0,16,-0.2,2.6,3.5,-0.2,11.3,7.9,-3.4,-19.9,7.500000000000001
1698745589015.0,16,-0.4,1.6,3.2,-0.30000000000000004,10.3,7.6000000000000005,-7.500000000000001,-17.7,-1.3
1698745589031.0,16,-0.5,0.2,1.9000000000000001,-0.5,8.8,6.4,-30.4,-3.4,-6.5
1698745589048.0,16,-0.7000000000000001,-1.0,0.5,-0.5,8.200000000000001,5.800000000000001,-39.8,1.4,-7.500000000000001
1698745589065.0,16,-0.6000000000000001,-1.3,-0.1,-0.6000000000000001,7.2,4.6000000000000005,-42.400000000000006,1.0999999999999999,-6.8
1698745589081.0,16,-1.2000000000000002,-2.2,-0.9,-1.1,6.300000000000001,3.9000000000000004,-31.900000000000002,-6.4,-1.8
1698745589098.0,16,-1.2000000000000002,-2.4000000000000004,-1.1,-1.2000000000000002,6.0,3.8000000000000003,-20.7,-13.8,-9.4
1698745589115.0,16,-1.3,-2.4000000000000004,-1.1,-1.3,6.0,3.8000000000000003,-16.400000000000002,-15.7,-15.5
1698745589131.0,16,-1.4000000000000001,-2.2,-1.3,-1.5,6.2,3.6,-13.0,-17.7,-24.200000000000003
1698745589148.0,16,-1.5,-2.0,-1.7000000000000002,-1.6,6.300000000000001,3.2,-18.3,-20.900000000000002,-27.6
1698745589165.0,16,-1.4000000000000001,-2.0,-1.9000000000000001,-1.6,6.2,3.1,-22.1,-22.5,-29.000000000000004
1698745589182.0,16,-1.0,-2.1,-2.1,-1.2000000000000002,6.1000000000000005,2.9000000000000004,-24.6,-24.7,-32.2
1698745589198.0,16,-0.4,-2.1,-2.5,-0.6000000000000001,6.0,2.6,-20.1,-30.7,-33.0
1698745589215.0,16,-0.30000000000000004,-2.0,-2.4000000000000004,-0.5,6.1000000000000005,2.6,-16.8,-35.3,-30.200000000000003
1698745589232.0,16,-0.4,-1.6,-2.5,-0.6000000000000001,6.4,2.6,-10.9,-44.5,-20.2
1698745589248.0,16,-0.8,-0.7000000000000001,-2.0,-1.0,7.300000000000001,3.1,-11.2,-50.4,-15.2
1698745589266.0,16,-0.6000000000000001,-0.1,-1.9000000000000001,-0.8,7.9,3.2,-14.200000000000001,-49.2,-14.600000000000001
1698745589289.0,16,0.2,0.1,-2.1,0.1,8.1,3.0,-14.0,-43.0,-14.100000000000001
1698745589298.0,16,0.5,0.1,-2.2,0.4,8.1,3.0,-11.3,-37.300000000000004,-14.600000000000001
1698745589315.0,16,0.9,0.30000000000000004,-2.1,0.8,8.3,3.1,3.3000000000000003,-17.7,-17.0
1698745589331.0,16,1.2000000000000002,0.30000000000000004,-2.0,1.0,8.3,3.1,13.8,-6.6000000000000005,-17.1
1698745589348.0,16,1.4000000000000001,0.1,-2.7,1.2000000000000002,8.200000000000001,2.4000000000000004,32.7,9.4,-6.7
1698745589365.0,16,0.1,1.8,-3.3000000000000003,0.0,10.0,1.6,35.3,-4.1000000000000005,-0.8
1698745589382.0,16,-0.5,3.4000000000000004,-1.0,-0.7000000000000001,11.600000000000001,3.9000000000000004,36.4,-16.1,-5.1
1698745589398.0,16,-0.9,4.0,3.0,-1.1,12.3,7.7,66.0,3.3000000000000003,-25.900000000000002
1698745589415.0,16,0.9,2.9000000000000004,4.4,0.5,11.3,8.9,77.1,25.5,-40.1
1698745589431.0,16,1.6,2.2,4.3,1.2000000000000002,10.700000000000001,8.700000000000001,63.900000000000006,21.6,-40.0
1698745589448.0,16,2.2,-0.5,5.1000000000000005,1.6,8.1,9.5,21.6,33.800000000000004,-39.9
1698745589465.0,16,1.7000000000000002,-0.4,4.7,1.0,8.1,9.1,-1.0999999999999999,40.7,-35.8
1698745589482.0,16,1.3,0.5,3.8000000000000003,0.6000000000000001,9.0,8.3,-9.4,40.4,-26.0
1698745589498.0,16,0.2,1.3,2.8000000000000003,-0.7000000000000001,9.8,7.300000000000001,-23.6,28.8,-14.800000000000002
1698745589515.0,16,-1.8,2.3000000000000003,2.7,-2.8000000000000003,10.8,7.300000000000001,-15.5,24.3,-5.2
1698745589532.0,16,-1.7000000000000002,2.3000000000000003,2.0,-2.7,10.700000000000001,6.6000000000000005,-9.5,22.5,-0.7
1698745589548.0,16,-0.8,1.1,1.4000000000000001,-1.8,9.5,6.0,-5.300000000000001,14.200000000000001,-1.0999999999999999
1698745589565.0,16,0.1,0.7000000000000001,0.6000000000000001,-1.6,9.4,5.6000000000000005,-5.300000000000001,12.5,-0.8
1698745589582.0,16,0.6000000000000001,0.2,0.2,-0.4,8.700000000000001,4.800000000000001,-8.1,10.1,2.3000000000000003
1698745589598.0,16,0.9,-0.7000000000000001,-0.2,-0.2,7.7,4.4,-8.4,14.200000000000001,7.9
1698745589615.0,16,1.7000000000000002,-2.2,-0.7000000000000001,0.4,6.9,4.1000000000000005,-7.2,17.400000000000002,10.3
1698745589632.0,16,1.8,-2.6,-0.8,0.8,5.800000000000001,3.8000000000000003,-4.0,19.1,17.9
1698745589648.0,16,1.7000000000000002,-2.5,-1.1,0.8,5.9,3.6,0.1,22.5,32.1
1698745589665.0,16,1.3,-1.9000000000000001,-1.4000000000000001,0.4,6.5,3.2,1.8,21.8,46.900000000000006
1698745589681.0,16,0.8,-1.6,-1.6,0.0,6.800000000000001,3.0,1.9,22.000000000000004,51.800000000000004
1698745589698.0,16,0.4,-1.4000000000000001,-2.0,-0.30000000000000004,7.0,2.6,0.9,24.400000000000002,55.0
1698745589715.0,16,0.30000000000000004,-1.5,-2.0,-0.30000000000000004,6.9,2.6,-0.9,25.0,47.1
1698745589731.0,16,0.0,-1.6,-2.0,-0.5,6.800000000000001,2.6,-1.0,26.500000000000004,41.300000000000004
1698745589748.0,16,-0.30000000000000004,-1.5,-1.9000000000000001,-0.7000000000000001,6.9,2.6,-0.8,29.200000000000003,31.0
1698745589764.0,16,-0.4,-1.1,-2.0,-0.9,7.300000000000001,2.5,-1.2000000000000002,30.9,27.400000000000002
1698745589781.0,16,-0.4,-1.0,-2.1,-0.8,7.4,2.4000000000000004,-4.3999999999999995,35.199999999999996,20.900000000000002
1698745589798.0,16,-0.30000000000000004,-0.7000000000000001,-2.2,-0.8,7.7,2.3000000000000003,-8.1,38.400000000000006,14.700000000000001
1698745589815.0,16,-0.2,-0.1,-2.3000000000000003,-0.7000000000000001,8.200000000000001,2.2,-8.600000000000001,40.7,10.8
1698745589832.0,16,-0.1,0.1,-2.3000000000000003,-0.6000000000000001,8.5,2.2,-7.2,38.400000000000006,8.700000000000001
1698745589848.0,16,-0.1,0.4,-2.1,-0.6000000000000001,8.8,2.4000000000000004,-0.30000000000000004,25.700000000000003,6.3
1698745589865.0,16,-0.7000000000000001,0.0,-1.4000000000000001,-1.3,8.4,3.1,15.5,5.6,7.300000000000001
1698745589881.0,16,-0.9,-0.4,-1.4000000000000001,-1.5,8.0,2.9000000000000004,22.900000000000002,-3.5,5.500000000000001
1698745589898.0,16,-1.3,0.5,-1.3,-1.9000000000000001,8.9,3.0,24.400000000000002,-5.1,-2.7
1698745589915.0,16,-1.4000000000000001,3.3000000000000003,-1.2000000000000002,-1.9000000000000001,11.8,3.1,13.100000000000001,13.9,3.7000000000000006
1698745589931.0,16,-1.3,4.6000000000000005,3.4000000000000004,-1.7000000000000002,12.200000000000001,5.1000000000000005,11.6,11.1,5.0
1698745589948.0,16,-1.4000000000000001,5.300000000000001,3.7,-1.9000000000000001,13.9,7.9,38.6,-14.700000000000001,20.8
1698745589965.0,16,-0.4,2.0,4.6000000000000005,-0.8,10.600000000000001,8.700000000000001,32.5,-21.3,26.6
1698745589982.0,16,0.30000000000000004,1.0,5.300000000000001,-0.1,9.700000000000001,9.4,24.9,-28.200000000000003,23.1
1698745589998.0,16,1.0,-0.8,3.8000000000000003,0.7000000000000001,7.9,7.9,-3.7000000000000006,-24.6,21.5
1698745590015.0,16,1.4000000000000001,1.1,4.3,1.3,9.700000000000001,8.5,-21.700000000000003,-27.7,20.4
1698745590032.0,16,0.1,2.6,3.6,0.8,10.4,8.1,-23.2,-22.7,20.7
1698745590049.0,16,-0.30000000000000004,3.2,3.6,-0.30000000000000004,11.9,8.0,-26.0,-11.2,16.3
1698745590065.0,16,-0.1,1.8,2.4000000000000004,0.0,10.4,6.9,-30.799999999999997,-6.3,0.4
1698745590082.0,16,0.1,0.6000000000000001,1.9000000000000001,0.1,9.200000000000001,6.5,-35.1,-2.9,-4.0
1698745590098.0,16,0.2,-0.6000000000000001,0.8,0.2,7.9,5.4,-36.6,6.5,-7.6
1698745590115.0,16,0.2,-0.7000000000000001,-0.5,0.2,7.800000000000001,4.2,-32.6,4.800000000000001,-8.3
1698745590131.0,16,-0.2,-1.0,-0.8,-0.2,7.5,4.0,-29.1,-0.30000000000000004,-6.3
1698745590148.0,16,-1.0,-1.5,-1.2000000000000002,-1.0,6.9,3.7,-22.1,-2.9,-6.5
1698745590165.0,16,-1.5,-1.9000000000000001,-1.3,-1.6,6.5,3.7,-16.900000000000002,-8.0,-13.700000000000001
1698745590182.0,16,-1.9000000000000001,-2.2,-1.4000000000000001,-2.0,6.1000000000000005,3.5,-15.299999999999999,-10.2,-21.400000000000002
1698745590198.0,16,-1.8,-2.2,-1.6,-2.0,6.1000000000000005,3.4000000000000004,-15.9,-10.0,-25.400000000000002
1698745590215.0,16,-1.3,-2.1,-1.9000000000000001,-1.5,6.2,3.1,-17.200000000000003,-12.200000000000001,-33.1
1698745590231.0,16,-0.5,-1.9000000000000001,-2.1,-0.9,6.300000000000001,2.9000000000000004,-16.700000000000003,-14.600000000000001,-35.1
1698745590248.0,16,-0.30000000000000004,-1.8,-2.2,-0.7000000000000001,6.300000000000001,2.9000000000000004,-13.100000000000001,-19.9,-33.0
1698745590265.0,16,0.0,-1.9000000000000001,-2.2,-0.4,6.300000000000001,2.9000000000000004,-9.5,-27.1,-25.700000000000003
1698745590282.0,16,-0.5,-1.7000000000000002,-2.3000000000000003,-0.9,6.4,2.7,-10.5,-34.800000000000004,-17.7
1698745590298.0,16,-0.8,-1.4000000000000001,-2.2,-1.2000000000000002,6.7,2.8000000000000003,-12.700000000000001,-39.6,-15.100000000000001
1698745590315.0,16,-1.1,-0.8,-2.2,-1.4000000000000001,7.300000000000001,3.0,-15.9,-47.300000000000004,-12.700000000000001
1698745590333.0,16,-0.6000000000000001,0.2,-1.9000000000000001,-0.9,8.200000000000001,3.3000000000000003,-13.6,-43.400000000000006,-13.5
1698745590350.0,16,-0.2,0.7000000000000001,-2.0,-0.5,8.700000000000001,3.1,-9.5,-37.4,-15.000000000000002
1698745590365.0,16,0.6000000000000001,1.2000000000000002,-1.7000000000000002,0.30000000000000004,9.200000000000001,3.4000000000000004,1.0,-22.8,-21.200000000000003
1698745590381.0,16,1.3,0.7000000000000001,-1.6,1.0,8.700000000000001,3.5,18.2,-0.2,-23.2
1698745590398.0,16,1.7000000000000002,0.30000000000000004,-1.7000000000000002,1.3,8.3,3.4000000000000004,32.300000000000004,14.0,-12.5
1698745590414.0,16,1.5,1.3,-2.4000000000000004,1.1,9.4,2.5,33.300000000000004,11.700000000000001,-8.600000000000001
1698745590431.0,16,0.9,4.2,-0.7000000000000001,0.4,12.4,4.2,35.7,9.5,-12.3
1698745590449.0,16,0.6000000000000001,4.2,0.6000000000000001,0.1,12.4,5.4,40.0,12.8,-18.0
1698745590465.0,16,-0.4,2.7,3.1,-1.0,11.0,7.800000000000001,50.9,25.0,-26.700000000000003
1698745590481.0,16,-0.2,1.8,4.7,-0.9,10.200000000000001,9.200000000000001,46.900000000000006,17.8,-30.7
1698745590499.0,16,0.7000000000000001,1.1,5.0,-0.1,9.600000000000001,9.5,40.1,21.8,-35.0
1698745590515.0,16,1.7000000000000002,-0.30000000000000004,4.3,0.7000000000000001,8.200000000000001,8.700000000000001,21.1,32.800000000000004,-55.300000000000004
1698745590531.0,16,0.30000000000000004,-1.0,2.2,-0.9,7.5,6.6000000000000005,-1.4,23.1,-38.300000000000004
1698745590548.0,16,0.1,-0.1,2.0,-1.1,8.3,6.4,-14.900000000000002,15.7,-25.400000000000002
1698745590565.0,16,-1.2000000000000002,1.9000000000000001,2.8000000000000003,-2.5,10.4,7.4,-22.7,9.9,-22.000000000000004
1698745590581.0,16,-0.6000000000000001,2.1,1.9000000000000001,-1.9000000000000001,10.600000000000001,6.5,-12.4,6.4,-14.4
1698745590598.0,16,-0.1,1.4000000000000001,1.5,-1.5,9.8,6.1000000000000005,-10.700000000000001,3.9,-8.799999999999999
1698745590615.0,16,0.5,0.4,0.5,-0.9,8.8,5.2,-13.4,-3.3000000000000003,-4.0
1698745590631.0,16,0.7000000000000001,-0.1,-0.1,-0.6000000000000001,8.200000000000001,4.6000000000000005,-18.5,-10.5,4.0
1698745590648.0,16,0.8,-0.6000000000000001,-0.4,-0.4,6.800000000000001,4.2,-18.900000000000002,-10.3,6.000000000000001
1698745590665.0,16,0.9,-2.1,-0.8,-0.4,6.2,4.0,-14.900000000000002,-15.7,6.4
1698745590681.0,16,0.5,-2.6,-1.1,-0.7000000000000001,5.7,3.8000000000000003,-8.0,-14.3,12.700000000000001
1698745590698.0,16,0.6000000000000001,-2.5,-1.2000000000000002,-0.6000000000000001,5.800000000000001,3.7,-3.9,-12.700000000000001,17.0
1698745590715.0,16,0.9,-2.1,-1.5,-0.2,6.2,3.4000000000000004,2.1,-10.4,25.1
1698745590731.0,16,1.0,-1.6,-1.7000000000000002,0.0,6.7,3.1,2.8,-7.8,30.100000000000005
1698745590748.0,16,1.5,-1.2000000000000002,-2.0,0.6000000000000001,7.0,2.8000000000000003,-3.7000000000000006,-4.3999999999999995,28.1
1698745590764.0,16,1.5,-1.2000000000000002,-2.0,0.7000000000000001,7.0,2.8000000000000003,-8.799999999999999,-3.9,25.5
1698745590781.0,16,1.1,-1.3,-2.0,0.30000000000000004,7.0,2.9000000000000004,-16.6,0.1,22.2
1698745590798.0,16,0.5,-1.1,-2.1,-0.2,7.0,2.8000000000000003,-21.3,5.7,19.6
1698745590815.0,16,0.4,-1.1,-2.2,-0.30000000000000004,7.1000000000000005,2.7,-22.2,8.4,16.700000000000003
1698745590832.0,16,0.4,-1.0,-2.4000000000000004,-0.2,7.1000000000000005,2.6,-20.900000000000002,11.9,11.1
1698745590849.0,16,0.30000000000000004,-0.7000000000000001,-2.4000000000000004,-0.30000000000000004,7.4,2.6,-14.700000000000001,13.200000000000001,7.500000000000001
1698745590865.0,16,0.2,-0.30000000000000004,-2.5,-0.5,7.7,2.5,-10.3,14.700000000000001,6.8
1698745590883.0,16,0.30000000000000004,0.5,-2.3000000000000003,-0.4,8.5,2.7,-1.2000000000000002,16.3,4.800000000000001
1698745590898.0,16,0.5,0.7000000000000001,-1.6,-0.2,8.8,3.3000000000000003,10.5,3.3000000000000003,3.3000000000000003
1698745590914.0,16,0.2,0.4,-1.5,-0.5,8.5,3.4000000000000004,17.3,-7.500000000000001,3.8
1698745590931.0,16,-0.7000000000000001,0.9,-1.6,-1.4000000000000001,9.1,3.2,24.5,-17.400000000000002,4.2
1698745590948.0,16,-2.3000000000000003,3.2,-2.0,-2.9000000000000004,11.4,2.7,11.5,-5.500000000000001,8.700000000000001
1698745590965.0,16,-1.8,3.8000000000000003,-0.6000000000000001,-2.4000000000000004,12.100000000000001,4.1000000000000005,4.6000000000000005,3.4,7.8
1698745590982.0,16,-1.2000000000000002,4.800000000000001,4.0,-1.8,13.100000000000001,8.700000000000001,30.599999999999998,-19.6,12.4
1698745590998.0,16,-0.9,2.6,4.9,-1.3,11.0,9.5,45.5,-31.7,29.700000000000003
1698745591015.0,16,-1.0,1.6,5.7,-1.3,10.0,10.3,38.7,-40.6,33.6
1698745591031.0,16,1.0,-0.5,3.4000000000000004,0.9,8.0,8.0,-3.7000000000000006,-39.8,35.5
1698745591048.0,16,2.1,0.30000000000000004,3.6,2.0,8.700000000000001,8.3,-28.900000000000002,-37.800000000000004,20.0
1698745591065.0,16,1.4000000000000001,1.2000000000000002,3.2,1.4000000000000001,9.600000000000001,8.0,-25.5,-26.500000000000004,19.500000000000004
1698745591081.0,16,0.7000000000000001,3.4000000000000004,3.7,0.8,11.8,8.6,-9.9,-18.2,19.6
1698745591098.0,16,0.0,1.8,3.2,0.2,10.200000000000001,8.1,-8.700000000000001,-16.8,9.600000000000001
1698745591115.0,16,0.0,0.8,2.6,0.2,9.200000000000001,7.5,-18.2,-11.1,5.6
1698745591131.0,16,0.30000000000000004,-0.4,1.4000000000000001,0.5,8.0,6.5,-38.1,2.6,2.5
1698745591151.0,16,0.4,-0.6000000000000001,-0.1,0.5,7.7,5.1000000000000005,-39.50000000000001,7.0,-1.0999999999999999
1698745591165.0,16,-0.1,-1.0,-0.6000000000000001,0.1,7.2,4.5,-34.50000000000001,6.4,0.5
1698745591181.0,16,-0.8,-1.8,-1.2000000000000002,-0.7000000000000001,6.4,4.0,-21.900000000000002,4.9,-0.5
1698745591198.0,16,-1.1,-2.3000000000000003,-1.2000000000000002,-1.0,5.9,4.1000000000000005,-10.0,2.3000000000000003,-9.8
1698745591215.0,16,-1.3,-2.4000000000000004,-1.3,-1.2000000000000002,5.7,4.0,-6.8,3.3000000000000003,-14.100000000000001
1698745591231.0,16,-1.5,-2.3000000000000003,-1.5,-1.5,5.800000000000001,3.8000000000000003,-8.9,5.0,-19.1
1698745591248.0,16,-1.4000000000000001,-2.3000000000000003,-1.9000000000000001,-1.4000000000000001,5.7,3.4000000000000004,-15.299999999999999,0.6000000000000001,-22.3
1698745591265.0,16,-1.4000000000000001,-2.3000000000000003,-2.0,-1.4000000000000001,5.7,3.4000000000000004,-17.8,-1.8,-22.6
1698745591282.0,16,-0.9,-2.0,-2.1,-1.0,6.0,3.2,-16.3,-3.9,-21.200000000000003
1698745591298.0,16,-0.5,-1.5,-2.5,-0.7000000000000001,6.4,2.9000000000000004,-12.3,-12.9,-17.9
1698745591315.0,16,-0.6000000000000001,-1.4000000000000001,-2.4000000000000004,-0.8,6.5,3.0,-10.9,-17.400000000000002,-14.200000000000001
1698745591333.0,16,-1.3,-1.0,-2.3000000000000003,-1.4000000000000001,6.9,3.1,-10.0,-27.3,-9.4
1698745591349.0,16,-1.8,-0.5,-1.9000000000000001,-1.9000000000000001,7.4,3.5,-11.700000000000001,-37.0,-8.0
1698745591365.0,16,-1.8,-0.30000000000000004,-1.8,-1.9000000000000001,7.6000000000000005,3.6,-12.200000000000001,-37.800000000000004,-7.400000000000001
1698745591381.0,16,-0.7000000000000001,0.30000000000000004,-2.0,-0.8,8.200000000000001,3.4000000000000004,-10.3,-31.2,-10.4
1698745591398.0,16,0.9,0.30000000000000004,-2.2,0.8,8.1,3.2,-2.6,-20.8,-17.400000000000002
1698745591415.0,16,1.2000000000000002,0.6000000000000001,-2.2,1.1,8.4,3.2,14.4,0.5,-16.6
1698745591431.0,16,1.6,0.4,-2.4000000000000004,1.5,8.3,3.0,24.3,12.8,-12.4
1698745591448.0,16,0.9,0.7000000000000001,-3.2,0.7000000000000001,8.6,2.0,38.7,22.4,0.9
1698745591464.0,16,0.4,2.2,-2.3000000000000003,0.30000000000000004,10.200000000000001,2.8000000000000003,41.4,15.8,1.0999999999999999
1698745591481.0,16,0.2,4.4,0.8,-0.1,12.5,5.800000000000001,56.300000000000004,10.5,-15.000000000000002
1698745591498.0,16,-0.1,3.2,4.1000000000000005,-0.4,11.4,9.0,75.3,29.600000000000005,-29.700000000000003
1698745591515.0,16,-0.2,2.5,3.8000000000000003,-0.7000000000000001,9.9,8.5,56.300000000000004,28.900000000000002,-34.400000000000006
1698745591531.0,16,0.0,0.2,4.4,-0.6000000000000001,8.6,9.0,37.5,29.500000000000004,-37.0
1698745591550.0,16,1.8,-0.5,4.4,1.1,7.9,9.1,16.2,44.6,-44.00000000000001
1698745591565.0,16,1.6,0.0,4.5,0.7000000000000001,8.4,9.1,12.9,45.9,-42.6
1698745591582.0,16,0.9,0.9,2.5,-0.1,9.3,7.1000000000000005,2.5,35.4,-25.700000000000003
1698745591598.0,16,-0.8,2.3000000000000003,3.6,-1.9000000000000001,10.8,8.200000000000001,-6.6000000000000005,26.0,-13.6
1698745591615.0,16,-0.8,2.5,2.9000000000000004,-1.8,10.600000000000001,6.9,-7.500000000000001,25.400000000000002,-8.5
1698745591631.0,16,-0.5,1.5,2.0,-1.6,9.9,6.7,-16.6,18.8,-0.9
1698745591649.0,16,-0.30000000000000004,0.4,0.8,-1.5,8.8,5.5,-20.4,12.5,2.3000000000000003
1698745591665.0,16,0.2,-0.30000000000000004,-0.1,-1.0,8.1,4.7,-18.0,6.1000000000000005,7.400000000000001
1698745591681.0,16,0.4,-0.7000000000000001,-0.4,-0.8,7.6000000000000005,4.5,-14.800000000000002,4.3999999999999995,8.4
1698745591698.0,16,0.7000000000000001,-1.6,-0.8,-0.4,6.7,4.0,-8.600000000000001,4.800000000000001,9.200000000000001
1698745591715.0,16,0.9,-2.3000000000000003,-1.0,-0.2,5.7,3.8000000000000003,-6.4,3.1,9.3
1698745591731.0,16,1.0,-2.7,-1.1,-0.1,5.6000000000000005,3.8000000000000003,-4.0,3.9,13.0
1698745591748.0,16,1.2000000000000002,-2.5,-1.1,0.2,5.800000000000001,3.7,-2.9,3.8,20.7
1698745591765.0,16,1.1,-1.8,-1.4000000000000001,0.1,6.4,3.4000000000000004,-2.9,3.9,25.0
1698745591781.0,16,1.1,-1.5,-1.6,0.2,6.800000000000001,3.3000000000000003,-4.5,6.9,30.200000000000003
1698745591798.0,16,1.1,-1.2000000000000002,-1.8,0.30000000000000004,7.1000000000000005,3.1,-7.500000000000001,8.600000000000001,27.2
1698745591815.0,16,1.0,-1.1,-1.8,0.2,7.1000000000000005,3.0,-10.700000000000001,9.700000000000001,21.700000000000003
1698745591831.0,16,0.8,-1.2000000000000002,-1.9000000000000001,0.0,7.0,3.0,-12.200000000000001,11.6,19.200000000000003
1698745591849.0,16,0.4,-1.1,-2.0,-0.30000000000000004,7.1000000000000005,2.9000000000000004,-15.2,15.100000000000001,14.700000000000001
1698745591865.0,16,0.5,-1.4000000000000001,-2.1,-0.2,6.7,2.8000000000000003,-16.400000000000002,20.5,9.5
1698745591881.0,16,0.7000000000000001,-1.5,-2.1,-0.1,6.6000000000000005,2.8000000000000003,-14.200000000000001,22.3,7.2
1698745591898.0,16,0.5,-1.0,-2.3000000000000003,-0.30000000000000004,7.1000000000000005,2.6,-4.800000000000001,28.0,6.5
1698745591915.0,16,0.4,0.4,-2.3000000000000003,-0.4,8.5,2.5,7.6,23.2,8.600000000000001
1698745591931.0,16,0.30000000000000004,0.8,-2.2,-0.5,8.9,2.7,13.5,18.3,8.5
1698745591948.0,16,0.30000000000000004,0.9,-1.3,-0.5,9.1,3.5,26.500000000000004,-1.4,7.2
1698745591964.0,16,-0.7000000000000001,0.6000000000000001,-1.8,-1.4000000000000001,8.9,2.9000000000000004,28.6,-17.1,8.700000000000001
1698745591981.0,16,-1.5,2.3000000000000003,-1.9000000000000001,-1.8,9.5,2.6,21.3,-16.0,9.8
1698745591998.0,16,-1.2000000000000002,3.2,-1.5,-1.8,11.5,3.1,8.1,-5.6,8.9
1698745592015.0,16,-0.9,4.1000000000000005,2.3000000000000003,-1.5,12.4,6.9,24.3,-10.8,15.399999999999999
1698745592031.0,16,-1.1,4.4,3.2,-1.7000000000000002,12.9,7.7,45.4,-19.3,26.700000000000003
1698745592048.0,16,-0.8,1.4000000000000001,4.7,-1.2000000000000002,9.9,9.1,56.900000000000006,-26.3,28.500000000000004
1698745592065.0,16,-1.1,0.4,5.0,-1.4000000000000001,9.0,9.3,47.800000000000004,-38.1,37.6
1698745592082.0,16,-0.1,-0.1,3.8000000000000003,-0.30000000000000004,8.5,8.1,1.3,-27.2,36.1
1698745592098.0,16,1.0,0.4,3.9000000000000004,0.9,9.0,8.200000000000001,-15.2,-26.1,31.3
1698745592115.0,16,1.4000000000000001,2.0,3.3000000000000003,1.4000000000000001,10.600000000000001,7.7,-22.000000000000004,-13.6,24.200000000000003
1698745592131.0,16,1.5,3.2,3.3000000000000003,1.6,11.8,7.800000000000001,-20.2,-8.3,21.6
1698745592148.0,16,0.8,2.2,2.7,1.0,10.8,7.2,-11.8,-9.5,12.9
1698745592165.0,16,-0.4,0.4,1.9000000000000001,-0.2,9.0,6.5,-14.900000000000002,-3.3000000000000003,4.7
1698745592182.0,16,-0.9,0.0,1.4000000000000001,-0.7000000000000001,8.6,6.0,-19.500000000000004,1.6,1.7
1698745592198.0,16,-1.2000000000000002,-0.8,0.2,-1.1,7.800000000000001,4.800000000000001,-28.6,4.0,-1.9
1698745592215.0,16,-1.6,-1.7000000000000002,-0.6000000000000001,-1.5,6.7,4.2,-30.000000000000004,-3.3000000000000003,-0.9
1698745592231.0,16,-1.8,-2.1,-1.1,-1.6,6.300000000000001,3.8000000000000003,-25.400000000000002,-3.1,-6.1000000000000005
1698745592248.0,16,-1.7000000000000002,-2.2,-1.2000000000000002,-1.6,6.2,3.7,-22.2,-4.1000000000000005,-11.3
1698745592265.0,16,-1.4000000000000001,-2.0,-1.5,-1.3,6.4,3.4000000000000004,-17.400000000000002,-6.2,-19.1
1698745592281.0,16,-0.9,-1.8,-1.7000000000000002,-1.1,6.5,3.4000000000000004,-15.2,-9.3,-21.700000000000003
1698745592298.0,16,-0.8,-1.8,-1.8,-0.8,6.4,3.2,-11.6,-18.1,-25.0
1698745592315.0,16,-0.7000000000000001,-1.6,-1.8,-0.8,6.6000000000000005,3.1,-10.600000000000001,-22.3,-25.2
1698745592331.0,16,-0.5,-1.4000000000000001,-1.8,-0.6000000000000001,6.800000000000001,3.2,-11.1,-24.1,-25.400000000000002
1698745592349.0,16,-0.4,-1.2000000000000002,-1.9000000000000001,-0.5,7.0,3.1,-14.800000000000002,-29.700000000000003,-23.0
1698745592365.0,16,-0.8,-1.2000000000000002,-2.0,-0.9,6.9,3.1,-21.900000000000002,-36.5,-18.8
1698745592381.0,16,-1.1,-1.0,-1.9000000000000001,-1.2000000000000002,7.1000000000000005,3.2,-28.3,-40.9,-17.400000000000002
1698745592398.0,16,-0.9,-0.9,-2.0,-1.0,7.2,3.1,-28.8,-41.7,-16.8
1698745592415.0,16,-0.1,-0.4,-2.0,-0.1,7.6000000000000005,3.2,-23.2,-38.400000000000006,-16.3
1698745592431.0,16,1.0,0.30000000000000004,-2.0,1.0,8.3,3.2,-7.9,-26.6,-17.0
1698745592449.0,16,1.1,0.8,-2.0,1.0,8.8,3.2,1.2000000000000002,-19.200000000000003,-16.0
1698745592465.0,16,1.0,1.3,-1.5,0.9,9.3,3.6,17.599999999999998,4.1000000000000005,-10.700000000000001
1698745592481.0,16,1.6,0.6000000000000001,-1.9000000000000001,1.5,8.700000000000001,3.2,28.6,22.2,-1.0999999999999999
1698745592498.0,16,1.4000000000000001,1.0,-2.6,1.2000000000000002,9.200000000000001,2.4000000000000004,28.3,23.2,3.4
1698745592515.0,16,0.2,3.3000000000000003,-1.8,0.0,11.4,3.1,18.7,9.4,2.6
1698745592531.0,16,-0.4,4.4,-0.1,-0.9,12.5,5.7,21.900000000000002,6.8,-2.7
1698745592548.0,16,-1.2000000000000002,2.7,1.7000000000000002,-1.4000000000000001,11.0,6.5,42.0,17.7,-16.6
1698745592565.0,16,-1.0,1.0,2.7,-1.4000000000000001,9.4,7.4,48.6,13.700000000000001,-19.500000000000004
1698745592581.0,16,0.1,-0.30000000000000004,3.2,-0.30000000000000004,8.200000000000001,7.800000000000001,40.6,11.6,-24.6
1698745592598.0,16,1.5,-0.7000000000000001,3.6,1.1,7.800000000000001,8.1,37.4,17.200000000000003,-29.200000000000003
1698745592615.0,16,2.3000000000000003,-1.0,3.6,1.7000000000000002,7.5,8.1,29.300000000000004,30.100000000000005,-48.300000000000004
1698745592631.0,16,0.9,-0.4,2.5,0.1,8.200000000000001,6.9,15.7,31.6,-40.1
1698745592648.0,16,0.7000000000000001,0.1,1.9000000000000001,-0.1,8.6,6.4,-0.5,26.500000000000004,-25.400000000000002
1698745592665.0,16,-2.2,2.8000000000000003,3.2,-3.1,11.3,7.7,-23.1,17.0,-6.4
1698745592681.0,16,-1.5,2.6,1.5,-2.4000000000000004,11.100000000000001,6.1000000000000005,-25.6,15.8,5.4
1698745592698.0,16,-0.7000000000000001,1.7000000000000002,1.3,-1.6,10.100000000000001,5.9,-24.400000000000002,11.6,6.7
1698745592715.0,16,-0.1,0.4,0.2,-1.0,8.8,4.9,-18.6,4.7,7.6
1698745592732.0,16,0.4,-0.5,-0.4,-0.5,7.9,4.3,-13.100000000000001,0.4,10.5
1698745592748.0,16,0.6000000000000001,-1.0,-0.8,-0.2,7.4,3.9000000000000004,-10.0,1.7,10.8
1698745592765.0,16,1.0,-1.8,-1.2000000000000002,0.1,6.6000000000000005,3.5,-6.1000000000000005,0.0,12.700000000000001
1698745592781.0,16,0.8,-2.1,-1.3,0.0,6.300000000000001,3.4000000000000004,-2.6,1.4,18.2
1698745592798.0,16,0.7000000000000001,-2.2,-1.3,0.0,6.2,3.5,-1.0,2.0,21.6
1698745592815.0,16,0.7000000000000001,-2.2,-1.3,0.1,6.1000000000000005,3.5,1.0999999999999999,4.0,27.5
1698745592831.0,16,1.0,-2.1,-1.4000000000000001,0.4,6.300000000000001,3.3000000000000003,0.0,7.400000000000001,27.6
1698745592848.0,16,1.0,-2.0,-1.5,0.4,6.4,3.2,-1.7,8.9,26.3
1698745592865.0,16,0.9,-1.5,-1.7000000000000002,0.4,6.800000000000001,3.0,-6.9,12.9,24.6
1698745592881.0,16,0.5,-1.0,-1.8,0.0,7.300000000000001,2.9000000000000004,-13.0,17.400000000000002,24.200000000000003
1698745592898.0,16,0.2,-0.8,-2.0,-0.2,7.5,2.7,-15.8,18.0,23.6
1698745592915.0,16,0.0,-1.0,-2.2,-0.4,7.300000000000001,2.5,-20.5,20.6,19.1
1698745592932.0,16,0.1,-1.1,-2.3000000000000003,-0.4,7.1000000000000005,2.5,-20.4,21.0,14.200000000000001
1698745592948.0,16,-0.1,-0.2,-2.1,-0.6000000000000001,8.0,2.7,-6.7,20.7,7.6
1698745592965.0,16,-0.2,0.4,-2.0,-0.7000000000000001,8.6,2.8000000000000003,0.7,16.6,8.4
1698745592981.0,16,-0.30000000000000004,1.1,-1.4000000000000001,-0.7000000000000001,9.3,3.4000000000000004,13.0,7.2,8.700000000000001
1698745592999.0,16,-0.2,1.1,-1.0,-0.7000000000000001,9.3,3.8000000000000003,17.9,-1.0,6.9
1698745593014.0,16,-0.7000000000000001,0.7000000000000001,-0.9,-1.1,9.0,3.7,18.5,-16.3,4.7
1698745593031.0,16,-0.8,2.0,-2.1,-1.2000000000000002,10.3,2.6,3.9,-13.8,4.1000000000000005
1698745593048.0,16,-0.5,2.9000000000000004,-1.4000000000000001,-0.8,11.200000000000001,3.3000000000000003,-12.100000000000001,-1.9,0.8
1698745593065.0,16,-0.5,3.4000000000000004,0.2,-0.8,11.700000000000001,4.800000000000001,-3.7000000000000006,0.5,2.5
1698745593081.0,16,-0.4,3.3000000000000003,2.2,-0.7000000000000001,11.700000000000001,6.800000000000001,36.3,-12.700000000000001,23.6
1698745593098.0,16,-0.6000000000000001,2.3000000000000003,4.2,-1.6,10.8,10.700000000000001,51.400000000000006,-16.3,25.5
1698745593115.0,16,-1.4000000000000001,2.0,6.300000000000001,-1.5,10.600000000000001,10.700000000000001,67.7,-35.1,37.4
1698745593131.0,16,0.0,-1.4000000000000001,2.8000000000000003,0.1,7.2,7.1000000000000005,4.6000000000000005,-28.1,38.2
1698745593148.0,16,2.0,-0.7000000000000001,3.4000000000000004,2.2,7.800000000000001,7.9,-51.1,-5.0,17.1
1698745593165.0,16,2.6,0.9,2.9000000000000004,2.7,9.4,7.5,-48.400000000000006,7.9,16.700000000000003
1698745593181.0,16,1.8,3.8000000000000003,3.2,2.1,12.3,7.9,-20.0,8.200000000000001,20.8
1698745593198.0,16,-0.1,1.2000000000000002,2.3000000000000003,0.2,9.700000000000001,7.0,-3.3000000000000003,11.700000000000001,21.700000000000003
1698745593215.0,16,-0.30000000000000004,0.1,2.1,0.0,8.6,6.9,-9.700000000000001,18.5,14.800000000000002
1698745593232.0,16,-0.4,-0.5,1.0,-0.1,7.9,5.800000000000001,-31.099999999999998,26.0,4.300000000000001
1698745593249.0,16,-0.6000000000000001,-1.1,-0.30000000000000004,-0.30000000000000004,7.300000000000001,4.7,-41.800000000000004,26.500000000000004,6.3
1698745593264.0,16,-0.8,-1.6,-0.8,-0.5,6.7,4.2,-39.6,21.700000000000003,9.200000000000001
1698745593281.0,16,-1.3,-2.3000000000000003,-1.1,-1.1,6.0,4.0,-27.5,17.5,13.3
1698745593298.0,16,-1.8,-2.0,-1.3,-1.6,6.2,3.9000000000000004,-14.200000000000001,18.2,4.7
1698745593315.0,16,-1.8,-1.8,-1.3,-1.6,6.300000000000001,3.9000000000000004,-9.9,15.5,-1.3
1698745593331.0,16,-1.7000000000000002,-1.8,-1.5,-1.6,6.300000000000001,3.7,-9.0,10.5,-12.6
1698745593348.0,16,-1.5,-1.6,-1.7000000000000002,-1.4000000000000001,6.5,3.4000000000000004,-17.400000000000002,6.1000000000000005,-18.400000000000002
1698745593365.0,16,-1.3,-1.5,-1.8,-1.3,6.6000000000000005,3.4000000000000004,-21.1,4.0,-19.3
1698745593381.0,16,-1.0,-1.5,-2.0,-1.1,6.5,3.3000000000000003,-24.200000000000003,-1.0,-18.8
1698745593398.0,16,-1.0,-1.3,-2.0,-1.1,6.7,3.3000000000000003,-21.900000000000002,-11.3,-14.200000000000001
1698745593415.0,16,-1.2000000000000002,-1.1,-2.1,-1.3,6.800000000000001,3.2,-20.6,-17.599999999999998,-9.600000000000001
1698745593431.0,16,-1.9000000000000001,-0.8,-2.3000000000000003,-2.0,7.1000000000000005,3.1,-21.0,-27.3,-2.1999999999999997
1698745593448.0,16,-1.7000000000000002,-0.4,-2.3000000000000003,-1.7000000000000002,7.4,3.1,-20.2,-34.2,-4.3999999999999995
1698745593465.0,16,-1.0,-0.1,-2.3000000000000003,-0.1,7.9,2.9000000000000004,-12.200000000000001,-29.900000000000006,-14.200000000000001
1698745593481.0,16,0.6000000000000001,0.30000000000000004,-2.4000000000000004,0.6000000000000001,8.1,3.0,-5.500000000000001,-25.400000000000002,-18.8
1698745593498.0,16,1.6,0.7000000000000001,-1.7000000000000002,1.6,8.5,3.7,17.3,-2.8,-24.7
1698745593515.0,16,1.6,0.5,-1.6,1.5,8.4,3.7,31.5,10.700000000000001,-25.1
1698745593531.0,16,1.2000000000000002,1.1,-2.9000000000000004,1.1,9.0,2.3000000000000003,47.7,16.400000000000002,-9.8
1698745593548.0,16,0.9,4.1000000000000005,-0.7000000000000001,0.8,12.200000000000001,4.4,40.0,1.6,-12.100000000000001
1698745593565.0,16,0.8,5.2,0.7000000000000001,0.6000000000000001,13.3,5.7,42.6,1.6,-20.900000000000002
1698745593581.0,16,-0.7000000000000001,3.3000000000000003,2.5,-1.0,11.600000000000001,7.4,45.3,16.900000000000002,-30.7
1698745593598.0,16,-1.6,1.8,3.8000000000000003,-2.0,10.100000000000001,8.6,33.900000000000006,5.7,-30.7
1698745593615.0,16,-1.1,0.7000000000000001,3.8000000000000003,-1.6,9.1,8.6,26.3,6.4,-37.0
1698745593631.0,16,2.5,0.2,3.9000000000000004,1.9000000000000001,8.6,8.700000000000001,17.400000000000002,10.600000000000001,-50.0
1698745593650.0,16,1.8,-0.5,3.8000000000000003,1.0,7.9,8.5,14.4,12.4,-56.6
1698745593665.0,16,1.2000000000000002,-0.4,2.8000000000000003,0.30000000000000004,7.9,7.5,11.6,9.9,-47.5
1698745593681.0,16,0.2,0.9,2.9000000000000004,-0.8,9.3,7.6000000000000005,-11.4,1.3,-30.299999999999997
1698745593698.0,16,-1.3,2.5,2.8000000000000003,-2.4000000000000004,10.8,7.7,-18.0,-1.4,-21.5
1698745593714.0,16,-0.4,1.7000000000000002,1.5,-1.4000000000000001,10.100000000000001,6.5,-23.3,-3.6,-9.5
1698745593732.0,16,0.1,0.9,0.9,-1.0,9.200000000000001,5.9,-25.2,-6.1000000000000005,-8.1
1698745593748.0,16,0.30000000000000004,-0.30000000000000004,-0.5,-0.8,8.0,4.6000000000000005,-27.1,-12.700000000000001,-4.1000000000000005
1698745593765.0,16,0.4,-0.8,-0.7000000000000001,-0.7000000000000001,7.4,4.4,-26.1,-12.700000000000001,-2.4000000000000004
1698745593781.0,16,1.1,-2.5,-1.2000000000000002,0.0,5.7,3.9000000000000004,-17.200000000000003,-11.8,-3.5
1698745593798.0,16,1.3,-3.0,-1.5,0.30000000000000004,5.1000000000000005,3.6,-5.8,-10.700000000000001,-2.1
1698745593815.0,16,1.1,-2.8000000000000003,-1.7000000000000002,0.1,5.300000000000001,3.5,5.500000000000001,-12.5,5.1
1698745593831.0,16,0.9,-2.7,-1.7000000000000002,0.0,5.4,3.4000000000000004,9.700000000000001,-16.0,11.1
1698745593848.0,16,0.8,-2.2,-1.5,-0.1,5.9,3.6,13.200000000000001,-16.8,19.500000000000004
1698745593865.0,16,0.5,-1.1,-1.8,-0.30000000000000004,7.0,3.3000000000000003,8.799999999999999,-9.700000000000001,16.700000000000003
1698745593881.0,16,1.0,-0.7000000000000001,-2.0,0.2,7.5,3.0,4.300000000000001,-4.9,13.700000000000001
1698745593900.0,16,1.1,-0.4,-2.0,0.30000000000000004,7.7,3.0,-5.0,-3.3000000000000003,5.8
1698745593915.0,16,0.9,-0.5,-1.9000000000000001,0.2,7.6000000000000005,3.1,-10.4,0.2,4.3999999999999995
1698745593931.0,16,0.8,-0.7000000000000001,-1.9000000000000001,0.1,7.4,3.1,-11.3,3.1,3.5
1698745593948.0,16,0.8,-1.0,-2.2,0.1,7.0,2.9000000000000004,-11.700000000000001,11.1,1.8
1698745593965.0,16,0.7000000000000001,-1.2000000000000002,-2.2,-0.1,6.800000000000001,2.8000000000000003,-7.2,17.0,2.4000000000000004
1698745593982.0,16,0.5,-1.0,-2.3000000000000003,-0.2,7.0,2.8000000000000003,-2.9,19.6,4.2
1698745593998.0,16,0.4,0.0,-2.1,-0.4,8.0,2.9000000000000004,10.1,17.200000000000003,6.4
1698745594015.0,16,0.9,0.8,-1.4000000000000001,0.2,8.9,3.5,23.6,7.699999999999999,3.3000000000000003
1698745594031.0,16,0.7000000000000001,0.7000000000000001,-1.4000000000000001,0.0,8.8,3.5,30.4,-0.8,2.0
1698745594048.0,16,-0.2,0.6000000000000001,-2.0,-0.9,8.8,2.8000000000000003,28.3,-4.1000000000000005,0.9
1698745594065.0,16,-0.7000000000000001,2.4000000000000004,-2.4000000000000004,-1.4000000000000001,10.600000000000001,2.3000000000000003,8.799999999999999,10.600000000000001,-0.4
1698745594081.0,16,-0.8,3.3000000000000003,-1.2000000000000002,-1.6,11.5,3.5,7.1000000000000005,13.0,1.0999999999999999
1698745594098.0,16,-1.0,4.3,2.8000000000000003,-1.8,12.600000000000001,7.5,32.5,4.6000000000000005,12.5
1698745594114.0,16,-1.3,3.4000000000000004,4.7,-1.9000000000000001,11.9,9.200000000000001,73.8,-19.1,34.2
1698745594132.0,16,-1.3,1.8,6.0,-1.9000000000000001,10.3,10.4,69.10000000000001,-19.400000000000002,35.0
1698745594148.0,16,-1.3,0.4,4.5,-1.7000000000000002,9.0,8.9,24.5,-30.799999999999997,40.1
1698745594165.0,16,-0.30000000000000004,-0.30000000000000004,3.0,0.2,8.3,7.2,-14.500000000000002,-22.5,40.2
1698745594181.0,16,1.3,0.6000000000000001,3.5,1.1,9.1,8.0,-48.300000000000004,-19.9,28.900000000000002
1698745594198.0,16,1.5,2.1,3.1,1.3,10.5,7.800000000000001,-21.5,-14.0,21.3
1698745594214.0,16,1.0,2.8000000000000003,2.9000000000000004,1.0,11.3,7.6000000000000005,2.5,-15.5,16.900000000000002
1698745594231.0,16,0.4,1.6,2.5,0.4,10.100000000000001,7.2,1.9,-13.3,14.500000000000002
1698745594250.0,16,-0.1,-0.1,1.9000000000000001,0.0,8.4,6.7,-21.200000000000003,-3.9,8.3
1698745594265.0,16,-0.2,-0.8,0.6000000000000001,-0.2,7.6000000000000005,5.4,-39.400000000000006,4.300000000000001,8.700000000000001
1698745594281.0,16,-0.30000000000000004,-0.8,-0.2,-0.2,7.6000000000000005,4.800000000000001,-36.7,0.30000000000000004,11.2
1698745594298.0,16,-1.2000000000000002,-1.6,-1.0,-1.1,6.7,4.0,-30.200000000000003,-1.6,12.6
1698745594315.0,16,-1.8,-1.7000000000000002,-1.1,-1.6,6.5,3.9000000000000004,-14.4,-6.000000000000001,2.7
1698745594332.0,16,-1.8,-1.7000000000000002,-1.1,-1.7000000000000002,6.5,4.0,-4.0,-8.799999999999999,-12.3
1698745594348.0,16,-1.6,-1.7000000000000002,-1.2000000000000002,-1.6,6.5,3.9000000000000004,-3.9,-9.4,-17.599999999999998
1698745594365.0,16,-1.0,-1.5,-1.6,-1.0,6.6000000000000005,3.5,-10.9,-12.3,-22.5
1698745594381.0,16,-0.9,-1.5,-1.5,-0.9,6.6000000000000005,3.6,-15.299999999999999,-15.399999999999999,-22.3
1698745594398.0,16,-0.8,-1.5,-1.7000000000000002,-0.9,6.6000000000000005,3.4000000000000004,-19.400000000000002,-19.400000000000002,-20.4
1698745594415.0,16,-0.5,-1.4000000000000001,-2.1,-0.5,6.7,3.1,-19.9,-26.200000000000003,-18.400000000000002
1698745594431.0,16,-0.4,-1.4000000000000001,-2.2,-0.6000000000000001,6.5,2.9000000000000004,-19.700000000000003,-30.7,-17.200000000000003
1698745594449.0,16,-0.9,-1.6,-2.5,-0.9,6.4,2.8000000000000003,-19.700000000000003,-40.3,-13.6
1698745594465.0,16,-1.4000000000000001,-1.3,-2.6,-1.4000000000000001,6.7,2.7,-18.6,-48.400000000000006,-12.4
1698745594482.0,16,-1.1,-0.8,-2.5,-1.1,7.1000000000000005,2.8000000000000003,-14.3,-47.0,-14.100000000000001
1698745594498.0,16,-0.5,-0.5,-2.6,-0.5,7.4,2.7,-10.2,-42.7,-16.0
1698745594515.0,16,0.2,0.1,-2.0,0.30000000000000004,8.0,3.3000000000000003,1.8,-30.7,-17.3
1698745594531.0,16,0.30000000000000004,0.4,-1.4000000000000001,0.4,8.3,3.9000000000000004,10.1,-20.1,-16.400000000000002
1698745594548.0,16,1.4000000000000001,0.30000000000000004,-1.5,1.4000000000000001,8.200000000000001,3.7,26.200000000000003,4.2,-9.1
1698745594565.0,16,2.0,0.9,-2.7,2.0,8.9,2.4000000000000004,22.4,7.300000000000001,-0.8
1698745594581.0,16,1.2000000000000002,4.2,-0.2,1.3,12.3,4.800000000000001,19.9,2.5,-9.9
1698745594598.0,16,0.4,5.1000000000000005,0.5,0.5,13.200000000000001,5.5,29.1,11.4,-15.9
1698745594615.0,16,-1.0,2.7,1.8,-1.1,10.9,6.7,44.1,18.3,-22.8
1698745594631.0,16,-1.0,2.1,2.8000000000000003,-1.1,10.4,7.7,46.6,10.9,-23.700000000000003
1698745594648.0,16,-0.5,1.7000000000000002,4.9,-0.7000000000000001,10.100000000000001,9.600000000000001,47.5,7.9,-24.5
1698745594665.0,16,1.5,0.6000000000000001,4.6000000000000005,1.2000000000000002,9.0,9.3,29.500000000000004,25.700000000000003,-33.6
1698745594681.0,16,0.9,-0.9,3.4000000000000004,0.4,7.5,8.1,-0.5,29.500000000000004,-46.1
1698745594698.0,16,0.8,-0.8,3.1,0.30000000000000004,7.6000000000000005,7.800000000000001,-11.700000000000001,18.7,-38.400000000000006
1698745594715.0,16,-0.30000000000000004,1.6,3.5,-1.0,9.9,8.3,-24.3,8.9,-27.7
