timestamp,interval,accx,accy,accz,accGx,accGy,accGz,alpha,beta,gamma
1698745580.002,0.01666666753590107,-0.039935850677639245,-0.00832066909968853,-0.4260165043383837,-0.3916015359740704,-6.564602261462808,-7.710376224407553,-8.974638050512267,11.1205861575346,-10.896252009340117
1698745580.176,0.01666666753590107,-0.16125965249240398,0.1664700806170702,-0.06488894401788711,1.0785877017699181,-6.542454727062583,-7.109282554626464,-4.422624327211419,-4.206842429631437,0.6035854177796135
1698745580.192,0.01666666753590107,-0.13136384205296636,0.16542729356586933,-0.07690262241661548,1.0992376910887658,-6.537067773327231,-7.129034133800864,-1.2728825914600388,-2.2745200148454767,0.851454049976434
1698745580.209,0.01666666753590107,-0.06164718561768531,0.17231003881692886,-0.16610416991412638,1.1643301948547362,-6.5286880675166845,-7.220463294219971,-0.7467668867940024,-1.8842146176972103,-0.05062957763551288
1698745580.226,0.01666666753590107,0.002553556940332055,0.16047230150699615,-0.15772738671302794,1.225531828662008,-6.538713202446699,-7.21432815246582,-1.091986952282955,-1.935931315988666,-0.31707581744666563
1698745580.243,0.01666666753590107,0.0533961476881057,0.12200725403428077,-0.14993512540161608,1.270872022601217,-6.573279488915205,-7.211185762786865,-1.9836850104576333,-3.1482702568720655,-0.3530420995120718
1698745580.259,0.01666666753590107,0.18637933457121253,-0.012383680754899979,-0.00991699838042259,1.290175346551463,-6.596773177227377,-7.193079612731933,-2.7304351419438277,-5.5829014318068655,0.33691455545821725
1698745580.275,0.01666666753590107,0.13081614504233002,-0.032900399082899094,-0.05116144743859768,1.2255319017272441,-6.613682226452231,-7.239018941608071,-2.465967442516584,-7.1555627334860565,0.3363631244044445
1698745580.293,0.01666666753590107,0.09128441818617283,0.010798457390069962,0.10250760379433631,1.1864764871459454,-6.543502190288901,-7.109432192230225,-3.5363991715526253,-7.651907884715829,-0.23845697836608676
1698745580.31,0.01666666753590107,-0.020786036788672208,-0.027545594051480292,0.06735796447992325,1.1067196443419902,-6.5690902205318205,-7.151181083679199,-6.2271799427226515,-8.037570247332367,-0.5322552976779374
1698745580.327,0.01666666753590107,-0.02249495959840715,-0.017735563176870344,0.08071721226871013,1.110610148974508,-6.5493380568355315,-7.145943183025717,-6.333922992845257,-8.773642658711717,-0.04293152755408538
1698745580.344,0.01666666753590107,-0.11379304098375141,0.1615858157068491,0.136941788315773,1.0263642511229962,-6.366181629833578,-7.092074814715981,-4.90226966592051,-11.517902530422473,-0.005673059075077387
1698745580.359,0.01666666753590107,-0.015403686163201927,0.25658874295949935,0.25848200936019416,1.1200373180113732,-6.272956818169355,-6.969670670318603,-2.7171194747134764,-13.085819411949444,-0.5579953991736594
1698745580.377,0.01666666753590107,0.042560134766623375,0.3591770107746124,0.23013678936362264,1.1605891816955058,-6.171952020153403,-6.999299500384926,-1.1410923838773503,-11.70451269005733,-0.20636149256937372
1698745580.392,0.01666666753590107,0.06708455436602234,0.5522592039853335,0.25191256784200666,1.1575965026855468,-5.991040157207847,-6.970718718066811,5.995707819958681,-12.881404656695656,-0.5957533252357246
1698745580.408,0.01666666753590107,0.1719748885784298,0.7379553785979748,0.10300269383490085,1.2333129840575159,-5.824493504223227,-7.106589077758788,12.824186454471167,-20.458924951160878,1.0352983031625533
1698745580.426,0.01666666753590107,0.20984781537689268,0.9710393273293971,-0.08473813834786414,1.223736250482127,-5.623230342644453,-7.272089436560869,22.12672737288376,-27.56710452794044,0.8998820121825285
1698745580.445,0.01666666753590107,0.5918307513952255,1.196546703326702,0.10919336516857146,1.544858548150584,-5.4490527563899755,-7.039102518463134,18.20980171408362,-28.791825748015427,-5.992947142873526
1698745580.459,0.01666666753590107,0.6162690270811318,1.4529431385844944,0.07269348028898238,1.5144820415221154,-5.217114470562339,-7.059902145385742,4.271142684251584,-53.63583630670933,-3.695598928274575
1698745580.475,0.01666666753590107,-0.01948138393089175,1.4569009362995624,-1.434625976127386,0.7179611497741192,-5.19032992401123,-8.606855693054198,-26.653385726438227,-97.24515298732587,20.269858484745754
1698745580.492,0.01666666753590107,0.03911372063979506,1.2936217606782912,-1.2189870831936598,0.4195837678771466,-5.26724306782186,-8.49776987991333,-41.92013918188611,-126.57335007576782,40.64056812768133
1698745580.51,0.01666666753590107,-0.058096050741057836,1.2410638904452322,0.2540910809248686,0.00014961020429618655,-5.247191628918052,-7.09910778209269,-35.33034193480653,-126.42435632921315,49.85811673338322
1698745580.528,0.01666666753590107,1.1887319379225372,1.4796820924282073,1.8025713997691868,0.8541314422607421,-4.931605922588706,-5.610512315368652,-24.549443282811474,-91.6480246983647,38.158258817245255
1698745580.542,0.01666666753590107,1.6705971707329152,1.3825918375074862,2.2552391796678304,1.156249800784327,-4.974402277263999,-5.194220501708984,-30.836360913788702,-41.463530790586994,21.126528131205433
1698745580.56,0.01666666753590107,2.0215717319600284,0.5028104056835174,2.564964469531178,1.4574703336853534,-5.7496741178214545,-4.968866270446777,-42.56922571909075,17.523365994950048,4.161007591432421
1698745580.575,0.01666666753590107,1.8783765823379157,0.12406477108597755,3.1320874806493517,1.3435960806915537,-6.075435765728354,-4.447528858947754,-37.06762445586138,32.657005893663545,4.571941653978007
1698745580.591,0.01666666753590107,0.48815081588588655,-0.40162908205687997,3.0554993310093876,0.047734432131983334,-6.515071045574546,-4.599710886493325,-28.336368243591465,58.40750891371779,17.713888999205675
1698745580.61,0.01666666753590107,0.18094770144391803,-0.16050620377659797,2.0105951415240764,-0.1580172730376944,-6.214298877495527,-5.697003434863686,-29.083628504831296,74.6212988334392,25.450784073990327
1698745580.627,0.01666666753590107,0.3936801688790321,0.23130349505543707,1.3257213647723196,0.1815104133605957,-5.7493748426139355,-6.443245580291748,-22.56813176309042,59.468367065415,31.931021671688306
1698745580.642,0.01666666753590107,0.16854166272673754,0.8255266945451497,0.7271721187770366,0.007032967376708984,-5.104287717327475,-7.081899457660317,-26.96166972972134,45.272935611472796,34.84515603202009
1698745580.66,0.01666666753590107,0.19795575406383722,1.3418915783286094,0.5611398450553416,0.0550666564499028,-4.518306861004233,-7.3006690498352045,-42.21902484487128,20.656725521977155,32.117099930341546
1698745580.675,0.01666666753590107,0.5416101284706965,0.8779472021341324,-0.9405185168594121,0.36960488128662106,-4.865316464123129,-8.887576422229408,-70.41524102178866,-0.5277347796644468,22.931284383523533
1698745580.692,0.01666666753590107,0.4188489507965743,0.2061363205730915,-0.9249532834589481,0.2530371696914546,-5.305251019176841,-9.034669602203369,-93.29970787364634,35.459275415768865,13.58184824004328
1698745580.708,0.01666666753590107,0.259927842520643,0.11220774455368518,1.6712345918536184,0.18375498655014672,-5.186289124187827,-6.580463262939452,-102.92904516931372,61.46815766193552,11.729882573955697
1698745580.725,0.01666666753590107,1.6156996055059134,-2.412466800165176,1.2973194461524487,1.6868647071838379,-7.426364052471518,-7.130382041278481,-89.02370209470571,56.326182933980235,25.4184465433649
1698745580.743,0.01666666753590107,1.656602839910984,-3.8190968081250785,2.601779996231198,1.7787421228270976,-8.668056888470053,-5.921309033855795,-56.2766060058897,30.002340174616783,53.153662517346866
1698745580.758,0.01666666753590107,0.36041385909318924,-6.518420940524339,4.3870355195403095,0.40566753465957006,-11.304372483770548,-4.172345305633545,-5.677654084841514,-41.279183984888355,51.98733941467549
1698745580.776,0.01666666753590107,-0.14720718000875785,-2.6040157924592493,3.2412638946831223,-0.35553892826689404,-7.38671008747518,-5.317521887207031,2.7609026948405506,-129.21370996359798,33.059276715020616
1698745580.792,0.01666666753590107,-1.8522019843786954,1.5351301311448216,4.502867884331941,-2.5444378143310544,-3.276165112194419,-4.0143279960632325,12.448012932159068,-169.58600192105956,-3.8087743090480397
1698745580.81,0.01666666753590107,-0.9122587831892073,2.8845959441199898,6.485846704655885,-2.082955371270701,-1.9443904387325048,-1.968781952667236,-10.428717022916281,-178.80696220625185,-30.872967312645386
1698745580.825,0.01666666753590107,-1.8034695176526903,2.1418936632558703,6.425121894580125,-3.338115664672851,-2.6366139937251805,-1.9999065742492674,-45.27608432868017,-182.771996302471,-22.755943182245552
1698745580.843,0.01666666753590107,-1.3760354016013443,1.8091186294555663,6.3901458582669495,-3.296815686035156,-2.835482369121909,-2.0305822830200193,-81.39106131986485,-183.06961496536513,-4.004460082542551
1698745580.858,0.01666666753590107,-1.2007961774647236,2.6945968116164205,5.9641533193260425,-3.6692633895322677,-1.64735979526937,-2.4753058259159326,-118.69366135864759,-184.46958517916428,13.462523127695865
1698745580.875,0.01666666753590107,-1.2811600462511181,3.7389161869511005,5.714529154682159,-4.183268558447063,-0.31393940042704344,-2.7307366310119625,-131.4538890679571,-195.10817854734944,19.28558212157002
1698745580.892,0.01666666753590107,-1.1958522913217544,3.8985803869456053,5.1199458897084,-4.579059728130698,0.16220774699747562,-3.2921769203186035,-138.3612866963477,-221.81536567387985,26.882144129667587
1698745580.908,0.01666666753590107,-1.1538447489365935,4.005718865410984,3.6621003660351037,-5.240458229009807,0.7044944230228662,-4.618714277648926,-138.47643002537575,-235.58461722927535,18.95278456935573
1698745580.925,0.01666666753590107,-1.4752470325902103,4.941041859453916,2.9951410161584615,-6.070946929876506,1.954865655517578,-5.137058937072753,-134.98433188766666,-224.5722349285721,18.987796119041217
1698745580.942,0.01666666753590107,-1.4215630809366702,5.052164146858454,2.573300920721888,-6.496665620312094,2.3719059494569894,-5.378423807415366,-133.4495200792731,-219.6618343493315,22.64613593850655
1698745580.959,0.01666666753590107,-1.8073878601402042,5.268032756894827,1.7289081976652145,-7.353191264232993,2.9095540058963,-6.00750087814331,-145.3411526318321,-222.83803623792753,32.922898327862974
1698745580.975,0.01666666753590107,-2.2966361889392135,5.971780745464563,0.7495657368928194,-8.454524027904867,4.1024646908082065,-6.650194970813393,-159.90668130104604,-215.71354787695728,45.59113704943076
1698745580.991,0.01666666753590107,-2.331632683518529,6.251074656707048,0.2962093902081251,-8.915407262963056,4.759822684124857,-6.817190536609291,-148.5076966329417,-213.47222130081758,54.44437361008793
1698745581.008,0.01666666753590107,-2.368604277563095,6.008945816254616,-0.42302375226318834,-9.508571308788657,4.978592860821634,-7.066037287139892,-111.27426591988369,-231.99934165090895,68.66893923593483
1698745581.028,0.01666666753590107,-2.349129177242517,5.671824569943547,-0.19922960992455482,-9.918578343090415,4.951508527606353,-6.392368795013427,-85.75309333140179,-262.2651939387994,83.66160744527384
1698745581.042,0.01666666753590107,-2.660578222158551,5.507305623394251,-0.4695066864967346,-10.68128062493205,5.096806713922321,-6.0971343873173,-73.39624293409489,-302.122489632842,100.74262648391178
1698745581.06,0.01666666753590107,-4.117064147916436,5.149530296111107,-0.98457393168509,-12.70572835071981,5.191676735510304,-5.717802769525349,-72.22823960488768,-309.48652638838297,122.6541875300145
1698745581.075,0.01666666753590107,-5.2198044402986765,4.052624408970773,-0.8861749322533607,-14.138358184593915,4.480449277905374,-4.941632518823445,-83.98082316632356,-274.7546319682746,136.57552007746952
1698745581.092,0.01666666753590107,-5.492482732793689,3.44944078117311,-1.0251786215350032,-14.631413504460452,4.30686958447881,-4.477007759149372,-106.76680552053882,-221.30013718402913,148.55262561730206
1698745581.109,0.01666666753590107,-5.888006483712792,2.738029126107693,-0.6991890100911259,-15.164572871178388,4.226513972064107,-3.5098996337890624,-141.9760823523069,-148.47375059276675,159.70792279619866
1698745581.125,0.01666666753590107,-5.713281784969568,2.2644737487420437,-0.41099370725154877,-15.0038620847404,4.253149757794291,-2.8401221577517686,-160.15963052676827,-112.72242311827729,167.06596264564834
1698745581.141,0.01666666753590107,-5.4638411601990455,1.7818068441599606,-0.6013957214675844,-14.71685716072917,4.277839524023235,-2.6803093430668112,-168.8101880539945,-100.01149571439693,172.0151313786179
1698745581.158,0.01666666753590107,-5.255425788778067,1.1958949614197014,-0.9186755183637142,-14.402019642418622,4.358195209503173,-2.5029884903505444,-170.5005505905459,-105.44994504856037,175.1764161340666
1698745581.175,0.01666666753590107,-5.60917434476316,1.3910560067310929,-1.160218667882681,-14.635604526409505,5.040991595458984,-2.331503942572325,-171.03845530844112,-113.57720080233688,183.09830175987918
1698745581.191,0.01666666753590107,-5.509764706984162,1.1353516453906893,-1.6454752966970205,-14.381371406665444,5.250634170587361,-2.3731032694827765,-169.42944032490453,-116.3902210421958,177.51732686830508
1698745581.209,0.01666666753590107,-5.398867460507154,1.329502929137647,-2.2262924866467713,-14.021342162975667,5.998821897125244,-2.370409573419392,-169.616150376056,-90.09663602085551,168.7438532567753
1698745581.225,0.01666666753590107,-4.9747377928286785,0.968022025334835,-2.6594787364840506,-13.390620247650146,5.9968766082763665,-2.427271899380721,-167.02897034110353,-54.52237778550406,155.00397151481087
1698745581.242,0.01666666753590107,-4.794574117901921,0.8420780163735151,-2.9542390969276426,-13.006799209484457,6.175244631958008,-2.418444084476493,-161.24254335929547,-20.372762114781164,140.58004632746963
1698745581.259,0.01666666753590107,-4.416850812089443,0.7680190929502249,-3.1210955465137955,-12.370839393505454,6.441150653839111,-2.2725473842781034,-150.36675118161412,7.671924607852198,129.42720801667423
1698745581.276,0.01666666753590107,-3.8788328994244337,0.4387023829102516,-3.168147512806952,-11.63985853009522,6.3408922902762885,-2.118869492151588,-141.3624171761379,12.150104839998853,128.4835900620803
1698745581.291,0.01666666753590107,-3.7866730866432188,0.2389846972078085,-3.264745600296557,-11.348963028386235,6.357052566960453,-2.0192108480475843,-132.27136708895924,6.750406157204655,127.52810123870887
1698745581.309,0.01666666753590107,-3.6286855876892803,-0.05523556500971317,-3.4185926384449004,-10.912769997948407,6.329520416912436,-1.8864817089907824,-120.61059493034668,-9.487799554365434,122.65301273747725
1698745581.325,0.01666666753590107,-3.8407583125740286,-0.47439738114774227,-3.703448859989643,-10.916063194274901,6.083068452563881,-1.9399023335330188,-113.66586348795282,-21.682947784393228,113.29186281957043
1698745581.342,0.01666666753590107,-4.073021592572331,-0.7643272526949644,-3.993385745799541,-10.94988012368083,5.933280042156577,-1.9880853496827184,-108.80886132764338,-31.35297934713554,100.43427759383155
1698745581.359,0.01666666753590107,-4.450629163050651,-1.3440344355762004,-4.557765011167526,-11.081112886700033,5.491550420379638,-2.2164335020639,-102.65330360233114,-40.06730693554758,86.24557046112722
1698745581.375,0.01666666753590107,-4.971012050303816,-1.71427586120069,-5.115512875697016,-11.423930883347987,5.200653165104985,-2.5243878367319703,-93.96647777061216,-43.69683872464108,81.7692830451543
1698745581.392,0.01666666753590107,-5.35713610471487,-1.7319325139224528,-5.472857410347461,-11.63237781895101,5.2546735091060395,-2.648137258258462,-80.96455698733257,-45.098325240436004,79.45384208633081
1698745581.408,0.01666666753590107,-6.008450141692161,-1.8585224195718764,-6.003757599961757,-12.042832597020269,5.2250446790397165,-2.908655741882324,-61.3552341443877,-43.92679411852249,80.08191213145933
1698745581.426,0.01666666753590107,-6.800660257568955,-1.9297522570490835,-6.3539423259854315,-12.65365446461141,5.231330042919517,-3.0933097139656542,-49.13022347353496,-36.52489762441216,78.32891676021887
1698745581.442,0.01666666753590107,-7.103904953241348,-2.135094796895981,-6.517678597724437,-12.791171422466634,5.098751125988364,-3.1269778825506567,-42.35115826945976,-21.844649097898696,69.63012443707404
1698745581.458,0.01666666753590107,-7.068067331662774,-2.756027724134922,-6.730213094902038,-12.593799423107503,4.546289092907309,-3.221249280658364,-38.772432842507385,6.132972851047958,49.663254851457346
1698745581.476,0.01666666753590107,-6.673883889436722,-3.3814678996652363,-6.8458245104193685,-12.13650690601766,3.9462428863525387,-3.2912793869569894,-33.18052964826127,25.732551575368156,33.40948441942927
1698745581.491,0.01666666753590107,-6.423417428749799,-3.5795629526019095,-6.876355257761478,-11.866859944042563,3.7597932630240916,-3.316419381171465,-20.955023788693705,39.28203667157663,19.970755963254433
1698745581.508,0.01666666753590107,-5.6922389969408504,-3.857382115116715,-6.747166567790508,-11.158626334491371,3.4949370424568653,-3.2496792563289403,4.692930771161966,47.12380076333036,6.159790735050367
1698745581.525,0.01666666753590107,-4.788572247138619,-4.005746045678854,-6.335718102508783,-10.29850763451457,3.361308324211836,-2.939032759967446,27.067568397707802,48.2597705053302,-4.200627384373549
1698745581.542,0.01666666753590107,-4.283136753648519,-4.019548361060023,-5.948578733575344,-9.854384395599364,3.3665473939090966,-2.6963205666691064,49.61838050861036,46.39513910720047,-14.77206163688407
1698745581.558,0.01666666753590107,-3.357672598057985,-4.026488973978162,-5.258098222857713,-9.038409373253584,3.383454105046391,-2.2593790559515354,76.11918663917967,40.87795135228512,-28.055372553589848
1698745581.575,0.01666666753590107,-2.753558119150996,-3.9694232709318396,-4.613247828936577,-8.543708039745688,3.4476498061031102,-1.8507187600836157,93.17871107249957,34.90369416830169,-36.388246029687714
1698745581.591,0.01666666753590107,-2.6465187171459195,-3.817544610247016,-4.186506809715927,-8.54191297302246,3.604920096698403,-1.672201683320105,107.72245826845034,28.40462744660928,-44.02629289925665
1698745581.608,0.01666666753590107,-2.667651521545648,-3.2873727349072692,-3.480989181125164,-8.718783451622723,4.121616988915204,-1.3220492521308362,123.99936596629183,21.532027924492628,-57.350482498144956
1698745581.624,0.01666666753590107,-2.6246687043875454,-2.77490544308424,-2.828460507661104,-8.813653692406415,4.5973149312674995,-0.9530426289983093,133.5501697468824,17.312832243973574,-70.7519215365461
1698745581.641,0.01666666753590107,-2.5468343540787695,-2.5024451772540806,-2.424216859191656,-8.8940096701473,4.8027679457515475,-0.8375228372871876,140.3025630622487,11.966844888151888,-85.00518761728539
1698745581.658,0.01666666753590107,-2.453763856193423,-1.807574907144904,-1.7800059322178363,-9.043048138970136,5.354181931084394,-0.5713168826114386,144.64470556292258,0.39914590309008435,-100.31857418929152
1698745581.675,0.01666666753590107,-2.342965978437662,-1.155572887903452,-1.3975311940945685,-9.127293525364994,5.8620513737231486,-0.45085897691100835,145.93644459913372,-12.700706879561091,-106.62166400067606
1698745581.691,0.01666666753590107,-2.24867441432476,-0.7630857282012701,-1.1194518462736158,-9.226503841179609,6.090249888500571,-0.4038726962652057,147.38122085388818,-27.87372367261336,-108.32663631186215
1698745581.708,0.01666666753590107,-2.7868600847721097,0.08625906430482864,-0.7442015795111656,-10.018834953087568,6.694037619671225,-0.290147825146839,147.69714442375795,-44.360237923251496,-107.8888280162535
1698745581.725,0.01666666753590107,-3.056642655825615,0.47404900610148903,-0.46226676183845844,-10.488249285125733,6.866271670642495,-0.17747091044513508,141.97167005010306,-47.62120587454195,-111.36450637919789
1698745581.742,0.01666666753590107,-2.8833734165877103,0.5481126056998967,-0.29004677592515943,-10.504707667973637,6.7176797765433784,-0.14155744715137406,129.74695649247923,-41.91413886070025,-119.89502333176112
1698745581.758,0.01666666753590107,-2.398783142727613,0.6844669495165348,-0.09574117839932442,-10.289379740685224,6.507588580864668,-0.10594414612276595,108.93319126110514,-25.982749942402187,-135.8389114962403
1698745581.775,0.01666666753590107,-1.943569185477495,0.9769839149475097,-0.04436228881776333,-10.045172340393066,6.501454023632407,-0.16535018234220333,95.61753256849018,-13.880684384156972,-145.14360990065697
1698745581.792,0.01666666753590107,-1.6225070935636758,1.3523153571873903,0.04465692438278347,-9.932942384007573,6.553677547344565,-0.1852519927754067,88.76397049113764,-5.528817005750943,-150.12369206981003
1698745581.808,0.01666666753590107,-1.290498660221696,2.0776471087947486,0.16527710797283798,-9.863360898259282,6.82512016056478,-0.2060513091707602,92.56120733001706,-6.4583216550855225,-150.2890372892377
1698745581.825,0.01666666753590107,-1.4074515534758567,2.856761888515949,0.27793029473908243,-10.161140314263104,7.2530837073177095,-0.18644900227393954,103.79960742054521,-15.73318878141534,-149.01272082017243
1698745581.841,0.01666666753590107,-1.4581196644395589,3.2939301937267182,0.41329036682136355,-10.378412945878505,7.33269062025696,-0.12255414732731879,118.74163660737776,-28.95323336338658,-147.9179781000028
1698745581.858,0.01666666753590107,-1.584020418781042,3.753744630509615,0.5975783551365137,-10.707916702923178,7.3012676002502435,0.014514372640661894,134.07341687881873,-47.44878799422874,-148.9016482838897
1698745581.875,0.01666666753590107,-1.1687924349606036,3.7368013867542147,0.7338543730199336,-10.433480753105878,6.899789324840903,0.1581663991848007,134.5539070265508,-56.80039613786505,-153.29493524106863
1698745581.891,0.01666666753590107,-0.6938292366236448,3.7559716589093206,0.7055179208517074,-10.08721992252767,6.521954959869384,0.17268142941258846,123.32937905022693,-60.178699908907156,-156.69885563659287
1698745581.909,0.01666666753590107,0.2555097155511379,3.6075247262388466,0.5734639045774936,-9.284863091167807,5.834819229535013,0.13661862077601253,99.30750128645454,-55.51208927171183,-156.75759526345496
1698745581.926,0.01666666753590107,1.0520803647249937,3.5824925763130184,0.4753226792991161,-8.575730486950278,5.412541911724954,0.1195596051538363,82.28424515762741,-47.2264482612719,-151.6342430462717
1698745581.944,0.01666666753590107,1.3974515529870986,4.40763319415003,0.46400165933966636,-8.315061781200766,5.738452612713724,0.20634979892699046,70.08966639462167,-35.96602422576504,-138.35546737517484
1698745581.96,0.01666666753590107,1.3903069419294596,5.077960851415991,0.46122167323231694,-8.36414174619019,6.069600556768849,0.26695224299840625,68.65121489503863,-30.854010122604016,-124.8046999109497
1698745581.976,0.01666666753590107,1.6511469125926495,5.9149278083860874,0.5316834489464759,-8.130410147204994,6.603807021386921,0.401327751889592,70.08525409241784,-32.45378727528816,-109.12840489777327
1698745581.995,0.01666666753590107,2.108541721013188,6.400757853174209,0.33822540816068647,-7.691819407975673,6.751649083499424,0.3265082867143617,72.48591532151558,-45.948202263766106,-87.60342572850409
1698745582.011,0.01666666753590107,2.4229268193811175,6.67244947271943,0.18673603905439376,-7.381921684154868,6.818087987772515,0.3055592288256157,72.10513910547654,-59.30431958192963,-73.07789464706975
1698745582.027,0.01666666753590107,2.912880081579089,6.840398978239297,-0.039402657116390766,-6.889612798741459,6.818985934409371,0.24525530190989372,68.64714410229331,-70.13813341697208,-59.491179897242844
1698745582.045,0.01666666753590107,2.9641888285338878,7.259229370465874,-0.3022562691569328,-6.826167039269208,7.074567068945616,0.231786931190826,58.466111936796494,-71.48204143806379,-40.49655358903161
1698745582.06,0.01666666753590107,2.975995586183667,7.593703317138552,-0.45478966742344196,-6.8014762501269574,7.334487404013238,0.25528102136179803,48.47742814361099,-62.7314421300644,-23.133551898057
1698745582.076,0.01666666753590107,3.1635505404055118,7.590212552413344,-0.7251882514834403,-6.60126230534017,7.305607109025586,0.133775506304577,37.064875304720445,-50.19819526725274,-0.4365753664221807
1698745582.095,0.01666666753590107,3.1517823612004516,7.493522110465168,-1.0020833579558879,-6.601112083214521,7.268048307943903,-0.001796162701770663,19.383202600282427,-29.135435489685843,34.33910390131927
1698745582.11,0.01666666753590107,3.0889620401501654,7.359773565232754,-1.0844015026152134,-6.660369158825278,7.255329056825396,-0.030825857831165194,4.797927000404341,-11.849924002392317,58.52491986555031
1698745582.126,0.01666666753590107,2.7442110296130178,7.339474873569607,-1.0883118079267442,-7.004536816516518,7.409006761722243,-0.026486659583076833,-11.338387229787967,5.884120031280421,78.52204718919016
1698745582.143,0.01666666753590107,2.639291103979945,7.2835834749996655,-1.055659538386017,-7.1092808010607955,7.567323533729743,-0.02843231375813484,-27.845262274341916,21.546905784052207,93.82488111892863
1698745582.159,0.01666666753590107,2.3639906462877986,6.839454975387453,-0.9919242944478988,-7.378031106457113,7.460033024774119,-0.054767947497963904,-42.546856849558964,33.56399354373871,111.25186289940604
1698745582.175,0.01666666753590107,1.7459236298739909,6.766331286987662,-0.8077589095991105,-7.981220871734618,7.672518787439167,0.04773439559936523,-46.30788685564814,37.241790864602116,121.5187778635266
1698745582.194,0.01666666753590107,0.9654249945789575,6.460801110726594,-0.4942716368537396,-8.722825420489906,7.785345248413085,0.2498943598873913,-44.725451553266666,38.943283194406085,133.42521826620617
1698745582.208,0.01666666753590107,0.6770066966384649,6.046514207148552,-0.30375732136964795,-8.964937894329427,7.7091795619688925,0.3586806055597961,-42.30138668097788,39.02068289808067,140.4556959034404
1698745582.225,0.01666666753590107,0.36544133186638356,5.2728363577842705,-0.05118775092363357,-9.21393428246379,7.2888475330077105,0.5333073968864978,-40.22790517350209,38.94167126976196,145.79836549487274
1698745582.243,0.01666666753590107,0.30851649859547614,4.25286611854732,0.22942363612558692,-9.162459531292319,6.749852738134563,0.7152663577321916,-38.70921261154975,39.85270580692036,147.10312287164194
1698745582.258,0.01666666753590107,0.3127794167369604,3.6538460401698947,0.3927051498344168,-9.061452395188807,6.504297430364788,0.8038519652884453,-37.475082805893074,42.89174042150959,143.49196087632117
1698745582.276,0.01666666753590107,0.680091218650341,2.676526025135815,0.5888765412321314,-8.587251413396,5.866541963140667,0.9213171554462983,-34.92042471667364,44.9539657772332,138.0807571667569
1698745582.294,0.01666666753590107,0.9882371303677558,1.5058838706552982,0.760217479288578,-8.123076151055097,5.125536841583251,0.9892534495371393,-29.76027485533695,43.216495425976184,132.18403629023146
1698745582.309,0.01666666753590107,0.9770879598438739,1.018332408902049,0.915432590919733,-8.007557674518226,4.945373458917438,1.0732000356485136,-25.947562515345574,39.841108145709676,129.4888982852578
1698745582.326,0.01666666753590107,0.7332932320058345,0.6048509764879941,1.1014940917134284,-8.11499513593018,4.831947570745647,1.2005411889235023,-23.721559468608813,32.975063897648944,128.86009740988808
1698745582.344,0.01666666753590107,0.0673468585640192,0.39432109713107344,1.2592331688642502,-8.581566353496909,5.016451028442383,1.3102265936590265,-26.462770514628804,23.38180024608299,130.36660491436112
1698745582.359,0.01666666753590107,-0.36694764477610586,0.1702431694149971,1.258765551352501,-8.853905038774013,5.083487505882978,1.3027438823539763,-36.24819983094577,17.442646819338837,129.31714634838866
1698745582.376,0.01666666753590107,-0.8589537478506565,-0.3582049508720636,1.172098490768671,-9.118914988598227,4.927267016601562,1.2569547664703336,-60.20585674104713,14.10641103716849,126.24933956192075
1698745582.394,0.01666666753590107,-1.280567048794031,-0.5888210481852293,0.9610907647669314,-9.364768402531743,4.960336342510581,1.1124054531597531,-80.5127672944929,17.67278662832783,122.5024480474135
1698745582.408,0.01666666753590107,-1.4850637854665516,-0.9828384861946106,0.7257984923362731,-9.389907519963383,4.815934885838628,0.9666581713694147,-95.59409135925868,22.333058849973384,121.002470203787
1698745582.425,0.01666666753590107,-1.9829232907444236,-1.4864607927829026,0.32672314988281576,-9.638007251518964,4.630983976635337,0.7100295165246352,-104.81602153131314,27.946644479739707,122.17828726940469
1698745582.442,0.01666666753590107,-2.535782798710465,-1.441789291885495,0.1428710687668994,-9.994592492234707,4.905717448094487,0.6385022304708138,-106.76673038845796,33.66805489083844,122.64607326528052
1698745582.459,0.01666666753590107,-2.775376567727327,-1.56477737365067,-0.03777180451154709,-10.032602197155356,5.002833421978354,0.5701191972594708,-106.82986865714555,36.69816244818246,122.47255913960552
1698745582.476,0.01666666753590107,-3.1444752530574798,-2.056124136033654,-0.40187275461964306,-10.12582642429769,4.787655132293701,0.3687069825988263,-106.74721653799924,32.223493787042834,120.2088295429882
1698745582.492,0.01666666753590107,-3.602811141720414,-2.5432494813293216,-0.6839619956690818,-10.37452412174642,4.491072817119956,0.22849552496261893,-106.24657733221564,25.08401486839169,117.71489525058476
1698745582.509,0.01666666753590107,-4.124072565373778,-2.7386224158257244,-0.9063527009505778,-10.684123739403486,4.471171015819907,0.16834193890355525,-106.5484033916385,15.975643421477868,115.41732889681919
1698745582.525,0.01666666753590107,-5.124148017573356,-3.042363370582461,-1.3998001619398592,-11.396997868236898,4.377946788677573,-0.07287409755289555,-107.47646900549232,2.9054002559306364,113.34881976705917
1698745582.542,0.01666666753590107,-5.927260635736585,-3.5632647287517782,-1.9625135399222373,-11.979686112755536,3.997567999920249,-0.42227848685383795,-106.52115776703931,-6.069908006893938,110.8343949071457
1698745582.559,0.01666666753590107,-6.324955885475873,-4.023077119708061,-2.399251929283142,-12.157156895336508,3.6610336135864254,-0.635661125293374,-101.9039976994349,-12.173965252090648,105.68120159347866
1698745582.575,0.01666666753590107,-6.9916048542290925,-4.591536347866058,-3.0786744548916816,-12.545616114696859,3.2276825285762545,-1.0333980222173034,-84.06966343685792,-13.137338675085203,93.05826068648639
1698745582.592,0.01666666753590107,-7.887160778290033,-4.57251016035676,-3.4025954433679577,-13.259836397442221,3.3277900854915377,-1.1912651096619664,-61.62717129600259,-6.952265141048389,77.89151144577126
1698745582.609,0.01666666753590107,-8.284573703956603,-4.557454045522213,-3.498648756456375,-13.514369376915692,3.4087434446036813,-1.1836343225225805,-34.67110232140066,1.9091085227877913,58.58877530410076
1698745582.625,0.01666666753590107,-8.77778392212391,-4.4643210037946695,-3.4673476092636584,-13.891007810100913,3.5669109762996434,-1.116895951245725,0.3484850293143511,8.759272794471656,29.15197137766644
1698745582.642,0.01666666753590107,-8.971751081475615,-4.328635937541723,-3.3872885686427354,-14.054411488884687,3.7315117559134956,-1.0697611289747058,20.282767542277078,5.652272674998923,6.374982675040789
1698745582.659,0.01666666753590107,-8.946839927580951,-4.343789083009958,-3.298625073544681,-14.041543239483236,3.7256770584106444,-1.040730264801532,33.975444139340276,-3.8666631504716595,-16.200465928198007
1698745582.675,0.01666666753590107,-8.554004392832518,-4.2817818319082255,-3.169443690097332,-13.734786151775717,3.7576989210933442,-1.0022723777219653,43.47798238816095,-17.18461251777951,-49.3020676179579
1698745582.691,0.01666666753590107,-7.645132475602626,-4.395310011410713,-3.087459818893671,-12.949038509911299,3.5821740118831396,-0.9901524624697864,49.82159229679658,-22.307047782066682,-74.88628285247901
1698745582.709,0.01666666753590107,-7.06917441612184,-4.2735248756945134,-2.999423808044195,-12.544418429344892,3.608210370415449,-0.9819223942629992,57.96438673093487,-22.029450111177145,-98.91865178681655
1698745582.725,0.01666666753590107,-6.105078039798141,-3.6520799072802066,-2.771463778197765,-11.87509001224935,4.051885865563154,-0.8936360619142651,74.13772827039146,-17.25470904168406,-121.89058604118541
1698745582.742,0.01666666753590107,-5.757511387318372,-2.655854116246104,-2.4152106920458376,-11.783511214226484,4.882673257115483,-0.6750165457345545,89.57591605891207,-16.733524626877067,-132.91243498407832
1698745582.76,0.01666666753590107,-5.597008690673112,-2.036694628420472,-2.0809845826543865,-11.891549564141034,5.315425791710615,-0.5012869955085217,103.1902589239317,-18.659824095475546,-141.90167427148876
1698745582.775,0.01666666753590107,-5.451963090878725,-0.9632219315767288,-1.3745055616855621,-12.120495682415365,6.0986295943111175,-0.021249124255776405,112.1461190768683,-22.809310865325447,-155.2300234555816
1698745582.792,0.01666666753590107,-5.2699277768611905,-0.2710731953859329,-0.8598609258234501,-12.225391642650962,6.538414511761069,0.3329430107783526,110.0779924377018,-24.298080368523955,-167.15883955798216
1698745582.809,0.01666666753590107,-4.741293778613209,0.053855508828163146,-0.5988416530705988,-11.992405309075117,6.571483837670088,0.4557949720084667,98.87382525529375,-23.37610899095708,-179.97597640345623
1698745582.825,0.01666666753590107,-3.729370067709684,0.39131168618202206,-0.3589221592307091,-11.385475188225508,6.450877098083495,0.555454127569124,77.1347401461122,-16.7630361667334,-194.40242876079037
1698745582.842,0.01666666753590107,-2.769166022649407,0.9081389267802238,-0.2681202638644725,-10.727668282097577,6.5770210135310885,0.5663772342521697,62.82479032545096,-9.353804049454478,-202.69205177151642
1698745582.859,0.01666666753590107,-2.215582876583934,1.4590011234492062,-0.19091412845663724,-10.465205678668617,6.706158850097656,0.5716151349056512,54.283327994742784,-0.9414615358069216,-206.59949371265398
1698745582.875,0.01666666753590107,-1.5967220794439314,2.5787694152608513,-0.052616468552500004,-10.203636224687099,7.231984512926638,0.6099219230767339,54.058034204969914,5.7213847978893435,-205.19181904547105
1698745582.893,0.01666666753590107,-1.230314532893896,3.5535222101554274,0.11543602241780608,-10.073003181126714,7.753172579082846,0.6986575700955465,59.77080784186316,5.482584735919596,-199.78647563821465
1698745582.909,0.01666666753590107,-0.8624895207613706,4.093608161266148,0.22449958719424903,-9.9094486956954,7.843553691753745,0.7351686704888939,66.18476528385534,-0.14286678672467903,-191.88211627781234
1698745582.925,0.01666666753590107,-0.22156652941703794,4.659482633627951,0.3364870765933767,-9.491812481689452,7.827094432123005,0.7827529170278459,69.98515083994214,-11.43064686377556,-180.43552519119302
1698745582.942,0.01666666753590107,0.5254501075148582,4.734400511968135,0.391045144200325,-8.879794097790121,7.477839972686767,0.8215088006732985,67.98015563927406,-18.769672320349567,-173.46628703005715
1698745582.959,0.01666666753590107,0.8479834410250187,5.016929167348146,0.4533622284362092,-8.668057472991944,7.345710260827839,0.8916902250761166,63.71888257837315,-22.77211536265285,-167.93271365132296
1698745582.975,0.01666666753590107,1.4007710527986288,5.383982026064396,0.4682686691343784,-8.22961870945394,7.17287824396342,0.9434644706508144,57.33618691221212,-25.308063856188326,-160.8666643888913
1698745582.991,0.01666666753590107,1.8617437197059392,5.604045749703049,0.4346890556156635,-7.830834495434164,7.002590943145751,0.952741709822975,53.43138142409417,-26.571293682803844,-153.50568755809854
1698745583.009,0.01666666753590107,1.992848472431302,6.138506262147426,0.4279880966722965,-7.743146275109052,7.1658458611086004,0.9983807771109044,51.60150202846147,-28.115203303171867,-144.85507538935897
1698745583.025,0.01666666753590107,2.0480261697739364,7.138495205107331,0.4400081317465752,-7.7199518620043985,7.710077387591451,1.0959444947622716,50.7066106434064,-30.49074992669147,-129.01332587372815
1698745583.042,0.01666666753590107,2.120407515373826,7.934002608963847,0.4056266272604465,-7.655309586223959,8.203133766903914,1.1358989770751446,48.924856760665605,-31.835194117633026,-114.23580862324454
1698745583.06,0.01666666753590107,2.2762924890905616,8.245320136454701,0.2962368627369404,-7.4966937262386075,8.25281347076011,1.108065944384411,44.37846428305168,-32.922956384470915,-97.57892384149689
1698745583.075,0.01666666753590107,2.786380192300677,8.5259678003937,0.08442848787680268,-6.972514369311928,8.248922563127149,1.0105017152763902,35.27854861033033,-32.74447329617473,-77.70501996067324
1698745583.092,0.01666666753590107,3.1835815210431813,8.972176613411307,-0.11324980095252395,-6.560711099243163,8.518719107907078,0.8934858397886156,25.462004367249367,-26.75399612045981,-66.84838646361378
1698745583.108,0.01666666753590107,3.338444165974855,9.481194057041407,-0.12653949063643813,-6.391321331787109,8.874557658441365,0.9383774131774901,13.732709189562291,-16.320129134909337,-57.170735824852315
1698745583.126,0.01666666753590107,3.783274676376581,10.082036966931819,-0.21177564163431525,-5.931186284747719,9.314192207635193,0.8882480122003704,-3.5515306018851422,-4.49336715776618,-37.141793480058546
1698745583.142,0.01666666753590107,4.326988170334697,10.176748217761515,-0.3950795142829418,-5.380818009075522,9.336339595904946,0.7106277381461114,-16.660014715934803,-0.6825102813515207,-16.590380937346524
1698745583.158,0.01666666753590107,4.804790976011753,9.956135628068447,-0.5206734676975756,-4.901528179711103,9.094375955951586,0.581640342900902,-29.319673012357764,1.7196911554040588,6.099263306173007
1698745583.175,0.01666666753590107,5.392420184063911,9.485759172999858,-0.7708556315504014,-4.321833271789551,8.685864347839354,0.3079531656242907,-41.47411416870593,7.121033565910703,39.045527711186594
1698745583.192,0.01666666753590107,5.3135401240944855,9.406601465132832,-0.8518038760960102,-4.413410316246748,8.728511576367541,0.1955759097225964,-43.853721339687105,10.865266002396707,66.74566041849678
1698745583.209,0.01666666753590107,4.381443983143567,9.344757880160213,-0.8487539870060979,-5.365553804448247,8.945485663427785,0.1547249169614166,-34.0892555814802,9.506257286823747,105.75115639095793
1698745583.225,0.01666666753590107,3.7083676116913553,9.230188667172193,-0.8078560132980346,-6.048350774925947,9.126996268584625,0.17507504655085504,-20.97910703570717,5.166099809877416,131.94368193333872
1698745583.241,0.01666666753590107,2.3055022169619797,9.166934630879759,-0.6678619978047907,-7.449106630155444,9.423877137446683,0.3078039664119482,-8.998643604123924,0.6356408829366585,152.65847089345016
1698745583.259,0.01666666753590107,1.0670534774512053,8.39304986076653,-0.5612623754564673,-8.65653654654622,9.201366111987456,0.4230255058288574,2.82825839189722,-4.913655591266921,171.0421709313496
1698745583.275,0.01666666753590107,0.5144277782410382,7.748770544731617,-0.48812487772703167,-9.160813517650961,9.0004030293338,0.5086171922661363,6.160028937897671,-5.076441197303128,177.22453031896498
1698745583.292,0.01666666753590107,-0.2534977912068367,6.973437329375743,-0.2717396234054118,-9.859620542687177,8.673444426727295,0.7296317138236016,3.0414986053323108,0.9161734007351842,176.72759307571152
1698745583.31,0.01666666753590107,-0.529230795097351,5.799287166774272,-0.06893149740695953,-10.01689024876058,8.080280819293112,0.9066536566585301,-9.55575993660706,16.865217504264084,173.20615244532806
1698745583.325,0.01666666753590107,-0.5591963097721337,4.964271343871951,0.014629413855075836,-9.939527023094891,7.669376105499267,0.9431642821278422,-20.72272734747428,28.98456344110943,174.28742603245442
1698745583.342,0.01666666753590107,-0.42441374531686304,3.6453029604911804,0.017635025411844252,-9.677661801037193,6.775291423034668,0.8842086736816912,-28.04711143978872,36.753708961607586,179.9498167789351
1698745583.359,0.01666666753590107,-0.4320131144046783,2.351349483640492,-0.02657243817038834,-9.476099364250897,6.061669106182456,0.7534241658866405,-29.055706691504284,38.277281693721896,189.49966433304184
1698745583.375,0.01666666753590107,-0.5699380685389042,1.6803662850752472,-0.013075681607052683,-9.424027231708168,5.834071479907632,0.7095800557240843,-25.54331435422378,34.40842007611114,193.2012716933519
1698745583.391,0.01666666753590107,-0.7665151181280613,0.9555284544646739,-0.03281747003979981,-9.40547041527629,5.546766111645102,0.6449370492912828,-20.294841609182367,27.909139911007166,192.1573592409855
1698745583.409,0.01666666753590107,-1.4258470418661833,0.44517888544797896,0.007480711144208908,-9.752480602917075,5.586270439037681,0.6452367628902197,-13.593222212558643,18.600136779866098,180.44918556953306
1698745583.425,0.01666666753590107,-1.796426321142912,0.10350129100680351,0.029257658666372297,-9.88356314381063,5.615450356292724,0.6513720507748425,-11.402672970256127,11.827272533783615,167.62788230866528
1698745583.441,0.01666666753590107,-2.2928338740468024,-0.37084640578031536,0.023092121773958203,-10.141239097484945,5.475988109588623,0.6455361111629754,-12.924685857918735,5.2096315936656685,155.58401849988502
1698745583.459,0.01666666753590107,-2.873766799330711,-0.7576070045292377,-0.02503156540393829,-10.408342220196127,5.485564331707358,0.6256341637324542,-19.897563656108577,0.11245226117551638,143.20094017616526
1698745583.475,0.01666666753590107,-3.223407335475087,-1.0281874479621649,-0.09779745334200561,-10.523713397216797,5.483320352172851,0.5922649050287903,-27.380493514531935,0.5508435507824213,137.8459079423352
1698745583.491,0.01666666753590107,-3.6473897036373613,-1.2641396456062792,-0.2350841826379299,-10.712105971306562,5.4969367895931,0.5051760388363152,-35.285566629702515,4.809846107392836,134.15404043178157
1698745583.509,0.01666666753590107,-4.070606932646036,-1.4623895968437195,-0.39960020657777784,-10.817002516064047,5.608118113708496,0.4155428219232708,-45.688556037562655,15.59836938493575,132.02533001467705
1698745583.525,0.01666666753590107,-4.404708538874983,-1.6267068833410738,-0.4700223078686744,-10.907233406609295,5.662136704143881,0.40192550772018726,-52.15419069081514,25.242142285413948,132.4935258219031
1698745583.541,0.01666666753590107,-4.805570143690705,-1.9698609800755977,-0.6413059993125498,-11.055374634331464,5.529855893376469,0.2885002771355212,-57.17491590062436,32.83856256708624,135.59363940314515
1698745583.559,0.01666666753590107,-5.433184156128764,-2.6449334937810898,-0.835569365131855,-11.32606905953288,5.127930458721519,0.17776888874471186,-60.54742767125029,36.73118641281947,140.95390356187946
1698745583.575,0.01666666753590107,-5.980807517006993,-2.963278143429756,-0.9203203629612922,-11.590628342980146,5.007172912487388,0.16235672701410947,-59.589179451454186,36.53024907762687,142.9257245337488
1698745583.592,0.01666666753590107,-7.148961069542169,-3.382477368968725,-0.9329599181734025,-12.37233693858683,4.833593876647949,0.24301029946208,-53.39573466681587,35.86032363326451,138.7114568347159
1698745583.608,0.01666666753590107,-7.849768913006782,-4.200345073193311,-0.9700947399556636,-12.793117295837401,4.178180587658286,0.2684491304926574,-46.661939956559515,36.188845487058366,127.50771995422556
1698745583.625,0.01666666753590107,-8.205514780288935,-4.750680031117796,-0.9992508379437028,-12.9001073057428,3.762487324413657,0.28805121819376944,-39.5506509361603,39.703718890554875,107.78615661264988
1698745583.642,0.01666666753590107,-8.500373340409993,-5.5062195817232125,-0.9120562463544308,-12.945148808996379,3.1347587456852195,0.41000674204081294,-30.265602985985755,50.91605839430484,71.04254608573015
1698745583.659,0.01666666753590107,-8.467548929172754,-5.8411506245136255,-0.7374328160285949,-12.80643445805013,2.8538872098624704,0.5819394719779492,-23.040645957419194,60.60517692068275,39.22566712035651
1698745583.675,0.01666666753590107,-8.420307870048283,-5.756586673688888,-0.5968319206833839,-12.725929427227378,2.9589333922237158,0.6961131097771227,-16.468310088952762,65.47975998791578,10.318752684826368
1698745583.691,0.01666666753590107,-8.506647013852,-4.9914744080960745,-0.35650121569409965,-12.834266760088502,3.7189421971976753,0.8967775748103857,-12.322330621241663,61.63949978745446,-8.906253342768453
1698745583.709,0.01666666753590107,-8.40418208015561,-4.507391499236226,-0.3673745649512857,-12.801046627531944,4.174587531602382,0.841410857701674,-11.640078392974722,41.32511700705669,-20.13230188995628
1698745583.725,0.01666666753590107,-8.163029391258954,-4.573716613537073,-0.5321849687278271,-12.623876289202272,4.076576654705405,0.6693285632260143,-12.509632337529984,18.933161435870286,-28.62463466996456
1698745583.742,0.01666666753590107,-7.633813793730735,-5.0074277640312905,-0.855428934725374,-12.217910346984862,3.57499257594645,0.3687061058159917,-6.944331022553773,-4.756143318156788,-53.99663763452067
1698745583.759,0.01666666753590107,-7.831962622681259,-4.474674640026688,-0.974975643865019,-12.563871610094607,4.024800874760746,0.2653058640308678,4.564671771380174,-14.537663204947572,-81.35031924146571
1698745583.775,0.01666666753590107,-8.05518276452422,-3.6646874599188566,-0.914962635320425,-12.99243399952352,4.717773786816001,0.3212713507503271,18.565325013213833,-18.067428128381998,-109.30202147628582
1698745583.792,0.01666666753590107,-8.187461821725964,-2.1394436397552488,-0.7537455067954957,-13.479504984283446,6.030545653644204,0.4361924459159374,35.929656883529304,-18.971770787701075,-139.89392650458518
1698745583.809,0.01666666753590107,-7.763594604375958,-0.9554688332319259,-0.5693954860948026,-13.365481130218505,7.013664710345864,0.5629360077571124,43.9583598377717,-18.694914192336487,-156.83998100522365
1698745583.826,0.01666666753590107,-7.1488704686492675,-0.3414847022175789,-0.4565314695894718,-13.084310903710126,7.391648128399252,0.6109697516292333,45.69903696284404,-17.22113524681886,-169.8753014135446
1698745583.841,0.01666666753590107,-5.708334391695261,0.12027239306569099,-0.4486579597353935,-12.107327573284506,7.485321268352866,0.5409386954825371,39.373253847942145,-14.018660181806752,-180.71921026818035
1698745583.86,0.01666666753590107,-4.106901650342345,-0.06913257293701172,-0.6313562677063047,-10.849622344639897,6.988823114556074,0.3127419342707842,32.10591549557565,-10.62212578209624,-185.73786934576563
1698745583.876,0.01666666753590107,-3.1757313920646904,0.004077040180563926,-0.6754502609767019,-10.256159608128666,6.728453099492192,0.23044044848531484,27.774646656060447,-5.777061084908702,-190.86687695958165
1698745583.892,0.01666666753590107,-1.8062071259230374,0.27244974443614484,-0.6904677243012934,-9.324366249516606,6.511778433769941,0.15711941088251768,30.825685328115974,0.9994867675705302,-196.9376993580507
1698745583.908,0.01666666753590107,-0.9493488890469074,0.8013397632718086,-0.6034872138541192,-8.782081911578773,6.649446198272705,0.1828559827506542,40.948104225250326,3.85687805071197,-199.70721812308582
1698745583.925,0.01666666753590107,-0.4902922848939895,1.3998060071587561,-0.4945849405866116,-8.618976923480629,6.839635592651367,0.21472974219955504,56.133124221995246,1.177668793934709,-199.77907171315437
1698745583.942,0.01666666753590107,0.1156838962316513,2.196408220514655,-0.2717266908586025,-8.368332768139243,7.077858365575969,0.3309982333861291,79.38113472261603,-12.59051885277586,-195.1153365855996
1698745583.959,0.01666666753590107,0.18912790262699125,2.9912498539388177,0.01219663375020027,-8.526798990520835,7.45359838861674,0.5511146005274727,93.97649082793541,-24.349936872249984,-188.49650078926373
1698745583.975,0.01666666753590107,0.32741116867959497,3.6278400767758487,0.17003855022098868,-8.589196702244877,7.679551170293986,0.6681304029500111,101.49486936815113,-35.16843913072056,-179.39318368233572
1698745583.992,0.01666666753590107,0.9457564175128936,3.8637136562258,0.1347065400769934,-8.190712347954511,7.391199507848918,0.6368565090904011,97.27848431047553,-51.74478573686999,-164.31071897597855
1698745584.009,0.01666666753590107,1.4557681328773497,3.7241517485395073,-0.032375534958578644,-7.811829350712895,6.881533829443156,0.52702276365906,84.77582986495636,-61.56207959321237,-153.96841921398857
1698745584.025,0.01666666753590107,1.648183971133828,3.9900206532806157,-0.15503507888913154,-7.725937950676679,6.794594673919677,0.5011354582086205,69.15933998815257,-66.35722756039816,-145.7978054193608
1698745584.042,0.01666666753590107,1.666261479616165,4.507627646079659,-0.3311223712224513,-7.817814854863285,6.862380362292379,0.4921574211787432,50.78835776248769,-66.83918619880177,-137.4479947816686
1698745584.059,0.01666666753590107,1.2304700157165527,5.415484833309054,-0.4149615879692137,-8.315509524968267,7.445967016955465,0.5451289137139916,41.09900017948883,-64.06842433933771,-131.71717920008277
1698745584.075,0.01666666753590107,1.1901526183754205,5.91792640568018,-0.5731578343030065,-8.40199947541952,7.636605470275878,0.5255256569691003,33.642943700354884,-61.50167340019277,-125.21828152557231
1698745584.092,0.01666666753590107,1.313714116114378,6.323830096316337,-0.8538859430670738,-8.317007070049643,7.652766477612405,0.4320027391411364,22.24221562646492,-59.28430712766149,-114.11458642585515
1698745584.109,0.01666666753590107,1.4012380857884883,7.004190779557824,-1.1611303759001195,-8.243236315917969,8.061576630279793,0.2659060218811035,11.60343784317219,-56.61902729464453,-106.03365301502966
1698745584.125,0.01666666753590107,1.6938187641054392,7.243381228470802,-1.424103413069248,-7.954135880932212,8.047061271258443,0.1384149296082556,-0.9426852068854117,-51.755044681003355,-96.78234619935498
1698745584.141,0.01666666753590107,2.2814164079755543,7.203868717771768,-1.8811295343078671,-7.359624512150884,7.697657904870808,-0.15577435294911265,-16.968903190959463,-43.10322356878069,-85.10225143558044
1698745584.158,0.01666666753590107,2.5096418107599017,8.127104091396927,-2.208025593072176,-7.122000581902265,8.405294096518121,-0.3847193021796643,-26.141749916090912,-32.65723128990616,-77.72586569802012
1698745584.175,0.01666666753590107,2.596416423371434,8.599625741800665,-2.3863284425631166,-7.0256333805590865,8.680627269169781,-0.4942549049146473,-31.784678038531613,-20.89995709605777,-67.52467764428259
1698745584.191,0.01666666753590107,2.615805014452338,9.33066155026853,-2.649759306502342,-6.996754492077231,9.189694150565332,-0.7134732637703418,-33.90684854950584,-5.330993383046217,-51.35772233169996
1698745584.209,0.01666666753590107,3.3055782536834477,9.43866190626025,-2.8774142159223555,-6.304231077355146,9.167248793129156,-0.94137104203552,-34.56920272917324,5.666458124131394,-38.59043903697781
1698745584.226,0.01666666753590107,3.6683594264298676,9.412857018396258,-2.935468930006027,-5.944652500042319,9.045294200863875,-1.031452587237954,-35.48804758764754,18.890906470570002,-24.09885399571844
1698745584.242,0.01666666753590107,4.2311809409618375,9.482982694023846,-2.826717463386059,-5.398175386589765,9.051429561813734,-1.021277960834652,-34.15765992601788,36.786360680934834,0.8364489247827094
1698745584.258,0.01666666753590107,4.227181642192602,9.662276600378751,-2.567818689918518,-5.422565731480717,9.250447538281604,-0.8698438290469348,-27.310907547267846,44.93226968133465,26.744681449979204
1698745584.275,0.01666666753590107,3.922417189607024,9.881904855209589,-2.3036817235365508,-5.751019687211513,9.566631247036717,-0.723947749903053,-14.396112657040936,46.245967775727394,57.29505209793572
1698745584.292,0.01666666753590107,3.1339591197401284,10.124573793888091,-1.7777965856052933,-6.5674436223685735,10.073902522852924,-0.3458129406802356,8.746288604859462,40.34661044618232,99.98166827829148
1698745584.308,0.01666666753590107,2.3228636861294505,9.736028649809956,-1.389124600277096,-7.389402979820966,9.983671230448875,-0.054618163763731714,26.739026053346432,37.85043926682571,130.98626699662134
1698745584.324,0.01666666753590107,1.9009394195407627,8.906086476910113,-1.0326479345023631,-7.807491029247641,9.520842030688375,0.20784590096995234,36.66334555888832,32.601886267061545,147.61438985177406
1698745584.341,0.01666666753590107,1.531716231048107,8.816702558583021,-0.8053028947491199,-8.143277812084555,9.96511607625112,0.3109458446342498,40.88440588105078,35.75227345568949,158.42372428883118
1698745584.359,0.01666666753590107,0.7887970925629139,7.96197081234157,-0.24695479930415748,-8.839689466416836,9.528024635668844,0.7580622740160673,40.39982445000589,40.98012415207934,163.08215918959002
1698745584.376,0.01666666753590107,0.6985241164416074,7.199496494036913,0.02502447807602584,-8.864080980351567,9.188197929791361,0.9036606853876262,37.04622205809714,45.00193761086878,166.13301344653794
1698745584.392,0.01666666753590107,0.5977525426596403,5.902888995546102,0.4398269299607724,-8.843580628636479,8.460509824316203,1.1399381694633512,29.52670287629002,46.61753348167068,172.26678286839785
1698745584.409,0.01666666753590107,0.6432242540240287,4.62168101850003,0.7974176213920116,-8.678830795940756,7.613262004089355,1.363198022262193,25.38313105026135,46.7944592868361,177.61677442262047
1698745584.426,0.01666666753590107,0.5468512074619531,3.729569681935012,1.0770026245355606,-8.630048352593183,7.159860064697265,1.5105910619655623,22.301592168467135,45.77841059118876,182.33919453552397
1698745584.442,0.01666666753590107,0.30803134542703625,2.428867899867892,1.3724737635970115,-8.634090321460366,6.445939349420368,1.640776032964885,19.371483703213976,41.16836416560489,186.92634958210454
1698745584.459,0.01666666753590107,-0.008650339445471764,1.4356529810875653,1.4901637389540672,-8.745269892010093,5.8871919524595135,1.6503519628226757,16.116169441009003,35.15475484671843,187.36803059497257
1698745584.475,0.01666666753590107,-0.3012204963684082,0.8618278419822454,1.5082301415205002,-8.812757035827635,5.732018341882527,1.581518952787551,10.167553640943442,27.85817303942053,183.4627743143694
1698745584.492,0.01666666753590107,-0.8100520620375872,0.18472060757875441,1.431270820480585,-9.003393004930018,5.573550073674321,1.4267939059640935,-1.4892000185596317,20.405198683149557,171.02799145863264
1698745584.509,0.01666666753590107,-1.2610101154088973,-0.13981588244736193,1.31315063701272,-9.213936036029457,5.597793119049072,1.2785029787039617,-10.594867350892365,16.9373938207709,159.1229717353004
1698745584.526,0.01666666753590107,-1.9048720828145742,-0.4373766872644424,1.188921030753851,-9.542388822716473,5.713761677441001,1.1420340183645952,-17.424261657640457,14.938289658261963,145.92307108873885
1698745584.542,0.01666666753590107,-2.3503899909585715,-0.6115268009901046,1.139430731397867,-9.752031690105795,5.821500752148032,1.092204047858622,-17.27878375096106,15.0338986462638,141.67604580244657
1698745584.559,0.01666666753590107,-3.063572162827849,-0.659303866687417,1.0339771372795103,-10.22189376591146,6.0434139030456535,0.9850631217078305,-13.315057635967998,14.881206352273582,141.7154423335792
1698745584.575,0.01666666753590107,-3.7808079940021035,-1.1678998700350522,1.0477560717850922,-10.594491399273275,5.884797458538412,0.9882060502429026,-8.335086457388952,15.281192475353283,145.249109002577
1698745584.592,0.01666666753590107,-4.262573273569346,-1.4912866055041551,1.1402829643130301,-10.80188853356242,5.81641248909831,1.06781316867813,-9.333963203689237,18.157502955608834,146.41866961491496
1698745584.609,0.01666666753590107,-5.0862464492022985,-1.8391905271142721,1.4022148218661545,-11.340734129223227,5.7136120398372405,1.318905072353594,-14.176110556327533,22.134889448941927,145.6208761991008
1698745584.626,0.01666666753590107,-6.179914377334714,-2.201344507873058,1.641902698907256,-12.043431731957197,5.658844092339277,1.5584749947039875,-23.49855037711331,25.6348286438182,144.46616441801845
1698745584.642,0.01666666753590107,-6.801483264389634,-2.528758014640212,1.6662795997947453,-12.363207291191815,5.54796262795329,1.6017200703943146,-30.590863424450934,24.371320486994,144.09915103315697
1698745584.659,0.01666666753590107,-7.336793087139725,-3.3027953449666496,1.4796405913740396,-12.590207536095381,4.977992995232343,1.4562725318856653,-35.83762349955797,19.125991336518087,142.58981583036754
1698745584.675,0.01666666753590107,-8.141465209704638,-4.092000433808565,1.2393863126218319,-12.985101464678346,4.434808493584394,1.2949630511854542,-32.45160502984834,9.708645183441334,135.48786709365834
1698745584.692,0.01666666753590107,-8.832264284852146,-4.303828828543424,1.2228911048948765,-13.382240249578654,4.382735776519775,1.3310258187228348,-19.88425844760539,3.683100535867098,124.08069985892834
1698745584.709,0.01666666753590107,-9.898248087245225,-4.3882659381181,1.3113280977606772,-14.183250050243734,4.431666103905439,1.445198862866964,-2.5882824701731724,-1.4390003693158593,105.2902005842521
1698745584.725,0.01666666753590107,-10.704552779448031,-4.382935098484158,1.4124386942386626,-14.716557885521649,4.564693933647871,1.531241106083337,17.442160168360473,-12.045762601369507,68.92155378238775
1698745584.742,0.01666666753590107,-10.982208860355614,-4.408759860092402,1.4382044191360472,-14.86589709085673,4.595669502148032,1.5254048924768342,24.069591757766812,-23.066390647948264,39.90550999939373
1698745584.759,0.01666666753590107,-10.896925947606563,-4.742749822640419,1.2824959710299968,-14.714613473455607,4.290108930748701,1.3380584299065172,22.039423894912655,-38.79551205171286,0.9282772429963871
1698745584.775,0.01666666753590107,-10.016452441865205,-5.401598931297659,0.9991571683108806,-13.866915571373701,3.617337679722905,1.0544957827031145,15.114850048306792,-45.729308361245536,-29.58318512563144
1698745584.792,0.01666666753590107,-9.326339595416188,-5.66676494846642,0.8315677282750606,-13.281235159301756,3.3066923524051903,0.9106943468840792,5.287007391678158,-47.2876706618973,-59.60147379196021
1698745584.809,0.01666666753590107,-8.328851821622251,-5.416530542969704,0.5683224500358104,-12.5201777220577,3.4480987189143892,0.7149674843834712,-4.139648309237321,-45.804529234574886,-91.84137369338941
1698745584.825,0.01666666753590107,-8.285704169291257,-4.037165266293287,0.5189549002766609,-12.706924282506108,4.713882040074467,0.7246941843561828,-0.17285153062444658,-46.984369281613716,-109.08000617731456
1698745584.842,0.01666666753590107,-8.06135882281065,-3.3303660734593867,0.46333760594036427,-12.74343585782349,5.282655156487226,0.717062410836108,10.931982436435746,-53.331267926334704,-122.88045803683868
1698745584.859,0.01666666753590107,-7.455160523366928,-2.6629683321654793,0.3706464992940426,-12.521076132202147,5.728426162609457,0.6729193725259043,20.912273634678595,-61.39446675098026,-140.04987338371492
1698745584.875,0.01666666753590107,-6.709913234195112,-2.2341163121402263,0.3964309654245153,-12.091167296600341,5.956923368072509,0.741902216527611,15.897958557405435,-60.70150990873661,-155.9147225991187
1698745584.892,0.01666666753590107,-6.033713762286305,-1.8759914407670497,0.3331482510268688,-11.756876305279135,6.076782504162192,0.7444462019219994,0.5759024476301403,-54.10389209505738,-172.5799060607079
1698745584.909,0.01666666753590107,-4.810481881129741,-1.6721861934900282,0.09679682493209839,-10.899452835735678,5.998222762188315,0.6063312051083892,-19.37231015610355,-43.91955070290769,-186.52243951534666
1698745584.925,0.01666666753590107,-3.520146302515268,-1.2878811711996794,-0.27099253136515616,-10.109366287884116,5.94390431202352,0.40267340347804126,-41.976389204795744,-26.90627348045795,-199.6505548737314
1698745584.942,0.01666666753590107,-2.860869323834777,-0.7422820096254348,-0.4612017994880676,-9.820416075024008,6.120776544189453,0.33473815056681633,-50.61541737270297,-13.307834710920709,-205.6493734179702
1698745584.959,0.01666666753590107,-2.243259403538704,0.3535568328052759,-0.5451237991474569,-9.680057171741128,6.678626115527749,0.38112675758041437,-49.36458775452561,2.7912500790965638,-208.86006776187477
1698745584.975,0.01666666753590107,-2.0496686762839555,1.6258429599881172,-0.427024804598093,-9.822361363872885,7.523778717041015,0.5578481100335717,-43.411196798456565,13.218256779955992,-208.06467857264843
1698745584.992,0.01666666753590107,-1.793001607391238,2.5238842711240053,-0.3595570230681449,-9.877277779930829,7.982416803520917,0.6500255315367132,-37.109356911690156,19.778190732436972,-205.11690553065435
1698745585.009,0.01666666753590107,-1.188540507003665,3.3653406484678388,-0.4121789715133607,-9.642348495593666,8.230816687066852,0.6030391778256744,-34.17724890855747,18.59081527919632,-197.7943690045104
1698745585.025,0.01666666753590107,-0.4713058448731899,3.577372164559364,-0.5549811762951314,-9.165752143096924,7.996933112390339,0.46701866907328365,-37.632204477560045,13.812402983024354,-191.6206429760059
1698745585.042,0.01666666753590107,-0.04790390694737434,3.9734877438917753,-0.6464237807177007,-8.952967470550536,7.947103790338337,0.3930976928159594,-43.10771100306539,9.353798073038954,-186.6699306202839
1698745585.059,0.01666666753590107,0.6399725587517022,4.5015684921711685,-0.8673940978072583,-8.5034561088562,7.878869043023884,0.2105393778376281,-47.073291514418116,3.944971696192679,-181.42037016761716
1698745585.075,0.01666666753590107,0.7572703199207782,5.15528666768074,-0.9862450797677039,-8.534878836601973,8.087164587457478,0.12300079511627554,-43.557489205194486,1.9512655175621678,-177.45194829756971
1698745585.092,0.01666666753590107,0.8727122240900993,5.791171080335975,-1.01832583303079,-8.544008483996986,8.28318984838277,0.11551949945017695,-35.228449172768286,1.2320003874612218,-173.205346483006
1698745585.109,0.01666666753590107,0.9889625220328568,6.506859682068228,-0.9972435897745191,-8.558371355870365,8.428337593377382,0.15457454870529472,-22.874486237933002,2.3663418763959547,-164.41009822840223
1698745585.125,0.01666666753590107,1.1830968546450138,7.1588541025251144,-0.9413164623040705,-8.437314534428715,8.67254630884379,0.21053945090286433,-16.64803114903602,4.522362591453353,-156.33410987453584
1698745585.142,0.01666666753590107,1.4939280599236489,7.482073080211878,-0.9603626696880906,-8.180236546647548,8.609998082733155,0.18360402463898062,-13.619180346499277,5.6898976258155844,-145.69014797766306
1698745585.158,0.01666666753590107,1.9666466942042111,7.897998983168602,-1.0034043774265795,-7.752573444145917,8.557774705151468,0.12434782581105827,-12.508035780811495,6.503042318676181,-128.3838966209548
1698745585.175,0.01666666753590107,2.481004329818487,8.472033965632319,-1.054980250884965,-7.256375150078535,8.819790003204345,0.05536510967351496,-11.491310042662676,9.32674198618924,-114.08794185790292
1698745585.192,0.01666666753590107,2.804900183853507,8.947968639349936,-1.0466624313294888,-6.9415376317679875,9.023297582709043,0.03576243745051324,-8.970111342639841,12.959931341583292,-97.0448235389694
1698745585.209,0.01666666753590107,3.454418569585681,9.71981342806816,-1.2396084309399127,-6.294803908318281,9.509470157324522,-0.20096410556696354,0.12072391374509271,11.996283003474643,-69.59140409466924
1698745585.226,0.01666666753590107,3.760077925184369,10.56391447470188,-1.3604232603192328,-5.987748129925132,10.208127581289597,-0.34865663967356086,13.194576514103558,9.785880108802191,-45.64654695907249
1698745585.242,0.01666666753590107,3.7977421776682134,11.101629020506143,-1.3666707764066754,-5.948840599381923,10.665569882113672,-0.3745432144716382,29.976761116175087,7.563760878382229,-22.427728686964343
1698745585.259,0.01666666753590107,4.767441196304559,10.708514668816328,-1.4481693483114242,-4.979638424351811,10.259902849777601,-0.4665714367624372,49.23604359434597,2.8191853393585045,4.070484533041303
1698745585.275,0.01666666753590107,5.678060833984613,10.270523064523935,-1.5536075987301765,-4.0711902854919435,9.86441026118174,-0.5750577496401965,54.92597024846553,5.717009207952304,17.436158139627327
1698745585.292,0.01666666753590107,5.981476794570684,10.279413642466068,-1.3543325422286987,-3.7725130438655614,9.946711491238885,-0.395492698193714,52.46017292034796,14.395395487178083,29.96887907787289
1698745585.309,0.01666666753590107,5.74729628277421,10.672036995768547,-0.981903251171112,-4.016871250805258,10.498275424702744,-0.08679032163731754,44.09808501762266,24.88285042940918,56.19909701918839
1698745585.326,0.01666666753590107,4.810127660864591,11.2074169611454,-0.5693360840577631,-4.9612329990893596,11.222221829748793,0.2617156575191766,36.420839692407014,24.70963170941578,85.50134621897345
1698745585.342,0.01666666753590107,4.164845305266976,11.12520629544854,-0.3912672625184059,-5.606919843834638,11.410315925498772,0.38441885792836544,29.49159911905074,16.750010995986184,121.12033194810473
1698745585.359,0.01666666753590107,2.748862654811144,10.684235967606305,-0.2461866644758731,-6.998698611882329,11.463437402697652,0.4942521284356713,24.453665247627676,1.4743030558147165,163.10562771957817
1698745585.375,0.01666666753590107,1.4441267949223517,9.943404741311072,-0.09776946935653685,-8.257600356835127,11.169100016906484,0.6401487190362065,24.903289770500447,-3.0552695473595257,183.04236251057677
1698745585.392,0.01666666753590107,0.7918956431001425,9.186128576171397,0.03710544955730438,-8.83684752098918,10.89481436228007,0.7706330017756671,25.771987380088518,-0.7209154745591504,193.80995083142676
1698745585.409,0.01666666753590107,0.06223404559493065,7.818124651464819,0.06328391997404396,-9.428067447009681,10.186430530603229,0.7673401707753539,24.384227836978035,9.189322848956815,196.81412757558684
1698745585.426,0.01666666753590107,0.05722060134708881,6.126496675401926,0.10379114079885184,-9.30147169614136,8.983492957195638,0.7540229354973882,22.037716347620155,22.081212699802087,196.30023780281343
1698745585.442,0.01666666753590107,0.004805938977003097,5.022539408445358,0.2065197304001078,-9.20001798531413,8.357708206011354,0.77063333056923,18.956006711096684,35.10716891877095,195.7417468947598
1698745585.459,0.01666666753590107,-0.14738251830935478,3.5513206084579227,0.4007657066931948,-9.109187375310063,7.512555019976198,0.8069957066742702,17.54864110997368,49.6551098508721,198.31543047591234
1698745585.475,0.01666666753590107,-0.6062532445013523,2.586491533945501,0.7407073076546191,-9.35264951019287,7.013814347949624,1.004815431534592,20.44380461988576,54.50481736914796,203.20404275170057
1698745585.492,0.01666666753590107,-1.0317816730618476,1.9469559053063392,0.9265233092546462,-9.53071884318888,6.838289438739419,1.0419259682589677,24.845315124825376,52.54139752995775,207.81857319647455
1698745585.509,0.01666666753590107,-1.7121756740510463,1.0786720190525054,1.1762041725218295,-9.834331787651777,6.573728401726484,1.1034270325373858,29.18596181407101,41.90340180332499,207.01519268591932
1698745585.526,0.01666666753590107,-2.107684227401018,0.23880700255334375,1.2394903575181961,-9.924563847240805,6.157437172588706,1.0482103548912332,29.33374320204799,29.556110255761514,199.15712834771134
1698745585.543,0.01666666753590107,-2.5584400361984967,-0.23441607411801813,1.325707920768857,-10.066718401768803,6.067654610332847,1.0428234194221906,26.16369360634687,18.23662386695426,184.16137972305665
1698745585.558,0.01666666753590107,-3.3057653006881473,-0.38446342772245407,1.5644307521700858,-10.420911194390058,6.354060399407148,1.1938082913387567,16.391726592883995,13.349474105422045,160.5942081428995
1698745585.575,0.01666666753590107,-3.7258161746203897,-0.6796721164554357,1.5745675307810305,-10.562468367546796,6.338797363823652,1.1602893950313329,5.430627060016485,13.396844028637023,148.15004060724314
1698745585.592,0.01666666753590107,-3.9899721379637714,-1.037698788151145,1.5293419031322002,-10.55304119850993,6.235846692436933,1.0911563471702859,-6.570053304623176,15.709684392934033,143.76855621695
1698745585.609,0.01666666753590107,-4.567199778988957,-1.2156097157150507,1.4522142397880553,-10.750713642120362,6.382792572894692,1.0063120815668254,-18.785257104488245,23.652984369341883,147.45946750101984
1698745585.625,0.01666666753590107,-5.148757558172941,-1.3954630095183849,1.4483026193022728,-11.022754221233726,6.444741956329345,1.0036192622862756,-22.262308335455806,28.253844190492078,155.80538493088514
1698745585.641,0.01666666753590107,-5.713959830361604,-1.8762731803178787,1.3899953917622565,-11.250353601074218,6.20606939381063,0.949000769728981,-21.274261707858223,28.060724006804552,164.85232565640388
1698745585.659,0.01666666753590107,-7.090429970118403,-2.4700837073534725,1.4739210446834563,-12.13740414711833,5.9268444561511275,1.038035691955313,-16.26388252709428,25.815965260606937,170.719143964743
1698745585.675,0.01666666753590107,-8.441693772426246,-3.1586569231450556,1.6557622974336146,-13.103165826305746,5.458330287823081,1.221490773110278,-12.498297638602349,22.916488486233995,170.48118017405977
1698745585.691,0.01666666753590107,-9.258471343326567,-3.8148049561500548,1.6870920861989258,-13.535469155828654,4.9993923416137696,1.2539623523218557,-9.242581249009989,18.341663638652598,162.04775436054825
1698745585.708,0.01666666753590107,-10.471899038827418,-4.6774552204310895,1.7732570424795149,-14.282310436193644,4.348318543133139,1.3413508955806492,-3.9183719513568875,12.675976472123768,131.82344328318982
1698745585.725,0.01666666753590107,-11.278328818714618,-5.15552924426496,1.9835317780315875,-14.812026384459434,3.9817058293998238,1.5427630006434394,3.2868889460774744,10.983669892979817,97.0876693156329
1698745585.742,0.01666666753590107,-11.586615015685558,-5.3179146859169,2.0725579689621925,-14.933682340838015,3.88803444301188,1.60561042889636,11.175698953947434,9.588278467245491,56.77053796590834
1698745585.759,0.01666666753590107,-11.291429123306274,-5.5335331205844875,2.151389513614774,-14.53040987548828,3.7080192366451024,1.6288045132074505,17.618776907465957,3.595049152181878,11.966166991876763
1698745585.775,0.01666666753590107,-10.949184542632102,-5.417248335850238,2.036356774768233,-14.186243679101764,3.822492003521323,1.4715352455254642,18.48634924338827,-7.1648872223635935,-9.36187562550614
1698745585.792,0.01666666753590107,-10.599252330064774,-5.342444731539487,1.9782278264045714,-13.879784697557985,3.8801036500126123,1.3839975761195644,15.474976894937592,-20.69794571361818,-24.57212975613967
1698745585.809,0.01666666753590107,-9.565086976736783,-5.579175512340664,1.7786616780020295,-12.962506186510621,3.6007273211836814,1.180939530480653,8.510904064361544,-37.999514975650406,-45.261163780438274
1698745585.825,0.01666666753590107,-8.455554539996385,-5.983738309761882,1.4490075527012347,-11.98956277912557,3.1459792278796432,0.8750801953304559,6.2467283710140515,-51.30466200713271,-63.505459657377756
1698745585.842,0.01666666753590107,-8.150718191218376,-5.504425099521875,1.2970792076557873,-11.938087443432211,3.526209548076987,0.7737755375850945,13.892278630273067,-73.95349074771954,-89.85439653175183
1698745585.859,0.01666666753590107,-8.322177166163922,-4.723502101334929,1.3454700213372706,-12.35767040759176,4.20122477863729,0.8613136453824117,27.81572170618161,-97.05227527535388,-112.96463528662429
1698745585.876,0.01666666753590107,-9.410113857167959,-2.6929028671801087,1.6281190882265566,-13.74915106947571,6.090100250896811,1.1786945645654574,44.582608392059605,-119.05813391313781,-138.14401837884958
1698745585.891,0.01666666753590107,-9.586705518826841,-1.0269704733878373,1.9681459928512572,-14.41249515146464,7.501182854351401,1.5773290313836186,47.60359081667249,-136.70870876628476,-171.5763600263363
1698745585.908,0.01666666753590107,-8.985648089402913,-0.43139001407027244,1.8893699777781963,-14.224700251007079,7.8534309426456685,1.5987275557811371,23.07402167679846,-137.8265921673624,-192.84070600706696
1698745585.925,0.01666666753590107,-7.671091677245498,0.19197686231732367,1.4346815057069062,-13.344831140899657,8.189965913501382,1.3286315987963695,-20.173627949529443,-126.41663821545104,-207.8400609716034
1698745585.94,0.01666666753590107,-6.644520432308316,0.4905810387074947,0.8932488161623477,-12.752864195904134,8.160785411724447,1.0559919486781582,-67.93868273063374,-103.05579981993083,-215.9277562697072
1698745585.958,0.01666666753590107,-4.899084878212213,0.6057528937637806,-0.10746084228754042,-11.565640032196045,7.773823152923583,0.4809344182336703,-115.40387342415426,-57.81358981443933,-220.9450902905935
1698745585.975,0.01666666753590107,-3.4738989306032657,0.878347015106678,-0.7905461281873285,-10.537627940800785,7.622687419560552,0.09711334353536367,-133.61308944951656,-20.35930664211624,-223.00514364616106
1698745585.991,0.01666666753590107,-2.653766788578033,1.356685827356577,-1.1591632405456156,-10.097693385747075,7.640943791741132,-0.033819559754431246,-136.68103283976785,13.1992475097222,-224.8707551764367
1698745586.008,0.01666666753590107,-1.5960931338906288,2.3790789098262786,-1.3864977589048444,-9.520541148045659,8.004862444084882,-0.07347323248982429,-116.72610242482035,43.59171528312542,-224.55091107798333
1698745586.025,0.01666666753590107,-1.5456798744708298,3.9209558848828077,-1.1341511835597455,-9.800964355579017,9.038560179901122,0.21892010656148195,-91.56696401329498,55.800866254725385,-220.98708229361074
1698745586.041,0.01666666753590107,-1.1311270134329796,5.186150007978082,-0.7956393596731126,-9.772832486072183,9.632173138538002,0.517445957018435,-63.15122555645338,55.16474000147083,-209.23298243017913
1698745586.058,0.01666666753590107,-0.693659140753746,5.652525410711765,-0.6915456557311117,-9.574560907524823,9.616161038152873,0.5692208601802587,-53.15126170585361,44.823075447073656,-195.61753307451397
1698745586.075,0.01666666753590107,0.11098317119479179,5.831306106847524,-0.7054186251956969,-8.965984773033856,9.335740168707073,0.5184934933099895,-50.7717296669533,29.089543448652528,-181.50214119236057
1698745586.091,0.01666666753590107,0.7208253800988197,6.091167003345489,-0.8283914363265037,-8.558671215599775,9.017311347906292,0.39594029583074153,-50.042374746622656,7.243952638422015,-167.85807334407303
1698745586.108,0.01666666753590107,0.8819237045496702,6.629753655809163,-0.8725592254854738,-8.515575001195073,9.136273242895305,0.38232349308431146,-42.79614167879151,-4.421907584235391,-164.2236340640609
1698745586.125,0.01666666753590107,1.0864543434917926,7.261665657702088,-0.9800129073798656,-8.406041444286704,9.352200743512064,0.32097280619516966,-28.359131556547826,-15.326264893686197,-163.17678463035136
1698745586.141,0.01666666753590107,1.1687100173741578,8.330915768414735,-1.1247126163460313,-8.415915772569178,9.875183730261027,0.2611161572560668,-6.490225895585475,-27.904773712580237,-160.68825984777058
1698745586.158,0.01666666753590107,1.279498542779684,9.113247464355826,-1.1927755142249166,-8.349328207939863,10.259303824438527,0.27099253136515616,6.856576325210626,-34.0847237509659,-156.2247448855456
1698745586.175,0.01666666753590107,1.9259698159009218,9.806550631278753,-1.5229263370014727,-7.729678890770673,10.454879880291596,0.06404416375681758,18.529261614396166,-41.213740527355874,-142.7513907853734
1698745586.191,0.01666666753590107,2.8011072213113306,9.951295786821841,-1.891941874092817,-6.853101807945967,10.265289620849861,-0.1984215084120631,25.41336317507512,-45.01442661176615,-130.36709668798136
1698745586.208,0.01666666753590107,3.44058118289113,9.902593422973155,-2.216780708066374,-6.198436706975102,9.91394055804633,-0.4113546495184302,32.3042232079378,-43.913529891154326,-121.33698554857754
1698745586.225,0.01666666753590107,4.35818410358727,10.593365025591849,-2.416482465547323,-5.24823967666626,10.230873410376534,-0.47854105682373044,33.286479542666505,-31.47136701601937,-115.48248890150111
1698745586.241,0.01666666753590107,5.350511133617163,11.689460473132133,-2.361515488345921,-4.2292058414965865,11.060313552038371,-0.3606276479743421,23.753458159580063,-15.218668923690986,-108.08589946437588
1698745586.258,0.01666666753590107,5.8805275261342524,11.988099720835685,-2.3178490728378294,-3.6758471518367526,11.120168666607514,-0.2947869561895728,7.773992393487929,-0.37954835613359883,-88.25718411510104
1698745586.275,0.01666666753590107,6.82456018859446,11.884591415566206,-2.384673076571524,-2.7142741565108297,10.7969518078126,-0.38516909177377817,-13.99204122706392,13.728216632635714,-40.01518234689662
1698745586.291,0.01666666753590107,7.000108478680253,11.48360589210987,-2.44484551346153,-2.5430910758972165,10.346543278082832,-0.4942535897403955,-23.823134626850656,20.36681643510867,8.896189059026439
1698745586.308,0.01666666753590107,6.7792842920631164,11.247978104114532,-2.4742834971308705,-2.7852041342586276,10.18613067087382,-0.5865798451296985,-25.1602022134886,23.841639316859514,60.95299747397648
1698745586.325,0.01666666753590107,5.8178299546808,10.914599551463127,-2.507416535925865,-3.7910681067317724,10.145429242651163,-0.7052426110416651,-13.600473312136259,22.171144093056352,119.76089207684042
1698745586.341,0.01666666753590107,4.259501611039042,10.611243212109803,-2.5084359421014786,-5.379769376805425,10.18328803132642,-0.7558193904601037,2.6240137510424475,15.938538418811772,151.79510766160385
1698745586.358,0.01666666753590107,3.3741432558655737,10.287351449728012,-2.443122635191679,-6.279990370067954,10.274717108405492,-0.7203561551518738,19.639471297941306,8.334636518677378,171.8862593693581
1698745586.375,0.01666666753590107,1.690898492744565,9.864325943899154,-2.205577761528641,-7.947102329033613,10.47268766845446,-0.4999404032051563,36.62474474479399,0.6069051031596513,185.166442059424
1698745586.392,0.01666666753590107,0.426006567466259,9.408535648065804,-2.0157750283800064,-9.169792358398437,10.504859132208303,-0.31603520366251464,43.96068210208951,-2.811906065250563,188.08857457127388
1698745586.408,0.01666666753590107,-0.05441022010147571,8.77964679338634,-1.9047183535575865,-9.58309083546102,10.365845725250244,-0.2139827962897718,46.854424932654226,-1.8435784072302195,188.02703456685208
1698745586.425,0.01666666753590107,-0.6243623171657323,7.76362792212367,-1.6670657817363739,-10.029608860558271,9.996390481567381,-0.015862316650897264,44.78465221789775,8.819520185593046,187.78508194569355
1698745586.441,0.01666666753590107,-0.5820370871335268,6.29579291935563,-1.53346877380386,-9.8714419133842,9.008033524212241,0.05431669659912586,40.14530769586912,21.26637283936686,190.54507942702566
1698745586.458,0.01666666753590107,-0.6369090795278549,5.325355649572611,-1.4129505892835557,-9.788543849945068,8.518270523889361,0.07811039077118039,34.96977283342698,35.22537558764178,195.85512803498204
1698745586.475,0.01666666753590107,-0.7991723561048507,4.095847172364592,-1.1544565972246228,-9.726741766026615,7.93573045566976,0.15861571385487913,28.96061338278478,53.2663538084629,205.91154339907197
1698745586.492,0.01666666753590107,-1.2199030289947985,3.2335856151401994,-0.8884744413673877,-9.941622534069419,7.5676228272035715,0.2596203657403588,26.710815664526987,63.810803264223175,214.52580530104873
1698745586.509,0.01666666753590107,-1.5835609845757483,2.559038294352591,-0.633046558880806,-10.06178152988851,7.392097333471477,0.33219467662908136,27.44378717002315,69.1875554996139,222.27955899025227
1698745586.525,0.01666666753590107,-2.2963901052236557,1.5558914718836545,-0.2562627258755267,-10.38724214902222,7.051221995323896,0.4577399685963988,34.215176949018556,65.01167346371648,228.99422234064343
1698745586.542,0.01666666753590107,-3.2295190963536498,1.0639753851801157,0.07715447828583419,-10.986840027287602,7.039999759563803,0.6076782723357901,43.39640602380891,55.29356419940645,227.631845488036
1698745586.559,0.01666666753590107,-3.7944337837725874,0.5882973165720701,0.30253333253264425,-11.195884928783773,7.011867890056967,0.6584044701622799,53.388955704064635,41.911488747302286,217.9984373996233
1698745586.575,0.01666666753590107,-4.542974853792787,-0.09709551561772822,0.6443430289208889,-11.464932755821943,6.8483139891475435,0.7790125888552051,62.78344719040488,26.2449779801119,194.17446436705202
1698745586.592,0.01666666753590107,-4.827385085135698,-0.780408034402132,0.9037275400787591,-11.40807105091512,6.4903808409541845,0.8797186756359296,64.41733089270947,19.564614132185255,172.92073250029156
1698745586.609,0.01666666753590107,-5.155680635434389,-1.1871253795087338,1.1260165385514498,-11.419293871197103,6.356455185589194,0.9473548839517868,60.63755884753778,21.097090015882678,154.86120690077925
1698745586.625,0.01666666753590107,-5.64011308838427,-1.5696435183823108,1.5595026481181382,-11.507131144604086,6.279093713489175,1.177647101339139,49.556785862675184,31.04968821213571,140.17837656275952
1698745586.642,0.01666666753590107,-5.994643734657764,-2.108778452378511,1.7846861989885567,-11.568034233856201,5.943006486400962,1.25890035671331,39.76769385741579,37.67615332977449,138.26672955747802
1698745586.659,0.01666666753590107,-6.429933678776026,-2.4841046339213846,2.0066022724956274,-11.700014015850424,5.7598500593990085,1.3479348040156065,32.30462618909883,42.00826228255761,140.21612018811302
1698745586.675,0.01666666753590107,-7.488919000583887,-2.7169956904292105,2.437393736150861,-12.332681220024824,5.7701738850146524,1.615038218987733,29.465821985123114,43.96705808367972,143.8487972793193
1698745586.692,0.01666666753590107,-8.712572322022915,-3.1016788983821866,2.8874714995563027,-13.220182432445883,5.556193280681968,1.9424449306879192,33.58983556446345,41.865275687377974,144.52527287509574
1698745586.709,0.01666666753590107,-9.339826268976926,-3.572173426872492,3.115157973158359,-13.513321913689374,5.237015687340498,2.042552706798911,38.78292742816711,37.00112231900754,136.4037818009787
1698745586.725,0.01666666753590107,-9.908695831501483,-4.637012150883674,3.5294179887294765,-13.680168134142457,4.32871601704061,2.2795786711543795,47.06773857062289,27.753109362060105,110.84720834202864
1698745586.743,0.01666666753590107,-10.482412249535322,-5.254798012268543,4.044416260334849,-14.016254484447837,3.7865783940970896,2.653074276269227,52.91289493400933,22.383037051677658,81.39062418775796
1698745586.759,0.01666666753590107,-10.747371345955132,-5.451399611777067,4.408667505633831,-14.121000807079673,3.6273628146529195,2.8707966974787413,54.673068834067465,18.4342058717171,46.931220164587266
1698745586.775,0.01666666753590107,-10.850065996754168,-5.354024694696069,5.028060802215338,-14.133719711138307,3.725526836284995,3.31058205332011,45.219062494394315,12.189098389970457,6.182768772078759
1698745586.792,0.01666666753590107,-10.683919156742096,-5.0632852603316305,5.233592727154493,-13.972559719628094,3.995620957505703,3.4193678606010973,29.69563052993736,3.2059819402640883,-12.463980206891266
1698745586.808,0.01666666753590107,-10.366960993015766,-5.165741426199674,5.166963661471009,-13.702315084020793,3.867233647045493,3.3092348764948545,10.168142744759356,-13.589084825468909,-25.283891816715652
1698745586.825,0.01666666753590107,-9.521223285090922,-5.523155518954992,4.726164598542452,-12.98570030735433,3.4700948621451855,2.9125461734496056,-16.774929233625684,-42.201874239865376,-47.74682329866224
1698745586.842,0.01666666753590107,-9.068021252185106,-5.182867917567491,4.237326604110002,-12.696750679016112,3.7663784866333008,2.530371002794802,-32.09864475920418,-61.60458386041736,-72.81408542056718
1698745586.858,0.01666666753590107,-9.08593860166967,-4.498188202083111,3.95474534175992,-12.946196272222696,4.382286279186606,2.403627660149336,-42.8953809123372,-76.368884694857,-100.73785901187111
1698745586.875,0.01666666753590107,-9.112011200559138,-2.9090953023433683,3.376035937744379,-13.375656487274169,5.828384081920981,2.0922325373776256,-55.79506059393088,-85.46550138620923,-134.7317241714029
1698745586.892,0.01666666753590107,-8.811529539859295,-1.6051678362280128,2.779500369659066,-13.430423265728354,6.981940369305014,1.7317554037898777,-64.82722420518029,-85.84740458346133,-156.16439333403935
1698745586.909,0.01666666753590107,-8.382649462783336,-0.771351452243328,2.4002596450209617,-13.388524736675619,7.624484824371337,1.6118954639825969,-74.6610437042195,-80.2938802221615,-173.55794816871872
1698745586.925,0.01666666753590107,-7.582998383250832,0.585790886709094,1.7528998986274003,-13.12591015755534,8.665063551872969,1.3383583261685446,-93.24884345489725,-65.32229680679032,-187.87058225372377
1698745586.942,0.01666666753590107,-6.179140470352769,1.0239806439220904,0.9672773444473742,-12.121992642974853,8.82397927158773,0.8536812416746746,-112.17600115448711,-51.34823519894281,-193.0724953067405
1698745586.959,0.01666666753590107,-5.1766532808363435,1.1155939287364482,0.38563130245804783,-11.508029554748534,8.601918821173905,0.5831373582593165,-127.89232790638897,-36.82565134413533,-196.8993956571853
1698745586.974,0.01666666753590107,-3.731277947157621,1.2899223216384648,-0.3524082838246599,-10.56591003243327,8.297104684227705,0.24555497897621242,-134.5343180440112,-18.6114100070912,-203.45113167511496
1698745586.992,0.01666666753590107,-2.818100441688299,1.7700778279215097,-0.7454618087053299,-10.017938296508788,8.372672258648276,0.1138733396783471,-127.56054463726643,-9.435855965727487,-208.96575810909155
1698745587.009,0.01666666753590107,-2.324166585421562,2.357637477868795,-0.9865468391932547,-9.875331906560064,8.522010587200523,0.08619104056991636,-112.75855481898667,-2.6823617092443395,-213.38822363440477
1698745587.025,0.01666666753590107,-1.6222347063630818,3.3626480483829972,-1.166382158948481,-9.611670448735357,8.904184442681073,0.110580874004215,-84.0576627944862,-0.029895844718851594,-216.14863092708708
1698745587.042,0.01666666753590107,-1.2951321652412413,4.15446770363748,-1.181316254838556,-9.581744681549072,9.213786398425698,0.19916735834330318,-57.16286403183388,-5.329670033894527,-213.36438627420142
1698745587.059,0.01666666753590107,-1.319760410541296,5.371512420591712,-1.05333650226593,-9.945064198955892,9.797521813909709,0.42482071868255733,-23.383728066976225,-17.092401548889754,-202.08415127500695
1698745587.075,0.01666666753590107,-0.9030366352051497,5.772843396484851,-1.1143594185054302,-9.735272278484702,9.743502931213378,0.4334994074396789,-7.969702072644536,-29.838323426982683,-191.79699846037565
1698745587.092,0.01666666753590107,0.18283493996262548,5.20168835337162,-1.3722691809356211,-8.817844129833578,8.73389801864624,0.2653060101613402,-3.4068849110674315,-42.464344749290625,-183.2284441843246
1698745587.109,0.01666666753590107,0.648826311814785,5.317906502610445,-1.5439268933236598,-8.487743575939536,8.42070651397705,0.2070975668206811,-5.974960693467945,-49.369474754876755,-179.02436712753337
1698745587.125,0.01666666753590107,1.2371943555355072,5.700202523165941,-1.7731237714886665,-8.041524241527915,8.224680960790813,0.15113368753641843,-12.348496222178337,-52.797929189899676,-177.66802816215224
1698745587.142,0.01666666753590107,1.3357085057795046,6.211359901434183,-1.9703053628422318,-8.021770908787847,8.298452299444376,0.09172712045237422,-13.23678622940059,-53.50245637259732,-175.68921307657283
1698745587.159,0.01666666753590107,1.2826684049874544,7.4626435725986955,-2.024485865841061,-8.143426280644535,8.975113835906981,0.21861907778829334,-8.64728415906648,-52.52255986822686,-169.7026342313267
1698745587.175,0.01666666753590107,1.3575421519249677,8.190345268207787,-2.13651401604414,-8.094196678051352,9.289951646478473,0.23537805101796982,-4.168044820711649,-50.11608273305085,-161.8674373664599
1698745587.192,0.01666666753590107,1.7297189295262096,8.885554561012983,-2.313368128031492,-7.727434911236166,9.598953444372862,0.1813593144521117,-0.6507262094922779,-48.86309136000118,-148.99173847904217
1698745587.209,0.01666666753590107,2.112747940531373,9.069200232836604,-2.5533245928809047,-7.331494980731606,9.435100122125446,0.06254734932780265,-0.09684498543734635,-49.12407630328195,-131.87095407905642
1698745587.225,0.01666666753590107,3.0960411847561597,8.805648080605268,-3.06136062425822,-6.310966523090005,8.78058535972795,-0.2904474656805396,-5.961968819892934,-44.638687660239995,-104.69435537162771
1698745587.242,0.01666666753590107,3.997649248462915,8.393533260369301,-3.621785599042475,-5.3749815580070015,8.127267191270459,-0.7489376681223511,-12.493111817475016,-37.869710645568894,-87.34616665341557
1698745587.259,0.01666666753590107,4.407999981635808,8.908856526145339,-3.8931384881526228,-4.923377607947588,8.374618168551661,-0.9249111978828907,-13.35667739367547,-21.11102189424221,-68.92121227292924
1698745587.275,0.01666666753590107,4.386060537028312,9.39170200216472,-4.050849215991795,-4.923973235753178,8.701127894879505,-1.0480632380381225,-6.336752398708935,-8.39171982466576,-52.972245862802154
1698745587.292,0.01666666753590107,4.446750275790691,9.91890392178297,-4.129494298161566,-4.8524470456779,9.123255940411985,-1.1191402230411767,3.864953895631864,1.7493172076506949,-34.86842307142774
1698745587.309,0.01666666753590107,4.864988547343016,9.981889662528037,-4.27518053394705,-4.433761030358076,9.123405504950508,-1.2807494196236133,14.53395782732284,9.375268772694888,-10.914234189877467
1698745587.325,0.01666666753590107,5.014655377197266,10.145721795856952,-4.277077015218138,-4.292801823094487,9.294141572448984,-1.3078338259041309,17.229874473861894,14.747978389870605,6.06809203034836
1698745587.342,0.01666666753590107,5.093925313267111,10.480888985490799,-4.220350334867835,-4.230552579930425,9.679608405060321,-1.2907748468145728,16.27607782985734,20.803673626875394,24.814855896221705
1698745587.358,0.01666666753590107,4.856881228733062,10.705630637812614,-4.104015865772962,-4.4927182462394235,10.004770625769346,-1.229273791669309,15.694978995650995,26.54922875669012,48.34827951168981
1698745587.375,0.01666666753590107,3.7304590319901703,11.385023937326668,-3.7772830347463486,-5.661539322772621,10.92294652404785,-0.9938938409551977,23.506908821110112,30.838819781889907,88.51503741664736
1698745587.392,0.01666666753590107,2.3523323571979997,11.503871266025303,-3.467449316072464,-7.070675468334556,11.32367591731865,-0.7573164971500634,37.416455877152266,30.55914744103998,123.23998553436981
1698745587.409,0.01666666753590107,1.3182283786684275,10.618794065880774,-3.150784290073812,-8.128764133563637,10.95676476862803,-0.5410901597172022,59.57256843139271,30.229372247533423,161.9994376023596
1698745587.425,0.01666666753590107,0.9227946441203355,9.759473822805285,-2.9378219228729603,-8.519767192187905,10.566360406549274,-0.41644232804626224,73.32113134379225,34.09214133640453,180.16842381351051
1698745587.442,0.01666666753590107,0.2071118876069784,8.710354061451554,-2.4273262233838437,-9.208847772979736,10.02437285960093,-0.022446955738216638,82.9304971663265,43.41115923241613,189.1481144964613
1698745587.459,0.01666666753590107,-0.35577684694230555,7.6655854810446495,-1.7791954926177858,-9.702651865386962,9.672275577954203,0.40701413609609005,87.89477427774015,60.50514197009874,191.42233526364376
1698745587.476,0.01666666753590107,-0.5202198056459426,6.889263839173316,-1.3487037425614892,-9.790787244957684,9.408165061187743,0.6215932908438145,86.1661080403233,74.29859288572361,190.3366357139352
1698745587.491,0.01666666753590107,-0.5512859750390052,5.719172596573829,-0.7274199560582637,-9.722553082165122,8.737489613397418,0.989552743010968,81.73845157124086,85.08357086820045,190.85883099673936
1698745587.509,0.01666666753590107,-0.681969287481904,4.411268043521046,-0.09253215322494507,-9.676315062603354,8.081627703857421,1.2493233308769762,76.05469599303642,92.5563237447605,194.8556801141124
1698745587.526,0.01666666753590107,-0.9009545682340859,3.7650931229978797,0.2913514287829399,-9.72315163258016,7.916577134649455,1.3422482097465545,73.02439377530105,91.60873062006961,198.95003701207656
1698745587.542,0.01666666753590107,-1.3542922102183104,2.8552205042928454,0.8419464989483356,-9.88939842583537,7.637503295898437,1.5143320385921746,71.2443576851365,82.99544543514416,202.94817020501355
1698745587.558,0.01666666753590107,-1.8491273992389439,2.1772744809776543,1.2550643587470054,-10.130015692681074,7.414692319378257,1.6633709823390468,68.58476398460358,74.15129985627227,201.41749749125702
1698745587.575,0.01666666753590107,-2.2372177852869033,1.6929747144967318,1.6004209339618682,-10.24000050048828,7.358579387012123,1.7640766330116426,62.84648983644409,67.862321215713,196.5116867991387
1698745587.592,0.01666666753590107,-2.9940988136291504,0.9513462003439664,2.020844148337841,-10.601225091442465,7.138910215649008,1.8941123773991595,46.86012814061119,61.914517354385026,185.97322400418594
1698745587.608,0.01666666753590107,-3.596027765190601,0.5257306780219078,2.166777052360773,-10.89840478798747,7.064091413769125,1.8577505218839272,28.658227247849975,60.822014936263145,175.80405587727742
1698745587.625,0.01666666753590107,-3.9394367134690285,0.12437456768751144,2.2785797232449054,-10.93701187427938,6.979696389770507,1.821537235393375,7.279904192892023,64.23887171007539,165.10787035401074
1698745587.641,0.01666666753590107,-4.260862962520123,-0.392630367565155,2.2424299669772387,-10.956165487560629,6.750152305603027,1.6732471007198095,-15.787189964540753,70.32593629839074,155.277042477828
1698745587.659,0.01666666753590107,-4.717414890375733,-0.8357324467390775,2.1209569659501315,-11.012878139385581,6.653934157341718,1.4558233701959251,-40.05668940648279,79.88160317367037,146.92941750067018
1698745587.675,0.01666666753590107,-5.094416311654448,-1.0675357080101966,2.0818793395370245,-11.08410446973145,6.665007340019941,1.3735227611932903,-48.99411146375495,85.36425749214213,145.69175990230718
1698745587.691,0.01666666753590107,-5.651982389876246,-1.159410858631134,2.0358400574177504,-11.324722321099042,6.80596596276164,1.2988535969171673,-49.05629009086416,85.19454778183483,147.25445254289275
1698745587.709,0.01666666753590107,-6.6947045591473575,-1.248110301825404,2.2174708822876212,-11.91893383015096,7.015159917339682,1.4453491032589225,-34.90347560224825,78.31927253311082,154.53413646218402
1698745587.725,0.01666666753590107,-7.412510299164056,-1.5585007775992155,2.3550036222338675,-12.277016323687135,6.918045112499594,1.5456063708432017,-18.51762809469234,65.95840598457194,160.01580040322614
1698745587.742,0.01666666753590107,-8.447360712146759,-2.343103925603628,2.5839456488549706,-12.81062401869446,6.3961079815417525,1.7130509225156156,-0.8800719022685528,43.2301353137487,160.5243762888253
1698745587.76,0.01666666753590107,-9.114865420946478,-3.5647365548700094,2.7475071485489604,-13.107056404003501,5.345353896984458,1.8293192675717174,8.541878972247552,26.717043089502745,150.33423948116484
1698745587.775,0.01666666753590107,-9.487857606583834,-4.214919541990756,2.854519662547111,-13.145214285223185,4.832695466503501,1.8876774215813725,16.47864928780887,12.492509053280763,128.37759918654004
1698745587.791,0.01666666753590107,-9.942368968522548,-5.187803035882115,3.145535575765371,-13.249809801207482,3.984997272160649,2.101060863738507,28.822243995484076,-1.3542593862222747,88.76768611404613
1698745587.81,0.01666666753590107,-10.458519332772493,-5.328773933583498,3.4907740775585174,-13.590984414562582,3.896563201904297,2.3722043478816746,35.057127537816854,-6.8601280235790325,57.36127419703357
1698745587.825,0.01666666753590107,-10.672319904363155,-5.183800229981541,3.7069501461088654,-13.699472261810302,4.066999263542891,2.511367100182548,32.9978050124905,-9.656979925012065,32.898705797822785
1698745587.842,0.01666666753590107,-10.910289287048577,-4.834739539551735,3.891523454171419,-13.873350865118205,4.427028507232666,2.6225474744498727,18.83394781553397,-16.512866828003343,11.15367927783696
1698745587.859,0.01666666753590107,-10.584806456083058,-4.954560681718587,3.677435297811031,-13.545046254730224,4.306868926891684,2.399438391765952,1.0896081254610865,-24.37172176060774,-3.7939374306234797
1698745587.875,0.01666666753590107,-10.173221212679147,-5.247025040179491,3.4600621284306046,-13.174094050487875,4.007444081768393,2.2272055098384618,-20.84851723387111,-30.918391485720555,-23.32925389325079
1698745587.892,0.01666666753590107,-9.336174176210164,-5.464938892307877,2.8097032002210613,-12.479775276781618,3.7606905041247605,1.7253208406977354,-46.12253259704693,-39.911899641362275,-57.83787113693872
1698745587.909,0.01666666753590107,-9.213308259519934,-4.693688562351465,2.2575275828659533,-12.541875174602865,4.484189487347007,1.33147452147156,-53.36089728695422,-46.97189394109469,-86.86534865660335
1698745587.925,0.01666666753590107,-9.339177449679374,-3.7489854532837867,1.9927368287503717,-12.920907224926351,5.348945199474692,1.2382499290030449,-52.163899804720316,-52.36352574359228,-116.41616210066351
1698745587.942,0.01666666753590107,-9.228528625005483,-2.0671172392129895,1.566224649849534,-13.243826342883706,6.864475434875488,1.0423749267360194,-51.26639587230772,-53.15985749892407,-150.96260322442768
1698745587.959,0.01666666753590107,-8.465311379379033,-1.1717372562408446,1.1576695679217577,-12.860303703142701,7.588270186173915,0.8161225045250728,-60.3235272400681,-46.33424797074981,-172.2463196216445
1698745587.975,0.01666666753590107,-7.747920649904012,-0.6549421643465757,0.8022247294127941,-12.556839227239786,7.890539314812421,0.6628941462643444,-76.930565301253,-32.59972451218923,-191.0690368986357
1698745587.991,0.01666666753590107,-6.327071270194649,-0.004846270987391471,0.17910103239761666,-11.720514952087402,8.18398040935099,0.33488798909997564,-100.64408051456682,-6.854133251921877,-209.09208928798012
1698745588.009,0.01666666753590107,-5.264526794600487,0.5576292065858841,-0.2664367677569389,-11.107449104961752,8.424596507152915,0.10968443662114441,-115.11954630938497,16.141398452255736,-218.6803771467357
1698745588.025,0.01666666753590107,-4.438328484404087,1.0110638792037963,-0.5559925452947616,-10.73155944431722,8.5101892165035,0.01735693912282586,-124.20515956598432,38.71209153628491,-225.86025834187475
1698745588.042,0.01666666753590107,-3.169585144394636,1.7333727758586406,-0.9013958822607994,-10.0547485625118,8.673743117412924,-0.12928769336603582,-125.65695725520554,62.77904854857939,-234.07528202648595
1698745588.059,0.01666666753590107,-1.9974825619727372,2.3025953896045683,-1.0953566849369556,-9.312545463341474,8.776993064007163,-0.23373415626846253,-120.5042215642129,75.59593950724333,-237.4657606097236
1698745588.075,0.01666666753590107,-1.2498130140900612,2.8195149846613408,-1.1722013666212558,-8.969427022442222,8.801085302734375,-0.2784761651188135,-109.95733714601353,82.6051069542671,-237.09326941314777
1698745588.091,0.01666666753590107,-0.1961936032295227,3.481820371252298,-1.1890123622991144,-8.40184983781576,8.782529070824385,-0.32875527676492927,-85.76599555874394,79.95915314150669,-230.2580805446626
1698745588.11,0.01666666753590107,0.05518354256153107,4.483658741471171,-0.9888895298618823,-8.464997491124272,9.274238821300864,-0.19692410946115851,-60.92713154758964,71.34119610718895,-221.42950096690916
1698745588.125,0.01666666753590107,0.32671441858708855,5.177427187818289,-0.8076303878486156,-8.462604458507895,9.469965391540526,-0.10594466557092964,-35.796604798497455,58.66110700741119,-210.31644167783992
1698745588.142,0.01666666753590107,1.040035706666112,5.595266815441846,-0.6614180823624134,-8.040326556175946,9.252242093548178,-0.07496968159265816,-8.343374891946763,34.128351584289355,-195.23084874484286
1698745588.159,0.01666666753590107,1.5038357059538363,5.843108772844076,-0.6293441241662949,-7.75048027125895,9.04454539179057,-0.1013051692020148,6.650506102856756,15.681771117343484,-185.39849090628604
1698745588.175,0.01666666753590107,1.7657587956786154,6.253751766961813,-0.5788216322183609,-7.630768434685468,9.015216713714599,-0.07885912677925079,18.384734811558697,-0.35184484205576266,-177.0776402706747
1698745588.192,0.01666666753590107,2.098780205455422,6.622035044255853,-0.5794015144655481,-7.44461925560832,8.820388407488911,-0.06838460411392151,30.672279279357486,-18.345387799297544,-167.21129541080785
1698745588.209,0.01666666753590107,2.117990517359972,7.230936757439374,-0.512796377646923,-7.50761727131307,9.023746203259378,0.038455914318189025,38.75958525667859,-27.49317626791151,-160.57664089635423
1698745588.225,0.01666666753590107,2.0791911233663556,7.826202159458398,-0.47090369381308556,-7.607126277813315,9.23054507939443,0.14021006939671932,44.51198765113626,-33.36368117085516,-152.81721815013958
1698745588.242,0.01666666753590107,2.1668436878561974,8.710249432033299,-0.42702714268565173,-7.570913393181562,9.628281830187886,0.2826640452627092,45.431133037934046,-34.49804240330546,-140.45012246907766
1698745588.259,0.01666666753590107,2.6501725634783506,9.406606725829839,-0.419994248374179,-7.107335512211918,9.990554724618606,0.36765973856821654,38.94120340180382,-33.36393388785445,-127.86354548922654
1698745588.276,0.01666666753590107,3.0864965268194675,9.611279988113045,-0.5642273627419024,-6.677576314213872,9.898377997235208,0.3022664252247661,26.024873426560948,-31.25543058540942,-110.13666376267221
1698745588.291,0.01666666753590107,4.090892180305719,9.310642260068654,-0.8895404631637036,-5.668272430419922,9.269451472859899,0.07347125972844659,5.18965457100385,-24.398861517274785,-87.48109704046917
1698745588.309,0.01666666753590107,4.524602161756158,9.87271032588482,-0.9812439104795455,-5.2266912772029634,9.627982810708694,0.030076719964295624,-7.287372150975786,-12.19997802754464,-75.06349894068416
1698745588.326,0.01666666753590107,4.668299269551039,10.441729526013136,-0.9641641808629036,-5.07600621021688,10.018836633588,0.055664019554853436,-18.84043991034007,5.67595464839865,-62.009839474441726
1698745588.342,0.01666666753590107,5.2410108944565055,10.978645614916086,-0.8465420100450515,-4.50109853657186,10.380660542142204,0.10429645997248589,-33.906377266453106,31.452836712801126,-33.9839340644786
1698745588.359,0.01666666753590107,6.099056295290589,10.820786126255989,-0.865195345653966,-3.6490608517199754,10.165780102892965,-0.019303981537371874,-43.12687992897103,45.2280168723962,-2.888567895051375
1698745588.376,0.01666666753590107,6.384301223891973,10.745309152728318,-0.7494050664383918,-3.376421722191572,10.120290344415231,-0.036661870508268475,-48.5824969436133,51.88407719970865,34.7082209844451
1698745588.392,0.01666666753590107,6.517502072113752,10.652679968869686,-0.6129167209785431,-3.265691064453125,10.232518364571966,-0.08095474735163152,-46.826605572164766,46.138132749111236,92.69418428296804
1698745588.409,0.01666666753590107,5.739423941963911,10.423771844518184,-0.5797989528179168,-4.056974128612875,10.291626186171452,-0.15143424138557166,-34.91194845191365,31.783868661114965,135.53592430465855
1698745588.426,0.01666666753590107,3.9282162312746047,10.515347719931603,-0.3994985363015905,-5.863548334282636,10.919056202078425,-0.040701537820510565,-5.208838011061478,9.081579176120803,178.06219837915367
1698745588.442,0.01666666753590107,2.88171395894289,10.218113662850856,-0.30477676407787946,-6.877941650170087,11.109394686071575,0.04892988899424672,21.349532100059058,-5.885751592718408,202.01240696796512
1698745588.459,0.01666666753590107,1.0811521454304456,9.954760832583904,-0.14504209266304968,-8.61343916309774,11.385176497539877,0.22804789079297333,46.02795155251517,-16.771203365433443,218.6984634876579
1698745588.476,0.01666666753590107,-0.2301134084880352,8.98835910192728,0.12962711792085319,-9.779416540637612,11.183465884454547,0.533009473385848,72.010827853417,-22.833334348183673,230.02599071666555
1698745588.492,0.01666666753590107,-0.7616402055680751,8.331331363478302,0.25007483102083206,-10.159195609936118,11.104606575012207,0.65660925730858,83.88076089498287,-19.711874718238025,230.3173392659016
1698745588.509,0.01666666753590107,-1.4488438865721225,7.422782686853409,0.6244049872636794,-10.66153021480143,10.762983925628662,0.9983816538937389,89.04854349271704,-9.919581061805191,228.44680999942358
1698745588.525,0.01666666753590107,-1.7530559659719467,5.8829228968381875,0.9483540327906608,-10.671255490002036,9.953144921819865,1.2117644384637474,89.72761456037806,6.137663056573642,227.95432603950897
1698745588.541,0.01666666753590107,-1.870966890603304,4.740268234957754,1.108406647580862,-10.529997007530927,9.341575742992758,1.2481266684383152,90.01102642979856,11.961929713270417,230.30056432130004
1698745588.559,0.01666666753590107,-1.8469623301595448,3.003232552677393,1.1478431704342364,-10.212764703038335,8.120233621105552,1.1462236153988363,90.99051653791342,11.086426673948074,231.03929026117197
1698745588.575,0.01666666753590107,-2.069222102537751,1.621322267693281,1.2324082903027533,-10.003722139629721,7.381174080657958,1.0369881921963766,89.6856976894417,4.424620023109532,221.68638438159334
1698745588.591,0.01666666753590107,-2.3309897094398737,1.0343541538983583,1.3382885854005813,-9.930998848724364,7.222708442798257,0.9998776646051555,84.8040658669852,2.1520739329341887,205.13234175817857
1698745588.608,0.01666666753590107,-2.4010797292321917,0.3069616703689098,1.4516805713027714,-9.676015787395835,6.865822173309326,0.9751874965174123,75.65770490790776,2.3607929880255543,184.50974669148397
1698745588.625,0.01666666753590107,-2.6097996365576983,-0.2387526420176029,1.5527800618648528,-9.578152210015057,6.634930766186118,0.9487016041193157,62.20505994129903,4.755666912462179,164.87105403510805
1698745588.642,0.01666666753590107,-2.879880898296833,-0.7024094334423542,1.6413988410383462,-9.467570020836591,6.523750026592612,0.8961786590691655,39.03068571012015,8.859917339439086,145.0246689864504
1698745588.658,0.01666666753590107,-3.3022061469018458,-0.888776054662466,1.7042951499342918,-9.616309798973798,6.56968818642497,0.8834596819452941,20.689455788479854,13.46373804759448,138.56845999425252
1698745588.675,0.01666666753590107,-4.129428539448976,-0.6241922212958335,1.8461416614264248,-10.070311457824706,7.127538342285156,0.9590263795830308,-2.539498911243414,28.31978966692855,138.84330680645382
1698745588.692,0.01666666753590107,-4.413103442254663,-0.6451438239097594,1.8489448822788892,-10.058041174316406,7.321020348468423,0.9295481369685381,-15.400816408476887,39.36806290417294,142.10256379535718
1698745588.709,0.01666666753590107,-4.758010520136356,-1.2412485993623732,1.6724673485189676,-10.08766825081706,6.936899450573325,0.7327743957635015,-23.318103609430743,46.31423551648167,145.77777930471433
1698745588.725,0.01666666753590107,-5.47918310623765,-1.6769921324670314,1.6981442260891197,-10.369437027740478,6.770353382110596,0.7504316330071539,-31.858051345690473,52.839074249459834,144.8242029343105
1698745588.742,0.01666666753590107,-6.081783088928461,-1.8112001119047403,1.7806915763944386,-10.637586444634199,6.822426099175215,0.8450026716485619,-40.44718156661617,57.67889165381751,142.28080441193785
1698745588.759,0.01666666753590107,-7.035867774325609,-2.0956910072684285,1.7371230683028698,-11.14051901539266,6.766611857494712,0.8529336107783019,-48.69770515943849,54.57635677051467,142.57361462165628
1698745588.775,0.01666666753590107,-8.134583633497357,-2.649097043201327,1.5893606107652187,-11.890352755571902,6.37246524014771,0.7671910446282476,-47.62492149745044,45.3147739352337,145.34851557575738
1698745588.792,0.01666666753590107,-8.84054053028822,-3.0947809555619954,1.4823036731034516,-12.240804315838217,6.072442429131269,0.7269388945430517,-38.799733108619925,34.26166321650966,145.28414787301915
1698745588.809,0.01666666753590107,-9.611700843873619,-4.268337243923544,1.2685855190992354,-12.556988572582602,5.059993817570805,0.577300925457105,-16.959726831809547,17.480277746571023,128.73421702348475
1698745588.825,0.01666666753590107,-10.06635190654397,-5.098658187007904,1.280930621409416,-12.725481098937987,4.31569754551351,0.5958561344537884,5.256787219695437,8.09602215247569,100.86845905899092
1698745588.842,0.01666666753590107,-10.476019918149708,-5.180265041592717,1.5246353328764437,-12.93123309636861,4.2857700247615576,0.7921809628475457,30.198455396255362,3.0769729003340642,62.670141182263535
1698745588.859,0.01666666753590107,-10.849982994645833,-4.996552149751782,2.0608850668251515,-13.185466362243146,4.487630567711592,1.185578077001497,53.79391078976552,-6.299267039883436,11.632683859424537
1698745588.875,0.01666666753590107,-10.865988373029232,-4.771490763956308,2.5468904681801794,-13.210007513781637,4.697572710308433,1.5405183269891887,56.110990993989816,-18.24416610334525,-14.491339154449253
1698745588.892,0.01666666753590107,-10.680827035945653,-4.71626513581872,2.7625650169491767,-13.088651271001995,4.72405973521769,1.643170161559805,47.27782152911415,-34.0566619187609,-30.444352451659576
1698745588.909,0.01666666753590107,-9.956772756928205,-4.973065475702286,2.783406144925952,-12.514341855511068,4.417450531548261,1.5803218565240502,28.058891808559697,-59.80461044806556,-50.30344165217347
1698745588.925,0.01666666753590107,-9.099952513974905,-5.394416326317191,2.599536016696691,-11.827355032128095,3.9477375088244675,1.3929760150082409,14.388681411223962,-78.36019219642837,-72.07046223506039
1698745588.942,0.01666666753590107,-8.79965790027976,-5.096117270353436,2.443602381532639,-11.762562534222006,4.179378857532144,1.2788021580133586,4.283401593151287,-91.75246512096336,-100.14499859191399
1698745588.959,0.01666666753590107,-8.895604830384254,-3.4673581306576726,2.237276237475872,-12.276268427929281,5.677400324249267,1.1813888816833495,-5.7029539593008876,-99.91577061317919,-135.5936530635235
1698745588.975,0.01666666753590107,-9.046511431166529,-1.7030641468346117,2.020709708303213,-12.799700765880942,7.3081503455013035,1.081580015453696,-14.08836055473944,-100.7880609022707,-155.70412054625055
1698745588.992,0.01666666753590107,-8.799009665504098,-0.914326675504446,1.7885440434604882,-12.956371337017416,7.932288790783286,0.9985311453670263,-26.68570788913802,-97.77154883646959,-171.33219442388668
1698745589.009,0.01666666753590107,-8.22210175795257,0.3151800481379032,1.2830050895959138,-12.94484894926697,8.89341053521037,0.7538739554807543,-52.25631567928517,-86.64284841420101,-185.6983362108496
1698745589.025,0.01666666753590107,-7.488813786643743,1.009145478361845,0.6859750159919261,-12.638092738342284,9.350255893054603,0.40102746290192004,-74.5697992070973,-73.78400643365484,-191.96540360455148
1698745589.042,0.01666666753590107,-6.791597245669364,1.295132749763131,0.21844576704800128,-12.359616573223471,9.367762323650718,0.20485348225489725,-92.04849917997005,-57.469587336891635,-196.54447170715474
1698745589.059,0.01666666753590107,-5.481542236584425,1.370372991925478,-0.5437211658079176,-11.594817026841639,9.030478580254316,-0.19587653663698582,-100.03640541429996,-35.055778575455776,-203.62094383825982
1698745589.075,0.01666666753590107,-4.57812215501964,1.5072750327527522,-0.9109913936018943,-11.094430048912763,8.812606813701986,-0.32770660796221346,-92.2553036476597,-20.27342896613438,-212.50831768438871
1698745589.092,0.01666666753590107,-4.1830251050800085,2.1552888591408728,-0.9921159445624798,-11.10221237335205,9.062651834106445,-0.22819785719029603,-77.40014763688055,-5.049434629324897,-223.5224211927628
1698745589.109,0.01666666753590107,-3.386091467812657,3.3549241761326787,-0.8999461949091404,-10.836904901885985,9.665541739654541,0.012120061382651329,-59.391916758035045,10.892665306252214,-235.84572170086662
1698745589.125,0.01666666753590107,-2.210655357053876,3.5778976497381922,-0.9040496116399764,-10.041730090984702,9.400084046062826,0.06898257000707089,-54.195023894058274,17.41320016627962,-238.71757036004686
1698745589.142,0.01666666753590107,-1.460398715287447,4.093477520623803,-0.9189746474407613,-9.643994509235023,9.401880866351723,0.09097907856404781,-53.44408557595039,21.46564873104386,-238.38297305298627
1698745589.159,0.01666666753590107,-0.5032312614440918,5.017357037371397,-0.908625248992443,-9.102604489788412,9.616011692810059,0.12749094614237547,-47.529070037733064,20.52395176715398,-233.5005352682077
1698745589.175,0.01666666753590107,-0.16193126814365386,6.073325057184696,-0.7679390134513377,-9.026737640160322,10.134954902648925,0.2754824631955474,-39.13595941579756,15.832011373421668,-226.58383492216757
1698745589.192,0.01666666753590107,0.35660979063510895,6.566319002252817,-0.7640085421346128,-8.731803092193603,10.09724651876241,0.2865547690909356,-31.71469592029566,7.375876034693518,-218.0847846511106
1698745589.209,0.01666666753590107,1.258489072498679,6.987808384555578,-0.9100735481046139,-8.064868876758217,9.828946587482093,0.1731304883543402,-23.235210726116176,-8.528134924090192,-205.55560858104425
1698745589.225,0.01666666753590107,1.6510662485718726,7.747930002254247,-0.9391431368529796,-7.804498277172446,10.090063767651468,0.19093634028844533,-16.66319246144615,-18.0909342244106,-196.71461171937975
1698745589.242,0.01666666753590107,1.9460083953231573,8.374234685659408,-1.0124153668779878,-7.608322794121503,10.23521224329844,0.18001301440969109,-11.420965924400713,-25.40323912717787,-186.93100777111846
1698745589.259,0.01666666753590107,2.501262104949355,8.958051057425141,-1.2266415434695779,-7.1378621679008,10.217405222320556,0.06628755876943469,-9.020211633975531,-30.274540288514718,-170.7215345309525
1698745589.276,0.01666666753590107,3.1348166133522986,9.44030382824838,-1.4315854393877088,-6.539161530736088,10.281599754333495,-0.06165230018422007,-12.305566775697514,-27.76370810810467,-157.88658455212305
1698745589.292,0.01666666753590107,3.5930075405865907,9.720123809191584,-1.58415968112126,-6.0977305996447795,10.169670936319045,-0.14963877280354498,-21.308923210348745,-20.035880109443212,-147.47987610625984
1698745589.309,0.01666666753590107,4.691992864349484,9.950469272869825,-1.6711306930877268,-5.003879716160893,9.90466287249124,-0.20201134959757328,-41.70713290243009,2.097347255652873,-136.38980723393686
1698745589.325,0.01666666753590107,5.880491285777092,10.007451973807811,-1.6422808845698833,-3.8121664243400093,9.616161220815963,-0.20365721710845827,-56.582437971260774,19.198317917186642,-121.03162145116461
1698745589.341,0.01666666753590107,6.119353233388066,10.381713156467676,-1.5595147769473492,-3.567061198425293,9.691728466442973,-0.19288272511586546,-64.43402387504099,29.71123751219084,-96.10528320730995
1698745589.359,0.01666666753590107,6.247721839147806,11.286257273626326,-1.3942214850246906,-3.432237132915854,10.32275031456314,-0.15307985316812991,-61.74958877649673,31.809673115799274,-47.93606051980662
1698745589.376,0.01666666753590107,6.456621779215335,11.236410415917634,-1.42059394364357,-3.2252883269160986,10.186730025006458,-0.26770298830047246,-54.03932631683325,24.9385369617123,-6.563137311201715
1698745589.392,0.01666666753590107,6.66288318747282,11.018029530799389,-1.4525135149955748,-3.0282150182425975,9.983671650573983,-0.3648174278143793,-44.73632862951991,16.43379202043481,28.749348801567116
1698745589.409,0.01666666753590107,6.590420593330264,10.909112059962748,-1.5881097339212893,-3.1215894675105806,10.023175685705617,-0.5574006585270166,-31.961784843710042,10.21804154551453,65.77741280175577
1698745589.425,0.01666666753590107,6.036969549211859,10.71921375748515,-1.7719463982723653,-3.693205698394775,10.023774382251128,-0.7667443968392909,-21.023498142670377,5.216651747471973,89.406336122199
1698745589.442,0.01666666753590107,5.589231626930832,10.488498291450739,-1.8763233030699193,-4.1564843041568995,10.045321722268499,-0.8788230351205915,-9.350552025635904,-1.0822904315390642,111.84957275367385
1698745589.459,0.01666666753590107,4.427335965746641,10.28261799146533,-1.9970890326105057,-5.326650365558266,10.269030584918386,-0.9822213041443377,7.2997254018634,-9.298112394509486,141.15130968927116
1698745589.476,0.01666666753590107,2.9324972207188607,10.40615552380681,-1.9618682277560233,-6.8109045882076025,10.780342106860504,-0.9147352563053369,21.021145142501307,-16.63438443107433,159.87175171363057
1698745589.492,0.01666666753590107,2.0901129148751494,10.2468288852036,-1.9027578671395777,-7.621641125378012,11.055824789251758,-0.8083427739016711,35.18620786784634,-23.812459041177927,175.54375736800824
1698745589.508,0.01666666753590107,0.6929027694284916,9.69838485559225,-1.6792109775602817,-8.935907614678143,11.144410177612304,-0.510714164545387,50.03427414226702,-28.55201097606711,191.54850251799223
1698745589.525,0.01666666753590107,-0.4652577968806028,8.949230037587881,-1.3464964417755603,-9.99863387658,10.902745447540283,-0.13452471723668277,56.61443057733312,-24.09179499521123,200.25797725699897
1698745589.542,0.01666666753590107,-0.9773656077414751,8.210421257030964,-1.1876933886550367,-10.386794989776611,10.686369764764606,0.03815627378448844,59.74725734960496,-13.49357829030462,207.3994864493809
1698745589.559,0.01666666753590107,-1.6627917576789855,6.583929477745294,-0.8243396036524325,-10.860845749443769,9.774327693066,0.35359212331436574,61.14114186485365,6.692366197845649,217.720216473972
1698745589.575,0.01666666753590107,-2.1703438049316404,4.837524201834202,-0.5264192448079585,-11.171793274578452,8.573336869812012,0.5635345581721514,64.772534880496,18.87583736571366,224.6941401448785
1698745589.592,0.01666666753590107,-2.489602062293887,3.7085993746206163,-0.338430063887313,-11.260528373607993,7.98735542896688,0.6277288709893822,72.74204741539106,24.748358882009754,225.2035902946914
1698745589.608,0.01666666753590107,-2.646473708960414,2.0104811597555874,-0.12490531356334686,-11.074678469738364,6.96518154220581,0.6410475675720722,82.90664614574483,23.917338303430764,206.9757005321383
1698745589.625,0.01666666753590107,-2.4194155963897703,1.0919792443931102,0.10049451040625572,-10.589254083141684,6.4830485983699555,0.7009014034995809,84.6346498548122,24.26065434696687,180.3812115269131
1698745589.641,0.01666666753590107,-2.4215315656304357,0.7352642398178577,0.3574608545064926,-10.353425219616293,6.486190988048911,0.7843994786584749,80.17069093029116,26.359221431716826,151.69882931506336
1698745589.659,0.01666666753590107,-2.3615081818222996,0.3149748809546232,0.7136077038049697,-10.008808649113774,6.451025566643476,0.9085986532464623,69.69284606422227,29.909961866092363,130.34138785594544
1698745589.675,0.01666666753590107,-2.6489158414155245,0.1952390789836645,1.0736123975753784,-10.085124996075034,6.588393471416831,1.1008825767855392,61.40248539306585,31.1724130511425,130.16600225843783
1698745589.692,0.01666666753590107,-3.0905320659458635,0.20973580636978148,1.342578391548991,-10.298808078765868,6.857592105102539,1.2116151661861687,53.00030769500715,32.21800573004473,137.48541055794192
1698745589.709,0.01666666753590107,-3.8516596458166834,0.08258885135948657,1.7461504243671893,-10.71375256946981,7.081000462993979,1.4232027013698592,37.521712507356746,35.58383074547322,150.82804849777844
1698745589.725,0.01666666753590107,-4.592641094237566,-0.4072264636725187,2.0315081656932827,-11.164610085076093,6.857890795788168,1.5869061302851886,21.771371413388213,40.60023927572699,154.66994794364058
1698745589.741,0.01666666753590107,-5.063060803925991,-0.8834177424997091,2.233538804513216,-11.333251664513348,6.637174745720625,1.6897072736660017,3.9311610536909134,48.468053708975155,151.5549855311429
1698745589.759,0.01666666753590107,-5.712435981795191,-1.9312392807364462,2.372376781839132,-11.578059368786215,5.9021554205745455,1.7377406156793236,-22.31551892418479,61.940984337418826,141.1404633488692
1698745589.775,0.01666666753590107,-6.207995977959037,-2.606787595260143,2.478938629460335,-11.77902208611369,5.435734425133466,1.806723697143048,-38.96548130920863,74.23262691871962,130.96721076883702
1698745589.791,0.01666666753590107,-6.60803165334463,-2.849100560107827,2.508535310822725,-11.895740001568198,5.380967646679282,1.8182460118282586,-47.372166932119534,81.97138151250581,122.46882985631869
1698745589.809,0.01666666753590107,-7.317676298737526,-3.131601742959022,2.4986469540148972,-12.236914322662352,5.322909425464272,1.796698123821616,-40.98277768057189,78.85880283602847,118.57637335022012
1698745589.825,0.01666666753590107,-7.843962857076526,-3.6767853094697,2.4476111787825823,-12.48501259291321,4.932054835399985,1.7272664218075573,-23.741127960580897,67.4151419005631,118.02960304678227
