ts,interval,accx,accy,accz,accGx,accGy,accGz,alpha,beta,gamma
1698921495000.0,16,0.0,0.0,0.0,-0.30000000000000004,9.1,2.7,-0.4,-0.30000000000000004,0.1
1698921495015.0,16,0.0,0.0,0.0,-0.30000000000000004,9.1,2.7,-0.30000000000000004,-0.5,0.2
1698921495032.0,16,0.0,0.0,0.0,-0.30000000000000004,9.200000000000001,2.7,-0.2,-0.5,0.1
1698921495048.0,16,0.0,0.0,0.0,-0.30000000000000004,9.200000000000001,2.7,-0.2,-0.8,0.1
1698921495065.0,16,0.0,0.0,0.0,-0.30000000000000004,9.200000000000001,2.6,-0.2,-0.8,0.0
1698921495082.0,16,0.0,0.0,0.0,-0.30000000000000004,9.200000000000001,2.6,0.0,-0.7,0.1
1698921495099.0,16,0.0,0.0,0.0,-0.30000000000000004,9.200000000000001,2.6,-0.30000000000000004,-0.7,0.2
1698921495115.0,16,0.0,0.0,0.0,-0.30000000000000004,9.200000000000001,2.7,-0.4,-0.6000000000000001,0.30000000000000004
1698921495132.0,16,0.0,0.0,0.0,-0.30000000000000004,9.1,2.7,-0.4,-0.6000000000000001,0.4
1698921495148.0,16,0.0,0.0,0.0,-0.30000000000000004,9.1,2.7,-0.30000000000000004,-0.4,0.4
1698921495165.0,16,0.0,0.0,0.0,-0.30000000000000004,9.200000000000001,2.7,-0.4,-0.5,0.30000000000000004
1698921495183.0,16,0.0,0.0,0.0,-0.30000000000000004,9.200000000000001,2.7,-0.30000000000000004,-0.5,0.4
1698921495199.0,16,0.0,0.0,0.0,-0.30000000000000004,9.200000000000001,2.7,-0.2,-0.5,0.4
1698921495216.0,16,0.0,0.0,0.0,-0.30000000000000004,9.200000000000001,2.7,-0.2,-0.30000000000000004,0.5
1698921495232.0,16,0.0,0.0,0.0,-0.30000000000000004,9.200000000000001,2.7,-0.2,-0.30000000000000004,0.5
1698921495249.0,16,0.0,0.0,0.0,-0.30000000000000004,9.200000000000001,2.7,-0.4,-0.2,0.4
1698921495266.0,16,0.0,0.0,0.0,-0.30000000000000004,9.1,2.7,-0.4,-0.1,0.4
1698921495283.0,16,0.0,0.0,0.0,-0.30000000000000004,9.200000000000001,2.7,-0.4,-0.2,0.30000000000000004
1698921495299.0,16,0.0,0.0,0.0,-0.30000000000000004,9.200000000000001,2.7,-0.30000000000000004,0.0,0.30000000000000004
1698921495315.0,16,0.0,0.0,0.0,-0.30000000000000004,9.200000000000001,2.7,-0.5,-0.2,0.4
1698921495334.0,16,0.0,0.0,0.0,-0.30000000000000004,9.1,2.7,-0.8,0.2,0.5
1698921495349.0,16,0.0,0.0,0.0,-0.30000000000000004,9.1,2.7,-0.9,0.30000000000000004,0.4
1698921495366.0,16,0.0,0.0,0.0,-0.30000000000000004,9.1,2.7,-1.0,0.5,0.5
1698921495382.0,16,0.0,0.0,0.0,-0.30000000000000004,9.1,2.7,-0.8,0.30000000000000004,0.7
1698921495398.0,16,0.0,0.0,0.0,-0.30000000000000004,9.1,2.7,-0.6000000000000001,0.2,0.4
1698921495415.0,16,0.0,0.0,0.0,-0.30000000000000004,9.1,2.7,-0.2,0.2,0.1
1698921495432.0,16,0.0,0.0,0.0,-0.30000000000000004,9.1,2.7,-0.1,0.30000000000000004,0.1
1698921495449.0,16,0.0,0.0,0.0,-0.30000000000000004,9.1,2.7,0.0,0.6000000000000001,0.2
1698921495465.0,16,0.0,0.0,0.0,-0.30000000000000004,9.1,2.7,0.0,0.6000000000000001,0.30000000000000004
1698921495482.0,16,0.0,0.0,0.0,-0.30000000000000004,9.200000000000001,2.7,-0.30000000000000004,0.6000000000000001,0.5
1698921495499.0,16,0.0,0.0,0.0,-0.30000000000000004,9.1,2.7,-0.4,0.0,0.30000000000000004
1698921495516.0,16,0.0,0.0,0.0,-0.30000000000000004,9.200000000000001,2.7,-0.2,-0.2,0.2
1698921495532.0,16,0.0,0.0,0.0,-0.30000000000000004,9.200000000000001,2.7,-0.2,-0.2,0.1
1698921495549.0,16,0.0,0.0,0.0,-0.30000000000000004,9.200000000000001,2.7,-0.2,0.0,0.1
1698921495565.0,16,0.0,0.0,0.0,-0.30000000000000004,9.1,2.7,-0.30000000000000004,-0.1,0.1
1698921495582.0,16,0.0,0.0,0.0,-0.30000000000000004,9.200000000000001,2.7,-0.2,-0.1,-0.1
1698921495599.0,16,0.0,0.0,0.0,-0.30000000000000004,9.200000000000001,2.7,-0.2,0.0,-0.2
1698921495615.0,16,0.0,0.0,0.0,-0.30000000000000004,9.200000000000001,2.7,-0.2,0.1,-0.1
1698921495632.0,16,0.0,0.0,0.0,-0.30000000000000004,9.200000000000001,2.7,-0.2,0.0,-0.1
1698921495649.0,16,0.0,0.0,0.0,-0.30000000000000004,9.200000000000001,2.7,-0.2,-0.1,0.1
1698921495665.0,16,0.0,0.0,0.0,-0.30000000000000004,9.200000000000001,2.7,-0.4,-0.5,-0.1
1698921495682.0,16,0.0,0.0,0.0,-0.30000000000000004,9.200000000000001,2.7,-0.5,-0.30000000000000004,-0.30000000000000004
1698921495699.0,16,0.0,0.0,0.0,-0.30000000000000004,9.200000000000001,2.7,-0.6000000000000001,-0.30000000000000004,-0.2
1698921495715.0,16,0.0,0.0,0.0,-0.30000000000000004,9.200000000000001,2.7,-0.6000000000000001,-0.2,-0.1
1698921495732.0,16,0.0,0.0,0.0,-0.30000000000000004,9.200000000000001,2.7,-0.6000000000000001,-0.2,-0.1
1698921495749.0,16,0.0,0.0,0.0,-0.30000000000000004,9.200000000000001,2.7,-0.5,-0.2,-0.1
1698921495765.0,16,0.0,0.0,0.0,-0.30000000000000004,9.200000000000001,2.7,-0.7,0.0,-0.2
1698921495782.0,16,0.0,0.0,0.0,-0.30000000000000004,9.200000000000001,2.7,-0.8,-0.2,-0.1
1698921495799.0,16,0.0,0.0,0.0,-0.30000000000000004,9.200000000000001,2.7,-0.9,-0.2,-0.2
1698921495815.0,16,0.0,0.0,0.0,-0.30000000000000004,9.1,2.7,-1.0999999999999999,-0.1,-0.30000000000000004
1698921495833.0,16,0.0,0.0,0.0,-0.30000000000000004,9.200000000000001,2.7,-1.4,-0.1,-0.4
1698921495848.0,16,0.0,0.1,0.0,-0.30000000000000004,9.200000000000001,2.7,-1.7,-0.1,-0.5
1698921495865.0,16,0.0,0.0,0.0,-0.30000000000000004,9.200000000000001,2.7,-1.9,-0.2,-0.5
1698921495882.0,16,0.0,0.0,0.0,-0.30000000000000004,9.200000000000001,2.7,-1.9,-0.1,-0.6000000000000001
1698921495899.0,16,0.0,-0.1,0.0,-0.30000000000000004,9.1,2.7,-1.7,0.2,-0.1
1698921495915.0,16,0.0,0.0,0.0,-0.30000000000000004,9.1,2.7,-1.7,-0.2,-0.1
1698921495932.0,16,0.0,0.0,0.0,-0.30000000000000004,9.1,2.7,-1.7,-0.2,-0.1
1698921495950.0,16,0.0,0.0,0.0,-0.30000000000000004,9.1,2.7,-1.6,-0.2,-0.1
1698921495965.0,16,0.0,0.0,0.0,-0.30000000000000004,9.1,2.7,-1.2000000000000002,0.1,-0.1
1698921495982.0,16,0.0,-0.1,0.0,-0.30000000000000004,9.1,2.7,-1.0,0.0,-0.2
1698921495999.0,16,0.0,-0.1,0.0,-0.30000000000000004,9.1,2.7,-0.9,-0.1,-0.2
1698921496015.0,16,0.0,0.0,0.0,-0.30000000000000004,9.1,2.8000000000000003,-0.5,0.1,0.0
1698921496032.0,16,0.0,0.0,0.0,-0.30000000000000004,9.1,2.8000000000000003,-0.2,0.30000000000000004,-0.1
1698921496049.0,16,0.0,0.0,0.0,-0.30000000000000004,9.1,2.7,0.2,0.7,0.1
1698921496065.0,16,0.0,0.0,0.0,-0.30000000000000004,9.1,2.7,0.1,0.8,0.2
1698921496082.0,16,0.0,0.0,0.0,-0.30000000000000004,9.200000000000001,2.7,0.0,0.5,0.2
1698921496099.0,16,0.0,0.0,0.0,-0.30000000000000004,9.200000000000001,2.7,0.0,0.4,0.2
1698921496115.0,16,0.0,0.0,0.0,-0.30000000000000004,9.1,2.8000000000000003,0.0,0.5,0.2
1698921496132.0,16,0.0,0.0,0.0,-0.30000000000000004,9.1,2.7,0.0,0.6000000000000001,0.30000000000000004
1698921496149.0,16,0.0,0.0,0.0,-0.30000000000000004,9.200000000000001,2.8000000000000003,-0.30000000000000004,0.6000000000000001,0.30000000000000004
1698921496165.0,16,0.0,0.0,0.0,-0.30000000000000004,9.1,2.8000000000000003,-0.30000000000000004,0.5,0.4
1698921496182.0,16,0.0,0.0,0.0,-0.30000000000000004,9.1,2.8000000000000003,-0.2,0.30000000000000004,0.1
1698921496199.0,16,0.0,0.0,0.0,-0.30000000000000004,9.1,2.8000000000000003,0.0,0.4,0.1
1698921496215.0,16,0.0,0.0,0.0,-0.30000000000000004,9.1,2.8000000000000003,0.1,0.6000000000000001,0.2
1698921496232.0,16,0.0,0.0,0.0,-0.30000000000000004,9.1,2.8000000000000003,0.1,0.4,0.4
1698921496248.0,16,0.0,0.0,0.0,-0.30000000000000004,9.1,2.8000000000000003,-0.1,0.4,0.4
1698921496265.0,16,0.0,0.0,0.0,-0.30000000000000004,9.1,2.8000000000000003,0.0,0.30000000000000004,0.4
1698921496281.0,16,0.0,0.0,0.0,-0.30000000000000004,9.200000000000001,2.8000000000000003,0.1,0.2,0.4
1698921496298.0,16,0.0,0.0,0.0,-0.30000000000000004,9.1,2.8000000000000003,0.1,-0.30000000000000004,0.4
1698921496315.0,16,0.0,0.0,0.0,-0.30000000000000004,9.200000000000001,2.8000000000000003,-0.1,-0.2,0.4
1698921496331.0,16,0.0,0.0,0.0,-0.30000000000000004,9.1,2.8000000000000003,-0.30000000000000004,-0.2,0.30000000000000004
1698921496348.0,16,0.0,0.0,0.0,-0.30000000000000004,9.1,2.8000000000000003,-0.30000000000000004,-0.2,0.2
1698921496365.0,16,0.0,0.0,0.0,-0.30000000000000004,9.1,2.8000000000000003,-0.30000000000000004,-0.30000000000000004,0.2
1698921496382.0,16,0.0,0.0,0.0,-0.30000000000000004,9.1,2.8000000000000003,-0.2,-0.30000000000000004,0.2
1698921496398.0,16,0.0,0.0,0.0,-0.30000000000000004,9.1,2.8000000000000003,-0.30000000000000004,-0.30000000000000004,0.2
1698921496417.0,16,0.0,0.0,0.0,-0.30000000000000004,9.1,2.8000000000000003,-0.4,-0.5,0.30000000000000004
1698921496431.0,16,0.0,0.0,0.0,-0.30000000000000004,9.1,2.8000000000000003,-0.5,-0.5,0.4
1698921496448.0,16,0.0,0.0,0.0,-0.30000000000000004,9.1,2.8000000000000003,-0.5,-0.5,0.2
1698921496465.0,16,0.0,0.0,0.0,-0.30000000000000004,9.1,2.8000000000000003,-0.6000000000000001,-0.30000000000000004,0.4
1698921496481.0,16,0.0,0.0,0.0,-0.30000000000000004,9.1,2.7,-0.6000000000000001,-0.5,0.4
1698921496498.0,16,0.0,0.0,0.0,-0.30000000000000004,9.1,2.8000000000000003,-0.30000000000000004,-0.6000000000000001,0.4
1698921496515.0,16,0.0,0.0,0.0,-0.30000000000000004,9.1,2.8000000000000003,-0.1,-0.6000000000000001,0.4
1698921496532.0,16,0.0,0.0,0.0,-0.30000000000000004,9.1,2.8000000000000003,0.0,-0.6000000000000001,0.5
1698921496549.0,16,0.0,0.0,0.0,-0.2,9.200000000000001,2.8000000000000003,0.1,-0.4,0.2
1698921496565.0,16,0.0,0.0,0.0,-0.30000000000000004,9.200000000000001,2.8000000000000003,0.1,-0.30000000000000004,0.2
1698921496581.0,16,0.0,0.0,0.0,-0.30000000000000004,9.1,2.8000000000000003,0.2,-0.2,0.2
1698921496599.0,16,0.0,0.0,0.0,-0.30000000000000004,9.200000000000001,2.8000000000000003,0.1,0.0,0.2
1698921496615.0,16,0.0,0.0,0.0,-0.30000000000000004,9.1,2.8000000000000003,0.0,0.2,0.30000000000000004
1698921496632.0,16,0.0,0.0,0.0,-0.30000000000000004,9.1,2.8000000000000003,-0.1,0.30000000000000004,0.4
1698921496649.0,16,0.0,0.0,0.0,-0.30000000000000004,9.1,2.7,-0.1,0.2,0.4
1698921496665.0,16,0.0,0.0,0.0,-0.30000000000000004,9.1,2.8000000000000003,-0.1,0.1,0.6000000000000001
1698921496682.0,16,0.0,0.0,0.0,-0.30000000000000004,9.1,2.8000000000000003,0.1,0.0,0.5
1698921496699.0,16,0.0,0.0,0.0,-0.2,9.1,2.8000000000000003,0.1,0.0,0.5
1698921496715.0,16,0.0,0.0,0.0,-0.30000000000000004,9.1,2.8000000000000003,0.1,0.1,0.5
1698921496732.0,16,0.0,0.0,0.0,-0.30000000000000004,9.1,2.8000000000000003,0.1,0.0,0.30000000000000004
1698921496748.0,16,0.0,0.0,0.0,-0.30000000000000004,9.1,2.8000000000000003,0.1,0.1,0.2
1698921496765.0,16,0.0,0.0,0.0,-0.30000000000000004,9.200000000000001,2.8000000000000003,0.2,0.1,0.1
1698921496782.0,16,0.0,0.0,0.0,-0.30000000000000004,9.200000000000001,2.8000000000000003,0.2,0.2,-0.1
1698921496799.0,16,0.0,0.0,0.0,-0.30000000000000004,9.200000000000001,2.8000000000000003,-0.1,0.1,-0.30000000000000004
1698921496815.0,16,0.0,0.0,0.0,-0.30000000000000004,9.1,2.8000000000000003,-0.2,0.2,-0.30000000000000004
1698921496831.0,16,0.0,0.0,0.0,-0.30000000000000004,9.1,2.7,-0.30000000000000004,0.0,-0.2
1698921496849.0,16,0.0,0.0,0.0,-0.30000000000000004,9.200000000000001,2.8000000000000003,-0.30000000000000004,-0.2,-0.2
1698921496865.0,16,0.0,0.0,0.0,-0.30000000000000004,9.200000000000001,2.8000000000000003,-0.30000000000000004,-0.2,-0.1
1698921496881.0,16,0.0,0.0,0.0,-0.30000000000000004,9.1,2.8000000000000003,-0.1,-0.30000000000000004,-0.4
1698921496898.0,16,0.0,0.0,0.0,-0.30000000000000004,9.1,2.8000000000000003,0.1,0.1,-0.30000000000000004
1698921496915.0,16,0.0,0.0,0.0,-0.30000000000000004,9.1,2.8000000000000003,0.0,0.0,-0.30000000000000004
1698921496931.0,16,0.0,0.0,0.0,-0.30000000000000004,9.1,2.8000000000000003,0.1,-0.2,-0.2
1698921496948.0,16,0.0,0.0,0.0,-0.30000000000000004,9.1,2.8000000000000003,0.1,-0.1,-0.30000000000000004
1698921496965.0,16,0.0,0.0,0.0,-0.30000000000000004,9.1,2.7,0.2,0.0,-0.5
1698921496982.0,16,0.0,0.0,0.0,-0.2,9.1,2.8000000000000003,0.30000000000000004,0.1,-0.4
1698921496998.0,16,0.0,0.0,0.0,-0.30000000000000004,9.200000000000001,2.8000000000000003,0.1,0.30000000000000004,-0.30000000000000004
1698921497016.0,16,0.0,0.0,0.0,-0.30000000000000004,9.1,2.7,0.0,0.6000000000000001,-0.2
1698921497031.0,16,0.0,0.0,0.0,-0.30000000000000004,9.1,2.7,-0.1,0.4,-0.1
1698921497048.0,16,0.0,0.0,0.0,-0.30000000000000004,9.1,2.8000000000000003,-0.2,0.0,-0.30000000000000004
1698921497065.0,16,0.0,0.0,0.0,-0.30000000000000004,9.1,2.8000000000000003,0.1,-0.2,-0.2
1698921497082.0,16,0.0,0.0,0.0,-0.30000000000000004,9.1,2.8000000000000003,0.30000000000000004,0.0,-0.2
1698921497098.0,16,0.0,0.0,0.0,-0.30000000000000004,9.1,2.8000000000000003,0.4,0.1,-0.1
1698921497115.0,16,0.0,0.0,0.0,-0.30000000000000004,9.1,2.8000000000000003,0.4,0.2,-0.2
1698921497132.0,16,0.0,0.0,0.0,-0.30000000000000004,9.1,2.8000000000000003,0.4,0.30000000000000004,-0.4
1698921497149.0,16,0.0,0.0,0.0,-0.30000000000000004,9.1,2.8000000000000003,0.5,0.4,-0.6000000000000001
1698921497165.0,16,0.0,0.0,0.0,-0.30000000000000004,9.200000000000001,2.7,0.4,0.4,-0.5
1698921497182.0,16,0.0,0.0,0.0,-0.30000000000000004,9.1,2.7,0.4,0.2,-0.5
1698921497199.0,16,0.0,0.0,0.0,-0.30000000000000004,9.1,2.8000000000000003,0.5,0.30000000000000004,-0.4
1698921497215.0,16,0.0,0.0,0.0,-0.30000000000000004,9.200000000000001,2.8000000000000003,0.6000000000000001,0.0,-0.30000000000000004
1698921497233.0,16,0.0,0.0,0.0,-0.30000000000000004,9.1,2.8000000000000003,0.6000000000000001,0.2,-0.30000000000000004
1698921497249.0,16,0.0,0.0,0.0,-0.30000000000000004,9.1,2.7,0.6000000000000001,0.6000000000000001,-0.1
1698921497267.0,16,0.0,0.0,0.0,-0.30000000000000004,9.200000000000001,2.7,0.6000000000000001,0.8,-0.1
1698921497283.0,16,0.0,0.0,0.0,-0.30000000000000004,9.1,2.7,0.5,0.6000000000000001,0.1
1698921497299.0,16,0.0,0.0,0.0,-0.30000000000000004,9.200000000000001,2.7,0.5,0.6000000000000001,0.2
1698921497316.0,16,0.0,0.0,0.0,-0.30000000000000004,9.1,2.7,0.30000000000000004,0.7,0.4
1698921497333.0,16,0.0,0.0,0.0,-0.30000000000000004,9.1,2.7,0.30000000000000004,0.5,0.5
1698921497350.0,16,0.0,0.0,0.0,-0.30000000000000004,9.1,2.8000000000000003,0.4,0.5,0.4
1698921497365.0,16,0.0,0.0,0.0,-0.30000000000000004,9.200000000000001,2.8000000000000003,0.30000000000000004,0.5,0.4
1698921497382.0,16,0.0,0.0,0.0,-0.30000000000000004,9.200000000000001,2.7,0.30000000000000004,0.5,0.30000000000000004
1698921497399.0,16,0.0,0.0,0.0,-0.30000000000000004,9.1,2.7,0.1,0.30000000000000004,0.30000000000000004
1698921497416.0,16,0.0,0.0,0.0,-0.30000000000000004,9.1,2.7,0.1,0.30000000000000004,0.2
1698921497432.0,16,0.0,0.0,0.0,-0.30000000000000004,9.1,2.7,0.1,0.5,0.4
1698921497449.0,16,0.0,0.0,0.0,-0.30000000000000004,9.1,2.7,0.1,0.4,0.4
1698921497465.0,16,0.0,0.0,0.0,-0.30000000000000004,9.1,2.7,0.2,0.2,0.5
1698921497482.0,16,0.0,0.0,0.0,-0.30000000000000004,9.1,2.7,0.4,0.2,0.4
1698921497499.0,16,0.0,0.0,0.0,-0.30000000000000004,9.1,2.7,0.4,0.30000000000000004,0.30000000000000004
1698921497516.0,16,0.0,0.0,0.0,-0.30000000000000004,9.1,2.7,0.4,0.30000000000000004,0.2
1698921497532.0,16,0.0,0.0,0.0,-0.30000000000000004,9.1,2.7,0.5,0.30000000000000004,0.2
1698921497549.0,16,0.0,0.0,0.0,-0.30000000000000004,9.200000000000001,2.8000000000000003,0.7,0.4,0.2
1698921497565.0,16,0.0,0.0,0.0,-0.30000000000000004,9.200000000000001,2.7,0.7,0.4,0.2
1698921497582.0,16,0.0,0.0,0.0,-0.30000000000000004,9.200000000000001,2.7,0.6000000000000001,0.5,0.30000000000000004
1698921497599.0,16,0.0,0.0,0.0,-0.30000000000000004,9.1,2.7,0.5,0.5,0.1
1698921497616.0,16,0.0,0.0,0.0,-0.30000000000000004,9.200000000000001,2.7,0.5,0.2,0.30000000000000004
1698921497633.0,16,0.0,0.0,0.0,-0.30000000000000004,9.200000000000001,2.7,0.30000000000000004,0.1,0.2
1698921497648.0,16,0.0,0.0,0.0,-0.30000000000000004,9.200000000000001,2.7,0.1,0.0,0.2
1698921497666.0,16,0.0,0.0,0.0,-0.30000000000000004,9.200000000000001,2.7,0.1,0.0,0.2
1698921497682.0,16,0.0,0.0,0.0,-0.30000000000000004,9.1,2.7,0.30000000000000004,0.30000000000000004,0.2
1698921497698.0,16,0.0,0.0,0.0,-0.30000000000000004,9.1,2.7,0.30000000000000004,0.0,0.4
1698921497715.0,16,0.0,0.0,0.0,-0.30000000000000004,9.200000000000001,2.7,0.30000000000000004,0.0,0.2
1698921497732.0,16,0.0,0.0,0.0,-0.30000000000000004,9.200000000000001,2.7,0.30000000000000004,0.1,0.0
1698921497748.0,16,0.0,0.0,0.0,-0.30000000000000004,9.200000000000001,2.7,0.30000000000000004,0.5,0.1
1698921497767.0,16,0.0,0.0,0.0,-0.30000000000000004,9.1,2.7,0.4,0.5,0.2
1698921497782.0,16,0.0,0.0,0.0,-0.30000000000000004,9.200000000000001,2.7,0.1,0.30000000000000004,0.2
1698921497799.0,16,0.0,0.0,0.0,-0.30000000000000004,9.200000000000001,2.7,0.0,0.2,0.30000000000000004
1698921497815.0,16,0.0,0.0,0.0,-0.30000000000000004,9.1,2.7,0.1,-0.2,0.4
1698921497832.0,16,0.0,0.0,0.0,-0.30000000000000004,9.1,2.7,0.1,-0.1,0.30000000000000004
1698921497849.0,16,0.0,0.0,0.0,-0.30000000000000004,9.1,2.7,0.30000000000000004,-0.30000000000000004,0.2
1698921497866.0,16,0.0,0.0,0.0,-0.30000000000000004,9.1,2.7,0.4,0.0,0.1
1698921497882.0,16,0.0,0.0,0.0,-0.30000000000000004,9.1,2.7,0.5,0.0,0.1
1698921497899.0,16,0.0,0.0,0.0,-0.30000000000000004,9.200000000000001,2.7,0.5,-0.1,-0.1
1698921497917.0,16,0.0,0.0,0.0,-0.30000000000000004,9.1,2.7,0.8,0.0,-0.2
1698921497932.0,16,0.0,0.0,0.0,-0.30000000000000004,9.200000000000001,2.7,0.9,0.0,-0.2
1698921497949.0,16,0.0,0.0,0.0,-0.30000000000000004,9.200000000000001,2.7,0.9,-0.2,-0.2
1698921497965.0,16,0.0,0.0,0.0,-0.30000000000000004,9.200000000000001,2.7,0.8,-0.30000000000000004,-0.2
1698921497982.0,16,0.0,0.1,0.0,-0.30000000000000004,9.3,2.7,0.7,-0.5,-0.2
1698921498000.0,16,0.0,0.0,0.0,-0.30000000000000004,9.200000000000001,2.7,0.7,-0.2,-0.4
1698921498016.0,16,0.0,0.0,0.0,-0.30000000000000004,9.200000000000001,2.7,0.6000000000000001,0.1,-0.1
1698921498032.0,16,0.0,0.0,0.0,-0.30000000000000004,9.1,2.7,0.6000000000000001,0.0,-0.1
1698921498049.0,16,0.0,0.0,0.0,-0.30000000000000004,9.200000000000001,2.7,0.2,0.2,0.2
1698921498065.0,16,0.0,0.0,0.0,-0.30000000000000004,9.1,2.7,0.4,0.1,0.2
1698921498082.0,16,0.0,0.0,0.0,-0.30000000000000004,9.1,2.7,0.5,0.0,0.2
1698921498099.0,16,0.0,0.0,0.0,-0.30000000000000004,9.1,2.7,0.6000000000000001,-0.2,0.1
1698921498115.0,16,0.0,0.0,0.0,-0.30000000000000004,9.200000000000001,2.7,0.6000000000000001,0.0,0.2
1698921498132.0,16,0.0,0.0,0.0,-0.30000000000000004,9.200000000000001,2.7,0.6000000000000001,0.2,0.1
1698921498149.0,16,0.0,0.0,0.0,-0.30000000000000004,9.200000000000001,2.7,0.4,0.0,0.0
1698921498165.0,16,0.0,0.0,0.0,-0.30000000000000004,9.200000000000001,2.7,0.30000000000000004,0.30000000000000004,0.0
1698921498182.0,16,0.0,0.0,0.0,-0.30000000000000004,9.200000000000001,2.6,0.1,0.6000000000000001,0.30000000000000004
1698921498199.0,16,0.0,0.0,-0.1,-0.30000000000000004,9.200000000000001,2.6,-0.4,0.8,0.30000000000000004
1698921498215.0,16,0.0,0.0,-0.1,-0.30000000000000004,9.200000000000001,2.6,-1.0999999999999999,1.4,0.5
1698921498232.0,16,0.0,0.0,-0.1,-0.30000000000000004,9.200000000000001,2.6,-1.6,1.9,0.5
1698921498249.0,16,0.0,0.0,0.0,-0.30000000000000004,9.200000000000001,2.6,-2.1,2.1999999999999997,1.0
1698921498265.0,16,0.0,0.0,-0.1,-0.30000000000000004,9.200000000000001,2.6,-2.1999999999999997,2.4000000000000004,1.2000000000000002
1698921498282.0,16,0.0,0.0,0.0,-0.2,9.200000000000001,2.7,-2.7,2.4000000000000004,1.2000000000000002
1698921498298.0,16,0.0,0.0,0.0,-0.30000000000000004,9.200000000000001,2.7,-2.7,2.4000000000000004,1.0999999999999999
1698921498315.0,16,0.0,0.0,0.0,-0.2,9.200000000000001,2.7,-2.7,1.8,0.5
1698921498331.0,16,0.0,0.0,0.0,-0.30000000000000004,9.200000000000001,2.7,-2.4000000000000004,1.4,0.30000000000000004
1698921498348.0,16,0.0,0.0,0.0,-0.30000000000000004,9.1,2.7,-2.4000000000000004,1.3,0.2
1698921498365.0,16,0.0,0.0,0.0,-0.30000000000000004,9.1,2.7,-2.0,0.8,0.2
1698921498381.0,16,0.0,-0.1,0.0,-0.30000000000000004,9.1,2.7,-1.8,0.6000000000000001,0.30000000000000004
1698921498400.0,16,0.0,0.0,0.0,-0.30000000000000004,9.1,2.7,-1.7,0.6000000000000001,0.4
1698921498415.0,16,0.0,0.0,0.0,-0.30000000000000004,9.1,2.7,-1.4,0.30000000000000004,0.4
1698921498431.0,16,0.0,0.0,0.0,-0.30000000000000004,9.1,2.7,-1.0999999999999999,0.4,0.4
1698921498448.0,16,0.0,0.0,0.0,-0.30000000000000004,9.200000000000001,2.7,-0.9,0.2,0.2
1698921498465.0,16,0.0,0.0,-0.1,-0.30000000000000004,9.1,2.7,-0.8,0.0,0.2
1698921498481.0,16,0.0,0.0,0.0,-0.30000000000000004,9.1,2.8000000000000003,-0.8,-0.5,-0.1
1698921498498.0,16,0.0,0.0,0.0,-0.30000000000000004,9.1,2.8000000000000003,0.1,-0.2,-0.2
1698921498515.0,16,0.0,-0.1,0.0,-0.30000000000000004,9.1,2.8000000000000003,0.5,-0.2,-0.1
1698921498531.0,16,0.0,0.0,0.0,-0.30000000000000004,9.1,2.7,0.5,-0.5,0.1
1698921498548.0,16,0.0,0.0,0.0,-0.30000000000000004,9.200000000000001,2.7,0.1,-0.30000000000000004,0.1
1698921498565.0,16,0.0,0.0,0.0,-0.30000000000000004,9.200000000000001,2.7,0.30000000000000004,-0.2,0.1
1698921498582.0,16,0.0,0.0,0.0,-0.30000000000000004,9.200000000000001,2.7,0.30000000000000004,0.0,0.1
1698921498598.0,16,0.0,0.0,0.0,-0.30000000000000004,9.1,2.7,-0.2,-0.5,0.1
1698921498615.0,16,0.0,0.0,0.0,-0.30000000000000004,9.1,2.7,-0.30000000000000004,-0.6000000000000001,-0.1
1698921498631.0,16,0.0,0.0,0.0,-0.30000000000000004,9.200000000000001,2.7,-0.30000000000000004,-0.5,0.1
1698921498648.0,16,0.0,0.0,0.0,-0.30000000000000004,9.1,2.7,-0.2,-0.6000000000000001,0.1
1698921498665.0,16,0.0,0.0,0.0,-0.30000000000000004,9.1,2.8000000000000003,0.0,-0.7,0.1
1698921498681.0,16,0.0,0.0,0.0,-0.2,9.1,2.8000000000000003,0.0,-0.6000000000000001,0.1
1698921498698.0,16,0.0,0.0,0.0,-0.30000000000000004,9.1,2.7,0.30000000000000004,-0.4,0.0
1698921498715.0,16,0.0,0.0,0.0,-0.30000000000000004,9.200000000000001,2.7,0.5,-0.6000000000000001,-0.1
1698921498731.0,16,0.0,0.0,0.0,-0.30000000000000004,9.200000000000001,2.7,0.8,-1.0,-0.2
1698921498748.0,16,0.0,0.0,-0.1,-0.30000000000000004,9.200000000000001,2.7,0.7,-1.3,-0.30000000000000004
1698921498765.0,16,0.0,0.0,0.0,-0.30000000000000004,9.200000000000001,2.7,0.6000000000000001,-1.2000000000000002,-0.5
1698921498782.0,16,0.0,0.0,0.0,-0.30000000000000004,9.1,2.7,0.6000000000000001,-0.9,-0.4
1698921498799.0,16,0.0,-0.1,0.0,-0.30000000000000004,9.1,2.7,0.7,-0.8,-0.30000000000000004
1698921498815.0,16,0.0,0.0,0.0,-0.30000000000000004,9.1,2.8000000000000003,0.4,-0.5,-0.2
1698921498832.0,16,0.0,0.0,0.0,-0.30000000000000004,9.200000000000001,2.7,0.30000000000000004,-0.2,0.1
1698921498849.0,16,0.0,0.0,0.0,-0.30000000000000004,9.200000000000001,2.7,0.5,-0.1,0.0
1698921498866.0,16,0.0,0.0,0.0,-0.30000000000000004,9.1,2.7,1.0,-0.5,-0.2
1698921498882.0,16,0.0,0.0,0.0,-0.30000000000000004,9.1,2.7,1.2000000000000002,-0.5,-0.30000000000000004
1698921498899.0,16,0.0,0.0,0.0,-0.30000000000000004,9.200000000000001,2.7,1.0999999999999999,-0.6000000000000001,-0.4
1698921498915.0,16,0.0,0.0,0.0,-0.30000000000000004,9.200000000000001,2.7,0.9,-0.30000000000000004,-0.4
1698921498932.0,16,0.0,0.0,0.0,-0.30000000000000004,9.1,2.7,0.6000000000000001,0.1,-0.1
1698921498948.0,16,0.0,0.0,0.0,-0.30000000000000004,9.1,2.7,0.5,-0.30000000000000004,-0.30000000000000004
1698921498965.0,16,0.0,0.0,0.0,-0.30000000000000004,9.200000000000001,2.7,0.5,-0.6000000000000001,-0.1
1698921498982.0,16,0.0,0.0,0.0,-0.30000000000000004,9.1,2.8000000000000003,0.30000000000000004,-0.8,-0.30000000000000004
1698921498998.0,16,0.0,0.0,0.0,-0.30000000000000004,9.1,2.7,0.1,-0.5,-0.1
1698921499015.0,16,0.0,0.0,0.0,-0.30000000000000004,9.1,2.7,0.30000000000000004,-0.30000000000000004,0.0
1698921499032.0,16,0.0,-0.1,0.0,-0.2,9.1,2.8000000000000003,0.5,-0.30000000000000004,0.4
1698921499048.0,16,0.0,0.0,0.0,-0.30000000000000004,9.1,2.7,1.0,-0.30000000000000004,0.5
1698921499065.0,16,0.0,0.0,0.0,-0.2,9.1,2.7,1.0999999999999999,-0.5,0.6000000000000001
1698921499082.0,16,0.1,-0.1,0.0,-0.2,9.1,2.7,1.6,-0.8,0.7
1698921499099.0,16,0.0,0.0,0.1,-0.2,9.1,2.8000000000000003,1.9,-0.4,0.6000000000000001
1698921499115.0,16,0.0,0.0,0.1,-0.2,9.1,2.8000000000000003,1.9,-0.2,0.5
1698921499132.0,16,0.0,0.0,0.1,-0.30000000000000004,9.200000000000001,2.8000000000000003,2.3000000000000003,0.2,0.7
1698921499149.0,16,0.0,0.0,0.1,-0.30000000000000004,9.200000000000001,2.7,2.6,0.30000000000000004,0.8
1698921499165.0,16,0.0,0.0,0.0,-0.30000000000000004,9.200000000000001,2.7,2.3000000000000003,0.4,0.8
1698921499182.0,16,0.0,0.0,0.0,-0.30000000000000004,9.200000000000001,2.7,2.1,0.4,0.8
1698921499198.0,16,0.0,0.0,0.0,-0.2,9.200000000000001,2.7,1.7,0.2,0.7
1698921499215.0,16,0.0,0.0,0.1,-0.30000000000000004,9.200000000000001,2.8000000000000003,1.3,0.30000000000000004,0.8
1698921499232.0,16,0.0,0.0,0.1,-0.30000000000000004,9.200000000000001,2.7,1.2000000000000002,0.30000000000000004,1.2000000000000002
1698921499248.0,16,0.0,0.1,0.0,-0.30000000000000004,9.200000000000001,2.7,0.4,0.0,1.2000000000000002
1698921499265.0,16,0.0,0.1,0.0,-0.30000000000000004,9.3,2.7,-0.30000000000000004,0.0,0.7
1698921499282.0,16,0.0,0.1,0.0,-0.30000000000000004,9.3,2.7,-0.30000000000000004,-0.2,0.30000000000000004
1698921499298.0,16,0.0,0.0,-0.1,-0.30000000000000004,9.200000000000001,2.6,-1.0,0.0,-0.30000000000000004
1698921499315.0,16,0.0,0.0,-0.1,-0.30000000000000004,9.200000000000001,2.6,-1.4,-0.1,-0.1
1698921499331.0,16,0.0,0.0,-0.1,-0.30000000000000004,9.200000000000001,2.6,-1.7,-0.1,0.1
1698921499348.0,16,0.0,0.0,-0.1,-0.30000000000000004,9.1,2.6,-1.9,-0.30000000000000004,0.30000000000000004
1698921499365.0,16,-0.1,0.0,-0.1,-0.30000000000000004,9.200000000000001,2.6,-1.8,-1.0,0.0
1698921499381.0,16,-0.1,0.0,-0.1,-0.30000000000000004,9.200000000000001,2.6,-1.9,-1.2000000000000002,-0.2
1698921499398.0,16,0.0,0.0,-0.1,-0.30000000000000004,9.200000000000001,2.6,-1.5000000000000002,-1.3,-0.5
1698921499415.0,16,0.0,-0.1,0.0,-0.2,9.1,2.7,-0.9,-1.6,-0.8
1698921499432.0,16,0.0,-0.1,0.0,-0.2,9.1,2.7,-0.6000000000000001,-1.7,-0.8
1698921499448.0,16,0.0,0.0,0.0,-0.2,9.1,2.7,-0.2,-1.6,-1.0
1698921499466.0,16,0.0,0.0,0.0,-0.2,9.1,2.7,-0.1,-1.5000000000000002,-1.0
1698921499482.0,16,0.1,0.0,0.0,-0.2,9.1,2.7,0.2,-1.4,-0.7
1698921499498.0,16,0.0,0.0,0.0,-0.2,9.200000000000001,2.6,0.30000000000000004,-0.9,-0.6000000000000001
1698921499515.0,16,0.0,0.0,0.0,-0.2,9.200000000000001,2.7,0.4,-0.7,-0.4
1698921499532.0,16,0.0,0.0,-0.1,-0.2,9.200000000000001,2.6,0.30000000000000004,-0.30000000000000004,-0.2
1698921499548.0,16,0.0,0.0,0.0,-0.2,9.1,2.7,0.2,-0.2,-0.5
1698921499565.0,16,0.1,0.0,0.0,-0.2,9.1,2.7,0.2,0.0,-0.6000000000000001
1698921499582.0,16,0.1,0.0,0.0,-0.2,9.1,2.7,0.5,0.0,-0.2
1698921499598.0,16,0.0,0.0,0.0,-0.2,9.1,2.7,0.1,0.6000000000000001,0.2
1698921499615.0,16,0.0,0.0,0.0,-0.2,9.200000000000001,2.7,-0.2,0.5,0.30000000000000004
1698921499632.0,16,0.0,0.0,0.0,-0.30000000000000004,9.200000000000001,2.7,-0.30000000000000004,0.6000000000000001,0.2
1698921499649.0,16,0.0,0.1,0.0,-0.30000000000000004,9.3,2.7,-0.30000000000000004,0.9,-0.30000000000000004
1698921499665.0,16,0.0,-0.1,0.0,-0.30000000000000004,9.200000000000001,2.7,-0.30000000000000004,0.8,-0.6000000000000001
1698921499682.0,16,0.0,-0.1,0.0,-0.2,9.1,2.7,-0.30000000000000004,0.5,-0.5
1698921499698.0,16,0.0,0.0,0.0,-0.2,9.1,2.7,-0.5,0.30000000000000004,-0.2
1698921499715.0,16,0.0,0.0,0.0,-0.30000000000000004,9.200000000000001,2.7,-0.30000000000000004,0.5,-0.1
1698921499731.0,16,0.0,0.0,0.0,-0.30000000000000004,9.200000000000001,2.7,-0.30000000000000004,0.5,-0.2
1698921499749.0,16,0.0,0.0,0.0,-0.30000000000000004,9.200000000000001,2.7,-0.2,0.4,-0.30000000000000004
1698921499765.0,16,0.0,0.0,0.0,-0.30000000000000004,9.200000000000001,2.7,-0.6000000000000001,0.2,-0.1
1698921499782.0,16,0.0,0.0,0.0,-0.30000000000000004,9.200000000000001,2.7,-0.7,0.0,-0.1
1698921499798.0,16,0.0,0.0,0.0,-0.30000000000000004,9.200000000000001,2.7,-0.7,-0.2,-0.2
1698921499815.0,16,0.0,0.0,0.0,-0.30000000000000004,9.200000000000001,2.7,-0.8,-0.1,-0.1
1698921499832.0,16,0.0,0.0,0.0,-0.2,9.200000000000001,2.7,-0.6000000000000001,-0.1,-0.30000000000000004
1698921499848.0,16,0.0,0.0,0.0,-0.30000000000000004,9.200000000000001,2.7,-0.5,-0.2,-0.30000000000000004
1698921499865.0,16,0.0,-0.1,0.0,-0.2,9.1,2.7,-0.4,-0.30000000000000004,-0.30000000000000004
1698921499882.0,16,0.0,0.0,0.0,-0.2,9.1,2.6,-0.5,-0.30000000000000004,-0.1
1698921499899.0,16,0.0,0.0,0.0,-0.30000000000000004,9.1,2.7,-0.4,0.0,0.1
1698921499915.0,16,0.0,0.0,0.0,-0.30000000000000004,9.1,2.7,-0.4,0.0,0.1
1698921499931.0,16,0.0,0.0,0.0,-0.30000000000000004,9.200000000000001,2.7,-0.30000000000000004,0.1,0.2
1698921499948.0,16,0.0,0.0,0.0,-0.2,9.200000000000001,2.7,-0.4,0.2,0.1
1698921499965.0,16,0.0,0.0,0.0,-0.2,9.1,2.7,-0.30000000000000004,0.2,0.2
1698921499982.0,16,0.0,0.0,0.0,-0.30000000000000004,9.1,2.7,-0.30000000000000004,0.2,0.2
1698921499998.0,16,0.0,0.0,0.0,-0.30000000000000004,9.1,2.7,-0.2,0.6000000000000001,0.4
1698921500015.0,16,0.0,0.0,0.0,-0.30000000000000004,9.1,2.7,-0.2,0.7,0.4
1698921500032.0,16,0.0,0.0,0.0,-0.30000000000000004,9.1,2.7,-0.4,0.5,0.4
1698921500049.0,16,0.0,0.0,0.0,-0.30000000000000004,9.200000000000001,2.7,-0.4,0.30000000000000004,0.2
1698921500065.0,16,0.0,0.0,0.0,-0.30000000000000004,9.1,2.7,-0.5,0.2,0.1
1698921500081.0,16,0.0,0.0,0.0,-0.30000000000000004,9.200000000000001,2.7,-0.4,0.30000000000000004,-0.1
1698921500098.0,16,0.0,0.0,0.0,-0.30000000000000004,9.1,2.7,-0.5,0.8,0.0
1698921500115.0,16,0.0,0.0,0.0,-0.30000000000000004,9.1,2.7,-0.5,0.7,0.30000000000000004
1698921500132.0,16,0.0,0.0,0.0,-0.30000000000000004,9.200000000000001,2.7,-0.7,0.7,0.2
1698921500148.0,16,0.0,0.0,0.0,-0.30000000000000004,9.1,2.7,-0.9,0.5,0.4
1698921500165.0,16,0.0,0.0,0.0,-0.30000000000000004,9.200000000000001,2.7,-0.8,0.30000000000000004,0.2
1698921500182.0,16,0.0,0.0,0.0,-0.30000000000000004,9.1,2.7,-0.7,0.2,0.4
1698921500198.0,16,0.0,0.0,0.0,-0.30000000000000004,9.200000000000001,2.7,-0.7,0.30000000000000004,0.2
1698921500215.0,16,0.0,0.0,0.0,-0.30000000000000004,9.200000000000001,2.7,-0.6000000000000001,0.2,0.0
1698921500232.0,16,0.0,0.0,0.0,-0.30000000000000004,9.1,2.7,-0.5,0.2,-0.1
1698921500249.0,16,0.0,0.0,0.0,-0.30000000000000004,9.1,2.7,-0.30000000000000004,0.2,-0.2
1698921500265.0,16,0.0,0.0,0.0,-0.30000000000000004,9.1,2.7,-0.1,0.30000000000000004,-0.2
1698921500282.0,16,0.0,0.0,0.0,-0.30000000000000004,9.1,2.7,0.0,0.30000000000000004,-0.30000000000000004
1698921500298.0,16,0.0,0.0,0.0,-0.30000000000000004,9.1,2.7,0.0,0.30000000000000004,-0.30000000000000004
1698921500315.0,16,0.0,0.0,0.0,-0.30000000000000004,9.200000000000001,2.7,0.0,0.2,0.1
1698921500332.0,16,0.0,0.0,0.0,-0.30000000000000004,9.1,2.7,-0.1,0.2,0.2
1698921500348.0,16,0.0,0.0,0.0,-0.30000000000000004,9.1,2.7,-0.1,0.0,0.1
1698921500365.0,16,0.0,0.0,0.0,-0.2,9.1,2.7,0.1,0.30000000000000004,0.1
1698921500382.0,16,0.0,0.0,0.0,-0.30000000000000004,9.1,2.7,0.30000000000000004,0.5,0.1
1698921500399.0,16,0.0,0.0,0.0,-0.2,9.1,2.7,0.4,0.5,0.1
1698921500415.0,16,0.0,0.0,0.0,-0.2,9.200000000000001,2.7,0.5,0.5,0.2
1698921500432.0,16,0.0,0.1,0.0,-0.2,9.200000000000001,2.7,0.30000000000000004,0.8,0.4
1698921500449.0,16,0.0,0.0,0.0,-0.30000000000000004,9.200000000000001,2.7,0.2,0.9,0.4
1698921500465.0,16,0.0,0.0,0.0,-0.30000000000000004,9.1,2.7,0.2,0.8,0.4
1698921500482.0,16,0.0,0.0,0.0,-0.30000000000000004,9.200000000000001,2.7,0.30000000000000004,0.6000000000000001,0.2
1698921500498.0,16,0.0,0.0,0.0,-0.30000000000000004,9.1,2.7,0.30000000000000004,0.7,0.2
1698921500515.0,16,0.0,0.0,0.0,-0.30000000000000004,9.200000000000001,2.7,0.30000000000000004,0.5,0.0
1698921500532.0,16,0.0,0.0,0.0,-0.30000000000000004,9.1,2.7,0.30000000000000004,0.5,0.0
1698921500548.0,16,0.0,0.0,0.0,-0.30000000000000004,9.200000000000001,2.7,0.30000000000000004,0.6000000000000001,-0.1
1698921500565.0,16,0.0,0.0,0.0,-0.30000000000000004,9.200000000000001,2.7,0.30000000000000004,0.4,-0.30000000000000004
1698921500582.0,16,0.0,0.0,0.0,-0.30000000000000004,9.1,2.7,0.0,0.5,-0.1
1698921500598.0,16,0.0,0.0,0.0,-0.30000000000000004,9.1,2.7,0.0,0.5,0.0
1698921500615.0,16,0.0,0.0,0.1,-0.30000000000000004,9.200000000000001,2.7,0.1,0.2,0.0
1698921500632.0,16,0.0,0.0,0.0,-0.30000000000000004,9.200000000000001,2.7,0.0,0.30000000000000004,-0.1
1698921500648.0,16,0.0,0.0,0.0,-0.30000000000000004,9.200000000000001,2.7,-0.1,0.2,-0.1
1698921500665.0,16,0.0,0.0,0.0,-0.30000000000000004,9.200000000000001,2.7,0.1,0.0,-0.1
1698921500682.0,16,0.0,0.0,0.0,-0.30000000000000004,9.200000000000001,2.7,-0.1,0.0,-0.30000000000000004
1698921500698.0,16,0.0,0.0,0.0,-0.30000000000000004,9.200000000000001,2.7,-0.1,-0.1,-0.2
1698921500715.0,16,0.0,0.0,0.0,-0.30000000000000004,9.200000000000001,2.7,-0.30000000000000004,-0.2,-0.4
1698921500731.0,16,0.0,0.0,0.0,-0.30000000000000004,9.200000000000001,2.7,-0.5,-0.1,-0.30000000000000004
1698921500748.0,16,0.0,0.0,0.0,-0.30000000000000004,9.200000000000001,2.7,-0.5,-0.1,-0.30000000000000004
1698921500765.0,16,0.0,0.0,0.0,-0.30000000000000004,9.200000000000001,2.7,-0.5,0.0,-0.1
1698921500781.0,16,0.0,0.0,0.1,-0.30000000000000004,9.200000000000001,2.8000000000000003,-0.4,-0.1,0.0
1698921500798.0,16,0.0,0.0,0.0,-0.30000000000000004,9.200000000000001,2.7,-0.4,-0.2,-0.1
1698921500815.0,16,0.0,0.0,0.0,-0.30000000000000004,9.1,2.7,-0.30000000000000004,0.0,-0.1
1698921500832.0,16,0.0,0.0,0.0,-0.30000000000000004,9.200000000000001,2.7,-0.2,0.2,0.0
1698921500848.0,16,0.0,0.0,0.0,-0.30000000000000004,9.1,2.7,-0.30000000000000004,-0.1,0.1
1698921500865.0,16,0.0,0.0,0.0,-0.30000000000000004,9.1,2.7,-0.30000000000000004,-0.5,0.0
1698921500882.0,16,0.0,0.0,0.0,-0.30000000000000004,9.200000000000001,2.8000000000000003,-0.4,-0.30000000000000004,-0.5
1698921500898.0,16,0.0,0.0,0.0,-0.30000000000000004,9.200000000000001,2.8000000000000003,-0.4,-0.2,-0.5
1698921500915.0,16,0.0,0.0,0.0,-0.30000000000000004,9.200000000000001,2.7,-0.6000000000000001,-0.30000000000000004,-0.4
1698921500931.0,16,0.0,0.0,0.0,-0.30000000000000004,9.200000000000001,2.7,-1.3,-0.5,-0.1
1698921500948.0,16,0.0,0.0,0.0,-0.30000000000000004,9.200000000000001,2.7,-1.4,-0.6000000000000001,-0.30000000000000004
1698921500965.0,16,0.0,0.0,0.0,-0.30000000000000004,9.200000000000001,2.7,-1.6,-0.6000000000000001,-0.30000000000000004
1698921500982.0,16,0.0,0.0,0.0,-0.30000000000000004,9.200000000000001,2.7,-1.9,-1.2000000000000002,-0.30000000000000004
1698921500999.0,16,-0.1,0.1,0.0,-0.30000000000000004,9.3,2.8000000000000003,-2.7,-2.1,-1.0
1698921501015.0,16,-0.1,0.1,0.1,-0.4,9.200000000000001,2.8000000000000003,-3.2,-2.4000000000000004,-1.3
1698921501033.0,16,-0.1,0.2,0.1,-0.4,9.3,2.8000000000000003,-3.3000000000000003,-1.3,-2.4000000000000004
1698921501048.0,16,0.0,0.1,0.1,-0.30000000000000004,9.200000000000001,2.9000000000000004,-3.1,-1.3,-3.4
1698921501065.0,16,0.0,0.0,0.1,-0.30000000000000004,9.200000000000001,2.9000000000000004,-2.8,-1.0999999999999999,-3.1
1698921501082.0,16,0.0,0.0,0.0,-0.30000000000000004,9.200000000000001,2.8000000000000003,-2.6,-0.9,-2.1
1698921501099.0,16,-0.1,0.1,-0.1,-0.4,9.200000000000001,2.7,-2.8,-0.8,-1.7
1698921501115.0,16,-0.1,0.0,-0.1,-0.4,9.200000000000001,2.7,-3.4,-1.4,-1.2000000000000002
1698921501132.0,16,-0.1,0.0,-0.1,-0.4,9.1,2.7,-3.3000000000000003,-2.1999999999999997,-0.5
1698921501149.0,16,-0.1,0.0,-0.1,-0.4,9.200000000000001,2.7,-3.2,-2.3000000000000003,-0.6000000000000001
1698921501165.0,16,-0.1,0.0,-0.1,-0.4,9.200000000000001,2.7,-3.4,-2.0,-1.4
1698921501182.0,16,-0.1,0.1,-0.1,-0.4,9.200000000000001,2.7,-4.5,-1.0999999999999999,-1.4
1698921501201.0,16,-0.1,0.0,-0.2,-0.4,9.1,2.6,-5.500000000000001,-1.3,-0.7
1698921501216.0,16,-0.1,-0.1,-0.2,-0.4,9.1,2.7,-6.000000000000001,-1.4,0.0
1698921501232.0,16,-0.1,-0.1,-0.2,-0.5,9.0,2.7,-6.1000000000000005,-2.1999999999999997,0.7
1698921501248.0,16,-0.1,-0.1,-0.1,-0.5,9.0,2.7,-5.8,-3.1,0.9
1698921501265.0,16,-0.1,-0.1,-0.1,-0.5,9.1,2.7,-5.500000000000001,-3.1,0.7
1698921501282.0,16,-0.1,0.0,-0.1,-0.4,9.1,2.8000000000000003,-5.0,-3.0000000000000004,0.5
1698921501298.0,16,0.0,0.1,0.0,-0.4,9.200000000000001,2.8000000000000003,-4.6000000000000005,-2.7,0.2
1698921501315.0,16,0.0,0.0,0.0,-0.30000000000000004,9.1,2.9000000000000004,-4.6000000000000005,-2.5,0.2
1698921501332.0,16,0.0,0.1,0.0,-0.30000000000000004,9.200000000000001,2.9000000000000004,-5.0,-1.7,0.1
1698921501348.0,16,0.0,0.1,0.0,-0.30000000000000004,9.200000000000001,3.0,-5.2,-0.8,0.1
1698921501366.0,16,0.0,0.1,0.0,-0.4,9.3,3.0,-5.300000000000001,0.5,0.2
1698921501382.0,16,-0.1,0.1,-0.1,-0.4,9.200000000000001,2.9000000000000004,-6.000000000000001,0.7,0.4
1698921501400.0,16,0.0,0.0,-0.1,-0.4,9.1,2.8000000000000003,-7.500000000000001,1.6,1.0999999999999999
1698921501415.0,16,0.0,-0.1,-0.1,-0.4,9.0,2.9000000000000004,-7.6,3.1,1.8
1698921501432.0,16,-0.1,-0.1,-0.1,-0.4,9.0,2.9000000000000004,-7.1000000000000005,3.0000000000000004,1.9
1698921501449.0,16,-0.1,0.1,-0.1,-0.5,9.1,2.9000000000000004,-6.4,2.4000000000000004,1.5000000000000002
1698921501465.0,16,-0.1,0.1,-0.1,-0.5,9.200000000000001,2.9000000000000004,-6.3,1.4,0.4
1698921501482.0,16,-0.1,0.2,0.0,-0.5,9.3,3.0,-6.7,1.3,-0.30000000000000004
1698921501499.0,16,-0.1,0.2,0.0,-0.5,9.3,3.1,-7.1000000000000005,2.6,-1.5000000000000002
1698921501517.0,16,-0.1,0.2,0.0,-0.6000000000000001,9.3,3.1,-7.2,2.7,-2.6
1698921501531.0,16,-0.1,0.2,0.0,-0.6000000000000001,9.3,3.1,-8.600000000000001,4.5,-4.1000000000000005
1698921501549.0,16,-0.1,0.1,0.0,-0.6000000000000001,9.200000000000001,3.1,-9.600000000000001,6.1000000000000005,-4.300000000000001
1698921501565.0,16,-0.1,0.1,0.0,-0.6000000000000001,9.200000000000001,3.1,-11.1,6.4,-4.9
1698921501582.0,16,-0.2,0.1,0.0,-0.7000000000000001,9.200000000000001,3.1,-11.4,8.600000000000001,-6.000000000000001
1698921501599.0,16,-0.5,0.0,0.0,-1.0,9.1,3.2,-11.8,10.2,-6.1000000000000005
1698921501615.0,16,-0.7000000000000001,0.0,-0.1,-1.3,9.0,3.2,-11.3,10.4,-5.4
1698921501632.0,16,-0.8,-0.1,-0.2,-1.4000000000000001,9.0,3.0,-10.9,10.2,-4.9
1698921501649.0,16,-0.7000000000000001,-0.2,-0.4,-1.4000000000000001,8.9,2.8000000000000003,-10.700000000000001,9.1,-3.5
1698921501665.0,16,-0.6000000000000001,-0.4,-0.6000000000000001,-1.3,8.6,2.7,-9.700000000000001,7.500000000000001,-1.4
1698921501682.0,16,-0.6000000000000001,-0.5,-0.6000000000000001,-1.2000000000000002,8.5,2.7,-8.600000000000001,6.3,-0.1
1698921501700.0,16,-0.5,-0.5,-0.6000000000000001,-1.2000000000000002,8.5,2.8000000000000003,-5.4,2.4000000000000004,1.5000000000000002
1698921501715.0,16,-0.6000000000000001,-0.30000000000000004,-0.5,-1.2000000000000002,8.700000000000001,2.8000000000000003,-2.1999999999999997,0.30000000000000004,1.0
1698921501732.0,16,-0.7000000000000001,-0.1,-0.6000000000000001,-1.4000000000000001,8.9,2.7,-1.6,0.4,0.30000000000000004
1698921501748.0,16,-0.7000000000000001,0.0,-0.5,-1.4000000000000001,9.0,2.9000000000000004,-2.7,0.2,-0.30000000000000004
1698921501765.0,16,-0.4,0.0,0.0,-1.1,9.0,3.3000000000000003,-0.6000000000000001,-2.5,-1.7
1698921501782.0,16,-0.2,0.0,0.0,-0.8,9.0,3.4000000000000004,0.6000000000000001,-3.6,-2.6
1698921501798.0,16,0.1,0.0,0.1,-0.6000000000000001,9.0,3.5,-0.6000000000000001,-4.800000000000001,1.8
1698921501815.0,16,0.2,-0.1,0.1,-0.5,8.9,3.5,-2.6,-2.0,3.0000000000000004
1698921501832.0,16,0.2,-0.2,0.1,-0.4,8.8,3.5,-3.0000000000000004,-1.7,3.2
1698921501848.0,16,0.30000000000000004,-0.1,0.30000000000000004,-0.30000000000000004,8.8,3.7,-2.5,-3.2,4.2
1698921501865.0,16,0.4,0.0,0.4,-0.30000000000000004,8.9,3.7,-2.1,-3.7000000000000006,5.1
1698921501882.0,16,0.4,0.1,0.5,-0.2,9.1,3.9000000000000004,-3.5,-3.3000000000000003,7.500000000000001
1698921501898.0,16,0.4,0.4,0.6000000000000001,-0.2,9.4,4.0,-6.9,-4.3999999999999995,9.5
1698921501915.0,16,0.30000000000000004,0.30000000000000004,0.6000000000000001,-0.2,9.200000000000001,4.1000000000000005,-10.2,-2.9,9.8
1698921501932.0,16,0.4,0.1,0.7000000000000001,-0.1,9.1,4.1000000000000005,-10.8,-2.7,9.600000000000001
1698921501948.0,16,0.5,0.0,0.8,0.1,9.0,4.3,-9.600000000000001,-6.3,9.1
1698921501965.0,16,0.5,0.1,0.7000000000000001,0.1,9.0,4.3,-10.0,-7.6,9.9
1698921501982.0,16,0.6000000000000001,0.2,0.6000000000000001,0.2,9.1,4.2,-11.1,-7.400000000000001,10.4
1698921501998.0,16,0.7000000000000001,0.1,0.6000000000000001,0.4,9.0,4.2,-12.6,-6.3,11.3
1698921502015.0,16,0.9,-0.30000000000000004,0.4,0.6000000000000001,8.6,4.1000000000000005,-13.0,-5.9,12.4
1698921502032.0,16,0.9,-0.4,0.4,0.7000000000000001,8.5,4.0,-13.700000000000001,-6.1000000000000005,13.200000000000001
1698921502048.0,16,1.0,-0.6000000000000001,0.4,0.8,8.3,4.1000000000000005,-15.399999999999999,-7.1000000000000005,14.0
1698921502065.0,16,0.9,-0.4,0.30000000000000004,0.7000000000000001,8.5,4.1000000000000005,-16.5,-5.2,13.700000000000001
1698921502081.0,16,0.9,-0.30000000000000004,0.2,0.7000000000000001,8.5,4.0,-17.1,-3.3000000000000003,13.4
1698921502098.0,16,0.9,-0.30000000000000004,0.2,0.8,8.5,4.0,-16.3,0.0,12.9
1698921502115.0,16,0.7000000000000001,-0.4,0.0,0.7000000000000001,8.4,3.9000000000000004,-15.399999999999999,2.8,13.6
1698921502132.0,16,0.6000000000000001,-0.4,-0.1,0.6000000000000001,8.4,3.8000000000000003,-15.399999999999999,3.2,14.4
1698921502148.0,16,0.5,-0.2,-0.1,0.5,8.6,3.9000000000000004,-15.5,2.3000000000000003,14.800000000000002
1698921502165.0,16,0.4,0.30000000000000004,-0.1,0.5,9.0,4.0,-14.700000000000001,3.4,11.5
1698921502182.0,16,0.4,0.4,-0.1,0.5,9.1,4.0,-15.000000000000002,3.6,9.9
1698921502198.0,16,0.4,0.1,-0.1,0.5,8.8,4.0,-17.3,3.9,8.5
1698921502215.0,16,0.4,-0.4,-0.1,0.5,8.3,4.1000000000000005,-18.400000000000002,3.3000000000000003,8.200000000000001
1698921502232.0,16,0.4,-0.5,-0.1,0.6000000000000001,8.1,4.1000000000000005,-18.2,3.1,7.8
1698921502248.0,16,0.4,-0.5,0.0,0.6000000000000001,8.1,4.2,-15.9,4.6000000000000005,7.1000000000000005
1698921502265.0,16,0.4,-0.4,0.0,0.6000000000000001,8.3,4.2,-13.8,7.8,6.8
1698921502282.0,16,0.30000000000000004,-0.30000000000000004,-0.1,0.5,8.3,4.2,-13.100000000000001,8.0,6.6000000000000005
1698921502298.0,16,0.2,-0.5,-0.2,0.4,8.1,4.2,-13.0,8.0,6.6000000000000005
1698921502329.0,16,0.4,-0.7000000000000001,-0.30000000000000004,0.6000000000000001,7.800000000000001,4.1000000000000005,-13.0,9.600000000000001,6.000000000000001
1698921502331.0,16,0.4,-0.7000000000000001,-0.30000000000000004,0.6000000000000001,7.800000000000001,4.1000000000000005,-12.100000000000001,10.3,5.4
1698921502348.0,16,0.4,-0.7000000000000001,-0.5,0.6000000000000001,7.800000000000001,3.9000000000000004,-11.2,10.700000000000001,4.9
1698921502365.0,16,0.4,-0.7000000000000001,-0.8,0.6000000000000001,7.800000000000001,3.6,-9.4,10.5,5.500000000000001
1698921502382.0,16,0.30000000000000004,-0.6000000000000001,-0.8,0.4,8.3,3.8000000000000003,-8.5,8.700000000000001,6.3
1698921502398.0,16,0.2,0.30000000000000004,-0.5,0.4,8.8,4.0,-5.8,0.5,5.500000000000001
1698921502415.0,16,0.2,1.5,0.0,0.4,10.0,4.5,-1.9,-5.300000000000001,3.0000000000000004
1698921502432.0,16,0.1,1.6,0.0,0.30000000000000004,10.100000000000001,4.5,-1.6,-4.9,0.2
1698921502450.0,16,-0.1,0.2,0.0,0.1,8.6,4.5,-6.000000000000001,0.1,-3.4
1698921502465.0,16,-0.5,0.2,-0.5,-0.2,8.700000000000001,4.0,-6.000000000000001,2.3000000000000003,3.6
1698921502482.0,16,-0.6000000000000001,0.5,-0.5,-0.4,8.9,4.0,-4.6000000000000005,2.0,7.300000000000001
1698921502499.0,16,-0.6000000000000001,0.7000000000000001,-0.6000000000000001,-0.4,9.1,3.9000000000000004,-0.30000000000000004,1.0999999999999999,11.6
1698921502516.0,16,0.0,0.5,-0.9,0.30000000000000004,8.9,3.6,0.30000000000000004,-3.8,11.4
1698921502532.0,16,0.2,0.30000000000000004,-1.1,0.5,8.8,3.4000000000000004,-0.8,-6.7,11.8
1698921502549.0,16,0.30000000000000004,-0.2,-1.1,0.6000000000000001,8.3,3.4000000000000004,-1.7,-10.0,10.600000000000001
1698921502565.0,16,0.0,-0.2,-0.9,0.4,8.3,3.6,0.6000000000000001,-10.8,6.9
1698921502581.0,16,-0.1,-0.1,-0.7000000000000001,0.4,8.4,3.8000000000000003,2.5,-11.3,4.2
1698921502599.0,16,-0.2,0.0,-0.7000000000000001,0.30000000000000004,8.5,3.7,2.5,-12.3,4.1000000000000005
1698921502615.0,16,-0.4,0.0,-0.8,0.1,8.4,3.6,2.1999999999999997,-15.000000000000002,5.500000000000001
1698921502632.0,16,-0.4,-0.2,-0.5,0.2,8.200000000000001,3.9000000000000004,3.1,-20.900000000000002,6.8
1698921502648.0,16,-0.30000000000000004,-0.30000000000000004,-0.4,0.30000000000000004,8.200000000000001,4.1000000000000005,4.0,-24.200000000000003,6.3
1698921502665.0,16,0.0,-0.30000000000000004,-0.2,0.6000000000000001,8.1,4.2,4.2,-27.1,3.2
1698921502682.0,16,0.0,-0.5,-0.30000000000000004,0.7000000000000001,7.9,4.1000000000000005,4.5,-29.1,0.7
1698921502698.0,16,0.1,-0.6000000000000001,-0.4,0.8,7.9,3.9000000000000004,5.7,-31.3,0.7
1698921502715.0,16,0.0,-0.2,-0.4,0.7000000000000001,8.3,3.9000000000000004,8.5,-35.1,3.1
1698921502731.0,16,-0.1,0.0,-0.30000000000000004,0.7000000000000001,8.8,4.1000000000000005,8.9,-33.6,0.5
1698921502749.0,16,0.4,0.6000000000000001,-0.2,1.3,9.1,4.0,8.4,-34.300000000000004,-2.3000000000000003
1698921502765.0,16,0.6000000000000001,0.6000000000000001,-0.30000000000000004,1.5,9.200000000000001,4.0,7.1000000000000005,-31.5,-4.2
1698921502781.0,16,0.6000000000000001,0.7000000000000001,-0.2,1.6,9.3,4.0,5.6,-26.6,-7.1000000000000005
1698921502798.0,16,0.8,0.8,-0.2,1.6,9.4,4.0,5.6,-21.0,-13.100000000000001
1698921502815.0,16,0.9,0.6000000000000001,-0.4,1.8,9.200000000000001,3.8000000000000003,5.8,-19.400000000000002,-14.200000000000001
1698921502832.0,16,1.0,0.2,-0.4,1.8,8.8,3.7,3.5,-19.6,-9.1
1698921502849.0,16,0.9,0.1,-0.4,1.8,8.700000000000001,3.7,2.5,-19.6,-5.500000000000001
1698921502865.0,16,0.7000000000000001,0.0,-0.5,1.6,8.6,3.6,1.4,-18.2,-0.30000000000000004
1698921502882.0,16,0.5,0.30000000000000004,-0.6000000000000001,1.5,8.9,3.5,-0.7,-14.0,0.4
1698921502898.0,16,0.6000000000000001,0.30000000000000004,-0.7000000000000001,1.5,8.9,3.4000000000000004,-1.9,-13.200000000000001,-1.2000000000000002
1698921502915.0,16,0.6000000000000001,0.30000000000000004,-0.9,1.6,8.9,3.2,-4.300000000000001,-11.8,-6.000000000000001
1698921502931.0,16,0.4,0.0,-1.2000000000000002,1.4000000000000001,8.6,3.0,-6.4,-10.5,-7.1000000000000005
1698921502949.0,16,0.30000000000000004,-0.1,-1.3,1.3,8.5,2.9000000000000004,-7.6,-9.200000000000001,-6.5
1698921502965.0,16,0.1,-0.30000000000000004,-1.4000000000000001,1.1,8.3,2.7,-10.0,-8.0,-5.300000000000001
1698921502981.0,16,0.0,-0.4,-1.6,1.0,8.1,2.5,-12.9,-7.400000000000001,-4.800000000000001
1698921502999.0,16,0.0,-0.4,-1.8,1.0,8.1,2.4000000000000004,-18.5,-7.699999999999999,-5.4
1698921503015.0,16,0.2,-0.5,-1.9000000000000001,1.1,8.0,2.3000000000000003,-21.900000000000002,-8.5,-5.9
1698921503032.0,16,0.30000000000000004,-0.7000000000000001,-1.9000000000000001,1.2000000000000002,7.800000000000001,2.3000000000000003,-28.1,-11.1,-7.1000000000000005
1698921503048.0,16,0.2,-0.8,-2.0,1.2000000000000002,7.6000000000000005,2.4000000000000004,-33.5,-12.200000000000001,-7.0
1698921503065.0,16,0.0,-1.0,-1.9000000000000001,1.0,7.4,2.5,-35.9,-13.0,-5.6
1698921503081.0,16,-0.2,-1.7000000000000002,-1.5,0.8,6.6000000000000005,3.0,-36.6,-18.8,-0.8
1698921503098.0,16,-0.4,-2.2,-1.3,0.6000000000000001,6.1000000000000005,3.2,-34.400000000000006,-24.5,1.0
1698921503115.0,16,-0.7000000000000001,-2.7,-1.4000000000000001,0.4,5.5,3.2,-29.1,-37.4,2.7
1698921503131.0,16,-0.7000000000000001,-1.9000000000000001,-2.0,0.4,6.2,2.6,-31.2,-40.7,4.1000000000000005
1698921503148.0,16,-0.4,-1.1,-2.0,0.7000000000000001,7.0,2.6,-35.8,-34.2,5.8
1698921503165.0,16,0.4,1.6,-2.4000000000000004,1.6,9.600000000000001,2.4000000000000004,-43.50000000000001,-19.6,-1.7
1698921503182.0,16,1.1,3.3000000000000003,-1.9000000000000001,2.2,11.3,3.0,-47.5,3.4,-19.1
1698921503198.0,16,1.6,3.8000000000000003,-1.8,2.7,11.8,3.2,-44.5,12.4,-27.8
1698921503215.0,16,2.3000000000000003,4.800000000000001,-2.1,3.3000000000000003,12.8,3.0,-35.6,30.599999999999998,-34.800000000000004
1698921503232.0,16,2.1,5.800000000000001,-2.6,3.0,13.8,2.5,-25.6,32.4,-26.1
1698921503248.0,16,1.8,6.5,-2.4000000000000004,2.2,15.4,3.9000000000000004,-19.6,24.7,-17.3
1698921503266.0,16,0.6000000000000001,8.5,-0.9,1.4000000000000001,16.5,4.3,8.600000000000001,8.799999999999999,1.5000000000000002
1698921503282.0,16,0.0,9.4,-1.4000000000000001,0.8,17.6,3.6,41.800000000000004,-23.400000000000002,15.299999999999999
1698921503298.0,16,-1.1,8.3,-1.3,-0.2,16.6,3.6,50.1,-12.100000000000001,20.7
1698921503315.0,16,-1.9000000000000001,4.1000000000000005,0.1,-1.0,12.4,4.9,63.10000000000001,11.4,7.6
1698921503331.0,16,0.7000000000000001,1.4000000000000001,2.7,1.5,10.0,7.300000000000001,78.2,26.9,-41.7
1698921503348.0,16,2.1,1.0,3.5,3.3000000000000003,9.600000000000001,7.7,75.80000000000001,28.900000000000002,-58.5
1698921503365.0,16,1.9000000000000001,0.7000000000000001,2.7,2.4000000000000004,9.4,7.0,32.300000000000004,34.800000000000004,-50.2
1698921503381.0,16,0.0,0.1,1.3,0.4,8.8,5.6000000000000005,-5.1,36.4,-21.400000000000002
1698921503398.0,16,-0.5,-0.7000000000000001,-0.4,-0.2,8.0,4.0,-13.200000000000001,35.6,7.1000000000000005
1698921503415.0,16,-0.8,-1.3,-0.7000000000000001,-0.4,7.300000000000001,3.8000000000000003,-12.100000000000001,33.5,14.0
1698921503432.0,16,-1.0,-2.0,-0.2,-0.7000000000000001,6.7,4.2,-8.799999999999999,27.5,11.6
1698921503449.0,16,-0.2,-1.8,0.0,0.0,6.9,4.5,-10.8,33.6,-6.2
1698921503465.0,16,0.0,-1.8,-0.2,0.2,6.7,4.3,-13.8,36.6,-14.600000000000001
1698921503482.0,16,-0.2,-3.3000000000000003,-1.1,-0.1,5.2,3.4000000000000004,-18.5,33.5,-14.800000000000002
1698921503498.0,16,-0.9,-4.2,-1.6,-0.9,4.3,3.0,-16.400000000000002,30.100000000000005,-6.2
1698921503515.0,16,-0.9,-4.1000000000000005,-1.7000000000000002,-0.9,4.4,2.9000000000000004,-12.700000000000001,32.6,0.4
1698921503532.0,16,-1.7000000000000002,-4.3,-1.8,-1.7000000000000002,4.1000000000000005,2.8000000000000003,-5.7,40.3,6.000000000000001
1698921503548.0,16,-1.9000000000000001,-4.2,-2.3000000000000003,-2.1,4.2,2.3000000000000003,0.9,45.1,5.6
1698921503565.0,16,-2.0,-4.0,-2.6,-2.3000000000000003,4.6000000000000005,1.8,2.7,43.0,3.7000000000000006
1698921503582.0,16,-2.2,-3.5,-2.7,-2.5,4.800000000000001,1.8,3.1,33.2,-2.0
1698921503598.0,16,-2.7,-2.7,-2.7,-3.0,5.6000000000000005,1.8,4.300000000000001,27.7,-5.1
1698921503615.0,16,-2.8000000000000003,-2.2,-2.9000000000000004,-3.1,6.2,1.5,9.1,2.4000000000000004,-10.3
1698921503631.0,16,-2.4000000000000004,-0.9,-3.2,-2.8000000000000003,7.5,1.2000000000000002,11.5,-24.6,-8.9
1698921503648.0,16,-1.7000000000000002,-0.6000000000000001,-3.4000000000000004,-2.0,7.800000000000001,1.0,13.0,-29.300000000000004,-6.8
1698921503665.0,16,-1.3,1.3,-3.8000000000000003,-1.6,9.700000000000001,0.5,18.400000000000002,-49.3,-7.2
1698921503682.0,16,-1.3,2.3000000000000003,-2.8000000000000003,-1.6,10.700000000000001,1.4000000000000001,17.599999999999998,-50.7,-13.3
1698921503698.0,16,-1.0,3.8000000000000003,-1.2000000000000002,-1.4000000000000001,12.3,3.0,31.0,-35.0,-21.8
1698921503715.0,16,-0.7000000000000001,5.300000000000001,-1.3,-1.1,13.8,2.8000000000000003,41.2,-30.299999999999997,-22.6
1698921503732.0,16,-0.2,7.4,-2.3000000000000003,-0.6000000000000001,16.0,1.7000000000000002,42.900000000000006,-23.900000000000002,-24.000000000000004
1698921503748.0,16,-0.30000000000000004,5.0,0.30000000000000004,-0.7000000000000001,13.700000000000001,4.1000000000000005,21.0,-15.299999999999999,-15.9
1698921503765.0,16,0.0,4.4,6.300000000000001,-0.4,13.100000000000001,10.200000000000001,36.6,-10.4,-8.4
1698921503782.0,16,3.2,8.0,6.4,2.7,16.900000000000002,10.0,132.0,13.8,-20.0
1698921503798.0,16,4.0,5.800000000000001,5.2,3.5,14.8,8.5,145.29999999999998,-11.9,-43.6
1698921503815.0,16,1.9000000000000001,-3.0,2.4000000000000004,1.3,6.1000000000000005,5.5,63.4,21.5,-27.5
1698921503831.0,16,-0.5,-3.4000000000000004,0.7000000000000001,-1.1,5.7,3.8000000000000003,-11.3,5.2,34.300000000000004
1698921503848.0,16,-1.5,-1.1,3.0,-1.9000000000000001,8.0,6.1000000000000005,6.9,2.4000000000000004,46.4
1698921503865.0,16,0.6000000000000001,4.1000000000000005,3.3000000000000003,-1.2000000000000002,10.600000000000001,6.2,29.600000000000005,15.299999999999999,28.500000000000004
1698921503883.0,16,1.5,5.300000000000001,3.5,1.0,14.5,6.4,50.6,33.5,-43.0
1698921503898.0,16,0.7000000000000001,3.1,3.5,0.0,12.4,6.4,2.6,26.400000000000002,-54.4
1698921503915.0,16,0.1,1.3,2.0,-0.6000000000000001,10.600000000000001,4.9,-15.6,24.8,-25.400000000000002
1698921503933.0,16,-1.3,-0.5,-0.8,-2.0,8.700000000000001,2.2,-19.6,31.6,25.1
1698921503948.0,16,-1.4000000000000001,-1.5,-1.3,-2.1,7.7,1.7000000000000002,-23.700000000000003,7.1000000000000005,26.700000000000003
1698921503965.0,16,-0.8,-2.9000000000000004,-0.8,-1.5,6.300000000000001,2.4000000000000004,-22.900000000000002,-14.3,1.0
1698921503983.0,16,-0.5,-3.2,-0.8,-1.2000000000000002,5.9,2.3000000000000003,-23.400000000000002,-16.0,-7.300000000000001
1698921503999.0,16,0.1,-3.6,-1.4000000000000001,-0.5,5.4,1.8,-27.6,-17.5,-10.0
1698921504016.0,16,0.7000000000000001,-3.9000000000000004,-1.4000000000000001,0.1,5.1000000000000005,1.8,-30.7,-17.200000000000003,-9.700000000000001
1698921504032.0,16,2.1,-4.7,-1.8,1.4000000000000001,4.3,1.6,-29.700000000000003,-11.5,-9.1
1698921504048.0,16,2.8000000000000003,-5.6000000000000005,-2.4000000000000004,2.1,3.3000000000000003,1.0,-27.400000000000002,-1.0999999999999999,-7.6
1698921504065.0,16,2.9000000000000004,-6.1000000000000005,-2.5,2.3000000000000003,2.7,1.0,-29.800000000000004,9.700000000000001,-0.7
1698921504082.0,16,2.9000000000000004,-5.9,-2.2,2.2,2.8000000000000003,1.4000000000000001,-31.7,16.3,5.1
1698921504098.0,16,2.5,-4.9,-1.5,1.8,3.8000000000000003,2.1,-31.6,42.2,16.0
1698921504115.0,16,2.5,-3.9000000000000004,-1.3,1.8,4.7,2.3000000000000003,-29.800000000000004,57.3,17.3
1698921504132.0,16,2.3000000000000003,-1.4000000000000001,-1.5,1.6,7.2,2.2,-23.8,87.9,6.8
1698921504148.0,16,2.8000000000000003,1.3,-3.1,2.0,9.9,0.6000000000000001,-28.200000000000003,92.2,-7.6
1698921504165.0,16,2.1,3.1,-3.4000000000000004,1.2000000000000002,11.600000000000001,0.4,-38.6,78.3,-15.299999999999999
1698921504181.0,16,-2.0,6.300000000000001,-1.3,-4.0,15.4,2.4000000000000004,-51.2,49.9,13.4
1698921504198.0,16,-4.3,6.1000000000000005,-2.6,-5.2,14.600000000000001,1.3,-31.4,5.0,62.900000000000006
1698921504215.0,16,-3.6,3.8000000000000003,-4.2,-4.3,12.4,-0.2,-30.4,-21.5,58.00000000000001
1698921504232.0,16,-1.9000000000000001,2.7,0.0,-2.5,11.3,4.0,-29.800000000000004,-10.2,35.1
1698921504249.0,16,-0.9,4.800000000000001,8.3,-1.6,13.5,12.3,100.2,4.5,-23.8
1698921504265.0,16,-1.1,7.0,5.300000000000001,-1.8,15.9,8.9,208.70000000000002,-73.2,-19.400000000000002
1698921504282.0,16,-1.3,5.800000000000001,5.2,-1.7000000000000002,14.9,8.1,283.8,-67.0,37.7
1698921504298.0,16,0.9,1.6,5.800000000000001,0.6000000000000001,11.0,8.0,164.9,-6.000000000000001,39.8
1698921504316.0,16,2.9000000000000004,0.30000000000000004,8.0,2.6,9.700000000000001,10.200000000000001,35.7,-86.7,-6.000000000000001
1698921504332.0,16,2.7,1.8,4.9,2.3000000000000003,11.200000000000001,7.2,-53.300000000000004,-21.400000000000002,-23.5
1698921504348.0,16,1.3,6.9,1.3,1.0,16.3,3.9000000000000004,-31.3,-33.0,36.9
1698921504365.0,16,0.2,6.7,1.5,0.1,16.1,4.0,-13.5,-68.80000000000001,64.8
1698921504382.0,16,-1.9000000000000001,1.7000000000000002,2.1,-1.7000000000000002,11.100000000000001,4.7,-6.1000000000000005,-57.6,64.0
1698921504399.0,16,0.0,-1.9000000000000001,0.2,0.30000000000000004,7.5,2.9000000000000004,-44.3,-9.9,6.5
1698921504415.0,16,0.7000000000000001,-3.3000000000000003,-0.4,0.9,6.0,2.5,-59.7,2.8,-19.8
1698921504431.0,16,0.4,-4.5,-1.2000000000000002,0.5,4.7,1.9000000000000001,-59.7,10.700000000000001,-13.9
1698921504448.0,16,0.1,-4.9,-1.4000000000000001,0.2,4.2,1.8,-58.3,12.000000000000002,-7.8
1698921504465.0,16,-0.8,-5.7,-1.8,-0.7000000000000001,3.4000000000000004,1.5,-51.300000000000004,11.1,1.8
1698921504482.0,16,-1.1,-5.9,-2.1,-1.0,3.1,1.3,-47.300000000000004,11.6,4.6000000000000005
1698921504498.0,16,-1.7000000000000002,-6.2,-2.2,-1.6,2.7,1.3,-37.0,14.0,2.9
1698921504515.0,16,-2.4000000000000004,-6.2,-2.2,-2.3000000000000003,2.6,1.4000000000000001,-25.1,15.8,-5.0
1698921504531.0,16,-3.1,-5.800000000000001,-2.2,-3.1,2.9000000000000004,1.4000000000000001,-8.0,1.9,-15.9
1698921504548.0,16,-3.3000000000000003,-5.300000000000001,-2.7,-3.3000000000000003,3.5,0.9,0.5,-16.700000000000003,-21.6
1698921504565.0,16,-3.3000000000000003,-3.4000000000000004,-3.2,-3.4000000000000004,5.300000000000001,0.30000000000000004,5.500000000000001,-56.0,-21.6
1698921504582.0,16,-2.9000000000000004,-1.4000000000000001,-3.2,-3.0,7.300000000000001,0.30000000000000004,-3.8,-71.9,-7.1000000000000005
1698921504598.0,16,-2.6,-0.7000000000000001,-2.6,-2.7,8.0,0.9,-9.700000000000001,-71.10000000000001,1.0999999999999999
1698921504615.0,16,-0.30000000000000004,1.5,-1.5,-0.30000000000000004,10.200000000000001,2.1,-10.4,-59.7,1.0999999999999999
1698921504633.0,16,0.5,3.9000000000000004,-1.5,0.6000000000000001,12.600000000000001,2.0,2.1999999999999997,-68.80000000000001,-21.1
1698921504648.0,16,0.7000000000000001,4.9,-1.6,0.7000000000000001,13.600000000000001,1.9000000000000001,9.1,-70.5,-27.2
1698921504665.0,16,1.1,6.1000000000000005,-2.1,1.1,14.9,1.3,12.4,-43.2,-40.2
1698921504681.0,16,1.9000000000000001,4.6000000000000005,1.8,1.8,13.5,5.2,18.3,0.5,-55.6
1698921504698.0,16,3.1,5.6000000000000005,7.2,2.9000000000000004,14.5,10.600000000000001,52.50000000000001,25.8,-58.60000000000001
1698921504715.0,16,5.4,6.800000000000001,5.1000000000000005,4.9,15.9,8.1,159.0,75.5,-83.0
1698921504732.0,16,4.800000000000001,-1.2000000000000002,2.9000000000000004,4.2,8.0,5.4,137.4,16.0,-43.0
1698921504748.0,16,2.3000000000000003,-3.9000000000000004,2.7,1.6,5.4,5.1000000000000005,77.7,18.2,-4.7
1698921504764.0,16,-0.9,-4.4,8.200000000000001,-1.4000000000000001,4.9,10.600000000000001,-7.400000000000001,43.1,59.300000000000004
1698921504781.0,16,-2.6,7.2,5.7,-3.0,16.5,8.200000000000001,13.6,54.4,60.20000000000001
1698921504798.0,16,-1.2000000000000002,12.3,3.4000000000000004,-1.5,21.700000000000003,5.800000000000001,16.2,40.5,46.0
1698921504815.0,16,2.0,8.8,2.8000000000000003,1.7000000000000002,18.2,5.300000000000001,-2.7,70.3,-15.000000000000002
1698921504831.0,16,-1.2000000000000002,0.1,1.6,-1.6,9.600000000000001,4.1000000000000005,-14.100000000000001,43.50000000000001,1.6
1698921504850.0,16,-1.6,-0.9,0.5,-2.0,8.5,3.0,-17.8,48.800000000000004,16.0
1698921504865.0,16,-1.9000000000000001,-2.0,-1.3,-2.3000000000000003,7.5,1.3,-30.100000000000005,29.000000000000004,20.4
1698921504881.0,16,-1.2000000000000002,-3.4000000000000004,-0.8,-1.6,5.9,2.0,-47.6,2.8,7.400000000000001
1698921504898.0,16,-0.6000000000000001,-4.0,-0.5,-1.0,5.300000000000001,2.3000000000000003,-52.300000000000004,2.8,-0.7
1698921504915.0,16,0.9,-5.300000000000001,-0.7000000000000001,0.4,3.9000000000000004,2.3000000000000003,-49.0,13.200000000000001,-15.100000000000001
1698921504931.0,16,1.6,-5.9,-1.3,1.8,2.6,1.1,-43.7,15.5,-19.700000000000003
1698921504949.0,16,2.9000000000000004,-6.9,-2.3000000000000003,2.4000000000000004,2.2,0.8,-39.00000000000001,15.7,-22.8
1698921504965.0,16,3.8000000000000003,-7.300000000000001,-2.5,3.2,1.7000000000000002,0.7000000000000001,-39.00000000000001,25.700000000000003,-24.8
1698921504981.0,16,3.9000000000000004,-7.7,-2.9000000000000004,3.2,1.1,0.4,-41.4,49.7,-22.6
1698921504999.0,16,3.8000000000000003,-7.5,-3.2,3.1,1.2000000000000002,0.2,-46.4,62.0,-17.5
1698921505015.0,16,2.8000000000000003,-6.1000000000000005,-2.6,2.0,2.6,0.9,-57.1,88.5,-1.7
1698921505032.0,16,1.1,-3.2,-1.6,0.2,5.4,2.0,-50.0,100.7,13.700000000000001
1698921505048.0,16,-0.30000000000000004,-1.4000000000000001,-2.2,-1.2000000000000002,7.1000000000000005,1.4000000000000001,-41.5,104.60000000000001,20.1
1698921505065.0,16,-0.4,3.0,-3.8000000000000003,-1.4000000000000001,11.5,-0.1,-43.1,97.10000000000001,24.6
1698921505081.0,16,-1.1,8.6,-1.7000000000000002,-2.2,17.1,2.1,-48.6,73.8,11.1
1698921505098.0,16,-2.9000000000000004,9.9,-0.7000000000000001,-4.0,18.400000000000002,3.1,-33.0,52.2,21.700000000000003
1698921505115.0,16,-4.2,4.0,-3.3000000000000003,-5.1000000000000005,12.5,0.5,7.500000000000001,-23.2,71.9
1698921505131.0,16,-1.7000000000000002,0.4,0.1,-2.4000000000000004,9.0,3.9000000000000004,17.7,-53.7,70.2
1698921505148.0,16,-1.9000000000000001,0.8,3.4000000000000004,-2.5,9.5,7.1000000000000005,46.1,-14.900000000000002,47.7
1698921505165.0,16,-5.2,5.1000000000000005,7.7,-5.7,14.0,11.0,196.4,-73.50000000000001,33.6
1698921505181.0,16,-2.4000000000000004,5.800000000000001,5.6000000000000005,-2.7,15.100000000000001,8.0,327.0,-163.6,31.099999999999998
1698921505199.0,16,4.7,3.9000000000000004,7.9,4.5,13.3,9.600000000000001,168.4,39.6,-20.3
1698921505215.0,16,5.7,3.4000000000000004,13.4,5.4,12.9,15.200000000000001,20.2,-66.0,-68.60000000000001
1698921505233.0,16,3.3000000000000003,4.5,3.4000000000000004,2.8000000000000003,13.9,5.4,-55.800000000000004,-22.2,-46.4
1698921505248.0,16,1.6,5.300000000000001,1.0,1.2000000000000002,14.8,3.0,-54.4,-9.0,7.300000000000001
1698921505265.0,16,-1.4000000000000001,5.0,2.2,-1.6,14.5,4.4,-29.1,-42.800000000000004,110.8
1698921505281.0,16,-1.8,4.7,-0.4,-1.5,14.200000000000001,1.8,-5.2,-44.4,106.4
1698921505299.0,16,-2.0,2.7,-0.1,-1.9000000000000001,9.5,2.5,-10.4,-37.900000000000006,73.4
1698921505315.0,16,-2.0,-2.3000000000000003,0.0,-1.5,7.2,2.4000000000000004,-30.299999999999997,6.3,2.8
1698921505331.0,16,-1.0,-3.8000000000000003,-0.6000000000000001,-0.7000000000000001,5.6000000000000005,1.9000000000000001,-46.1,12.4,-31.2
1698921505348.0,16,-0.6000000000000001,-4.2,-1.1,-0.30000000000000004,5.2,1.4000000000000001,-51.2,12.200000000000001,-31.0
1698921505365.0,16,-0.4,-4.6000000000000005,-1.9000000000000001,-0.2,4.7,0.9,-60.8,17.8,-21.8
1698921505381.0,16,-0.6000000000000001,-4.9,-1.7000000000000002,-0.5,4.3,1.3,-60.20000000000001,9.8,-20.0
1698921505398.0,16,-1.4000000000000001,-5.9,-1.5,-1.4000000000000001,3.2,1.5,-44.3,-6.7,-24.200000000000003
1698921505415.0,16,-1.9000000000000001,-6.300000000000001,-1.8,-1.9000000000000001,2.7,1.3,-33.400000000000006,-17.1,-25.5
1698921505431.0,16,-2.8000000000000003,-6.5,-3.1,-2.9000000000000004,2.5,0.0,-22.900000000000002,-40.4,-28.8
1698921505448.0,16,-3.2,-6.5,-3.4000000000000004,-3.4000000000000004,2.4000000000000004,-0.2,-22.6,-66.80000000000001,-30.799999999999997
1698921505465.0,16,-3.4000000000000004,-6.0,-3.7,-3.5,2.9000000000000004,-0.4,-22.6,-92.7,-32.7
1698921505482.0,16,-4.6000000000000005,-3.6,-3.2,-4.7,5.2,0.1,-19.8,-156.6,-28.700000000000003
1698921505499.0,16,-4.5,-1.8,-3.3000000000000003,-4.6000000000000005,6.9,0.0,-18.1,-175.3,-18.900000000000002
1698921505521.0,16,-0.2,3.3000000000000003,-4.5,-0.1,12.0,-1.1,-54.4,-103.0,-14.4
1698921505531.0,16,1.2000000000000002,4.4,-3.4000000000000004,1.4000000000000001,13.100000000000001,0.1,-65.3,-96.3,-30.799999999999997
1698921505548.0,16,4.0,7.0,0.4,4.1000000000000005,15.700000000000001,4.1000000000000005,-45.4,-105.10000000000001,-73.8
1698921505565.0,16,4.0,8.4,1.6,4.0,17.1,5.300000000000001,-21.8,-59.9,-90.10000000000001
1698921505581.0,16,4.5,6.9,-0.9,4.2,15.700000000000001,2.7,31.6,44.7,-84.2
1698921505598.0,16,3.7,0.7000000000000001,-0.4,3.2,9.5,3.1,46.4,72.2,-46.4
1698921505615.0,16,5.4,-0.6000000000000001,4.7,4.9,8.4,8.1,70.0,52.2,-25.2
1698921505631.0,16,7.2,4.3,6.0,6.5,13.4,8.9,195.0,69.7,-37.300000000000004
1698921505648.0,16,1.7000000000000002,-2.4000000000000004,3.4000000000000004,1.0,6.9,5.6000000000000005,201.4,32.1,-31.0
1698921505665.0,16,-0.8,-5.1000000000000005,6.0,-1.6,4.2,8.1,141.1,27.3,5.4
1698921505682.0,16,-3.9000000000000004,-3.9000000000000004,1.7000000000000002,-4.5,5.4,3.7,-10.600000000000001,84.1,62.4
1698921505698.0,16,-2.9000000000000004,-0.1,5.300000000000001,-3.5,9.200000000000001,7.4,-48.400000000000006,64.9,55.2
1698921505715.0,16,-2.1,3.4000000000000004,5.9,-2.7,12.700000000000001,8.1,-29.800000000000004,101.60000000000001,26.8
1698921505731.0,16,2.0,9.9,1.9000000000000001,1.3,19.3,4.0,27.6,103.80000000000001,-70.9
1698921505748.0,16,2.2,7.6000000000000005,1.8,1.1,17.1,3.8000000000000003,21.8,51.6,-92.8
1698921505765.0,16,1.7000000000000002,4.3,1.3,0.5,13.700000000000001,3.4000000000000004,-0.2,39.9,-42.7
1698921505783.0,16,0.5,-0.8,-0.9,-0.6000000000000001,8.700000000000001,1.2000000000000002,-39.699999999999996,19.400000000000002,46.0
1698921505798.0,16,-2.9000000000000004,-3.2,-1.0,-3.8000000000000003,6.2,1.3,-60.599999999999994,-9.600000000000001,79.3
1698921505815.0,16,-3.8000000000000003,-3.4000000000000004,-0.8,-4.6000000000000005,6.1000000000000005,1.7000000000000002,-62.7,-22.1,85.3
1698921505832.0,16,-3.3000000000000003,-3.3000000000000003,-0.9,-3.8000000000000003,6.0,1.7000000000000002,-64.30000000000001,0.8,60.1
1698921505848.0,16,-1.4000000000000001,-3.9000000000000004,-0.7000000000000001,-1.9000000000000001,5.300000000000001,2.1,-57.00000000000001,10.5,-1.6
1698921505865.0,16,0.4,-3.8000000000000003,-0.7000000000000001,-0.2,5.300000000000001,2.2,-46.900000000000006,6.5,-26.1
1698921505881.0,16,3.2,-4.1000000000000005,-1.1,2.5,5.0,1.8,-31.5,19.6,-55.0
1698921505898.0,16,5.2,-5.1000000000000005,-1.5,4.3,3.9000000000000004,1.5,-27.900000000000002,51.900000000000006,-53.00000000000001
1698921505915.0,16,5.9,-5.4,-1.7000000000000002,4.9,3.6,1.4000000000000001,-26.8,61.199999999999996,-33.300000000000004
1698921505932.0,16,5.6000000000000005,-4.800000000000001,-3.1,4.5,4.1000000000000005,0.0,-30.9,58.1,-20.0
1698921505949.0,16,3.6,-2.5,-4.0,2.5,6.300000000000001,-0.8,-62.6,50.300000000000004,17.8
1698921505965.0,16,2.6,-1.6,-3.4000000000000004,1.6,7.2,-0.1,-80.10000000000001,52.900000000000006,35.1
1698921505982.0,16,0.5,-0.4,-3.6,-0.5,8.3,0.0,-98.4,72.4,49.0
1698921505999.0,16,-1.0,2.0,-3.4000000000000004,-1.9000000000000001,10.600000000000001,0.5,-110.10000000000001,70.39999999999999,39.400000000000006
1698921506015.0,16,-2.2,3.3000000000000003,-2.2,-3.2,11.8,1.8,-103.4,55.900000000000006,29.500000000000004
1698921506034.0,16,-2.7,5.0,-1.6,-3.6,13.4,2.6,-58.00000000000001,23.6,17.8
1698921506049.0,16,-2.7,2.9000000000000004,-2.4000000000000004,-3.6,11.3,1.8,-8.9,8.5,10.700000000000001
1698921506065.0,16,-2.5,1.0,-0.1,-3.4000000000000004,9.5,4.1000000000000005,11.3,24.000000000000004,8.200000000000001
1698921506081.0,16,-2.5,0.30000000000000004,3.5,-3.6,8.9,7.4,108.8,59.300000000000004,4.300000000000001
1698921506099.0,16,-4.5,3.3000000000000003,5.5,-5.4,12.100000000000001,8.700000000000001,284.6,-129.20000000000002,43.7
1698921506115.0,16,-1.6,3.3000000000000003,3.8000000000000003,-4.5,12.5,5.7,340.70000000000005,-149.3,75.4
1698921506132.0,16,0.9,4.4,6.5,0.5,13.700000000000001,8.4,281.59999999999997,19.1,82.9
1698921506149.0,16,3.4000000000000004,5.6000000000000005,13.4,3.0,15.100000000000001,15.200000000000001,-27.2,-94.80000000000001,-36.5
1698921506165.0,16,2.9000000000000004,5.6000000000000005,7.1000000000000005,2.5,15.100000000000001,9.1,-73.2,-61.1,-51.800000000000004
1698921506182.0,16,0.7000000000000001,7.0,-0.5,0.30000000000000004,16.5,1.7000000000000002,-69.00000000000001,-27.1,20.900000000000002
1698921506199.0,16,-1.8,5.5,0.30000000000000004,-1.9000000000000001,14.9,2.7,-57.800000000000004,-48.2,79.10000000000001
1698921506215.0,16,-2.1,3.6,-0.4,-2.1,13.100000000000001,2.1,-44.00000000000001,-51.400000000000006,82.9
1698921506234.0,16,-1.8,0.0,-1.4000000000000001,-1.6,9.4,1.2000000000000002,-35.7,-42.6,45.7
1698921506249.0,16,-1.4000000000000001,-4.0,-1.2000000000000002,-1.2000000000000002,5.300000000000001,1.4000000000000001,-46.5,5.8,-10.600000000000001
1698921506265.0,16,-1.3,-4.7,-1.3,-0.8,4.4,1.3,-45.6,1.4,-34.900000000000006
1698921506282.0,16,-0.6000000000000001,-5.1000000000000005,-1.8,-0.6000000000000001,4.2,1.1,-43.800000000000004,-5.1,-36.7
1698921506299.0,16,-0.6000000000000001,-5.6000000000000005,-2.3000000000000003,-0.7000000000000001,3.6,0.7000000000000001,-42.1,-8.3,-32.9
1698921506315.0,16,-0.7000000000000001,-5.9,-2.4000000000000004,-0.8,3.2,0.7000000000000001,-41.5,-13.5,-30.299999999999997
1698921506332.0,16,-1.1,-6.5,-2.1,-1.3,2.6,1.0,-34.7,-27.8,-25.1
1698921506351.0,16,-1.3,-6.7,-2.5,-2.1,2.2,0.6000000000000001,-29.200000000000003,-38.2,-23.6
1698921506365.0,16,-2.9000000000000004,-6.7,-2.7,-3.1,2.2,0.6000000000000001,-22.4,-62.0,-19.500000000000004
1698921506382.0,16,-4.4,-5.7,-3.1,-4.6000000000000005,3.1,0.2,-17.5,-87.00000000000001,-7.300000000000001
1698921506398.0,16,-4.4,-3.4000000000000004,-3.7,-4.5,5.4,-0.4,-26.500000000000004,-87.7,2.3000000000000003
1698921506416.0,16,-1.7000000000000002,-0.1,-3.3000000000000003,-1.7000000000000002,8.6,0.2,-42.5,-78.80000000000001,-7.699999999999999
1698921506431.0,16,-0.1,1.3,-2.1,-0.2,10.0,1.4000000000000001,-43.6,-72.7,-20.3
1698921506448.0,16,4.4,4.7,0.7000000000000001,4.4,13.4,4.3,-12.8,-39.2,-49.9
1698921506465.0,16,4.7,6.300000000000001,0.2,2.4000000000000004,15.9,3.5,40.3,-34.0,-65.2
1698921506481.0,16,1.0,6.4,-0.2,0.8,15.200000000000001,3.2,61.199999999999996,-50.300000000000004,-44.00000000000001
1698921506498.0,16,3.0,2.4000000000000004,-0.8,2.8000000000000003,11.3,2.3000000000000003,66.7,-39.6,2.6
1698921506514.0,16,5.1000000000000005,5.0,7.800000000000001,5.0,14.0,10.8,82.9,11.9,-4.2
1698921506532.0,16,5.1000000000000005,6.6000000000000005,8.3,4.9,15.8,11.200000000000001,117.60000000000001,63.70000000000001,-27.5
1698921506549.0,16,3.2,2.0,5.4,2.9000000000000004,11.3,7.9,116.9,44.5,-42.300000000000004
1698921506564.0,16,0.1,-2.2,2.0,-0.4,7.1000000000000005,4.4,4.0,82.7,-3.2
1698921506581.0,16,-1.7000000000000002,-2.1,2.5,-2.2,7.2,4.9,-20.8,45.7,30.7
1698921506598.0,16,-2.6,2.7,5.0,-3.0,11.9,7.5,-0.5,46.4,38.0
1698921506615.0,16,-0.9,7.1000000000000005,2.2,-1.3,16.5,4.6000000000000005,32.1,60.00000000000001,9.1
1698921506632.0,16,0.5,7.0,1.3,0.1,16.400000000000002,3.7,22.1,62.6,-14.200000000000001
1698921506648.0,16,0.0,2.0,1.2000000000000002,-0.6000000000000001,11.4,3.7,-28.900000000000002,36.5,-37.2
1698921506665.0,16,-0.5,0.0,0.6000000000000001,-1.4000000000000001,8.3,2.4000000000000004,-43.1,26.9,-26.200000000000003
1698921506682.0,16,-0.8,-1.9000000000000001,-0.8,-1.6,7.5,1.9000000000000001,-51.400000000000006,13.3,-2.3000000000000003
1698921506698.0,16,-0.6000000000000001,-3.4000000000000004,-1.3,-1.3,5.9,1.5,-54.9,-1.8,2.7
1698921506715.0,16,-0.1,-4.6000000000000005,-1.4000000000000001,-0.8,4.6000000000000005,1.6,-55.5,-7.500000000000001,4.9
1698921506732.0,16,0.30000000000000004,-5.0,-1.5,0.2,3.7,1.5,-54.2,-8.600000000000001,5.4
1698921506748.0,16,1.3,-5.800000000000001,-2.2,0.6000000000000001,3.2,1.0,-48.800000000000004,-9.9,0.8
1698921506764.0,16,1.4000000000000001,-6.2,-2.5,0.8,2.7,0.8,-50.9,-7.300000000000001,-0.4
1698921506781.0,16,1.6,-6.2,-2.0,1.0,2.6,1.5,-49.4,12.4,5.500000000000001
1698921506798.0,16,1.9000000000000001,-6.2,-1.7000000000000002,1.3,2.6,1.8,-45.3,28.200000000000003,7.1000000000000005
1698921506816.0,16,2.5,-5.0,-2.4000000000000004,1.8,3.6,1.2000000000000002,-34.400000000000006,59.1,8.9
1698921506832.0,16,3.3000000000000003,-3.8000000000000003,-2.9000000000000004,2.6,4.800000000000001,0.8,-33.1,67.4,9.1
1698921506849.0,16,4.4,-0.7000000000000001,-3.0,3.7,7.9,0.7000000000000001,-36.5,83.0,0.1
1698921506865.0,16,3.4000000000000004,3.7,-3.6,2.6,12.200000000000001,0.2,-42.7,79.39999999999999,-9.200000000000001
1698921506882.0,16,0.9,5.800000000000001,-2.4000000000000004,0.1,14.3,1.4000000000000001,-43.2,62.8,-2.9
1698921506899.0,16,-3.4000000000000004,8.6,-1.9000000000000001,-4.2,17.1,2.0,-19.8,43.1,47.1
1698921506915.0,16,-3.1,5.7,-3.3000000000000003,-3.8000000000000003,14.3,0.6000000000000001,-0.8,9.700000000000001,62.8
1698921506932.0,16,-2.6,4.1000000000000005,-3.4000000000000004,-3.3000000000000003,12.700000000000001,0.4,0.5,1.9,24.400000000000002
1698921506949.0,16,-1.8,0.9,0.7000000000000001,-2.5,9.600000000000001,4.6000000000000005,7.0,22.6,-1.2000000000000002
1698921506965.0,16,-1.8,3.3000000000000003,6.5,-2.6,12.100000000000001,10.100000000000001,110.9,62.199999999999996,-21.900000000000002
1698921506982.0,16,-2.1,5.800000000000001,4.9,-2.9000000000000004,14.8,8.3,193.60000000000002,-17.200000000000003,4.0
1698921506998.0,16,-0.30000000000000004,4.0,4.9,-0.8,13.200000000000001,7.5,257.09999999999997,-62.50000000000001,62.8
1698921507015.0,16,0.1,0.7000000000000001,5.9,-0.2,10.100000000000001,8.0,140.5,20.6,62.0
1698921507032.0,16,1.5,0.2,5.1000000000000005,1.2000000000000002,9.600000000000001,7.2,29.1,-38.5,24.3
1698921507048.0,16,0.7000000000000001,-0.5,3.7,0.4,8.9,6.0,-66.3,-6.8,-8.3
1698921507065.0,16,0.7000000000000001,3.1,0.7000000000000001,0.5,12.5,3.2,-44.6,-31.8,22.900000000000002
1698921507081.0,16,-0.2,4.7,-0.8,-0.2,14.0,1.8,-18.5,-59.1,33.6
1698921507099.0,16,-0.6000000000000001,3.2,-0.9,-0.6000000000000001,12.600000000000001,1.7000000000000002,-17.1,-38.300000000000004,28.8
1698921507115.0,16,-0.5,-0.7000000000000001,-0.9,-0.4,8.6,1.7000000000000002,-16.1,-1.7,9.1
1698921507131.0,16,-0.7000000000000001,-3.6,-1.2000000000000002,-0.4,7.0,1.6,-16.8,4.2,-1.5000000000000002
1698921507148.0,16,-0.7000000000000001,-4.4,-1.2000000000000002,-0.7000000000000001,4.9,1.5,-28.200000000000003,23.5,-7.9
1698921507165.0,16,-0.8,-5.0,-1.3,-0.8,4.2,1.5,-39.2,24.8,0.2
1698921507181.0,16,-1.2000000000000002,-4.800000000000001,-1.6,-1.3,4.3,1.3,-42.300000000000004,5.300000000000001,4.9
1698921507198.0,16,-1.6,-4.800000000000001,-1.8,-1.6,4.2,1.2000000000000002,-43.0,-2.3000000000000003,4.300000000000001
1698921507215.0,16,-2.2,-4.9,-2.1,-2.3000000000000003,4.1000000000000005,1.0,-44.00000000000001,-9.600000000000001,1.5000000000000002
1698921507231.0,16,-2.4000000000000004,-5.0,-1.9000000000000001,-2.4000000000000004,3.9000000000000004,1.2000000000000002,-42.900000000000006,-13.8,-0.9
1698921507249.0,16,-2.5,-4.7,-1.9000000000000001,-2.5,4.1000000000000005,1.3,-34.400000000000006,-27.2,-8.5
1698921507265.0,16,-3.0,-3.3000000000000003,-2.4000000000000004,-3.1,5.5,1.0,-22.7,-56.800000000000004,-15.100000000000001
1698921507281.0,16,-3.5,-1.0,-2.4000000000000004,-3.6,7.800000000000001,1.0,-16.0,-91.2,-8.4
1698921507299.0,16,-3.6,0.30000000000000004,-2.6,-3.6,9.1,0.8,-14.4,-103.1,-3.4
1698921507315.0,16,-2.2,2.7,-2.7,-2.1,11.5,0.7000000000000001,-23.400000000000002,-103.60000000000001,-4.3999999999999995
1698921507331.0,16,1.3,4.1000000000000005,-1.3,1.4000000000000001,12.9,2.2,-31.5,-70.10000000000001,-38.0
1698921507348.0,16,2.0,4.5,-0.8,2.1,13.200000000000001,2.7,-29.300000000000004,-51.1,-57.400000000000006
1698921507365.0,16,1.5,4.800000000000001,-1.3,1.4000000000000001,13.5,2.2,-15.7,-27.400000000000002,-66.80000000000001
1698921507381.0,16,1.7000000000000002,4.1000000000000005,-1.9000000000000001,1.5,12.9,1.7000000000000002,-15.6,-16.1,-35.3
1698921507398.0,16,3.5,4.9,2.0,3.3000000000000003,13.700000000000001,5.7,-9.700000000000001,-11.9,-20.2
1698921507415.0,16,7.4,7.300000000000001,12.100000000000001,7.2,16.2,15.600000000000001,89.7,39.9,-47.1
1698921507431.0,16,3.8000000000000003,-0.4,3.2,3.2,8.700000000000001,6.300000000000001,178.10000000000002,63.10000000000001,-81.6
1698921507449.0,16,4.0,-3.3000000000000003,0.9,3.3000000000000003,5.9,3.8000000000000003,114.80000000000001,51.5,-53.8
1698921507465.0,16,-1.3,-6.300000000000001,5.1000000000000005,-2.1,2.8000000000000003,8.0,-38.900000000000006,43.50000000000001,0.1
1698921507481.0,16,-2.4000000000000004,0.8,9.600000000000001,-3.1,9.9,12.600000000000001,0.9,38.6,56.400000000000006
1698921507498.0,16,-1.5,6.300000000000001,2.1,-2.1,15.5,5.1000000000000005,39.8,47.800000000000004,53.9
1698921507515.0,16,1.5,8.1,1.0,0.9,17.3,3.9000000000000004,20.7,53.9,-10.3
1698921507532.0,16,1.5,3.0,1.6,0.7000000000000001,12.200000000000001,4.4,-1.7,53.400000000000006,-51.300000000000004
1698921507549.0,16,1.5,1.8,1.1,0.5,11.100000000000001,4.0,-14.900000000000002,40.4,-44.00000000000001
1698921507565.0,16,0.1,-0.2,-0.9,-0.9,9.0,2.0,-34.50000000000001,27.7,-9.5
1698921507581.0,16,-1.9000000000000001,-2.0,-1.2000000000000002,-2.9000000000000004,7.2,1.9000000000000001,-45.7,19.0,22.8
1698921507598.0,16,-1.9000000000000001,-3.2,-0.9,-2.8000000000000003,5.9,2.3000000000000003,-43.900000000000006,7.699999999999999,30.599999999999998
1698921507615.0,16,-1.3,-3.7,-1.2000000000000002,-2.2,5.4,2.1,-39.00000000000001,2.1,28.900000000000002
1698921507632.0,16,0.1,-4.800000000000001,-2.0,-0.7000000000000001,4.2,1.4000000000000001,-35.199999999999996,-6.8,16.0
1698921507649.0,16,1.3,-5.6000000000000005,-2.1,0.5,3.3000000000000003,1.4000000000000001,-36.2,-10.9,6.8
1698921507665.0,16,1.9000000000000001,-5.6000000000000005,-2.1,1.1,3.2,1.4000000000000001,-37.300000000000004,-10.9,-7.1000000000000005
1698921507681.0,16,2.9000000000000004,-6.0,-2.0,2.2,2.7,1.6,-35.9,5.500000000000001,-13.4
1698921507699.0,16,3.6,-5.6000000000000005,-2.2,2.8000000000000003,3.1,1.5,-34.6,44.1,-6.6000000000000005
1698921507715.0,16,3.5,-4.5,-2.6,2.7,4.1000000000000005,1.2000000000000002,-35.9,62.199999999999996,0.5
1698921507732.0,16,2.6,-1.1,-3.1,1.7000000000000002,7.4,0.7000000000000001,-42.300000000000004,76.1,13.6
1698921507748.0,16,2.0,0.6000000000000001,-3.5,1.1,9.1,0.4,-46.4,80.0,14.4
1698921507766.0,16,1.3,0.9,-4.0,0.30000000000000004,9.4,-0.1,-57.3,84.2,2.5
1698921507781.0,16,0.4,-0.5,-3.6,-0.8,7.9,0.5,-59.400000000000006,84.0,-2.6
1698921507799.0,16,-0.2,-0.4,-3.9000000000000004,-1.4000000000000001,7.9,0.2,-56.0,86.1,0.9
1698921507816.0,16,0.1,1.6,-4.0,-1.2000000000000002,9.9,0.1,-49.3,73.0,10.1
1698921507833.0,16,0.7000000000000001,2.6,-3.2,-0.6000000000000001,10.8,1.0,-30.7,47.6,6.2
1698921507848.0,16,0.2,1.2000000000000002,1.3,-1.2000000000000002,9.5,5.5,13.700000000000001,13.6,11.000000000000002
1698921507865.0,16,-0.30000000000000004,1.5,5.0,-1.6,9.8,9.200000000000001,65.3,24.6,18.8
1698921507881.0,16,-14.5,4.7,6.800000000000001,-15.600000000000001,13.4,10.5,264.2,-96.80000000000001,116.80000000000001
1698921507899.0,16,-11.700000000000001,4.3,1.6,-12.4,13.200000000000001,4.7,355.6,-191.70000000000002,210.7
1698921507915.0,16,-0.8,1.8,5.9,-0.7000000000000001,11.100000000000001,8.0,326.0,-84.7,180.20000000000002
1698921507932.0,16,6.9,2.7,11.700000000000001,7.0,12.100000000000001,13.5,14.4,16.8,-56.2
1698921507948.0,16,5.800000000000001,3.9000000000000004,10.3,5.7,13.3,12.3,-36.3,-81.2,-141.5
1698921507967.0,16,-1.8,9.9,2.7,-2.4000000000000004,19.3,4.9,-49.5,-27.7,-61.8
1698921507984.0,16,-2.3000000000000003,9.4,4.1000000000000005,-2.9000000000000004,18.8,6.4,-24.3,-39.300000000000004,29.500000000000004
1698921507998.0,16,-0.8,4.800000000000001,1.6,-1.0,14.3,3.9000000000000004,18.900000000000002,-63.800000000000004,105.00000000000001
1698921508015.0,16,-0.5,3.0,1.5,-0.8,10.700000000000001,4.7,5.1,-55.7,85.2
1698921508032.0,16,-1.4000000000000001,0.2,2.5,-1.3,9.700000000000001,4.800000000000001,-29.300000000000004,-31.3,12.100000000000001
1698921508047.0,16,-0.8,0.7000000000000001,0.6000000000000001,-0.8,10.200000000000001,3.1,-40.4,-24.400000000000002,-23.400000000000002
1698921508065.0,16,-0.5,-1.4000000000000001,-0.5,-0.30000000000000004,9.4,2.5,-43.2,-25.1,-21.200000000000003
1698921508082.0,16,-0.8,-2.6,-0.8,-0.8,6.800000000000001,1.9000000000000001,-45.7,-23.700000000000003,-5.4
1698921508099.0,16,-1.6,-3.9000000000000004,-1.0,-1.5,5.5,1.8,-42.300000000000004,-31.8,0.9
1698921508115.0,16,-1.6,-4.3,-0.7000000000000001,-1.6,5.0,2.2,-37.6,-35.1,0.1
1698921508132.0,16,-1.8,-4.800000000000001,-0.7000000000000001,-1.8,4.4,2.2,-23.8,-35.9,-10.1
1698921508149.0,16,-2.0,-4.9,-1.0,-1.9000000000000001,4.3,2.0,-18.7,-35.4,-15.7
1698921508165.0,16,-2.4000000000000004,-4.6000000000000005,-1.7000000000000002,-2.4000000000000004,4.5,1.4000000000000001,-17.599999999999998,-39.2,-25.6
1698921508181.0,16,-2.4000000000000004,-4.3,-2.0,-2.5,4.800000000000001,1.1,-25.400000000000002,-46.5,-26.6
1698921508199.0,16,-2.1,-4.6000000000000005,-2.3000000000000003,-2.3000000000000003,4.4,0.8,-29.600000000000005,-63.50000000000001,-24.1
1698921508215.0,16,-2.0,-4.9,-2.5,-2.1,4.0,0.6000000000000001,-29.900000000000006,-73.50000000000001,-22.3
1698921508232.0,16,-1.0,-5.0,-3.0,-1.1,3.9000000000000004,0.30000000000000004,-32.800000000000004,-84.3,-18.7
1698921508248.0,16,-0.5,-4.6000000000000005,-2.9000000000000004,-0.5,4.2,0.4,-36.4,-93.0,-21.6
1698921508265.0,16,0.5,-3.4000000000000004,-2.5,0.5,5.300000000000001,0.9,-33.800000000000004,-87.80000000000001,-20.3
1698921508282.0,16,1.0,-2.3000000000000003,-2.3000000000000003,1.0,6.4,1.2000000000000002,-30.599999999999998,-77.7,-18.400000000000002
1698921508298.0,16,1.2000000000000002,0.30000000000000004,-1.4000000000000001,1.2000000000000002,9.0,2.1,-12.200000000000001,-68.5,-12.000000000000002
1698921508316.0,16,0.6000000000000001,2.5,-1.5,0.7000000000000001,11.200000000000001,2.0,16.1,-71.0,-4.800000000000001
1698921508332.0,16,0.30000000000000004,2.9000000000000004,-1.9000000000000001,0.4,11.700000000000001,1.6,26.9,-61.599999999999994,-5.4
1698921508348.0,16,0.1,1.1,-1.8,0.2,9.9,1.5,35.6,-29.600000000000005,-16.5
1698921508365.0,16,3.5,2.5,2.0,3.6,11.4,5.2,58.00000000000001,-19.6,-29.600000000000005
1698921508382.0,16,5.1000000000000005,5.1000000000000005,4.6000000000000005,5.1000000000000005,14.0,7.6000000000000005,78.2,41.5,-54.2
1698921508399.0,16,5.1000000000000005,5.0,4.7,4.800000000000001,14.100000000000001,7.4,151.0,99.5,-106.9
1698921508415.0,16,4.0,2.6,2.7,3.5,11.8,5.2,165.3,39.300000000000004,-103.4
1698921508434.0,16,-0.1,2.6,11.700000000000001,-0.8,11.8,13.9,68.4,14.0,-12.700000000000001
1698921508448.0,16,0.4,6.4,10.4,-0.8,16.3,5.1000000000000005,-9.700000000000001,71.2,27.2
1698921508464.0,16,-0.4,3.2,3.0,-0.9,12.600000000000001,5.300000000000001,-24.3,2.1999999999999997,25.700000000000003
1698921508482.0,16,-0.2,1.0,2.5,-0.7000000000000001,10.4,4.800000000000001,-4.3999999999999995,17.8,24.8
1698921508498.0,16,0.4,-0.1,2.0,-0.1,9.3,4.3,29.1,55.0,4.300000000000001
1698921508515.0,16,1.2000000000000002,1.1,2.4000000000000004,0.7000000000000001,10.5,4.6000000000000005,50.7,64.60000000000001,-20.3
1698921508532.0,16,1.5,1.6,2.7,0.9,11.0,4.7,47.800000000000004,59.7,-27.2
1698921508548.0,16,0.9,2.1,1.7000000000000002,0.2,11.600000000000001,3.7,12.200000000000001,64.2,-18.6
1698921508565.0,16,1.7000000000000002,1.4000000000000001,0.2,0.9,10.8,2.3000000000000003,-25.5,65.8,-2.6
1698921508582.0,16,2.0,0.30000000000000004,-0.1,1.2000000000000002,9.8,2.0,-34.300000000000004,60.00000000000001,-1.4
1698921508599.0,16,2.2,-2.2,-0.1,1.3,7.2,2.0,-36.0,50.800000000000004,-0.30000000000000004
1698921508615.0,16,2.1,-3.6,-0.6000000000000001,1.3,5.7,1.6,-33.1,51.6,3.3000000000000003
1698921508631.0,16,1.8,-3.8000000000000003,-0.8,1.0,5.6000000000000005,1.5,-28.6,52.400000000000006,16.5
1698921508652.0,16,1.2000000000000002,-3.1,-1.0,0.5,6.2,1.3,-26.6,51.300000000000004,32.0
1698921508666.0,16,0.8,-2.7,-1.2000000000000002,0.1,6.6000000000000005,1.2000000000000002,-26.200000000000003,51.800000000000004,35.6
1698921508681.0,16,0.5,-1.9000000000000001,-0.9,-0.2,7.300000000000001,1.5,-25.700000000000003,50.800000000000004,33.6
1698921508698.0,16,0.5,-1.6,-0.7000000000000001,-0.1,7.6000000000000005,1.8,-22.4,55.2,22.900000000000002
1698921508715.0,16,0.5,-1.6,-0.8,-0.1,7.6000000000000005,1.7000000000000002,-21.0,59.20000000000001,18.400000000000002
1698921508732.0,16,0.30000000000000004,-1.9000000000000001,-1.2000000000000002,-0.30000000000000004,7.300000000000001,1.4000000000000001,-22.4,72.5,13.100000000000001
1698921508748.0,16,0.4,-2.0,-2.0,-0.30000000000000004,7.1000000000000005,0.6000000000000001,-29.800000000000004,79.8,7.6
1698921508765.0,16,0.30000000000000004,-2.4000000000000004,-2.5,-0.4,6.6000000000000005,0.2,-38.800000000000004,67.80000000000001,1.3
1698921508782.0,16,0.2,-2.6,-2.5,-0.5,6.5,0.2,-42.800000000000004,61.7,-0.30000000000000004
1698921508799.0,16,0.30000000000000004,-2.5,-2.6,-0.5,6.5,0.30000000000000004,-48.400000000000006,61.199999999999996,-2.3000000000000003
1698921508815.0,16,0.2,-2.1,-2.7,-0.7000000000000001,6.800000000000001,0.30000000000000004,-49.2,64.2,-4.2
1698921508832.0,16,-0.30000000000000004,-1.4000000000000001,-2.6,-1.2000000000000002,7.4,0.4,-46.6,65.3,-9.5
1698921508849.0,16,-0.2,0.8,-2.5,-1.2000000000000002,9.600000000000001,0.6000000000000001,-38.900000000000006,53.7,-10.0
1698921508865.0,16,0.0,1.8,-2.0,-1.1,10.600000000000001,1.2000000000000002,-31.5,45.6,-11.6
1698921508882.0,16,-0.4,1.6,-1.8,-1.5,10.5,1.4000000000000001,-5.2,30.4,-8.3
1698921508899.0,16,0.0,0.5,-0.9,-1.1,9.3,2.2,18.1,32.9,7.6
1698921508916.0,16,-2.4000000000000004,1.0,-2.3000000000000003,-3.6,9.9,0.6000000000000001,48.400000000000006,51.2,14.0
1698921508931.0,16,-1.8,3.0,-1.8,-3.0,11.9,1.0,52.400000000000006,28.8,25.700000000000003
1698921508948.0,16,-1.6,5.0,3.9000000000000004,-2.6,14.100000000000001,6.5,91.50000000000001,-48.1,40.5
1698921508965.0,16,-1.1,3.0,5.6000000000000005,-2.0,12.3,7.800000000000001,170.70000000000002,-57.400000000000006,56.400000000000006
1698921508982.0,16,-0.7000000000000001,2.4000000000000004,4.9,-1.4000000000000001,11.700000000000001,6.800000000000001,185.3,-34.1,56.6
1698921508998.0,16,0.4,4.0,7.800000000000001,-0.2,13.5,9.4,78.4,-30.100000000000005,24.9
1698921509014.0,16,-2.3000000000000003,3.5,4.800000000000001,-2.8000000000000003,13.0,6.5,-37.4,-44.5,28.500000000000004
1698921509032.0,16,-0.8,2.2,1.7000000000000002,-1.1,11.700000000000001,3.6,-40.9,-11.000000000000002,51.1
1698921509049.0,16,-0.2,1.1,1.5,-0.5,10.600000000000001,3.4000000000000004,-26.500000000000004,-8.700000000000001,41.9
1698921509065.0,16,0.5,-0.6000000000000001,1.5,0.30000000000000004,8.8,3.4000000000000004,18.2,-27.6,2.1
1698921509081.0,16,-0.1,-0.4,1.2000000000000002,-0.4,9.1,3.1,38.7,-35.0,-13.200000000000001
1698921509098.0,16,-0.6000000000000001,1.3,0.7000000000000001,-0.9,10.8,2.4000000000000004,52.6,-44.00000000000001,-7.500000000000001
1698921509115.0,16,-1.5,1.9000000000000001,1.7000000000000002,-1.7000000000000002,11.4,3.3000000000000003,25.0,-18.400000000000002,3.9
1698921509132.0,16,-1.6,-0.1,0.6000000000000001,-1.8,9.4,2.3000000000000003,-14.900000000000002,-14.700000000000001,-4.0
1698921509148.0,16,-1.7000000000000002,-1.3,0.30000000000000004,-2.0,8.200000000000001,2.0,-27.8,-26.1,-9.8
1698921509165.0,16,-1.6,-2.5,-0.2,-1.9000000000000001,7.0,1.6,-38.400000000000006,-23.2,-14.600000000000001
1698921509181.0,16,-1.4000000000000001,-2.6,-0.30000000000000004,-1.7000000000000002,6.9,1.6,-38.0,-19.3,-15.100000000000001
1698921509198.0,16,-1.1,-2.3000000000000003,-0.5,-1.5,7.1000000000000005,1.5,-27.5,-29.900000000000006,-14.4
1698921509215.0,16,-0.9,-2.0,-0.4,-1.2000000000000002,7.4,1.6,-14.3,-42.800000000000004,-10.600000000000001
1698921509231.0,16,-1.0,-1.9000000000000001,-0.4,-1.4000000000000001,7.4,1.7000000000000002,-7.699999999999999,-46.900000000000006,-8.700000000000001
1698921509249.0,16,-1.1,-1.5,-0.5,-1.5,7.800000000000001,1.5,0.0,-49.0,-6.5
1698921509265.0,16,-1.5,-1.3,-0.6000000000000001,-1.8,8.1,1.5,-0.4,-64.10000000000001,-10.8
1698921509281.0,16,-1.6,-1.3,-0.7000000000000001,-2.0,8.1,1.4000000000000001,-2.8,-70.3,-12.5
1698921509298.0,16,-1.6,-1.3,-1.1,-2.0,8.1,1.0,-10.0,-71.7,-14.4
1698921509315.0,16,-1.4000000000000001,-1.4000000000000001,-1.3,-1.8,7.9,0.9,-15.100000000000001,-72.5,-13.700000000000001
1698921509331.0,16,-1.2000000000000002,-1.5,-1.2000000000000002,-1.6,7.800000000000001,1.0,-15.5,-72.2,-14.600000000000001
1698921509348.0,16,-1.0,-1.5,-1.3,-1.4000000000000001,7.800000000000001,0.9,-14.3,-71.9,-15.399999999999999
1698921509365.0,16,-0.30000000000000004,-1.1,-1.5,-0.6000000000000001,8.200000000000001,0.7000000000000001,-11.9,-78.3,-13.200000000000001
1698921509381.0,16,0.7000000000000001,-0.5,-0.8,0.4,8.8,1.5,-8.799999999999999,-84.9,-7.9
1698921509398.0,16,1.4000000000000001,-0.1,-0.4,1.1,9.1,1.9000000000000001,-4.1000000000000005,-83.89999999999999,-4.7
1698921509415.0,16,1.2000000000000002,0.30000000000000004,0.2,0.9,9.600000000000001,2.5,3.1,-74.60000000000001,1.3
1698921509431.0,16,1.0,0.4,0.8,0.8,9.600000000000001,3.1,3.2,-47.400000000000006,10.3
1698921509449.0,16,0.6000000000000001,0.4,0.8,0.5,9.600000000000001,3.1,0.9,-42.300000000000004,10.1
1698921509465.0,16,-0.1,0.2,0.1,-0.2,9.4,2.5,-10.2,-35.4,6.4
1698921509482.0,16,-0.9,-0.5,-0.8,-0.9,8.8,1.6,-21.1,-27.6,9.600000000000001
1698921509499.0,16,-1.6,-1.0,-1.0,-1.5,8.200000000000001,1.5,-21.8,-36.3,18.900000000000002
1698921509515.0,16,-1.2000000000000002,-0.6000000000000001,-1.2000000000000002,-1.1,8.6,1.3,-18.6,-43.7,21.8
1698921509531.0,16,0.0,1.3,-0.8,0.1,10.5,1.8,-19.9,-26.700000000000003,10.5
1698921509549.0,16,-0.2,1.4000000000000001,0.1,0.0,10.600000000000001,2.7,-9.1,-12.8,-6.9
1698921509565.0,16,-0.2,0.6000000000000001,0.2,0.0,9.8,2.8000000000000003,0.6000000000000001,-13.8,-8.9
1698921509581.0,16,-0.5,0.30000000000000004,0.9,-0.30000000000000004,9.5,3.4000000000000004,18.6,-4.1000000000000005,-6.2
1698921509598.0,16,-0.5,0.8,1.8,-0.30000000000000004,10.0,4.3,39.300000000000004,-3.0000000000000004,-9.0
1698921509615.0,16,1.7000000000000002,5.1000000000000005,4.5,1.8,14.4,6.800000000000001,51.5,23.2,-26.6
1698921509631.0,16,4.5,3.3000000000000003,1.2000000000000002,4.3,12.700000000000001,3.4000000000000004,48.9,37.300000000000004,-93.60000000000001
1698921509649.0,16,1.2000000000000002,-2.1,1.7000000000000002,2.2,9.200000000000001,3.5,27.1,24.3,-103.80000000000001
1698921509665.0,16,0.5,-2.9000000000000004,1.2000000000000002,0.0,6.4,3.4000000000000004,0.7,15.299999999999999,-36.7
1698921509681.0,16,0.30000000000000004,-1.8,0.9,-0.2,7.6000000000000005,3.1,2.1,-12.5,39.00000000000001
1698921509699.0,16,-0.4,0.8,1.6,-0.7000000000000001,10.100000000000001,3.7,14.0,-22.2,51.400000000000006
1698921509715.0,16,-0.30000000000000004,1.9000000000000001,1.9000000000000001,-0.6000000000000001,11.200000000000001,4.0,17.200000000000003,-19.400000000000002,38.7
1698921509732.0,16,0.8,2.1,2.2,0.6000000000000001,11.5,4.4,8.0,-16.3,-0.7
1698921509748.0,16,1.3,1.6,2.5,1.1,11.0,4.7,-0.8,-9.1,-12.5
1698921509765.0,16,1.7000000000000002,0.30000000000000004,1.7000000000000002,1.5,9.700000000000001,3.9000000000000004,-16.0,6.1000000000000005,-25.5
1698921509781.0,16,1.6,-0.4,1.1,1.4000000000000001,9.0,3.3000000000000003,-24.400000000000002,-2.7,-18.0
1698921509798.0,16,1.4000000000000001,-0.7000000000000001,0.9,1.1,8.6,3.2,-24.3,-4.5,-1.2000000000000002
1698921509815.0,16,1.3,-0.8,0.8,1.0,8.6,3.2,-22.7,-2.1,7.6
1698921509831.0,16,1.5,-0.5,0.4,1.3,8.8,2.9000000000000004,-19.400000000000002,1.0,20.4
1698921509848.0,16,1.7000000000000002,-0.5,0.30000000000000004,1.6,8.8,2.8000000000000003,-18.1,-5.0,21.400000000000002
1698921509865.0,16,1.5,-0.5,0.2,1.4000000000000001,8.8,2.8000000000000003,-17.7,-7.400000000000001,20.5
1698921509881.0,16,0.5,-0.5,-0.1,0.5,8.8,2.5,-17.200000000000003,-8.3,21.400000000000002
1698921509898.0,16,-0.30000000000000004,-0.30000000000000004,-0.2,-0.2,8.9,2.5,-17.5,-9.5,19.8
1698921509915.0,16,-0.5,-0.4,-0.30000000000000004,-0.4,8.8,2.4000000000000004,-17.599999999999998,-10.2,18.0
1698921509932.0,16,-0.2,-0.5,-0.30000000000000004,0.0,8.700000000000001,2.5,-18.5,-8.0,13.100000000000001
1698921509948.0,16,0.2,-0.6000000000000001,-0.2,0.4,8.5,2.6,-18.5,-6.6000000000000005,4.3999999999999995
1698921509965.0,16,0.4,-0.8,-0.2,0.6000000000000001,8.4,2.6,-18.2,-5.6,-0.4
1698921509981.0,16,1.0,-0.8,-0.2,1.2000000000000002,8.4,2.7,-16.900000000000002,-1.6,-8.200000000000001
1698921509998.0,16,1.5,-0.7000000000000001,-0.30000000000000004,1.7000000000000002,8.4,2.6,-15.000000000000002,3.6,-9.3
1698921510014.0,16,1.7000000000000002,-0.7000000000000001,-0.30000000000000004,1.8,8.4,2.6,-13.6,5.7,-6.8
1698921510031.0,16,1.7000000000000002,-0.9,-0.5,1.9000000000000001,8.200000000000001,2.5,-9.3,7.400000000000001,1.3
1698921510048.0,16,1.2000000000000002,-1.0,-0.7000000000000001,1.3,8.1,2.3000000000000003,-4.3999999999999995,14.900000000000002,6.4
1698921510065.0,16,1.0,-1.1,-0.8,1.2000000000000002,8.0,2.3000000000000003,-1.6,19.0,4.7
1698921510081.0,16,0.9,-0.9,-0.7000000000000001,1.1,8.1,2.3000000000000003,5.300000000000001,21.700000000000003,1.2000000000000002
1698921510098.0,16,0.9,-0.7000000000000001,-0.7000000000000001,1.0,8.4,2.2,10.2,24.9,-1.7
1698921510115.0,16,0.8,-0.7000000000000001,-0.6000000000000001,1.0,8.4,2.3000000000000003,11.5,26.6,-2.9
1698921510131.0,16,0.8,-0.7000000000000001,-0.6000000000000001,0.8,8.4,2.3000000000000003,12.6,27.3,-6.000000000000001
1698921510149.0,16,0.7000000000000001,-0.8,-0.4,0.8,8.3,2.5,11.5,27.8,-9.9
1698921510165.0,16,0.8,-0.7000000000000001,-0.1,0.8,8.3,2.8000000000000003,11.700000000000001,31.0,-11.6
1698921510181.0,16,0.6000000000000001,-0.30000000000000004,-0.2,0.5,8.8,2.6,9.700000000000001,33.7,-12.000000000000002
1698921510198.0,16,0.0,0.6000000000000001,0.30000000000000004,-0.1,9.700000000000001,3.1,8.4,32.6,-7.500000000000001
1698921510214.0,16,-0.4,0.8,0.5,-0.6000000000000001,9.9,3.2,8.600000000000001,34.800000000000004,-5.0
1698921510232.0,16,-0.8,1.8,0.7000000000000001,-1.0,10.9,3.4000000000000004,9.4,31.6,0.7
1698921510248.0,16,-0.7000000000000001,1.9000000000000001,0.8,-0.9,11.100000000000001,3.5,9.200000000000001,20.7,8.4
1698921510265.0,16,-0.4,1.6,0.8,-0.6000000000000001,10.700000000000001,3.5,7.9,16.400000000000002,10.2
1698921510281.0,16,0.1,0.6000000000000001,0.30000000000000004,0.0,9.8,3.0,1.7,10.700000000000001,8.0
1698921510298.0,16,0.6000000000000001,-0.30000000000000004,0.0,0.5,8.9,2.7,-5.300000000000001,3.3000000000000003,2.8
1698921510315.0,16,0.6000000000000001,-0.6000000000000001,-0.1,0.5,8.6,2.6,-7.0,1.0,1.6
1698921510333.0,16,0.2,-0.9,-0.30000000000000004,0.1,8.3,2.5,-7.6,1.4,1.9
1698921510348.0,16,-0.4,-0.7000000000000001,-0.5,-0.5,8.4,2.3000000000000003,-5.7,1.7,6.3
1698921510364.0,16,-0.9,-0.30000000000000004,-0.4,-1.0,8.8,2.4000000000000004,-2.7,1.6,10.600000000000001
1698921510382.0,16,-1.1,0.0,-0.30000000000000004,-1.2000000000000002,9.200000000000001,2.5,-1.3,1.0999999999999999,10.5
1698921510399.0,16,-1.0,0.7000000000000001,0.0,-1.1,9.8,2.8000000000000003,-1.0,0.6000000000000001,3.8
1698921510415.0,16,-0.6000000000000001,0.8,0.0,-0.7000000000000001,9.9,2.8000000000000003,-2.1,-2.1999999999999997,0.30000000000000004
1698921510432.0,16,-0.30000000000000004,0.6000000000000001,0.0,-0.30000000000000004,9.8,2.8000000000000003,-6.000000000000001,-7.400000000000001,0.5
1698921510448.0,16,-0.1,0.2,-0.1,-0.2,9.4,2.7,-9.200000000000001,-9.4,0.9
1698921510465.0,16,-0.2,0.0,-0.2,-0.2,9.200000000000001,2.7,-9.4,-10.8,1.3
1698921510481.0,16,-0.2,-0.2,-0.30000000000000004,-0.30000000000000004,8.9,2.6,-8.600000000000001,-9.700000000000001,1.8
1698921510498.0,16,-0.2,-0.2,-0.30000000000000004,-0.30000000000000004,8.9,2.6,-7.500000000000001,-9.600000000000001,0.30000000000000004
1698921510515.0,16,-0.1,-0.1,-0.30000000000000004,-0.1,9.0,2.6,-6.3,-8.9,-0.1
1698921510531.0,16,0.0,-0.2,-0.2,-0.1,9.0,2.7,-5.500000000000001,-8.200000000000001,0.4
1698921510548.0,16,0.1,-0.2,-0.30000000000000004,0.1,8.9,2.6,-3.5,-6.8,1.8
1698921510564.0,16,0.1,-0.4,-0.2,0.1,8.700000000000001,2.7,-2.7,-5.4,2.4000000000000004
1698921510582.0,16,0.0,-0.4,-0.2,0.0,8.700000000000001,2.7,-0.7,-0.9,4.2
1698921510598.0,16,-0.1,-0.2,-0.2,-0.1,8.9,2.7,0.7,4.1000000000000005,6.3
1698921510614.0,16,-0.1,0.0,-0.30000000000000004,-0.1,9.1,2.6,1.6,9.1,6.5
1698921510632.0,16,-0.1,0.1,-0.30000000000000004,-0.1,9.200000000000001,2.6,1.8,10.9,6.000000000000001
1698921510648.0,16,0.0,0.2,-0.4,0.0,9.3,2.5,1.3,12.8,5.2
1698921510665.0,16,-0.1,0.30000000000000004,-0.30000000000000004,0.0,9.4,2.5,0.5,13.6,4.800000000000001
1698921510682.0,16,-0.2,0.30000000000000004,-0.30000000000000004,-0.1,9.4,2.5,0.6000000000000001,14.700000000000001,4.9
1698921510699.0,16,-0.4,0.2,-0.4,-0.30000000000000004,9.3,2.4000000000000004,0.5,16.0,5.1
1698921510715.0,16,-0.4,0.1,-0.4,-0.4,9.200000000000001,2.4000000000000004,-0.2,14.500000000000002,4.7
1698921510733.0,16,-0.5,0.1,-0.4,-0.5,9.200000000000001,2.5,-0.30000000000000004,14.0,4.1000000000000005
1698921510748.0,16,-0.5,0.1,-0.4,-0.5,9.200000000000001,2.4000000000000004,-0.30000000000000004,13.6,3.3000000000000003
1698921510765.0,16,-0.5,0.1,-0.4,-0.5,9.200000000000001,2.4000000000000004,-0.4,13.4,3.1
1698921510782.0,16,-0.4,0.1,-0.30000000000000004,-0.4,9.200000000000001,2.5,-0.5,12.4,2.1999999999999997
1698921510799.0,16,-0.30000000000000004,0.2,-0.30000000000000004,-0.30000000000000004,9.3,2.6,0.0,11.9,1.0
1698921510814.0,16,-0.30000000000000004,0.1,-0.2,-0.30000000000000004,9.200000000000001,2.6,0.4,11.3,0.4
1698921510832.0,16,-0.2,0.2,-0.2,-0.2,9.3,2.6,0.4,11.000000000000002,-0.2
1698921510848.0,16,-0.2,0.1,-0.2,-0.30000000000000004,9.3,2.6,0.30000000000000004,9.8,-0.7
1698921510865.0,16,-0.2,0.1,-0.2,-0.30000000000000004,9.200000000000001,2.6,0.5,9.700000000000001,-1.3
1698921510881.0,16,-0.30000000000000004,0.1,-0.2,-0.4,9.200000000000001,2.6,0.9,9.4,-1.7
1698921510898.0,16,-0.30000000000000004,0.0,-0.2,-0.4,9.200000000000001,2.6,1.4,8.3,-2.3000000000000003
1698921510914.0,16,-0.30000000000000004,0.0,-0.2,-0.5,9.200000000000001,2.5,1.2000000000000002,7.300000000000001,-3.4
1698921510931.0,16,-0.2,0.1,-0.2,-0.4,9.200000000000001,2.6,1.0999999999999999,6.3,-4.3999999999999995
1698921510948.0,16,-0.2,0.2,-0.1,-0.4,9.3,2.7,2.1999999999999997,5.1,-6.1000000000000005
1698921510965.0,16,-0.1,0.2,-0.1,-0.4,9.4,2.7,3.1,4.9,-6.2
1698921510981.0,16,-0.1,0.30000000000000004,-0.1,-0.4,9.5,2.6,4.1000000000000005,3.4,-6.2
1698921510999.0,16,-0.2,0.30000000000000004,-0.1,-0.5,9.5,2.6,4.300000000000001,2.7,-7.6
1698921511015.0,16,-0.2,0.1,-0.1,-0.6000000000000001,9.3,2.6,3.7000000000000006,1.9,-8.9
1698921511031.0,16,-0.30000000000000004,0.1,-0.1,-0.7000000000000001,9.3,2.5,3.4,1.7,-9.4
1698921511048.0,16,-0.30000000000000004,0.1,-0.30000000000000004,-0.7000000000000001,9.3,2.4000000000000004,3.4,0.7,-9.700000000000001
1698921511065.0,16,-0.30000000000000004,0.0,-0.30000000000000004,-0.7000000000000001,9.3,2.4000000000000004,3.3000000000000003,0.30000000000000004,-9.9
1698921511081.0,16,-0.30000000000000004,-0.1,-0.30000000000000004,-0.8,9.200000000000001,2.4000000000000004,2.3000000000000003,-0.9,-10.3
1698921511099.0,16,-0.30000000000000004,-0.1,-0.2,-0.8,9.200000000000001,2.4000000000000004,2.3000000000000003,-0.6000000000000001,-10.2
1698921511116.0,16,-0.30000000000000004,-0.1,-0.30000000000000004,-0.8,9.1,2.3000000000000003,2.4000000000000004,-0.9,-9.700000000000001
1698921511132.0,16,-0.30000000000000004,-0.1,-0.4,-0.8,9.1,2.2,2.6,-1.5000000000000002,-9.8
1698921511148.0,16,-0.2,-0.2,-0.4,-0.8,9.0,2.2,3.5,-3.2,-10.2
1698921511165.0,16,-0.1,-0.1,-0.30000000000000004,-0.7000000000000001,9.1,2.2,4.7,-2.8,-10.9
1698921511182.0,16,-0.1,-0.1,-0.30000000000000004,-0.7000000000000001,9.200000000000001,2.3000000000000003,4.800000000000001,-1.9,-11.6
1698921511199.0,16,0.0,0.0,-0.2,-0.7000000000000001,9.200000000000001,2.3000000000000003,5.0,0.8,-13.100000000000001
1698921511215.0,16,0.0,0.0,-0.2,-0.7000000000000001,9.200000000000001,2.3000000000000003,5.300000000000001,2.1999999999999997,-13.0
1698921511232.0,16,-0.1,0.1,-0.2,-0.9,9.3,2.3000000000000003,6.1000000000000005,3.6,-11.6
1698921511249.0,16,-0.30000000000000004,0.0,-0.1,-1.1,9.3,2.4000000000000004,6.4,4.5,-8.799999999999999
1698921511265.0,16,-0.4,0.2,0.1,-1.2000000000000002,9.4,2.5,4.7,5.7,-6.6000000000000005
1698921511283.0,16,-0.5,0.2,0.0,-1.3,9.5,2.5,4.0,6.000000000000001,-6.3
1698921511299.0,16,-0.4,0.30000000000000004,-0.1,-1.3,9.5,2.3000000000000003,3.5,6.4,-7.8
1698921511316.0,16,-0.30000000000000004,0.2,-0.30000000000000004,-1.2000000000000002,9.4,2.1,3.7000000000000006,6.9,-9.3
1698921511332.0,16,-0.30000000000000004,0.2,-0.30000000000000004,-1.2000000000000002,9.4,2.1,4.2,6.9,-9.0
1698921511349.0,16,-0.2,0.2,-0.4,-1.1,9.4,2.0,5.2,8.1,-8.600000000000001
1698921511365.0,16,-0.1,0.30000000000000004,-0.5,-1.2000000000000002,9.5,1.9000000000000001,4.3999999999999995,8.9,-8.9
1698921511381.0,16,-0.2,0.30000000000000004,-0.5,-1.2000000000000002,9.5,1.9000000000000001,3.1,9.600000000000001,-8.700000000000001
1698921511399.0,16,-0.2,0.4,-0.30000000000000004,-1.3,9.600000000000001,2.0,1.0999999999999999,9.700000000000001,-7.1000000000000005
1698921511416.0,16,-0.30000000000000004,0.4,-0.30000000000000004,-1.4000000000000001,9.700000000000001,2.0,0.5,9.600000000000001,-5.6
1698921511432.0,16,-0.30000000000000004,0.30000000000000004,-0.30000000000000004,-1.4000000000000001,9.5,2.0,-0.4,10.8,-5.2
1698921511449.0,16,-0.30000000000000004,0.1,-0.2,-1.5,9.4,2.0,-1.0,11.3,-5.0
1698921511466.0,16,-0.30000000000000004,0.0,-0.2,-1.4000000000000001,9.200000000000001,2.0,-1.8,12.200000000000001,-3.6
1698921511481.0,16,-0.2,0.0,-0.30000000000000004,-1.4000000000000001,9.200000000000001,2.0,-3.2,12.4,-2.8
1698921511498.0,16,-0.2,0.0,-0.30000000000000004,-1.4000000000000001,9.3,2.0,-4.1000000000000005,12.700000000000001,-2.6
1698921511516.0,16,-0.2,0.1,-0.4,-1.4000000000000001,9.3,1.9000000000000001,-6.000000000000001,13.8,-2.1999999999999997
1698921511531.0,16,-0.2,0.1,-0.5,-1.4000000000000001,9.3,1.9000000000000001,-6.7,13.9,-1.8
1698921511548.0,16,-0.2,0.1,-0.6000000000000001,-1.4000000000000001,9.3,1.7000000000000002,-8.0,13.8,-1.4
1698921511564.0,16,-0.30000000000000004,0.0,-0.6000000000000001,-1.6,9.3,1.7000000000000002,-8.600000000000001,12.700000000000001,-0.30000000000000004
1698921511581.0,16,-0.4,0.1,-0.6000000000000001,-1.7000000000000002,9.3,1.7000000000000002,-7.699999999999999,12.9,1.7
1698921511598.0,16,-0.5,0.1,-0.6000000000000001,-1.8,9.4,1.7000000000000002,-7.400000000000001,13.5,2.6
1698921511615.0,16,-0.5,0.2,-0.6000000000000001,-1.8,9.4,1.7000000000000002,-8.0,13.9,2.6
1698921511631.0,16,-0.4,0.1,-0.6000000000000001,-1.8,9.3,1.7000000000000002,-8.5,13.200000000000001,1.9
1698921511649.0,16,-0.30000000000000004,0.1,-0.8,-1.6,9.3,1.6,-9.1,12.9,0.4
1698921511665.0,16,-0.2,0.1,-0.8,-1.6,9.3,1.6,-9.700000000000001,13.5,0.8
1698921511681.0,16,-0.2,0.1,-0.7000000000000001,-1.6,9.3,1.6,-10.8,15.000000000000002,2.7
1698921511698.0,16,-0.2,-0.1,-0.7000000000000001,-1.6,9.200000000000001,1.6,-10.8,15.2,4.300000000000001
1698921511715.0,16,-0.30000000000000004,-0.2,-0.7000000000000001,-1.6,9.0,1.6,-10.8,14.600000000000001,8.200000000000001
1698921511731.0,16,-0.5,-0.2,-0.8,-1.7000000000000002,9.0,1.5,-11.000000000000002,13.6,9.700000000000001
1698921511748.0,16,-0.5,-0.2,-0.8,-1.9000000000000001,9.0,1.5,-11.8,9.9,11.8
1698921511765.0,16,-0.6000000000000001,-0.2,-0.9,-1.9000000000000001,9.0,1.4000000000000001,-12.3,6.3,13.3
1698921511782.0,16,-0.6000000000000001,-0.30000000000000004,-1.1,-1.9000000000000001,8.9,1.2000000000000002,-11.6,3.8,14.100000000000001
1698921511798.0,16,-0.5,-0.30000000000000004,-1.3,-1.8,8.8,1.1,-10.5,2.3000000000000003,14.700000000000001
1698921511815.0,16,-0.4,-0.4,-1.4000000000000001,-1.6,8.700000000000001,1.0,-9.700000000000001,1.7,15.000000000000002
1698921511832.0,16,-0.30000000000000004,-0.2,-1.4000000000000001,-1.5,8.9,1.0,-8.5,2.9,15.9
1698921511848.0,16,-0.2,-0.1,-1.3,-1.4000000000000001,9.1,1.2000000000000002,-7.9,5.2,16.400000000000002
1698921511865.0,16,-0.1,0.5,-0.7000000000000001,-1.3,9.700000000000001,1.7000000000000002,-4.2,8.600000000000001,16.2
1698921511881.0,16,0.0,1.3,-0.1,-1.1,10.4,2.3000000000000003,1.9,10.8,12.6
1698921511898.0,16,0.2,1.6,0.4,-0.9,10.8,2.8000000000000003,5.1,13.0,8.799999999999999
1698921511915.0,16,0.4,2.0,0.7000000000000001,-0.7000000000000001,11.200000000000001,3.1,9.9,13.4,-0.4
1698921511940.0,16,0.1,1.4000000000000001,0.5,-1.0,10.600000000000001,2.9000000000000004,2.8,13.0,-0.7
1698921511947.0,16,-0.4,-0.1,-0.30000000000000004,-1.5,9.200000000000001,2.1,-15.5,18.900000000000002,15.000000000000002
1698921511964.0,16,-0.5,-0.8,-0.5,-1.5,8.4,2.0,-22.6,19.0,22.1
1698921511981.0,16,-0.6000000000000001,-1.7000000000000002,-0.2,-1.5,7.5,2.3000000000000003,-23.0,4.1000000000000005,26.8
1698921511998.0,16,-0.4,-1.3,0.0,-1.3,7.9,2.5,-8.200000000000001,-12.6,20.7
1698921512014.0,16,-0.2,-0.7000000000000001,0.1,-1.0,8.5,2.6,-0.5,-13.8,14.800000000000002
1698921512031.0,16,0.30000000000000004,0.5,0.5,-0.5,9.700000000000001,3.1,12.3,-8.4,4.800000000000001
1698921512048.0,16,1.0,0.7000000000000001,1.2000000000000002,0.1,9.9,3.7,17.5,8.5,-0.30000000000000004
1698921512064.0,16,1.6,0.9,1.2000000000000002,0.8,10.100000000000001,3.7,16.3,17.7,-2.4000000000000004
1698921512081.0,16,1.8,0.4,1.5,1.0,9.600000000000001,3.9000000000000004,7.2,8.4,-2.8
1698921512098.0,16,1.8,-0.4,1.0,1.0,8.8,3.5,1.6,8.5,3.0000000000000004
1698921512115.0,16,1.8,-0.5,0.8,1.0,8.700000000000001,3.3000000000000003,-6.6000000000000005,18.400000000000002,13.9
1698921512131.0,16,1.8,-0.7000000000000001,0.6000000000000001,1.1,8.5,3.0,-3.5,19.0,17.400000000000002
1698921512149.0,16,1.8,-0.7000000000000001,0.5,1.1,8.5,3.0,-0.4,20.1,18.0
1698921512165.0,16,1.7000000000000002,-0.4,0.6000000000000001,1.1,8.8,3.0,3.7000000000000006,28.200000000000003,18.900000000000002
1698921512181.0,16,1.7000000000000002,0.0,0.7000000000000001,1.1,9.200000000000001,3.2,5.2,35.7,19.6
1698921512198.0,16,1.7000000000000002,0.1,0.8,1.2000000000000002,9.4,3.2,4.800000000000001,41.7,19.6
1698921512214.0,16,1.8,0.1,0.8,1.2000000000000002,9.4,3.2,4.1000000000000005,45.3,19.700000000000003
1698921512232.0,16,1.8,0.0,0.5,1.3,9.200000000000001,3.0,1.7,51.300000000000004,22.5
1698921512249.0,16,1.9000000000000001,-0.1,0.5,1.4000000000000001,9.200000000000001,2.9000000000000004,0.6000000000000001,52.300000000000004,25.2
1698921512264.0,16,1.8,-0.1,0.4,1.4000000000000001,9.200000000000001,2.8000000000000003,-1.7,53.1,32.0
1698921512281.0,16,1.6,-0.2,0.4,1.2000000000000002,9.1,2.8000000000000003,-3.8,56.2,36.1
1698921512299.0,16,1.2000000000000002,-0.30000000000000004,0.30000000000000004,1.0,8.9,2.8000000000000003,-3.6,58.9,35.1
1698921512315.0,16,1.1,-0.4,0.30000000000000004,0.9,8.9,2.7,-3.0000000000000004,59.60000000000001,33.7
1698921512331.0,16,1.0,-0.30000000000000004,0.2,0.8,8.9,2.7,-1.7,62.300000000000004,29.200000000000003
1698921512348.0,16,1.0,-0.1,0.30000000000000004,0.9,9.200000000000001,2.8000000000000003,-1.6,67.4,24.5
1698921512365.0,16,1.1,0.0,0.4,1.0,9.200000000000001,2.8000000000000003,-1.9,69.7,23.0
1698921512382.0,16,1.1,0.0,0.4,1.0,9.3,2.9000000000000004,-4.1000000000000005,73.2,22.4
1698921512399.0,16,1.2000000000000002,0.0,0.4,1.2000000000000002,9.200000000000001,2.9000000000000004,-7.500000000000001,76.3,23.8
1698921512415.0,16,1.2000000000000002,-0.1,0.4,1.1,9.200000000000001,2.9000000000000004,-9.4,77.80000000000001,24.3
1698921512435.0,16,1.2000000000000002,-0.2,0.30000000000000004,1.2000000000000002,9.0,2.9000000000000004,-11.4,80.7,22.8
1698921512448.0,16,1.2000000000000002,-0.2,0.30000000000000004,1.2000000000000002,9.0,2.8000000000000003,-12.3,83.8,22.3
1698921512465.0,16,1.1,-0.2,0.1,1.1,9.0,2.7,-12.9,87.4,21.5
1698921512481.0,16,1.1,-0.2,0.0,1.1,9.0,2.6,-13.0,89.0,21.0
1698921512498.0,16,1.0,-0.1,0.0,1.0,9.1,2.6,-11.9,91.30000000000001,20.6
1698921512514.0,16,1.0,0.0,-0.1,1.1,9.1,2.6,-9.600000000000001,93.0,19.700000000000003
1698921512532.0,16,1.0,-0.1,-0.2,1.1,9.0,2.5,-8.3,94.5,19.0
1698921512548.0,16,1.1,-0.30000000000000004,-0.30000000000000004,1.2000000000000002,8.8,2.4000000000000004,-7.2,98.8,18.1
1698921512566.0,16,1.2000000000000002,-0.4,-0.30000000000000004,1.2000000000000002,8.8,2.4000000000000004,-6.6000000000000005,100.10000000000001,17.599999999999998
1698921512581.0,16,1.2000000000000002,-0.4,-0.30000000000000004,1.3,8.8,2.5,-5.300000000000001,101.2,16.5
1698921512598.0,16,1.2000000000000002,-0.4,-0.30000000000000004,1.3,8.700000000000001,2.5,-4.1000000000000005,102.80000000000001,16.2
1698921512626.0,16,1.4000000000000001,-0.5,-0.1,1.4000000000000001,8.6,2.6,-3.1,104.7,17.8
1698921512631.0,16,1.4000000000000001,-0.5,-0.1,1.4000000000000001,8.6,2.6,-3.1,104.7,17.8
1698921512648.0,16,1.7000000000000002,-0.30000000000000004,0.0,1.6,8.8,2.8000000000000003,-3.4,105.9,18.6
1698921512665.0,16,1.8,-0.30000000000000004,-0.1,1.7000000000000002,8.8,2.7,-3.0000000000000004,107.30000000000001,19.6
1698921512681.0,16,1.9000000000000001,-0.30000000000000004,0.0,1.8,8.8,2.7,-2.4000000000000004,113.2,22.5
1698921512699.0,16,1.7000000000000002,-0.2,-0.30000000000000004,1.6,8.9,2.5,0.4,116.4,26.200000000000003
1698921512715.0,16,1.6,0.2,-0.4,1.4000000000000001,9.4,2.5,0.4,114.5,29.300000000000004
1698921512735.0,16,1.3,0.1,0.2,1.2000000000000002,9.200000000000001,3.0,-2.8,119.89999999999999,34.7
1698921512748.0,16,0.7000000000000001,0.30000000000000004,1.1,0.6000000000000001,9.4,3.9000000000000004,1.0999999999999999,128.8,39.300000000000004
1698921512766.0,16,0.0,1.8,1.0,-0.1,10.9,3.8000000000000003,3.4,128.9,43.400000000000006
1698921512781.0,16,-0.5,2.5,0.6000000000000001,-0.5,11.600000000000001,3.4000000000000004,-6.6000000000000005,118.9,55.300000000000004
1698921512799.0,16,-1.6,2.1,1.6,-1.6,11.200000000000001,4.4,-24.8,121.19999999999999,62.6
1698921512816.0,16,-2.1,1.4000000000000001,0.9,-2.1,10.5,3.8000000000000003,-24.3,131.9,60.400000000000006
1698921512831.0,16,-1.9000000000000001,0.5,-0.1,-1.9000000000000001,9.600000000000001,2.9000000000000004,-24.9,130.8,49.3
1698921512848.0,16,-1.5,0.4,0.1,-1.4000000000000001,9.5,3.1,-25.5,123.80000000000001,33.5
1698921512864.0,16,-1.3,0.30000000000000004,-0.2,-1.3,9.4,3.0,-24.8,124.3,31.3
1698921512883.0,16,-1.5,0.0,-0.5,-1.5,9.0,2.7,-25.2,128.3,34.50000000000001
1698921512898.0,16,-2.1,-0.6000000000000001,-1.0,-2.2,8.3,2.3000000000000003,-24.3,130.5,38.400000000000006
1698921512916.0,16,-2.4000000000000004,-0.5,-1.4000000000000001,-2.6,8.5,1.9000000000000001,-22.6,130.6,37.0
1698921512931.0,16,-2.5,-0.30000000000000004,-1.6,-2.7,8.700000000000001,1.7000000000000002,-18.3,131.20000000000002,29.200000000000003
1698921512951.0,16,-2.5,0.0,-1.6,-2.8000000000000003,9.0,1.8,-12.200000000000001,126.7,21.900000000000002
1698921512965.0,16,-2.4000000000000004,0.30000000000000004,-1.5,-2.7,9.200000000000001,1.8,-8.0,124.39999999999999,22.1
1698921512981.0,16,-2.3000000000000003,0.4,-1.4000000000000001,-2.8000000000000003,9.200000000000001,1.9000000000000001,-0.6000000000000001,123.70000000000002,26.6
1698921512998.0,16,-2.2,0.1,-1.3,-2.7,9.0,1.9000000000000001,2.5,120.9,28.400000000000002
1698921513014.0,16,-1.8,-0.4,-1.1,-2.4000000000000004,8.6,2.1,0.6000000000000001,114.3,30.9
1698921513031.0,16,-1.7000000000000002,-0.5,-1.0,-2.3000000000000003,8.5,2.2,-1.3,111.30000000000001,32.1
1698921513049.0,16,-1.6,-0.5,-1.0,-2.2,8.4,2.2,-3.1,105.4,33.400000000000006
1698921513064.0,16,-1.8,-0.30000000000000004,-0.9,-2.4000000000000004,8.700000000000001,2.3000000000000003,-1.6,101.2,33.7
1698921513082.0,16,-1.8,-0.2,-0.9,-2.5,8.8,2.3000000000000003,0.8,98.10000000000001,33.7
1698921513099.0,16,-1.9000000000000001,-0.1,-0.8,-2.6,8.8,2.3000000000000003,5.300000000000001,92.0,33.0
1698921513116.0,16,-1.9000000000000001,-0.1,-0.8,-2.5,8.9,2.4000000000000004,6.4,88.7,32.300000000000004
1698921513133.0,16,-1.8,-0.1,-0.6000000000000001,-2.4000000000000004,8.8,2.4000000000000004,6.5,82.10000000000001,30.000000000000004
1698921513148.0,16,-1.7000000000000002,-0.2,-0.6000000000000001,-2.4000000000000004,8.8,2.4000000000000004,6.1000000000000005,77.9,28.500000000000004
1698921513164.0,16,-1.7000000000000002,-0.1,-0.6000000000000001,-2.4000000000000004,8.9,2.4000000000000004,6.9,75.2,28.200000000000003
1698921513181.0,16,-1.8,-0.1,-0.6000000000000001,-2.5,8.9,2.4000000000000004,8.1,73.9,28.700000000000003
1698921513199.0,16,-1.9000000000000001,0.0,-0.5,-2.6,9.0,2.4000000000000004,10.2,71.6,28.8
1698921513217.0,16,-1.9000000000000001,0.1,-0.4,-2.7,9.1,2.4000000000000004,11.8,68.0,27.400000000000002
1698921513234.0,16,-1.6,0.1,-0.30000000000000004,-2.5,9.1,2.4000000000000004,12.4,66.2,27.0
1698921513248.0,16,-1.6,0.0,-0.2,-2.5,9.1,2.5,12.000000000000002,60.8,26.700000000000003
1698921513265.0,16,-1.3,-0.1,-0.2,-2.3000000000000003,9.0,2.4000000000000004,11.6,58.400000000000006,26.9
1698921513282.0,16,-1.2000000000000002,-0.1,-0.1,-2.2,9.0,2.5,9.5,55.4,27.5
1698921513299.0,16,-1.2000000000000002,-0.30000000000000004,-0.2,-2.1,8.9,2.4000000000000004,8.0,53.1,27.7
1698921513315.0,16,-1.3,-0.2,-0.2,-2.3000000000000003,9.0,2.4000000000000004,6.8,50.1,28.500000000000004
1698921513332.0,16,-1.4000000000000001,-0.1,-0.1,-2.3000000000000003,9.1,2.4000000000000004,6.9,48.800000000000004,29.1
1698921513349.0,16,-1.6,-0.1,-0.1,-2.4000000000000004,9.0,2.4000000000000004,8.200000000000001,47.7,29.800000000000004
1698921513365.0,16,-1.5,-0.30000000000000004,0.0,-2.3000000000000003,8.9,2.4000000000000004,9.8,48.7,28.6
1698921513381.0,16,-1.4000000000000001,-0.30000000000000004,0.0,-2.3000000000000003,8.9,2.4000000000000004,10.5,50.1,27.400000000000002
1698921513399.0,16,-1.2000000000000002,-0.2,0.0,-2.0,9.0,2.4000000000000004,11.8,51.7,25.700000000000003
1698921513415.0,16,-0.9,-0.1,0.1,-1.8,9.1,2.4000000000000004,11.5,53.1,25.400000000000002
1698921513433.0,16,-0.9,-0.1,0.1,-1.7000000000000002,9.1,2.4000000000000004,10.5,53.6,26.1
1698921513448.0,16,-0.9,0.0,0.1,-1.7000000000000002,9.200000000000001,2.3000000000000003,7.400000000000001,55.7,29.200000000000003
1698921513465.0,16,-1.0,0.1,0.1,-1.8,9.3,2.3000000000000003,5.500000000000001,57.9,31.8
1698921513481.0,16,-1.4000000000000001,0.1,0.1,-2.2,9.200000000000001,2.2,2.1,62.1,35.5
1698921513498.0,16,-1.7000000000000002,0.0,0.0,-2.3000000000000003,9.200000000000001,2.2,2.7,60.400000000000006,35.5
1698921513514.0,16,-1.9000000000000001,0.0,0.0,-2.5,9.200000000000001,2.1,6.3,53.50000000000001,35.0
1698921513531.0,16,-2.0,0.0,-0.1,-2.6,9.200000000000001,2.0,9.600000000000001,47.300000000000004,33.800000000000004
1698921513548.0,16,-2.2,-0.2,-0.2,-2.7,9.1,1.9000000000000001,10.5,45.1,32.800000000000004
1698921513564.0,16,-2.3000000000000003,-0.5,-0.30000000000000004,-2.7,8.8,1.8,10.5,37.1,31.7
1698921513581.0,16,-2.3000000000000003,-0.5,-0.2,-2.7,8.8,1.8,11.000000000000002,31.3,31.7
1698921513598.0,16,-1.8,0.30000000000000004,0.1,-2.2,9.600000000000001,2.1,12.200000000000001,25.3,28.1
1698921513615.0,16,-1.4000000000000001,1.2000000000000002,0.4,-1.7000000000000002,10.600000000000001,2.3000000000000003,14.900000000000002,18.400000000000002,16.3
1698921513632.0,16,-1.0,1.5,0.7000000000000001,-1.3,10.9,2.6,19.0,11.6,3.3000000000000003
1698921513648.0,16,-0.9,1.3,0.9,-1.2000000000000002,10.700000000000001,2.7,21.3,11.5,-1.2000000000000002
1698921513665.0,16,-1.3,0.4,1.0,-1.7000000000000002,9.8,2.8000000000000003,25.3,16.700000000000003,-3.4
1698921513682.0,16,-1.5,-0.5,0.6000000000000001,-1.9000000000000001,8.9,2.2,23.3,22.2,1.8
1698921513698.0,16,-1.4000000000000001,-0.9,0.4,-1.8,8.5,2.1,20.0,20.7,3.5
1698921513715.0,16,-0.5,-1.6,0.5,-0.9,7.800000000000001,2.1,15.299999999999999,12.200000000000001,1.7
1698921513731.0,16,0.6000000000000001,-1.1,0.8,0.1,8.3,2.3000000000000003,14.200000000000001,10.4,-1.3
1698921513748.0,16,0.8,-0.7000000000000001,0.9,0.4,8.700000000000001,2.5,13.6,16.2,-7.1000000000000005
1698921513764.0,16,1.3,0.2,1.1,0.8,9.600000000000001,2.6,17.400000000000002,23.5,-11.2
1698921513781.0,16,2.0,0.8,1.1,1.5,10.200000000000001,2.6,21.900000000000002,24.8,-13.9
1698921513799.0,16,2.3000000000000003,0.9,1.1,1.8,10.3,2.5,21.8,26.9,-12.200000000000001
1698921513815.0,16,2.6,0.7000000000000001,1.2000000000000002,2.0,10.100000000000001,2.5,17.3,34.800000000000004,0.30000000000000004
1698921513831.0,16,2.5,0.4,1.0,2.0,9.8,2.4000000000000004,11.1,44.8,17.0
1698921513849.0,16,2.4000000000000004,0.30000000000000004,0.9,2.0,9.8,2.2,8.4,48.400000000000006,23.3
1698921513864.0,16,2.1,0.5,0.6000000000000001,1.8,10.0,1.8,3.6,50.9,27.8
1698921513881.0,16,1.9000000000000001,0.8,0.8,1.6,10.200000000000001,2.0,1.2000000000000002,51.2,30.100000000000005
1698921513898.0,16,1.8,0.7000000000000001,0.9,1.6,10.200000000000001,2.2,1.9,53.1,32.0
1698921513915.0,16,1.7000000000000002,0.6000000000000001,0.9,1.6,10.100000000000001,2.2,3.7000000000000006,57.2,35.9
1698921513931.0,16,1.4000000000000001,0.30000000000000004,0.8,1.4000000000000001,9.700000000000001,2.0,3.7000000000000006,58.400000000000006,38.800000000000004
1698921513948.0,16,1.3,0.0,0.6000000000000001,1.4000000000000001,9.5,1.9000000000000001,2.8,58.3,39.400000000000006
1698921513965.0,16,1.1,-0.6000000000000001,0.5,1.3,8.9,1.8,0.9,57.00000000000001,37.5
1698921513981.0,16,0.8,-0.9,0.4,1.1,8.6,1.7000000000000002,-1.9,58.1,36.5
1698921513998.0,16,0.6000000000000001,-0.9,0.4,0.9,8.6,1.7000000000000002,-2.9,58.1,36.7
