ts,interval,accx,accy,accz,accGx,accGy,accGz,alpha,beta,gamma
1698921500001.0,0.01666666753590107,-0.10541183733586221,0.06675239980220794,-0.4765560204863548,0.4752491026062518,-3.3530803018316626,-9.649230656322837,-1.9941785289003,5.148132143492051,-4.36529556129974
1698921500174.0,0.01666666753590107,0.3111113008616492,-0.005662263545393943,0.21838088511824608,0.12195466533051803,-2.5962124252319336,-9.23802710571289,-5.242440834230648,-3.546559504829842,14.733848436025141
1698921500190.0,0.01666666753590107,0.16315938516650347,-0.05461714085042476,0.1299105745047331,-0.04878184055937454,-2.634220084325969,-9.329006768798827,-3.0781758674016326,-7.244493077140092,12.802231665157807
1698921500207.0,0.01666666753590107,0.11779303387273102,-0.05695347484350204,0.11927052254676818,-0.12195461053159087,-2.630329506628215,-9.34067908641398,-1.3842046430909032,-8.089830585993074,11.092975117814824
1698921500224.0,0.01666666753590107,0.019755214169900864,-0.10380144299715757,0.24017419925332067,-0.2545335274627432,-2.670432676696777,-9.220669143676757,-2.735317873426741,-7.691658731911657,8.986482452306715
1698921500240.0,0.01666666753590107,-0.05519406395554542,-0.1801487696185708,0.23523148215413092,-0.35449144677426664,-2.737918943731487,-9.227253198242186,-3.7687805632498534,-8.360329982787674,7.007158517634135
1698921500257.0,0.01666666753590107,-0.07063541524801403,-0.2144312707096338,0.2607692435145378,-0.39429504937436427,-2.7627587859556075,-9.203460819244384,-3.523104208333195,-8.258327083949057,3.818151731891644
1698921500274.0,0.01666666753590107,-0.09917002033684402,-0.26862024927586314,0.16875906833708285,-0.45055878838803615,-2.805405795288086,-9.297582872009277,-3.2345632937328297,-6.531786742911357,0.8565844825384656
1698921500290.0,0.01666666753590107,-0.37752566434852775,-0.07473667655438185,-0.005558803170919418,-0.570119288591016,-2.759616104015708,-9.435548742675781,-1.813619063096428,-3.3998581405153696,1.1770026370472213
1698921500307.0,0.01666666753590107,-0.36725791630167515,0.0015796704068779944,-0.029856793603301048,-0.597502933546435,-2.703053382055461,-9.453355617523194,0.05401509696780457,-1.7445266837215772,2.074594828310503
1698921500323.0,0.01666666753590107,-0.21622774393865837,0.02193418391048908,0.06632394525706768,-0.5178957100799307,-2.7244515593931076,-9.343072703552245,2.586759124544848,-3.0523758950289674,2.789069114317214
1698921500340.0,0.01666666753590107,-0.11607373579945414,0.07216974867582321,0.23948095629215238,-0.4750993188720196,-2.7145751852840183,-9.15602511433065,2.33067078656874,-5.679572941111465,2.625449157985208
1698921500357.0,0.01666666753590107,-0.1263888301193714,0.09004501258432865,0.3043172933399677,-0.5169979209899902,-2.704400120489299,-9.087641313934325,-0.9351995329984893,-7.924790163757117,1.4325613151975356
1698921500373.0,0.01666666753590107,-0.08394742636159062,0.02840133409798145,0.2997065846741199,-0.5289688562255352,-2.7512366904661056,-9.094225368499755,-3.871251330046616,-7.734040909485232,-2.0111686244607068
1698921500390.0,0.01666666753590107,-0.11513937755879014,-0.0036357261538505553,0.2834609677940607,-0.5952583512237295,-2.759915671484172,-9.115623545837401,-3.5573213216408437,-5.440977357929993,-5.000328130513444
1698921500407.0,0.01666666753590107,-0.0426332000028342,0.003502162902057171,0.25462241132259367,-0.5346551217010245,-2.7464482871457934,-9.145700704193114,-1.2243246422163025,-6.102114483264663,-7.076673194798763
1698921500424.0,0.01666666753590107,0.052148814508132635,0.03959112889319658,0.3243617179811001,-0.4545989671569317,-2.715323665563762,-9.073725016784667,0.002791346235353473,-8.357792567511014,-8.719762711444071
1698921500440.0,0.01666666753590107,0.15202570447269825,0.12538783638328313,0.27236148163080215,-0.3736450600555166,-2.632873638153076,-9.12370397644043,-2.2700663046198053,-9.52989657154116,-8.161778944936342
1698921500457.0,0.01666666753590107,0.21955855059549212,0.16085019490867852,0.17471067021787165,-0.3233668251922354,-2.5923215552732346,-9.221866244506835,-4.716669947395991,-8.353452836067117,-7.256949634638903
1698921500473.0,0.01666666753590107,0.28198373484835026,0.1503165259346366,0.055178281864523886,-0.2775777184417471,-2.592770468084514,-9.343371978759764,-5.253144594433705,-4.479740930372004,-7.458974677456832
1698921500490.0,0.01666666753590107,0.2749069283299148,0.11220657550990581,-0.09692425070405006,-0.28580778664853423,-2.6252418281003833,-9.497049797821044,-3.7375354360048068,-2.736632684841968,-7.301993024667844
1698921500507.0,0.01666666753590107,0.29386231562532483,0.10157470685839652,-0.09609656770825385,-0.26396065996699036,-2.63362153391093,-9.497049797821044,-1.0454205367908065,-1.3831770197859337,-6.3521344116066265
1698921500524.0,0.01666666753590107,0.34341636439990253,0.147853935213387,-0.004306172761321067,-0.19767123803403228,-2.5884312698364256,-9.405920497131348,-0.046849241352682716,0.6784833512272693,-6.482219206330927
1698921500540.0,0.01666666753590107,0.4355707703536376,0.22476707902401685,0.04834931262731552,-0.07990648040771484,-2.5031375434324143,-9.357138638305663,-1.4326982391460532,1.6829540224577932,-5.525981623471742
1698921500557.0,0.01666666753590107,0.4756303570087999,0.24083207864016293,0.042841362860798836,-0.019752127163670957,-2.478297701208293,-9.36626653213501,-2.7816331727451855,4.089462640537007,-4.944965605309083
1698921500574.0,0.01666666753590107,0.588994906914793,0.25986966432631015,0.021616788524389266,0.13766663199160248,-2.4398408370420337,-9.395296227264403,-3.9333864146998683,8.384034154302203,-6.267562155529882
1698921500590.0,0.01666666753590107,0.6337905091159045,0.2561576580658555,-0.07004267351925372,0.23133969887997954,-2.4269722953796387,-9.493907408142089,-4.009762443772597,13.162980912776725,-7.494471170573388
1698921500607.0,0.01666666753590107,0.545864826773107,0.2600447286322713,-0.07667582792341708,0.20156192532964048,-2.409763678686321,-9.50662601993978,-4.697570604042521,22.267041656550624,-9.431612710705616
1698921500623.0,0.01666666753590107,0.36306192591655995,0.17897329609841106,-0.1297480774194002,0.14335286093447355,-2.459742638342082,-9.572167874908446,-9.131414797626155,36.03799392904946,-11.644833058410699
1698921500640.0,0.01666666753590107,0.2815266204643063,0.0938271614715457,-0.06936988882422447,0.18210897290878927,-2.5098715278625487,-9.523535653686523,-10.794195322761786,41.000607889400214,-12.940105863743685
1698921500657.0,0.01666666753590107,0.33281858068108555,0.08158961118906737,-0.016634908458590506,0.34356795764037523,-2.497002401678264,-9.478195459747313,-9.22487227603944,40.57583500982253,-12.154441156348165
1698921500673.0,0.01666666753590107,0.48265437389407306,0.27130525057613847,0.19796002838015556,0.6206967712623532,-2.28257171549052,-9.26930136489868,-5.890237319455814,30.364258238357422,-4.400592698269897
1698921500690.0,0.01666666753590107,0.8279287141855806,0.3154401603788137,0.3659375909507274,1.0272621315444819,-2.2279539901182055,-9.103053987121582,-2.4954834646845594,18.70261864572026,3.4456020518210604
1698921500708.0,0.01666666753590107,0.894336465268582,0.22973083891123533,0.15861176833212376,1.128117894744873,-2.3132477165222167,-9.309703517913817,1.7285950540391108,8.83405312059954,11.544883485191317
1698921500724.0,0.01666666753590107,0.8064690889842808,0.08251987777650356,0.07570435254275798,1.0525509048461914,-2.467673723602295,-9.39035818634033,3.372825105554105,8.435007002304362,13.360152252415714
1698921500740.0,0.01666666753590107,0.606942140080966,-0.1389785548403859,-0.14909633648991583,0.8667009827102534,-2.697965411266684,-9.612420390319823,3.0283579616994407,9.475458256308867,11.367171354497694
1698921500757.0,0.01666666753590107,0.3502458816263824,-0.28478549439609047,-0.05414718525111675,0.6367079674651845,-2.853888086645305,-9.513958847045897,2.7110474365413353,11.880501051759172,7.0105663551431485
1698921500773.0,0.01666666753590107,0.2488120445434004,-0.3038853316634893,0.02495323947072029,0.5629366288116201,-2.8793261870235205,-9.432256715393066,2.040010805778378,12.832886407926472,1.9175758229244915
1698921500791.0,0.01666666753590107,0.08297894665561616,-0.15939298183768988,0.06863456028699874,0.4309562622955069,-2.7382182189390063,-9.386467608642578,1.0970273117253073,14.05615365148189,-3.2125015692702767
1698921500807.0,0.01666666753590107,-0.1790861818883568,-0.05955518177449703,0.035383448070287704,0.22266071786191313,-2.639457400457561,-9.41729295501709,-0.27656081615701605,16.318133012124402,-5.0239755260804975
1698921500823.0,0.01666666753590107,-0.2910293206891045,0.02809679819345474,0.0005301613539457321,0.1566705346038565,-2.5463828109189866,-9.451559966278076,-4.03921934211557,18.166196078874968,-5.236061437545856
1698921500840.0,0.01666666753590107,-0.462595518868789,-0.08286153082102536,-0.12582827362716198,0.03561374969482422,-2.6411034140989185,-9.579799392700195,-8.201983999711976,19.087475899788384,-9.171836710907936
1698921500857.0,0.01666666753590107,-0.6697903355188667,-0.3498924650788307,-0.3164870390832424,-0.0852934706756845,-2.874238800756633,-9.77462755279541,-9.849094363344305,27.268551836677304,-19.753059051385907
1698921500874.0,0.01666666753590107,-0.7833986675854772,-0.35312808599919077,-0.328399595195055,-0.10459675809331237,-2.850147146551311,-9.787496386718749,-9.068691462930635,36.59592817668571,-28.0683208847089
1698921500891.0,0.01666666753590107,-0.8327353107497095,-0.08921557602286338,-0.3564098841488361,-0.03426708432622254,-2.557006788524985,-9.813832020458578,-10.233838065517478,43.10915217298027,-32.069237379732684
1698921500907.0,0.01666666753590107,-0.8586842101942748,0.2286424591526389,-0.17451602442860603,0.09546871813349425,-2.189347488348186,-9.630376902770996,-13.627409870675496,31.500972470976794,-31.041546626645054
1698921500923.0,0.01666666753590107,-0.771429778176546,0.26748379259184,-0.03896306012272834,0.258573779296875,-2.1115357882626355,-9.496750522613524,-10.676916705844436,14.55850723474716,-29.521556328750417
1698921500940.0,0.01666666753590107,-0.5953994767274707,0.34339375070929523,0.2810720268309116,0.4713583787780255,-2.0105306979857382,-9.178920252227783,-2.815176872089353,1.6294613682604284,-27.95386911233429
1698921500957.0,0.01666666753590107,-0.5856877185955643,0.44408203012198205,0.11030863293409347,0.488267428002879,-1.9078791556760668,-9.349357482910156,7.084340082142102,-9.784664335129929,-26.42969020093114
1698921500974.0,0.01666666753590107,-0.6626223435856402,0.46503655534535643,0.09301379926204681,0.39624022862538694,-1.9006964045651256,-9.364919209179282,8.501877969373371,-14.5331928461358,-23.638516321132503
1698921500990.0,0.01666666753590107,-0.4945883015874773,0.5786034594230354,-0.12640811934173107,0.5427355157714336,-1.799840805761516,-9.58354033279419,7.108728980120925,-13.398924675012937,-22.43732339520092
1698921501007.0,0.01666666753590107,-0.2615147281195968,0.7538510129965841,0.23615444221794604,0.7558195365905761,-1.642122771398723,-9.21872385482788,7.8425589550183945,-9.785028042703232,-18.55403129542122
1698921501024.0,0.01666666753590107,-0.370069941515103,0.815448806514591,0.30461189237236974,0.6350619172912091,-1.5924430869504809,-9.14854381866455,4.856927028228557,-8.667779849218396,-16.836392398419335
1698921501040.0,0.01666666753590107,-0.40821693601459264,0.765252112454921,0.27981296668052674,0.5886741870604455,-1.6400279910765587,-9.174880036926268,-3.3020237915045763,-3.05071423806995,-16.097943081208822
1698921501056.0,0.01666666753590107,-0.46003078294731675,0.887603942143172,0.22280045512616634,0.545728267846629,-1.4980217589780687,-9.235932179260253,-9.077719265466099,1.8028928913351576,-13.144985071861033
1698921501074.0,0.01666666753590107,-0.5432611470807344,1.0892179629862309,0.25037118361890315,0.47928924484252927,-1.2669812987729907,-9.213935451507568,-12.468551310993297,6.740524581022939,-5.561290713272945
1698921501090.0,0.01666666753590107,-0.6502768028840422,1.184929623030126,0.664441814097762,0.3951928384643048,-1.128865790502727,-8.807818994903563,-12.757287312871831,5.3205393516346895,7.209976716169432
1698921501107.0,0.01666666753590107,-0.5820085916914045,1.1181982660159469,0.9331821826219558,0.46223033881820735,-1.170315406744182,-8.545354053387046,-9.448898211947625,-1.1890185406228604,11.488134858472266
1698921501124.0,0.01666666753590107,-0.5228907053556293,0.9547554242655635,1.1334037261933088,0.5066729263305664,-1.3180078677855431,-8.35052647781372,-6.11717889236595,-4.795555644101877,10.897160424499729
1698921501140.0,0.01666666753590107,-0.553536530444771,0.7210689795963465,1.2840262493371963,0.44966092623285947,-1.53558079752177,-8.206575102996826,-6.5283285327572145,-6.275701606586422,6.779434034290386
1698921501157.0,0.01666666753590107,-0.5647386732649058,0.5213276207573712,1.132215393191576,0.4216786943297833,-1.7158941100522875,-8.364742050170898,-10.363503230494645,-4.652578013545531,4.42471265755015
1698921501173.0,0.01666666753590107,-0.6201663267806172,0.43009807456359267,1.0701631339043378,0.3546410478454083,-1.7781434993468224,-8.434772448730468,-13.591746891697921,-2.80642377122457,2.664195967373044
1698921501190.0,0.01666666753590107,-0.6468575690250843,0.32119887003600595,0.8727841202825307,0.32172077501825985,-1.8475753474913537,-8.641870892333984,-16.12333772454293,-0.5339771990398682,0.850356844119295
1698921501208.0,0.01666666753590107,-0.5036532862484455,0.12244345349445938,0.5180179116874933,0.4604349067687988,-1.984942521612346,-9.010877223205567,-20.479212320543105,-2.166241452820088,-0.8543893237722471
1698921501223.0,0.01666666753590107,-0.41811398758552965,0.06086816406920552,0.29338030426204204,0.5386953735351562,-1.9882345488950608,-9.248950650787354,-25.57110127131469,-3.827846758531654,-3.0293152554003004
1698921501240.0,0.01666666753590107,-0.30368652115575967,0.005923983221501112,-0.19371113876402377,0.6368575685363262,-1.9488798591062426,-9.757418643841147,-28.992117630331464,-8.0322896573303,-4.19786073087287
1698921501257.0,0.01666666753590107,-0.11378668430820107,0.06807692640423774,-0.5436497810721397,0.8032545839171856,-1.8164507259093223,-10.123732082366942,-25.749290661476564,-11.83719082223212,-3.2306670976981606
1698921501273.0,0.01666666753590107,0.012760405112802981,0.04942731712237,-0.6615186201274394,0.9008183015685528,-1.7778440780088305,-10.255413173675537,-19.155738517900783,-11.622308802075288,-1.347118636888438
1698921501290.0,0.01666666753590107,0.09183788735046983,0.1233252047650516,-0.8367360708236694,0.9472058856688439,-1.6567871104367076,-10.442459593853354,-9.330928892150459,-7.259493026331086,4.562437018861111
1698921501307.0,0.01666666753590107,0.003394757004827261,0.16061346354335546,-0.777789376336336,0.8421603608947247,-1.6039651824399828,-10.387842453002929,-4.698773997996912,-3.0210050496145104,10.771204052241877
1698921501324.0,0.01666666753590107,-0.11907536530084907,0.13286036422103642,-0.6711638158291577,0.7097310085020959,-1.625363213647157,-10.283245183452964,-2.797173774097669,-0.281358783925112,15.21601881029302
1698921501340.0,0.01666666753590107,-0.33554793257974086,-0.03979483477175236,-0.4527496129631996,0.48976380404047665,-1.7966985622130334,-10.065373416900634,-0.34218596739358614,4.065006721326952,15.764440311962732
1698921501357.0,0.01666666753590107,-0.5894085657496005,-0.23853140048235655,-0.13985562993586062,0.24480711975097655,-2.0018515708371996,-9.750535898590087,3.2458267025610037,8.58330150824274,12.976384413520208
1698921501373.0,0.01666666753590107,-0.6582550152216107,-0.2415717910915613,0.04155073852837086,0.1966237382750958,-2.019957720892131,-9.5645363571167,6.524981313177085,11.594385281200983,8.886116237547963
1698921501390.0,0.01666666753590107,-0.7377838944885879,-0.22807430387586353,0.35781215216219425,0.15248064516596496,-2.0313303249083456,-9.240421307373046,6.605909663331627,10.996323672190913,4.530534485908451
1698921501407.0,0.01666666753590107,-0.7162472585283219,-0.17900208380147814,0.580764582979679,0.19542663744501768,-1.997811355535686,-9.012523236846924,5.1825315374731735,7.553203967246328,2.3835001653646732
1698921501423.0,0.01666666753590107,-0.7114093900430947,-0.1243216684564948,0.6616483839869499,0.21487959899902342,-1.9550151469908654,-8.927977990722656,4.200250443308729,5.0668174607625796,0.8720513925531067
1698921501440.0,0.01666666753590107,-0.6136593560393899,-0.06181976570561528,0.6647042644262313,0.3263595407348126,-1.9047367659971117,-8.921244298553466,2.6814084709682997,7.356089830441638,-1.218189211350927
1698921501457.0,0.01666666753590107,-0.5991500614326447,-0.08391103987395764,0.43473932449817654,0.35658633669428524,-1.9318211722776293,-9.14869345626831,-0.3742096828431612,10.726481681103927,-4.18721374661729
1698921501474.0,0.01666666753590107,-0.6005218612425028,-0.040599136891961096,0.354136678519845,0.3817254541259259,-1.8797472861692308,-9.228300661468506,-7.195241436808776,11.73494032903609,-8.544319057328538
1698921501490.0,0.01666666753590107,-0.43559747569747265,-0.005069996740669012,0.15503449436724184,0.5695206468444317,-1.8029831954404711,-9.432855265808104,-18.662151482435227,7.262662234105972,-15.540300824159594
1698921501507.0,0.01666666753590107,-0.3326318259373307,-0.013084960892051458,-0.1037321771532297,0.682347400079295,-1.7528545981809496,-9.701305126953125,-27.428415829296036,2.4513051608026823,-22.981689472050935
1698921501524.0,0.01666666753590107,-0.2558554602488875,-0.01632379668280482,-0.5132429523706435,0.7688379350524396,-1.6738459433957933,-10.124330632781982,-31.294888588244582,-2.9226084906576606,-28.01513249409472
1698921501540.0,0.01666666753590107,-0.1828552520982921,0.010152268441021442,-1.1444319006860255,0.8505400667052716,-1.5460554297849536,-10.771513269042968,-20.818838354380112,-0.10135339053723078,-25.264043286987594
1698921501557.0,0.01666666753590107,-0.0872100083541125,0.17824205921441316,-1.1664613616645336,0.9546877658568322,-1.3358147426329552,-10.799345863342284,-7.8314419683705525,-1.0816238477647533,-16.802159490299232
1698921501574.0,0.01666666753590107,-0.010674684879928826,0.1827310411967337,-1.038244731596112,1.0266635263305157,-1.3221977206908166,-10.673051725769042,2.2156121945750558,-6.071647997584999,-7.1737621994163785
1698921501590.0,0.01666666753590107,0.14382234160974622,0.01633417194634676,-0.8579775962948799,1.15804534243159,-1.508346899767965,-10.492139862823485,9.621052276204152,-7.177354878919806,-0.7501392926966962
1698921501607.0,0.01666666753590107,-0.11067154796235262,-0.29954321080595253,-0.7069178507775068,0.8912414949279278,-1.850568099566549,-10.338162768554687,10.860722219051357,-2.3435177320672995,-1.3976625703550614
1698921501623.0,0.01666666753590107,-0.26291838437244297,-0.43771570996046066,-0.6775543936491012,0.73905997883901,-2.0133736663267014,-10.304792998394369,9.23162306426035,0.9104568525650008,-5.657674500858757
1698921501640.0,0.01666666753590107,-0.3150038878533989,-0.6761695151619613,-0.6401350558370351,0.6971615228515118,-2.2743416472837326,-10.262595778656005,6.822025386407293,1.970838491845897,-15.751481735559926
1698921501656.0,0.01666666753590107,-0.27434016129262745,-0.7589730321854352,-0.6224561912834644,0.7525273631773889,-2.369211741936952,-10.241346654400228,7.196064474603763,3.293485628155237,-23.869096677322965
1698921501673.0,0.01666666753590107,-0.24344401470422744,-0.6723406045235693,-0.6762240218281745,0.8047510330200195,-2.2949916366025804,-10.290727648162841,8.729716858385718,4.941385305523527,-27.90732137314065
1698921501689.0,0.01666666753590107,-0.21091449476033447,-0.35974735800847407,-0.6101502519398927,0.8692447671752422,-2.0085854091368613,-10.216657034301758,13.372995569376277,4.113481000753356,-26.701956909173482
1698921501707.0,0.01666666753590107,-0.07453238615393638,-0.13089783197641372,-0.5084422740906477,1.0245686729431152,-1.810764350835979,-10.107422168079019,17.20275691530965,2.9414275828117495,-23.72430008201328
1698921501723.0,0.01666666753590107,-0.06298720204979182,-0.06826543471366167,-0.4501858999550342,1.0521018459044396,-1.7856252334043383,-10.040683212280273,16.630033600573032,2.3022930581146297,-23.39117297317154
1698921501740.0,0.01666666753590107,-0.02177154069468379,-0.23745938733667135,-0.49661798078417774,1.1131540613036601,-1.9835959293089807,-10.079588989257813,6.917801287156974,1.0565173530362557,-29.000788555482796
1698921501757.0,0.01666666753590107,-0.5231818703219294,-0.24860110520645975,-0.46609424770474434,0.639551045404002,-1.9945194743834436,-10.045770890808106,0.39132720412027094,10.612990404081348,-32.81626541454073
1698921501774.0,0.01666666753590107,-0.772817798468843,-0.16417670898288486,-0.35836043369472026,0.44277759645991027,-1.8929155414305627,-9.934590151214598,-5.759296616651145,19.036929084835705,-34.04548431418417
1698921501790.0,0.01666666753590107,-1.2138400756940244,-0.15239917742758988,-0.18204349732398986,0.0864903888426721,-1.8360529597409068,-9.75517407978475,-10.273017738143963,16.129696630660213,-35.42732720592613
1698921501807.0,0.01666666753590107,-1.2246049230754374,-0.5095236395865679,-0.006735445734858512,0.1113302310667932,-2.158522141973674,-9.580995909008383,-7.01870879440745,-1.3708285713750794,-34.03048521876683
1698921501824.0,0.01666666753590107,-0.9724307816877961,-0.6029245384700596,-0.2719628377020359,0.351498585101217,-2.227056164495647,-9.852139831542969,-4.483592730177068,-16.864503749495817,-31.41641131395745
1698921501840.0,0.01666666753590107,-0.9278929901726544,-0.4957062727667391,-0.14088263489603994,0.36496611557006836,-2.0862473254881797,-9.730933957019447,-7.948658259811727,-4.744352704102053,-28.638291633210002
1698921501857.0,0.01666666753590107,-1.0037366050556302,-0.04874722590371966,0.4017003937274217,0.312293386785686,-1.6036659072324633,-9.191040313610435,-12.595158258769592,13.793076108994155,-29.496783232630783
1698921501874.0,0.01666666753590107,-1.162005697429925,0.05824088430553674,0.618113193643093,0.21697452545166016,-1.4504371471129356,-8.973168547058105,-16.429825388074327,25.66440507047165,-24.502361081315282
1698921501890.0,0.01666666753590107,-1.216407295833528,-0.539755111721158,0.6595593027532101,0.2162261913023889,-1.971774558611959,-8.935609508514403,-25.267391787228192,-5.6609517109998935,-7.086962021009741
1698921501907.0,0.01666666753590107,-0.6529682339251041,-1.2049750705845654,-0.37733459875583647,0.7116762973509728,-2.574963739367574,-9.99145244064331,-21.716417418873583,-45.20541236133805,0.7522904821201328
1698921501924.0,0.01666666753590107,-0.13126140459179877,-1.5983897203952073,0.03983516678214073,1.1073182678222655,-2.930053773089498,-9.596708441925049,-8.810966227431251,-47.83059898392703,2.638787663660597
1698921501940.0,0.01666666753590107,-0.46408641501367087,-1.5827591666735707,2.3639801248937844,0.67277059343867,-2.9067103069029745,-7.286154202270508,1.7514704247865414,-12.08422339658585,-4.921719910242591
1698921501957.0,0.01666666753590107,-0.44682051517516375,-0.7561053677946329,3.017195611578226,0.6790554458618163,-2.0814589221678674,-6.6340335250854485,2.2635554267934905,-2.599055172598163,-18.15639988005788
1698921501974.0,0.01666666753590107,-0.5214267702829093,-0.4077158546246588,3.1425615283906456,0.6046853375975042,-1.741781415502727,-6.507439527782798,12.141798476194472,-1.2303759763775222,-15.299712533287773
1698921501990.0,0.01666666753590107,-1.3065499235734344,-1.0168243424266576,3.893767433705926,-0.14050985606089234,-2.4389431575499474,-5.738901379394531,41.13705457844956,24.91556362043896,13.349661081850574
1698921502007.0,0.01666666753590107,-1.2559814735919237,-1.1286296436592935,2.964056142064929,-0.048931496429443354,-2.69272853352651,-6.641515405273437,65.54237916222647,11.076179682645762,31.62942783869722
1698921502024.0,0.01666666753590107,-0.4971982648901641,-0.7443848271235823,1.8615607643544674,0.7022492013793439,-2.58409163319692,-7.696011598968505,86.75336770516098,7.312393695226481,37.258500922406554
1698921502040.0,0.01666666753590107,0.8307255783624946,-0.3806885853588581,2.4707623372673986,2.0648490020200607,-2.4393917781002816,-7.037605557903647,78.80150437908124,26.011790199205787,6.590766280168062
1698921502056.0,0.01666666753590107,2.8030975183457136,0.27390403489768506,1.794529547610879,4.083610060473531,-1.9294271167479455,-7.675211972045898,36.77933583137348,1.265497662863374,-25.850823131036098
1698921502074.0,0.01666666753590107,0.8557166656255721,-1.8327827058985828,1.8960604153275489,2.1197661487303674,-4.050390366308391,-7.5725605758666985,-13.570265092984584,-12.70749011118056,-19.896764523975683
1698921502090.0,0.01666666753590107,0.737525024356693,-2.7448995963990686,2.636248083022237,1.9958663589477539,-4.916343325396627,-6.84382544555664,-15.148148928057896,-0.5084167101749764,-16.608013070688912
1698921502107.0,0.01666666753590107,0.19651392122507094,-1.6189498394735156,2.8758021045506,1.4763245986938476,-3.766677469579875,-6.606799481201172,3.7162056090005033,10.398083624488773,-20.541476325016944
1698921502124.0,0.01666666753590107,0.7235640112824737,-1.3116159747913478,3.9108068313121795,2.080411458941549,-3.5247134643003344,-5.546018508148193,40.87947448447004,21.87048599598156,-27.796218101006637
1698921502140.0,0.01666666753590107,1.3613168481580913,-1.159639991211891,4.0900884627074,2.758419441577047,-3.4864062377378344,-5.333533110809326,57.18965544885325,-2.553890973598277,-19.776107524740116
1698921502157.0,0.01666666753590107,1.8415553565494716,-1.4326038226500153,2.995328063163161,3.2074818904601035,-3.908085005132854,-6.394912634277343,65.75917619667185,-28.21165240444162,-0.9291381669969261
1698921502174.0,0.01666666753590107,1.756345070645213,-1.4075848244667053,3.522489066249132,2.947411735125631,-4.105606642095744,-5.830180317687988,64.60076245305935,-74.95239908364474,28.54227283385796
1698921502190.0,0.01666666753590107,0.9701401134673505,-1.1311740674450992,3.402597781455517,1.9057844484191386,-3.9806589506953953,-5.934178452301025,48.60243426580057,-107.743898232255,49.44430289232883
1698921502207.0,0.01666666753590107,0.6223064075492322,-2.460242989079654,2.400178396478295,1.2349591438293457,-5.408501550292969,-6.932710182189941,22.2207193135996,-125.37665995204657,52.30758307919529
1698921502223.0,0.01666666753590107,2.5146350890025495,-5.054358442032337,-0.602848404493928,2.632424771007569,-8.023867296545207,-9.948356810760497,-4.17087593412262,-144.85753425746017,21.457467871965477
1698921502240.0,0.01666666753590107,2.8600945400699973,-5.426784225958586,-1.4712299059033394,2.6723778559477998,-8.41112883055359,-10.810867374309897,19.004120271157547,-97.1127907514002,0.057011508960817095
1698921502257.0,0.01666666753590107,1.5071104898408054,-2.8782594345748422,-2.880330395630002,1.1302128211975098,-5.937170912115276,-12.190077752685546,38.52771057964041,-62.75273182970733,3.0175062852121712
1698921502273.0,0.01666666753590107,0.7897802583813667,-2.2516282956942915,-6.495684208059311,0.2768296400208026,-5.412092560522258,-15.764920106506347,17.676381015378553,6.610785991512193,32.013994809725624
1698921502290.0,0.01666666753590107,1.1030009891450405,-2.788485640147328,-6.365615228122472,0.6425438340118155,-5.9626093047544355,-15.632939739990233,0.42559228883466793,52.88227178086558,41.55049958928877
1698921502307.0,0.01666666753590107,1.9519833780795335,-4.026186776161194,-3.893403861090541,1.5900491044860332,-7.16330172958374,-13.1776859375,-20.95884015689245,33.659998682712406,44.65093077432724
1698921502323.0,0.01666666753590107,1.7416576429925859,-4.127786617460846,-2.9798066689044234,1.4073416268279775,-7.194725334112346,-12.288539295959472,-33.1582700617562,17.387812353134684,40.37306718393236
1698921502340.0,0.01666666753590107,1.5234689194455742,-3.8870968699008226,-2.947584315213561,1.1864764871459454,-6.857442467498779,-12.287491832733153,-43.57128618731791,6.431760756950635,32.33699104048094
1698921502357.0,0.01666666753590107,1.3459303323253988,-3.3694776021420956,-3.3959219569534063,1.0091559997558592,-6.21863895252645,-12.773514769744873,-54.060131073045106,14.90823170327203,32.642119496367506
1698921502374.0,0.01666666753590107,0.6304969474632293,-2.750055956248939,-3.4961622003376482,0.31977555923461914,-5.402665391485392,-12.932130629730224,-57.50451692430708,14.76851506115754,33.47156400879551
1698921502390.0,0.01666666753590107,0.5671721109569072,-2.719913915963471,-3.073936320453882,0.2498947982788086,-5.254673801366985,-12.542025396728516,-33.94404234463114,-2.7129332090824936,29.967222756999163
1698921502407.0,0.01666666753590107,0.4021026178527623,-1.7658812530145047,-2.858703670233488,0.013168109130859374,-4.2791865547180175,-12.329839274597168,20.926174777186862,-29.957219944959682,26.54408733179239
1698921502424.0,0.01666666753590107,0.3968757500499487,-1.1298685378044844,-2.592352827194333,-0.13108254089355467,-3.7376477744504806,-12.031162617492676,52.58227962723486,-72.76627409637709,27.666905544545372
1698921502440.0,0.01666666753590107,0.5593699127733707,-0.9238704566583037,-2.2911218094319103,-0.2506429132323712,-3.675547876629233,-11.668889978790283,66.42508548980224,-131.4681914840791,34.96843753144424
1698921502457.0,0.01666666753590107,1.0043047603324056,-0.8996747575566172,-0.839338362276554,-0.2709935542784631,-3.874865164837241,-10.096348400878906,77.1914307162233,-125.8488855708829,37.74588273101115
1698921502474.0,0.01666666753590107,0.9464847317874431,-1.0491825974568725,0.6325543914496898,-0.6404487979613244,-4.187009498541057,-8.522011171722411,67.15392131575595,-105.69547668884398,39.759234668128734
1698921502490.0,0.01666666753590107,0.8699154329784214,-1.2412085596129296,1.2285136209517717,-0.9629178340636193,-4.49795643915385,-7.838167322540283,45.35311520213957,-73.18225993758755,33.25415225732483
1698921502506.0,0.01666666753590107,0.19770795331522822,-1.1425088236689567,2.824448933932185,-1.7880194350644945,-4.46294094761312,-6.186766142925619,18.968668174270597,-38.46418640526471,21.068874504421355
1698921502524.0,0.01666666753590107,0.44840120849534865,-0.6537307427302003,3.2586160115003584,-1.5978301868163047,-3.9778164207458495,-5.737704278564453,-7.967067327172203,39.86587099654556,14.818508630787449
1698921502540.0,0.01666666753590107,0.3086184976652264,-0.587081511041522,3.2459470840632916,-1.604414095251262,-3.879803498022258,-5.791124903106689,-10.990132959481942,51.64118542753924,22.236719031730352
1698921502557.0,0.01666666753590107,0.7415519417852163,-0.037489188177883624,2.3071605055630204,-1.1112085532590745,-3.3114798789426683,-6.749253895458579,5.8686411150738795,6.781598777370457,30.34184155750144
1698921502574.0,0.01666666753590107,1.328546359065175,1.0347636114820837,3.261962399318814,-0.5871776648923754,-2.253093399810791,-5.776310780334472,17.486971331957637,-36.92894087985885,34.684325567633806
1698921502590.0,0.01666666753590107,1.6571080129541456,1.2045935239210723,3.324462986895442,-0.41404710347279905,-2.119017522320151,-5.666327141571045,25.74241095343507,-65.88020714876447,31.076011761196938
1698921502607.0,0.01666666753590107,1.3995511556148528,1.2129676767736672,3.161393654632568,-0.9026138797484338,-2.171989526312053,-5.749974562072754,26.245882980176926,-53.6166195694795,24.389359016592007
1698921502623.0,0.01666666753590107,1.2999006948173046,0.16924363698363304,2.285514490944147,-1.1091137729369103,-3.2664389602109787,-6.578069645801186,28.691073627568567,-20.918658154005264,19.14297289434203
1698921502640.0,0.01666666753590107,1.2077677700430154,-0.21785744576603172,1.946717420375347,-1.2321158832274377,-3.7107132980346678,-6.886023249816894,27.921548657181788,4.1049915025018535,11.958231165834855
1698921502657.0,0.01666666753590107,0.8538860891975462,0.18797201059013605,1.1664824044525623,-1.551143254443258,-3.3649005034849044,-7.651868505859374,12.593259466180328,25.687567949494454,7.926990338443507
1698921502673.0,0.01666666753590107,-0.02186930198073387,0.6595327070072293,-0.177694069942832,-2.3581388515196737,-2.887855822698772,-9.016713089752196,-13.26498637293628,41.55850798609061,11.41698050902001
1698921502690.0,0.01666666753590107,-0.14567790634855626,0.6023790334165096,-1.225976211428642,-2.3826794185362754,-2.8826182143062353,-10.115351792034506,-31.016742794674155,53.350382210726984,16.618572543145753
1698921502707.0,0.01666666753590107,-0.3647369829893112,0.20769348688721656,-2.4640339057952163,-2.492064506884664,-3.1774045859739184,-11.418695905303954,-18.986785251044054,21.02927136006633,7.575651383953575
1698921502723.0,0.01666666753590107,-0.34500410851538177,0.2557248196065426,-2.9217157144635912,-2.461388798113912,-3.1257793204158544,-11.880327912902832,15.268582238598146,-14.078375671946528,-18.002237387848812
1698921502740.0,0.01666666753590107,-0.1277154025480151,0.5847460538312792,-3.053316726273298,-2.278980559130758,-2.891447125189006,-11.967267945209144,50.938478490255406,-35.63021114503219,-35.51471947635645
1698921502757.0,0.01666666753590107,-0.9810214999005198,1.3071739006906746,-2.760202963992953,-3.2148142791748047,-2.3970444823667405,-11.561300541687011,71.10204386359013,-45.28744634836448,-41.252430133909414
1698921502773.0,0.01666666753590107,-1.617203288067132,1.534541809862852,-2.5151275486946103,-3.9016508804321286,-2.3502082046508788,-11.224915208435059,62.14509088038631,-33.26633048461497,-42.245730884526026
1698921502789.0,0.01666666753590107,-1.7843867776505649,1.6536121336624026,-2.449226797285676,-4.074182891436666,-2.376843405859172,-11.091139190673827,44.34018107275376,-7.073823725254399,-39.13551545350151
1698921502807.0,0.01666666753590107,-2.4807652603656054,1.9857059072002767,-1.810758213356137,-4.688893875420838,-2.1781246680662036,-10.410587953296304,23.16778822127169,17.085233265355825,-40.801497629810584
1698921502823.0,0.01666666753590107,-1.9651475416876374,1.6159478811785577,-1.4096768283098935,-4.095281501305848,-2.6071353857845065,-10.000281059265136,5.266065177909253,4.1703248232339645,-54.089214018531024
1698921502840.0,0.01666666753590107,-1.6429131911240518,1.2450222726821898,-1.2373410705298185,-3.7125088031493125,-3.009660832159221,-9.827150351715087,-6.441468163308516,-8.681077373758765,-65.53052195382733
1698921502857.0,0.01666666753590107,-1.614007853026688,0.4808516718536615,-1.0426268922030926,-3.6092590026855467,-3.7862799956724045,-9.643844871631265,-16.52771053661707,-1.9539531970005677,-61.913656750549606
1698921502874.0,0.01666666753590107,-2.0372990240544078,0.7243588149219751,-0.7682850504100323,-3.955370634051412,-3.537582298223674,-9.389609998321532,-14.965149377173038,14.389094637668748,-51.367025049349515
1698921502890.0,0.01666666753590107,-2.083838072389364,0.9804311327919364,-0.13241291271448136,-3.9055413119994102,-3.282449891552329,-8.774150534057616,-6.357395364814829,22.606937482859845,-44.29968146607017
1698921502907.0,0.01666666753590107,-2.184955683130026,1.312067225690186,1.3239701371908188,-3.8847415389463302,-2.977189179882407,-7.32954852283895,2.5800034271254706,12.142959608353374,-42.89946195036629
1698921502924.0,0.01666666753590107,-1.6113997163549065,1.3435703251957893,2.258202705648541,-3.254168968963623,-2.970156212505698,-6.394164446258545,-1.4673085152178003,-6.677554932630476,-47.717562768257906
1698921502940.0,0.01666666753590107,-1.19383656758517,1.1037760651707649,2.5474948638141153,-2.8167781070433557,-3.2137665236875415,-6.106710609436035,-15.525921568409425,-26.35484498800614,-54.686568702962
1698921502957.0,0.01666666753590107,-0.4257729048408568,0.4131462091103196,2.6194237894713877,-2.072630303546041,-3.858255390819907,-6.053140931811928,-37.21533071175749,-44.524872803005486,-57.28833460688701
1698921502974.0,0.01666666753590107,0.09804287947043776,0.20083499929457901,1.5436872393488883,-1.5952862014219165,-3.9926299589961767,-7.1579141913264985,-51.28529159064656,-45.93882782913026,-46.839862969343756
1698921502990.0,0.01666666753590107,0.09965805958211421,0.1716378386437893,1.0815560500562191,-1.6442179901123046,-3.9161651434749363,-7.660248211669922,-55.20918062730552,-33.88438747242025,-31.252107698378207
1698921503007.0,0.01666666753590107,0.17054010653495788,0.4628489821732044,0.6332949806839228,-1.6151882949829102,-3.4816178344175217,-8.16572403717041,-46.77651637988647,-16.032788199168778,-14.60725429485354
1698921503023.0,0.01666666753590107,0.3492207032971084,0.8723127033784985,1.0044342319309711,-1.4609119255065917,-2.979583673803508,-7.830535804748535,-37.43672446351428,-15.698416288350804,-4.8037971211091435
1698921503040.0,0.01666666753590107,0.5803726610526442,0.9623442719593643,1.6261165162324904,-1.2805984668456016,-2.8184239745542405,-7.228992637634277,-23.385672963342387,-30.79263404272228,4.013955326149339
1698921503057.0,0.01666666753590107,1.4067568492099642,1.0574848541170359,3.2291561082601548,-0.610371785736084,-2.682253755132854,-5.6091655769348145,1.14290804025781,-61.347761917435705,11.93271784796392
1698921503073.0,0.01666666753590107,1.8325515274912119,0.6033426177516579,3.8313475101500747,-0.34266996647939085,-3.157652130016684,-4.96033692703247,20.18993502617285,-66.48535507903843,2.163278858267595
1698921503090.0,0.01666666753590107,1.5495667989067732,0.45276685635894537,3.721501234030723,-0.765845109912008,-3.368042600902915,-5.008370597839355,27.961457452502174,-57.403792124616906,-7.287249207570725
1698921503107.0,0.01666666753590107,0.9903484234333038,0.20891016920059918,3.2653111252248284,-1.4565721427366136,-3.6884170028135177,-5.39458525314331,13.527219533287871,-37.42225129266302,-11.029964915174164
1698921503123.0,0.01666666753590107,1.6904057407915591,-0.6790723969966173,2.7157418909758326,-0.8114847251892089,-4.594472401317954,-5.920262155151367,-2.779016996849659,-20.064059762411393,-7.676476928934011
1698921503140.0,0.01666666753590107,2.080915755201876,-1.0935828801974654,2.40393687222898,-0.44861324381083245,-4.991760239300132,-6.231807646179199,-12.521957413887273,-7.932685862437651,3.9890046451112817
1698921503157.0,0.01666666753590107,2.5459786140322684,-1.9530653280973433,1.426820855334401,-0.02259527816772461,-5.809529743847251,-7.216123803710937,-3.903524400761749,-10.308125764251475,21.429940502063033
1698921503174.0,0.01666666753590107,3.185456375004351,-2.7325267292991278,0.8158826678872108,0.5512652245119214,-6.580163403210044,-7.811231969341636,12.18642607845769,-24.457676276217768,29.352823335494424
1698921503192.0,0.01666666753590107,3.4538965915381907,-3.1811990098208187,0.6137374627768993,0.7336734634950757,-7.057208376257121,-7.97388862915039,31.233392980052372,-21.98849629691375,28.670374739288842
1698921503207.0,0.01666666753590107,2.9908553016632795,-3.8106650798663493,-0.1818020897835493,0.20709844360351562,-7.7732243102476,-8.709358036151528,38.93455079755223,6.9164181738500465,25.233553322532657
1698921503224.0,0.01666666753590107,2.148016822311282,-4.148316195270419,-1.616930170214176,-0.6138134506225585,-8.170063235418498,-10.123881719970703,30.01814181726161,36.75611660329002,26.689141766743244
1698921503241.0,0.01666666753590107,2.0751123296201226,-4.253194619849324,-1.8598147974699735,-0.6093243225097655,-8.306682367651163,-10.376469995117187,16.849277550288566,59.67179058946549,32.95314240550779
1698921503257.0,0.01666666753590107,2.3189982428729534,-4.326531950999796,-2.0760142468959093,-0.20979192047119138,-8.369979074041545,-10.644919856262206,0.0728203286403554,76.76552744033798,44.12744458576996
1698921503273.0,0.01666666753590107,2.6431512865394353,-4.231270957332849,-2.2321558257222174,0.22086510314941404,-8.229768639318644,-10.852766487884521,-11.080561248998325,61.15054703534076,55.61134558073046
1698921503290.0,0.01666666753590107,2.434961540567875,-3.5893151158094403,-2.6211042899042365,0.05192439463511109,-7.521683498327434,-11.282974598693848,-11.398860017151968,28.821711240728817,67.2813726456684
1698921503306.0,0.01666666753590107,1.6510707786165177,-2.343951190082729,-4.606168099808692,-0.7936777042113244,-6.210109609112143,-13.280636608886718,7.602912376478389,-4.295978532734219,57.52075911415337
1698921503323.0,0.01666666753590107,0.17059008315652607,-1.119341298571229,-6.937974386328459,-2.3301564734861255,-5.004628780962527,-15.587898821258545,37.78328143181155,1.9351198041379039,42.60018696659842
1698921503340.0,0.01666666753590107,-0.6134498780071735,-0.09156389271467924,-7.514641470861434,-3.1313162040159104,-4.068945429174602,-16.117615938568115,64.62408071888576,18.371451801170313,37.242893940153074
1698921503357.0,0.01666666753590107,-1.081515133523941,1.1279346471324563,-6.372917660090327,-3.581725391332805,-3.0374931341975926,-14.891634466442465,77.39679401399808,25.527529787051883,39.489349988359436
1698921503374.0,0.01666666753590107,-1.164101354534924,1.14694125315845,-3.219089472275972,-3.656843760681152,-3.158550247900188,-11.67008707962036,65.44214613615654,18.40220814300288,41.9441233911566
1698921503391.0,0.01666666753590107,-1.716072096967697,1.5494237371742725,0.04692366373836994,-4.232349692480266,-2.86331525568217,-8.341548221588134,31.24356313172652,16.840939596859272,43.80268616620877
1698921503407.0,0.01666666753590107,-1.9577979095771907,1.1386407500639557,1.0957114166587592,-4.485985430853068,-3.2840959051936864,-7.283909638214111,-0.6358762042979066,8.326970485107685,32.10572766537348
1698921503423.0,0.01666666753590107,-2.039949246302247,1.0688830309659243,0.6864250978469848,-4.592377767126262,-3.298760682623088,-7.7147168839603655,-36.65071312401838,-4.339794623146674,12.897949936186366
1698921503440.0,0.01666666753590107,-1.6884110598430035,0.9644052961423992,0.029932196927070616,-4.242824617004394,-3.2532705588191746,-8.446893094635008,-58.720311087136864,10.836210377667474,-2.439334613952
1698921503457.0,0.01666666753590107,-1.7751023780852555,1.0489181013017892,-0.19727730681300162,-4.279186262457072,-3.048117404064536,-8.747963953399658,-49.48958021633685,30.703551300472387,-3.681539410754927
1698921503474.0,0.01666666753590107,-1.2545200227372348,2.294523142307997,-0.0722089116424322,-3.6646247699461876,-1.7233756979793309,-8.687211086273193,-22.399992996292216,51.69497658234768,0.28284651118413184
1698921503490.0,0.01666666753590107,-0.32650238327160475,2.663821149602532,1.0323398914664983,-2.5588028781615195,-1.3507786491394043,-7.631966704559326,21.39959738667525,62.931969653906805,15.160851372366828
1698921503507.0,0.01666666753590107,-0.19399097861871123,2.434117783220112,1.8269062150806188,-2.3286602435790003,-1.649155446514487,-6.829909148406982,44.390772283936045,39.600764034100685,20.6069249051913
1698921503524.0,0.01666666753590107,0.07150982346236705,1.880328885449469,3.601492460337281,-2.0198082294188437,-2.308758003887534,-5.015253927612305,52.96875563613628,15.956397655944063,15.98782847895717
1698921503540.0,0.01666666753590107,0.06309460794702172,1.9254720955118536,3.8216386015623804,-2.030432353155315,-2.4106612120479345,-4.721515311431885,49.15788573967352,-0.5115783407087519,5.632736199538571
1698921503557.0,0.01666666753590107,-0.028685703997313974,1.9493495224446058,3.892949687582254,-2.118868469238281,-2.4878742155879734,-4.598962113952637,41.7620681139245,6.691318617581698,-1.3499313941660138
1698921503574.0,0.01666666753590107,-0.03127192109823227,1.9846645814538,3.481706389483809,-2.0732290000915525,-2.5605983832761643,-4.9646764175415035,28.942308475809146,20.73573032010669,-8.198063471128389
1698921503590.0,0.01666666753590107,0.14888707765340803,2.098386822223663,3.2626141412258147,-1.8317137614928185,-2.5067288459226487,-5.165939579120278,22.498323814678304,25.817411553163687,-4.629704136901981
1698921503607.0,0.01666666753590107,0.1931010440416634,2.0945868454188106,3.1675287963867187,-1.7369931583128868,-2.5573060637325047,-5.247042575836181,20.635089190233845,18.034284635434513,5.861280305582722
1698921503623.0,0.01666666753590107,0.05915259232297539,1.7126549820005892,2.6699603830099106,-1.8703204093933103,-2.9788351935237642,-5.722741102710366,19.24696764709735,-10.41967470622883,9.703079433041419
1698921503640.0,0.01666666753590107,0.1834539486438036,1.5487535828277468,1.365865159112215,-1.8532615764342248,-3.191620158331096,-6.973861107745766,16.74175500482693,-54.29673565608352,-0.6695567208688857
1698921503657.0,0.01666666753590107,0.10638634492382407,1.612357455471158,0.45572599842548367,-2.0536264739990235,-3.161841982921958,-7.83352855682373,9.828321196757358,-60.919119735693215,-9.484997469258436
1698921503674.0,0.01666666753590107,-0.3014217180289328,1.8797092922464012,-1.0578630397796631,-2.588730398913473,-2.890698937170207,-9.31509047164917,-20.401783588564548,-34.11775113069749,-3.0812567096041317
1698921503690.0,0.01666666753590107,-0.6714568074263632,2.029821820041537,-1.9126210895061493,-3.009361703082174,-2.6593592017576095,-10.20214277125895,-53.60768568204512,-8.993821490569895,8.996700415305055
1698921503707.0,0.01666666753590107,-1.0458099061533808,2.032137111246586,-2.28133165230155,-3.394379403686523,-2.5010426169797775,-10.6541979722172,-78.17368022076283,15.919012615521998,24.681643301744362
1698921503724.0,0.01666666753590107,-1.72469715584144,2.0319582475483418,-2.900860557961464,-4.056675291796774,-2.232293188366294,-11.418396630096435,-82.61838484201361,25.466975037417843,37.16467802887267
1698921503740.0,0.01666666753590107,-2.0852020542189478,2.3150381070703268,-2.8563994849443435,-4.403685041046142,-1.7530042357847093,-11.473014355468749,-74.1446677425882,17.145656533848342,25.38291248420791
1698921503757.0,0.01666666753590107,-1.9291537066340445,2.2628207208380102,-3.0091496677666902,-4.238036067553609,-1.640776032964885,-11.704054815673828,-64.93329704299057,2.5079833511959175,-2.32963558602266
1698921503773.0,0.01666666753590107,-1.322884826172143,1.9275407184794544,-3.528760986125469,-3.6194343597412106,-1.8148042738765477,-12.297518136706948,-46.446368941070155,-3.003812609699942,-17.572818272088234
1698921503790.0,0.01666666753590107,-1.7350171820648013,1.396563079714775,-2.971583030438423,-4.023306106158346,-2.2719474456235766,-11.773636885944008,-22.271093666275736,1.009370905073185,-1.9954700749836671
1698921503807.0,0.01666666753590107,-2.067131998390704,1.319762164106965,-2.229902493837476,-4.358943397521973,-2.321477492468059,-11.042357331848144,1.1175743350177039,1.6336436851882978,15.785390209694453
1698921503823.0,0.01666666753590107,-1.9880833038561045,1.1840572241097689,-0.5942360589712857,-4.305971539660543,-2.4667756057187913,-9.395894777679443,12.503381860665778,-1.7911270367161645,28.367638557159076
1698921503840.0,0.01666666753590107,-1.60508921803385,0.32237726616561413,0.7446107448339462,-3.9728782336913047,-3.3273414649412034,-8.04421830291748,-3.4923250280555904,-22.217381058642754,19.22502907948327
1698921503857.0,0.01666666753590107,-1.1144279536969959,-0.25003011509627104,0.8344698794573545,-3.56571416773051,-3.852419524273276,-7.950994075775146,-35.31704355649252,-43.5567105636291,-7.096479035844507
1698921503873.0,0.01666666753590107,-0.8432403381511568,-0.9554059971287846,0.6280816299498081,-3.404554760742187,-4.400392721502483,-8.189067503356933,-82.93318143067033,-42.82907002078014,-45.684983848626736
1698921503890.0,0.01666666753590107,-1.0023255692139268,-0.485986988915503,-0.09952069693803786,-3.582473579351604,-3.7419875572204586,-8.98274535369873,-110.84453090787399,-12.4644164852245,-64.11218536134999
1698921503907.0,0.01666666753590107,-1.0972644913196563,-0.20025690714567898,-0.08672142111957072,-3.6079122642517087,-3.228131441387534,-9.069984076690673,-121.76642686245292,22.47677969048879,-71.43105407590964
1698921503923.0,0.01666666753590107,-0.40154534929618235,0.545201102167368,0.2747796486884355,-2.7277438789367676,-2.1728873519346115,-8.856002303314208,-105.32280107716058,46.06394323434655,-61.015240987882805
1698921503940.0,0.01666666753590107,0.7391076173730194,0.6954381331250071,1.7065595877349375,-1.4431049045287072,-1.8365020186826586,-7.512855171966552,-74.45673908576607,41.48454045247396,-41.96539601532661
1698921503957.0,0.01666666753590107,1.0752842763103545,0.500698235835135,2.5644009904295206,-1.0085571570798755,-1.9090761103756724,-6.710348703002929,-42.29910881288968,20.41873611808452,-23.311792514637652
1698921503973.0,0.01666666753590107,1.4107124549679457,0.1442442202836275,3.7234517835766074,-0.6570585719786584,-2.196081180517375,-5.5726540016174315,-10.704424438953016,-18.730569487351246,-12.245525997798516
1698921503990.0,0.01666666753590107,1.555863560963422,-0.35863209024295206,4.098546494451165,-0.5777504958555102,-2.6958707770749926,-5.183446594238281,1.682508245892744,-39.189446627187934,-10.26203564773223
1698921504007.0,0.01666666753590107,1.5252157631129026,-0.5439797436788678,4.168609041714668,-0.7125742691040039,-2.8945896609984336,-5.0854339637756345,3.7230964160994,-49.70729932632017,-7.150432834532554
1698921504023.0,0.01666666753590107,1.739279223423451,-0.9861958337984978,3.6427380784392356,-0.6605003829956054,-3.3370680553160605,-5.570559075164795,-5.715101877626578,-50.788767573837895,4.405531351926639
1698921504040.0,0.01666666753590107,1.5802832780793308,-1.4973052812717853,2.567997553616762,-0.9451111053466796,-3.820247877856344,-6.618770489501952,-12.175155412553522,-49.07054811075656,11.813406395994845
1698921504057.0,0.01666666753590107,1.6547630572631955,-1.8967475208088755,1.982001499724388,-0.9898524566099047,-4.1807247191831465,-7.180958966827392,-11.545730428648397,-42.77666197927863,14.327477793618769
1698921504073.0,0.01666666753590107,1.5542165244087576,-2.7302394951447844,1.2367384284615517,-1.2184990074157713,-4.971260179845989,-7.898920189666748,-8.646568696750922,-32.20950897471724,9.112068286802094
1698921504090.0,0.01666666753590107,1.2362114819779992,-3.3855522463694214,0.29234803860485553,-1.6117463378354906,-5.60228195490092,-8.826074782562255,-7.957176359480378,-28.923344455578604,2.1400216372568783
1698921504107.0,0.01666666753590107,1.3083210248991846,-3.573206277051568,-0.2138344738602638,-1.6062100387573242,-5.774514690697938,-9.314940834045409,-4.993677233809144,-26.673591133550417,-2.6545517402649863
1698921504123.0,0.01666666753590107,1.4623928117141127,-3.5708535764455793,-1.3137819206535815,-1.5138833449766038,-5.774664182171225,-10.3942768699646,3.973916757234724,-12.442353266658067,-6.33862685874928
1698921504140.0,0.01666666753590107,1.2746677616223692,-3.393201007556915,-2.618005739367008,-1.7057190452575683,-5.620837310028076,-11.691335619354247,12.78816147546758,8.297343685809109,-3.7941811829994845
1698921504157.0,0.01666666753590107,1.2305825361803173,-3.2634552682250737,-3.066215370813012,-1.6968901343747973,-5.535393946020305,-12.145785021972655,25.2775721841861,35.930947789282435,5.269386784279995
1698921504174.0,0.01666666753590107,1.3537319459870456,-3.3407138644725083,-3.287794759711623,-1.4460975104734302,-5.705082842553407,-12.384008087158202,36.7153506192288,41.50208379335713,11.35866264633915
1698921504190.0,0.01666666753590107,1.8961232514306903,-2.6119711353778836,-4.039611490401626,-0.8435068801328539,-5.048772312463075,-13.135039220428466,27.938251884797054,12.016868339859416,10.804142639514264
1698921504207.0,0.01666666753590107,1.7573194686353206,-1.7510580701529979,-5.266452794227003,-0.9938929641723632,-4.221875060217082,-14.349198737335204,8.594835136429953,-11.087798688197601,12.752072463440527
1698921504224.0,0.01666666753590107,1.4369877368226647,-0.3075838939204812,-7.278730189749598,-1.3491326354980469,-2.790741017858684,-16.347459297943114,18.936407483273335,5.029102863713062,27.87452963493542
1698921504240.0,0.01666666753590107,0.395702030095458,1.3473521818220615,-7.829585372155904,-2.38118318862915,-1.1888704696103929,-16.88645394668579,49.22682625406104,21.99883208067527,46.0569627810148
1698921504257.0,0.01666666753590107,0.0612055793300271,2.148386532406509,-7.689954783147573,-2.6841990439817307,-0.5021835059568286,-16.723648233795164,79.9433207630106,36.31652904340258,62.103611141556826
1698921504273.0,0.01666666753590107,-0.5442687897533178,2.6316861819341777,-5.678236775073409,-3.210174928936362,-0.25393442905843255,-14.663587342834472,102.80668233033295,52.843291891272315,65.38320843380849
1698921504290.0,0.01666666753590107,-1.2301686946824193,2.185969828608632,-2.6829987282812593,-3.8148610702514647,-0.8984238807126879,-11.62594398651123,97.91822714889561,53.55808826338708,53.919019364792646
1698921504307.0,0.01666666753590107,-1.4634183553695679,1.990705322922766,-1.4977397271662949,-3.975122651617229,-1.2693755004331468,-10.399065273284911,75.93918383379315,39.14938756770581,33.684771778832044
1698921504324.0,0.01666666753590107,-1.0462564808771013,1.4818471615076063,0.26460546067655083,-3.498227316173911,-1.935113199560344,-8.594435187420249,36.35194698934368,15.025714372090833,8.620880355282504
1698921504340.0,0.01666666753590107,-0.604664806266129,1.131659512874484,1.1917156299084424,-3.0389899486266074,-2.337937628881633,-7.651719452777504,12.255978748549575,3.9440978588657405,-0.1369289110769182
1698921504357.0,0.01666666753590107,-0.5108528423637151,1.2794494429409504,1.3411375450909138,-2.9393313045226037,-2.2050594367429612,-7.4980410491943355,1.3258683175549415,0.3785536297944364,-3.778019674762765
1698921504374.0,0.01666666753590107,-0.6232337515272199,1.7342919365301728,1.776591739860177,-3.0365954547055063,-1.7633289381831883,-7.061548159027099,6.995954019187552,7.786828026485676,-1.6841376728966153
1698921504390.0,0.01666666753590107,-0.5543889094904065,1.8606077014133333,2.5384920576691625,-2.940977318163961,-1.6678604392454026,-6.2946554397583006,16.92971498059651,13.911766867522406,0.25211111348632403
1698921504407.0,0.01666666753590107,-0.5532004303582012,1.8180045312225817,2.8418805457264185,-2.9046152343198655,-1.7612343039914964,-5.980266249737143,26.013671916322128,15.633978576173611,-1.290963809740355
1698921504423.0,0.01666666753590107,-0.7413122878104448,1.70623810069561,2.989887917935848,-3.041683571624756,-1.9671353545039891,-5.806986489105224,30.435299035914724,12.964265096611665,-13.442414197005702
1698921504440.0,0.01666666753590107,-0.8174531320743262,1.6233879680514334,2.943226120004058,-3.064727470342815,-2.131287513567507,-5.833023432159424,30.049304555349792,17.95140370495099,-23.57656821290778
1698921504457.0,0.01666666753590107,-0.827668236618489,1.6755796353206038,2.8186212506920096,-3.002926993859559,-2.1624124274104832,-5.939714459118247,29.171078831869554,21.856320183642953,-28.137778785926052
1698921504473.0,0.01666666753590107,-0.49203547529950736,1.839268560786545,2.245812010630965,-2.554912154333293,-2.112283830150962,-6.489184324645996,33.07947016930176,26.948350860839813,-25.482421510225826
1698921504490.0,0.01666666753590107,0.0233688928887248,1.9404744343325495,1.9909043526262045,-1.956511523028463,-2.105101225170493,-6.720224784851074,39.662997302723255,25.163835874127045,-15.533721644441579
1698921504507.0,0.01666666753590107,0.14395838907957076,1.989508222092688,1.7284131076246498,-1.7779938617430626,-2.1558286651059984,-6.948721405792236,42.27138165995401,15.302051873078502,-6.890606888976568
1698921504523.0,0.01666666753590107,0.2855842435583472,2.0637848799198864,1.1424836892277002,-1.6018704021178185,-2.2044608863279223,-7.48247873840332,36.48093511181938,3.7922508007853097,-3.9830512814759693
1698921504540.0,0.01666666753590107,0.039839258435368535,1.941685855948925,0.7869207772970199,-1.8417396270751951,-2.404227087347209,-7.800458646392822,29.61927584520579,-3.3152532275966564,-7.345605490065668
1698921504557.0,0.01666666753590107,-0.21306991922855376,1.8962182362377642,0.5776964275807142,-2.0940284808836878,-2.5080755843564866,-7.98002377090454,15.877348461584921,-7.298530972532294,-16.763604779981804
1698921504574.0,0.01666666753590107,-0.7613665031932294,1.8664555506587028,-0.07962181824743747,-2.62569059478119,-2.561047003826499,-8.629002058410643,-11.176874600258321,-4.780861345876241,-29.7862056685209
1698921504590.0,0.01666666753590107,-1.2610682753369211,2.556352708530426,-0.4180412876754999,-3.097199122619629,-1.8375494819089768,-8.990825784301757,-32.31624775597161,-2.465752078114317,-30.814572610336363
1698921504607.0,0.01666666753590107,-1.5507098314620553,2.7980145159929988,-0.6133621997237205,-3.359513842010498,-1.5149305159419775,-9.232940011706948,-51.3319281222994,-2.77925199804579,-27.357989748764037
1698921504624.0,0.01666666753590107,-2.107137699434161,3.1124554362013934,-0.9869844999581575,-3.8830956714354454,-1.0438713393062353,-9.689932669067382,-60.753439836996215,-2.2904411858007765,-29.040062143210367
1698921504640.0,0.01666666753590107,-2.670142753839493,3.0955551548048854,-1.142469076180458,-4.415805833081156,-0.9407713225767016,-9.9078050201416,-55.830509275723244,0.31370093026431245,-33.711645158121456
1698921504657.0,0.01666666753590107,-2.8603526064842937,3.8385482353091236,-0.9659154084444046,-4.541650765582173,-0.05790946039408445,-9.80679963760376,-55.70931098399595,3.369810857696014,-51.820225176252784
1698921504675.0,0.01666666753590107,-2.3607483033657073,3.708702542734146,-1.0568085622906684,-3.973177508898824,-0.07077829431742429,-9.961076007080077,-67.19865222463037,7.260939318887837,-60.41327592576207
1698921504689.0,0.01666666753590107,-1.2826380098491907,3.0795398395493625,-1.3036217611670493,-2.811840066119283,-0.5571005065366625,-10.281749391937256,-73.83796492809795,16.321607870864646,-55.08671875058178
1698921504708.0,0.01666666753590107,-0.9804920691989362,2.9669948258653283,-1.2492267386347056,-2.416796792193502,-0.5249284217283129,-10.299855541992187,-59.90291053060038,26.646425763673985,-30.756181323121922
1698921504724.0,0.01666666753590107,-0.9040838061705231,2.3955071897968647,-0.7680465654790402,-2.2412720291137695,-0.9883557883113622,-9.874735109710693,-7.919244903924713,22.962313932922903,7.0731684539809
1698921504740.0,0.01666666753590107,-0.7052851350091397,1.7396560939118264,0.6653150898009538,-2.024297357531637,-1.6674112341731786,-8.435370414623618,29.730457664515257,2.929415841382636,21.770186375567217
1698921504757.0,0.01666666753590107,-0.4494356661096215,0.7091133149951696,2.5099837560653686,-1.8373999904356897,-2.8184239745542405,-6.534374880981445,46.0957070290817,-28.650898454870553,23.18662417545529
1698921504774.0,0.01666666753590107,-0.6376099212735891,0.22940701378434894,3.086955961024761,-2.1381715739928184,-3.379714626257121,-5.907094046020507,23.79138107739927,-53.68630115939197,8.646749696763926
1698921504790.0,0.01666666753590107,-0.9997435898967086,-0.6057359426289797,2.800726113039255,-2.648884861755371,-4.211400135692954,-6.168660577392577,-33.110212850755985,-73.97971867413239,-17.63349255003275
1698921504807.0,0.01666666753590107,-0.6605978520207106,-1.2524088758021592,0.8914683624863624,-2.495506317901611,-4.613327031652629,-8.136694342041014,-135.53801434254456,-64.09725456782434,-49.30520608988152
1698921504823.0,0.01666666753590107,-0.6717955378614365,-1.5291224151626228,-0.1394470491349697,-2.586785110064596,-4.531624607738852,-9.276633607482909,-183.2743157347904,-42.21875505239906,-57.73830063921828
1698921504841.0,0.01666666753590107,-0.6393792690336704,-0.4331026632070541,-2.150031084743142,-2.588730398913473,-3.01684343713969,-11.407174394336343,-182.8888608391699,-23.219240036289396,-61.35402520090461
1698921504857.0,0.01666666753590107,-0.2061687615379691,0.5231428534857928,-2.392916881042719,-2.1490951190672813,-1.6057609798155723,-11.76645369644165,-111.5370642783891,-1.3805376852802527,-45.28257983858085
1698921504873.0,0.01666666753590107,-0.13136778757572173,0.6953872797206044,-1.784279371753335,-2.0459949562072755,-1.266083473150432,-11.200075366210937,-39.96424279606667,6.587871560620447,-24.7058921808452
1698921504890.0,0.01666666753590107,0.33422187160775063,0.5600738232590258,0.29854747776687146,-1.5708952720090745,-1.3853444972164928,-9.122506875610352,14.99240866215056,-10.183109396778146,-16.6252353926811
1698921504907.0,0.01666666753590107,0.7413289466843008,0.057669368027895684,1.476448517334461,-1.211166472570598,-1.9695298484250903,-7.9176243056148286,38.98282657460587,-34.95644030416712,-19.224556088883247
1698921504923.0,0.01666666753590107,1.0593750517778098,-0.8539123926825821,3.231771843716502,-1.0221743251524864,-3.004423369897157,-6.107009300121665,19.861131427075726,-49.568117146508236,-23.51569073683546
1698921504939.0,0.01666666753590107,1.5333824106946587,-1.3547482834227382,3.6507220629304644,-0.654814007922262,-3.5298012889586388,-5.657947435760498,-9.859756288638696,-47.706627635396714,-20.64982020072627
1698921504957.0,0.01666666753590107,2.292146768565476,-2.053614491300285,2.9927742870271206,-0.029179186602681872,-4.166509146825969,-6.297947467041015,-30.840558065033676,-42.093318628291776,-9.65827936850166
1698921504973.0,0.01666666753590107,2.532527011784911,-2.293647236256301,2.421313538965583,0.11282704549580812,-4.337096015112102,-6.859836669158935,-26.07922807197591,-40.99309126621861,3.250711781921444
1698921504990.0,0.01666666753590107,2.432889702729881,-2.676090264067054,1.0791419746518134,-0.13272826227396725,-4.656272731670737,-8.176497944641113,-4.075641752751485,-44.17085043794538,21.844162446920333
1698921505007.0,0.01666666753590107,2.1957716761767863,-3.052610039308667,0.08447334993183613,-0.4891653266906738,-5.031115367480367,-9.137620273590088,18.621807262555254,-42.334776060735486,31.657670670915227
1698921505023.0,0.01666666753590107,1.9820961922705171,-3.2370532912507652,-0.19883096599578856,-0.8164224738523364,-5.264400391741842,-9.376441889190673,42.18466216315694,-36.82920987269291,36.34728538523515
1698921505040.0,0.01666666753590107,1.3159919979184864,-3.444132153370976,-0.5637894827812909,-1.6095017737790942,-5.602431446374207,-9.671676881408692,57.13857587914531,-26.42638780446744,32.677445234754806
1698921505056.0,0.01666666753590107,1.1008566705927252,-3.6074873168379065,-1.4714292278677223,-1.8938135131835936,-5.867888701574504,-10.531943465423584,46.54108658938531,-16.418535085376295,28.166957354060347
1698921505073.0,0.01666666753590107,1.3974460000291467,-3.7718040188133712,-2.0813100152164696,-1.6328452399656175,-6.101472854913026,-11.112387730407715,31.3901833875446,1.6156141202135796,27.740686955507144
1698921505090.0,0.01666666753590107,1.8315037720039486,-3.5014190979525446,-3.0599685853779315,-1.1670233794614673,-5.8963198462888595,-12.084583242034912,35.50753070225501,33.019941655590515,35.777367570700115
1698921505107.0,0.01666666753590107,2.1752622643724084,-2.750843014973402,-3.615399405136704,-0.7615054732725024,-5.20619121774882,-12.644078242492675,42.44767225752663,40.29809561250772,50.59952693759894
1698921505123.0,0.01666666753590107,2.0854823324650527,-2.0004791134402153,-3.9510476562857626,-0.7960717597410082,-4.512920199529827,-12.981810314178466,42.64654004540071,36.953638843897615,64.31180447003278
1698921505140.0,0.01666666753590107,1.3130939383894205,-0.9426222111403941,-4.619662372153997,-1.532887612915039,-3.526958028356731,-13.641412871551513,48.5497666771106,23.543643286013737,67.0606414222611
1698921505157.0,0.01666666753590107,0.5180030063793063,-0.026636077991127965,-5.055670109152794,-2.3256673453733323,-2.694972659191489,-14.053664469909668,64.8486300180391,16.604135230787637,63.65249313964062
1698921505173.0,0.01666666753590107,0.1795271305888891,0.4874295889392495,-5.0394595635861155,-2.6747721672058105,-2.3059151816770433,-13.996053992462157,80.4307025716152,13.519028428925735,61.776902702987606
1698921505190.0,0.01666666753590107,-0.5600204856365919,1.052932013118267,-4.250384823125601,-3.4214638099670407,-1.9488798591062426,-13.136984509277344,90.28712316661799,21.835358333080187,55.41450635903986
1698921505207.0,0.01666666753590107,-1.2193813432082534,1.030210770483315,-2.2631880928456782,-4.064456301061809,-2.1434090362548828,-11.09517940597534,88.84293430813216,26.671113482428996,44.84967220370169
1698921505223.0,0.01666666753590107,-1.373640469288826,1.1797501745656132,-1.1592734959870576,-4.193294277898967,-2.1516385199397803,-9.941174205780028,69.60042677456282,21.94897340728147,32.66025706370847
1698921505240.0,0.01666666753590107,-1.5397259345024823,1.4355810848951338,-0.11152677655220031,-4.351161657604575,-2.005292943462729,-8.853757739257812,13.209611468014048,-0.3378617639578805,8.99381551415437
1698921505257.0,0.01666666753590107,-1.5180767050132153,1.4550415721684693,-0.8802899658679961,-4.338742321014404,-1.9731211509153246,-9.624541036224365,-22.97440678284841,-7.210337008648151,-14.255368925230007
1698921505273.0,0.01666666753590107,-1.3204264732345938,1.4170572939500212,-1.2468266917556523,-4.132092497961223,-1.9590549239009618,-10.014197356414794,-32.637714024352846,-0.31808569826804906,-26.78683737753652
1698921505290.0,0.01666666753590107,-1.0160939823254942,2.182836791279912,-1.4218746311038732,-3.7645828353881834,-1.1463733901426196,-10.22713166656494,-11.361251288034584,21.71100620150364,-26.889978356645592
1698921505307.0,0.01666666753590107,-0.6921709480226039,2.851711911650002,-0.437246923404932,-3.3502360183164477,-0.4969458975642919,-9.262866947937011,14.093429408877235,38.50092257771563,-18.652765094968338
1698921505323.0,0.01666666753590107,-0.6196338273391128,2.9789509288579223,0.3064361851900816,-3.1669302459716797,-0.43933600463867184,-8.525153561401366,37.284134622361606,45.05938633197776,-9.62459885193068
1698921505340.0,0.01666666753590107,-0.3208632083408534,2.995444383019209,1.9763684622734783,-2.7370214103698727,-0.5731117301389574,-6.8326026252746574,54.75794759488321,32.76869314697159,-1.614362914934998
1698921505357.0,0.01666666753590107,-0.621858225390315,2.905784278099239,3.023869097992778,-2.977189472143352,-0.7909840812131762,-5.748627823638916,54.42523200493897,20.215826565769074,-2.735971010266123
1698921505373.0,0.01666666753590107,-0.7439642636239528,2.888747218580544,3.1816064215779303,-3.052906099645793,-0.9288003142759204,-5.551406046405434,48.17044187627019,16.868460136572548,-7.336813329056569
1698921505390.0,0.01666666753590107,-0.9651566990315914,2.9193428478524086,3.067035455024242,-3.212719206591695,-1.0435723563596606,-5.617096954455971,44.88028852665627,14.533754629195032,-11.048340685362437
1698921505407.0,0.01666666753590107,-0.756899733042717,3.111540367183089,2.722263401699066,-2.9686602748595177,-0.9638152212947606,-5.918915416717529,49.27267048377016,6.334763959886815,-9.459168255138387
1698921505423.0,0.01666666753590107,-0.6479978981666267,3.264371506287157,2.488370474672317,-2.8479027286253866,-0.9289499518796801,-6.099228729248047,50.88323250515376,-2.334843391821383,-4.941594906953681
1698921505440.0,0.01666666753590107,-0.5980763677865266,3.3436969719365237,2.09729318176806,-2.811391153308004,-0.9919470908015966,-6.41586189880371,39.85752792047439,-9.543201780044345,-3.3756020043385386
1698921505457.0,0.01666666753590107,-0.9364790322102605,3.144495126801729,1.2749369339525698,-3.1712695903502404,-1.263539633886516,-7.19532417678833,21.777682508181307,-16.467280437935383,-8.815046411686687
1698921505473.0,0.01666666753590107,-1.0467023249484597,3.1584093781247735,0.8539701142191887,-3.3119287917539477,-1.2828425925105809,-7.5908163635253905,1.705201762853523,-23.95887951396278,-16.32074555948193
1698921505490.0,0.01666666753590107,-0.9348616601414977,2.90407601287663,0.0025508535265922547,-3.253121359606832,-1.5222630507871509,-8.435670274353027,-22.245599985198663,-33.43320566641672,-21.804041915735677
1698921505507.0,0.01666666753590107,-0.8707891470730305,2.617306358925998,-1.1198124232143163,-3.2462378837034103,-1.7559966955989599,-9.569774257770181,-37.757289146925075,-41.07994736679908,-22.714991075529447
1698921505523.0,0.01666666753590107,-0.9439018756873905,2.5508465123295783,-1.586681746944785,-3.3871965064451097,-1.7414821402952074,-10.058789362335204,-47.18733518298982,-42.57098449280203,-22.542615883898545
1698921505540.0,0.01666666753590107,-1.2710805507853626,2.2774863750502465,-2.1705209150642157,-3.799897309875488,-1.8939625662654638,-10.677840129089354,-44.047039598860565,-34.95215777555752,-19.33553812515949
1698921505557.0,0.01666666753590107,-1.3812079819336534,2.745299993893504,-1.6826275080054998,-3.962852368108928,-1.3467381415769457,-10.212616819000244,-41.40101748420845,-32.91537828958679,-21.485907072122117
1698921505573.0,0.01666666753590107,-1.1819462233051656,2.509766313922405,-1.6517635831862687,-3.809474116516113,-1.4948793692991136,-10.209175154113769,-53.199025218719505,-30.57560819693971,-29.441561153191227
1698921505591.0,0.01666666753590107,-0.7945514183059335,1.4885852375909685,-1.728302632987499,-3.4409164061948654,-2.3719053649351,-10.345944508472085,-59.42418257167419,-10.775105797805248,-34.097205921674096
1698921505607.0,0.01666666753590107,-0.6761676154658198,1.5575322248280048,-1.5860510478258132,-3.3029505355283617,-2.2043109564632175,-10.25316860961914,-43.32698739617948,0.6244607170389939,-23.818795749180406
1698921505623.0,0.01666666753590107,-0.5848033369764686,1.455547475863993,-1.11814595130682,-3.1938650146484373,-2.249501805059612,-9.815029705810547,-15.102832330462155,-0.39501828103642816,-6.637620097213881
1698921505640.0,0.01666666753590107,-0.18084376614540815,1.0310901836663484,0.21220482683181763,-2.8239605658933518,-2.673873757061362,-8.474426413726807,10.069432850874332,-22.953086347354215,7.896458539079904
1698921505657.0,0.01666666753590107,-0.420435781596601,0.2391623918622732,0.7833049248874187,-3.1465792395994066,-3.4691976210445166,-7.876174689373373,-6.746294383324307,-42.50052767641877,5.71643376451473
1698921505673.0,0.01666666753590107,-0.46929012113660573,-0.2625026431784034,0.6092226157009601,-3.301603797094524,-3.9133223212644457,-8.040627000427246,-46.59907148034413,-49.29703035344502,-7.579241502136063
1698921505690.0,0.01666666753590107,-0.6499860032439232,-1.3673846237644551,-0.2659533681541681,-3.5863641570493576,-4.810100188335776,-8.966285217285156,-98.71010562088854,-29.695927643166257,-27.861256869830793
1698921505708.0,0.01666666753590107,-0.7457911867901682,-0.9690627665594219,-1.0910779116392135,-3.695449970190227,-4.192546089880168,-9.870545841327308,-111.4762004626951,-6.975865152178075,-36.862418252437514
1698921505724.0,0.01666666753590107,-0.36507922055572267,-0.7377285841047764,-1.2565063742488622,-3.277511850628257,-3.7455782751888034,-10.124480270385742,-97.70216777488059,11.47559292360883,-37.56054213278827
1698921505740.0,0.01666666753590107,0.5142907078579068,-0.3946010831162333,-0.7514706937313079,-2.3078604705259202,-3.1923683463498946,-9.716868022266029,-54.71491057292297,24.04982177521421,-21.095770081825574
1698921505757.0,0.01666666753590107,1.146245672109723,-0.3828510240897536,0.5550222389578819,-1.6142901770994067,-3.1045310729429123,-8.452879183307289,-19.038783481195363,18.03224411641997,-5.458801163455965
1698921505773.0,0.01666666753590107,1.3493348800718783,-0.5271902291804552,1.3416472481787205,-1.3892352210447192,-3.2359128890439868,-7.676857985687255,5.721433036100357,-0.8947082506079497,2.806766134456717
1698921505790.0,0.01666666753590107,1.2599530075713992,-0.8562184776678681,2.399195815181732,-1.5221137054443359,-3.6037221190854907,-6.594230507007241,17.724332358446627,-21.60890853379029,0.6209537350653097
1698921505807.0,0.01666666753590107,1.1897425762698053,-1.1254182803973556,2.900455484291911,-1.6463123320430517,-3.919606808361411,-6.0616696907043455,22.018077846209074,-23.439841486102466,0.045239651245873674
1698921505824.0,0.01666666753590107,1.311742523780465,-1.151962003929913,2.94240077509582,-1.5780778769895434,-4.000560751995444,-5.985353928264975,26.348552676233265,-20.06461813037604,6.869690715303873
1698921505840.0,0.01666666753590107,1.5287088659256696,-1.2438272176787257,2.6589310394734142,-1.4208087554380298,-4.172494358715415,-6.223278302764892,35.10242876748696,-9.69569258345405,18.508972537466644
1698921505857.0,0.01666666753590107,1.484983121445775,-1.7598349585875868,2.341257420954108,-1.4929343727111815,-4.763413548223674,-6.506392649078369,43.19919114171395,-0.7896901434158897,23.15766588092173
1698921505874.0,0.01666666753590107,1.5025304685741663,-2.0549434018164874,2.2439830416381357,-1.4890435027524829,-5.140649947302043,-6.570736818695068,42.96827952134875,5.126211505124541,26.120415820218376
1698921505890.0,0.01666666753590107,1.6442010389775037,-2.9961776657298205,1.5732085173875092,-1.3712790008544922,-6.160280287060141,-7.205500118365883,22.170606215659213,-7.02178835594948,22.70910686755948
1698921505907.0,0.01666666753590107,1.460199101062119,-3.7763270491957663,-0.12491758852303027,-1.6066586593076586,-6.952910966436565,-8.8812916428715,4.617612994523766,-21.371214535579263,19.1235051476602
1698921505924.0,0.01666666753590107,1.0184101503133773,-3.682655662807822,-1.0974784263312816,-2.115875424902141,-6.849212107031047,-9.833584768676758,1.0237123813395077,-23.246963774130474,14.50648851402834
1698921505940.0,0.01666666753590107,0.27170184867829084,-2.7371862455427647,-2.6215572943687437,-2.9219731963559985,-5.91861555698812,-11.330709578815101,19.110353618413342,-5.869131181146828,7.051460405251307
1698921505957.0,0.01666666753590107,0.14953531242907048,-2.41293470993787,-3.1591976058930156,-3.0392893699645995,-5.648669612066447,-11.850101116943359,32.101650042438976,16.19554989954289,7.850353908408672
1698921505974.0,0.01666666753590107,0.6162909466519951,-2.4036522100687026,-3.1352865689516065,-2.4857798736572265,-5.729773485565185,-11.823465623474121,32.77523988329105,46.50157394503678,10.973708915849
1698921505990.0,0.01666666753590107,0.9206219762563705,-2.5419664557814596,-2.867182160243392,-2.079214504241943,-5.922805702154338,-11.570129744830727,22.383716655500074,49.03090227771922,14.038479683230836
1698921506007.0,0.01666666753590107,1.3534361779108643,-1.7456591337189078,-3.1263422149956224,-1.5652093353271483,-5.146186830902099,-11.8492032913208,6.502155674744548,34.92537318872731,17.93874736441896
1698921506024.0,0.01666666753590107,1.6265245125114918,-0.8407040976718068,-3.793097566732764,-1.2222396552488206,-4.2369884581968185,-12.540678658294677,9.69166362561739,28.160523315862193,21.638459347234352
1698921506040.0,0.01666666753590107,1.5583397418186067,-0.32602234466969965,-4.118246051177382,-1.2508207298278808,-3.7505166083738204,-12.867636822509764,32.981624294346744,26.6802010491197,29.43383279414536
1698921506057.0,0.01666666753590107,1.4805027611613273,0.8780638142511248,-4.18095180593729,-1.2982558502197266,-2.6286834929868577,-12.907440425109863,61.89803610791778,28.38546022825093,43.71075865016957
1698921506073.0,0.01666666753590107,1.2968757940381765,1.4816291348427533,-3.438583871594071,-1.4639040930598974,-2.2038620436519385,-12.096853525543212,85.42575651542893,25.4015691459258,57.55848907912852
1698921506090.0,0.01666666753590107,1.1574962571814655,1.5556512333869934,-2.840821392062306,-1.6053122131347655,-2.2861630179807544,-11.430218000793456,89.10167553427058,24.168798547913955,58.58398051130341
1698921506107.0,0.01666666753590107,0.4475608121484518,1.6257190413475036,-1.3416320506095885,-2.3211785095214843,-2.3662191359922287,-9.860369899749756,80.31291595937833,22.040731876138715,53.64615672254522
1698921506124.0,0.01666666753590107,0.032743454955518246,1.7210767733871937,-0.4280009561538696,-2.7479449554443356,-2.4271213484615086,-8.86782367401123,55.139789320432776,15.099567500038889,42.12521561171574
1698921506140.0,0.01666666753590107,-0.09169044170379638,1.6460808613747357,-0.3455693411827087,-2.886958289337158,-2.567780988256633,-8.747963953399658,29.998324023384818,11.355099848913342,35.20738145427338
1698921506157.0,0.01666666753590107,-0.34378771846294404,1.643860847237706,-0.5508154349178076,-3.1440354003354907,-2.591274092046916,-8.940846824645996,13.28306417612201,17.383516164146744,30.072937009878036
1698921506174.0,0.01666666753590107,-0.6138733641162515,2.00219556196928,-0.5105804551631212,-3.390937738800049,-2.240523548834026,-8.904484886932373,17.415863940055925,29.44553973838276,31.022555285657834
1698921506190.0,0.01666666753590107,-0.7262319153174758,2.2965257143020628,-0.11738894658386706,-3.465307335607707,-1.9818001319333909,-8.505700672912598,38.796348749886185,39.163256266815516,37.44616036985265
1698921506207.0,0.01666666753590107,-0.9225976602435112,2.606798993436992,1.0524614729970694,-3.617488778631389,-1.7536027861997485,-7.307851654815673,60.939582982446574,41.13081520064275,41.7585369061236
1698921506223.0,0.01666666753590107,-0.9074088589400052,2.4088296127066013,1.9245400753587483,-3.552845626068115,-2.109590645544231,-6.367379315185547,70.07009107246041,37.417401858352314,37.42329631160603
1698921506240.0,0.01666666753590107,-1.006260278314352,2.284483102069795,2.2704548689782618,-3.607313421575725,-2.3579890677854416,-5.966799449920654,65.2238123091479,40.65082365672011,28.24255730288863
1698921506257.0,0.01666666753590107,-1.0403381967440246,2.25853149921149,2.915552515658736,-3.5544916397094726,-2.533364339391887,-5.262904161834716,52.71889707101346,45.67693447068988,17.632657559406717
1698921506274.0,0.01666666753590107,-0.5750041197568178,2.1112895584166047,3.06655497803092,-3.006967355291545,-2.7715871123164892,-5.082890124511718,41.63434699153984,48.77932250492556,12.549829708342802
1698921506290.0,0.01666666753590107,-0.39299715505093336,1.9477888489991426,2.9057600204408165,-2.736123438616842,-3.007565613445639,-5.2259436737060545,33.981840611497994,47.94818752067797,10.803527922488962
1698921506307.0,0.01666666753590107,-0.20442863987237214,1.9151555764198303,2.36534965968132,-2.4389431575499474,-3.124582219585776,-5.745037105670571,33.57109352538094,41.47328771581636,10.05098194860519
1698921506323.0,0.01666666753590107,0.06999415820240974,1.791179652661085,2.2753449791073797,-2.101809490148723,-3.3162679900020358,-5.8096799659729,35.737598794257714,29.517919253017386,11.150575810632834
1698921506341.0,0.01666666753590107,0.10586933531239628,1.7003443664819,2.162800549945235,-2.040009305926412,-3.474135661968589,-5.886444056701659,33.13131813529132,8.634832724209547,10.483429399489022
1698921506357.0,0.01666666753590107,-0.17590134130716323,1.4179256012171506,1.7392291006714105,-2.3478138568602502,-3.8286271452754734,-6.256198575592041,19.285961197068954,-16.627402270195287,0.6817752889638039
1698921506374.0,0.01666666753590107,-0.6679615126565098,1.267543901091814,0.8709346930235624,-2.8731913375303146,-3.998016912731528,-7.102848137664795,-5.057074622798379,-19.435569660648913,-9.881663266627864
1698921506390.0,0.01666666753590107,-0.8979150544077158,1.2629869684398174,0.4393254832446575,-3.123385411016643,-3.967939754375815,-7.551611311340332,-35.9221402603477,-18.34508385587948,-16.023912368342348
1698921506407.0,0.01666666753590107,-1.3057668103717266,1.5316612859904766,-0.6580477291464806,-3.550002365466207,-3.5663124258846044,-8.729259252929687,-64.57283380954316,-17.1974157073787,-20.277738815500655
1698921506423.0,0.01666666753590107,-1.4506370535992086,1.2008341713875532,-1.6430097833663224,-3.696198304339498,-3.7698195669978856,-9.7928833404541,-64.92488224993312,-9.787017335298998,-21.463866051670486
1698921506440.0,0.01666666753590107,-1.6538716613814233,1.374022454343736,-1.7698381739467381,-3.884741685076803,-3.4769784841790794,-9.995492655944824,-60.511924347944564,-4.455806239972987,-25.326638555636176
1698921506457.0,0.01666666753590107,-2.261018932113051,2.369074233162403,-2.0351737024635077,-4.438999369402975,-2.3231232138484716,-10.366444275665282,-68.12589138559463,7.743685990366936,-37.42120968881459
1698921506474.0,0.01666666753590107,-2.5053338844329116,2.28986362606436,-2.4021418055057526,-4.598213779803365,-2.268505780737102,-10.828974108886719,-74.00337844941731,24.65364806388377,-44.40586358690719
1698921506490.0,0.01666666753590107,-2.5282249306768176,2.108574454239011,-2.305751807808876,-4.499153832244873,-2.3171382942199705,-10.832116498565673,-62.352482744344584,40.43099401828324,-36.00058156787072
1698921506506.0,0.01666666753590107,-2.2782138125419613,0.9545961420506238,-1.3870353729128837,-4.089445927020162,-3.3616084762021896,-10.00447091217041,-21.35690870436267,34.09342541196849,-17.60614618014331
1698921506523.0,0.01666666753590107,-2.43399576427564,0.5715174466848373,0.05575228236019611,-4.170699291992188,-3.7319612532466646,-8.583363173785806,-0.0294400229732458,13.293253964590024,-21.15315733123202
1698921506539.0,0.01666666753590107,-2.562473237237334,0.2663046658098698,0.589890138721466,-4.265270111437887,-4.049043335613608,-8.050054169464111,-6.272943063935383,-11.38663056344306,-38.02161746780457
1698921506556.0,0.01666666753590107,-2.1467253211960196,-0.601074672819674,0.7588327469319105,-3.823240629931539,-4.856039224950969,-7.91612851409912,-60.799338708218706,-18.7526275832758,-68.3841408381128
1698921506573.0,0.01666666753590107,-1.0774909925743936,-0.8154732103034853,0.40477614791095257,-2.7055973674498497,-4.907065647833049,-8.357559445190429,-108.89715518304415,-9.411546468697765,-79.27655769623395
1698921506590.0,0.01666666753590107,-0.5815943118020892,-0.5379287730768323,0.1273345865368843,-2.133233679199219,-4.378844906561076,-8.761431337738037,-132.82203060022402,3.801804954773688,-79.23802176893675
1698921506607.0,0.01666666753590107,0.4736626371324062,0.4601663189604878,0.02631166834235191,-0.9494505958557128,-3.007116992895305,-9.035866703033447,-125.00972852945513,20.83095681751501,-61.73571666229243
1698921506624.0,0.01666666753590107,1.1225662519671022,1.3302856039479374,0.6213759948313236,-0.18988997304067015,-1.8775027221128344,-8.552387605285643,-108.20306452939828,35.33982223737451,-36.275605964990454
1698921506640.0,0.01666666753590107,1.2119709938865155,1.331765321111679,1.396210613015294,0.00583601267710328,-1.6425713919490574,-7.870338822826743,-90.80919550601709,37.58765456869864,-3.903468905474743
1698921506657.0,0.01666666753590107,0.9256116012372076,0.8970634060144423,2.880872831943631,-0.1897404085021466,-1.8237828223630785,-6.474519839477539,-63.563256718134404,20.857051555239043,14.069382020356914
1698921506674.0,0.01666666753590107,0.30003398999758063,0.4203022183448076,3.072557433316111,-0.8047509599547833,-2.168098948614299,-6.321590208435058,-39.66886102012571,-7.27070990449554,15.284378758601093
1698921506690.0,0.01666666753590107,0.0005604103617370129,0.11708411841839551,3.0828952874571085,-1.168819249902293,-2.4067709266111255,-6.320991658020019,-10.457110973069671,-33.82451403415592,8.436992879805544
1698921506707.0,0.01666666753590107,0.9835520412914455,0.1291977500602603,2.7355267878979443,-0.31783012425526974,-2.3837267356321212,-6.653935326385498,1.0187779965509967,-36.84442070397453,11.651375525861924
1698921506723.0,0.01666666753590107,1.3497851080574095,-1.0647373094633221,1.5973305667310953,-0.020649697057902813,-3.567958439525962,-7.784896335601807,-5.174596138318089,-3.4637741969947027,27.07074785076644
1698921506740.0,0.01666666753590107,1.6415975784808396,-0.9633312371701002,1.393608906084299,0.30810397227182984,-3.4223616355895996,-8.005611801147461,-22.05040854664533,52.61182702558434,43.08574169960004
1698921506757.0,0.01666666753590107,1.5329190309666096,-0.8780947939112782,0.4671095622271299,0.4349966602601111,-3.1986532718382774,-8.997559476470947,-47.882962629198936,110.17455082199827,56.66658590183533
1698921506773.0,0.01666666753590107,0.9063017744809388,-1.3421136966466902,-0.0173497787296772,0.06045366498418152,-3.5166331798277795,-9.542389991760253,-55.771633045077735,113.73849571958674,53.22557074892876
1698921506790.0,0.01666666753590107,0.20757526733502743,-1.4632126036643982,-0.28527824634909626,-0.41030623644404113,-3.5001728972837327,-9.858125335693359,-43.62640239882533,86.00790719876746,39.82733165415376
1698921506807.0,0.01666666753590107,-0.921470555909723,-1.2948827205248177,-0.5907838726907968,-1.3697825517516582,-3.2562636031553147,-10.18882444000244,5.108432095828175,26.256247792242423,23.60657494147894
1698921506824.0,0.01666666753590107,-0.7423937994368374,-1.4778649600036442,-0.14148878409564494,-1.195754091644287,-3.496132681982219,-9.727491123089195,40.62928807026705,-20.145332183345374,23.091834810153856
1698921506840.0,0.01666666753590107,-0.6663929481655358,-1.4130343220442532,0.12162848384976387,-1.2334626947265117,-3.5519475081846115,-9.432107077789306,54.91084479454854,-57.26393375607714,27.942925441736634
1698921506857.0,0.01666666753590107,-0.8897206420361995,-1.0837690499305725,0.31928046919405456,-1.697488903985545,-3.3833057826168833,-9.179668440246582,40.8892314096994,-65.06837086401676,22.784500203165376
1698921506873.0,0.01666666753590107,-0.6021810266263783,-1.3161593173094093,-0.299572144639492,-1.555632455621287,-3.697096129962057,-9.764901108551024,30.774851645218153,-43.18773349938126,10.567913716880202
1698921506890.0,0.01666666753590107,0.055051294483989474,-1.2518605942696333,-0.7103525014013051,-0.98805695149526,-3.7041289512082933,-10.147973374176026,28.85801711126202,-26.364364564161846,12.504872549452132
1698921506907.0,0.01666666753590107,0.44303412850424645,-0.47550855726003644,-2.44630944853425,-0.6628944385252893,-2.9948464171260594,-11.859079373168944,11.75710514666643,1.6907209080394499,15.069893743189768
1698921506923.0,0.01666666753590107,0.3134652070440352,0.5143900765791535,-4.770444469773769,-0.7510310602050274,-2.0036469298213717,-14.188338313293457,-8.46046994753017,38.644090172908264,9.45433845762154
1698921506940.0,0.01666666753590107,-0.08571260940320789,0.828730459022522,-5.991244739869237,-1.020229182434082,-1.6608274718686937,-15.430480062103271,-11.002680870760901,65.10797230082449,-8.51393410703209
1698921506957.0,0.01666666753590107,0.21038243371024726,1.9688190698072312,-7.120049447834491,-0.49200836809687315,-0.5172971961975097,-16.580295409393308,8.308505922460203,58.59699885186145,-22.76500172063228
1698921506973.0,0.01666666753590107,0.9659972415089607,2.776141999141872,-6.895566738709807,0.3898059943268075,0.24331103597432374,-16.35194842605591,25.58971865944485,30.091136048921534,-21.749589940125045
1698921506990.0,0.01666666753590107,1.1905039160311222,3.2213498184233904,-6.496237750288843,0.6624457083771005,0.614711568506062,-15.93535733718872,29.62156054348316,-0.94397419164784,-16.279820773522506
1698921507007.0,0.01666666753590107,1.122567567141354,3.5476091867193578,-5.507935737991333,0.5521627944061532,0.8563762985780835,-14.92081438369751,19.36680673117981,-28.232955764462886,-5.603419320073584
1698921507024.0,0.01666666753590107,0.5673496594808995,3.533742281669378,-3.985938936924934,-0.08469473759755491,0.808043644824624,-13.383586695751546,9.076705836148,-36.86328227136752,7.979558035616864
1698921507040.0,0.01666666753590107,0.23898119007647037,3.442787460763752,-3.180051593351364,-0.5077203164916485,0.7133230416446924,-12.569558715820312,-6.220173876181511,-25.010481051787334,23.32743194028969
1698921507057.0,0.01666666753590107,-0.7183527063749731,3.0081176943704486,-1.8692080642372368,-1.571793316827342,0.2925418076112866,-11.253645628356933,6.511524559851691,-30.840510253709486,11.98464692244988
1698921507074.0,0.01666666753590107,-0.7472943578947335,2.2400378111436963,0.29623744725883006,-1.695393904467672,-0.5078694426387548,-9.069684801483154,20.157674335175585,-45.505397684779595,-4.992312476635611
1698921507090.0,0.01666666753590107,-1.3194111587122082,1.4927102085664867,1.0301204618513584,-2.355146245574951,-1.2969088195249439,-8.314164540100098,-8.937812231828497,-7.362785123375542,-13.700877092935446
1698921507108.0,0.01666666753590107,-0.6319039647169411,1.1858327093496919,-0.39324119293987747,-1.587505265222117,-1.4158704222530125,-9.80006594543457,-106.9363171553602,50.91518754518566,-18.517821047536394
1698921507123.0,0.01666666753590107,0.8847406616665422,1.0886885322846471,1.1900813067048788,0.0809539436340332,-1.2193965407773852,-8.307131572723389,-123.06593865393954,55.52921597105564,-19.382109770015223
1698921507140.0,0.01666666753590107,1.0282007458351552,0.13100275365561245,2.56660288438797,0.37020350476689634,-1.9210472648069261,-7.000346379089355,-80.28140829673707,48.8683710962296,-24.081488239753682
1698921507157.0,0.01666666753590107,1.3435320390120147,-0.3837381821878254,3.492942069247365,0.8013093681335449,-2.3154918421871957,-6.106261112102866,3.571964180004293,3.1836984480969215,-47.14378248174723
1698921507174.0,0.01666666753590107,1.1631637083586304,0.5622133195057512,4.340677088469267,0.6274305090973153,-1.4475938865110278,-5.242852722930908,49.02708420197319,-17.44335032882335,-67.37912631306962
1698921507190.0,0.01666666753590107,0.8492590139187872,1.0267892716020346,4.656722813525795,0.3055600234100595,-1.1550525172911583,-4.8886605148315425,79.62564866471331,-17.08351718032686,-74.32106420809295
1698921507207.0,0.01666666753590107,-0.8401509938336909,1.3642454489558935,4.5604988200455905,-1.335365866354294,-1.1460738226741551,-4.9064668051570655,108.39746537355518,16.684741708277542,-58.52575314862905
1698921507223.0,0.01666666753590107,-1.207995295188576,1.732394870737195,3.6363778957575557,-1.6063596398284659,-1.0601821303769945,-5.755810428619385,113.26409127040516,30.493475172170307,-37.64524672378018
1698921507240.0,0.01666666753590107,-1.1450699793938546,2.122866014441848,2.7481021918326616,-1.4648025032043457,-0.9267053878232836,-6.566846825519204,90.56803518680228,12.992186056165032,-14.216792016797774
1698921507257.0,0.01666666753590107,-1.4070346432380378,2.3114073493525384,0.7016624144673347,-1.7417816346984356,-0.9385267585203051,-8.544756087493896,33.01786186298825,-9.861333208563321,14.036767867070102
1698921507273.0,0.01666666753590107,-1.230912352656573,2.2160946254983545,2.5047750815063714,-1.5677531380584462,-1.0679632857725023,-6.729502900806069,-0.6970953499112896,28.008051295472708,32.189489690259926
1698921507290.0,0.01666666753590107,-0.7672215128317474,1.7430659023553132,3.0990105559557675,-1.0057142618041486,-1.4918863249629735,-6.155641521343589,-23.908778368853447,49.96437398630111,44.96021540032376
1698921507307.0,0.01666666753590107,-0.3670532971076667,1.5026087945073843,2.250568265247345,-0.5370493416274897,-1.6617250052303074,-7.029974624633788,-31.186312486103475,34.66140345277924,39.383601584534716
1698921507324.0,0.01666666753590107,0.5767452643357217,1.2700561761736868,1.2078490185856818,0.4409820274131838,-1.8200418822690843,-8.098237477874756,-27.11419980671877,16.037654708952413,25.46127012191359
1698921507340.0,0.01666666753590107,0.3959970309866592,1.1274161762163042,0.9268325213342905,0.2584241690925788,-1.903838940374553,-8.398560148620605,-7.4415790394144565,-7.266325776822038,0.12480914060112726
1698921507357.0,0.01666666753590107,0.4204075053501874,1.2460206360697745,0.42773499869406223,0.2685994987487793,-1.7847274077817796,-8.897601557159422,5.01799825678309,-8.602196372807935,-21.012387132438057
1698921507373.0,0.01666666753590107,0.2732789983345196,1.2442074491679667,-0.8369692950576544,0.13048399961167015,-1.797446311840415,-10.158896919250488,0.3022790397030528,-2.2027641818594383,-31.709221523675897
1698921507390.0,0.01666666753590107,-1.0640578758317976,1.3253724052041769,-2.094685045096278,-1.1592425163269042,-1.6831234748288988,-11.42797343673706,-22.923530411268278,15.062740827581472,-23.625045480541946
1698921507407.0,0.01666666753590107,-2.035796364406496,1.693548422731459,-2.25872760630548,-2.0620062209087657,-1.2421417488098143,-11.615618991851806,-35.16475082856875,28.841378770443868,-15.455420355796553
1698921507423.0,0.01666666753590107,-2.4894331354677677,2.424582477633655,-2.742651525211334,-2.422034227056103,-0.4251204322814941,-12.125883220672607,-32.70192121764555,39.065837278683624,-12.181129266756344
1698921507440.0,0.01666666753590107,-1.3004314406931399,2.10869632705301,-3.461665471974015,-1.0709564031738787,-0.6599015403196216,-12.866589359283447,-15.677001937755522,50.24817176140973,-15.766815510246605
1698921507457.0,0.01666666753590107,-0.6241987241018563,1.7122373411104082,-3.82018489562273,-0.25782559127807614,-1.0277107703611255,-13.229161273193359,-8.327051593604079,49.23689736799222,-23.39178086000767
1698921507474.0,0.01666666753590107,0.1717088215207681,1.36633131531924,-4.193142009946704,0.674715918820165,-1.345840315954387,-13.603853833007811,-13.146737869156787,44.908763585306055,-34.344844675316665
1698921507490.0,0.01666666753590107,-0.20531718620993195,1.6110554329618811,-3.834543675842881,0.4688146125793457,-1.0199296149656176,-13.257592417907714,-32.10083724992775,36.82112292871562,-41.68282084407942
1698921507506.0,0.01666666753590107,-0.676097692034766,1.5750725576937197,-3.512837440806627,0.10714045122675597,-0.9573810965940356,-12.95442663269043,-40.14801928096961,30.92825086378747,-33.228467330951005
1698921507523.0,0.01666666753590107,-1.118088448965922,1.2694894822016358,-2.4463030187934636,-0.2264017675537616,-1.1306614417478442,-11.9127992729187,-32.20292467235734,19.566436085146357,-20.426677920541955
1698921507540.0,0.01666666753590107,-1.078398462808132,1.1044527953885495,-1.2198305482804774,-0.14484920043945312,-1.2321158832274377,-10.698190843200683,-14.442472566032396,4.981475954630563,-17.52319011757892
1698921507557.0,0.01666666753590107,-1.001986692648381,0.922426395329833,-0.6774608701467514,-0.06195004102177917,-1.3965676097594202,-10.159495469665528,3.272904133751873,-8.637008139460196,-22.697521159179846
1698921507574.0,0.01666666753590107,-0.6381660207863896,0.8111535935387015,-0.2978109801858663,0.279522970758006,-1.528248408807069,-9.777021169933676,11.119640176334554,-14.669516591780082,-27.056689613907263
1698921507590.0,0.01666666753590107,-0.6376716613981872,1.258518883115053,-0.7229401802957057,0.25992044466547665,-1.09654421422109,-10.200196897888183,5.3803658323484775,-13.709395192604099,-24.325337945954185
1698921507607.0,0.01666666753590107,-0.308377820777148,1.397002494045347,-1.2371622068315744,0.5784988300047814,-0.9521437804624437,-10.716895543670654,-5.984764576247851,-5.248937197904977,-22.864898359885597
1698921507624.0,0.01666666753590107,0.32360432374253867,1.1059319280304014,-1.4668407310336828,1.2392985612731426,-1.193509381457418,-10.956016434478759,-18.33756040250871,12.072846862749547,-16.585379531326783
1698921507640.0,0.01666666753590107,0.24767953338213264,0.7166790740743278,-0.5506622901827096,1.203984086785838,-1.5363289855405688,-10.046967991638184,-14.380116354004766,13.514893603156938,-7.019446454837811
1698921507657.0,0.01666666753590107,0.07552439286597072,0.6366184260182083,0.3477385019153356,1.0616787256103009,-1.5972314902707934,-9.150040194702148,0.11903804429907638,8.75987555866591,2.177273275546716
1698921507673.0,0.01666666753590107,-0.40803368840217585,0.5179221962280571,2.1261562881588936,0.5823894077025353,-1.7507595255978405,-7.362917708477378,18.065746194298885,-2.8811381433382817,8.119732300405744
1698921507690.0,0.01666666753590107,-0.5718517201405018,0.27676570793911814,2.7778981951594353,0.3989337785582989,-2.0427026366636154,-6.700921533966064,19.98544086996996,-9.321405047126522,5.635055902535437
1698921507707.0,0.01666666753590107,-0.500121897251904,0.24024141927063464,2.809847577127814,0.4381388307433575,-2.1224594794675706,-6.661566844177246,13.830780460759918,-14.918456496459537,0.24715042179733784
1698921507724.0,0.01666666753590107,-0.3900456117689609,0.08144771850034593,2.624841138345003,0.5020340875487774,-2.3123497447691856,-6.843226895141601,7.2993070527767365,-13.141938807491208,-6.2048490661181175
1698921507740.0,0.01666666753590107,-0.1579942940209061,0.002325958729535341,2.782396675622463,0.710479269586131,-2.409015490667522,-6.683413934326172,9.106863682654543,-9.648957867831884,-6.47076412531917
1698921507757.0,0.01666666753590107,-0.023642522198334334,0.12476999674588442,2.866312391671538,0.824203921508789,-2.3138458285458383,-6.594379560089111,14.034489145208257,-9.786984038126795,-2.5836518153593153
1698921507773.0,0.01666666753590107,0.06702895172126591,-0.007400923906266689,3.051977586624026,0.878372661004588,-2.498049864904582,-6.398354299163818,15.842393260960089,-13.402115227128979,1.3957862960457177
1698921507790.0,0.01666666753590107,0.10204276276156306,-0.2500412210121751,2.861809235033393,0.8732850555419921,-2.7718866797849535,-6.583605652618408,8.93697553365517,-18.23480020644587,0.8498618688478806
1698921507807.0,0.01666666753590107,0.07868672935441136,-0.37451252707242966,2.6779648257672783,0.801608497210592,-2.9098522581905124,-6.76765990524292,2.5935982783381464,-19.79397529960887,0.7075080800226798
1698921507823.0,0.01666666753590107,-0.02887954606898129,-0.4915665426135063,2.410811434173584,0.6365582933288068,-3.033902123968303,-7.037157229614257,3.0900373446690064,-12.550612618776416,5.065666147000609
1698921507840.0,0.01666666753590107,-0.19103570900969205,-0.7146960835635662,2.1568851884216067,0.4412812204223126,-3.271526638738811,-7.2894462295532225,7.860788729913159,-11.592253408406293,10.634834202820695
1698921507857.0,0.01666666753590107,-0.13699439528584478,-0.8027931769505142,1.7864058623880148,0.4562450173309073,-3.3864483184263108,-7.655160533142089,11.96531151068322,-13.107527460679037,11.562446462868358
1698921507873.0,0.01666666753590107,0.007867372374236584,-0.8902227463394403,0.8386527180999517,0.5463268182616681,-3.5191768729612227,-8.593687583923339,14.620540720336507,-14.24571103774361,8.924094650654173
1698921507890.0,0.01666666753590107,0.1608501218434423,-0.8786839919760823,0.12304185777902603,0.6572082826476544,-3.5495533065244556,-9.299827436065673,18.64658035867489,-14.407863997507942,12.733485811161628
1698921507907.0,0.01666666753590107,0.07999843300748616,-0.6624678836762905,-0.029962007543444632,0.527921429531835,-3.3885432448789476,-9.439439320373534,24.77613896891149,-15.052475053258943,20.410585994857403
1698921507923.0,0.01666666753590107,-0.16642784891054033,-0.2961737343728542,-0.336352015504241,0.22251108025815336,-3.1185972999572753,-9.720009827423095,31.304536230447226,-3.3996508869627418,28.754812952903126
1698921507940.0,0.01666666753590107,0.006818849701993167,-0.721820820876956,-0.22974808230698107,0.37933128899838775,-3.6212297187253832,-9.590573300170897,27.59825360565028,5.767433079499924,27.386360647028976
1698921507957.0,0.01666666753590107,0.05787530239615589,-0.45942865233570335,-0.3366547978430986,0.42661677178647367,-3.4102406974241135,-9.681552963256836,10.814439149688058,3.694163307888403,17.497332728928544
1698921507973.0,0.01666666753590107,0.0948574543673545,0.11473813981413841,-1.1667904474884272,0.43798926620483397,-2.821416726629436,-10.517278980255126,-19.43262755666393,-13.324261315874589,3.717983165731999
1698921507990.0,0.01666666753590107,0.520182871169038,0.7089882273107767,-2.794619612857699,0.8291419624328613,-2.1661536597654223,-12.165237910461425,-27.68860334799121,-10.762236013861651,-1.3729019606750015
1698921508006.0,0.01666666753590107,0.722457511345297,0.967773895792663,-3.2390468031555413,1.026513961791992,-1.8462284629270433,-12.6283662940979,-20.616091019057453,7.691702274367615,4.0565035626971095
1698921508024.0,0.01666666753590107,0.7026388582840561,1.578516852928698,-3.7690696254134175,1.0504559418609365,-1.1936588729307054,-13.169306231689452,-6.879305487221136,24.46860628643708,24.967876039292086
1698921508041.0,0.01666666753590107,0.26258498769961297,2.205609764102101,-3.723344816070795,0.6461351730346679,-0.5579983321592211,-13.124714225769042,-2.923021717102446,20.645409606069734,35.08548989834534
1698921508057.0,0.01666666753590107,0.263563367745094,2.2984040753945707,-3.6094051331579684,0.6600513971190899,-0.4667191016048193,-13.009791961559653,1.6930589671697098,11.088778820343498,34.482110987066406
1698921508074.0,0.01666666753590107,0.19310871589146553,2.183015362717211,-2.8204513887286184,0.5786486137390137,-0.6031891807556152,-12.215067232513427,8.336012801795135,1.2486477996243641,26.34896931777264
1698921508090.0,0.01666666753590107,-0.1219722923187539,2.532829209601879,-2.34321206215322,0.24914653719477353,-0.28027064732015133,-11.730390449413656,11.271546144796575,3.002334514074869,23.209384073317064
1698921508107.0,0.01666666753590107,-0.2538690356720239,2.7025571229711174,-2.0228835452109575,0.11507128075864165,-0.1412576056882739,-11.400889030456542,11.603790451688091,8.943632406774993,22.47105769951161
1698921508123.0,0.01666666753590107,-0.34174645842630413,2.840340330547094,-1.3868956721812487,0.05252276238705963,-0.035313889965415,-10.754155307006835,5.060091858864233,19.776971543670122,20.352944320904374
1698921508140.0,0.01666666753590107,-0.44834852846004064,2.6906463204249738,-0.7983172005802393,-0.01825582419130951,-0.18944091409891842,-10.162637859344482,-2.9240240473631456,20.517968521441052,21.04207625721281
1698921508156.0,0.01666666753590107,-0.5448551748065278,2.658985400009155,-0.6233733061283826,-0.09157825003359467,-0.20919278553426265,-9.990255339813231,-7.788274319042426,10.92167738852549,22.953332234164336
1698921508173.0,0.01666666753590107,-0.6530275628969073,2.5751383652821183,-0.6349228741466999,-0.20560214063115417,-0.2778764456599951,-10.006715476226805,-1.4824877568745074,2.049210857146974,23.659293756587683
1698921508189.0,0.01666666753590107,-0.7856938658505678,2.2686568796455857,-0.357404155883193,-0.35149876776430755,-0.5934627365112304,-9.727042794799804,6.156436258394244,1.1664044246111829,20.50783593580734
1698921508207.0,0.01666666753590107,-0.751974624665454,2.0364830314964055,-0.32384675419628617,-0.3263596138000488,-0.8429083297178148,-9.688585930633545,5.131466908804043,1.404655937013214,8.287227321874674
1698921508223.0,0.01666666753590107,-0.2556293964080512,1.536235169777274,-0.5697913535445929,0.18001403732299803,-1.345840315954387,-9.933243412780762,-2.7952655899982966,5.060785123064989,-9.034500389719197
1698921508240.0,0.01666666753590107,-0.3117453609814867,1.5936410645633936,-0.13344868550300598,0.15128358086850494,-1.278802669470012,-9.498546173858642,-2.868965679020261,11.245996968432497,-8.71293679114229
1698921508257.0,0.01666666753590107,-0.5095701090767979,1.6620426928773522,0.24119945064783094,-0.010624306399561464,-1.2089219085142016,-9.122506875610352,3.0777037305752555,14.155771960526527,-0.9562520970111726
1698921508273.0,0.01666666753590107,-0.5979414893604814,1.8383581679433583,0.8268985674202441,-0.05850833960268646,-1.0597329253047705,-8.526200440105795,13.143652331199235,12.772230059228526,9.124633273553979
1698921508290.0,0.01666666753590107,-0.5142496817277744,1.722870086544752,1.220416823735833,0.04429269418027252,-1.2158052382871507,-8.118887467193604,18.188655448413265,10.054887109263143,13.363151559234996
1698921508307.0,0.01666666753590107,-0.4232990255406126,1.5750734344765542,1.3728835134416817,0.14200604943539946,-1.4113815864011645,-7.950844438171386,18.785183679954667,3.74219832077381,13.004177307026636
1698921508323.0,0.01666666753590107,-0.2925578454306349,1.1907134671285748,1.6035755986005067,0.2561795411041006,-1.8489219397947192,-7.703942391967773,12.584946272186777,-8.817123642968017,2.669269730709306
1698921508340.0,0.01666666753590107,-0.0807142896592617,0.9066185853451489,1.5859715528488159,0.43409865197446196,-2.1579232992976904,-7.715314849853515,8.814087623881948,-20.73660287677316,-7.905314733112472
1698921508357.0,0.01666666753590107,0.12871749226264656,0.9186547678366302,1.4781436308145521,0.5907692596435546,-2.165854384557903,-7.819312984466552,9.858401349862094,-29.71977866374794,-15.202003262116154
1698921508373.0,0.01666666753590107,0.5195345267955214,1.0208414691135286,1.1955986088216304,0.8991723244598134,-2.102258402960002,-8.092700886535644,15.285495494530391,-29.68429241591514,-16.95741652032279
1698921508390.0,0.01666666753590107,0.5423954701621085,1.3052329957559703,0.6403688645929098,0.8696936799865216,-1.8558052695676683,-8.637081904491781,17.076700651535187,-23.906736142291614,-13.498572866135193
1698921508407.0,0.01666666753590107,0.549809838071838,1.3827408905893563,0.46297699246704577,0.8322843521118164,-1.8189947113037108,-8.801983128356934,17.23704958758499,-21.371624346929462,-7.7265661212123
1698921508423.0,0.01666666753590107,0.6880038914710283,1.1530445384696126,0.5273059645146131,0.9027636452163569,-2.1054007926389575,-8.719682446289061,18.806061860700105,-25.40825419357595,-4.770855118742172
1698921508440.0,0.01666666753590107,0.8392854630455374,0.7738181346178055,0.8344546818882227,0.9938929459060541,-2.529473469433188,-8.397811960601807,17.562745450609757,-28.903417378675094,-8.43864066294281
1698921508457.0,0.01666666753590107,0.7364790224350989,0.7205284429788589,0.7185743863016366,0.827346274655126,-2.611924081365764,-8.50405465927124,5.592019734348833,-33.336152093405424,-15.547619371855262
1698921508473.0,0.01666666753590107,0.3303776903349906,0.67486179356426,-0.2338473343193531,0.32785598869600213,-2.647986451610923,-9.460388000378012,-8.814593911654175,-34.62169273294479,-21.321567598049732
1698921508490.0,0.01666666753590107,0.29921023425823073,0.5843450718149542,-0.3995400008231401,0.2483984359409427,-2.714874460491538,-9.63441711807251,-10.219869474891155,-21.03332336979144,-25.629811869872825
1698921508507.0,0.01666666753590107,0.3548629469677806,0.5907493858993053,-0.5299205309271812,0.29882631297456097,-2.682852013286948,-9.773879364776612,-11.535271701481816,-3.307298831977942,-28.554259815851335
1698921508523.0,0.01666666753590107,0.13939497188786043,0.7484767726123333,-0.8039987533479929,0.12360065842227777,-2.4871260275691744,-10.06148283920288,-10.894424079963493,9.45322940565506,-17.304139120707443
1698921508540.0,0.01666666753590107,-0.18992937346929684,0.663800301323831,-0.4261287325412035,-0.17043723753223894,-2.5519194022580978,-9.690531219482422,-4.97430425600205,9.295377757520543,-9.614975115390132
1698921508557.0,0.01666666753590107,0.01034607398007065,0.6820043587952852,-0.16536825685501097,0.050427867900463746,-2.5306705702632666,-9.430760339355468,2.270161073494539,-5.153103240547351,-11.577563379048888
1698921508574.0,0.01666666753590107,-3.527224278077483e-05,0.6438330335721373,-0.23410920012593267,0.023193833149340932,-2.5739161300107836,-9.497797985839844,0.923697921323011,-16.548880707949525,-12.819000633343835
1698921508590.0,0.01666666753590107,-0.3534550163986161,0.43330607682466504,-0.7258131053835153,-0.36526540219403103,-2.7780218215391037,-9.99175171585083,-6.217267203802847,-20.28699201427873,-13.737113807803302
1698921508607.0,0.01666666753590107,-0.9795973123162984,0.5912184647157788,-1.51822663487792,-1.0265139800583012,-2.590076991216838,-10.794407822418211,-10.327856473216348,-7.680261707507844,-14.239666320328148
1698921508624.0,0.01666666753590107,-1.2315082727231084,0.599103372746706,-1.7725170377671717,-1.2623427979179191,-2.56329186014384,-11.055226165771483,-4.641943409007821,11.77516672815288,-12.769741309049703
1698921508640.0,0.01666666753590107,-1.1089114552978425,0.9323284884020686,-1.6385855371832847,-1.0844237441297737,-2.225709426061809,-10.922796886444091,0.266259343423903,22.050328291922582,-16.002042102619967
1698921508657.0,0.01666666753590107,-0.4900699473802,1.265665832260251,-1.722417082080245,-0.3779845779640134,-1.8857327903196215,-11.008239958190916,-6.237776981219926,13.019073095832788,-29.887814977708597
1698921508673.0,0.01666666753590107,-0.13317734861518254,1.2399664505973458,-1.85387196341753,0.01960248955991119,-1.884236122021079,-11.148300170788168,-14.525078581401823,-2.7720070883271104,-37.33945915463871
1698921508690.0,0.01666666753590107,0.2813105665608309,1.3048112632125615,-1.752050003799796,0.44173016976621,-1.7784423361629247,-11.060013984569906,-16.408424697857384,-15.107977170454467,-37.4320970103516
1698921508706.0,0.01666666753590107,0.2193245043775998,1.414068341267109,-1.6596663191348313,0.36421791841811496,-1.6352394416257738,-10.979060625457763,-8.977002149738738,-18.544180455090768,-29.241784950157527
1698921508723.0,0.01666666753590107,-0.35101072851903736,1.706015982377529,-1.1115391003876924,-0.23747487716674803,-1.3386580032348632,-10.432883371734619,6.096881277699964,-15.704932288818997,-16.58260305942917
1698921508740.0,0.01666666753590107,-0.7138837442673742,1.733929240697622,-0.5866647469341755,-0.6293757796798832,-1.3314751059934495,-9.90152082530558,10.321413897281735,-17.182501989325978,-12.618965736895317
1698921508757.0,0.01666666753590107,-0.7938109021369367,1.6134329757481813,-0.5474567721396685,-0.7468412712318356,-1.482609085790813,-9.852439106750488,8.095865911898427,-13.568281776804342,-14.947409668351222
1698921508773.0,0.01666666753590107,-0.5626895587153733,1.605177188578248,-0.45621056707203383,-0.5301660255542723,-1.5050547263547778,-9.756521402740479,3.5148900520826087,-9.601706619153736,-17.84850007491558
1698921508790.0,0.01666666753590107,-0.3902838775042444,1.7217442973852157,-0.31752690352499485,-0.36421795038415583,-1.3895344962522387,-9.617508068847656,-2.6616581252095615,-8.35991846389018,-18.5789307500405
1698921508807.0,0.01666666753590107,-0.35840756077207625,1.8792849293544887,-0.29865152266323564,-0.3389291930654668,-1.2086229255676268,-9.606434886169433,-11.119622247087982,-7.386220356191503,-16.87072775937699
1698921508823.0,0.01666666753590107,-0.3599804361119866,1.827592443779111,-0.26785072620809075,-0.34476506532031925,-1.2295718978330492,-9.585784896850585,-13.259350613097373,-7.015600204561448,-15.605230309957028
1698921508840.0,0.01666666753590107,-0.41989371060915287,1.774849572367966,-0.09729776019155978,-0.41180268212194204,-1.2517182631894945,-9.425223748016357,-11.482251504275945,-8.413824024367214,-13.363578446058122
1698921508857.0,0.01666666753590107,-0.6064587039455771,1.717041818782687,-0.22089432924389837,-0.612466735021607,-1.2761089003413915,-9.559598316192627,-9.168203904043136,-7.55555184477352,-11.796840625936625
1698921508873.0,0.01666666753590107,-0.604971534127742,1.6785878772258758,-0.2483393855303526,-0.6189011474166997,-1.2931681716918944,-9.593865327453612,-8.312277894429341,-6.388084685416166,-10.682566979835329
1698921508889.0,0.01666666753590107,-0.6179851833492517,1.5146654352650046,-0.09957505747377872,-0.6408978386367671,-1.4371192542478441,-9.451410328674315,-8.038186671904961,-7.622621741102106,-10.110671825535576
1698921508907.0,0.01666666753590107,-0.7661995493728667,1.2874784356176852,0.1612929702401161,-0.806845973172388,-1.638232485961914,-9.198672415924072,-7.37535181767472,-8.0795861560117,-9.098571833002149
1698921508923.0,0.01666666753590107,-0.8609577811494469,1.271406129477918,0.3500906179994345,-0.9096469704227289,-1.637035092870891,-9.015216713714599,-6.673029932305343,-3.1110045313170644,-5.996250393110874
1698921508940.0,0.01666666753590107,-1.1460825905025005,1.3232044135153294,0.7403858206152916,-1.1896189772896002,-1.5653586806699633,-8.63109698486328,-5.742865742829034,4.028037468670612,-1.092021636837334
1698921508957.0,0.01666666753590107,-1.0825835664730519,1.175841476689279,0.8806459396988153,-1.1128548568780883,-1.6976380301326512,-8.495525315856932,-6.461508792106979,6.728385200433711,0.29932052725580593
1698921508973.0,0.01666666753590107,-0.9776162215016782,1.079433651074767,0.8760130192011594,-0.9907506007512275,-1.7745520507261157,-8.506149585723877,-6.902262179908372,8.2529875835654,0.5703999298409016
1698921508990.0,0.01666666753590107,-0.777741518606618,0.97729108120054,0.8740963719248771,-0.7686883984842017,-1.848922232055664,-8.516474580383301,-8.15793696352821,8.330575971215806,0.8024136119008599
1698921509007.0,0.01666666753590107,-0.7266838968686758,0.8704074542790651,0.6527426084756851,-0.6950666626142454,-1.9277809569761155,-8.74616830215454,-12.752294444588552,12.817671307776621,-1.8871272664913976
1698921509024.0,0.01666666753590107,-0.7976508456259965,0.7781275222495198,0.5124485871225595,-0.728585460740258,-1.9801541182920335,-8.898050469970702,-18.28050953991889,16.431790775007997,-4.3884277044712805
1698921509040.0,0.01666666753590107,-0.898729220334813,0.7169640284955501,0.23151041580438614,-0.7739257231781259,-1.9770117286130784,-9.197026402282715,-17.950032544475114,15.88219789589563,-3.8255086994013943
1698921509056.0,0.01666666753590107,-0.9511710629727691,0.6647194619953632,0.09236731805205345,-0.7894880339691415,-1.9897309249326585,-9.34681364364624,-12.466083051381984,14.583797717696424,-3.626610175676038
1698921509073.0,0.01666666753590107,-0.9582384440757333,0.597197246864438,0.011541969233751297,-0.757315967427101,-2.034322930853069,-9.433304178619384,-5.639774709478269,16.300044963654916,-4.29402979438665
1698921509090.0,0.01666666753590107,-0.7854713091410696,0.5700356836944818,-0.00845744722187519,-0.5232827186142094,-2.0521300979614256,-9.454403080749511,-0.39086115043112335,18.525009821637834,-1.7794191319834105
1698921509107.0,0.01666666753590107,-0.5938464020665735,0.7431006325319409,0.14589023392498493,-0.2873042357513681,-1.8788494605466721,-9.298779972839355,-0.08990004375319209,17.739732727477712,4.440318786029983
1698921509123.0,0.01666666753590107,-0.5347510928887873,0.7926525989472866,0.025138532909750936,-0.18749595404360442,-1.8279726752683518,-9.418490055847167,-1.304782242926643,20.146740909861688,8.840481182382169
1698921509140.0,0.01666666753590107,-0.26634313465673476,0.656233957722783,-0.38291093758344646,0.15367778252866118,-1.9607009375423192,-9.82460651245117,-1.556467350043914,30.359159502142006,11.982737884576862
1698921509157.0,0.01666666753590107,-0.5031756587993353,0.6750163996040821,-0.4925719202637672,-0.009876118380762636,-1.9393030524656176,-9.931447761535644,-1.4862158662225708,36.720988940388644,16.577418945849132
1698921509173.0,0.01666666753590107,-0.7778083732977509,0.705455377009511,-0.4109545442849397,-0.20186116400454193,-1.9111711829587816,-9.84450831375122,1.692904540861444,40.44713717038657,23.330681402787324
1698921509190.0,0.01666666753590107,-1.1082648279573768,0.7748097760036587,-0.07876257106959819,-0.4168905102051794,-1.8703198248714208,-9.496600885009766,12.650931875984623,50.538263555838505,37.45118738908178
1698921509207.0,0.01666666753590107,-1.5274674875624477,0.9527446689650416,0.11709317850768565,-0.7261913641113787,-1.7444748923704028,-9.277232157897949,26.521416226389828,56.76093130484072,50.74208323086086
1698921509223.0,0.01666666753590107,-1.4525947635382412,1.1341975069195032,0.8274106085956097,-0.5816414388794452,-1.6733967383235693,-8.528295366558432,48.326993227141465,34.543883217920005,55.041694143573054
1698921509274.0,0.01666666753590107,-0.9859995805740356,0.6786889506369829,0.1697761364251375,-0.08260003034062684,-2.220621455273032,-9.15482859802246,-30.239877078476905,14.24216873088531,8.754207355428445
1698921509289.0,0.01666666753590107,-0.7041495551079511,0.6115721014365554,-0.5863216325849294,0.25034363802485166,-2.191143139593303,-9.935338339233398,-26.734483977548376,15.200973611098776,-1.287738999956757
1698921509307.0,0.01666666753590107,-0.40050891892053186,0.8028820242777466,-1.3126274899214505,0.5829879581175744,-1.9446897139400243,-10.674997014617919,-17.4180103270026,7.2868376886732324,-3.847416104277387
1698921509323.0,0.01666666753590107,-0.2806713370755315,0.7669283751040696,-1.4392092122644184,0.7179612228393554,-1.9484309462949632,-10.809371582794189,-7.8458493986510485,3.152143401018286,-5.540573041973004
1698921509339.0,0.01666666753590107,-0.06544708935730159,0.66346653932482,-1.5622271046459675,0.9524433479309081,-2.043750099889934,-10.932672968292236,4.737110142260901,5.15946854996698,-9.13265276941322
1698921509356.0,0.01666666753590107,-0.01346774966455996,0.7220040684893727,-1.0992378372192382,1.019630632019043,-2.0057421485349534,-10.462062704467773,13.285358265909489,1.2745809606858447,-8.716575574422613
1698921509374.0,0.01666666753590107,-0.0978500603120774,0.7265735683619976,-0.5777519571602344,0.9376291520934551,-2.0319287291929125,-9.931298123931883,12.951253586242792,-3.4280572168340018,-2.8126872681368833
1698921509396.0,0.01666666753590107,0.31656499969027935,0.6083917178347706,0.7909662532955407,1.2810475257873535,-2.2221181235715743,-8.548646665191649,21.70124927627428,-37.28851277361959,-11.109462340697588
