ts,interval,accx,accy,accz,accGx,accGy,accGz,alpha,beta,gamma
1698674961004.0,16,-0.1,-0.1,-0.1,-1.3,9.200000000000001,1.9000000000000001,-1.3,-1.2000000000000002,-1.0999999999999999
1698674961020.0,16,-0.1,-0.1,-0.1,-1.3,9.200000000000001,1.9000000000000001,-1.0999999999999999,-3.8,-1.0999999999999999
1698674961037.0,16,0.0,0.0,-0.1,-1.2000000000000002,9.3,1.9000000000000001,-1.3,-5.8,-1.6
1698674961053.0,16,0.0,0.1,-0.1,-1.1,9.4,1.9000000000000001,-2.9,-9.5,-3.6
1698674961070.0,16,0.2,0.1,0.1,-1.0,9.4,2.1,-5.1,-12.4,-4.5
1698674961088.0,16,0.30000000000000004,0.1,0.2,-0.9,9.4,2.2,-5.7,-11.8,-4.1000000000000005
1698674961104.0,16,0.30000000000000004,0.1,0.30000000000000004,-0.8,9.4,2.4000000000000004,-6.8,-7.6,-1.0999999999999999
1698674961121.0,16,0.30000000000000004,0.1,0.4,-0.9,9.4,2.4000000000000004,-6.7,-4.5,1.4
1698674961137.0,16,0.2,0.0,0.4,-1.0,9.3,2.4000000000000004,-5.6,0.8,7.2
1698674961154.0,16,-0.1,-0.30000000000000004,0.1,-1.2000000000000002,9.0,2.2,-4.800000000000001,2.3000000000000003,11.000000000000002
1698674961170.0,16,-0.5,0.0,-0.4,-1.4000000000000001,9.1,1.9000000000000001,-4.7,0.2,10.700000000000001
1698674961188.0,16,-0.7000000000000001,0.6000000000000001,-0.4,-1.7000000000000002,9.9,1.7000000000000002,-5.500000000000001,-14.100000000000001,-1.4
1698674961204.0,16,-0.6000000000000001,0.7000000000000001,-0.30000000000000004,-1.7000000000000002,10.0,1.8,-4.5,-15.6,-6.7
1698674961221.0,16,-0.2,0.1,-0.1,-1.3,9.4,2.1,-1.2000000000000002,-11.4,-13.5
1698674961237.0,16,0.1,-0.30000000000000004,0.0,-1.0,8.9,2.2,0.5,-9.0,-14.200000000000001
1698674961254.0,16,0.4,-0.8,0.2,-0.7000000000000001,8.5,2.3000000000000003,1.2000000000000002,-4.7,-10.700000000000001
1698674961271.0,16,0.6000000000000001,-0.5,0.4,-0.6000000000000001,8.700000000000001,2.5,0.5,-1.3,-8.600000000000001
1698674961287.0,16,0.6000000000000001,-0.30000000000000004,0.30000000000000004,-0.6000000000000001,9.0,2.5,-0.5,1.8,-5.8
1698674961304.0,16,0.6000000000000001,0.1,0.1,-0.5,9.3,2.4000000000000004,-0.5,0.4,-3.1
1698674961320.0,16,0.5,0.1,0.0,-0.7000000000000001,9.4,2.1,-1.0999999999999999,-0.6000000000000001,0.0
1698674961337.0,16,0.4,0.1,-0.1,-0.8,9.3,2.1,-1.2000000000000002,-0.5,2.1999999999999997
1698674961355.0,16,0.30000000000000004,0.1,-0.1,-0.8,9.3,2.1,0.9,0.7,3.0000000000000004
1698674961370.0,16,0.30000000000000004,0.1,-0.1,-0.8,9.3,2.1,2.5,1.6,3.5
1698674961387.0,16,0.30000000000000004,0.1,-0.1,-0.9,9.4,2.1,4.300000000000001,2.6,3.9
1698674961404.0,16,0.2,0.0,0.0,-0.9,9.3,2.1,5.7,4.3999999999999995,4.6000000000000005
1698674961421.0,16,0.1,-0.1,0.1,-1.1,9.200000000000001,2.2,4.6000000000000005,6.3,4.3999999999999995
1698674961437.0,16,0.0,-0.2,0.0,-1.1,9.1,2.1,3.3000000000000003,6.9,4.300000000000001
1698674961454.0,16,-0.1,-0.1,0.0,-1.3,9.1,2.1,1.0,6.4,3.6
1698674961471.0,16,-0.2,0.0,0.1,-1.3,9.3,2.1,0.6000000000000001,5.4,2.8
1698674961487.0,16,-0.2,0.1,0.1,-1.3,9.3,2.1,2.1999999999999997,4.300000000000001,2.1999999999999997
1698674961504.0,16,-0.2,0.0,0.1,-1.3,9.3,2.1,3.1,3.9,2.0
1698674961520.0,16,-0.1,0.0,0.0,-1.2000000000000002,9.3,2.1,4.2,3.4,1.5000000000000002
1698674961537.0,16,0.0,0.1,0.1,-1.1,9.4,2.1,3.9,2.9,1.3
1698674961554.0,16,0.0,0.1,0.1,-1.1,9.4,2.1,3.4,2.6,1.0999999999999999
1698674961570.0,16,0.0,0.1,0.1,-1.1,9.4,2.1,1.7,2.9,1.0
1698674961587.0,16,0.0,0.0,0.0,-1.1,9.4,2.1,0.0,2.1999999999999997,1.2000000000000002
1698674961604.0,16,-0.1,0.0,0.0,-1.2000000000000002,9.3,2.1,-0.7,1.9,0.7
1698674961621.0,16,0.0,0.0,0.0,-1.1,9.3,2.1,-1.5000000000000002,0.4,-0.1
1698674961637.0,16,0.0,0.0,0.0,-1.1,9.3,2.0,-1.6,0.2,0.0
1698674961653.0,16,0.0,0.0,0.0,-1.1,9.3,2.0,-1.2000000000000002,0.1,0.4
1698674961670.0,16,0.0,0.0,0.0,-1.1,9.3,2.1,-0.2,-0.6000000000000001,0.7
1698674961688.0,16,0.0,0.0,0.0,-1.1,9.3,2.1,0.0,-1.0999999999999999,0.6000000000000001
1698674961705.0,16,0.0,0.0,0.0,-1.1,9.3,2.1,0.0,-1.5000000000000002,0.2
1698674961720.0,16,0.0,0.0,0.0,-1.1,9.3,2.1,-0.5,-1.0999999999999999,-0.30000000000000004
1698674961737.0,16,0.0,0.0,0.0,-1.1,9.3,2.1,-0.9,-0.9,-0.30000000000000004
1698674961753.0,16,0.0,0.0,0.0,-1.1,9.3,2.0,-1.2000000000000002,-0.8,-0.4
1698674961771.0,16,0.0,0.0,0.0,-1.1,9.3,2.0,-1.0,-1.7,-0.30000000000000004
1698674961787.0,16,0.0,0.0,-0.1,-1.1,9.3,2.0,-0.7,-2.1,0.0
1698674961803.0,16,0.0,0.0,-0.1,-1.1,9.3,2.0,-0.6000000000000001,-2.3000000000000003,0.1
1698674961820.0,16,0.0,-0.1,-0.1,-1.1,9.200000000000001,2.0,-0.30000000000000004,-2.4000000000000004,0.30000000000000004
1698674961836.0,16,0.1,-0.1,0.0,-1.0,9.200000000000001,2.0,0.1,-2.8,0.30000000000000004
1698674961853.0,16,0.0,0.0,0.0,-1.0,9.3,2.0,0.2,-2.9,0.2
1698674961870.0,16,0.0,0.0,0.0,-1.1,9.3,2.0,0.30000000000000004,-3.0000000000000004,0.1
1698674961887.0,16,0.0,0.0,0.0,-1.1,9.3,2.0,0.30000000000000004,-3.4,0.0
1698674961903.0,16,0.0,0.0,0.0,-1.1,9.200000000000001,2.0,0.5,-3.7000000000000006,-0.1
1698674961920.0,16,0.0,-0.1,0.0,-1.1,9.200000000000001,2.0,1.0,-3.7000000000000006,0.0
1698674961937.0,16,0.0,0.0,0.0,-1.0,9.3,2.1,1.5000000000000002,-3.5,0.2
1698674961953.0,16,0.1,0.0,0.0,-1.0,9.3,2.1,2.1,-3.2,0.1
1698674961970.0,16,0.1,0.0,0.1,-1.0,9.3,2.1,2.6,-3.1,0.2
1698674961987.0,16,0.1,0.0,0.0,-1.0,9.3,2.1,2.7,-3.1,0.30000000000000004
1698674962003.0,16,0.0,0.0,0.0,-1.0,9.3,2.1,2.4000000000000004,-2.8,0.8
1698674962020.0,16,0.0,0.0,0.0,-1.0,9.3,2.1,2.3000000000000003,-2.9,1.0
1698674962037.0,16,0.0,0.0,0.0,-1.0,9.3,2.1,2.3000000000000003,-3.2,1.0
1698674962053.0,16,0.0,0.1,0.0,-1.0,9.4,2.1,2.3000000000000003,-3.3000000000000003,1.0
1698674962070.0,16,0.0,0.0,0.0,-1.0,9.3,2.1,2.3000000000000003,-2.6,1.0999999999999999
1698674962087.0,16,0.0,0.0,0.0,-1.0,9.3,2.1,2.4000000000000004,-2.7,1.4
1698674962105.0,16,0.0,0.0,0.0,-1.0,9.4,2.1,2.4000000000000004,-2.6,1.7
1698674962121.0,16,0.0,0.0,0.0,-1.0,9.3,2.1,2.1,-3.4,1.5000000000000002
1698674962138.0,16,0.0,0.0,0.1,-1.0,9.3,2.1,1.7,-3.1,1.2000000000000002
1698674962155.0,16,0.0,-0.1,0.0,-1.0,9.3,2.0,1.8,-3.4,1.3
1698674962171.0,16,0.0,0.0,0.0,-1.0,9.3,2.0,1.6,-3.2,1.3
1698674962187.0,16,0.0,0.1,0.0,-1.0,9.3,2.0,1.6,-3.1,1.0999999999999999
1698674962204.0,16,0.0,0.1,0.0,-1.0,9.4,2.0,1.7,-3.7000000000000006,1.0
1698674962221.0,16,0.0,0.1,0.0,-1.0,9.4,2.0,1.3,-3.7000000000000006,0.8
1698674962237.0,16,0.0,0.0,0.0,-1.0,9.3,2.0,1.0999999999999999,-3.8,0.30000000000000004
1698674962254.0,16,0.0,0.0,0.0,-1.0,9.3,2.0,0.7,-3.9,0.0
1698674962270.0,16,0.0,-0.1,0.0,-0.9,9.200000000000001,2.0,0.30000000000000004,-3.2,-0.30000000000000004
1698674962287.0,16,0.0,-0.1,0.0,-0.9,9.200000000000001,2.0,0.30000000000000004,-2.8,-0.4
1698674962303.0,16,0.0,0.0,0.0,-0.9,9.3,2.0,0.7,-1.8,-0.2
1698674962320.0,16,0.0,0.0,0.0,-0.9,9.3,2.0,0.9,-1.5000000000000002,-0.1
1698674962337.0,16,0.0,0.0,0.0,-1.0,9.4,2.0,0.9,-0.9,0.30000000000000004
1698674962353.0,16,0.0,0.1,0.0,-1.0,9.4,2.0,0.7,-1.2000000000000002,0.4
1698674962370.0,16,0.0,0.1,0.0,-0.9,9.4,1.9000000000000001,0.1,-1.8,-0.30000000000000004
1698674962387.0,16,0.0,0.1,0.0,-0.9,9.4,2.0,-1.0,-2.4000000000000004,-0.7
1698674962404.0,16,0.0,0.0,-0.1,-0.9,9.3,1.9000000000000001,-2.1,-1.5000000000000002,-0.5
1698674962420.0,16,0.0,-0.1,0.0,-1.0,9.3,2.0,-2.3000000000000003,-1.3,-0.30000000000000004
1698674962437.0,16,0.0,-0.2,0.0,-0.9,9.200000000000001,2.0,-1.8,-0.6000000000000001,-0.2
1698674962453.0,16,0.0,-0.1,0.0,-0.9,9.200000000000001,2.0,-0.6000000000000001,0.30000000000000004,0.0
1698674962470.0,16,0.0,0.0,0.0,-0.9,9.3,2.0,0.2,0.9,0.0
1698674962487.0,16,0.0,0.0,0.0,-0.9,9.3,2.0,1.0999999999999999,1.2000000000000002,-0.1
1698674962503.0,16,0.0,0.0,-0.1,-1.0,9.3,1.9000000000000001,0.9,1.0999999999999999,0.0
1698674962520.0,16,0.0,0.0,-0.1,-1.0,9.3,2.0,0.5,1.0999999999999999,0.1
1698674962537.0,16,0.0,0.0,0.0,-0.9,9.3,1.9000000000000001,-0.4,1.5000000000000002,0.2
1698674962553.0,16,0.0,0.0,-0.1,-1.0,9.3,1.9000000000000001,-0.2,1.5000000000000002,0.30000000000000004
1698674962571.0,16,0.0,0.0,0.0,-1.0,9.3,2.0,0.7,1.5000000000000002,0.7
1698674962587.0,16,0.0,0.0,0.0,-1.0,9.3,2.0,1.2000000000000002,1.4,0.8
1698674962603.0,16,0.0,-0.1,0.0,-0.9,9.3,2.0,1.8,1.0,0.8
1698674962620.0,16,0.0,0.0,0.0,-0.9,9.3,2.0,1.3,1.3,0.9
1698674962637.0,16,0.1,0.0,0.0,-0.9,9.3,2.0,1.2000000000000002,1.4,1.0
1698674962654.0,16,0.0,0.0,0.0,-0.9,9.4,2.0,0.9,1.5000000000000002,0.9
1698674962670.0,16,0.0,0.0,0.0,-0.9,9.4,2.0,0.8,1.6,0.8
1698674962687.0,16,0.0,0.0,0.0,-1.0,9.3,2.0,0.7,2.1,1.2000000000000002
1698674962704.0,16,0.0,0.1,0.0,-0.9,9.4,1.9000000000000001,0.5,1.9,1.5000000000000002
1698674962720.0,16,0.0,0.0,0.0,-1.0,9.3,2.0,0.2,2.0,1.6
1698674962737.0,16,0.0,0.0,0.0,-1.0,9.3,1.9000000000000001,0.1,1.5000000000000002,1.5000000000000002
1698674962753.0,16,0.0,0.0,0.0,-0.9,9.3,1.9000000000000001,0.0,0.6000000000000001,1.2000000000000002
1698674962770.0,16,0.0,0.0,0.0,-0.9,9.3,1.9000000000000001,0.0,0.30000000000000004,1.0
1698674962787.0,16,0.0,0.0,0.0,-1.0,9.3,1.9000000000000001,0.2,0.1,0.8
1698674962803.0,16,0.0,0.0,0.0,-1.0,9.3,1.9000000000000001,0.1,-0.5,0.7
1698674962820.0,16,0.0,0.0,0.0,-1.0,9.4,1.9000000000000001,0.2,-0.9,0.5
1698674962838.0,16,0.0,0.0,0.0,-0.9,9.3,1.9000000000000001,0.2,-0.9,0.5
1698674962854.0,16,0.0,0.1,0.0,-0.9,9.4,1.9000000000000001,0.1,-1.9,0.0
1698674962870.0,16,0.0,0.1,0.0,-0.9,9.4,1.9000000000000001,0.1,-1.4,0.0
1698674962887.0,16,0.0,0.0,0.0,-0.9,9.4,2.0,-0.1,-1.3,-0.30000000000000004
1698674962905.0,16,0.0,0.0,0.0,-0.9,9.3,1.9000000000000001,-0.1,-1.8,-0.7
1698674962920.0,16,0.0,-0.1,0.0,-0.9,9.3,1.9000000000000001,-0.4,-2.0,-0.9
1698674962937.0,16,0.0,0.0,0.0,-1.0,9.3,1.9000000000000001,-0.6000000000000001,-2.1,-1.4
1698674962954.0,16,0.0,0.0,-0.1,-0.9,9.3,1.9000000000000001,-0.4,-2.5,-0.8
1698674962970.0,16,0.0,0.0,0.0,-1.0,9.3,1.9000000000000001,0.5,-2.7,-0.8
1698674962987.0,16,0.0,-0.1,0.0,-1.0,9.3,1.9000000000000001,1.4,-3.1,-0.9
1698674963003.0,16,0.0,-0.1,0.0,-1.0,9.3,2.0,2.5,-2.6,-1.0999999999999999
1698674963020.0,16,0.0,0.0,0.0,-1.0,9.3,2.0,2.6,-1.7,-0.7
1698674963037.0,16,0.0,-0.1,0.1,-1.0,9.200000000000001,2.0,2.0,-0.5,0.0
1698674963053.0,16,0.0,-0.1,0.0,-1.0,9.200000000000001,2.0,1.0,-1.9,-0.8
1698674963070.0,16,0.0,-0.1,0.0,-0.9,9.200000000000001,2.0,1.0999999999999999,-2.1,-1.0
1698674963087.0,16,0.1,0.0,0.1,-0.9,9.3,2.0,2.4000000000000004,-2.1,-1.4
1698674963104.0,16,0.1,0.0,0.1,-0.9,9.3,2.0,4.5,-1.5000000000000002,-1.6
1698674963121.0,16,0.0,0.0,0.1,-0.9,9.3,2.0,5.1,-1.2000000000000002,-1.5000000000000002
1698674963137.0,16,0.1,0.1,0.2,-0.9,9.4,2.1,4.9,0.1,-0.6000000000000001
1698674963154.0,16,0.0,0.1,0.1,-0.9,9.4,2.0,3.0000000000000004,-0.1,0.1
1698674963170.0,16,0.1,0.1,0.0,-0.9,9.5,1.9000000000000001,1.0999999999999999,-0.30000000000000004,0.0
1698674963187.0,16,0.1,0.1,0.0,-0.8,9.5,1.9000000000000001,0.4,0.0,-0.1
1698674963204.0,16,0.1,0.1,0.0,-0.9,9.4,1.8,-0.2,0.4,-0.1
1698674963220.0,16,0.1,0.0,0.0,-0.9,9.4,1.8,-0.30000000000000004,0.9,-0.2
1698674963237.0,16,0.1,0.0,0.0,-0.9,9.4,1.9000000000000001,-0.4,1.0999999999999999,-0.1
1698674963254.0,16,0.0,0.0,0.0,-0.9,9.3,1.9000000000000001,-0.4,1.3,-0.1
1698674963270.0,16,0.0,0.0,0.1,-0.9,9.3,2.0,-0.7,2.1,0.0
1698674963287.0,16,0.0,0.0,0.1,-0.9,9.3,2.0,-0.7,2.4000000000000004,0.1
1698674963304.0,16,0.0,0.0,0.0,-0.9,9.3,1.9000000000000001,-1.0,3.0000000000000004,0.1
1698674963320.0,16,0.0,0.0,0.0,-0.9,9.4,1.9000000000000001,-1.2000000000000002,2.9,0.0
1698674963337.0,16,0.0,0.0,0.0,-0.9,9.4,1.9000000000000001,-1.3,2.8,0.0
1698674963354.0,16,0.0,0.0,0.0,-0.9,9.4,1.9000000000000001,-1.5000000000000002,2.6,-0.30000000000000004
1698674963371.0,16,0.0,0.0,0.0,-0.9,9.3,1.9000000000000001,-1.3,2.7,-0.30000000000000004
1698674963387.0,16,0.0,0.0,0.0,-0.9,9.3,1.9000000000000001,-1.3,2.8,-0.30000000000000004
1698674963403.0,16,0.0,0.0,0.0,-1.0,9.3,1.9000000000000001,-1.6,2.9,-0.6000000000000001
1698674963420.0,16,0.0,0.0,0.0,-1.0,9.3,1.9000000000000001,-1.8,3.3000000000000003,-0.6000000000000001
1698674963437.0,16,0.0,0.0,0.0,-1.0,9.3,1.9000000000000001,-1.6,3.3000000000000003,-0.7
1698674963454.0,16,0.0,0.0,-0.1,-1.0,9.3,1.9000000000000001,-1.5000000000000002,3.3000000000000003,-0.8
1698674963471.0,16,0.0,0.0,-0.1,-1.0,9.3,1.9000000000000001,-1.3,3.1,-0.9
1698674963487.0,16,0.0,0.0,-0.1,-1.0,9.3,1.9000000000000001,-1.0999999999999999,2.9,-0.9
1698674963504.0,16,0.0,0.0,0.0,-1.0,9.4,1.9000000000000001,-0.9,2.1999999999999997,-1.2000000000000002
1698674963520.0,16,0.0,0.0,0.0,-1.0,9.3,1.9000000000000001,-1.2000000000000002,1.5000000000000002,-1.4
1698674963537.0,16,0.0,0.0,0.0,-1.0,9.3,1.9000000000000001,-1.2000000000000002,1.3,-1.4
1698674963554.0,16,0.0,0.0,-0.1,-1.0,9.3,1.9000000000000001,-1.3,1.2000000000000002,-1.4
1698674963570.0,16,0.0,0.0,0.0,-1.0,9.3,1.9000000000000001,-1.5000000000000002,1.2000000000000002,-1.2000000000000002
1698674963587.0,16,0.0,0.0,0.0,-1.0,9.3,1.9000000000000001,-1.5000000000000002,1.2000000000000002,-1.2000000000000002
1698674963603.0,16,0.0,0.0,0.0,-1.0,9.3,1.9000000000000001,-1.0999999999999999,1.5000000000000002,-1.4
1698674963620.0,16,0.0,0.0,0.0,-1.0,9.3,1.9000000000000001,-0.5,2.1999999999999997,-1.3
1698674963637.0,16,0.0,0.0,0.0,-1.0,9.3,1.9000000000000001,-0.2,1.8,-1.0999999999999999
1698674963653.0,16,0.0,0.0,0.0,-1.0,9.3,1.9000000000000001,-0.2,1.8,-1.0999999999999999
1698674963670.0,16,0.0,0.0,0.0,-1.0,9.3,1.9000000000000001,0.4,1.4,-1.0999999999999999
1698674963687.0,16,0.0,0.0,0.0,-1.0,9.3,1.9000000000000001,0.5,1.7,-1.0999999999999999
1698674963705.0,16,0.0,0.0,0.0,-1.0,9.3,1.9000000000000001,0.4,2.1,-1.0
1698674963721.0,16,0.0,0.0,0.0,-1.0,9.3,1.9000000000000001,0.2,2.9,-0.7
1698674963737.0,16,0.0,0.0,0.0,-1.0,9.3,1.9000000000000001,0.1,3.2,-0.4
1698674963754.0,16,0.0,0.0,0.0,-1.0,9.3,1.9000000000000001,0.1,3.3000000000000003,-0.4
1698674963770.0,16,0.0,0.0,0.0,-1.0,9.3,1.9000000000000001,0.30000000000000004,3.5,-0.5
1698674963787.0,16,0.0,0.0,0.0,-1.0,9.3,1.9000000000000001,0.4,3.6,-0.4
1698674963803.0,16,0.0,0.0,0.0,-1.0,9.3,1.9000000000000001,0.5,4.2,-0.6000000000000001
1698674963820.0,16,0.0,0.0,0.0,-1.0,9.3,1.9000000000000001,0.4,4.6000000000000005,-0.4
1698674963837.0,16,0.0,0.0,0.0,-1.0,9.3,1.9000000000000001,0.4,4.800000000000001,-0.4
1698674963856.0,16,0.0,0.0,0.0,-1.0,9.4,1.9000000000000001,0.1,4.9,-0.4
1698674963871.0,16,0.0,0.0,0.0,-1.1,9.3,1.9000000000000001,-0.1,5.4,-0.1
1698674963887.0,16,0.0,0.0,0.0,-1.1,9.3,1.9000000000000001,-0.4,5.2,-0.4
1698674963904.0,16,0.0,0.1,0.0,-1.1,9.4,1.9000000000000001,-1.2000000000000002,5.2,-0.6000000000000001
1698674963920.0,16,-0.1,0.0,0.1,-1.1,9.3,2.0,-0.8,5.500000000000001,-0.30000000000000004
1698674963937.0,16,0.0,0.0,0.1,-1.1,9.3,2.0,-0.4,5.4,-0.7
1698674963954.0,16,0.0,0.0,0.1,-1.1,9.3,2.0,-0.2,5.6,-0.5
1698674963972.0,16,-0.1,0.0,0.1,-1.1,9.3,2.0,-0.2,5.8,-0.30000000000000004
1698674963987.0,16,-0.1,0.0,0.0,-1.2000000000000002,9.3,1.9000000000000001,-0.4,6.5,0.0
1698674964005.0,16,-0.1,0.0,0.0,-1.2000000000000002,9.4,1.9000000000000001,-0.8,6.4,0.2
1698674964020.0,16,-0.1,0.0,0.0,-1.2000000000000002,9.4,1.9000000000000001,-1.2000000000000002,5.500000000000001,0.1
1698674964037.0,16,-0.1,0.1,0.0,-1.2000000000000002,9.4,1.9000000000000001,-1.3,4.7,0.0
1698674964053.0,16,-0.1,0.0,0.0,-1.2000000000000002,9.3,1.9000000000000001,-1.8,4.3999999999999995,0.0
1698674964071.0,16,-0.1,0.0,0.0,-1.2000000000000002,9.3,1.9000000000000001,-2.1,4.300000000000001,-0.1
1698674964088.0,16,-0.1,-0.1,0.0,-1.2000000000000002,9.3,2.0,-2.3000000000000003,4.300000000000001,-0.1
1698674964105.0,16,-0.1,-0.1,0.0,-1.2000000000000002,9.200000000000001,2.0,-2.1,4.2,0.0
1698674964120.0,16,0.0,0.0,0.0,-1.2000000000000002,9.3,2.0,-1.3,3.8,0.0
1698674964137.0,16,0.0,0.0,0.0,-1.2000000000000002,9.3,2.0,-0.9,3.8,-0.2
1698674964154.0,16,0.0,0.0,0.0,-1.2000000000000002,9.3,2.0,-0.8,3.9,-0.1
1698674964171.0,16,0.0,0.0,0.0,-1.2000000000000002,9.3,1.9000000000000001,-1.2000000000000002,3.7000000000000006,0.0
1698674964187.0,16,-0.1,0.0,0.0,-1.2000000000000002,9.3,1.9000000000000001,-1.4,3.3000000000000003,0.2
1698674964203.0,16,0.0,0.0,0.0,-1.2000000000000002,9.3,2.0,-1.5000000000000002,2.9,0.2
1698674964221.0,16,-0.1,0.0,0.0,-1.2000000000000002,9.3,2.0,-1.0,2.4000000000000004,0.30000000000000004
1698674964237.0,16,-0.1,-0.1,0.0,-1.2000000000000002,9.200000000000001,2.0,-0.4,2.0,0.4
1698674964253.0,16,0.0,-0.1,0.0,-1.2000000000000002,9.3,2.0,-0.2,1.6,0.30000000000000004
1698674964270.0,16,0.0,0.0,0.0,-1.2000000000000002,9.3,1.9000000000000001,-0.1,1.5000000000000002,0.2
1698674964287.0,16,0.0,0.0,0.0,-1.2000000000000002,9.3,1.9000000000000001,-0.1,1.7,0.30000000000000004
1698674964304.0,16,0.0,0.0,0.0,-1.1,9.3,1.9000000000000001,-0.1,1.6,0.2
1698674964320.0,16,0.0,0.0,0.0,-1.2000000000000002,9.3,1.9000000000000001,-0.2,1.0,-0.1
1698674964337.0,16,0.0,0.0,0.0,-1.2000000000000002,9.3,1.9000000000000001,-0.2,1.0,-0.1
1698674964354.0,16,0.0,0.0,0.0,-1.2000000000000002,9.3,2.0,0.1,0.6000000000000001,0.2
1698674964370.0,16,0.0,0.0,0.0,-1.2000000000000002,9.3,2.0,0.7,-0.30000000000000004,0.30000000000000004
1698674964387.0,16,0.0,0.0,0.0,-1.2000000000000002,9.3,2.0,0.8,-0.4,0.30000000000000004
1698674964404.0,16,0.0,0.0,0.0,-1.2000000000000002,9.3,2.0,0.5,-0.6000000000000001,0.2
1698674964421.0,16,0.0,0.0,0.0,-1.1,9.3,2.0,-0.2,-0.9,0.2
1698674964437.0,16,0.0,0.0,0.0,-1.2000000000000002,9.3,2.0,-0.6000000000000001,-0.9,0.2
1698674964454.0,16,0.0,0.0,0.0,-1.2000000000000002,9.3,2.0,-0.7,-1.3,0.2
1698674964470.0,16,-0.1,0.0,0.0,-1.2000000000000002,9.3,2.0,-0.5,-1.4,0.2
1698674964486.0,16,0.0,0.0,0.0,-1.2000000000000002,9.3,2.0,0.2,-2.5,0.1
1698674964503.0,16,0.0,0.0,0.0,-1.2000000000000002,9.3,2.0,0.7,-2.9,-0.1
1698674964523.0,16,0.0,0.0,0.0,-1.2000000000000002,9.3,2.0,0.7,-3.1,-0.1
1698674964536.0,16,0.0,0.0,0.0,-1.2000000000000002,9.3,2.0,0.7,-3.7000000000000006,0.0
1698674964553.0,16,0.0,0.0,0.0,-1.1,9.3,2.0,0.6000000000000001,-4.300000000000001,0.0
1698674964571.0,16,0.0,0.0,0.1,-1.1,9.3,2.0,0.6000000000000001,-4.9,-0.1
1698674964587.0,16,0.0,0.0,0.0,-1.1,9.3,2.0,0.6000000000000001,-4.9,-0.30000000000000004
1698674964604.0,16,0.1,0.0,0.0,-1.1,9.3,2.0,0.4,-4.800000000000001,-0.30000000000000004
1698674964622.0,16,0.0,0.0,0.0,-1.1,9.3,2.0,0.30000000000000004,-5.0,-0.30000000000000004
1698674964637.0,16,0.0,0.0,0.0,-1.1,9.3,1.9000000000000001,0.1,-4.9,-0.30000000000000004
1698674964654.0,16,0.0,0.0,0.0,-1.1,9.3,2.0,0.0,-5.1,-0.30000000000000004
1698674964671.0,16,0.1,0.0,0.0,-1.1,9.3,2.0,-0.2,-5.300000000000001,-0.30000000000000004
1698674964687.0,16,0.0,0.0,0.0,-1.1,9.3,2.0,0.5,-5.500000000000001,-0.6000000000000001
1698674964704.0,16,0.1,0.0,0.0,-1.0,9.3,2.0,0.7,-5.7,-0.5
1698674964720.0,16,0.0,0.0,0.0,-1.1,9.3,2.0,0.7,-5.500000000000001,-0.4
1698674964737.0,16,0.1,0.0,0.0,-1.1,9.3,2.0,0.5,-5.300000000000001,-0.30000000000000004
1698674964753.0,16,0.1,0.0,0.0,-1.1,9.3,2.0,0.1,-5.300000000000001,-0.4
1698674964770.0,16,0.1,0.0,0.0,-1.0,9.3,2.0,-0.1,-5.2,-0.30000000000000004
1698674964788.0,16,0.1,0.0,0.0,-1.0,9.3,2.0,-0.4,-4.9,-0.30000000000000004
1698674964804.0,16,0.1,0.0,0.0,-1.0,9.3,2.0,-0.6000000000000001,-4.5,-0.30000000000000004
1698674964821.0,16,0.0,0.0,0.0,-1.0,9.3,2.0,-0.6000000000000001,-4.300000000000001,-0.1
1698674964838.0,16,0.1,-0.1,0.0,-1.0,9.200000000000001,1.9000000000000001,-0.4,-4.2,-0.1
1698674964853.0,16,0.1,-0.1,0.0,-1.0,9.200000000000001,2.0,0.0,-3.7000000000000006,-0.5
1698674964870.0,16,0.1,0.0,0.0,-1.0,9.3,2.0,0.4,-3.4,-0.30000000000000004
1698674964888.0,16,0.0,0.0,-0.1,-1.1,9.3,1.9000000000000001,0.8,-2.6,-0.1
1698674964903.0,16,0.0,0.1,0.0,-1.1,9.4,2.0,0.9,-2.5,0.0
1698674964921.0,16,0.0,0.1,0.0,-1.1,9.4,2.0,1.0,-2.8,-0.1
1698674964937.0,16,0.0,0.1,0.0,-1.1,9.4,1.9000000000000001,0.5,-2.8,-0.6000000000000001
1698674964954.0,16,0.0,0.1,0.0,-1.1,9.4,1.9000000000000001,-0.2,-2.3000000000000003,-0.8
1698674964970.0,16,0.0,0.0,0.0,-1.0,9.3,1.9000000000000001,-1.2000000000000002,-1.4,-0.4
1698674964987.0,16,0.0,-0.1,-0.1,-1.0,9.200000000000001,1.9000000000000001,-1.5000000000000002,-0.6000000000000001,0.0
1698674965004.0,16,0.0,-0.1,0.0,-1.0,9.200000000000001,1.9000000000000001,-1.3,-0.30000000000000004,-0.2
1698674965020.0,16,0.0,0.0,0.0,-1.1,9.3,1.9000000000000001,-0.30000000000000004,0.4,-0.2
1698674965037.0,16,0.0,0.0,0.0,-1.1,9.3,2.0,0.5,0.8,-0.30000000000000004
1698674965053.0,16,0.0,0.0,0.0,-1.0,9.3,2.0,0.7,1.0,-0.1
1698674965070.0,16,0.0,0.0,0.0,-1.1,9.3,2.0,0.30000000000000004,1.6,-0.2
1698674965087.0,16,0.0,0.0,0.0,-1.1,9.3,2.0,0.0,1.8,-0.1
1698674965103.0,16,0.0,0.0,0.0,-1.1,9.3,1.9000000000000001,-0.30000000000000004,1.8,0.0
1698674965120.0,16,0.0,0.0,0.0,-1.1,9.3,2.0,-0.4,1.9,-0.1
1698674965137.0,16,0.0,-0.1,0.0,-1.1,9.200000000000001,2.0,-0.1,1.9,0.0
1698674965154.0,16,0.0,0.0,0.0,-1.0,9.3,2.0,0.5,2.7,0.2
1698674965170.0,16,0.0,0.0,0.0,-1.1,9.3,2.0,0.5,3.3000000000000003,0.4
1698674965188.0,16,0.0,0.0,0.0,-1.1,9.3,2.0,-0.1,3.5,0.7
1698674965203.0,16,0.0,0.0,0.0,-1.1,9.3,2.0,-0.2,3.6,0.7
1698674965221.0,16,0.0,0.0,0.0,-1.1,9.3,2.0,-0.2,3.7000000000000006,0.7
1698674965237.0,16,0.0,0.0,0.0,-1.1,9.3,1.9000000000000001,0.30000000000000004,3.6,0.4
1698674965254.0,16,0.0,0.0,0.0,-1.1,9.4,1.9000000000000001,0.7,3.5,0.1
1698674965271.0,16,0.0,0.0,0.0,-1.1,9.3,1.9000000000000001,0.6000000000000001,3.2,0.2
1698674965287.0,16,0.0,0.0,0.0,-1.1,9.3,2.0,0.4,3.2,0.30000000000000004
1698674965304.0,16,0.0,0.0,0.0,-1.1,9.3,2.0,-0.1,3.0000000000000004,0.30000000000000004
1698674965321.0,16,0.0,0.0,0.0,-1.1,9.3,2.0,-0.1,2.8,0.2
1698674965337.0,16,0.0,0.0,0.0,-1.1,9.3,1.9000000000000001,0.1,2.6,0.2
1698674965354.0,16,0.0,0.0,0.0,-1.2000000000000002,9.3,2.0,0.30000000000000004,2.4000000000000004,0.2
1698674965371.0,16,-0.1,0.0,0.0,-1.2000000000000002,9.3,1.9000000000000001,0.5,2.4000000000000004,0.0
1698674965387.0,16,-0.1,0.0,0.0,-1.2000000000000002,9.3,1.9000000000000001,0.7,1.9,0.0
1698674965403.0,16,-0.1,0.0,0.0,-1.2000000000000002,9.3,1.9000000000000001,0.5,1.5000000000000002,0.1
1698674965420.0,16,-0.1,0.0,0.0,-1.2000000000000002,9.3,2.0,0.30000000000000004,1.3,0.0
1698674965437.0,16,0.0,0.0,0.0,-1.2000000000000002,9.3,1.9000000000000001,0.2,0.8,-0.1
1698674965454.0,16,0.0,0.0,0.0,-1.1,9.3,1.9000000000000001,0.30000000000000004,0.5,-0.30000000000000004
1698674965470.0,16,0.0,0.0,0.0,-1.2000000000000002,9.4,1.9000000000000001,0.6000000000000001,0.2,-0.1
1698674965487.0,16,0.0,0.0,0.0,-1.2000000000000002,9.3,1.9000000000000001,0.5,-0.2,-0.1
1698674965504.0,16,-0.1,0.0,0.0,-1.2000000000000002,9.4,1.9000000000000001,0.1,-0.9,-0.4
1698674965520.0,16,0.0,0.1,0.0,-1.2000000000000002,9.4,2.0,-0.2,-1.3,-0.5
1698674965537.0,16,0.0,0.0,0.0,-1.2000000000000002,9.4,1.9000000000000001,-0.6000000000000001,-2.0,-0.8
1698674965553.0,16,0.0,0.0,0.0,-1.2000000000000002,9.4,1.9000000000000001,-0.9,-2.6,-0.9
1698674965570.0,16,0.0,0.0,0.0,-1.2000000000000002,9.3,2.0,-1.0999999999999999,-3.1,-0.7
1698674965587.0,16,0.0,0.0,0.0,-1.2000000000000002,9.3,1.9000000000000001,-1.0,-3.6,-0.8
1698674965604.0,16,0.0,0.0,0.0,-1.2000000000000002,9.3,2.0,-0.5,-4.5,-1.2000000000000002
1698674965621.0,16,0.0,0.0,0.0,-1.1,9.3,2.0,-0.2,-4.7,-1.4
1698674965637.0,16,0.0,0.0,0.0,-1.1,9.3,2.0,0.1,-4.9,-1.5000000000000002
1698674965654.0,16,0.0,-0.1,0.0,-1.1,9.200000000000001,2.0,0.1,-5.0,-1.5000000000000002
1698674965670.0,16,0.1,-0.1,0.0,-1.1,9.200000000000001,2.0,0.1,-5.0,-1.4
1698674965687.0,16,0.1,-0.1,0.0,-1.1,9.3,2.0,0.4,-4.7,-1.2000000000000002
1698674965704.0,16,0.1,0.0,0.0,-1.1,9.3,2.0,0.7,-4.300000000000001,-0.9
1698674965721.0,16,0.1,0.1,0.0,-1.1,9.4,2.0,1.0999999999999999,-3.7000000000000006,-0.6000000000000001
1698674965737.0,16,0.0,0.2,-0.1,-1.1,9.5,1.9000000000000001,-0.4,-2.3000000000000003,1.4
1698674965754.0,16,0.0,0.1,0.0,-1.1,9.4,1.9000000000000001,-1.0999999999999999,-3.1,1.4
1698674965770.0,16,0.0,0.0,0.0,-1.1,9.4,1.9000000000000001,-2.3000000000000003,-3.6,1.2000000000000002
1698674965788.0,16,0.0,0.0,-0.1,-1.1,9.3,1.9000000000000001,-3.1,-2.6,1.6
1698674965804.0,16,0.0,-0.1,-0.1,-1.1,9.3,1.9000000000000001,-3.1,-2.5,1.3
1698674965820.0,16,0.0,-0.2,0.0,-1.1,9.1,1.9000000000000001,-1.2000000000000002,-2.9,0.0
1698674965837.0,16,0.0,-0.1,-0.1,-1.1,9.200000000000001,1.9000000000000001,1.0,-3.6,-0.8
1698674965853.0,16,0.0,0.0,-0.1,-1.1,9.3,1.9000000000000001,1.9,-2.9,-0.9
1698674965870.0,16,0.0,-0.1,0.0,-1.1,9.200000000000001,2.0,3.1,-1.0999999999999999,-0.6000000000000001
1698674965887.0,16,0.0,0.0,0.1,-1.1,9.3,2.0,3.4,0.1,0.1
1698674965903.0,16,0.0,0.0,0.1,-1.1,9.3,2.0,3.1,-0.30000000000000004,0.2
1698674965920.0,16,0.0,0.0,0.0,-1.1,9.3,2.0,1.9,-1.3,0.5
1698674965937.0,16,-0.1,0.0,0.0,-1.2000000000000002,9.4,1.9000000000000001,1.4,-1.7,0.7
1698674965953.0,16,-0.1,0.1,0.0,-1.1,9.4,1.9000000000000001,1.2000000000000002,-2.9,0.5
1698674965970.0,16,0.0,0.0,0.0,-1.1,9.4,1.9000000000000001,1.4,-4.0,0.2
1698674965988.0,16,0.0,0.1,0.0,-1.1,9.4,1.9000000000000001,1.5000000000000002,-4.0,0.30000000000000004
1698674966003.0,16,0.0,0.0,-0.1,-1.1,9.3,1.9000000000000001,1.6,-5.0,0.0
1698674966020.0,16,0.0,0.0,-0.1,-1.1,9.3,1.8,0.9,-5.4,0.2
1698674966037.0,16,0.0,0.0,-0.1,-1.1,9.4,1.8,0.5,-5.6,0.30000000000000004
1698674966054.0,16,0.0,0.1,-0.1,-1.1,9.4,1.9000000000000001,0.0,-5.8,0.0
1698674966070.0,16,0.1,0.1,0.0,-1.0,9.4,1.9000000000000001,-0.4,-5.300000000000001,-0.7
1698674966087.0,16,0.2,0.0,-0.1,-0.9,9.3,1.9000000000000001,-1.0,-3.5,-0.9
1698674966104.0,16,0.2,0.0,-0.1,-0.9,9.4,1.9000000000000001,-1.4,-2.1,-0.8
1698674966120.0,16,0.1,0.0,0.0,-0.9,9.4,1.9000000000000001,-2.1,-0.7,0.0
1698674966136.0,16,0.1,0.0,0.0,-1.0,9.4,1.9000000000000001,-2.6,0.5,0.30000000000000004
1698674966153.0,16,0.0,0.0,0.0,-1.0,9.3,1.9000000000000001,-2.6,0.8,0.2
1698674966170.0,16,0.0,0.0,0.0,-1.0,9.4,1.9000000000000001,-2.7,2.1,0.4
1698674966187.0,16,0.0,0.0,-0.1,-1.1,9.3,1.9000000000000001,-3.0000000000000004,2.4000000000000004,0.5
1698674966205.0,16,0.0,0.0,0.0,-1.0,9.4,2.0,-3.0000000000000004,2.7,0.30000000000000004
1698674966220.0,16,0.0,0.0,0.0,-1.0,9.3,2.0,-2.4000000000000004,2.7,0.30000000000000004
1698674966237.0,16,0.0,0.0,0.0,-1.0,9.3,2.0,-2.4000000000000004,4.1000000000000005,0.5
1698674966253.0,16,0.0,0.0,0.0,-1.1,9.3,1.9000000000000001,-2.8,5.1,0.7
1698674966272.0,16,0.0,0.0,-0.1,-1.1,9.3,1.9000000000000001,-3.4,5.8,0.8
1698674966288.0,16,0.0,0.0,-0.1,-1.1,9.3,1.9000000000000001,-3.4,5.8,0.8
1698674966304.0,16,-0.1,-0.1,-0.1,-1.1,9.3,1.9000000000000001,-3.1,5.8,0.8
1698674966321.0,16,-0.1,0.0,-0.1,-1.1,9.3,1.9000000000000001,-2.8,5.500000000000001,0.8
1698674966337.0,16,-0.1,0.0,-0.1,-1.2000000000000002,9.3,1.9000000000000001,-2.0,5.4,0.8
1698674966354.0,16,-0.1,0.0,-0.1,-1.2000000000000002,9.3,1.9000000000000001,-1.6,5.1,0.9
1698674966370.0,16,-0.1,0.0,0.0,-1.2000000000000002,9.3,2.0,-1.4,4.1000000000000005,1.0
1698674966387.0,16,-0.1,0.1,0.0,-1.2000000000000002,9.4,2.0,-1.6,2.7,0.7
1698674966404.0,16,0.0,0.1,0.1,-1.1,9.4,2.1,-2.4000000000000004,1.6,0.30000000000000004
1698674966420.0,16,0.0,0.0,0.1,-1.1,9.3,2.1,-2.7,1.3,0.2
1698674966437.0,16,0.0,0.0,0.1,-1.1,9.3,2.1,-3.3000000000000003,1.0,0.0
1698674966453.0,16,0.0,0.0,0.1,-1.1,9.3,2.1,-3.4,0.6000000000000001,0.0
1698674966471.0,16,0.0,-0.1,0.1,-1.1,9.200000000000001,2.1,-3.3000000000000003,0.4,0.0
1698674966487.0,16,0.0,-0.1,0.1,-1.1,9.200000000000001,2.1,-2.7,0.30000000000000004,0.30000000000000004
1698674966504.0,16,0.0,0.0,0.1,-1.1,9.3,2.1,-2.3000000000000003,0.6000000000000001,0.6000000000000001
1698674966520.0,16,0.0,0.0,0.1,-1.1,9.3,2.1,-2.3000000000000003,0.4,0.8
1698674966537.0,16,0.0,0.1,0.0,-1.1,9.4,2.1,-2.5,-0.30000000000000004,0.5
1698674966554.0,16,0.0,0.1,0.0,-1.1,9.4,2.1,-2.4000000000000004,-0.7,0.2
1698674966570.0,16,0.0,0.0,0.0,-1.1,9.3,2.1,-3.5,-0.4,0.0
1698674966587.0,16,0.0,0.0,0.0,-1.1,9.200000000000001,2.2,-3.8,-0.4,-0.2
1698674966603.0,16,0.0,-0.1,0.1,-1.1,9.200000000000001,2.2,-3.1,-0.30000000000000004,-0.2
1698674966621.0,16,0.0,-0.1,0.0,-1.1,9.200000000000001,2.2,-2.6,0.0,-0.1
1698674966637.0,16,0.0,-0.1,0.1,-1.1,9.200000000000001,2.2,-1.8,0.30000000000000004,0.5
1698674966653.0,16,0.0,-0.1,0.1,-1.1,9.200000000000001,2.2,-1.5000000000000002,0.4,0.5
1698674966670.0,16,0.0,-0.1,0.0,-1.1,9.200000000000001,2.2,-1.4,0.2,0.30000000000000004
1698674966687.0,16,0.0,-0.1,0.0,-1.1,9.200000000000001,2.2,-1.5000000000000002,-0.5,0.2
1698674966703.0,16,0.0,0.0,0.0,-1.1,9.3,2.1,-1.4,-0.6000000000000001,0.2
1698674966720.0,16,0.0,0.1,0.0,-1.1,9.3,2.2,-1.2000000000000002,-0.8,0.1
1698674966737.0,16,0.0,0.0,0.0,-1.1,9.3,2.2,-0.4,-0.7,0.0
1698674966754.0,16,0.0,0.0,0.0,-1.1,9.200000000000001,2.2,-0.30000000000000004,-0.5,0.0
1698674966770.0,16,0.0,0.0,0.0,-1.1,9.3,2.2,-0.1,-0.30000000000000004,0.2
1698674966787.0,16,0.0,0.0,0.1,-1.1,9.3,2.2,-0.5,-0.30000000000000004,0.30000000000000004
1698674966803.0,16,0.0,0.0,0.1,-1.1,9.3,2.2,-0.7,-0.5,0.2
1698674966820.0,16,0.0,0.0,0.1,-1.0,9.3,2.2,-0.7,-0.6000000000000001,0.2
1698674966837.0,16,0.0,0.0,0.1,-1.1,9.200000000000001,2.2,-0.9,-0.30000000000000004,0.2
1698674966853.0,16,0.0,0.0,0.0,-1.1,9.200000000000001,2.2,-1.0,0.0,0.4
1698674966870.0,16,0.0,0.0,0.0,-1.1,9.3,2.2,-1.0,0.1,0.5
1698674966887.0,16,0.0,0.0,0.0,-1.1,9.3,2.2,-0.7,0.0,0.30000000000000004
1698674966904.0,16,0.0,0.0,0.0,-1.1,9.3,2.2,-0.7,-0.1,0.4
1698674966921.0,16,0.0,0.0,0.0,-1.1,9.3,2.2,-0.9,-0.2,0.30000000000000004
1698674966937.0,16,0.0,0.0,0.0,-1.1,9.200000000000001,2.2,-1.2000000000000002,-0.30000000000000004,0.30000000000000004
1698674966953.0,16,0.0,0.0,0.0,-1.1,9.200000000000001,2.2,-1.3,-0.4,0.30000000000000004
1698674966970.0,16,0.0,0.0,0.0,-1.1,9.3,2.2,-1.0999999999999999,-0.4,0.2
1698674966987.0,16,0.0,0.0,0.0,-1.1,9.200000000000001,2.2,-0.4,-0.7,0.0
1698674967004.0,16,0.0,0.0,0.0,-1.1,9.3,2.2,-0.1,-0.7,0.2
1698674967021.0,16,0.0,0.0,0.0,-1.1,9.200000000000001,2.2,-0.1,-0.9,0.2
1698674967037.0,16,0.0,0.0,0.0,-1.1,9.200000000000001,2.2,-0.4,-0.9,0.2
1698674967054.0,16,0.0,0.0,0.0,-1.1,9.200000000000001,2.2,-0.6000000000000001,-1.4,0.0
1698674967070.0,16,0.0,0.0,0.0,-1.1,9.3,2.2,-0.5,-1.4,0.0
1698674967086.0,16,0.0,0.0,0.0,-1.1,9.3,2.2,-0.4,-1.4,0.0
1698674967103.0,16,0.0,0.0,0.0,-1.1,9.3,2.2,-0.6000000000000001,-1.0999999999999999,-0.1
1698674967120.0,16,0.0,0.0,0.0,-1.1,9.200000000000001,2.2,-0.7,-1.0999999999999999,-0.1
1698674967137.0,16,0.0,0.0,0.0,-1.1,9.3,2.2,-0.7,-1.5000000000000002,-0.1
1698674967153.0,16,0.0,0.0,0.0,-1.1,9.3,2.2,-0.7,-1.5000000000000002,0.0
1698674967173.0,16,0.0,0.0,0.0,-1.1,9.3,2.2,-0.7,-1.5000000000000002,0.2
1698674967189.0,16,0.0,0.0,-0.1,-1.1,9.3,2.2,-1.0,-1.8,0.2
1698674967203.0,16,0.0,0.0,-0.1,-1.0,9.3,2.2,-1.6,-1.7,0.0
1698674967220.0,16,0.0,0.1,-0.1,-1.1,9.3,2.1,-2.3000000000000003,-1.5000000000000002,-0.30000000000000004
1698674967237.0,16,0.0,0.1,-0.1,-1.1,9.3,2.1,-2.5,-1.4,-0.6000000000000001
1698674967254.0,16,-0.1,0.1,-0.1,-1.2000000000000002,9.3,2.1,-2.6,-1.4,-0.6000000000000001
1698674967270.0,16,-0.2,0.1,-0.1,-1.2000000000000002,9.3,2.1,-2.7,-1.6,-1.2000000000000002
1698674967288.0,16,-0.2,0.1,-0.1,-1.3,9.4,2.1,-3.7000000000000006,-1.8,-1.0999999999999999
1698674967303.0,16,-0.2,0.1,-0.2,-1.3,9.4,2.1,-5.4,-2.3000000000000003,-0.9
1698674967320.0,16,-0.2,0.2,-0.1,-1.3,9.5,2.1,-7.1000000000000005,-4.1000000000000005,-2.0
1698674967337.0,16,-0.2,0.2,-0.1,-1.3,9.4,2.2,-7.300000000000001,-4.7,-2.4000000000000004
1698674967354.0,16,-0.1,0.1,-0.1,-1.3,9.4,2.2,-7.1000000000000005,-4.2,-2.1999999999999997
1698674967370.0,16,-0.2,0.0,-0.1,-1.3,9.3,2.2,-7.0,-3.1,-2.0
1698674967387.0,16,-0.2,0.0,-0.1,-1.4000000000000001,9.3,2.2,-6.8,-1.0999999999999999,-1.4
1698674967403.0,16,-0.30000000000000004,0.0,-0.2,-1.4000000000000001,9.3,2.2,-6.3,0.5,-1.0999999999999999
1698674967420.0,16,-0.2,0.1,-0.2,-1.4000000000000001,9.4,2.1,-6.000000000000001,0.6000000000000001,-0.6000000000000001
1698674967437.0,16,-0.2,0.1,-0.2,-1.4000000000000001,9.4,2.1,-5.9,-0.1,0.0
1698674967453.0,16,-0.1,0.1,-0.2,-1.3,9.3,2.1,-6.3,-1.3,1.4
1698674967470.0,16,-0.1,-0.1,-0.30000000000000004,-1.3,9.200000000000001,2.1,-7.0,-2.4000000000000004,2.1999999999999997
1698674967487.0,16,-0.1,-0.30000000000000004,-0.4,-1.3,9.0,2.0,-9.3,-3.7000000000000006,3.9
1698674967503.0,16,0.0,-0.2,-0.4,-1.1,9.0,2.0,-10.4,-3.5,5.4
1698674967520.0,16,0.2,0.1,-0.4,-1.0,9.3,2.0,-9.8,-2.5,7.699999999999999
1698674967537.0,16,0.30000000000000004,0.4,-0.30000000000000004,-0.9,9.700000000000001,2.2,-8.200000000000001,-2.3000000000000003,11.5
1698674967554.0,16,0.2,0.7000000000000001,-0.2,-0.9,9.9,2.3000000000000003,-7.400000000000001,-2.8,13.0
1698674967570.0,16,0.30000000000000004,0.6000000000000001,0.0,-0.8,9.8,2.5,-7.400000000000001,-7.2,15.5
1698674967589.0,16,0.2,0.30000000000000004,0.1,-0.8,9.5,2.6,-7.8,-12.4,15.2
1698674967604.0,16,-0.2,-0.5,0.0,-1.2000000000000002,8.700000000000001,2.5,-11.5,-27.900000000000002,10.5
1698674967620.0,16,-0.30000000000000004,-0.9,-0.1,-1.2000000000000002,8.3,2.4000000000000004,-14.500000000000002,-36.4,7.1000000000000005
1698674967636.0,16,-1.0,-1.2000000000000002,-0.5,-1.9000000000000001,8.0,2.2,-20.0,-33.6,-2.9
1698674967653.0,16,-0.8,0.30000000000000004,-1.3,-1.7000000000000002,9.4,1.4000000000000001,-25.6,-22.1,-15.299999999999999
1698674967671.0,16,0.0,2.1,-1.3,-1.3,10.4,1.4000000000000001,-27.7,-20.6,-15.399999999999999
1698674967686.0,16,1.0,2.2,-1.3,0.1,11.3,1.6,-22.2,-22.5,-2.6
1698674967704.0,16,1.4000000000000001,1.3,-1.3,0.5,10.4,1.6,-18.5,-25.3,1.9
1698674967720.0,16,1.5,0.5,-1.3,0.7000000000000001,9.600000000000001,1.7000000000000002,-16.400000000000002,-25.700000000000003,5.4
1698674967736.0,16,1.2000000000000002,-0.30000000000000004,-1.0,0.4,8.8,2.0,-15.5,-21.8,7.500000000000001
1698674967753.0,16,0.9,-0.8,-1.1,0.1,8.3,1.9000000000000001,-15.6,-18.2,8.3
1698674967770.0,16,0.5,-0.9,-1.1,-0.30000000000000004,8.200000000000001,1.9000000000000001,-17.3,-15.8,8.799999999999999
1698674967786.0,16,0.30000000000000004,-0.9,-1.3,-0.4,8.1,1.8,-21.400000000000002,-10.1,9.1
1698674967804.0,16,0.0,-0.8,-1.6,-0.7000000000000001,8.200000000000001,1.5,-24.8,-9.9,5.8
1698674967820.0,16,0.0,-0.6000000000000001,-2.0,-0.7000000000000001,8.4,1.2000000000000002,-25.8,-12.000000000000002,1.8
1698674967837.0,16,0.2,-0.4,-2.5,-0.4,8.5,0.8,-26.400000000000002,-8.3,-0.7
1698674967854.0,16,0.4,-0.4,-2.7,-0.4,8.5,0.8,-26.400000000000002,-8.3,-0.7
1698674967870.0,16,0.6000000000000001,-0.2,-2.8000000000000003,0.0,8.700000000000001,0.5,-27.6,1.0999999999999999,-4.300000000000001
1698674967888.0,16,0.8,0.1,-2.5,0.1,9.0,1.0,-22.3,5.6,-6.6000000000000005
1698674967904.0,16,0.8,0.2,-2.3000000000000003,0.1,9.1,1.1,-16.1,6.3,-7.1000000000000005
1698674967921.0,16,0.9,0.2,-2.3000000000000003,0.2,9.1,1.2000000000000002,-8.1,6.2,-7.0
1698674967937.0,16,0.9,0.1,-2.3000000000000003,0.2,9.0,1.1,6.8,11.6,-4.2
1698674967954.0,16,0.9,-0.2,-2.2,0.2,8.700000000000001,1.1,14.500000000000002,24.9,1.7
1698674967970.0,16,0.5,0.30000000000000004,-1.8,-0.2,9.200000000000001,1.5,19.8,24.8,10.1
1698674967986.0,16,-0.2,1.1,-1.5,-0.9,10.0,1.7000000000000002,20.900000000000002,20.900000000000002,17.1
1698674968004.0,16,-0.4,1.3,-1.5,-1.0,10.200000000000001,1.6,18.8,19.0,17.3
1698674968021.0,16,-0.30000000000000004,1.4000000000000001,-1.6,-0.9,10.3,1.5,14.100000000000001,18.400000000000002,15.9
1698674968036.0,16,1.0,1.7000000000000002,-1.5,0.4,10.700000000000001,1.6,-8.9,24.200000000000003,16.3
1698674968053.0,16,1.4000000000000001,2.2,-1.6,0.8,11.200000000000001,1.5,-15.8,29.1,18.1
1698674968070.0,16,1.6,3.5,-1.6,1.0,12.4,1.5,-27.7,38.300000000000004,20.4
1698674968087.0,16,0.30000000000000004,4.4,-0.8,-0.2,13.4,2.4000000000000004,-26.400000000000002,31.4,25.3
1698674968105.0,16,-0.4,4.5,-0.8,-0.9,13.5,2.5,-19.8,18.3,28.400000000000002
1698674968120.0,16,-1.7000000000000002,3.1,-0.7000000000000001,-2.1,12.100000000000001,2.6,-9.5,-5.4,20.1
1698674968136.0,16,-2.2,1.4000000000000001,-0.5,-2.6,10.4,2.8000000000000003,-9.9,-12.6,5.2
1698674968154.0,16,-2.1,0.6000000000000001,0.1,-2.5,9.700000000000001,3.4000000000000004,-10.9,-18.400000000000002,0.4
1698674968170.0,16,-0.9,-0.7000000000000001,2.1,-1.3,8.3,5.4,0.4,-15.7,-5.500000000000001
1698674968187.0,16,0.4,0.2,2.5,0.0,9.200000000000001,5.800000000000001,20.6,-22.7,-5.2
1698674968203.0,16,0.8,0.30000000000000004,2.4000000000000004,0.5,9.4,5.7,28.200000000000003,-31.099999999999998,-5.7
1698674968220.0,16,0.7000000000000001,-0.30000000000000004,2.4000000000000004,0.30000000000000004,8.8,5.6000000000000005,23.6,-19.6,-10.2
1698674968237.0,16,0.7000000000000001,-0.8,2.6,0.30000000000000004,8.3,5.9,16.8,-9.200000000000001,-15.000000000000002
1698674968254.0,16,1.1,-0.7000000000000001,2.6,0.7000000000000001,8.4,5.800000000000001,6.000000000000001,-10.5,-16.1
1698674968270.0,16,1.2000000000000002,0.2,2.4000000000000004,0.8,9.3,5.7,-4.2,-4.3999999999999995,-10.8
1698674968287.0,16,0.7000000000000001,1.2000000000000002,2.1,0.2,10.3,5.4,-5.9,0.0,-7.500000000000001
1698674968303.0,16,0.4,1.2000000000000002,2.1,-0.1,10.200000000000001,5.4,-4.300000000000001,-2.6,-7.8
1698674968320.0,16,-0.1,0.30000000000000004,1.4000000000000001,-0.6000000000000001,9.4,4.7,0.2,3.0000000000000004,-11.1
1698674968337.0,16,-0.2,-0.9,0.30000000000000004,-0.7000000000000001,8.200000000000001,3.6,-0.1,13.6,-11.1
1698674968354.0,16,-0.2,-1.8,-0.4,-0.8,7.2,2.9000000000000004,-3.0000000000000004,16.8,-8.4
1698674968370.0,16,-0.4,-2.1,-0.7000000000000001,-1.0,6.9,2.6,-4.1000000000000005,17.400000000000002,-7.2
1698674968387.0,16,-0.7000000000000001,-2.2,-1.0,-1.4000000000000001,6.800000000000001,2.3000000000000003,-5.300000000000001,18.7,-7.1000000000000005
1698674968403.0,16,-0.9,-2.1,-1.1,-1.6,6.9,2.2,-5.1,16.8,-9.4
1698674968420.0,16,-1.1,-2.3000000000000003,-1.2000000000000002,-1.8,6.7,2.1,-3.4,8.3,-17.8
1698674968437.0,16,-1.0,-2.8000000000000003,-1.0,-1.9000000000000001,6.2,2.3000000000000003,2.3000000000000003,4.1000000000000005,-26.200000000000003
1698674968453.0,16,-0.8,-3.1,-1.1,-1.8,5.800000000000001,2.2,10.4,11.4,-30.000000000000004
1698674968471.0,16,-0.6000000000000001,-3.1,-1.2000000000000002,-1.6,5.800000000000001,2.0,12.8,15.7,-29.600000000000005
1698674968487.0,16,-0.1,-2.9000000000000004,-1.5,-1.2000000000000002,6.0,1.7000000000000002,11.000000000000002,19.6,-24.6
1698674968503.0,16,0.30000000000000004,-2.6,-1.7000000000000002,-0.6000000000000001,6.300000000000001,1.3,2.8,18.1,-17.0
1698674968520.0,16,0.8,-2.5,-2.0,-0.4,6.300000000000001,1.1,-1.9,17.0,-12.200000000000001
1698674968537.0,16,0.9,-2.7,-2.1,-0.30000000000000004,6.2,1.1,-5.8,17.400000000000002,-7.300000000000001
1698674968554.0,16,0.7000000000000001,-2.6,-2.3000000000000003,-0.6000000000000001,6.2,0.9,-7.400000000000001,20.3,1.8
1698674968571.0,16,0.1,-1.8,-2.5,-1.2000000000000002,7.0,0.6000000000000001,-3.2,18.1,9.4
1698674968587.0,16,-0.6000000000000001,0.1,-2.7,-1.9000000000000001,8.9,0.4,5.7,6.5,11.8
1698674968604.0,16,-1.0,1.3,-2.5,-2.2,10.100000000000001,0.5,10.4,0.30000000000000004,12.200000000000001
1698674968621.0,16,-1.2000000000000002,4.3,-0.4,-2.4000000000000004,13.100000000000001,2.6,29.200000000000003,2.6,9.700000000000001
1698674968637.0,16,-0.1,6.0,0.6000000000000001,-1.4000000000000001,15.0,3.4000000000000004,67.60000000000001,25.2,-0.2
1698674968653.0,16,-0.1,5.2,-0.1,-1.3,14.3,2.5,83.89999999999999,41.4,-5.7
1698674968670.0,16,-0.7000000000000001,5.2,-0.7000000000000001,-2.0,14.4,1.7000000000000002,72.9,36.2,-0.7
1698674968686.0,16,-1.8,5.800000000000001,-1.9000000000000001,-3.1,15.100000000000001,0.4,9.3,11.2,12.200000000000001
1698674968703.0,16,-2.2,5.2,-0.5,-3.4000000000000004,14.5,1.9000000000000001,-50.2,-11.700000000000001,15.8
1698674968720.0,16,-2.0,5.0,-0.6000000000000001,-3.2,14.3,2.0,-59.300000000000004,-20.8,15.8
1698674968737.0,16,-1.4000000000000001,3.6,-1.4000000000000001,-2.5,12.8,1.3,-65.5,-7.9,12.5
1698674968753.0,16,-1.2000000000000002,-0.8,0.9,-2.3000000000000003,8.3,3.8000000000000003,-47.5,-1.2000000000000002,7.400000000000001
1698674968770.0,16,-0.7000000000000001,-2.7,2.5,-1.8,6.5,5.4,-15.399999999999999,-10.4,4.0
1698674968787.0,16,1.1,-4.2,4.5,0.0,5.0,7.300000000000001,72.8,-10.9,-8.5
1698674968803.0,16,2.8000000000000003,-2.2,5.300000000000001,1.6,7.1000000000000005,7.7,135.0,22.6,-24.6
1698674968821.0,16,3.2,-0.8,4.800000000000001,1.9000000000000001,8.5,7.1000000000000005,128.5,20.1,-28.0
1698674968837.0,16,1.5,0.8,1.3,0.2,10.100000000000001,3.5,12.000000000000002,2.9,-14.900000000000002
1698674968853.0,16,0.7000000000000001,0.0,1.5,-1.0,8.9,5.300000000000001,-87.5,71.9,0.30000000000000004
1698674968870.0,16,-1.0,0.0,2.8000000000000003,-2.4000000000000004,9.200000000000001,5.300000000000001,-88.9,76.5,1.2000000000000002
1698674968887.0,16,-1.8,1.0,-0.5,-3.2,10.200000000000001,2.2,-57.9,1.4,14.200000000000001
1698674968904.0,16,-1.4000000000000001,0.4,-0.9,-2.8000000000000003,9.600000000000001,1.9000000000000001,-47.400000000000006,-19.400000000000002,15.399999999999999
1698674968922.0,16,-0.8,-0.8,-0.1,-2.2,8.4,2.7,-26.200000000000003,8.200000000000001,6.5
1698674968936.0,16,-0.1,-1.8,-0.5,-1.4000000000000001,7.300000000000001,2.4000000000000004,11.4,4.800000000000001,-0.30000000000000004
1698674968953.0,16,0.4,-2.2,-0.4,-0.7000000000000001,6.5,2.4000000000000004,27.5,7.500000000000001,-2.0
1698674968970.0,16,1.0,-3.0,-0.4,-0.4,6.1000000000000005,2.3000000000000003,27.2,10.700000000000001,-3.2
1698674968987.0,16,1.5,-3.6,-0.8,0.1,5.5,1.8,13.4,4.9,-4.300000000000001
1698674969003.0,16,1.6,-3.6,-0.9,0.2,5.5,1.8,0.6000000000000001,0.4,-2.0
1698674969020.0,16,1.8,-3.5,-0.9,0.4,5.6000000000000005,1.8,-25.3,1.6,6.3
1698674969037.0,16,1.5,-2.9000000000000004,-0.7000000000000001,0.2,6.1000000000000005,2.1,-36.6,5.7,8.600000000000001
1698674969053.0,16,0.9,-2.8000000000000003,-0.8,-0.4,6.1000000000000005,2.1,-27.400000000000002,10.1,1.7
1698674969071.0,16,0.5,-3.3000000000000003,-1.8,-0.8,5.6000000000000005,1.1,-12.5,10.5,-8.600000000000001
1698674969087.0,16,0.6000000000000001,-3.4000000000000004,-2.5,-0.7000000000000001,5.5,0.4,-8.5,9.1,-11.1
1698674969103.0,16,1.3,-2.9000000000000004,-2.6,-0.1,6.0,0.30000000000000004,-12.4,13.700000000000001,-8.0
1698674969120.0,16,0.7000000000000001,0.0,-0.9,-0.7000000000000001,8.8,2.0,-9.0,36.4,4.1000000000000005
1698674969138.0,16,0.0,2.6,-0.30000000000000004,-1.4000000000000001,11.4,2.7,2.8,44.5,11.000000000000002
1698674969154.0,16,-1.4000000000000001,7.0,-0.1,-2.7,16.0,2.7,39.8,33.900000000000006,22.000000000000004
1698674969170.0,16,-1.4000000000000001,7.1000000000000005,-0.5,-2.7,14.9,1.7000000000000002,62.6,13.200000000000001,15.5
1698674969188.0,16,-0.8,5.300000000000001,-1.3,-2.1,14.4,1.3,58.5,13.100000000000001,8.600000000000001
1698674969204.0,16,-0.1,6.1000000000000005,-1.5,-1.4000000000000001,15.200000000000001,0.9,45.3,13.8,5.2
1698674969220.0,16,1.1,8.3,-0.5,-0.2,17.5,1.9000000000000001,8.5,6.6000000000000005,1.0
1698674969237.0,16,0.30000000000000004,7.4,0.9,-1.1,16.7,3.3000000000000003,-16.8,-15.2,-10.5
1698674969253.0,16,-0.5,1.7000000000000002,2.5,-1.9000000000000001,11.0,5.0,-22.3,-27.5,-20.0
1698674969270.0,16,-0.4,-1.5,3.2,-1.6,5.4,6.300000000000001,-13.700000000000001,-13.9,-20.5
1698674969288.0,16,0.2,-5.300000000000001,4.0,-1.3,4.0,6.5,26.9,5.0,-1.0
1698674969303.0,16,1.1,-4.9,2.1,-0.30000000000000004,4.3,4.5,59.1,-6.5,31.099999999999998
1698674969320.0,16,0.9,-2.9000000000000004,2.3000000000000003,-0.30000000000000004,6.4,4.5,35.1,-23.700000000000003,36.800000000000004
1698674969337.0,16,0.30000000000000004,-1.7000000000000002,2.9000000000000004,-0.9,7.6000000000000005,5.2,15.399999999999999,-21.400000000000002,36.5
1698674969353.0,16,-0.8,2.3000000000000003,4.1000000000000005,-1.8,11.600000000000001,6.5,-14.500000000000002,-11.5,41.2
1698674969370.0,16,-0.8,4.2,1.7000000000000002,-1.7000000000000002,13.5,4.1000000000000005,-24.000000000000004,-18.8,33.900000000000006
1698674969387.0,16,-0.5,2.6,0.8,-1.3,11.9,3.2,-28.6,-16.8,19.8
1698674969403.0,16,-0.4,-1.7000000000000002,-0.30000000000000004,-1.3,7.5,2.3000000000000003,-30.100000000000005,-6.2,-17.599999999999998
1698674969420.0,16,-0.1,-3.4000000000000004,-0.9,-1.0,5.9,1.8,-22.6,-5.6,-22.1
1698674969437.0,16,-0.1,-4.1000000000000005,-1.3,-1.1,5.1000000000000005,1.4000000000000001,-10.0,-12.3,-10.9
1698674969453.0,16,-0.30000000000000004,-4.0,-1.4000000000000001,-1.3,5.1000000000000005,1.3,-4.0,-17.5,-6.6000000000000005
1698674969481.0,16,-0.9,-3.8000000000000003,-1.0,-1.8,5.300000000000001,1.7000000000000002,13.4,-32.7,-0.6000000000000001
1698674969486.0,16,-0.9,-3.8000000000000003,-1.0,-1.8,5.300000000000001,1.7000000000000002,13.4,-32.7,-0.6000000000000001
1698674969503.0,16,-1.1,-3.6,-0.8,-2.1,5.5,1.7000000000000002,22.4,-27.400000000000002,-3.2
1698674969520.0,16,-1.0,-3.4000000000000004,-0.9,-1.9000000000000001,6.0,1.4000000000000001,24.6,-22.7,-7.2
1698674969536.0,16,-0.7000000000000001,-2.5,-1.3,-1.8,6.6000000000000005,1.1,16.400000000000002,-11.2,-31.5
1698674969554.0,16,-0.4,-2.1,-1.4000000000000001,-1.5,7.0,1.0,9.8,-14.3,-37.2
1698674969570.0,16,0.2,-1.4000000000000001,-1.8,-1.0,7.7,0.6000000000000001,-6.7,-33.7,-33.300000000000004
1698674969588.0,16,0.4,-1.1,-1.7000000000000002,-0.8,7.9,0.8,-13.9,-43.400000000000006,-28.500000000000004
1698674969603.0,16,0.2,-0.30000000000000004,-1.2000000000000002,-1.0,8.700000000000001,1.3,-16.5,-48.7,-19.9
1698674969620.0,16,-0.30000000000000004,1.8,-1.4000000000000001,-1.5,10.8,1.2000000000000002,-8.4,-31.8,-7.8
1698674969636.0,16,0.2,4.9,-1.7000000000000002,-1.0,14.0,0.8,-2.9,-9.4,0.30000000000000004
1698674969653.0,16,1.6,6.800000000000001,-1.5,0.4,15.8,1.1,-2.9,-13.700000000000001,-2.6
1698674969670.0,16,2.8000000000000003,8.4,-0.4,1.5,17.5,2.2,6.8,-34.0,-21.1
1698674969686.0,16,2.0,7.6000000000000005,-1.0,0.7000000000000001,16.8,1.6,11.000000000000002,-33.7,-21.6
1698674969703.0,16,0.30000000000000004,5.300000000000001,-2.9000000000000004,-0.9,14.600000000000001,-0.30000000000000004,-6.3,-6.2,10.1
1698674969720.0,16,-1.5,3.0,-2.5,-1.3,13.600000000000001,-0.7000000000000001,-23.400000000000002,6.3,23.5
1698674969737.0,16,-2.5,1.3,0.1,-3.6,10.5,2.8000000000000003,-43.0,5.1,45.3
1698674969753.0,16,-2.3000000000000003,-1.6,4.4,-3.2,7.6000000000000005,7.2,10.700000000000001,-13.700000000000001,59.300000000000004
1698674969771.0,16,-1.3,-4.1000000000000005,3.9000000000000004,-2.0,5.2,6.5,86.2,-36.3,40.0
1698674969787.0,16,-0.4,-5.0,5.7,-1.2000000000000002,4.3,8.1,106.10000000000001,-36.800000000000004,17.9
1698674969803.0,16,2.3000000000000003,-1.4000000000000001,10.600000000000001,1.5,7.9,12.700000000000001,96.3,23.5,-49.5
1698674969820.0,16,1.7000000000000002,5.300000000000001,2.1,0.6000000000000001,14.700000000000001,4.1000000000000005,14.600000000000001,-4.300000000000001,-88.00000000000001
1698674969837.0,16,1.8,4.9,0.7000000000000001,0.5,14.3,2.8000000000000003,-43.6,11.8,-95.5
1698674969853.0,16,-1.8,2.4000000000000004,2.0,-3.4000000000000004,11.700000000000001,4.4,-100.0,80.4,-83.0
1698674969872.0,16,-4.0,-1.5,-0.5,-5.7,7.7,2.1,-65.3,-1.0999999999999999,2.3000000000000003
1698674969887.0,16,-1.1,-1.0,-2.0,-2.6,8.200000000000001,0.8,-47.300000000000004,-64.50000000000001,58.1
1698674969904.0,16,-0.6000000000000001,-0.5,-1.1,-2.0,8.6,1.7000000000000002,-42.2,-59.1,58.00000000000001
1698674969920.0,16,1.1,-0.4,-0.30000000000000004,-0.1,8.700000000000001,2.7,-16.3,-12.6,26.400000000000002
1698674969936.0,16,0.7000000000000001,-2.7,-0.9,-0.5,6.5,2.0,16.900000000000002,4.5,-16.6
1698674969953.0,16,1.4000000000000001,-3.4000000000000004,-1.0,0.1,5.800000000000001,1.8,27.1,5.4,-23.400000000000002
1698674969970.0,16,2.3000000000000003,-4.6000000000000005,-1.0,1.0,4.5,1.7000000000000002,33.2,14.100000000000001,-29.600000000000005
1698674969986.0,16,2.9000000000000004,-5.5,-1.0,1.4000000000000001,3.6,1.7000000000000002,25.400000000000002,19.0,-25.5
1698674970003.0,16,3.0,-5.7,-0.8,1.5,3.3000000000000003,1.8,16.6,16.700000000000003,-19.200000000000003
1698674970020.0,16,3.1,-5.1000000000000005,-0.30000000000000004,1.6,3.9000000000000004,2.4000000000000004,-6.5,11.9,0.1
1698674970036.0,16,2.6,-3.5,-0.30000000000000004,1.2000000000000002,5.5,2.4000000000000004,-21.700000000000003,25.6,18.400000000000002
1698674970053.0,16,2.3000000000000003,-2.9000000000000004,-0.7000000000000001,0.9,6.0,2.0,-23.5,36.7,20.3
1698674970070.0,16,1.6,-2.3000000000000003,-1.9000000000000001,0.30000000000000004,6.6000000000000005,0.8,-24.200000000000003,49.2,13.5
1698674970086.0,16,1.5,-1.9000000000000001,-2.6,0.1,7.0,0.1,-26.6,56.0,11.9
1698674970103.0,16,0.8,-0.5,-2.2,-0.5,8.3,0.6000000000000001,-36.800000000000004,78.00000000000001,17.8
1698674970120.0,16,-0.9,3.0,-1.2000000000000002,-2.3000000000000003,11.8,1.6,-31.6,98.6,32.9
1698674970137.0,16,-2.3000000000000003,7.800000000000001,-1.6,-3.6,16.8,1.2000000000000002,-5.1,45.4,48.50000000000001
1698674970153.0,16,-3.4000000000000004,8.200000000000001,-1.1,-4.7,17.3,1.7000000000000002,28.700000000000003,-16.900000000000002,49.2
1698674970170.0,16,-3.4000000000000004,7.5,-1.5,-4.6000000000000005,16.6,1.2000000000000002,39.1,-20.6,46.7
1698674970187.0,16,-3.3000000000000003,6.4,-1.5,-4.4,15.5,1.1,41.300000000000004,-11.5,37.800000000000004
1698674970203.0,16,-1.4000000000000001,5.1000000000000005,0.30000000000000004,-2.4000000000000004,14.4,2.8000000000000003,34.1,6.3,3.8
1698674970220.0,16,-0.6000000000000001,2.2,4.5,-1.7000000000000002,11.5,6.9,48.300000000000004,-32.800000000000004,-23.400000000000002
1698674970236.0,16,-0.30000000000000004,-1.5,6.4,-1.4000000000000001,7.800000000000001,8.700000000000001,62.300000000000004,-60.1,-4.9
1698674970253.0,16,-0.1,-2.7,5.800000000000001,-1.2000000000000002,6.7,8.0,58.60000000000001,-37.7,7.9
1698674970270.0,16,1.4000000000000001,-3.0,3.0,0.4,6.4,5.1000000000000005,21.700000000000003,-12.000000000000002,29.200000000000003
1698674970286.0,16,1.8,-1.6,2.4000000000000004,0.9,7.7,4.5,-3.8,-3.5,31.0
1698674970303.0,16,1.5,1.1,3.3000000000000003,0.7000000000000001,10.5,5.6000000000000005,-26.1,25.3,30.000000000000004
1698674970320.0,16,1.2000000000000002,4.3,2.6,0.5,13.700000000000001,5.0,-13.100000000000001,5.4,37.800000000000004
1698674970336.0,16,-0.5,2.0,0.6000000000000001,-1.1,11.4,3.0,-10.9,-28.3,33.6
1698674970353.0,16,-1.5,-0.2,0.1,-2.0,9.200000000000001,2.5,-19.700000000000003,-16.5,20.6
1698674970370.0,16,-1.5,-1.1,0.0,-1.9000000000000001,8.3,2.5,-20.1,-15.2,12.700000000000001
1698674970386.0,16,-1.1,-2.9000000000000004,-0.30000000000000004,-1.5,6.4,2.3000000000000003,-14.800000000000002,-15.8,-5.0
1698674970403.0,16,-1.1,-4.3,-0.6000000000000001,-1.7000000000000002,5.0,2.0,-7.300000000000001,-14.800000000000002,-18.2
1698674970421.0,16,-1.1,-5.300000000000001,-0.5,-1.7000000000000002,4.0,2.1,1.2000000000000002,-14.900000000000002,-23.0
1698674970437.0,16,-1.0,-5.5,-0.6000000000000001,-1.6,3.7,2.0,6.2,-13.6,-24.400000000000002
1698674970453.0,16,-0.9,-5.4,-1.2000000000000002,-1.6,3.7,1.7000000000000002,12.200000000000001,-9.4,-26.0
1698674970469.0,16,-0.7000000000000001,-5.2,-1.3,-1.5,4.0,1.2000000000000002,11.4,-7.500000000000001,-26.200000000000003
1698674970486.0,16,-0.6000000000000001,-4.3,-1.4000000000000001,-1.4000000000000001,4.800000000000001,1.1,6.2,1.3,-26.700000000000003
1698674970503.0,16,-0.2,-3.8000000000000003,-1.5,-0.6000000000000001,5.800000000000001,0.6000000000000001,-3.8,6.6000000000000005,-25.5
1698674970520.0,16,0.5,-3.0,-2.1,-0.4,6.1000000000000005,0.4,-10.700000000000001,0.2,-21.400000000000002
1698674970536.0,16,0.30000000000000004,-2.2,-2.0,-0.6000000000000001,6.9,0.5,-22.000000000000004,-18.400000000000002,-9.4
1698674970553.0,16,-0.1,-1.5,-2.0,-1.0,7.5,0.6000000000000001,-23.8,-25.0,-4.6000000000000005
1698674970571.0,16,-1.2000000000000002,0.4,-1.9000000000000001,-2.1,9.4,0.7000000000000001,-19.6,-23.8,1.9
1698674970586.0,16,-1.5,3.2,-2.2,-2.5,12.100000000000001,0.4,-13.8,-13.3,4.9
1698674970603.0,16,-0.8,7.4,-1.1,-1.7000000000000002,16.400000000000002,1.5,-1.9,-13.0,-1.7
1698674970620.0,16,0.1,9.5,-0.7000000000000001,-0.9,18.6,2.0,8.700000000000001,-16.700000000000003,-8.4
1698674970636.0,16,1.6,9.200000000000001,-1.0,0.7000000000000001,18.400000000000002,1.6,26.8,-12.3,-23.900000000000002
1698674970653.0,16,0.6000000000000001,5.5,-2.3000000000000003,-0.4,14.700000000000001,0.2,6.7,15.2,-4.9
1698674970670.0,16,-0.4,4.5,-0.9,-1.5,13.8,1.6,-10.3,33.5,9.4
1698674970686.0,16,-2.2,3.1,3.2,-3.2,12.4,5.7,-2.0,45.4,25.6
1698674970703.0,16,-1.1,0.8,5.5,-2.1,10.200000000000001,7.9,57.9,-12.3,14.900000000000002
1698674970720.0,16,-0.1,-0.4,6.7,-1.0,9.0,9.0,81.8,-32.2,-3.3000000000000003
1698674970736.0,16,0.5,-1.7000000000000002,5.9,-0.5,7.7,8.0,79.5,-8.9,-55.900000000000006
1698674970753.0,16,-0.1,-1.4000000000000001,3.1,-1.8,7.6000000000000005,3.2,2.3000000000000003,25.0,-52.7
1698674970770.0,16,-0.1,-1.7000000000000002,1.2000000000000002,-1.4000000000000001,7.7,3.3000000000000003,-40.5,45.6,-37.300000000000004
1698674970786.0,16,-0.2,2.0,4.0,-1.7000000000000002,11.3,6.4,-64.0,43.0,-26.1
1698674970803.0,16,-2.0,3.0,0.6000000000000001,-3.6,12.3,3.0,-30.5,-20.0,-14.700000000000001
1698674970820.0,16,-0.7000000000000001,2.0,-0.1,-2.2,11.200000000000001,2.4000000000000004,-26.6,-36.6,1.7
1698674970837.0,16,0.2,-0.6000000000000001,0.0,-1.3,8.700000000000001,2.6,-24.400000000000002,-4.800000000000001,10.5
1698674970853.0,16,0.30000000000000004,-2.6,-0.7000000000000001,-1.1,6.6000000000000005,2.0,-8.9,-9.200000000000001,6.3
1698674970870.0,16,0.7000000000000001,-3.2,-0.9,-0.7000000000000001,6.0,1.7000000000000002,-4.9,-13.6,6.6000000000000005
1698674970886.0,16,1.2000000000000002,-4.6000000000000005,-1.1,-0.2,4.6000000000000005,1.6,-6.2,-1.5000000000000002,3.2
1698674970903.0,16,1.7000000000000002,-5.5,-1.4000000000000001,0.30000000000000004,3.7,1.2000000000000002,-10.0,6.2,-0.30000000000000004
1698674970920.0,16,1.8,-5.800000000000001,-1.5,0.4,3.3000000000000003,1.2000000000000002,-11.8,5.1,-2.0
1698674970937.0,16,2.1,-5.7,-1.6,0.8,3.3000000000000003,1.2000000000000002,-13.6,-3.4,-2.1999999999999997
1698674970953.0,16,2.2,-4.7,-1.6,0.9,4.2,1.1,-14.700000000000001,-4.9,3.5
1698674970970.0,16,2.2,-4.0,-1.5,0.9,5.0,1.3,-14.800000000000002,-2.3000000000000003,6.3
1698674970986.0,16,1.7000000000000002,-2.4000000000000004,-0.8,0.4,6.5,2.0,-10.4,9.1,10.700000000000001
1698674971003.0,16,1.5,-1.1,-0.8,0.2,7.800000000000001,2.0,-2.3000000000000003,24.8,10.2
1698674971020.0,16,1.5,-0.6000000000000001,-1.0,0.2,8.3,1.8,0.30000000000000004,30.9,4.300000000000001
1698674971036.0,16,1.9000000000000001,-0.1,-2.1,0.6000000000000001,8.8,0.7000000000000001,-0.7,41.2,-7.8
1698674971053.0,16,1.4000000000000001,0.7000000000000001,-1.9000000000000001,0.4,9.0,0.5,-6.8,48.400000000000006,-11.000000000000002
1698674971070.0,16,0.8,2.2,-1.7000000000000002,-0.6000000000000001,11.100000000000001,1.0,-17.9,69.4,-4.2
1698674971086.0,16,-1.1,6.800000000000001,-1.8,-2.6,15.8,0.9,-17.599999999999998,59.7,13.6
1698674971103.0,16,-1.9000000000000001,8.6,-1.9000000000000001,-3.3000000000000003,17.6,0.8,-5.7,12.4,29.300000000000004
1698674971120.0,16,-2.5,7.4,-2.6,-3.8000000000000003,16.400000000000002,0.2,-1.2000000000000002,0.0,27.7
1698674971137.0,16,-2.1,3.7,-1.3,-3.4000000000000004,12.8,1.4000000000000001,-5.300000000000001,6.9,13.200000000000001
1698674971153.0,16,-0.8,1.6,2.5,-2.2,10.700000000000001,5.2,18.2,27.900000000000002,-7.0
1698674971170.0,16,-0.2,0.30000000000000004,4.9,-1.4000000000000001,7.7,10.100000000000001,48.7,5.4,-7.1000000000000005
1698674971187.0,16,-0.5,-2.7,8.4,-1.8,6.5,10.8,132.0,-35.3,20.1
1698674971203.0,16,-0.9,-0.7000000000000001,6.4,-2.0,8.700000000000001,8.4,132.1,-61.7,54.1
1698674971220.0,16,-0.1,1.2000000000000002,4.1000000000000005,-1.1,10.5,6.0,81.8,-71.7,57.9
1698674971236.0,16,-0.8,0.9,3.7,-1.6,10.3,5.6000000000000005,-41.7,0.0,50.800000000000004
1698674971253.0,16,1.5,3.7,4.0,0.8,13.100000000000001,6.2,-77.0,41.5,41.4
1698674971270.0,16,2.4000000000000004,4.4,2.7,1.8,13.8,5.1000000000000005,-65.4,13.3,26.8
1698674971287.0,16,1.0,1.5,1.4000000000000001,0.30000000000000004,10.9,3.9000000000000004,-28.900000000000002,-42.400000000000006,-3.2
1698674971303.0,16,-0.1,0.30000000000000004,-0.1,-0.4,10.200000000000001,3.1,-16.8,-28.200000000000003,-4.800000000000001
1698674971320.0,16,-0.6000000000000001,-0.5,-0.2,-1.3,8.8,2.4000000000000004,-3.7000000000000006,-3.1,-0.8
1698674971337.0,16,-0.9,-2.6,-0.7000000000000001,-1.5,6.7,1.8,7.0,-15.7,-1.0999999999999999
1698674971353.0,16,-1.1,-4.4,-1.1,-1.8,4.9,1.5,8.1,-26.9,-1.9
1698674971370.0,16,-1.3,-5.7,-1.4000000000000001,-1.9000000000000001,3.5,1.1,4.800000000000001,-24.9,-3.6
1698674971387.0,16,-1.3,-6.1000000000000005,-1.6,-2.0,3.1,0.8,3.2,-24.7,-5.2
1698674971403.0,16,-1.3,-6.300000000000001,-1.8,-2.0,2.9000000000000004,0.6000000000000001,0.7,-28.3,-9.9
1698674971420.0,16,-1.4000000000000001,-5.800000000000001,-2.1,-2.0,3.3000000000000003,0.4,-1.0,-28.200000000000003,-19.700000000000003
1698674971446.0,16,-1.4000000000000001,-4.7,-2.1,-1.9000000000000001,5.2,0.4,-8.4,-10.5,-28.8
1698674971454.0,16,-1.1,-3.8000000000000003,-2.0,-1.9000000000000001,5.2,0.4,-8.4,-10.5,-28.8
1698674971469.0,16,-0.1,-2.1,-1.8,-1.0,6.9,0.6000000000000001,-9.1,-28.500000000000004,-26.400000000000002
1698674971486.0,16,0.30000000000000004,-1.4000000000000001,-2.0,-0.6000000000000001,7.6000000000000005,0.5,-7.8,-45.6,-24.7
1698674971504.0,16,0.5,0.1,-2.0,-0.4,9.1,0.5,-8.700000000000001,-61.8,-19.200000000000003
1698674971520.0,16,-0.2,2.2,-1.6,-1.1,11.200000000000001,0.9,-9.0,-40.3,-8.799999999999999
1698674971537.0,16,0.2,3.6,-1.2000000000000002,-0.7000000000000001,12.600000000000001,1.4000000000000001,-7.6,-22.6,-3.7000000000000006
1698674971553.0,16,2.8000000000000003,6.9,0.30000000000000004,1.9000000000000001,15.9,2.9000000000000004,6.7,0.7,-13.3
1698674971570.0,16,4.5,8.9,-0.4,3.5,18.0,2.1,23.900000000000002,-1.5000000000000002,-38.300000000000004
1698674971586.0,16,3.1,8.6,-0.8,2.1,17.8,1.6,21.700000000000003,1.6,-39.9
1698674971603.0,16,-1.6,7.2,-2.5,-2.7,16.400000000000002,-0.1,-4.9,19.3,2.9
1698674971620.0,16,-3.8000000000000003,4.9,-0.5,-4.800000000000001,14.200000000000001,2.0,-33.7,31.2,54.7
1698674971636.0,16,-3.9000000000000004,3.3000000000000003,0.9,-4.800000000000001,12.600000000000001,3.5,-30.000000000000004,26.3,68.4
1698674971653.0,16,-3.2,1.6,2.1,-2.9000000000000004,9.1,5.800000000000001,11.5,-9.700000000000001,66.3
1698674971670.0,16,-1.1,-1.7000000000000002,4.7,-1.7000000000000002,7.6000000000000005,7.2,42.7,-28.8,47.300000000000004
1698674971686.0,16,0.1,-3.4000000000000004,7.0,-0.4,5.9,9.3,103.1,-30.7,-24.7
1698674971703.0,16,-0.5,-1.8,3.4000000000000004,-1.3,7.7,5.4,80.4,3.6,-78.00000000000001
1698674971720.0,16,1.0,0.4,1.6,-0.1,9.8,3.6,-16.1,19.700000000000003,-77.1
1698674971737.0,16,1.4000000000000001,2.3000000000000003,2.3000000000000003,0.2,11.600000000000001,4.4,-52.50000000000001,43.400000000000006,-76.9
1698674971753.0,16,0.2,3.6,2.9000000000000004,-1.1,12.9,5.1000000000000005,-65.60000000000001,51.800000000000004,-77.2
1698674971770.0,16,-2.6,2.4000000000000004,0.4,-4.2,11.700000000000001,2.8000000000000003,-46.300000000000004,-10.1,-38.900000000000006
1698674971787.0,16,0.5,-0.6000000000000001,-0.5,-1.0,8.6,2.1,-33.0,-19.500000000000004,32.800000000000004
1698674971803.0,16,0.8,-1.4000000000000001,-0.30000000000000004,-0.6000000000000001,7.9,2.3000000000000003,-25.2,-10.700000000000001,27.7
1698674971819.0,16,1.0,-3.3000000000000003,-0.7000000000000001,-0.30000000000000004,5.9,2.0,-3.4,-7.8,7.1000000000000005
1698674971836.0,16,1.1,-4.0,-0.8,-0.2,5.2,1.8,4.0,-8.4,2.7
1698674971853.0,16,1.7000000000000002,-5.0,-0.8,0.4,4.2,1.7000000000000002,10.3,2.7,1.5000000000000002
1698674971871.0,16,2.1,-5.6000000000000005,-1.2000000000000002,0.8,3.6,1.3,7.300000000000001,19.9,-1.0999999999999999
1698674971886.0,16,2.2,-5.800000000000001,-1.4000000000000001,0.9,3.3000000000000003,1.1,2.3000000000000003,23.700000000000003,-2.0
1698674971904.0,16,2.3000000000000003,-5.5,-1.5,1.0,3.3000000000000003,1.0,-4.300000000000001,24.200000000000003,-1.8
1698674971920.0,16,2.3000000000000003,-4.9,-1.5,1.0,4.1000000000000005,1.1,-19.500000000000004,21.8,1.8
1698674971936.0,16,1.4000000000000001,-2.4000000000000004,-0.5,0.7000000000000001,5.800000000000001,1.9000000000000001,-27.7,24.6,6.9
1698674971953.0,16,1.1,-1.7000000000000002,-0.6000000000000001,-0.1,7.2,2.0,-21.6,32.7,13.6
1698674971970.0,16,0.7000000000000001,-1.1,-1.6,-0.5,7.9,1.1,-13.9,44.00000000000001,10.0
1698674971986.0,16,0.2,-0.8,-2.9000000000000004,-1.1,8.1,-0.2,-14.900000000000002,55.1,6.9
1698674972003.0,16,0.2,-0.2,-3.3000000000000003,-1.1,8.700000000000001,-0.6000000000000001,-20.7,59.7,10.5
1698674972020.0,16,-0.5,3.2,-2.7,-1.7000000000000002,12.100000000000001,0.0,-32.300000000000004,60.900000000000006,22.4
1698674972036.0,16,-1.3,5.9,-2.4000000000000004,-3.3000000000000003,17.6,0.8,-30.799999999999997,47.7,30.200000000000003
1698674972054.0,16,-3.2,10.0,-1.4000000000000001,-4.4,19.1,1.4000000000000001,-7.9,-15.9,43.1
1698674972071.0,16,-3.6,7.9,-2.5,-4.6000000000000005,17.0,0.30000000000000004,19.1,-44.00000000000001,43.0
1698674972086.0,16,0.2,3.6,-1.2000000000000002,-0.8,12.8,1.5,15.100000000000001,-13.5,8.600000000000001
1698674972103.0,16,0.5,2.6,0.2,-0.4,11.8,2.9000000000000004,13.9,14.700000000000001,-15.8
1698674972120.0,16,0.9,1.2000000000000002,3.7,-0.2,10.4,6.300000000000001,39.300000000000004,10.2,-28.200000000000003
1698674972137.0,16,0.8,-0.8,6.5,-0.30000000000000004,8.5,9.0,67.60000000000001,-14.800000000000002,-20.3
1698674972153.0,16,0.30000000000000004,-3.5,8.0,-0.7000000000000001,5.800000000000001,10.200000000000001,124.2,-64.8,11.700000000000001
1698674972170.0,16,-0.7000000000000001,-2.8000000000000003,4.2,-1.6,6.5,6.2,86.5,-46.1,50.6
1698674972187.0,16,-0.5,-0.9,3.0,-1.3,8.5,4.9,31.099999999999998,-12.000000000000002,62.900000000000006
1698674972204.0,16,-0.30000000000000004,2.1,3.5,-0.9,11.5,5.6000000000000005,-59.60000000000001,43.50000000000001,64.10000000000001
1698674972220.0,16,1.3,6.1000000000000005,3.2,0.9,15.5,5.5,-68.1,33.400000000000006,54.1
1698674972237.0,16,0.4,3.8000000000000003,0.8,0.1,13.200000000000001,3.3000000000000003,-44.7,-20.2,21.200000000000003
1698674972254.0,16,-0.2,1.8,0.30000000000000004,-0.5,11.200000000000001,2.9000000000000004,-37.2,-18.6,6.6000000000000005
1698674972270.0,16,-0.9,0.1,-0.4,-1.2000000000000002,9.5,2.2,-24.7,-9.200000000000001,-10.0
1698674972287.0,16,-1.2000000000000002,-0.7000000000000001,-0.4,-1.5,8.6,2.3000000000000003,-16.6,-10.3,-14.100000000000001
1698674972304.0,16,-1.5,-2.9000000000000004,-0.6000000000000001,-1.9000000000000001,6.4,2.1,2.6,-12.200000000000001,-16.3
1698674972320.0,16,-1.5,-4.800000000000001,-1.0,-2.0,4.5,1.6,14.200000000000001,-11.2,-19.1
1698674972338.0,16,-1.5,-5.5,-1.2000000000000002,-2.0,3.7,1.4000000000000001,16.5,-9.1,-20.5
1698674972353.0,16,-1.5,-6.4,-1.6,-2.1,2.9000000000000004,0.9,17.1,-11.9,-22.2
1698674972370.0,16,-1.1,-6.4,-1.7000000000000002,-1.7000000000000002,2.8000000000000003,0.8,13.100000000000001,-18.8,-24.7
1698674972387.0,16,-0.8,-6.0,-1.4000000000000001,-1.5,2.9000000000000004,1.0,8.799999999999999,-9.5,-29.700000000000003
1698674972404.0,16,-0.7000000000000001,-5.5,-1.4000000000000001,-1.4000000000000001,3.6,1.0,7.2,-1.4,-29.600000000000005
1698674972422.0,16,-0.1,-4.2,-2.1,-0.9,4.9,0.30000000000000004,0.4,2.7,-20.0
1698674972436.0,16,-0.1,-2.8000000000000003,-2.7,-1.0,6.2,-0.30000000000000004,-14.600000000000001,-11.9,-6.1000000000000005
1698674972453.0,16,-0.30000000000000004,-2.0,-2.6,-1.2000000000000002,7.0,-0.2,-22.000000000000004,-23.3,-0.9
1698674972470.0,16,-1.5,0.0,-2.3000000000000003,-2.3000000000000003,9.0,0.2,-27.0,-38.800000000000004,7.400000000000001
1698674972486.0,16,-1.8,2.9000000000000004,-2.0,-2.5,11.9,0.6000000000000001,-24.7,-46.900000000000006,12.100000000000001
1698674972504.0,16,-1.2000000000000002,5.1000000000000005,-0.9,-1.9000000000000001,14.100000000000001,1.8,-20.4,-39.1,8.3
1698674972520.0,16,1.3,10.100000000000001,0.4,0.6000000000000001,19.1,3.0,4.5,6.2,-16.3
1698674972537.0,16,4.0,10.3,-0.30000000000000004,3.2,19.400000000000002,2.3000000000000003,28.3,25.900000000000002,-48.50000000000001
1698674972553.0,16,2.9000000000000004,8.5,-1.6,2.0,17.8,0.9,27.6,26.3,-51.0
1698674972570.0,16,-2.1,4.800000000000001,-2.3000000000000003,-3.1,14.0,0.2,-11.700000000000001,26.400000000000002,-7.2
1698674972586.0,16,-3.5,2.9000000000000004,1.5,-4.4,12.200000000000001,4.0,-30.5,39.699999999999996,45.9
1698674972603.0,16,-2.6,0.7000000000000001,3.8000000000000003,-3.4000000000000004,10.0,6.4,12.100000000000001,-10.0,54.9
1698674972620.0,16,-1.4000000000000001,-0.6000000000000001,5.5,-2.2,8.700000000000001,8.1,43.50000000000001,-35.9,42.800000000000004
1698674972637.0,16,0.7000000000000001,-1.4000000000000001,8.5,0.0,8.0,10.9,95.60000000000001,-28.700000000000003,-22.6
1698674972653.0,16,1.2000000000000002,-0.7000000000000001,6.300000000000001,0.4,8.700000000000001,8.5,93.9,-9.4,-66.1
1698674972670.0,16,1.0,-0.4,0.8,-0.1,9.0,3.0,4.300000000000001,6.3,-88.8
1698674972686.0,16,2.0,-0.4,3.5,0.6000000000000001,8.9,5.9,-73.7,74.10000000000001,-74.60000000000001
1698674972703.0,16,1.0,0.9,4.2,-0.6000000000000001,10.100000000000001,6.7,-69.60000000000001,66.80000000000001,-66.3
1698674972722.0,16,-1.6,2.1,0.7000000000000001,-3.2,11.3,3.3000000000000003,-32.2,-23.900000000000002,-19.6
1698674972737.0,16,0.5,1.0,-0.1,-1.1,10.200000000000001,2.6,-22.8,-20.4,27.2
1698674972753.0,16,0.4,-1.3,0.0,-1.1,7.9,2.7,-3.1,-2.9,17.1
1698674972770.0,16,0.1,-2.6,-0.8,-1.4000000000000001,6.6000000000000005,1.9000000000000001,8.3,-5.4,9.5
1698674972786.0,16,1.1,-4.2,-1.3,-0.4,5.0,1.3,11.4,-8.600000000000001,6.5
1698674972803.0,16,1.2000000000000002,-4.9,-1.4000000000000001,0.30000000000000004,3.8000000000000003,1.3,3.4,6.1000000000000005,5.7
1698674972820.0,16,2.1,-5.7,-1.5,0.7000000000000001,3.4000000000000004,1.1,0.0,13.700000000000001,3.4
1698674972836.0,16,2.2,-5.7,-1.8,0.8,3.4000000000000004,0.8,-7.300000000000001,19.0,-0.30000000000000004
1698674972853.0,16,2.3000000000000003,-5.300000000000001,-1.7000000000000002,0.9,4.2,1.0,-10.4,18.3,1.0999999999999999
1698674972870.0,16,2.1,-4.1000000000000005,-1.6,0.7000000000000001,4.9,1.0,-12.9,18.400000000000002,8.0
1698674972886.0,16,1.6,-2.6,-1.4000000000000001,0.2,6.4,1.2000000000000002,-12.100000000000001,19.200000000000003,14.600000000000001
1698674972903.0,16,1.4000000000000001,-1.9000000000000001,-1.3,0.1,7.1000000000000005,1.4000000000000001,-10.2,22.900000000000002,15.2
1698674972921.0,16,0.5,-1.3,-1.6,-0.8,7.7,1.0,-7.8,32.7,10.0
1698674972936.0,16,0.4,-1.2000000000000002,-1.7000000000000002,-0.9,7.7,1.0,-6.2,36.5,2.1999999999999997
1698674972953.0,16,0.9,-0.7000000000000001,-2.1,-0.5,8.200000000000001,0.5,-4.0,40.2,-3.5
1698674972970.0,16,1.0,-0.1,-2.1,-0.4,8.8,0.5,-5.300000000000001,45.9,-1.9
1698674972986.0,16,0.4,2.7,-1.9000000000000001,-1.0,11.600000000000001,0.7000000000000001,-10.0,65.2,10.4
1698674973003.0,16,-0.9,7.0,-1.4000000000000001,-2.3000000000000003,16.0,1.2000000000000002,-6.8,50.6,26.6
1698674973021.0,16,-0.9,9.0,-1.0,-2.3000000000000003,18.0,1.5,0.2,29.300000000000004,30.299999999999997
1698674973036.0,16,-1.4000000000000001,9.200000000000001,-1.8,-2.7,18.3,0.7000000000000001,14.200000000000001,-3.5,14.800000000000002
1698674973053.0,16,-1.2000000000000002,6.800000000000001,-2.2,-1.9000000000000001,13.600000000000001,0.1,2.1,6.2,-4.5
1698674973070.0,16,0.30000000000000004,2.8000000000000003,-1.3,-1.0,12.0,1.2000000000000002,-8.3,17.400000000000002,-6.7
1698674973087.0,16,0.9,1.7000000000000002,0.1,-0.4,10.9,2.6,-11.8,27.1,-6.4
1698674973104.0,16,0.8,-1.2000000000000002,2.9000000000000004,-0.5,8.0,5.4,7.300000000000001,8.700000000000001,0.7
1698674973120.0,16,-0.4,-5.0,6.0,-1.7000000000000002,4.2,8.4,69.80000000000001,-3.2,18.1
1698674973136.0,16,-1.8,-4.2,5.6000000000000005,-3.0,5.1000000000000005,7.6000000000000005,112.4,-6.9,53.9
1698674973153.0,16,-2.2,2.3000000000000003,5.1000000000000005,-3.1,11.700000000000001,6.9,77.5,-69.7,79.2
1698674973170.0,16,-2.6,3.7,3.7,-2.9000000000000004,14.0,4.800000000000001,-22.8,-8.700000000000001,80.2
1698674973188.0,16,-0.6000000000000001,5.2,3.0,-1.2000000000000002,14.600000000000001,5.0,-64.30000000000001,22.7,68.80000000000001
1698674973204.0,16,1.9000000000000001,5.300000000000001,2.6,1.4000000000000001,14.700000000000001,4.7,-82.8,20.6,43.400000000000006
1698674973222.0,16,0.2,1.8,1.4000000000000001,-0.2,11.200000000000001,3.8000000000000003,-61.7,-35.199999999999996,-25.5
1698674973236.0,16,-1.1,0.8,-1.1,-1.7000000000000002,10.200000000000001,1.4000000000000001,-40.6,-36.5,-23.8
1698674973253.0,16,-1.0,-0.30000000000000004,-1.5,-1.6,9.1,1.1,-36.7,-22.4,-10.9
1698674973272.0,16,-1.0,-1.3,-1.2000000000000002,-1.5,8.0,1.5,-30.200000000000003,-24.1,-11.5
1698674973288.0,16,-0.6000000000000001,-2.8000000000000003,-1.2000000000000002,-1.3,6.4,1.6,-10.8,-35.5,-19.0
1698674973303.0,16,-0.6000000000000001,-3.5,-1.3,-1.1,5.1000000000000005,1.3,3.9,-45.6,-27.400000000000002
1698674973320.0,16,-0.4,-4.7,-1.5,-1.0,4.5,1.2000000000000002,8.200000000000001,-47.900000000000006,-31.0
1698674973337.0,16,-0.6000000000000001,-5.6000000000000005,-1.5,-1.4000000000000001,3.5,1.2000000000000002,12.700000000000001,-46.300000000000004,-36.0
1698674973353.0,16,-0.5,-6.0,-1.4000000000000001,-1.4000000000000001,3.1,1.2000000000000002,14.3,-35.0,-37.1
1698674973371.0,16,-0.5,-6.0,-1.5,-1.4000000000000001,3.1,1.1,13.700000000000001,-26.9,-38.800000000000004
1698674973387.0,16,-0.5,-5.2,-1.7000000000000002,-1.5,3.8000000000000003,0.9,4.6000000000000005,-15.5,-38.2
1698674973403.0,16,0.0,-3.5,-1.8,-1.0,5.5,0.8,-10.8,-29.400000000000002,-28.500000000000004
1698674973421.0,16,0.4,-2.0,-2.3000000000000003,-0.7000000000000001,6.9,0.30000000000000004,-24.400000000000002,-56.6,-15.5
1698674973437.0,16,0.4,-1.4000000000000001,-2.0,-0.7000000000000001,7.5,0.8,-29.600000000000005,-60.7,-9.700000000000001
1698674973453.0,16,-0.30000000000000004,0.4,-1.3,-1.3,9.3,1.5,-24.7,-42.900000000000006,0.9
1698674973470.0,16,-0.1,1.6,-1.4000000000000001,-1.1,10.5,1.4000000000000001,-17.5,-27.900000000000002,4.6000000000000005
1698674973486.0,16,2.1,5.4,-1.2000000000000002,1.1,14.3,1.6,-1.5000000000000002,-5.1,-2.5
1698674973503.0,16,4.1000000000000005,9.9,0.1,3.0,18.900000000000002,2.9000000000000004,14.800000000000002,11.2,-30.200000000000003
1698674973520.0,16,1.3,9.200000000000001,-0.8,0.1,18.3,1.9000000000000001,29.300000000000004,19.0,-29.700000000000003
1698674973538.0,16,-0.5,7.7,-2.3000000000000003,-1.7000000000000002,16.8,0.30000000000000004,21.200000000000003,15.6,-3.3000000000000003
1698674973553.0,16,-2.6,5.1000000000000005,-1.7000000000000002,-3.7,14.200000000000001,1.0,0.8,15.7,27.0
1698674973570.0,16,-4.1000000000000005,3.0,1.8,-5.0,12.200000000000001,4.6000000000000005,-25.900000000000002,21.400000000000002,71.6
1698674973587.0,16,-3.6,1.4000000000000001,2.7,-4.4,10.700000000000001,5.5,-7.9,3.4,72.9
1698674973604.0,16,-0.9,-1.6,6.2,-1.6,7.6000000000000005,8.9,15.9,-20.3,62.8
1698674973619.0,16,0.5,-2.3000000000000003,7.800000000000001,-0.1,7.0,10.5,70.0,-36.5,3.5
1698674973637.0,16,0.9,-0.9,4.3,0.1,8.4,6.800000000000001,68.60000000000001,-1.3,-77.2
1698674973654.0,16,0.8,-0.7000000000000001,0.7000000000000001,-0.2,8.6,3.1,-19.400000000000002,21.1,-80.8
1698674973670.0,16,1.5,1.5,3.8000000000000003,0.1,10.700000000000001,6.4,-69.2,64.10000000000001,-70.0
1698674973687.0,16,-2.2,2.8000000000000003,0.8,-1.8,11.9,5.800000000000001,-58.800000000000004,47.400000000000006,-62.300000000000004
1698674973703.0,16,-2.0,2.2,-0.30000000000000004,-3.6,11.4,2.6,-35.0,-37.7,-5.6
1698674973720.0,16,-0.2,1.4000000000000001,-0.4,-1.7000000000000002,10.600000000000001,2.6,-32.800000000000004,-43.0,25.3
1698674973737.0,16,0.5,-0.8,-0.30000000000000004,-0.9,8.3,2.7,-24.3,-9.0,31.2
1698674973753.0,16,0.5,-3.1,-1.2000000000000002,-0.8,6.0,1.9000000000000001,-5.1,-8.0,15.000000000000002
1698674973769.0,16,0.9,-4.5,-1.5,-0.30000000000000004,4.6000000000000005,1.5,-0.1,-12.3,11.000000000000002
1698674973786.0,16,1.6,-5.4,-1.4000000000000001,0.4,3.6,1.6,1.2000000000000002,2.6,8.4
1698674973803.0,16,2.0,-5.800000000000001,-1.4000000000000001,0.8,3.3000000000000003,1.6,0.9,11.2,5.2
1698674973820.0,16,2.2,-5.9,-1.5,1.1,3.1,1.5,0.7,17.3,0.8
1698674973837.0,16,2.4000000000000004,-5.800000000000001,-1.7000000000000002,1.2000000000000002,3.2,1.4000000000000001,-0.1,21.3,-4.300000000000001
1698674973854.0,16,2.3000000000000003,-4.800000000000001,-1.5,1.1,4.1000000000000005,1.5,-2.9,22.900000000000002,-0.30000000000000004
1698674973870.0,16,2.0,-4.0,-1.2000000000000002,0.8,4.800000000000001,1.7000000000000002,-3.1,24.3,3.6
1698674973886.0,16,1.2000000000000002,-2.7,-1.2000000000000002,0.1,6.1000000000000005,1.8,0.7,30.299999999999997,14.3
1698674973904.0,16,0.6000000000000001,-2.2,-2.0,-0.6000000000000001,6.6000000000000005,0.9,2.6,35.4,15.9
1698674973920.0,16,0.4,-2.0,-2.5,-0.7000000000000001,7.1000000000000005,0.0,-1.6,34.400000000000006,8.799999999999999
1698674973937.0,16,0.6000000000000001,-1.2000000000000002,-3.2,-0.5,7.6000000000000005,-0.30000000000000004,-6.8,34.7,7.1000000000000005
1698674973953.0,16,0.4,1.3,-2.2,-0.7000000000000001,10.100000000000001,0.7000000000000001,-17.9,46.300000000000004,11.1
1698674973970.0,16,-0.2,3.5,-1.5,-2.2,15.4,1.5,-17.0,55.7,16.3
1698674973987.0,16,-2.0,9.5,-1.5,-3.1,18.400000000000002,1.4000000000000001,-1.5000000000000002,44.7,30.799999999999997
1698674974003.0,16,-2.0,11.3,-1.7000000000000002,-3.1,20.3,1.1,21.8,-5.8,33.2
1698674974021.0,16,-1.1,8.8,-2.1,-2.2,17.900000000000002,0.7000000000000001,26.700000000000003,-14.100000000000001,20.900000000000002
1698674974037.0,16,0.7000000000000001,2.5,-1.7000000000000002,-0.4,11.700000000000001,1.0,-2.8,13.5,-14.500000000000002
1698674974054.0,16,1.4000000000000001,1.5,0.5,0.2,10.600000000000001,3.2,-8.200000000000001,21.0,-14.100000000000001
1698674974070.0,16,0.8,-1.5,6.5,-0.30000000000000004,7.6000000000000005,9.200000000000001,2.9,22.8,-10.4
1698674974086.0,16,-1.5,-3.3000000000000003,7.1000000000000005,-2.5,6.0,9.5,128.8,-15.000000000000002,39.699999999999996
1698674974103.0,16,-1.9000000000000001,-2.0,6.9,-2.8000000000000003,7.300000000000001,9.1,147.20000000000002,-45.1,65.10000000000001
1698674974120.0,16,-1.5,2.4000000000000004,3.5,-2.1,11.8,5.4,86.80000000000001,-51.400000000000006,82.7
1698674974137.0,16,-1.0,2.8000000000000003,2.6,-0.6000000000000001,13.100000000000001,5.1000000000000005,18.7,-3.7000000000000006,75.60000000000001
1698674974153.0,16,-0.1,3.7,3.1,-0.6000000000000001,13.100000000000001,5.1000000000000005,-43.800000000000004,48.7,62.7
1698674974170.0,16,1.2000000000000002,3.3000000000000003,2.1,0.9,12.700000000000001,4.4,-78.00000000000001,9.9,-8.200000000000001
1698674974187.0,16,0.0,1.5,0.8,-1.0,10.200000000000001,2.3000000000000003,-53.300000000000004,-18.0,-10.0
1698674974204.0,16,-0.8,0.6000000000000001,-0.9,-1.2000000000000002,10.0,1.7000000000000002,-47.300000000000004,-17.7,-5.2
1698674974220.0,16,-1.3,-0.7000000000000001,-0.2,-1.7000000000000002,8.6,2.6,-29.600000000000005,-13.3,-6.3
1698674974237.0,16,-1.5,-1.6,0.0,-1.9000000000000001,7.7,2.8000000000000003,-14.0,-10.1,-8.200000000000001
1698674974254.0,16,-1.4000000000000001,-3.3000000000000003,-1.0,-1.8,5.9,1.7000000000000002,12.3,-8.9,-13.4
1698674974271.0,16,-1.1,-4.9,-1.6,-1.7000000000000002,4.3,1.1,18.900000000000002,-11.700000000000001,-20.3
1698674974287.0,16,-1.0,-6.1000000000000005,-1.7000000000000002,-1.6,3.2,1.0,16.2,-15.8,-26.9
1698674974304.0,16,-1.0,-6.4,-1.7000000000000002,-1.7000000000000002,2.8000000000000003,0.9,13.5,-16.6,-28.500000000000004
1698674974320.0,16,-0.9,-6.4,-1.6,-1.6,2.8000000000000003,1.0,6.5,-12.5,-28.3
1698674974337.0,16,-0.8,-5.5,-1.5,-1.7000000000000002,3.6,1.1,-2.7,-0.2,-26.3
1698674974353.0,16,-0.5,-3.8000000000000003,-1.1,-1.5,5.2,1.4000000000000001,-14.100000000000001,-3.7000000000000006,-23.2
1698674974372.0,16,-0.30000000000000004,-3.0,-1.0,-1.0,6.7,1.4000000000000001,-23.0,-31.5,-16.8
1698674974388.0,16,-0.1,-1.7000000000000002,-1.7000000000000002,-1.0,7.2,1.0,-26.700000000000003,-43.50000000000001,-11.6
1698674974403.0,16,-0.2,-1.1,-1.9000000000000001,-1.2000000000000002,7.9,0.8,-29.900000000000006,-50.300000000000004,-6.7
1698674974421.0,16,-0.6000000000000001,0.6000000000000001,-2.2,-1.5,9.5,0.6000000000000001,-31.099999999999998,-48.50000000000001,-0.2
1698674974437.0,16,-0.5,1.8,-2.2,-0.9,12.5,1.2000000000000002,-31.099999999999998,-19.500000000000004,-1.5000000000000002
1698674974453.0,16,1.0,5.9,-1.0,0.1,14.8,2.0,-25.900000000000002,-3.8,-7.2
1698674974470.0,16,3.8000000000000003,10.0,-0.2,2.9000000000000004,19.0,2.8000000000000003,-0.5,11.700000000000001,-33.2
1698674974486.0,16,4.3,10.0,-0.5,3.3000000000000003,19.0,2.4000000000000004,12.5,19.700000000000003,-46.5
1698674974503.0,16,1.4000000000000001,6.9,-2.9000000000000004,0.30000000000000004,16.0,0.0,11.000000000000002,38.5,-26.200000000000003
1698674974520.0,16,-2.5,3.8000000000000003,-1.4000000000000001,-3.6,12.9,1.5,-20.6,30.7,42.6
1698674974536.0,16,-4.5,1.9000000000000001,2.4000000000000004,-5.4,11.100000000000001,5.300000000000001,0.4,-12.200000000000001,80.7
1698674974553.0,16,-3.6,-0.8,4.7,-5.2,9.8,6.300000000000001,31.6,-38.7,85.7
1698674974570.0,16,-2.6,-1.9000000000000001,6.800000000000001,-3.2,7.4,9.5,95.7,-56.0,60.5
1698674974586.0,16,0.30000000000000004,-1.2000000000000002,8.3,-2.1,7.2,11.600000000000001,114.4,-30.7,24.3
1698674974603.0,16,1.1,1.8,0.8,0.30000000000000004,11.100000000000001,3.1,13.4,-6.8,-100.7
1698674974620.0,16,2.4000000000000004,1.2000000000000002,0.8,1.5,10.5,3.2,-43.900000000000006,12.100000000000001,-108.5
1698674974636.0,16,1.5,2.0,3.8000000000000003,0.1,11.200000000000001,6.4,-82.30000000000001,82.30000000000001,-119.30000000000001
1698674974653.0,16,-0.9,2.2,2.1,-2.5,11.4,4.800000000000001,-63.800000000000004,52.2,-101.8
1698674974670.0,16,-1.0,1.6,0.2,-2.6,10.8,3.0,-34.900000000000006,-64.4,-8.5
1698674974686.0,16,0.4,0.2,0.2,-1.1,9.3,3.1,-19.500000000000004,-33.0,39.1
1698674974703.0,16,0.2,-0.9,0.0,-1.0,7.0,2.5,4.1000000000000005,-10.5,27.3
1698674974719.0,16,0.5,-3.5,-1.1,-0.9,5.6000000000000005,1.9000000000000001,11.1,-9.8,15.8
1698674974736.0,16,1.1,-4.9,-1.3,-0.2,4.3,1.7000000000000002,9.1,-4.2,4.6000000000000005
1698674974753.0,16,1.6,-5.300000000000001,-1.2000000000000002,0.30000000000000004,3.8000000000000003,1.7000000000000002,5.500000000000001,3.1,2.5
1698674974770.0,16,2.4000000000000004,-5.7,-1.3,1.1,3.3000000000000003,1.6,-3.2,15.5,-1.6
1698674974786.0,16,2.7,-5.5,-1.4000000000000001,1.4000000000000001,3.5,1.5,-10.9,16.900000000000002,-1.6
1698674974803.0,16,2.5,-4.800000000000001,-1.4000000000000001,1.2000000000000002,4.2,1.5,-14.500000000000002,13.700000000000001,6.000000000000001
1698674974820.0,16,2.4000000000000004,-4.3,-1.3,1.1,4.7,1.6,-14.3,12.8,10.5
1698674974836.0,16,1.8,-3.0,-1.3,0.5,5.800000000000001,1.7000000000000002,-9.8,17.3,16.0
1698674974853.0,16,1.2000000000000002,-2.6,-1.4000000000000001,0.0,6.300000000000001,1.5,-7.400000000000001,21.1,16.8
1698674974869.0,16,0.30000000000000004,-1.7000000000000002,-2.0,-0.9,7.2,0.9,-5.6,28.400000000000002,13.200000000000001
1698674974886.0,16,-0.1,-0.8,-2.8000000000000003,-1.3,8.0,0.2,-8.5,32.300000000000004,5.2
1698674974903.0,16,0.1,-0.30000000000000004,-3.0,-1.0,9.3,-0.1,-16.1,35.6,1.7
1698674974920.0,16,0.4,1.6,-2.2,-0.9,10.4,0.7000000000000001,-19.400000000000002,43.2,3.1
1698674974936.0,16,0.4,5.6000000000000005,-1.2000000000000002,-0.9,14.4,1.8,-8.5,58.2,8.9
1698674974953.0,16,-0.1,7.9,-1.4000000000000001,-1.4000000000000001,16.8,1.5,2.7,50.6,11.1
1698674974970.0,16,-1.2000000000000002,9.1,-1.9000000000000001,-2.4000000000000004,18.1,1.0,20.8,8.1,13.5
1698674974986.0,16,-2.0,5.1000000000000005,-2.6,-3.3000000000000003,14.100000000000001,0.2,20.2,-0.30000000000000004,2.7
1698674975004.0,16,-1.4000000000000001,3.8000000000000003,-2.3000000000000003,-2.7,12.9,0.5,10.9,4.7,-1.9
1698674975020.0,16,0.4,2.0,0.9,-0.9,11.100000000000001,3.7,2.4000000000000004,16.5,-3.1
1698674975037.0,16,0.7000000000000001,-1.1,5.5,-0.6000000000000001,8.0,8.200000000000001,38.7,0.5,6.8
1698674975053.0,16,-0.5,-4.0,6.800000000000001,-1.7000000000000002,5.2,9.200000000000001,114.00000000000001,-6.9,35.5
1698674975069.0,16,-1.3,-1.3,5.5,-2.3000000000000003,8.0,7.6000000000000005,115.50000000000001,-41.2,70.8
1698674975086.0,16,-1.7000000000000002,1.5,4.2,-2.5,10.9,6.2,80.30000000000001,-53.400000000000006,77.7
1698674975103.0,16,-2.1,2.5,3.4000000000000004,-2.8000000000000003,11.9,5.300000000000001,28.6,-36.1,80.4
1698674975120.0,16,-0.8,4.800000000000001,3.7,-1.3,14.200000000000001,5.800000000000001,-60.300000000000004,39.00000000000001,76.2
1698674975136.0,16,2.4000000000000004,5.800000000000001,2.6,2.1,15.200000000000001,5.0,-70.9,-3.2,25.900000000000002
1698674975153.0,16,-0.4,1.2000000000000002,1.0,-0.7000000000000001,10.600000000000001,3.5,-39.400000000000006,-33.2,-24.5
1698674975170.0,16,-0.5,0.6000000000000001,-0.30000000000000004,-0.9,10.0,2.3000000000000003,-30.9,-20.6,-22.8
1698674975188.0,16,-0.5,0.1,-0.8,-0.9,9.4,1.8,-27.2,-10.5,-17.0
1698674975204.0,16,-1.0,-1.5,-0.5,-1.4000000000000001,7.9,2.3000000000000003,-14.600000000000001,-8.1,-9.0
1698674975220.0,16,-1.1,-2.9000000000000004,-1.1,-1.6,6.4,1.6,-0.4,-15.399999999999999,-11.8
1698674975237.0,16,-1.2000000000000002,-4.3,-1.5,-1.7000000000000002,5.0,1.2000000000000002,2.7,-24.1,-16.0
1698674975253.0,16,-1.0,-5.4,-1.8,-1.6,3.8000000000000003,0.9,-1.3,-27.1,-20.5
1698674975270.0,16,-0.9,-5.7,-1.8,-1.5,3.5,0.9,-3.7000000000000006,-26.9,-23.1
1698674975288.0,16,-0.8,-5.4,-1.6,-1.5,3.7,1.1,-6.8,-17.7,-28.0
1698674975304.0,16,-0.8,-5.0,-1.4000000000000001,-1.5,4.1000000000000005,1.3,-6.7,-9.200000000000001,-29.000000000000004
1698674975320.0,16,0.0,-3.7,-1.4000000000000001,-1.1,5.0,1.3,-5.2,6.3,-29.1
1698674975337.0,16,0.30000000000000004,-3.4000000000000004,-1.6,-0.6000000000000001,5.6000000000000005,1.2000000000000002,-7.500000000000001,1.9,-23.6
1698674975354.0,16,0.5,-3.0,-2.3000000000000003,-0.4,6.0,0.4,-16.400000000000002,-23.400000000000002,-10.0
1698674975372.0,16,-0.2,-2.2,-1.6,-1.1,6.7,1.2000000000000002,-20.0,-39.1,3.2
1698674975388.0,16,-0.6000000000000001,-1.3,-1.8,-1.5,7.6000000000000005,1.0,-16.5,-36.3,8.3
1698674975403.0,16,-0.9,0.0,-2.0,-1.4000000000000001,10.700000000000001,1.1,-13.8,-27.1,11.3
1698674975420.0,16,0.30000000000000004,4.1000000000000005,-1.1,-0.5,13.0,1.7000000000000002,-7.1000000000000005,-5.2,6.3
1698674975440.0,16,2.8000000000000003,9.0,-0.8,2.0,18.0,2.0,11.4,1.6,-15.299999999999999
1698674975453.0,16,2.8000000000000003,9.700000000000001,-0.7000000000000001,1.9000000000000001,18.8,2.1,22.8,20.6,-39.300000000000004
1698674975470.0,16,0.9,7.9,-2.0,-0.1,17.1,0.7000000000000001,20.6,23.900000000000002,-30.599999999999998
1698674975486.0,16,-2.0,5.0,-2.1,-3.0,14.100000000000001,0.6000000000000001,-12.6,17.0,29.000000000000004
1698674975503.0,16,-4.1000000000000005,3.5,0.9,-4.9,12.700000000000001,3.6,-22.2,13.8,62.900000000000006
1698674975520.0,16,-4.1000000000000005,2.6,1.9000000000000001,-4.800000000000001,11.9,4.7,-5.300000000000001,-7.0,68.0
1698674975536.0,16,-2.5,0.0,4.7,-3.1,9.3,7.4,43.6,-40.7,43.900000000000006
1698674975553.0,16,0.6000000000000001,-1.5,8.200000000000001,0.1,7.800000000000001,10.700000000000001,68.80000000000001,-40.5,12.700000000000001
1698674975570.0,16,0.5,-1.2000000000000002,6.800000000000001,-0.2,8.200000000000001,9.3,85.60000000000001,-17.1,-78.80000000000001
1698674975587.0,16,0.5,-0.6000000000000001,0.30000000000000004,-0.5,8.700000000000001,2.6,6.8,-6.4,-95.1
1698674975603.0,16,2.7,-0.1,3.4000000000000004,1.4000000000000001,9.200000000000001,6.0,-73.10000000000001,65.3,-80.10000000000001
1698674975620.0,16,1.8,1.7000000000000002,4.0,0.4,10.9,6.7,-70.6,67.2,-75.0
1698674975636.0,16,-1.4000000000000001,2.3000000000000003,0.7000000000000001,-3.0,11.5,3.5,-36.800000000000004,-24.5,-31.5
1698674975653.0,16,0.2,1.0,-0.2,-1.3,10.200000000000001,2.8000000000000003,-25.700000000000003,-39.1,26.200000000000003
1698674975670.0,16,0.0,-0.1,-0.1,-1.5,9.0,2.9000000000000004,-21.700000000000003,-18.900000000000002,27.400000000000002
1698674975686.0,16,-0.1,-2.6,-0.9,-1.5,6.5,2.1,-4.800000000000001,-10.1,13.9
1698674975703.0,16,0.6000000000000001,-4.1000000000000005,-1.4000000000000001,-0.7000000000000001,5.0,1.6,-1.8,-14.200000000000001,4.7
1698674975719.0,16,1.3,-4.7,-1.3,0.1,4.3,1.7000000000000002,-7.699999999999999,-6.2,1.9
1698674975736.0,16,1.6,-4.9,-1.3,0.30000000000000004,4.1000000000000005,1.7000000000000002,-10.4,-2.1,1.0999999999999999
1698674975753.0,16,1.9000000000000001,-5.2,-1.6,0.7000000000000001,3.8000000000000003,1.5,-13.700000000000001,0.4,-2.4000000000000004
1698674975770.0,16,1.9000000000000001,-5.1000000000000005,-1.6,0.7000000000000001,3.8000000000000003,1.4000000000000001,-14.3,-0.6000000000000001,-3.8
1698674975786.0,16,1.8,-4.6000000000000005,-1.8,0.6000000000000001,4.3,1.3,-13.5,-0.7,-1.5000000000000002
1698674975803.0,16,1.6,-3.3000000000000003,-1.5,0.4,5.5,1.6,-10.3,-0.4,4.3999999999999995
1698674975819.0,16,1.0,-2.1,-1.5,-0.2,6.7,1.6,-1.8,3.8,9.9
1698674975836.0,16,0.4,-1.6,-1.9000000000000001,-0.7000000000000001,7.2,1.2000000000000002,6.000000000000001,7.9,8.1
1698674975853.0,16,0.4,-1.6,-2.1,-0.7000000000000001,7.2,1.0,9.5,7.8,3.9
1698674975870.0,16,1.2000000000000002,-1.0,-2.8000000000000003,0.1,7.800000000000001,0.2,11.700000000000001,10.2,-2.9
1698674975886.0,16,1.5,-0.30000000000000004,-2.7,0.30000000000000004,8.5,0.2,7.6,19.200000000000003,-4.2
1698674975903.0,16,1.3,3.2,-1.3,0.1,12.100000000000001,1.7000000000000002,2.1999999999999997,58.1,-2.1
1698674975920.0,16,-0.7000000000000001,8.1,-1.6,-2.0,17.0,1.3,11.4,56.300000000000004,8.200000000000001
1698674975936.0,16,-1.4000000000000001,9.600000000000001,-1.7000000000000002,-2.7,18.6,1.2000000000000002,16.700000000000003,22.3,17.7
1698674975953.0,16,-1.9000000000000001,7.1000000000000005,-2.2,-3.1,16.2,0.6000000000000001,21.8,-25.900000000000002,25.700000000000003
1698674975970.0,16,-1.5,3.7,-3.2,-3.3000000000000003,14.200000000000001,-0.2,-0.30000000000000004,-9.4,16.1
1698674975986.0,16,-0.2,2.6,-2.4000000000000004,-1.3,11.700000000000001,0.30000000000000004,-15.399999999999999,3.6,7.1000000000000005
1698674976003.0,16,1.0,1.0,0.8,-0.1,10.100000000000001,3.5,-18.0,18.8,-5.6
1698674976019.0,16,1.1,-2.2,5.6000000000000005,0.0,6.9,8.4,29.500000000000004,-2.8,-0.30000000000000004
1698674976036.0,16,0.2,-3.8000000000000003,7.7,-0.9,5.4,10.4,75.7,-9.5,8.799999999999999
1698674976053.0,16,-1.9000000000000001,-3.1,7.1000000000000005,-2.8000000000000003,6.1000000000000005,9.4,149.20000000000002,-29.600000000000005,49.7
1698674976069.0,16,-2.6,3.6,4.4,-3.3000000000000003,12.9,6.4,99.5,-62.300000000000004,83.8
1698674976088.0,16,-0.4,4.5,2.7,-2.5,13.5,4.7,-40.4,32.7,75.4
1698674976103.0,16,1.8,5.300000000000001,3.3000000000000003,1.4000000000000001,14.700000000000001,5.5,-86.7,60.20000000000001,55.0
1698674976119.0,16,1.9000000000000001,3.7,2.8000000000000003,1.5,13.100000000000001,5.300000000000001,-87.60000000000001,17.0,-9.8
1698674976138.0,16,0.1,2.1,1.3,-1.1,10.9,2.4000000000000004,-51.5,-19.200000000000003,-19.3
1698674976153.0,16,-1.0,1.4000000000000001,-1.1,-1.5,10.700000000000001,1.7000000000000002,-45.4,-18.6,-13.0
1698674976170.0,16,-1.3,-0.30000000000000004,-0.5,-1.8,9.0,2.3000000000000003,-32.2,0.5,-9.700000000000001
1698674976187.0,16,-1.3,-1.5,-0.30000000000000004,-1.8,7.800000000000001,2.6,-19.400000000000002,7.6,-12.8
1698674976203.0,16,-1.2000000000000002,-3.5,-1.1,-1.7000000000000002,5.7,1.8,7.1000000000000005,-0.1,-18.3
1698674976220.0,16,-1.0,-5.0,-1.6,-1.6,4.2,1.2000000000000002,16.900000000000002,-9.9,-20.8
1698674976236.0,16,-0.9,-5.7,-1.8,-1.6,3.5,1.0,16.400000000000002,-10.5,-21.400000000000002
1698674976253.0,16,-0.8,-6.4,-1.9000000000000001,-1.6,2.7,0.8,10.9,-11.2,-20.4
1698674976270.0,16,-0.8,-6.5,-1.7000000000000002,-1.6,2.6,1.0,4.5,-10.4,-18.1
1698674976287.0,16,-0.8,-6.1000000000000005,-1.6,-1.7000000000000002,3.0,1.2000000000000002,2.0,-7.500000000000001,-17.0
1698674976303.0,16,-0.8,-4.6000000000000005,-1.3,-1.7000000000000002,4.4,1.4000000000000001,-3.9,2.0,-14.200000000000001
1698674976320.0,16,-0.30000000000000004,-2.8000000000000003,-1.6,-1.3,6.2,1.2000000000000002,-12.3,1.0,-12.8
1698674976336.0,16,0.1,-2.1,-2.0,-0.5,7.4,0.5,-22.3,-25.6,-9.200000000000001
1698674976353.0,16,0.5,-1.1,-2.2,-0.4,7.800000000000001,0.6000000000000001,-26.500000000000004,-35.7,-7.300000000000001
1698674976370.0,16,-0.1,0.1,-1.9000000000000001,-1.0,9.0,1.0,-24.7,-31.3,-0.5
1698674976386.0,16,-0.2,2.3000000000000003,-1.6,-1.1,11.200000000000001,1.3,-13.3,-13.100000000000001,8.600000000000001
1698674976404.0,16,0.1,4.3,-1.2000000000000002,-0.8,13.200000000000001,1.7000000000000002,-5.6,-6.2,9.3
1698674976420.0,16,1.6,9.200000000000001,-0.4,0.8,18.2,2.5,14.3,5.500000000000001,-3.7000000000000006
1698674976436.0,16,2.3000000000000003,10.3,-0.4,1.4000000000000001,18.7,1.8,23.6,11.5,-16.1
1698674976453.0,16,1.3,7.7,-2.4000000000000004,0.4,16.8,0.4,22.3,22.900000000000002,-20.8
1698674976469.0,16,-1.6,3.9000000000000004,-1.8,-2.6,13.100000000000001,0.9,-14.500000000000002,34.900000000000006,21.5
1698674976487.0,16,-2.7,3.1,-0.2,-3.6,12.3,2.5,-23.6,37.800000000000004,38.400000000000006
1698674976504.0,16,-3.6,1.9000000000000001,1.6,-4.5,11.100000000000001,4.4,1.8,2.7,50.6
1698674976522.0,16,-2.3000000000000003,0.0,5.1000000000000005,-3.0,9.200000000000001,7.800000000000001,51.900000000000006,-39.6,32.7
1698674976537.0,16,-0.2,-0.5,8.1,-0.9,8.8,10.600000000000001,101.7,-12.8,-31.099999999999998
1698674976553.0,16,0.4,-0.30000000000000004,5.2,-0.4,9.0,7.6000000000000005,96.7,-3.2,-71.6
1698674976571.0,16,0.7000000000000001,-0.4,0.5,-0.4,8.9,2.8000000000000003,5.0,-3.4,-85.5
1698674976587.0,16,2.0,-0.4,2.0,0.7000000000000001,8.9,4.3,-43.900000000000006,38.6,-79.00000000000001
1698674976603.0,16,0.9,1.6,3.2,-0.6000000000000001,10.8,5.7,-66.7,70.7,-71.2
1698674976620.0,16,-1.4000000000000001,1.6,0.4,-3.0,10.700000000000001,3.1,-43.800000000000004,-27.400000000000002,-21.3
1698674976637.0,16,-0.2,1.3,0.2,-1.8,10.5,3.0,-36.4,-47.7,10.8
1698674976653.0,16,0.1,-0.6000000000000001,-0.30000000000000004,-1.4000000000000001,8.6,2.6,-23.5,-17.200000000000003,23.400000000000002
1698674976670.0,16,0.0,-3.0,-1.0,-1.4000000000000001,6.2,1.9000000000000001,-4.9,-8.200000000000001,9.4
1698674976686.0,16,0.5,-3.8000000000000003,-1.3,-1.0,5.300000000000001,1.7000000000000002,0.9,-10.3,5.7
1698674976703.0,16,1.3,-4.800000000000001,-1.2000000000000002,-0.1,4.3,1.7000000000000002,2.0,-1.0,2.3000000000000003
1698674976720.0,16,2.2,-5.300000000000001,-1.5,0.8,3.8000000000000003,1.4000000000000001,-2.6,15.7,-1.0999999999999999
1698674976736.0,16,2.5,-5.300000000000001,-1.6,1.2000000000000002,3.8000000000000003,1.2000000000000002,-9.8,18.5,-4.2
1698674976753.0,16,2.4000000000000004,-5.1000000000000005,-1.6,1.0,3.9000000000000004,1.3,-12.4,15.6,-3.3000000000000003
1698674976770.0,16,2.2,-4.2,-1.4000000000000001,0.9,4.7,1.5,-13.6,5.8,4.1000000000000005
1698674976787.0,16,1.8,-2.9000000000000004,-1.1,0.4,5.9,1.9000000000000001,-9.8,6.000000000000001,10.4
1698674976803.0,16,1.3,-2.4000000000000004,-1.1,-0.2,6.9,1.6,-6.5,11.5,13.8
1698674976820.0,16,0.7000000000000001,-1.7000000000000002,-1.6,-0.6000000000000001,7.2,1.3,-1.6,23.1,15.2
1698674976837.0,16,0.4,-1.3,-2.0,-0.9,7.5,0.9,-0.2,26.500000000000004,12.100000000000001
1698674976856.0,16,0.1,-0.4,-2.8000000000000003,-1.2000000000000002,8.4,0.1,-3.2,31.900000000000002,8.200000000000001
1698674976870.0,16,0.2,1.4000000000000001,-2.5,-1.1,10.200000000000001,0.30000000000000004,-13.4,47.300000000000004,9.700000000000001
1698674976886.0,16,0.1,5.2,-1.5,-1.3,14.0,1.4000000000000001,-11.1,52.1,10.700000000000001
1698674976903.0,16,-0.6000000000000001,7.5,-1.6,-1.9000000000000001,16.400000000000002,1.3,-3.0000000000000004,40.0,10.8
1698674976920.0,16,-2.3000000000000003,9.3,-1.8,-3.6,18.3,1.0,15.9,-5.8,18.0
1698674976936.0,16,-2.5,7.6000000000000005,-2.4000000000000004,-3.7,16.7,0.4,20.8,-17.7,18.5
1698674976953.0,16,-1.3,3.5,-3.1,-2.5,12.600000000000001,-0.4,7.6,-12.9,3.6
1698674976970.0,16,0.4,1.2000000000000002,0.30000000000000004,-0.9,10.3,3.0,-1.8,5.2,-10.2
1698674976986.0,16,0.9,-1.3,5.0,-0.30000000000000004,7.800000000000001,7.6000000000000005,42.6,-10.0,-3.4
1698674977003.0,16,0.4,-2.9000000000000004,7.6000000000000005,-0.9,6.2,10.200000000000001,85.2,-17.5,7.500000000000001
1698674977019.0,16,-0.7000000000000001,-3.1,7.5,-1.8,6.2,9.600000000000001,159.9,-41.6,47.5
1698674977036.0,16,-2.0,2.6,5.0,-2.8000000000000003,12.0,6.800000000000001,108.8,-89.0,74.0
1698674977053.0,16,-2.2,3.4000000000000004,3.2,-2.9000000000000004,12.8,5.0,36.7,-45.0,77.1
1698674977070.0,16,0.6000000000000001,4.800000000000001,3.4000000000000004,0.1,14.3,5.4,-85.60000000000001,50.7,66.60000000000001
1698674977086.0,16,2.4000000000000004,4.0,2.7,1.9000000000000001,13.4,5.1000000000000005,-94.0,10.5,10.5
1698674977103.0,16,0.2,0.6000000000000001,0.2,0.2,11.100000000000001,4.0,-72.8,-19.1,-13.100000000000001
1698674977120.0,16,0.0,0.4,-0.5,-0.4,9.700000000000001,2.1,-45.3,-23.2,-15.299999999999999
1698674977136.0,16,-0.2,0.0,-0.8,-0.7000000000000001,9.3,2.0,-27.6,5.6,-11.2
1698674977153.0,16,-0.6000000000000001,-0.8,-0.6000000000000001,-1.1,8.5,2.1,-14.600000000000001,10.3,-12.3
1698674977170.0,16,-1.0,-2.7,-1.0,-1.5,6.5,1.7000000000000002,14.200000000000001,-11.2,-11.9
1698674977186.0,16,-1.1,-4.6000000000000005,-1.4000000000000001,-1.7000000000000002,4.7,1.2000000000000002,28.400000000000002,-25.1,-12.5
1698674977203.0,16,-1.0,-5.4,-1.5,-1.7000000000000002,3.9000000000000004,1.1,29.200000000000003,-20.8,-13.3
1698674977220.0,16,-0.8,-6.4,-1.5,-1.5,2.8000000000000003,1.0,25.6,-6.4,-17.8
1698674977236.0,16,-0.7000000000000001,-6.300000000000001,-1.5,-1.4000000000000001,2.9000000000000004,0.9,16.2,6.2,-22.000000000000004
1698674977253.0,16,-0.30000000000000004,-5.800000000000001,-1.3,-0.8,4.2,1.2000000000000002,3.5,19.200000000000003,-21.0
1698674977270.0,16,0.4,-4.1000000000000005,-1.4000000000000001,-0.4,5.0,1.0,-2.6,19.8,-17.7
1698674977287.0,16,0.5,-2.7,-2.0,-0.4,6.300000000000001,0.4,-14.800000000000002,6.2,-4.6000000000000005
1698674977303.0,16,0.0,-1.5,-2.5,-0.9,7.5,0.0,-26.500000000000004,-9.8,5.8
1698674977321.0,16,-0.5,-1.0,-2.2,-1.4000000000000001,8.1,0.30000000000000004,-28.900000000000002,-15.9,9.1
1698674977336.0,16,-1.3,0.30000000000000004,-1.9000000000000001,-2.1,9.3,0.6000000000000001,-20.3,-17.0,13.200000000000001
1698674977353.0,16,-0.6000000000000001,2.9000000000000004,-1.6,-1.4000000000000001,12.0,1.0,-6.9,2.9,9.5
1698674977370.0,16,0.1,4.9,-1.0,-0.7000000000000001,14.0,1.6,1.8,15.000000000000002,3.4
1698674977386.0,16,1.8,8.8,-0.2,1.0,18.0,2.3000000000000003,26.700000000000003,28.400000000000002,-10.1
1698674977403.0,16,1.1,7.800000000000001,-1.1,0.2,17.0,1.2000000000000002,38.400000000000006,31.5,-13.6
1698674977420.0,16,-0.30000000000000004,6.5,-2.5,-1.2000000000000002,15.700000000000001,-0.2,28.3,26.700000000000003,-1.5000000000000002
1698674977436.0,16,-3.3000000000000003,3.5,-1.7000000000000002,-4.2,12.8,0.6000000000000001,-16.700000000000003,18.8,25.400000000000002
1698674977453.0,16,-4.0,1.3,0.7000000000000001,-4.9,11.5,1.9000000000000001,-26.8,16.2,33.7
1698674977471.0,16,-3.4000000000000004,0.5,1.7000000000000002,-4.1000000000000005,9.8,4.1000000000000005,-5.1,-20.6,36.0
1698674977486.0,16,-2.1,-1.6,4.7,-2.7,7.7,7.0,41.7,-40.2,9.1
1698674977503.0,16,1.2000000000000002,-1.4000000000000001,7.0,0.4,8.0,9.200000000000001,79.10000000000001,-28.900000000000002,-54.5
1698674977521.0,16,2.0,0.30000000000000004,6.4,1.1,9.700000000000001,8.5,74.30000000000001,-24.6,-85.9
1698674977536.0,16,2.6,2.0,0.9,1.4000000000000001,11.3,2.9000000000000004,1.9,-7.500000000000001,-98.0
1698674977553.0,16,2.7,1.4000000000000001,1.5,0.4,10.5,6.0,-48.50000000000001,29.200000000000003,-91.7
1698674977571.0,16,0.1,1.6,3.8000000000000003,-1.5,10.8,6.1000000000000005,-70.10000000000001,42.300000000000004,-61.300000000000004
1698674977587.0,16,-0.6000000000000001,2.5,0.1,-2.2,11.700000000000001,2.6,-40.4,-53.8,0.7
1698674977603.0,16,-0.6000000000000001,1.6,0.1,-2.2,10.8,2.7,-31.3,-46.300000000000004,12.9
1698674977620.0,16,-0.7000000000000001,0.7000000000000001,0.2,-2.2,9.9,2.9000000000000004,-19.8,-29.400000000000002,6.6000000000000005
1698674977636.0,16,-0.2,-2.0,-1.5,-1.7000000000000002,7.300000000000001,1.2000000000000002,2.4000000000000004,-18.7,-10.0
1698674977653.0,16,1.1,-3.4000000000000004,-1.8,-0.4,5.800000000000001,0.9,-2.1,-21.5,-10.4
1698674977670.0,16,1.7000000000000002,-4.0,-1.6,0.2,5.2,1.1,-7.2,-17.8,-8.600000000000001
1698674977686.0,16,2.4000000000000004,-4.800000000000001,-1.5,0.9,4.3,1.2000000000000002,-14.500000000000002,-10.3,-7.8
1698674977703.0,16,2.5,-5.0,-1.5,1.0,4.0,1.2000000000000002,-17.599999999999998,-6.1000000000000005,-4.3999999999999995
1698674977720.0,16,2.4000000000000004,-5.1000000000000005,-1.7000000000000002,0.9,3.9000000000000004,1.1,-18.7,-3.5,-0.6000000000000001
1698674977736.0,16,2.0,-4.7,-1.7000000000000002,0.6000000000000001,4.2,1.2000000000000002,-20.8,0.8,9.1
1698674977753.0,16,1.7000000000000002,-3.9000000000000004,-1.4000000000000001,0.30000000000000004,5.0,1.4000000000000001,-17.9,4.300000000000001,11.6
1698674977769.0,16,1.4000000000000001,-3.5,-1.5,0.0,5.4,1.4000000000000001,-15.100000000000001,7.6,11.000000000000002
1698674977786.0,16,0.9,-2.6,-1.9000000000000001,-0.4,6.300000000000001,1.0,-11.2,16.900000000000002,6.7
1698674977803.0,16,0.9,-1.5,-2.2,-0.4,7.300000000000001,0.7000000000000001,-11.6,27.900000000000002,2.5
1698674977819.0,16,1.1,-0.5,-2.0,-0.6000000000000001,9.700000000000001,1.3,-12.000000000000002,46.4,1.8
1698674977836.0,16,-0.1,2.4000000000000004,-1.4000000000000001,-1.5,11.200000000000001,1.6,-7.699999999999999,51.5,6.3
1698674977853.0,16,-1.9000000000000001,5.9,-1.5,-3.3000000000000003,14.700000000000001,1.4000000000000001,7.9,33.900000000000006,23.0
1698674977871.0,16,-2.0,7.1000000000000005,-1.4000000000000001,-3.4000000000000004,16.1,1.4000000000000001,14.900000000000002,13.8,29.800000000000004
1698674977887.0,16,-1.9000000000000001,7.300000000000001,-1.7000000000000002,-3.2,16.3,1.1,24.000000000000004,-5.300000000000001,17.599999999999998
1698674977903.0,16,-0.6000000000000001,5.7,-2.5,-1.9000000000000001,14.8,0.2,8.4,4.9,-7.699999999999999
1698674977920.0,16,1.3,4.800000000000001,-0.6000000000000001,-0.1,13.9,2.2,-14.0,11.1,-15.000000000000002
1698674977936.0,16,1.4000000000000001,4.0,0.9,0.0,13.100000000000001,3.6,-12.9,6.6000000000000005,-16.2
1698674977953.0,16,1.1,-0.5,4.6000000000000005,-0.30000000000000004,8.6,7.300000000000001,21.700000000000003,-9.3,-3.3000000000000003
1698674977971.0,16,0.30000000000000004,-2.9000000000000004,5.9,-1.1,6.300000000000001,8.6,53.50000000000001,-5.4,9.5
1698674977987.0,16,-0.5,-3.5,5.6000000000000005,-1.8,5.7,8.0,101.4,-21.0,46.2
1698674978003.0,16,-0.8,-0.6000000000000001,4.1000000000000005,-1.8,8.700000000000001,6.300000000000001,68.5,-62.900000000000006,60.00000000000001
1698674978019.0,16,-0.9,1.0,3.0,-1.8,10.4,5.2,-23.700000000000003,0.0,55.2
1698674978037.0,16,-0.5,2.5,3.5,-1.3,11.8,5.800000000000001,-58.00000000000001,35.5,49.4
1698674978053.0,16,1.9000000000000001,4.800000000000001,2.6,1.2000000000000002,14.100000000000001,5.2,-66.1,12.700000000000001,22.000000000000004
1698674978070.0,16,1.3,3.3000000000000003,1.5,0.6000000000000001,12.600000000000001,4.2,-51.2,-15.5,-2.5
1698674978086.0,16,0.2,0.4,-0.5,-0.5,9.700000000000001,2.3000000000000003,-32.5,-15.5,-21.0
1698674978103.0,16,-0.6000000000000001,-0.8,-0.7000000000000001,-1.4000000000000001,8.4,2.2,-22.900000000000002,6.1000000000000005,-14.900000000000002
1698674978120.0,16,-1.0,-2.1,-0.7000000000000001,-1.9000000000000001,7.1000000000000005,2.2,-0.1,-5.8,-7.300000000000001
1698674978136.0,16,-1.0,-2.6,-1.1,-1.9000000000000001,6.6000000000000005,1.8,10.1,-17.599999999999998,-5.9
1698674978153.0,16,-0.9,-3.6,-1.5,-1.8,5.6000000000000005,1.3,16.900000000000002,-25.2,-7.300000000000001
1698674978170.0,16,-0.7000000000000001,-4.4,-1.6,-1.6,4.7,1.2000000000000002,14.500000000000002,-22.8,-11.4
1698674978188.0,16,-0.8,-4.7,-1.6,-1.7000000000000002,4.4,1.2000000000000002,13.700000000000001,-22.2,-13.0
1698674978203.0,16,-0.9,-4.9,-1.5,-1.8,4.2,1.2000000000000002,13.5,-17.5,-14.800000000000002
1698674978220.0,16,-0.8,-4.800000000000001,-1.5,-1.6,4.5,1.0,11.2,-4.5,-18.900000000000002
1698674978237.0,16,-0.5,-4.2,-1.7000000000000002,-1.5,4.800000000000001,0.9,7.699999999999999,1.9,-22.2
1698674978253.0,16,0.1,-3.2,-1.8,-0.9,5.800000000000001,0.8,-0.9,-2.1,-23.3
1698674978271.0,16,0.30000000000000004,-2.7,-1.9000000000000001,-0.8,6.300000000000001,0.7000000000000001,-5.500000000000001,-12.200000000000001,-18.8
1698674978286.0,16,0.5,-1.8,-2.2,-0.6000000000000001,7.1000000000000005,0.4,-15.6,-28.8,-4.7
1698674978304.0,16,0.30000000000000004,-0.8,-2.2,-0.8,8.1,0.5,-19.700000000000003,-37.2,7.9
1698674978321.0,16,-0.4,0.6000000000000001,-3.7,-1.4000000000000001,9.5,-1.0,-19.8,-41.300000000000004,16.8
1698674978337.0,16,-1.1,3.3000000000000003,-4.5,-2.0,12.200000000000001,-1.7000000000000002,-35.5,-66.1,17.400000000000002
1698674978353.0,16,-1.7000000000000002,5.300000000000001,-3.1,-2.5,14.200000000000001,-0.2,-43.300000000000004,-77.3,14.200000000000001
1698674978371.0,16,-2.1,9.4,0.0,-2.8000000000000003,18.400000000000002,3.0,-26.400000000000002,-61.4,3.2
1698674978386.0,16,-1.6,10.100000000000001,-0.1,-1.2000000000000002,17.2,2.2,-5.2,-41.6,-4.300000000000001
1698674978403.0,16,0.6000000000000001,5.800000000000001,-1.4000000000000001,-0.1,14.9,1.5,22.3,-15.000000000000002,-20.8
1698674978420.0,16,1.5,3.1,-1.4000000000000001,0.7000000000000001,12.200000000000001,1.4000000000000001,13.200000000000001,11.3,-24.3
1698674978436.0,16,0.6000000000000001,1.4000000000000001,2.9000000000000004,-0.2,10.5,5.7,11.9,45.9,-3.9
1698674978453.0,16,0.4,1.3,4.0,-0.5,10.5,6.9,29.900000000000006,40.6,8.200000000000001
1698674978470.0,16,0.7000000000000001,0.8,5.800000000000001,-0.2,10.0,8.6,48.2,12.8,7.699999999999999
1698674978488.0,16,2.3000000000000003,0.2,10.5,1.4000000000000001,9.5,13.100000000000001,71.0,-42.7,-34.400000000000006
1698674978503.0,16,0.4,-0.6000000000000001,2.4000000000000004,-0.6000000000000001,8.700000000000001,4.9,21.8,-1.8,-59.20000000000001
1698674978520.0,16,0.2,-3.6,2.2,-1.0,5.6000000000000005,4.9,-57.3,75.60000000000001,-24.3
1698674978536.0,16,-1.6,2.3000000000000003,4.9,-2.9000000000000004,11.4,7.7,-37.4,54.2,-10.9
1698674978553.0,16,-2.7,5.1000000000000005,1.7000000000000002,-4.1000000000000005,14.3,4.6000000000000005,-9.9,21.8,-7.8
1698674978571.0,16,-0.4,5.4,0.30000000000000004,-1.7000000000000002,14.600000000000001,3.2,-4.5,-16.400000000000002,-8.9
1698674978586.0,16,0.2,3.7,1.5,-1.2000000000000002,12.9,4.4,-2.9,0.5,-11.6
1698674978603.0,16,1.0,-0.5,0.6000000000000001,-0.2,7.5,3.0,11.3,3.6,-5.9
1698674978620.0,16,1.6,-2.7,-0.2,0.1,6.5,2.6,3.5,4.300000000000001,-4.6000000000000005
1698674978637.0,16,1.8,-3.5,-0.6000000000000001,0.30000000000000004,5.7,2.3000000000000003,-6.1000000000000005,12.4,-4.3999999999999995
1698674978654.0,16,2.0,-4.7,-1.1,0.5,4.5,1.7000000000000002,-19.9,28.200000000000003,-4.800000000000001
1698674978670.0,16,2.0,-5.2,-1.3,0.5,3.8000000000000003,1.6,-23.3,30.4,-1.7
1698674978687.0,16,1.8,-5.4,-1.4000000000000001,0.30000000000000004,3.5,1.6,-19.8,24.8,6.5
1698674978705.0,16,1.6,-5.4,-1.4000000000000001,0.1,3.6,1.6,-16.3,20.1,13.3
1698674978720.0,16,1.1,-4.9,-1.5,-0.30000000000000004,4.1000000000000005,1.5,-6.7,11.3,28.0
1698674978737.0,16,1.0,-4.4,-1.6,-0.4,5.1000000000000005,1.2000000000000002,0.9,12.9,33.800000000000004
1698674978753.0,16,0.6000000000000001,-3.1,-1.7000000000000002,-0.7000000000000001,5.800000000000001,1.3,2.7,16.2,30.7
1698674978770.0,16,-0.30000000000000004,-1.5,-1.7000000000000002,-1.5,7.4,1.2000000000000002,6.000000000000001,17.7,23.2
1698674978787.0,16,-0.5,-0.2,-2.0,-1.7000000000000002,8.700000000000001,0.9,6.1000000000000005,11.4,12.9
1698674978803.0,16,-0.6000000000000001,0.1,-2.1,-1.8,9.0,0.8,4.6000000000000005,8.600000000000001,7.400000000000001
1698674978820.0,16,-0.4,-0.5,-2.3000000000000003,-1.6,8.4,0.5,1.3,6.1000000000000005,2.7
1698674978836.0,16,0.0,-0.8,-2.6,-1.2000000000000002,8.1,0.2,-1.3,6.000000000000001,3.5
1698674978853.0,16,0.6000000000000001,-0.2,-3.1,-0.5,8.700000000000001,-0.2,-13.100000000000001,14.800000000000002,6.000000000000001
1698674978870.0,16,0.7000000000000001,2.7,-1.9000000000000001,-0.5,11.600000000000001,1.0,-21.400000000000002,34.800000000000004,10.5
1698674978886.0,16,-0.30000000000000004,7.4,-1.4000000000000001,-1.4000000000000001,16.400000000000002,1.5,-7.699999999999999,24.7,13.4
1698674978903.0,16,-0.8,9.3,-1.2000000000000002,-1.9000000000000001,18.3,1.7000000000000002,5.300000000000001,1.8,14.500000000000002
1698674978920.0,16,-1.5,7.2,-1.8,-2.6,16.2,1.0,30.5,-26.3,9.700000000000001
1698674978936.0,16,-0.7000000000000001,2.4000000000000004,-2.2,-1.8,11.600000000000001,0.5,26.700000000000003,-8.799999999999999,-3.4
1698674978953.0,16,-0.30000000000000004,1.2000000000000002,-1.2000000000000002,-1.4000000000000001,10.4,1.4000000000000001,20.4,1.3,-7.9
1698674978970.0,16,0.7000000000000001,-0.30000000000000004,0.7000000000000001,-0.4,8.9,3.3000000000000003,23.3,-5.4,-5.6
1698674978986.0,16,1.6,-3.0,5.800000000000001,0.5,6.2,8.200000000000001,48.7,-26.6,1.8
1698674979003.0,16,1.1,-4.4,8.200000000000001,0.1,4.800000000000001,10.600000000000001,82.0,-29.900000000000006,8.3
1698674979019.0,16,-0.5,-2.5,7.7,-1.4000000000000001,6.7,9.8,121.6,-65.2,42.900000000000006
1698674979036.0,16,-2.8000000000000003,5.4,5.0,-3.4000000000000004,14.8,6.9,50.0,-37.7,77.0
1698674979052.0,16,-1.1,5.9,2.8000000000000003,-1.5,15.3,4.800000000000001,-59.80000000000001,36.9,83.2
1698674979069.0,16,1.3,5.300000000000001,2.8000000000000003,1.0,14.8,5.1000000000000005,-88.7,44.8,65.4
1698674979086.0,16,1.8,1.9000000000000001,1.7000000000000002,1.5,11.3,4.2,-79.7,-0.30000000000000004,-8.3
1698674979103.0,16,0.5,0.7000000000000001,0.4,0.2,10.100000000000001,3.1,-62.0,-21.1,-28.500000000000004
1698674979120.0,16,0.0,1.2000000000000002,-1.1,-0.4,10.600000000000001,1.7000000000000002,-45.1,-16.2,-26.3
1698674979136.0,16,-1.0,0.6000000000000001,-0.6000000000000001,-1.5,9.8,2.3000000000000003,-27.5,6.000000000000001,-8.600000000000001
1698674979153.0,16,-1.0,-0.5,-0.6000000000000001,-1.4000000000000001,8.8,2.3000000000000003,-11.3,5.8,-5.0
1698674979170.0,16,-1.2000000000000002,-2.6,-0.9,-1.7000000000000002,6.7,1.9000000000000001,18.900000000000002,-13.4,-8.600000000000001
1698674979186.0,16,-1.5,-4.3,-1.4000000000000001,-2.0,4.9,1.3,32.300000000000004,-23.0,-13.4
1698674979203.0,16,-1.3,-5.6000000000000005,-1.7000000000000002,-1.9000000000000001,3.6,0.9,29.700000000000003,-19.400000000000002,-20.5
1698674979219.0,16,-1.2000000000000002,-6.0,-1.7000000000000002,-1.8,3.2,0.9,25.1,-17.8,-25.8
1698674979236.0,16,-1.1,-6.0,-1.4000000000000001,-1.8,3.2,1.1,13.5,-12.3,-34.50000000000001
1698674979253.0,16,-0.7000000000000001,-5.4,-1.3,-1.4000000000000001,3.8000000000000003,1.2000000000000002,7.300000000000001,-6.8,-35.1
1698674979270.0,16,0.30000000000000004,-3.7,-1.3,-0.5,5.4,1.1,-4.9,-2.0,-29.900000000000006
1698674979286.0,16,0.6000000000000001,-2.3000000000000003,-1.9000000000000001,-0.30000000000000004,6.7,0.6000000000000001,-17.3,-6.9,-17.1
1698674979303.0,16,0.6000000000000001,-1.8,-2.2,-0.30000000000000004,7.2,0.4,-23.1,-11.8,-8.700000000000001
1698674979320.0,16,0.4,-1.3,-2.6,-0.5,7.7,0.1,-29.400000000000002,-26.400000000000002,5.500000000000001
1698674979336.0,16,-0.1,-1.1,-2.3000000000000003,-1.0,7.9,0.4,-27.2,-33.300000000000004,12.9
1698674979353.0,16,-0.6000000000000001,0.2,-2.7,-1.3,9.200000000000001,0.1,-18.5,-29.300000000000004,16.6
1698674979370.0,16,-0.6000000000000001,1.5,-2.5,-1.3,10.5,0.2,-15.399999999999999,-25.3,15.2
1698674979386.0,16,-0.4,5.2,-0.9,-1.1,14.200000000000001,1.9000000000000001,0.5,-20.3,7.1000000000000005
1698674979403.0,16,1.1,8.6,0.1,0.4,17.7,2.8000000000000003,34.400000000000006,-11.000000000000002,-8.200000000000001
1698674979420.0,16,1.1,7.9,-0.4,0.4,17.1,2.2,46.5,-1.6,-15.399999999999999
1698674979436.0,16,-1.0,3.8000000000000003,-2.5,-1.7000000000000002,13.0,0.0,35.5,11.1,0.1
1698674979460.0,16,-2.1,1.1,0.30000000000000004,-2.8000000000000003,10.3,2.8000000000000003,1.4,17.599999999999998,22.3
1698674979470.0,16,-2.1,1.1,0.30000000000000004,-2.8000000000000003,10.3,2.8000000000000003,1.4,17.599999999999998,22.3
1698674979486.0,16,-1.5,0.4,3.3000000000000003,-2.1,9.600000000000001,5.6000000000000005,32.7,-16.0,-2.6
1698674979503.0,16,1.1,0.4,7.2,0.4,9.700000000000001,9.5,60.20000000000001,-22.4,-48.400000000000006
1698674979521.0,16,2.2,1.9000000000000001,8.5,1.4000000000000001,11.200000000000001,10.700000000000001,71.5,-10.3,-72.7
1698674979536.0,16,2.0,2.8000000000000003,2.8000000000000003,0.9,12.100000000000001,4.800000000000001,51.900000000000006,4.1000000000000005,-87.9
1698674979553.0,16,1.0,-0.4,3.2,-0.30000000000000004,8.9,5.2,-35.1,59.9,-55.6
1698674979570.0,16,0.2,-1.0,4.5,-1.2000000000000002,8.3,6.6000000000000005,-50.1,62.199999999999996,-35.4
1698674979587.0,16,-1.8,0.30000000000000004,1.3,-3.2,9.600000000000001,3.6,-31.900000000000002,-5.300000000000001,7.400000000000001
1698674979605.0,16,-1.3,1.4000000000000001,0.6000000000000001,-2.7,10.700000000000001,3.0,-22.3,-13.8,15.100000000000001
1698674979620.0,16,-0.5,1.5,1.0,-1.9000000000000001,10.8,3.4000000000000004,-13.9,-6.7,9.600000000000001
1698674979636.0,16,0.5,0.4,0.4,-0.9,9.700000000000001,2.8000000000000003,10.5,-0.7,-9.0
1698674979654.0,16,1.2000000000000002,-0.5,0.1,-0.2,8.8,2.5,15.100000000000001,-7.400000000000001,-10.3
1698674979669.0,16,1.6,-2.0,-0.30000000000000004,0.2,7.2,2.1,4.0,-4.7,-3.8
1698674979687.0,16,1.6,-3.0,-0.5,0.2,6.300000000000001,1.9000000000000001,-18.3,7.699999999999999,3.5
1698674979703.0,16,1.3,-3.3000000000000003,-0.8,-0.1,5.9,1.6,-29.700000000000003,5.7,4.6000000000000005
1698674979720.0,16,0.9,-3.1,-1.0,-0.4,6.0,1.6,-31.8,4.1000000000000005,5.500000000000001
1698674979736.0,16,0.9,-3.0,-1.1,-0.5,6.1000000000000005,1.5,-30.599999999999998,7.699999999999999,6.4
1698674979752.0,16,0.8,-2.6,-1.3,-0.6000000000000001,6.5,1.3,-25.700000000000003,15.100000000000001,8.3
1698674979769.0,16,0.7000000000000001,-2.3000000000000003,-1.4000000000000001,-0.6000000000000001,6.800000000000001,1.3,-22.6,16.1,9.5
1698674979786.0,16,0.2,-2.0,-1.5,-1.1,7.0,1.2000000000000002,-15.100000000000001,13.200000000000001,12.8
1698674979803.0,16,-0.1,-2.1,-2.1,-1.3,6.9,0.7000000000000001,-9.4,10.3,7.400000000000001
1698674979821.0,16,0.1,-2.2,-2.1,-1.1,6.800000000000001,0.6000000000000001,-7.300000000000001,7.9,1.9
1698674979837.0,16,0.7000000000000001,-2.1,-2.0,-0.6000000000000001,6.9,0.7000000000000001,-1.2000000000000002,9.700000000000001,-9.200000000000001
1698674979853.0,16,1.3,-1.1,-2.2,0.0,7.9,0.5,2.7,30.100000000000005,-12.5
1698674979872.0,16,1.3,1.0,-1.4000000000000001,-0.1,9.9,1.2000000000000002,4.6000000000000005,50.7,-12.6
1698674979886.0,16,1.0,2.1,-1.0,-0.5,11.100000000000001,1.6,10.4,51.400000000000006,-9.1
1698674979903.0,16,-0.1,3.3000000000000003,-0.6000000000000001,-1.6,12.4,1.9000000000000001,19.3,42.800000000000004,-1.9
1698674979919.0,16,-0.2,3.4000000000000004,-0.7000000000000001,-1.6,12.5,1.7000000000000002,34.800000000000004,16.5,20.4
1698674979936.0,16,-0.9,3.2,-0.9,-2.3000000000000003,12.3,1.5,29.400000000000002,18.6,18.8
1698674979953.0,16,-0.2,2.4000000000000004,-0.1,-1.6,11.5,2.2,15.100000000000001,25.1,7.400000000000001
1698674979969.0,16,0.5,1.8,0.9,-0.8,11.0,3.1,5.7,21.8,6.7
1698674979987.0,16,0.6000000000000001,1.1,1.8,-0.7000000000000001,10.3,4.0,3.9,18.400000000000002,11.000000000000002
1698674980003.0,16,-0.30000000000000004,-0.8,4.800000000000001,-1.6,8.4,7.1000000000000005,21.5,23.0,24.200000000000003
1698674980020.0,16,-1.1,-1.0,5.2,-2.4000000000000004,8.200000000000001,7.4,40.3,28.6,32.5
1698674980036.0,16,-2.1,-0.2,4.800000000000001,-3.3000000000000003,9.1,6.800000000000001,55.4,9.4,52.0
1698674980053.0,16,-1.4000000000000001,0.1,3.1,-2.4000000000000004,9.5,5.1000000000000005,22.2,5.0,62.199999999999996
1698674980069.0,16,-0.8,0.30000000000000004,3.2,-1.7000000000000002,9.600000000000001,5.1000000000000005,-4.0,19.500000000000004,61.7
1698674980086.0,16,0.4,2.0,3.5,-0.30000000000000004,11.4,5.6000000000000005,-33.400000000000006,37.5,53.300000000000004
1698674980103.0,16,0.5,3.3000000000000003,2.6,-0.1,12.600000000000001,4.800000000000001,-24.000000000000004,23.700000000000003,39.1
1698674980120.0,16,-0.4,2.8000000000000003,1.7000000000000002,-0.9,12.100000000000001,3.9000000000000004,-17.3,20.7,32.6
1698674980136.0,16,-1.0,2.1,1.0,-1.5,11.5,3.2,-13.8,28.900000000000002,25.2
1698674980153.0,16,-0.2,1.3,0.8,-0.7000000000000001,10.700000000000001,3.1,-8.3,30.799999999999997,15.5
1698674980169.0,16,-0.1,0.5,0.5,-0.5,9.9,2.9000000000000004,-5.9,35.9,10.700000000000001
1698674980186.0,16,-0.2,-1.2000000000000002,-0.2,-0.7000000000000001,8.200000000000001,2.1,-6.9,40.1,9.0
1698674980203.0,16,-0.2,-2.0,-0.6000000000000001,-0.6000000000000001,7.4,1.8,-14.800000000000002,32.300000000000004,13.200000000000001
1698674980220.0,16,0.0,-2.3000000000000003,-0.6000000000000001,-0.5,7.1000000000000005,1.8,-19.200000000000003,28.200000000000003,13.700000000000001
1698674980236.0,16,-0.2,-3.2,-0.6000000000000001,-0.7000000000000001,6.1000000000000005,1.9000000000000001,-24.400000000000002,26.0,16.3
1698674980253.0,16,-0.5,-3.3000000000000003,-0.8,-0.9,6.0,1.8,-23.3,28.200000000000003,18.8
1698674980270.0,16,-0.7000000000000001,-3.2,-0.8,-1.0,6.0,1.7000000000000002,-22.2,30.4,21.3
1698674980286.0,16,-0.7000000000000001,-2.8000000000000003,-0.9,-1.0,6.4,1.7000000000000002,-17.5,37.4,21.5
1698674980303.0,16,-0.6000000000000001,-2.7,-1.7000000000000002,-1.0,6.5,0.9,-13.9,37.300000000000004,17.3
1698674980321.0,16,-0.6000000000000001,-2.7,-2.1,-0.9,6.300000000000001,0.2,-18.0,35.0,21.6
1698674980336.0,16,-0.6000000000000001,-2.7,-2.5,-0.9,6.4,0.2,-21.3,35.3,24.3
1698674980353.0,16,-0.6000000000000001,-1.9000000000000001,-1.8,-0.9,7.1000000000000005,0.9,-21.8,39.00000000000001,28.1
1698674980369.0,16,0.0,0.0,-1.0,-0.2,9.1,1.7000000000000002,-6.5,49.5,27.900000000000002
1698674980386.0,16,1.1,2.5,-0.30000000000000004,1.0,11.600000000000001,2.4000000000000004,17.3,65.4,22.6
1698674980404.0,16,1.9000000000000001,3.4000000000000004,0.0,1.7000000000000002,12.5,2.6,30.5,70.39999999999999,17.3
1698674980420.0,16,2.0,3.4000000000000004,0.5,1.8,12.600000000000001,3.0,52.400000000000006,77.4,9.600000000000001
1698674980436.0,16,0.8,3.2,0.6000000000000001,0.6000000000000001,12.4,3.0,57.3,77.9,15.399999999999999
1698674980453.0,16,-1.8,2.7,0.6000000000000001,-2.0,12.0,2.8000000000000003,47.900000000000006,78.7,40.8
1698674980470.0,16,-3.1,2.4000000000000004,0.30000000000000004,-3.9000000000000004,11.0,2.7,9.700000000000001,83.4,44.5
1698674980486.0,16,-3.7,0.2,3.0,-3.8000000000000003,9.5,5.300000000000001,-27.2,82.30000000000001,35.7
1698674980503.0,16,-3.2,0.2,4.7,-3.3000000000000003,9.5,7.0,-29.800000000000004,89.7,25.700000000000003
1698674980519.0,16,0.0,1.2000000000000002,4.2,-0.2,10.5,6.6000000000000005,-14.800000000000002,94.0,-14.700000000000001
1698674980537.0,16,1.6,0.4,3.0,1.3,9.700000000000001,5.5,-9.600000000000001,80.30000000000001,-33.800000000000004
1698674980553.0,16,3.5,-0.5,3.4000000000000004,3.1,8.8,5.9,-6.5,84.2,-35.3
1698674980571.0,16,2.8000000000000003,-0.6000000000000001,3.3000000000000003,1.0,8.4,5.1000000000000005,-16.900000000000002,118.2,-10.2
1698674980586.0,16,0.7000000000000001,-0.8,1.7000000000000002,0.1,8.4,4.3,-32.1,119.4,16.6
1698674980603.0,16,0.2,-0.2,0.6000000000000001,-0.30000000000000004,9.0,3.4000000000000004,-57.1,123.19999999999999,39.8
1698674980620.0,16,-0.1,0.4,0.6000000000000001,-0.6000000000000001,9.600000000000001,3.5,-50.2,111.70000000000002,39.1
1698674980637.0,16,0.2,0.6000000000000001,0.2,-0.30000000000000004,9.700000000000001,3.1,-38.7,105.80000000000001,39.8
1698674980653.0,16,1.4000000000000001,0.6000000000000001,0.1,0.9,9.700000000000001,3.1,-19.0,111.0,40.0
1698674980672.0,16,2.3000000000000003,0.2,0.6000000000000001,1.4000000000000001,9.5,3.4000000000000004,0.30000000000000004,124.50000000000001,34.400000000000006
1698674980686.0,16,2.6,0.1,0.7000000000000001,2.1,9.3,3.7,6.7,127.40000000000002,33.300000000000004
1698674980703.0,16,2.4000000000000004,0.1,0.30000000000000004,1.9000000000000001,9.3,3.2,1.3,134.8,34.800000000000004
1698674980720.0,16,1.9000000000000001,-0.30000000000000004,-0.30000000000000004,1.4000000000000001,8.9,2.7,-32.2,150.4,49.5
1698674980736.0,16,1.1,-0.4,-0.5,1.1,8.8,2.7,-50.2,162.50000000000003,60.400000000000006
1698674980753.0,16,0.7000000000000001,-0.5,-0.9,0.2,8.6,2.3000000000000003,-67.0,178.10000000000002,74.0
1698674980770.0,16,0.5,-0.8,-1.2000000000000002,0.1,8.200000000000001,2.1,-69.00000000000001,181.0,75.0
1698674980787.0,16,0.4,-1.4000000000000001,-1.7000000000000002,0.0,7.6000000000000005,1.8,-66.1,184.70000000000002,73.10000000000001
1698674980803.0,16,0.7000000000000001,-1.2000000000000002,-1.7000000000000002,0.30000000000000004,7.7,1.9000000000000001,-55.7,191.4,69.00000000000001
1698674980819.0,16,1.0,-0.5,-1.8,0.5,8.4,1.9000000000000001,-37.2,198.4,68.60000000000001
1698674980837.0,16,0.8,-0.2,-1.5,0.30000000000000004,8.6,2.2,-26.700000000000003,200.9,69.80000000000001
1698674980853.0,16,0.4,-0.2,-1.4000000000000001,-0.1,8.6,2.3000000000000003,-3.3000000000000003,208.70000000000002,73.30000000000001
1698674980869.0,16,-0.1,-0.1,-1.2000000000000002,-0.6000000000000001,8.8,2.4000000000000004,14.800000000000002,222.1,72.6
1698674980886.0,16,0.6000000000000001,-0.4,-1.7000000000000002,0.0,8.5,1.7000000000000002,19.700000000000003,221.4,68.2
1698674980903.0,16,1.2000000000000002,-0.6000000000000001,-1.5,0.6000000000000001,8.3,1.9000000000000001,14.3,217.1,65.4
1698674980919.0,16,0.6000000000000001,-0.30000000000000004,-0.30000000000000004,-0.1,8.6,3.0,8.3,217.2,69.5
1698674980936.0,16,-1.1,1.2000000000000002,-1.2000000000000002,-1.8,10.100000000000001,2.1,-10.4,221.7,85.3
1698674980953.0,16,-1.6,1.5,-1.2000000000000002,-2.3000000000000003,10.4,2.1,-24.3,227.3,84.80000000000001
1698674980969.0,16,-2.7,1.5,0.2,-3.5,10.5,3.5,-33.400000000000006,215.9,75.2
1698674980986.0,16,-4.4,2.0,0.0,-4.3,10.700000000000001,3.9000000000000004,-25.3,203.6,73.9
1698674981003.0,16,-5.300000000000001,1.9000000000000001,-0.5,-6.2,10.3,2.8000000000000003,-10.700000000000001,169.0,89.6
1698674981020.0,16,-4.7,0.5,-0.4,-5.4,9.5,2.9000000000000004,-12.3,161.1,92.9
1698674981036.0,16,-2.6,-0.5,0.0,-3.3000000000000003,8.5,3.3000000000000003,-13.200000000000001,152.5,80.4
1698674981052.0,16,-2.0,-0.30000000000000004,0.0,-2.6,8.700000000000001,3.3000000000000003,-11.000000000000002,146.0,66.60000000000001
1698674981070.0,16,-2.0,0.6000000000000001,-0.8,-2.7,9.600000000000001,2.6,-9.200000000000001,133.9,37.5
1698674981086.0,16,-1.9000000000000001,0.5,-1.4000000000000001,-2.6,9.5,1.9000000000000001,-18.7,132.8,28.1
1698674981103.0,16,-1.8,0.2,-1.5,-2.6,9.1,1.9000000000000001,-23.6,130.8,26.700000000000003
1698674981119.0,16,-1.8,-0.30000000000000004,-1.9000000000000001,-2.6,8.6,1.5,-25.8,116.10000000000001,26.500000000000004
1698674981136.0,16,-1.4000000000000001,-0.5,-1.9000000000000001,-2.4000000000000004,8.4,1.5,-25.3,111.80000000000001,29.500000000000004
1698674981153.0,16,-1.2000000000000002,-0.5,-1.7000000000000002,-2.2,8.4,1.7000000000000002,-23.400000000000002,111.2,33.400000000000006
1698674981170.0,16,-0.9,-0.2,-1.5,-1.8,8.700000000000001,1.9000000000000001,-14.3,110.2,42.900000000000006
1698674981186.0,16,-0.8,-0.4,-1.8,-1.8,8.5,1.6,-5.6,108.30000000000001,47.900000000000006
1698674981203.0,16,-1.0,-0.5,-2.0,-1.9000000000000001,8.4,1.4000000000000001,-4.6000000000000005,106.60000000000001,48.800000000000004
1698674981219.0,16,-1.6,-0.30000000000000004,-1.6,-2.6,8.6,1.7000000000000002,-6.2,100.60000000000001,50.300000000000004
1698674981236.0,16,-2.4000000000000004,0.30000000000000004,-1.3,-3.3000000000000003,9.200000000000001,2.0,-5.1,91.4,50.0
1698674981253.0,16,-2.7,0.5,-1.3,-3.6,9.4,2.1,-3.5,87.60000000000001,48.00000000000001
