ts,interval,accx,accy,accz,accGx,accGy,accGz,alpha,beta,gamma
1698411892151.0,16,-0.5,-0.2,0.2,-2.1,1.0,9.8,-0.2,-14.0,3.0000000000000004
1698411892167.0,16,0.0,0.0,0.4,-1.6,1.2000000000000002,10.100000000000001,1.0999999999999999,-12.000000000000002,5.8
1698411892184.0,16,0.30000000000000004,0.1,0.30000000000000004,-1.2000000000000002,1.3,10.100000000000001,4.2,-7.1000000000000005,5.8
1698411892201.0,16,0.30000000000000004,0.2,0.1,-1.2000000000000002,1.4000000000000001,9.9,5.2,-5.1,4.3999999999999995
1698411892218.0,16,0.1,0.0,-0.1,-1.3,1.3,9.600000000000001,4.300000000000001,-5.2,0.8
1698411892234.0,16,-0.1,-0.2,-0.2,-1.6,1.1,9.5,4.300000000000001,-6.8,-1.0999999999999999
1698411892251.0,16,-0.30000000000000004,-0.1,-0.2,-1.7000000000000002,1.2000000000000002,9.600000000000001,4.1000000000000005,-7.400000000000001,-1.2000000000000002
1698411892268.0,16,-0.2,0.0,0.0,-1.6,1.3,9.700000000000001,3.7000000000000006,-7.6,0.30000000000000004
1698411892284.0,16,-0.1,0.1,-0.2,-1.5,1.4000000000000001,9.5,0.7,-6.9,3.7000000000000006
1698411892301.0,16,0.0,0.1,-0.2,-1.4000000000000001,1.4000000000000001,9.5,-0.2,-9.600000000000001,4.300000000000001
1698411892318.0,16,0.30000000000000004,0.1,-0.1,-1.0,1.4000000000000001,9.600000000000001,0.8,-23.700000000000003,-0.9
1698411892335.0,16,-0.30000000000000004,-0.2,0.1,-1.5,1.1,9.8,2.8,-15.100000000000001,-3.7000000000000006
1698411892354.0,16,-0.1,-0.4,0.2,-1.3,0.9,9.9,2.6,-16.0,0.2
1698411892368.0,16,-0.30000000000000004,0.0,0.2,-1.5,1.4000000000000001,9.9,2.0,-8.200000000000001,2.3000000000000003
1698411892386.0,16,-0.1,0.0,0.1,-1.4000000000000001,1.3,9.8,1.4,-8.5,3.7000000000000006
1698411892401.0,16,0.1,-0.1,0.2,-1.1,1.3,10.0,5.300000000000001,-12.000000000000002,3.7000000000000006
1698411892418.0,16,0.1,-0.2,0.2,-1.0,1.2000000000000002,10.0,9.8,-12.700000000000001,3.7000000000000006
1698411892435.0,16,0.1,-0.1,0.0,-1.0,1.3,9.8,10.3,-10.9,4.1000000000000005
1698411892452.0,16,0.1,0.0,-0.2,-1.0,1.4000000000000001,9.600000000000001,8.0,-8.3,4.5
1698411892469.0,16,0.1,0.0,0.1,-1.0,1.4000000000000001,9.9,6.8,-7.2,4.1000000000000005
1698411892485.0,16,0.1,0.0,0.30000000000000004,-0.9,1.4000000000000001,10.100000000000001,6.9,-4.9,4.3999999999999995
1698411892502.0,16,0.30000000000000004,0.1,0.1,-0.7000000000000001,1.6,9.9,8.200000000000001,-0.30000000000000004,3.6
1698411892518.0,16,0.1,0.1,-0.1,-0.8,1.7000000000000002,9.700000000000001,8.3,-0.1,0.9
1698411892536.0,16,0.0,0.0,-0.30000000000000004,-1.0,1.5,9.4,6.2,0.6000000000000001,-0.5
1698411892552.0,16,-0.1,-0.1,-0.4,-1.1,1.5,9.4,4.6000000000000005,1.0,-0.6000000000000001
1698411892569.0,16,0.0,-0.1,-0.30000000000000004,-1.0,1.5,9.4,0.4,3.1,0.0
1698411892586.0,16,0.0,0.0,-0.30000000000000004,-1.0,1.6,9.4,-1.6,3.5,0.1
1698411892601.0,16,-0.1,0.0,0.0,-1.1,1.6,9.8,-3.1,0.0,-1.4
1698411892618.0,16,-0.1,0.0,0.2,-1.1,1.5,9.9,-2.7,-0.4,-1.7
1698411892634.0,16,-0.1,0.0,0.2,-1.1,1.5,10.0,-0.8,-0.4,-1.4
1698411892652.0,16,-0.1,-0.1,0.30000000000000004,-1.1,1.5,10.0,0.30000000000000004,0.0,-0.8
1698411892668.0,16,-0.1,-0.1,0.1,-1.1,1.4000000000000001,9.9,3.7000000000000006,1.4,0.1
1698411892685.0,16,-0.1,0.0,-0.1,-1.1,1.5,9.600000000000001,4.2,1.0999999999999999,1.6
1698411892703.0,16,0.0,0.1,-0.2,-1.0,1.6,9.5,3.9,0.1,1.8
1698411892719.0,16,0.0,0.0,-0.2,-1.0,1.5,9.600000000000001,2.5,-1.4,-0.30000000000000004
1698411892735.0,16,0.1,0.0,-0.2,-1.0,1.6,9.600000000000001,-0.2,0.2,0.0
1698411892752.0,16,0.1,0.0,-0.1,-1.0,1.6,9.600000000000001,-1.6,1.2000000000000002,-0.2
1698411892769.0,16,0.0,0.0,-0.1,-1.0,1.5,9.700000000000001,-2.7,1.5000000000000002,-0.8
1698411892786.0,16,0.0,0.0,-0.1,-1.0,1.5,9.600000000000001,-3.4,2.3000000000000003,-1.2000000000000002
1698411892801.0,16,-0.1,-0.1,0.1,-1.2000000000000002,1.5,9.9,-3.5,1.7,-0.4
1698411892818.0,16,0.0,0.0,0.1,-1.1,1.5,9.8,-2.7,1.9,0.30000000000000004
1698411892837.0,16,0.0,0.0,0.0,-1.1,1.5,9.700000000000001,-2.4000000000000004,2.3000000000000003,0.6000000000000001
1698411892851.0,16,0.0,0.0,0.1,-1.1,1.5,9.8,-1.8,0.5,1.0999999999999999
1698411892868.0,16,0.0,0.0,0.1,-1.0,1.5,9.9,1.0,-0.7,0.1
1698411892885.0,16,0.0,0.0,0.0,-1.1,1.5,9.700000000000001,1.3,-0.30000000000000004,0.0
1698411892901.0,16,0.0,-0.1,0.0,-1.1,1.5,9.700000000000001,1.0,-0.1,0.30000000000000004
1698411892918.0,16,0.0,-0.1,-0.1,-1.1,1.4000000000000001,9.700000000000001,0.2,1.0999999999999999,0.8
1698411892935.0,16,0.1,0.1,-0.1,-1.0,1.6,9.600000000000001,-0.5,0.9,0.4
1698411892951.0,16,0.1,0.0,0.0,-0.9,1.6,9.700000000000001,-0.7,0.30000000000000004,0.1
1698411892968.0,16,0.1,0.1,0.0,-1.0,1.6,9.700000000000001,-1.0,1.0,-0.8
1698411892985.0,16,0.0,0.0,0.0,-1.0,1.5,9.700000000000001,-1.7,0.8,-1.0999999999999999
1698411893001.0,16,-0.1,-0.1,-0.1,-1.2000000000000002,1.4000000000000001,9.600000000000001,-2.1,0.7,-1.2000000000000002
1698411893018.0,16,-0.1,0.0,-0.1,-1.2000000000000002,1.5,9.600000000000001,-2.3000000000000003,0.30000000000000004,-0.7
1698411893034.0,16,-0.1,-0.1,0.2,-1.2000000000000002,1.4000000000000001,10.0,-1.9,0.1,0.0
1698411893052.0,16,0.0,-0.1,0.30000000000000004,-1.1,1.4000000000000001,10.0,-0.6000000000000001,0.9,0.4
1698411893068.0,16,0.0,0.0,0.0,-1.1,1.5,9.8,1.0999999999999999,2.7,0.9
1698411893085.0,16,0.0,0.0,-0.2,-1.1,1.5,9.5,0.9,-0.1,0.8
1698411893101.0,16,0.0,0.0,-0.1,-1.1,1.5,9.600000000000001,0.4,-1.7,-0.2
1698411893118.0,16,0.0,0.0,0.0,-1.1,1.5,9.700000000000001,-0.2,-1.2000000000000002,-0.2
1698411893134.0,16,-0.1,0.0,0.0,-1.2000000000000002,1.5,9.700000000000001,-1.0,-0.4,0.1
1698411893151.0,16,-0.1,0.0,0.1,-1.1,1.5,9.8,-0.2,-0.7,0.6000000000000001
1698411893168.0,16,0.0,0.0,0.0,-1.1,1.4000000000000001,9.8,0.1,-0.7,0.8
1698411893185.0,16,0.1,0.0,-0.1,-1.0,1.5,9.700000000000001,-0.2,0.30000000000000004,0.30000000000000004
1698411893202.0,16,0.1,0.0,0.1,-1.0,1.5,9.8,-1.0,0.8,0.0
1698411893218.0,16,0.1,0.1,0.1,-1.0,1.5,9.9,-0.7,0.7,-0.5
1698411893235.0,16,0.0,0.0,0.1,-1.1,1.5,9.8,0.6000000000000001,1.3,-1.3
1698411893251.0,16,0.0,0.0,0.0,-1.1,1.5,9.8,0.9,1.7,-0.9
1698411893268.0,16,0.0,0.0,0.0,-1.1,1.5,9.8,1.2000000000000002,1.7,-0.5
1698411893285.0,16,0.0,0.0,-0.1,-1.1,1.5,9.600000000000001,1.7,0.5,-0.8
1698411893302.0,16,-0.1,-0.1,-0.1,-1.2000000000000002,1.4000000000000001,9.600000000000001,0.7,-1.3,-1.2000000000000002
1698411893318.0,16,-0.1,-0.1,0.0,-1.2000000000000002,1.4000000000000001,9.700000000000001,0.0,-1.5000000000000002,-1.2000000000000002
1698411893335.0,16,0.0,0.0,0.0,-1.1,1.4000000000000001,9.700000000000001,-0.4,-0.30000000000000004,-0.30000000000000004
1698411893352.0,16,0.0,0.0,0.1,-1.1,1.5,9.8,-0.2,-0.1,0.1
1698411893369.0,16,0.0,0.0,0.1,-1.1,1.5,9.9,1.0,0.0,0.1
1698411893385.0,16,0.1,0.0,0.0,-1.0,1.5,9.8,1.8,0.9,0.1
1698411893402.0,16,0.0,0.1,-0.1,-1.1,1.6,9.600000000000001,1.2000000000000002,2.0,-0.2
1698411893418.0,16,0.0,0.1,-0.2,-1.1,1.6,9.5,1.0999999999999999,1.4,-0.5
1698411893435.0,16,0.0,0.0,-0.2,-1.1,1.5,9.5,-0.5,0.30000000000000004,-1.3
1698411893452.0,16,-0.1,0.0,-0.1,-1.2000000000000002,1.5,9.600000000000001,-1.5000000000000002,0.6000000000000001,-1.4
1698411893468.0,16,0.0,0.0,0.1,-1.2000000000000002,1.5,9.9,-1.0,1.7,-1.0
1698411893485.0,16,0.0,0.0,0.1,-1.1,1.5,9.9,-0.1,1.4,-1.0999999999999999
1698411893502.0,16,0.0,0.0,-0.1,-1.2000000000000002,1.5,9.700000000000001,1.0999999999999999,0.1,-1.0999999999999999
1698411893518.0,16,0.0,0.0,-0.2,-1.1,1.5,9.600000000000001,0.8,-0.2,-1.0999999999999999
1698411893535.0,16,0.0,0.0,-0.2,-1.2000000000000002,1.5,9.5,-1.6,-0.1,-0.9
1698411893552.0,16,0.0,0.0,-0.1,-1.2000000000000002,1.5,9.600000000000001,-2.6,-1.0,-0.9
1698411893568.0,16,-0.1,-0.1,0.1,-1.2000000000000002,1.4000000000000001,9.9,-2.9,-0.8,-0.5
1698411893584.0,16,-0.1,-0.1,0.2,-1.2000000000000002,1.4000000000000001,9.9,-2.8,0.2,0.6000000000000001
1698411893601.0,16,0.0,0.0,0.4,-1.2000000000000002,1.5,10.100000000000001,-0.1,-0.30000000000000004,1.4
1698411893619.0,16,0.1,0.0,0.4,-1.1,1.5,10.100000000000001,2.4000000000000004,-0.4,1.2000000000000002
1698411893635.0,16,0.1,0.0,-0.1,-1.0,1.5,9.700000000000001,4.0,1.6,1.0
1698411893652.0,16,0.1,0.0,-0.2,-1.0,1.5,9.5,2.9,1.7,0.9
1698411893669.0,16,0.0,0.0,-0.2,-1.1,1.5,9.5,-0.5,-0.4,-0.6000000000000001
1698411893685.0,16,0.0,0.0,-0.1,-1.1,1.5,9.600000000000001,-1.6,-0.5,-0.8
1698411893701.0,16,0.0,0.0,0.1,-1.1,1.5,9.8,-2.9,-0.5,-1.2000000000000002
1698411893718.0,16,0.0,0.0,0.30000000000000004,-1.1,1.5,10.100000000000001,-1.6,0.5,-0.9
1698411893737.0,16,0.0,0.0,0.30000000000000004,-1.2000000000000002,1.5,10.0,1.6,1.4,-0.6000000000000001
1698411893751.0,16,0.0,0.0,0.1,-1.2000000000000002,1.5,9.8,2.7,1.7,-0.30000000000000004
1698411893768.0,16,0.0,0.0,-0.2,-1.1,1.5,9.600000000000001,2.8,1.3,-0.2
1698411893785.0,16,0.0,0.0,-0.30000000000000004,-1.2000000000000002,1.5,9.5,1.3,-1.0999999999999999,-0.6000000000000001
1698411893801.0,16,0.0,-0.1,-0.1,-1.2000000000000002,1.4000000000000001,9.600000000000001,-0.7,-1.2000000000000002,-1.0
1698411893818.0,16,-0.1,-0.1,0.0,-1.2000000000000002,1.4000000000000001,9.700000000000001,-1.9,-0.2,-0.6000000000000001
1698411893835.0,16,0.0,0.0,0.1,-1.1,1.5,9.8,-2.4000000000000004,0.6000000000000001,0.5
1698411893851.0,16,0.0,0.0,0.1,-1.1,1.5,9.9,-0.5,-0.7,0.6000000000000001
1698411893869.0,16,0.1,0.0,0.1,-1.1,1.5,9.9,1.0,0.1,0.30000000000000004
1698411893885.0,16,0.1,0.1,-0.1,-1.1,1.5,9.600000000000001,1.0,1.0999999999999999,0.1
1698411893902.0,16,0.1,0.1,-0.1,-1.1,1.6,9.600000000000001,-0.2,-0.4,-0.8
1698411893918.0,16,0.0,0.0,0.0,-1.1,1.4000000000000001,9.8,-0.30000000000000004,-0.8,-1.5000000000000002
1698411893937.0,16,0.0,0.0,0.1,-1.2000000000000002,1.4000000000000001,9.8,-0.6000000000000001,0.30000000000000004,-1.2000000000000002
1698411893952.0,16,0.0,0.0,0.1,-1.1,1.4000000000000001,9.9,-0.30000000000000004,2.3000000000000003,-0.1
1698411893968.0,16,0.0,0.0,0.1,-1.2000000000000002,1.5,9.8,0.5,2.0,0.1
1698411893984.0,16,0.0,0.0,-0.1,-1.2000000000000002,1.5,9.700000000000001,1.8,0.5,0.1
1698411894002.0,16,0.0,0.0,-0.1,-1.2000000000000002,1.5,9.600000000000001,0.8,0.5,0.4
1698411894018.0,16,0.0,0.0,-0.1,-1.2000000000000002,1.5,9.600000000000001,0.7,-0.30000000000000004,0.4
1698411894035.0,16,0.0,0.0,-0.1,-1.2000000000000002,1.5,9.600000000000001,0.30000000000000004,-2.4000000000000004,0.30000000000000004
1698411894051.0,16,0.0,0.0,0.0,-1.2000000000000002,1.5,9.700000000000001,-1.0999999999999999,-0.7,0.7
1698411894068.0,16,0.0,0.0,-0.1,-1.1,1.5,9.600000000000001,-2.1,0.30000000000000004,0.9
1698411894084.0,16,0.1,0.0,0.1,-1.0,1.5,9.8,-2.4000000000000004,-0.9,0.30000000000000004
1698411894101.0,16,0.0,0.0,0.2,-1.1,1.5,9.9,-1.2000000000000002,-0.5,-0.9
1698411894118.0,16,0.0,0.0,0.2,-1.2000000000000002,1.4000000000000001,9.9,-0.9,0.8,-0.6000000000000001
1698411894135.0,16,0.0,0.0,0.2,-1.2000000000000002,1.4000000000000001,10.0,-0.30000000000000004,0.7,-0.30000000000000004
1698411894152.0,16,0.0,0.0,0.1,-1.1,1.5,9.8,2.7,0.6000000000000001,-0.1
1698411894168.0,16,0.0,-0.1,-0.1,-1.2000000000000002,1.4000000000000001,9.600000000000001,2.9,0.9,0.0
1698411894185.0,16,-0.1,0.0,-0.30000000000000004,-1.2000000000000002,1.5,9.4,0.6000000000000001,-0.30000000000000004,0.7
1698411894202.0,16,0.0,-0.1,-0.2,-1.2000000000000002,1.4000000000000001,9.5,-2.0,-2.1999999999999997,0.5
1698411894218.0,16,0.0,0.0,0.1,-1.1,1.4000000000000001,9.8,-3.4,-1.8,0.6000000000000001
1698411894235.0,16,0.1,0.0,0.1,-1.0,1.5,9.9,-3.2,-0.9,0.6000000000000001
1698411894252.0,16,0.2,0.1,0.30000000000000004,-1.0,1.5,10.0,-1.5000000000000002,0.2,-0.30000000000000004
1698411894268.0,16,0.1,0.0,0.1,-1.0,1.5,9.9,1.0,0.2,-1.2000000000000002
1698411894285.0,16,0.0,0.0,0.0,-1.1,1.5,9.700000000000001,1.3,0.7,-1.4
1698411894301.0,16,0.0,0.0,-0.2,-1.2000000000000002,1.4000000000000001,9.600000000000001,0.1,1.0,-1.0
1698411894318.0,16,-0.1,0.0,-0.1,-1.2000000000000002,1.4000000000000001,9.600000000000001,-0.4,-0.4,-0.8
1698411894334.0,16,-0.1,-0.1,-0.1,-1.2000000000000002,1.4000000000000001,9.700000000000001,-1.5000000000000002,-0.2,-0.2
1698411894352.0,16,-0.1,-0.1,0.1,-1.2000000000000002,1.4000000000000001,9.8,-2.1,-0.1,0.5
1698411894368.0,16,0.0,0.0,0.4,-1.1,1.4000000000000001,10.100000000000001,-0.1,-0.7,0.9
1698411894384.0,16,0.1,0.0,0.0,-1.1,1.5,9.8,2.6,0.2,0.5
1698411894402.0,16,0.0,0.0,-0.2,-1.1,1.5,9.600000000000001,2.1999999999999997,0.0,0.8
1698411894418.0,16,0.0,0.0,-0.2,-1.1,1.5,9.5,0.0,-1.5000000000000002,0.5
1698411894434.0,16,0.1,0.0,-0.2,-1.0,1.4000000000000001,9.600000000000001,-1.8,-0.1,-0.30000000000000004
1698411894451.0,16,0.1,0.0,-0.2,-1.0,1.5,9.600000000000001,-3.0000000000000004,1.0999999999999999,-0.8
1698411894468.0,16,0.1,0.1,0.1,-1.0,1.5,9.8,-4.1000000000000005,2.3000000000000003,-1.4
1698411894485.0,16,0.1,0.1,0.2,-1.0,1.6,10.0,-3.6,2.7,-2.1999999999999997
1698411894501.0,16,0.1,0.2,0.2,-1.1,1.6,9.9,-1.6,4.6000000000000005,-3.6
1698411894518.0,16,0.0,0.1,0.1,-1.2000000000000002,1.6,9.9,-0.4,6.7,-3.6
1698411894534.0,16,-0.2,0.1,0.0,-1.4000000000000001,1.5,9.700000000000001,1.0,7.6,-3.3000000000000003
1698411894551.0,16,-0.2,0.0,-0.2,-1.5,1.5,9.5,1.0,7.0,-2.9
1698411894568.0,16,-0.30000000000000004,0.0,-0.4,-1.6,1.4000000000000001,9.3,-1.6,5.500000000000001,-1.2000000000000002
1698411894584.0,16,-0.30000000000000004,-0.1,-0.1,-1.5,1.3,9.600000000000001,-4.7,2.8,0.8
1698411894601.0,16,-0.2,-0.1,0.0,-1.5,1.3,9.8,-4.300000000000001,1.4,1.3
1698411894618.0,16,-0.2,-0.2,0.1,-1.5,1.2000000000000002,9.8,-2.7,-0.5,3.4
1698411894634.0,16,-0.2,-0.30000000000000004,0.1,-1.4000000000000001,1.1,9.8,-2.1,-1.6,6.5
1698411894651.0,16,0.0,-0.2,0.0,-1.2000000000000002,1.1,9.8,-1.5000000000000002,-3.5,8.5
1698411894668.0,16,0.1,-0.2,0.1,-1.1,1.2000000000000002,9.8,-0.8,-4.6000000000000005,8.799999999999999
1698411894684.0,16,0.30000000000000004,-0.1,0.1,-0.9,1.3,9.8,-0.1,-5.2,8.1
1698411894701.0,16,0.4,0.0,0.2,-0.8,1.3,9.9,0.7,-4.9,6.000000000000001
1698411894718.0,16,0.5,0.1,0.2,-0.7000000000000001,1.4000000000000001,9.9,0.9,-3.9,4.5
1698411894734.0,16,0.4,0.1,0.1,-0.7000000000000001,1.5,9.9,0.7,-1.5000000000000002,1.3
1698411894752.0,16,0.4,0.1,0.0,-0.8,1.5,9.8,0.4,-1.0,-0.7
1698411894768.0,16,0.30000000000000004,0.2,0.0,-0.9,1.5,9.700000000000001,-1.6,0.4,-4.3999999999999995
1698411894785.0,16,0.1,0.2,-0.1,-1.0,1.5,9.700000000000001,-4.800000000000001,3.1,-6.6000000000000005
1698411894801.0,16,0.1,0.2,-0.1,-1.1,1.6,9.700000000000001,-6.1000000000000005,3.6,-7.0
1698411894818.0,16,0.1,0.2,-0.1,-1.1,1.5,9.600000000000001,-6.4,3.2,-7.400000000000001
1698411894835.0,16,0.0,0.2,-0.1,-1.2000000000000002,1.5,9.600000000000001,-8.5,1.8,-6.9
1698411894851.0,16,0.0,0.2,-0.1,-1.2000000000000002,1.5,9.600000000000001,-10.3,2.0,-6.9
1698411894868.0,16,-0.1,0.1,-0.1,-1.3,1.4000000000000001,9.600000000000001,-13.4,-0.9,-7.1000000000000005
1698411894884.0,16,-0.30000000000000004,0.1,0.0,-1.4000000000000001,1.3,9.700000000000001,-13.5,-9.4,-6.3
1698411894901.0,16,-0.4,0.0,0.0,-1.5,1.2000000000000002,9.700000000000001,-12.8,-13.4,-5.2
1698411894918.0,16,-0.5,-0.1,0.1,-1.6,1.1,9.9,-11.700000000000001,-18.3,-1.7
1698411894935.0,16,-0.5,-0.1,0.1,-1.6,1.0,9.9,-10.8,-18.7,0.4
1698411894952.0,16,-0.5,0.0,0.0,-1.5,1.1,9.8,-8.4,-20.3,4.7
1698411894968.0,16,-0.4,0.30000000000000004,0.0,-1.3,1.4000000000000001,9.8,-8.799999999999999,-20.4,9.4
1698411894985.0,16,0.2,0.6000000000000001,0.0,-0.7000000000000001,1.7000000000000002,9.8,-12.000000000000002,-17.1,10.700000000000001
1698411895001.0,16,0.1,0.8,0.0,-0.8,1.9000000000000001,9.8,-14.500000000000002,-13.4,7.400000000000001
1698411895018.0,16,0.0,0.9,0.0,-0.8,1.9000000000000001,9.8,-14.200000000000001,-12.6,5.8
1698411895035.0,16,-0.2,0.6000000000000001,-0.2,-1.0,1.6,9.600000000000001,-11.3,-12.100000000000001,4.5
1698411895052.0,16,-0.30000000000000004,0.7000000000000001,-0.30000000000000004,-1.0,1.6,9.5,-11.3,-11.8,5.2
1698411895068.0,16,-0.1,0.7000000000000001,-0.2,-0.8,1.6,9.600000000000001,-14.4,-7.400000000000001,6.1000000000000005
1698411895085.0,16,0.1,0.9,0.2,-0.6000000000000001,1.7000000000000002,10.100000000000001,-13.9,-6.7,8.600000000000001
1698411895102.0,16,0.2,1.0,0.2,-0.5,1.8,10.100000000000001,-8.5,-7.699999999999999,9.700000000000001
1698411895119.0,16,0.1,0.9,0.0,-0.6000000000000001,1.8,9.8,-2.3000000000000003,-9.3,7.400000000000001
1698411895135.0,16,0.1,0.9,0.0,-0.6000000000000001,1.8,9.8,-2.3000000000000003,-9.3,7.400000000000001
1698411895151.0,16,-0.30000000000000004,0.30000000000000004,-0.1,-0.8,1.2000000000000002,9.700000000000001,7.8,-13.3,6.8
1698411895168.0,16,-0.4,0.30000000000000004,-0.2,-0.9,1.2000000000000002,9.600000000000001,6.1000000000000005,-8.1,7.0
1698411895184.0,16,-0.4,0.1,-0.1,-0.9,1.0,9.8,-1.7,3.7000000000000006,7.6
1698411895201.0,16,-0.5,0.1,-0.1,-1.1,0.9,9.8,-9.4,16.0,6.9
1698411895219.0,16,-0.7000000000000001,0.1,-0.1,-1.3,1.0,9.8,-11.5,17.3,6.4
1698411895234.0,16,-0.8,-0.1,0.1,-1.5,0.8,10.0,-7.699999999999999,13.0,7.2
1698411895252.0,16,-0.8,-0.2,0.1,-1.5,0.6000000000000001,10.0,-3.3000000000000003,10.2,8.600000000000001
1698411895268.0,16,-0.8,-0.30000000000000004,-0.1,-1.5,0.6000000000000001,9.8,4.9,5.300000000000001,12.4
1698411895285.0,16,-0.6000000000000001,-0.30000000000000004,-0.1,-1.3,0.6000000000000001,9.8,8.0,3.8,17.0
1698411895302.0,16,-0.4,-0.2,-0.1,-1.1,0.7000000000000001,9.700000000000001,7.6,5.4,18.1
1698411895318.0,16,-0.2,0.1,-0.30000000000000004,-0.9,1.0,9.600000000000001,3.0000000000000004,10.700000000000001,17.1
1698411895335.0,16,-0.1,0.1,-0.30000000000000004,-0.9,1.0,9.5,-3.0000000000000004,11.6,13.700000000000001
1698411895352.0,16,0.0,0.1,-0.1,-0.8,1.0,9.8,-5.1,10.600000000000001,12.700000000000001
1698411895370.0,16,0.1,0.1,0.30000000000000004,-0.8,0.9,10.200000000000001,-3.9,11.000000000000002,12.8
1698411895386.0,16,0.1,0.0,0.4,-0.8,0.9,10.200000000000001,2.8,11.8,14.3
1698411895403.0,16,0.1,0.1,0.1,-0.8,1.0,9.9,7.9,13.100000000000001,17.5
1698411895418.0,16,0.2,0.2,0.0,-0.7000000000000001,1.1,9.8,8.700000000000001,13.100000000000001,19.1
1698411895436.0,16,0.4,0.4,-0.2,-0.6000000000000001,1.4000000000000001,9.600000000000001,9.200000000000001,15.299999999999999,20.0
1698411895452.0,16,0.4,0.6000000000000001,-0.30000000000000004,-0.6000000000000001,1.6,9.5,8.5,16.3,19.0
1698411895468.0,16,0.5,0.6000000000000001,-0.30000000000000004,-0.5,1.6,9.5,7.6,15.000000000000002,14.700000000000001
1698411895484.0,16,0.30000000000000004,0.4,-0.7000000000000001,-0.7000000000000001,1.5,9.1,8.4,13.8,12.5
1698411895502.0,16,0.1,0.4,-0.7000000000000001,-0.9,1.5,9.0,6.2,9.0,14.100000000000001
1698411895518.0,16,0.1,0.4,-0.7000000000000001,-1.0,1.5,9.1,5.6,7.2,15.5
1698411895534.0,16,0.1,0.30000000000000004,-0.6000000000000001,-1.0,1.4000000000000001,9.200000000000001,4.9,5.0,18.5
1698411895551.0,16,0.1,0.4,-0.4,-1.0,1.6,9.4,4.6000000000000005,3.8,21.8
1698411895568.0,16,0.0,0.5,-0.30000000000000004,-1.1,1.7000000000000002,9.5,5.4,2.8,22.2
1698411895584.0,16,-0.1,0.6000000000000001,-0.2,-1.2000000000000002,1.8,9.5,7.6,1.0999999999999999,22.7
1698411895601.0,16,-0.1,0.6000000000000001,-0.1,-1.2000000000000002,1.9000000000000001,9.700000000000001,6.5,5.0,20.900000000000002
1698411895618.0,16,-0.1,0.5,0.0,-1.3,1.8,9.700000000000001,4.9,10.2,20.2
1698411895635.0,16,-0.30000000000000004,0.30000000000000004,-0.30000000000000004,-1.5,1.6,9.5,3.7000000000000006,18.7,21.8
1698411895651.0,16,-0.5,0.2,-0.5,-1.7000000000000002,1.6,9.200000000000001,3.7000000000000006,18.900000000000002,26.500000000000004
1698411895669.0,16,-0.5,0.2,-0.4,-1.8,1.5,9.3,3.7000000000000006,15.5,31.2
1698411895685.0,16,-0.6000000000000001,0.1,-0.4,-2.0,1.5,9.3,4.2,14.3,33.6
1698411895701.0,16,-0.7000000000000001,-0.1,-0.4,-2.0,1.3,9.3,7.500000000000001,7.8,40.5
1698411895718.0,16,-0.6000000000000001,-0.1,-0.4,-1.9000000000000001,1.3,9.200000000000001,9.700000000000001,3.9,43.900000000000006
1698411895735.0,16,-0.4,-0.2,-0.2,-1.7000000000000002,1.3,9.5,13.200000000000001,-0.1,49.9
1698411895751.0,16,-0.1,-0.2,-0.30000000000000004,-1.3,1.3,9.4,13.9,4.300000000000001,52.800000000000004
1698411895768.0,16,-0.1,-0.1,-0.4,-1.4000000000000001,1.5,9.3,7.6,11.3,52.50000000000001
1698411895785.0,16,0.0,-0.1,-0.4,-1.3,1.5,9.200000000000001,3.7000000000000006,13.3,51.800000000000004
1698411895802.0,16,0.0,-0.2,-0.1,-1.3,1.4000000000000001,9.5,0.30000000000000004,14.600000000000001,51.0
1698411895818.0,16,-0.1,-0.5,0.5,-1.4000000000000001,1.1,10.200000000000001,-0.8,18.8,50.6
1698411895834.0,16,0.0,-0.8,0.6000000000000001,-1.4000000000000001,0.9,10.3,4.2,20.8,50.5
1698411895851.0,16,0.1,-1.1,0.2,-1.3,0.7000000000000001,9.8,8.600000000000001,14.800000000000002,51.0
1698411895868.0,16,0.1,-1.2000000000000002,0.1,-1.3,0.6000000000000001,9.700000000000001,7.400000000000001,9.700000000000001,50.6
1698411895884.0,16,0.4,-1.4000000000000001,0.30000000000000004,-1.0,0.4,9.9,-1.2000000000000002,4.300000000000001,48.400000000000006
1698411895901.0,16,0.7000000000000001,-1.7000000000000002,1.0,-0.7000000000000001,0.0,10.600000000000001,-9.200000000000001,-0.6000000000000001,42.6
1698411895918.0,16,1.0,-2.0,1.8,-0.30000000000000004,-0.30000000000000004,11.4,-10.9,-1.9,33.2
1698411895934.0,16,1.1,-2.1,1.8,-0.2,-0.4,11.5,-10.4,0.6000000000000001,27.7
1698411895951.0,16,0.9,-2.2,1.5,-0.4,-0.5,11.200000000000001,-11.000000000000002,6.4,15.299999999999999
1698411895968.0,16,0.6000000000000001,-2.2,1.1,-0.6000000000000001,-0.6000000000000001,10.9,-12.6,6.9,9.8
1698411895985.0,16,0.5,-2.3000000000000003,1.0,-0.8,-0.7000000000000001,10.700000000000001,-16.2,1.7,0.30000000000000004
1698411896002.0,16,0.5,-2.3000000000000003,1.2000000000000002,-0.8,-0.8,10.9,-19.8,-0.2,-7.9
1698411896020.0,16,0.4,-2.2,1.2000000000000002,-0.9,-0.8,10.9,-22.3,3.0000000000000004,-11.700000000000001
1698411896036.0,16,0.2,-2.0,1.2000000000000002,-1.1,-0.7000000000000001,11.0,-28.700000000000003,14.0,-18.3
1698411896051.0,16,-0.1,-1.9000000000000001,1.1,-1.6,-0.7000000000000001,10.8,-33.300000000000004,22.000000000000004,-22.1
1698411896068.0,16,-0.2,-1.9000000000000001,0.9,-1.7000000000000002,-0.8,10.700000000000001,-32.0,19.1,-21.6
1698411896085.0,16,-0.2,-1.8,1.0,-1.7000000000000002,-0.8,10.700000000000001,-29.700000000000003,14.200000000000001,-20.0
1698411896101.0,16,-0.1,-1.6,0.7000000000000001,-1.7000000000000002,-0.8,10.5,-24.400000000000002,7.2,-15.5
1698411896118.0,16,-0.1,-1.5,0.6000000000000001,-1.7000000000000002,-0.7000000000000001,10.4,-21.6,-1.0,-11.4
1698411896134.0,16,-0.2,-1.0,0.30000000000000004,-1.8,-0.30000000000000004,10.100000000000001,-21.8,-5.0,-11.3
1698411896152.0,16,-0.30000000000000004,-1.1,0.2,-1.9000000000000001,-0.5,10.0,-28.1,-7.9,-8.0
1698411896168.0,16,0.1,-0.7000000000000001,0.7000000000000001,-1.4000000000000001,-0.2,10.600000000000001,-33.0,-13.4,-3.6
1698411896184.0,16,0.1,-0.7000000000000001,0.8,-1.4000000000000001,-0.2,10.600000000000001,-35.1,-9.1,-6.5
1698411896201.0,16,0.0,-0.6000000000000001,0.30000000000000004,-1.5,-0.4,10.100000000000001,-45.5,4.5,-10.4
1698411896218.0,16,-0.1,-0.6000000000000001,0.4,-1.6,-0.5,10.200000000000001,-56.7,8.9,-12.3
1698411896234.0,16,-0.2,-0.5,0.5,-1.7000000000000002,-0.6000000000000001,10.3,-58.800000000000004,7.0,-12.6
1698411896251.0,16,-0.4,-0.5,0.7000000000000001,-1.9000000000000001,-0.7000000000000001,10.5,-57.00000000000001,-7.2,-11.3
1698411896268.0,16,-0.30000000000000004,-0.5,1.0,-1.8,-0.9,10.9,-53.2,-22.000000000000004,-6.8
1698411896285.0,16,-0.30000000000000004,-0.4,1.2000000000000002,-1.8,-0.9,11.100000000000001,-52.400000000000006,-25.2,-4.2
1698411896302.0,16,-0.30000000000000004,-0.1,1.6,-1.6,-0.8,11.5,-53.50000000000001,-24.7,-0.30000000000000004
1698411896318.0,16,-0.2,-0.1,2.0,-1.5,-1.0,11.9,-54.3,-16.5,2.1
1698411896336.0,16,-0.1,0.0,2.1,-1.4000000000000001,-1.0,12.0,-54.3,-9.5,3.3000000000000003
1698411896352.0,16,-0.2,0.30000000000000004,1.8,-1.4000000000000001,-0.8,11.700000000000001,-50.300000000000004,2.0,3.9
1698411896368.0,16,0.2,0.5,1.3,-1.1,-0.8,11.200000000000001,-45.800000000000004,2.6,1.4
1698411896385.0,16,0.8,0.7000000000000001,1.4000000000000001,-0.5,-0.7000000000000001,11.200000000000001,-42.900000000000006,-3.9,2.1
1698411896401.0,16,-0.1,0.8,1.4000000000000001,-1.3,-0.7000000000000001,11.3,-30.200000000000003,-15.9,-5.7
1698411896418.0,16,0.4,0.8,0.9,-0.8,-0.8,10.8,-29.000000000000004,-19.0,-4.9
1698411896435.0,16,0.1,0.8,1.3,-1.0,-0.8,11.200000000000001,-35.6,-16.3,-6.9
1698411896451.0,16,-0.2,0.8,1.6,-1.3,-1.0,11.5,-35.199999999999996,-13.0,-7.500000000000001
1698411896468.0,16,-0.1,0.6000000000000001,1.6,-1.2000000000000002,-1.3,11.5,-29.700000000000003,-9.9,-2.8
1698411896484.0,16,0.0,0.7000000000000001,1.5,-1.0,-1.2000000000000002,11.4,-22.000000000000004,-10.2,2.4000000000000004
1698411896501.0,16,0.4,1.0,1.1,-0.6000000000000001,-1.0,11.0,-18.1,-12.200000000000001,2.5
1698411896518.0,16,0.6000000000000001,1.1,0.6000000000000001,-0.30000000000000004,-0.9,10.4,-12.9,-13.200000000000001,-1.6
1698411896535.0,16,0.6000000000000001,1.1,0.2,-0.4,-0.9,9.8,-14.600000000000001,-12.700000000000001,-7.6
1698411896551.0,16,0.30000000000000004,1.2000000000000002,-0.1,-0.6000000000000001,-0.9,9.700000000000001,-17.9,-12.3,-10.600000000000001
1698411896568.0,16,0.1,0.9,0.1,-0.8,-1.2000000000000002,10.0,-22.900000000000002,-12.100000000000001,-15.2
1698411896585.0,16,0.0,0.8,0.4,-0.8,-1.4000000000000001,10.200000000000001,-22.8,-11.2,-16.3
1698411896603.0,16,-0.2,0.7000000000000001,0.5,-1.0,-1.5,10.3,-20.4,-9.9,-16.6
1698411896619.0,16,-0.6000000000000001,0.5,0.2,-1.3,-1.8,10.0,-10.1,-9.9,-13.4
1698411896634.0,16,-0.7000000000000001,0.5,0.1,-1.4000000000000001,-1.8,9.9,-6.3,-12.5,-8.0
1698411896651.0,16,-0.6000000000000001,0.5,0.0,-1.3,-1.8,9.9,-4.800000000000001,-14.500000000000002,-5.6
1698411896668.0,16,-0.6000000000000001,0.6000000000000001,0.2,-1.2000000000000002,-1.7000000000000002,10.0,-2.6,-18.5,-2.7
1698411896684.0,16,-0.6000000000000001,0.7000000000000001,0.4,-1.1,-1.7000000000000002,10.200000000000001,-1.6,-22.3,-2.3000000000000003
1698411896701.0,16,-0.5,0.7000000000000001,0.6000000000000001,-1.0,-1.7000000000000002,10.4,-1.8,-22.1,-2.8
1698411896718.0,16,-0.6000000000000001,0.6000000000000001,1.1,-1.0,-1.7000000000000002,10.9,-1.8,-18.5,-4.6000000000000005
1698411896734.0,16,-0.7000000000000001,0.6000000000000001,1.2000000000000002,-1.1,-1.8,11.100000000000001,0.6000000000000001,-12.6,-5.9
1698411896751.0,16,-0.9,0.5,1.3,-1.2000000000000002,-1.8,11.200000000000001,2.5,-9.4,-5.7
1698411896768.0,16,-1.0,0.4,1.2000000000000002,-1.4000000000000001,-1.9000000000000001,11.100000000000001,9.9,-3.8,-3.5
1698411896784.0,16,-1.1,0.4,0.7000000000000001,-1.4000000000000001,-1.8,10.600000000000001,16.6,-0.2,0.6000000000000001
1698411896801.0,16,-0.9,0.5,0.5,-1.3,-1.7000000000000002,10.4,18.2,0.7,2.8
1698411896819.0,16,-0.8,0.6000000000000001,0.2,-1.2000000000000002,-1.5,10.200000000000001,19.400000000000002,0.9,4.7
1698411896834.0,16,-0.7000000000000001,0.5,0.2,-1.1,-1.6,10.100000000000001,23.700000000000003,0.6000000000000001,5.1
1698411896851.0,16,-0.6000000000000001,0.4,0.1,-1.0,-1.6,10.0,26.6,1.3,5.300000000000001
1698411896868.0,16,-0.6000000000000001,0.4,-0.4,-1.0,-1.5,9.600000000000001,29.200000000000003,4.7,5.500000000000001
1698411896884.0,16,-0.4,0.30000000000000004,-0.6000000000000001,-0.8,-1.5,9.4,31.3,7.0,5.1
1698411896901.0,16,-0.4,0.2,-0.8,-0.8,-1.5,9.200000000000001,32.7,7.6,4.1000000000000005
1698411896918.0,16,-0.30000000000000004,0.1,-1.1,-0.8,-1.5,8.9,33.800000000000004,8.700000000000001,2.5
1698411896934.0,16,-0.2,0.0,-1.2000000000000002,-0.7000000000000001,-1.5,8.8,33.900000000000006,5.8,1.7
1698411896951.0,16,-0.1,0.0,-1.2000000000000002,-0.6000000000000001,-1.4000000000000001,8.9,37.300000000000004,0.0,-0.8
1698411896968.0,16,-0.1,-0.1,-1.1,-0.6000000000000001,-1.4000000000000001,8.9,39.300000000000004,-2.3000000000000003,-2.1999999999999997
1698411896984.0,16,0.0,-0.2,-1.2000000000000002,-0.5,-1.4000000000000001,8.8,42.0,-4.9,-4.300000000000001
1698411897001.0,16,0.1,-0.2,-1.2000000000000002,-0.4,-1.4000000000000001,8.8,42.0,-4.3999999999999995,-5.500000000000001
1698411897018.0,16,0.30000000000000004,-0.2,-1.2000000000000002,-0.2,-1.1,8.8,39.8,-0.30000000000000004,-8.200000000000001
1698411897034.0,16,0.4,-0.1,-1.1,0.0,-0.9,8.9,39.2,6.4,-13.0
1698411897052.0,16,0.5,-0.1,-1.3,0.0,-0.8,8.700000000000001,39.8,9.5,-16.0
1698411897069.0,16,0.5,-0.2,-1.7000000000000002,-0.1,-0.8,8.4,40.3,13.9,-20.7
1698411897084.0,16,0.5,-0.2,-1.9000000000000001,0.0,-0.7000000000000001,8.1,40.0,14.100000000000001,-22.3
1698411897101.0,16,0.6000000000000001,-0.2,-1.9000000000000001,0.2,-0.5,8.1,40.6,10.4,-24.6
1698411897118.0,16,0.9,-0.2,-1.9000000000000001,0.2,-0.5,8.1,40.2,8.700000000000001,-27.0
1698411897150.0,16,0.8,-0.4,-1.8,0.2,-0.5,8.200000000000001,35.1,12.000000000000002,-35.3
1698411897167.0,16,0.7000000000000001,-0.5,-1.7000000000000002,0.0,-0.5,8.3,30.5,15.000000000000002,-36.9
1698411897185.0,16,0.7000000000000001,-0.5,-1.5,0.0,-0.5,8.5,30.200000000000003,13.5,-34.50000000000001
1698411897201.0,16,1.0,-0.4,-1.4000000000000001,0.2,-0.30000000000000004,8.5,32.9,8.4,-31.8
1698411897217.0,16,1.1,-0.30000000000000004,-1.4000000000000001,0.30000000000000004,-0.1,8.5,33.7,6.7,-32.0
1698411897234.0,16,1.1,-0.2,-1.3,0.30000000000000004,0.1,8.6,33.1,3.5,-35.0
1698411897251.0,16,1.0,-0.30000000000000004,-1.4000000000000001,0.2,0.2,8.5,30.299999999999997,1.6,-38.0
1698411897268.0,16,0.9,-0.30000000000000004,-1.4000000000000001,0.1,0.2,8.5,26.700000000000003,2.0,-39.2
1698411897285.0,16,0.7000000000000001,-0.30000000000000004,-1.0,-0.1,0.2,8.9,19.700000000000003,4.6000000000000005,-38.7
1698411897301.0,16,0.6000000000000001,-0.30000000000000004,-0.8,-0.30000000000000004,0.30000000000000004,9.1,17.8,9.3,-37.1
1698411897318.0,16,0.5,-0.30000000000000004,-0.8,-0.4,0.30000000000000004,9.0,18.0,11.8,-35.8
1698411897335.0,16,0.30000000000000004,-0.2,-1.2000000000000002,-0.6000000000000001,0.4,8.6,18.3,13.700000000000001,-31.900000000000002
1698411897351.0,16,0.30000000000000004,-0.2,-1.5,-0.8,0.6000000000000001,8.1,15.100000000000001,11.3,-27.400000000000002
1698411897368.0,16,0.2,-0.1,-1.8,-0.8,0.6000000000000001,8.0,12.4,7.699999999999999,-24.6
1698411897385.0,16,0.2,0.0,-1.8,-0.8,0.7000000000000001,8.0,9.5,3.2,-21.8
1698411897401.0,16,0.30000000000000004,0.2,-1.4000000000000001,-0.7000000000000001,0.8,8.3,3.3000000000000003,-5.4,-16.700000000000003
1698411897418.0,16,0.30000000000000004,0.30000000000000004,-1.2000000000000002,-0.7000000000000001,1.1,8.6,-2.1999999999999997,-8.799999999999999,-12.3
1698411897434.0,16,0.4,0.5,-0.9,-0.5,1.2000000000000002,8.9,-7.0,-8.700000000000001,-9.1
1698411897451.0,16,0.30000000000000004,0.7000000000000001,-0.7000000000000001,-0.5,1.4000000000000001,9.1,-10.0,-4.0,-7.500000000000001
1698411897468.0,16,0.30000000000000004,0.9,-0.7000000000000001,-0.6000000000000001,1.5,9.1,-11.000000000000002,-1.6,-6.8
1698411897484.0,16,0.2,1.0,-0.8,-0.7000000000000001,1.6,9.0,-11.5,2.1999999999999997,-5.500000000000001
1698411897501.0,16,0.0,1.0,-0.9,-0.8,1.7000000000000002,8.9,-11.8,2.7,-4.5
1698411897518.0,16,0.0,1.1,-0.9,-0.9,1.7000000000000002,8.8,-11.700000000000001,-0.2,-0.1
1698411897535.0,16,0.0,1.3,-0.9,-0.8,1.8,8.8,-11.000000000000002,-5.300000000000001,5.1
1698411897551.0,16,0.2,1.5,-0.7000000000000001,-0.7000000000000001,2.0,9.0,-10.600000000000001,-9.3,7.9
1698411897568.0,16,0.2,1.5,-0.6000000000000001,-0.6000000000000001,2.0,9.200000000000001,-10.700000000000001,-9.0,8.1
1698411897584.0,16,0.30000000000000004,1.6,-0.4,-0.5,2.1,9.4,-12.200000000000001,-5.7,7.300000000000001
1698411897601.0,16,0.30000000000000004,1.7000000000000002,0.0,-0.5,2.2,9.8,-13.9,-1.5000000000000002,5.300000000000001
1698411897618.0,16,0.30000000000000004,1.7000000000000002,0.2,-0.5,2.1,9.9,-13.8,1.0,4.3999999999999995
1698411897634.0,16,0.1,1.7000000000000002,0.30000000000000004,-0.7000000000000001,2.1,10.100000000000001,-12.3,3.7000000000000006,3.4
1698411897652.0,16,0.0,1.7000000000000002,0.5,-0.9,2.1,10.3,-11.000000000000002,9.1,2.5
1698411897668.0,16,-0.2,1.6,0.7000000000000001,-1.0,2.0,10.4,-10.9,12.6,3.0000000000000004
1698411897685.0,16,-0.4,1.4000000000000001,1.0,-1.3,1.7000000000000002,10.700000000000001,-6.9,17.400000000000002,6.1000000000000005
1698411897701.0,16,-0.5,1.2000000000000002,1.0,-1.5,1.6,10.8,0.30000000000000004,18.7,11.4
1698411897719.0,16,-0.5,1.2000000000000002,1.0,-1.5,1.6,10.700000000000001,3.1,18.2,14.700000000000001
1698411897734.0,16,-0.5,1.0,0.9,-1.6,1.4000000000000001,10.700000000000001,6.4,14.700000000000001,20.0
1698411897751.0,16,-0.2,0.6000000000000001,1.2000000000000002,-1.3,1.1,11.0,6.1000000000000005,9.0,25.400000000000002
1698411897767.0,16,0.1,0.4,1.6,-1.0,1.0,11.4,4.7,3.4,26.500000000000004
1698411897784.0,16,0.1,0.4,2.0,-1.0,0.9,11.8,3.4,0.7,25.2
1698411897801.0,16,0.0,0.2,2.5,-1.1,0.8,12.3,2.7,-0.7,23.6
1698411897817.0,16,-0.30000000000000004,-0.6000000000000001,3.0,-1.4000000000000001,0.0,12.9,13.9,10.3,23.0
1698411897834.0,16,-0.30000000000000004,-0.7000000000000001,2.7,-1.5,-0.1,12.5,21.200000000000003,14.200000000000001,25.1
1698411897851.0,16,-0.2,-0.9,1.4000000000000001,-1.4000000000000001,-0.1,11.200000000000001,33.5,12.4,29.600000000000005
1698411897867.0,16,0.1,-0.7000000000000001,0.6000000000000001,-1.2000000000000002,0.0,10.8,35.6,7.6,30.5
1698411897884.0,16,0.2,-0.6000000000000001,0.5,-1.0,0.30000000000000004,10.4,33.0,-0.5,27.7
1698411897901.0,16,0.2,-0.7000000000000001,0.5,-1.0,0.4,10.3,27.8,-0.4,19.500000000000004
1698411897917.0,16,0.0,-0.9,0.2,-1.2000000000000002,0.2,10.100000000000001,24.400000000000002,11.2,11.4
1698411897934.0,16,-0.2,-1.0,0.0,-1.4000000000000001,0.2,9.8,22.6,18.400000000000002,8.600000000000001
1698411897951.0,16,-0.5,-1.2000000000000002,-0.8,-1.9000000000000001,0.0,9.0,19.400000000000002,28.400000000000002,6.3
1698411897968.0,16,-0.8,-1.3,-1.4000000000000001,-2.2,0.0,8.3,16.700000000000003,28.500000000000004,8.4
1698411897984.0,16,-0.9,-1.3,-1.7000000000000002,-2.3000000000000003,0.0,8.1,15.7,24.7,10.600000000000001
1698411898001.0,16,-0.9,-1.3,-1.9000000000000001,-2.4000000000000004,0.0,7.800000000000001,15.000000000000002,12.200000000000001,15.8
1698411898018.0,16,-0.9,-1.3,-1.8,-2.4000000000000004,0.1,7.9,12.3,0.4,19.9
1698411898034.0,16,-0.9,-1.3,-1.5,-2.4000000000000004,0.1,8.1,9.8,-3.5,21.8
1698411898051.0,16,-0.7000000000000001,-1.4000000000000001,-1.3,-2.2,0.0,8.4,5.7,-5.8,25.6
1698411898068.0,16,-0.4,-1.2000000000000002,-1.1,-1.9000000000000001,0.2,8.5,1.8,-8.5,26.200000000000003
1698411898085.0,16,-0.2,-1.1,-1.1,-1.7000000000000002,0.30000000000000004,8.6,-0.6000000000000001,-10.600000000000001,24.3
1698411898103.0,16,0.0,-0.9,-0.6000000000000001,-1.4000000000000001,0.5,9.0,-7.9,-15.7,16.1
1698411898118.0,16,-0.30000000000000004,-0.9,0.2,-1.4000000000000001,0.6000000000000001,9.4,-12.6,-16.400000000000002,10.4
1698411898135.0,16,-0.5,-1.0,0.6000000000000001,-1.8,0.4,10.3,-22.2,-12.000000000000002,0.6000000000000001
1698411898151.0,16,-0.8,-1.2000000000000002,1.1,-2.1,0.1,10.8,-24.9,-1.0,-3.0000000000000004
1698411898168.0,16,-1.2000000000000002,-1.1,0.9,-2.5,0.0,10.600000000000001,-20.0,8.600000000000001,-2.1999999999999997
1698411898185.0,16,-1.3,-1.2000000000000002,0.6000000000000001,-2.7,-0.1,10.3,-16.8,11.1,-0.1
1698411898201.0,16,-1.3,-1.1,-0.1,-2.7,0.0,9.600000000000001,-12.3,11.4,5.8
1698411898218.0,16,-1.1,-0.8,-0.7000000000000001,-2.6,0.2,9.0,-11.000000000000002,7.9,12.100000000000001
1698411898235.0,16,-1.0,-0.7000000000000001,-0.8,-2.4000000000000004,0.30000000000000004,8.9,-10.5,4.9,15.2
1698411898252.0,16,-0.7000000000000001,-0.5,-1.1,-2.1,0.4,8.700000000000001,-9.4,-2.1999999999999997,19.400000000000002
1698411898268.0,16,-0.30000000000000004,-0.4,-1.0,-1.7000000000000002,0.6000000000000001,8.700000000000001,-9.8,-7.500000000000001,21.0
1698411898284.0,16,-0.1,-0.30000000000000004,-0.9,-1.5,0.6000000000000001,8.8,-10.600000000000001,-8.5,21.0
1698411898302.0,16,0.1,-0.1,-0.8,-1.3,0.8,8.9,-12.000000000000002,-10.600000000000001,19.1
1698411898318.0,16,0.30000000000000004,-0.1,-0.7000000000000001,-1.0,0.8,9.0,-13.6,-14.200000000000001,16.3
1698411898334.0,16,0.4,-0.1,-0.6000000000000001,-0.9,0.8,9.200000000000001,-13.700000000000001,-16.5,14.700000000000001
1698411898351.0,16,0.6000000000000001,0.0,-0.2,-0.6000000000000001,0.8,9.5,-14.4,-23.6,10.8
1698411898368.0,16,0.9,0.2,0.30000000000000004,-0.2,0.9,10.100000000000001,-15.7,-26.9,4.5
1698411898385.0,16,1.0,0.30000000000000004,0.7000000000000001,-0.1,1.0,10.4,-15.000000000000002,-22.000000000000004,-5.500000000000001
1698411898401.0,16,0.9,0.30000000000000004,0.5,-0.1,0.9,10.3,-14.0,-17.3,-10.8
1698411898419.0,16,0.7000000000000001,0.30000000000000004,0.2,-0.30000000000000004,0.9,10.0,-13.8,-12.8,-15.5
1698411898434.0,16,0.30000000000000004,0.4,-0.7000000000000001,-0.5,0.9,9.3,-16.6,-6.8,-23.6
1698411898451.0,16,0.1,0.5,-0.8,-0.8,1.0,8.9,-21.400000000000002,-7.400000000000001,-30.299999999999997
1698411898468.0,16,-0.2,0.5,-0.6000000000000001,-1.1,0.9,9.200000000000001,-25.6,-13.8,-35.0
1698411898485.0,16,-0.30000000000000004,0.4,-0.4,-1.2000000000000002,0.8,9.4,-26.500000000000004,-16.6,-36.2
1698411898501.0,16,-0.6000000000000001,0.4,0.0,-1.4000000000000001,0.7000000000000001,9.8,-27.6,-19.6,-36.5
1698411898518.0,16,-0.7000000000000001,0.4,0.5,-1.4000000000000001,0.6000000000000001,10.3,-26.400000000000002,-21.3,-34.2
1698411898535.0,16,-0.7000000000000001,0.4,0.7000000000000001,-1.4000000000000001,0.5,10.5,-24.400000000000002,-22.3,-33.0
1698411898551.0,16,-0.7000000000000001,0.4,0.9,-1.3,0.5,10.700000000000001,-19.500000000000004,-25.6,-30.799999999999997
1698411898568.0,16,-0.6000000000000001,0.5,0.8,-1.1,0.5,10.700000000000001,-17.1,-28.1,-31.0
1698411898584.0,16,-0.6000000000000001,0.5,0.9,-1.1,0.4,10.700000000000001,-17.9,-28.700000000000003,-32.0
1698411898601.0,16,-0.6000000000000001,0.4,1.2000000000000002,-1.0,0.30000000000000004,11.100000000000001,-20.8,-27.400000000000002,-34.2
1698411898618.0,16,-0.7000000000000001,0.30000000000000004,1.6,-1.1,0.1,11.4,-22.000000000000004,-22.6,-35.199999999999996
1698411898634.0,16,-0.7000000000000001,0.1,1.8,-1.0,-0.2,11.700000000000001,-19.500000000000004,-16.900000000000002,-33.300000000000004
1698411898651.0,16,-0.6000000000000001,0.0,1.7000000000000002,-0.8,-0.2,11.600000000000001,-17.1,-15.5,-32.0
1698411898667.0,16,-0.30000000000000004,0.0,1.5,-0.5,-0.30000000000000004,11.4,-15.9,-20.0,-31.2
1698411898684.0,16,-0.1,0.2,2.2,-0.30000000000000004,-0.2,11.700000000000001,-18.2,-21.8,-31.900000000000002
1698411898701.0,16,-0.2,0.1,2.6,-0.30000000000000004,-0.30000000000000004,12.5,-20.2,-17.8,-35.199999999999996
1698411898718.0,16,-0.5,-0.1,2.9000000000000004,-0.5,-0.6000000000000001,12.8,-13.100000000000001,-8.3,-35.5
1698411898734.0,16,-0.5,-0.4,2.6,-0.5,-0.9,12.5,1.9,-0.6000000000000001,-28.500000000000004
1698411898751.0,16,-0.4,-0.4,2.1,-0.4,-0.8,12.100000000000001,10.1,2.1999999999999997,-23.0
1698411898768.0,16,0.0,-0.1,1.2000000000000002,0.0,-0.5,11.200000000000001,25.2,1.4,-13.700000000000001
1698411898784.0,16,0.6000000000000001,0.1,0.4,0.6000000000000001,-0.2,10.4,35.7,-1.8,-11.1
1698411898801.0,16,0.8,0.1,0.0,0.8,-0.1,10.0,37.900000000000006,-0.7,-12.4
1698411898818.0,16,1.2000000000000002,0.1,-0.5,1.1,0.0,9.5,37.2,4.300000000000001,-17.9
1698411898835.0,16,1.1,0.0,-1.2000000000000002,1.0,0.0,8.8,34.1,13.100000000000001,-26.500000000000004
1698411898851.0,16,0.9,0.0,-1.6,0.9,0.0,8.4,30.599999999999998,16.3,-30.599999999999998
1698411898868.0,16,0.5,-0.2,-1.8,0.4,-0.1,8.1,20.900000000000002,19.500000000000004,-34.2
1698411898885.0,16,0.4,-0.30000000000000004,-1.8,0.2,-0.2,8.1,16.8,19.400000000000002,-33.400000000000006
1698411898901.0,16,0.2,-0.4,-1.6,0.0,-0.2,8.3,13.6,14.500000000000002,-27.400000000000002
1698411898919.0,16,0.30000000000000004,-0.30000000000000004,-1.4000000000000001,0.0,-0.1,8.5,15.8,7.1000000000000005,-20.3
1698411898935.0,16,0.30000000000000004,-0.2,-1.3,0.1,0.1,8.700000000000001,18.1,1.4,-14.600000000000001
1698411898951.0,16,0.30000000000000004,-0.1,-1.3,0.1,0.2,8.6,18.0,0.5,-12.6
1698411898968.0,16,0.5,0.0,-1.2000000000000002,0.2,0.4,8.700000000000001,14.500000000000002,0.9,-10.0
1698411898984.0,16,0.4,0.1,-1.1,0.2,0.6000000000000001,8.8,9.600000000000001,3.6,-9.5
1698411899001.0,16,0.4,0.1,-1.0,0.1,0.6000000000000001,8.9,7.6,4.1000000000000005,-9.1
1698411899018.0,16,0.30000000000000004,0.1,-0.7000000000000001,0.0,0.6000000000000001,9.200000000000001,4.300000000000001,3.5,-6.3
1698411899034.0,16,0.30000000000000004,0.1,-0.2,0.0,0.6000000000000001,9.700000000000001,4.2,1.6,-1.0999999999999999
1698411899052.0,16,0.30000000000000004,0.1,-0.1,0.0,0.6000000000000001,9.8,5.8,1.0,2.0
1698411899068.0,16,0.5,0.2,-0.1,0.2,0.8,9.8,10.700000000000001,0.7,7.2
1698411899086.0,16,0.7000000000000001,0.4,-0.30000000000000004,0.5,1.0,9.5,13.5,0.4,10.0
1698411899102.0,16,0.9,0.6000000000000001,-0.6000000000000001,0.6000000000000001,1.2000000000000002,9.3,12.9,0.2,9.200000000000001
1698411899118.0,16,0.9,0.7000000000000001,-0.7000000000000001,0.6000000000000001,1.3,9.200000000000001,11.3,0.9,7.8
1698411899134.0,16,0.9,0.8,-0.7000000000000001,0.6000000000000001,1.5,9.1,5.9,3.5,3.9
1698411899151.0,16,0.8,0.8,-0.7000000000000001,0.5,1.5,9.200000000000001,2.8,5.7,1.7
1698411899168.0,16,0.6000000000000001,0.7000000000000001,-0.6000000000000001,0.1,1.5,9.3,-1.9,9.600000000000001,-1.0
1698411899184.0,16,0.2,0.6000000000000001,-0.30000000000000004,-0.1,1.3,9.5,-2.4000000000000004,12.100000000000001,-0.2
1698411899201.0,16,0.1,0.6000000000000001,-0.4,-0.30000000000000004,1.3,9.5,-1.3,13.0,1.4
1698411899218.0,16,-0.1,0.7000000000000001,-0.5,-0.5,1.4000000000000001,9.3,1.0,12.5,6.5
1698411899234.0,16,0.0,0.8,-0.5,-0.5,1.5,9.3,3.2,8.600000000000001,12.200000000000001
1698411899251.0,16,0.2,1.0,-0.5,-0.4,1.6,9.3,4.9,5.1,16.700000000000003
1698411899268.0,16,0.30000000000000004,1.0,-0.4,-0.2,1.8,9.4,5.2,3.6,17.9
1698411899285.0,16,0.5,1.2000000000000002,-0.30000000000000004,0.1,1.9000000000000001,9.5,4.6000000000000005,3.7000000000000006,17.5
1698411899301.0,16,0.6000000000000001,1.2000000000000002,-0.2,0.1,2.0,9.600000000000001,3.9,5.1,16.2
1698411899318.0,16,0.6000000000000001,1.1,-0.1,0.1,1.9000000000000001,9.700000000000001,2.0,9.8,13.100000000000001
1698411899335.0,16,0.6000000000000001,1.0,0.30000000000000004,0.1,1.9000000000000001,10.100000000000001,2.0,11.2,10.700000000000001
1698411899351.0,16,0.7000000000000001,1.0,0.4,0.2,1.8,10.200000000000001,4.300000000000001,16.1,7.2
1698411899368.0,16,0.5,0.9,0.30000000000000004,-0.1,1.8,10.100000000000001,4.6000000000000005,18.7,5.4
1698411899384.0,16,0.2,0.7000000000000001,0.1,-0.4,1.6,9.9,4.0,20.8,5.300000000000001
1698411899401.0,16,0.0,0.6000000000000001,0.1,-0.6000000000000001,1.6,9.9,3.6,21.3,5.8
1698411899419.0,16,-0.1,0.6000000000000001,0.2,-0.8,1.5,10.0,2.5,21.700000000000003,7.9
1698411899434.0,16,-0.30000000000000004,0.4,0.30000000000000004,-1.1,1.4000000000000001,10.100000000000001,1.3,22.5,10.8
1698411899451.0,16,-0.4,0.30000000000000004,0.4,-1.3,1.2000000000000002,10.200000000000001,1.4,21.900000000000002,13.6
1698411899468.0,16,-0.6000000000000001,0.1,0.5,-1.5,1.1,10.3,2.6,16.900000000000002,20.8
1698411899485.0,16,-0.5,0.0,1.0,-1.4000000000000001,1.0,10.8,3.5,11.700000000000001,30.5
1698411899501.0,16,-0.1,0.0,1.2000000000000002,-1.1,1.0,11.0,6.8,9.1,36.9
1698411899518.0,16,0.0,-0.1,1.2000000000000002,-1.0,0.9,11.0,8.4,8.799999999999999,38.400000000000006
1698411899535.0,16,0.2,-0.30000000000000004,1.0,-0.8,0.8,10.8,9.5,7.6,39.300000000000004
1698411899551.0,16,0.30000000000000004,-0.4,1.1,-0.7000000000000001,0.7000000000000001,10.9,7.8,5.4,38.300000000000004
1698411899567.0,16,0.30000000000000004,-0.4,1.2000000000000002,-0.7000000000000001,0.7000000000000001,11.0,6.5,5.4,37.4
1698411899584.0,16,0.4,-0.7000000000000001,1.5,-0.7000000000000001,0.5,11.3,3.4,7.1000000000000005,35.9
1698411899601.0,16,0.5,-0.8,1.6,-0.5,0.4,11.5,1.0,9.600000000000001,34.400000000000006
1698411899619.0,16,0.4,-0.7000000000000001,1.7000000000000002,-0.6000000000000001,0.4,11.600000000000001,0.1,10.4,33.2
1698411899635.0,16,0.2,-0.8,1.8,-0.7000000000000001,0.4,11.700000000000001,0.1,11.4,31.8
1698411899651.0,16,-0.1,-1.0,1.5,-1.2000000000000002,0.2,11.3,7.1000000000000005,19.6,30.5
1698411899667.0,16,-0.30000000000000004,-1.1,1.1,-1.4000000000000001,0.1,10.9,11.1,22.7,32.1
1698411899684.0,16,-0.5,-1.0,-0.1,-1.7000000000000002,0.2,9.8,21.1,24.200000000000003,38.7
1698411899701.0,16,-0.5,-1.0,-0.7000000000000001,-1.7000000000000002,0.30000000000000004,9.1,25.8,21.1,42.400000000000006
1698411899718.0,16,-0.30000000000000004,-0.9,-1.6,-1.6,0.5,8.200000000000001,31.900000000000002,10.8,48.2
1698411899734.0,16,-0.1,-0.7000000000000001,-2.1,-1.3,0.8,7.6000000000000005,32.300000000000004,-0.2,49.0
1698411899752.0,16,-0.1,-0.5,-2.1,-1.3,1.1,7.6000000000000005,27.0,-8.200000000000001,43.50000000000001
1698411899768.0,16,-0.1,-0.5,-1.9000000000000001,-1.3,1.2000000000000002,7.800000000000001,23.3,-10.3,39.400000000000006
1698411899784.0,16,-0.30000000000000004,-0.6000000000000001,-1.4000000000000001,-1.4000000000000001,1.2000000000000002,8.3,15.100000000000001,-11.700000000000001,29.400000000000002
1698411899801.0,16,-0.5,-0.9,-0.9,-1.6,1.0,8.8,8.5,-10.700000000000001,21.8
1698411899818.0,16,-0.6000000000000001,-0.9,-0.6000000000000001,-1.6,0.9,9.1,5.7,-10.3,19.1
1698411899834.0,16,-0.6000000000000001,-0.9,-0.1,-1.6,0.9,9.600000000000001,0.30000000000000004,-8.5,13.700000000000001
1698411899851.0,16,-0.6000000000000001,-1.0,0.5,-1.6,0.8,10.200000000000001,-3.5,-3.6,7.0
1698411899868.0,16,-0.7000000000000001,-1.0,0.7000000000000001,-1.7000000000000002,0.8,10.4,-4.0,1.3,3.7000000000000006
1698411899884.0,16,-0.9,-1.2000000000000002,0.9,-2.0,0.6000000000000001,10.600000000000001,-0.2,13.3,-0.6000000000000001
1698411899901.0,16,-1.3,-1.3,0.2,-2.5,0.6000000000000001,9.9,8.1,24.8,-1.6
1698411899918.0,16,-1.4000000000000001,-1.3,-0.4,-2.6,0.5,9.200000000000001,11.2,27.2,0.0
1698411899935.0,16,-1.3,-1.2000000000000002,-1.6,-2.6,0.7000000000000001,8.1,12.100000000000001,23.2,5.9
1698411899951.0,16,-0.9,-0.9,-1.8,-2.2,1.0,7.800000000000001,6.6000000000000005,11.700000000000001,9.5
1698411899967.0,16,-0.5,-0.6000000000000001,-1.4000000000000001,-1.9000000000000001,1.2000000000000002,8.200000000000001,-1.0,1.8,8.0
1698411899984.0,16,-0.5,-0.6000000000000001,-1.1,-1.8,1.3,8.5,-4.800000000000001,-0.8,5.9
1698411900001.0,16,-0.30000000000000004,-0.5,-0.30000000000000004,-1.6,1.3,9.3,-12.8,-0.2,0.7
1698411900018.0,16,-0.4,-0.5,0.2,-1.6,1.3,9.600000000000001,-15.9,3.1,-1.6
1698411900034.0,16,-0.6000000000000001,-0.5,0.4,-2.0,1.3,10.0,-19.6,10.4,-3.9
1698411900051.0,16,-0.8,-0.4,0.7000000000000001,-2.2,1.2000000000000002,10.3,-20.0,12.5,-1.4
1698411900068.0,16,-0.8,-0.4,0.8,-2.3000000000000003,1.3,10.5,-14.500000000000002,11.700000000000001,4.7
1698411900084.0,16,-0.8,-0.2,0.8,-2.3000000000000003,1.4000000000000001,10.4,-10.1,9.700000000000001,8.799999999999999
1698411900110.0,16,-0.2,0.2,0.30000000000000004,-1.7000000000000002,1.8,10.0,2.1,-1.6,20.8
1698411900117.0,16,0.0,0.4,0.2,-1.5,2.0,9.9,4.9,-4.3999999999999995,23.2
1698411900135.0,16,0.2,0.5,0.1,-1.2000000000000002,2.2,9.700000000000001,6.5,-6.5,24.000000000000004
1698411900151.0,16,0.6000000000000001,0.8,0.0,-0.8,2.5,9.700000000000001,6.7,-10.9,22.8
1698411900167.0,16,0.9,1.0,0.1,-0.5,2.7,9.700000000000001,5.6,-11.5,17.3
1698411900184.0,16,1.0,1.1,0.1,-0.4,2.8000000000000003,9.700000000000001,4.300000000000001,-10.8,13.200000000000001
1698411900201.0,16,1.0,1.2000000000000002,0.1,-0.30000000000000004,2.9000000000000004,9.700000000000001,1.3,-7.500000000000001,4.1000000000000005
1698411900218.0,16,0.9,1.1,0.1,-0.5,2.8000000000000003,9.700000000000001,-0.1,-5.7,-0.6000000000000001
1698411900235.0,16,0.6000000000000001,1.0,0.0,-0.6000000000000001,2.8000000000000003,9.700000000000001,-0.6000000000000001,-4.800000000000001,-8.0
1698411900253.0,16,0.30000000000000004,0.9,0.1,-1.0,2.7,9.700000000000001,-0.2,-7.400000000000001,-12.6
1698411900267.0,16,0.1,0.8,0.1,-1.1,2.6,9.8,2.0,-9.600000000000001,-13.5
1698411900285.0,16,0.1,0.8,0.1,-1.1,2.6,9.8,4.1000000000000005,-11.3,-13.700000000000001
1698411900301.0,16,0.1,0.7000000000000001,0.1,-1.1,2.5,9.700000000000001,8.0,-14.200000000000001,-13.4
1698411900318.0,16,0.30000000000000004,0.8,-0.1,-0.8,2.7,9.5,11.2,-16.5,-14.0
1698411900335.0,16,0.4,0.8,-0.30000000000000004,-0.7000000000000001,2.7,9.3,11.700000000000001,-18.3,-16.2
1698411900351.0,16,0.5,0.7000000000000001,-0.30000000000000004,-0.5,2.5,9.3,9.0,-21.200000000000003,-23.700000000000003
1698411900368.0,16,0.4,0.4,-0.1,-0.5,2.3000000000000003,9.5,1.9,-18.400000000000002,-33.0
1698411900384.0,16,0.30000000000000004,0.30000000000000004,-0.1,-0.6000000000000001,2.2,9.600000000000001,-1.2000000000000002,-16.3,-37.6
1698411900401.0,16,-0.1,-0.1,-0.1,-1.0,1.8,9.600000000000001,-7.1000000000000005,-12.700000000000001,-45.4
1698411900419.0,16,-0.5,-0.30000000000000004,0.1,-1.4000000000000001,1.4000000000000001,9.8,-12.4,-11.700000000000001,-47.900000000000006
1698411900435.0,16,-0.6000000000000001,-0.5,0.30000000000000004,-1.6,1.3,10.0,-13.200000000000001,-12.4,-47.6
1698411900452.0,16,-0.8,-0.6000000000000001,0.6000000000000001,-1.7000000000000002,1.1,10.3,-11.8,-12.000000000000002,-45.5
1698411900468.0,16,-1.0,-0.6000000000000001,0.6000000000000001,-1.9000000000000001,1.1,10.3,-10.9,-10.600000000000001,-42.5
1698411900485.0,16,-1.0,-0.6000000000000001,0.6000000000000001,-1.9000000000000001,1.0,10.3,-10.700000000000001,-10.2,-39.8
1698411900501.0,16,-0.9,-0.7000000000000001,0.7000000000000001,-1.8,0.8,10.4,-9.9,-12.5,-33.900000000000006
1698411900517.0,16,-0.7000000000000001,-0.6000000000000001,0.9,-1.5,0.9,10.700000000000001,-9.8,-13.4,-28.8
1698411900534.0,16,-0.4,-0.4,1.0,-1.3,1.1,10.8,-9.4,-8.700000000000001,-27.5
1698411900550.0,16,-0.4,-0.4,1.0,-1.3,1.0,10.8,-8.600000000000001,-6.6000000000000005,-27.6
1698411900567.0,16,-0.30000000000000004,-0.5,0.9,-1.2000000000000002,0.9,10.600000000000001,-6.2,-2.1999999999999997,-26.500000000000004
1698411900584.0,16,-0.30000000000000004,-0.5,0.6000000000000001,-1.2000000000000002,0.9,10.4,-4.0,-0.2,-24.6
1698411900601.0,16,-0.30000000000000004,-0.5,0.7000000000000001,-1.1,0.9,10.5,-2.8,-1.0999999999999999,-23.5
1698411900618.0,16,-0.1,-0.6000000000000001,0.9,-1.0,0.7000000000000001,10.700000000000001,0.4,-5.1,-21.200000000000003
1698411900634.0,16,0.1,-0.7000000000000001,1.2000000000000002,-0.8,0.7000000000000001,11.0,3.0000000000000004,-6.5,-19.700000000000003
1698411900651.0,16,0.4,-0.8,1.4000000000000001,-0.5,0.6000000000000001,11.3,10.4,-3.8,-17.200000000000003
1698411900668.0,16,0.8,-1.0,1.2000000000000002,-0.1,0.5,11.0,20.3,-0.8,-15.100000000000001
1698411900684.0,16,1.1,-1.0,0.6000000000000001,0.2,0.5,10.4,26.700000000000003,0.0,-15.7
1698411900701.0,16,1.3,-1.1,0.30000000000000004,0.4,0.5,10.100000000000001,28.0,-1.0,-16.8
1698411900718.0,16,1.6,-1.2000000000000002,0.0,0.7000000000000001,0.5,9.8,27.7,-3.3000000000000003,-20.900000000000002
1698411900735.0,16,1.7000000000000002,-1.1,-0.30000000000000004,0.8,0.6000000000000001,9.5,23.700000000000003,-2.0,-28.1
1698411900752.0,16,1.6,-1.1,-0.5,0.7000000000000001,0.6000000000000001,9.3,20.3,0.6000000000000001,-32.300000000000004
1698411900767.0,16,1.3,-1.1,-0.7000000000000001,0.4,0.7000000000000001,9.0,11.1,6.4,-38.900000000000006
1698411900784.0,16,0.8,-1.0,-0.9,-0.1,0.7000000000000001,8.9,2.8,12.5,-41.1
1698411900802.0,16,0.6000000000000001,-0.9,-0.9,-0.4,0.8,8.8,0.4,14.700000000000001,-40.2
1698411900817.0,16,0.30000000000000004,-0.8,-1.2000000000000002,-0.8,0.9,8.5,0.9,14.500000000000002,-35.199999999999996
1698411900836.0,16,0.0,-0.5,-1.6,-1.1,1.2000000000000002,8.1,3.4,7.6,-27.0
1698411900852.0,16,0.0,-0.4,-1.8,-1.1,1.3,7.9,4.1000000000000005,3.4,-22.000000000000004
1698411900868.0,16,-0.1,-0.1,-2.0,-1.2000000000000002,1.6,7.7,3.4,-5.4,-12.9
1698411900884.0,16,0.0,0.2,-1.8,-1.1,1.9000000000000001,7.9,1.0,-13.5,-4.5
1698411900901.0,16,0.1,0.30000000000000004,-1.6,-0.9,2.0,8.0,-0.8,-15.7,-1.3
1698411900919.0,16,0.4,0.6000000000000001,-1.3,-0.6000000000000001,2.3000000000000003,8.4,-5.4,-17.7,2.0
1698411900934.0,16,0.6000000000000001,0.8,-0.9,-0.30000000000000004,2.4000000000000004,8.8,-10.4,-17.5,1.0
1698411900951.0,16,0.6000000000000001,0.8,-0.6000000000000001,-0.30000000000000004,2.4000000000000004,9.1,-13.200000000000001,-16.700000000000003,-0.5
1698411900968.0,16,0.4,0.7000000000000001,-0.1,-0.4,2.3000000000000003,9.600000000000001,-16.6,-12.3,-3.3000000000000003
1698411900985.0,16,0.1,0.6000000000000001,0.30000000000000004,-0.7000000000000001,2.2,10.0,-18.6,-7.8,-4.3999999999999995
1698411901001.0,16,-0.1,0.6000000000000001,0.4,-0.9,2.2,10.100000000000001,-19.500000000000004,-5.1,-3.9
1698411901018.0,16,-0.4,0.6000000000000001,0.6000000000000001,-1.2000000000000002,2.0,10.3,-19.500000000000004,-1.2000000000000002,-0.30000000000000004
1698411901034.0,16,-0.6000000000000001,0.5,0.6000000000000001,-1.4000000000000001,2.0,10.3,-14.600000000000001,1.5000000000000002,6.000000000000001
1698411901052.0,16,-0.6000000000000001,0.6000000000000001,0.5,-1.4000000000000001,2.0,10.200000000000001,-10.700000000000001,1.8,10.0
1698411901068.0,16,-0.5,0.7000000000000001,0.2,-1.3,2.1,9.9,-2.4000000000000004,0.4,18.1
1698411901085.0,16,-0.4,0.8,0.0,-1.2000000000000002,2.2,9.700000000000001,2.0,-1.2000000000000002,21.8
1698411901101.0,16,-0.1,0.9,-0.4,-0.9,2.4000000000000004,9.3,8.700000000000001,-3.8,26.3
1698411901117.0,16,0.2,1.1,-0.7000000000000001,-0.6000000000000001,2.6,9.0,8.200000000000001,-4.0,26.700000000000003
1698411901134.0,16,0.4,1.2000000000000002,-0.7000000000000001,-0.30000000000000004,2.7,9.0,2.9,-1.7,22.8
1698411901152.0,16,0.4,1.3,-0.6000000000000001,-0.30000000000000004,2.8000000000000003,9.200000000000001,-0.5,0.6000000000000001,19.3
1698411901168.0,16,0.30000000000000004,1.2000000000000002,-0.4,-0.4,2.7,9.3,-6.4,7.8,11.9
1698411901185.0,16,0.1,1.1,-0.4,-0.6000000000000001,2.6,9.4,-8.5,10.600000000000001,9.4
1698411901201.0,16,-0.2,0.8,-0.1,-1.0,2.3000000000000003,9.600000000000001,-10.3,13.0,8.5
1698411901218.0,16,-0.4,0.7000000000000001,0.1,-1.2000000000000002,2.1,9.8,-9.0,13.6,12.8
1698411901235.0,16,-0.4,0.6000000000000001,0.30000000000000004,-1.3,2.1,10.0,-4.6000000000000005,11.1,19.500000000000004
1698411901251.0,16,-0.30000000000000004,0.6000000000000001,0.4,-1.1,2.0,10.100000000000001,2.4000000000000004,9.3,25.8
1698411901268.0,16,0.0,0.6000000000000001,0.30000000000000004,-0.9,2.1,10.0,5.7,10.2,28.0
1698411901284.0,16,0.30000000000000004,0.6000000000000001,0.0,-0.7000000000000001,2.2,9.700000000000001,6.2,14.0,30.100000000000005
1698411901301.0,16,0.4,0.6000000000000001,-0.2,-0.5,2.1,9.5,4.800000000000001,15.6,30.5
1698411901318.0,16,0.6000000000000001,0.6000000000000001,-0.30000000000000004,-0.4,2.2,9.4,1.2000000000000002,14.0,29.200000000000003
1698411901335.0,16,0.7000000000000001,0.5,-0.1,-0.30000000000000004,2.1,9.600000000000001,-4.800000000000001,8.3,25.900000000000002
1698411901351.0,16,0.6000000000000001,0.5,0.2,-0.4,2.0,9.8,-8.1,5.8,24.000000000000004
1698411901368.0,16,0.5,0.30000000000000004,0.8,-0.5,1.8,10.5,-14.4,4.800000000000001,19.700000000000003
1698411901385.0,16,0.4,0.2,1.2000000000000002,-0.6000000000000001,1.7000000000000002,10.9,-17.200000000000003,7.1000000000000005,18.5
1698411901402.0,16,0.30000000000000004,0.0,1.7000000000000002,-0.7000000000000001,1.4000000000000001,11.5,-18.2,12.6,18.6
1698411901417.0,16,0.0,-0.2,2.0,-1.0,1.2000000000000002,11.700000000000001,-11.4,16.400000000000002,21.700000000000003
1698411901435.0,16,0.0,-0.4,1.8,-1.1,1.0,11.600000000000001,2.4000000000000004,17.200000000000003,29.900000000000006
1698411901451.0,16,0.1,-0.4,1.4000000000000001,-1.0,1.0,11.200000000000001,10.3,17.200000000000003,34.6
1698411901468.0,16,0.4,-0.2,0.2,-0.7000000000000001,1.3,10.0,21.1,13.700000000000001,41.0
1698411901485.0,16,0.8,-0.1,-0.5,-0.30000000000000004,1.5,9.200000000000001,20.5,4.3999999999999995,40.2
1698411901502.0,16,1.3,0.0,-0.2,0.0,1.6,9.200000000000001,10.5,-3.8,32.4
1698411901519.0,16,1.3,-0.1,0.1,0.2,1.6,9.8,4.9,-3.5,26.3
1698411901534.0,16,1.2000000000000002,-0.30000000000000004,0.8,0.1,1.4000000000000001,10.5,-4.1000000000000005,2.5,12.5
1698411901551.0,16,0.9,-0.4,1.0,-0.2,1.3,10.700000000000001,-7.400000000000001,7.2,5.6
1698411901568.0,16,0.0,-0.7000000000000001,1.2000000000000002,-1.1,0.9,10.9,-12.700000000000001,17.7,-4.6000000000000005
1698411901589.0,16,-1.0,-1.1,1.3,-2.2,0.4,11.0,-10.600000000000001,21.700000000000003,-3.5
1698411901601.0,16,-1.4000000000000001,-1.4000000000000001,1.1,-2.7,0.1,10.8,0.9,19.6,8.200000000000001
1698411901618.0,16,-1.4000000000000001,-1.5,0.8,-2.7,0.1,10.5,8.700000000000001,17.5,16.400000000000002
1698411901635.0,16,-0.9,-1.2000000000000002,0.0,-2.3000000000000003,0.4,9.700000000000001,22.5,10.4,30.200000000000003
1698411901651.0,16,-0.4,-0.9,-0.6000000000000001,-1.7000000000000002,0.8,9.1,30.299999999999997,4.300000000000001,36.2
1698411901668.0,16,-0.1,-0.9,-0.9,-1.5,0.9,8.8,32.2,2.4000000000000004,36.2
1698411901684.0,16,0.1,-0.9,-1.3,-1.2000000000000002,1.0,8.3,33.0,-0.4,32.4
1698411901701.0,16,0.2,-0.9,-1.6,-1.2000000000000002,1.0,8.200000000000001,31.6,-1.7,29.000000000000004
1698411901718.0,16,0.2,-0.9,-1.6,-1.1,1.1,8.0,24.8,-5.2,20.8
1698411901734.0,16,0.1,-0.9,-1.1,-1.1,1.2000000000000002,8.5,14.0,-7.6,9.8
1698411901751.0,16,0.0,-1.1,-0.30000000000000004,-1.3,1.0,9.200000000000001,3.2,-5.4,-1.3
1698411901767.0,16,-0.1,-1.2000000000000002,0.1,-1.3,0.9,9.700000000000001,-0.30000000000000004,-3.5,-5.7
1698411901784.0,16,-0.30000000000000004,-1.5,0.7000000000000001,-1.5,0.6000000000000001,10.3,-2.1999999999999997,1.2000000000000002,-11.9
1698411901801.0,16,-0.5,-1.5,1.1,-1.8,0.6000000000000001,10.700000000000001,0.6000000000000001,7.0,-16.0
1698411901818.0,16,-0.7000000000000001,-1.6,1.1,-1.9000000000000001,0.5,10.700000000000001,3.3000000000000003,10.600000000000001,-16.700000000000003
1698411901834.0,16,-0.8,-1.7000000000000002,0.6000000000000001,-2.1,0.4,10.200000000000001,11.5,17.8,-15.100000000000001
1698411901851.0,16,-0.7000000000000001,-1.5,-0.5,-2.2,0.6000000000000001,9.1,16.5,20.2,-11.9
1698411901867.0,16,-0.6000000000000001,-1.3,-1.0,-2.1,0.8,8.6,16.1,19.1,-11.000000000000002
1698411901884.0,16,-0.5,-1.0,-1.5,-2.0,1.1,8.0,10.5,14.3,-12.100000000000001
1698411901901.0,16,-0.4,-0.8,-1.5,-2.0,1.3,8.0,1.7,8.9,-15.5
1698411901918.0,16,-0.4,-0.8,-1.4000000000000001,-2.1,1.3,8.1,-2.5,7.8,-17.400000000000002
1698411901934.0,16,-0.6000000000000001,-0.8,-1.0,-2.3000000000000003,1.2000000000000002,8.5,-10.2,6.6000000000000005,-19.400000000000002
1698411901951.0,16,-0.7000000000000001,-0.8,-0.5,-2.4000000000000004,1.3,9.0,-15.299999999999999,8.200000000000001,-17.9
1698411901968.0,16,-0.7000000000000001,-0.7000000000000001,-0.4,-2.4000000000000004,1.3,9.1,-15.8,9.0,-16.2
1698411901984.0,16,-0.7000000000000001,-0.5,-0.2,-2.4000000000000004,1.4000000000000001,9.3,-14.900000000000002,5.0,-10.700000000000001
1698411902001.0,16,-0.4,-0.30000000000000004,0.1,-2.2,1.6,9.600000000000001,-10.8,-1.0,-5.500000000000001
1698411902019.0,16,-0.30000000000000004,-0.1,0.1,-2.0,1.7000000000000002,9.600000000000001,-8.200000000000001,-3.8,-3.8
1698411902034.0,16,-0.1,0.1,0.1,-1.8,2.0,9.600000000000001,-5.2,-7.6,-3.2
1698411902051.0,16,0.0,0.4,0.1,-1.7000000000000002,2.2,9.600000000000001,-5.4,-7.6,-4.6000000000000005
1698411902068.0,16,0.0,0.6000000000000001,0.0,-1.7000000000000002,2.4000000000000004,9.600000000000001,-6.000000000000001,-6.4,-6.7
1698411902089.0,16,0.0,0.7000000000000001,0.0,-1.7000000000000002,2.5,9.600000000000001,-6.2,-4.5,-9.3
1698411902101.0,16,0.0,0.7000000000000001,0.0,-1.7000000000000002,2.5,9.600000000000001,-5.9,-3.8,-10.2
1698411902117.0,16,0.0,0.9,-0.2,-1.7000000000000002,2.7,9.3,-4.0,-5.6,-11.6
1698411902136.0,16,0.0,1.0,-0.5,-1.7000000000000002,2.8000000000000003,9.1,-2.8,-8.700000000000001,-12.4
1698411902150.0,16,-0.1,1.2000000000000002,-0.7000000000000001,-1.7000000000000002,2.9000000000000004,8.9,-1.8,-14.3,-15.299999999999999
1698411902168.0,16,-0.1,1.2000000000000002,-0.7000000000000001,-1.7000000000000002,3.0,8.8,-4.1000000000000005,-18.5,-20.1
1698411902184.0,16,-0.2,1.3,-0.6000000000000001,-1.8,3.0,9.0,-5.9,-18.8,-22.5
1698411902208.0,16,-0.5,1.2000000000000002,-0.30000000000000004,-1.9000000000000001,2.9000000000000004,9.1,-12.700000000000001,-15.100000000000001,-28.6
1698411902217.0,16,-0.7000000000000001,1.1,-0.1,-2.2,2.7,9.5,-13.700000000000001,-15.299999999999999,-29.400000000000002
1698411902235.0,16,-0.7000000000000001,1.0,0.1,-2.2,2.6,9.700000000000001,-12.9,-16.2,-29.400000000000002
1698411902253.0,16,-0.8,0.9,0.4,-2.2,2.5,10.0,-9.200000000000001,-20.0,-27.3
1698411902268.0,16,-0.7000000000000001,0.9,0.7000000000000001,-2.0,2.5,10.4,-3.8,-25.3,-24.8
1698411902285.0,16,-0.6000000000000001,0.9,0.9,-1.9000000000000001,2.4000000000000004,10.600000000000001,-0.2,-27.2,-23.8
1698411902301.0,16,-0.30000000000000004,0.8,0.9,-1.6,2.4000000000000004,10.5,8.200000000000001,-27.0,-22.3
1698411902318.0,16,-0.1,0.9,0.6000000000000001,-1.4000000000000001,2.5,10.200000000000001,11.8,-26.6,-22.6
1698411902335.0,16,0.2,0.9,-0.2,-0.9,2.5,9.5,11.8,-27.2,-28.700000000000003
1698411902352.0,16,0.4,0.7000000000000001,-0.4,-0.7000000000000001,2.3000000000000003,9.200000000000001,0.4,-32.2,-41.4
1698411902368.0,16,0.4,0.4,0.7000000000000001,-0.6000000000000001,2.0,10.4,-19.9,-38.1,-56.6
1698411902385.0,16,0.30000000000000004,0.2,1.5,-0.6000000000000001,1.7000000000000002,11.3,-29.400000000000002,-35.8,-64.0
1698411902401.0,16,-0.2,-0.4,3.1,-1.1,1.0,12.8,-39.50000000000001,-18.6,-75.80000000000001
1698411902418.0,16,-0.6000000000000001,-0.7000000000000001,3.4000000000000004,-1.5,0.6000000000000001,13.200000000000001,-38.5,-7.0,-77.9
1698411902435.0,16,-1.4000000000000001,-1.2000000000000002,3.0,-2.3000000000000003,0.0,12.9,-25.8,13.200000000000001,-71.8
1698411902452.0,16,-1.7000000000000002,-1.1,1.8,-2.7,-0.1,11.600000000000001,-9.200000000000001,20.8,-53.8
1698411902468.0,16,-1.5,-1.0,1.0,-2.6,0.0,10.9,-1.6,21.700000000000003,-42.900000000000006
1698411902485.0,16,-0.7000000000000001,-0.6000000000000001,-0.30000000000000004,-1.8,0.5,9.600000000000001,11.9,11.5,-23.400000000000002
1698411902501.0,16,0.2,-0.1,-1.1,-1.0,1.0,8.700000000000001,20.8,-5.9,-13.200000000000001
1698411902517.0,16,1.1,0.1,-1.4000000000000001,-0.5,1.2000000000000002,8.5,20.8,-19.3,-13.100000000000001
1698411902534.0,16,1.4000000000000001,0.2,-1.4000000000000001,0.30000000000000004,1.4000000000000001,8.4,16.900000000000002,-22.6,-16.900000000000002
1698411902551.0,16,1.9000000000000001,0.2,-0.9,0.9,1.4000000000000001,8.9,2.1,-24.400000000000002,-31.2
1698411902567.0,16,2.0,-0.2,0.5,1.0,1.0,10.3,-17.1,-17.8,-50.4
1698411902585.0,16,1.8,-0.5,1.3,0.9,0.6000000000000001,11.100000000000001,-25.3,-10.600000000000001,-59.20000000000001
1698411902602.0,16,1.1,-1.1,2.4000000000000004,0.1,-0.1,12.200000000000001,-32.5,8.200000000000001,-69.7
1698411902618.0,16,0.4,-1.7000000000000002,3.0,-0.6000000000000001,-0.9,12.9,-20.0,21.6,-64.60000000000001
1698411902634.0,16,0.4,-2.0,2.8000000000000003,-0.7000000000000001,-1.1,12.700000000000001,-6.2,24.400000000000002,-56.1
1698411902651.0,16,0.9,-2.0,1.4000000000000001,-0.30000000000000004,-1.1,11.200000000000001,25.6,14.900000000000002,-33.900000000000006
1698411902667.0,16,2.0,-1.5,-0.2,0.9,-0.5,9.700000000000001,46.5,-5.1,-17.400000000000002
1698411902684.0,16,2.6,-1.2000000000000002,-0.6000000000000001,1.5,-0.2,9.3,50.6,-16.1,-15.2
1698411902703.0,16,3.5,-0.9,-1.0,2.5,0.30000000000000004,8.8,50.0,-30.000000000000004,-22.4
1698411902718.0,16,3.7,-0.8,-1.2000000000000002,2.9000000000000004,0.5,8.700000000000001,42.0,-34.6,-40.4
1698411902734.0,16,3.6,-0.8,-1.2000000000000002,2.8000000000000003,0.6000000000000001,8.6,36.1,-32.7,-50.9
1698411902751.0,16,3.2,-0.9,-1.4000000000000001,2.5,0.5,8.4,20.7,-23.2,-71.7
1698411902768.0,16,2.5,-1.0,-1.4000000000000001,2.2,0.5,8.4,2.4000000000000004,-10.5,-88.7
1698411902784.0,16,2.2,-1.1,-1.3,1.5,0.4,8.5,-6.7,-4.0,-95.3
1698411902801.0,16,1.5,-1.1,-0.9,0.7000000000000001,0.2,8.9,-19.0,5.1,-101.4
1698411902818.0,16,1.0,-1.0,-0.7000000000000001,0.2,0.2,9.1,-19.200000000000003,5.6,-100.9
1698411902835.0,16,0.6000000000000001,-0.7000000000000001,-0.5,0.0,0.30000000000000004,9.200000000000001,-14.3,0.1,-96.80000000000001
1698411902851.0,16,0.5,-0.6000000000000001,-0.4,-0.4,0.5,9.4,-11.5,-2.7,-94.0
1698411902868.0,16,0.1,-0.5,-0.4,-0.7000000000000001,0.5,9.4,-4.5,-11.3,-87.2
1698411902884.0,16,0.1,-0.5,-0.4,-0.8,0.6000000000000001,9.4,-0.5,-16.3,-82.9
1698411902901.0,16,0.1,-0.2,-0.5,-0.7000000000000001,0.9,9.3,3.7000000000000006,-23.900000000000002,-75.7
1698411902918.0,16,0.2,0.0,-0.5,-0.5,1.1,9.3,1.4,-26.1,-72.30000000000001
1698411902934.0,16,0.2,0.1,-0.4,-0.5,1.1,9.4,-0.8,-25.3,-72.10000000000001
1698411902952.0,16,0.2,0.1,-0.2,-0.4,1.1,9.600000000000001,-5.1,-20.7,-72.7
1698411902968.0,16,0.1,0.2,0.0,-0.5,1.1,9.9,-8.4,-16.700000000000003,-73.60000000000001
1698411902984.0,16,0.0,0.1,0.30000000000000004,-0.6000000000000001,1.1,10.100000000000001,-8.700000000000001,-13.200000000000001,-72.7
1698411903001.0,16,-0.2,0.2,0.4,-0.7000000000000001,1.0,10.200000000000001,-7.9,-10.9,-71.4
1698411903018.0,16,-0.30000000000000004,0.1,0.5,-0.9,1.0,10.3,-4.3999999999999995,-8.4,-66.60000000000001
1698411903035.0,16,-0.30000000000000004,0.1,0.4,-0.8,1.0,10.200000000000001,1.8,-7.9,-60.1
1698411903051.0,16,-0.2,0.2,0.30000000000000004,-0.7000000000000001,1.1,10.200000000000001,4.6000000000000005,-7.9,-57.5
1698411903067.0,16,0.1,0.4,0.0,-0.4,1.2000000000000002,9.9,8.1,-6.2,-54.7
1698411903084.0,16,0.2,0.4,-0.2,-0.30000000000000004,1.4000000000000001,9.5,7.1000000000000005,-2.4000000000000004,-55.6
1698411903101.0,16,0.30000000000000004,0.5,-0.5,-0.30000000000000004,1.4000000000000001,9.3,5.8,-0.2,-57.00000000000001
1698411903118.0,16,0.2,0.5,-0.8,-0.4,1.4000000000000001,9.1,2.5,4.0,-60.300000000000004
1698411903134.0,16,-0.1,0.5,-1.0,-0.7000000000000001,1.4000000000000001,8.9,-1.2000000000000002,8.600000000000001,-62.8
1698411903151.0,16,-0.30000000000000004,0.5,-1.0,-1.0,1.3,8.8,-2.4000000000000004,9.0,-62.8
1698411903168.0,16,-0.6000000000000001,0.4,-0.9,-1.3,1.3,8.9,-2.1999999999999997,7.400000000000001,-60.400000000000006
1698411903184.0,16,-0.7000000000000001,0.4,-1.0,-1.5,1.3,8.8,-1.7,6.5,-58.3
1698411903201.0,16,-0.9,0.5,-1.0,-1.7000000000000002,1.3,8.8,-2.4000000000000004,3.0000000000000004,-52.800000000000004
1698411903218.0,16,-0.8,0.6000000000000001,-0.30000000000000004,-1.6,1.4000000000000001,9.5,-4.9,2.0,-46.900000000000006
1698411903234.0,16,-0.6000000000000001,0.6000000000000001,0.2,-1.5,1.4000000000000001,9.9,-4.1000000000000005,7.9,-43.0
1698411903251.0,16,-0.7000000000000001,0.6000000000000001,0.1,-1.5,1.4000000000000001,9.9,-3.0000000000000004,11.2,-41.6
1698411903268.0,16,-0.6000000000000001,0.7000000000000001,0.2,-1.5,1.4000000000000001,10.0,-0.8,12.700000000000001,-38.800000000000004
1698411903285.0,16,-0.5,0.7000000000000001,0.4,-1.4000000000000001,1.4000000000000001,10.200000000000001,0.9,11.1,-36.4
1698411903301.0,16,-0.4,0.6000000000000001,0.7000000000000001,-1.4000000000000001,1.4000000000000001,10.5,1.0,10.0,-35.3
1698411903318.0,16,-0.30000000000000004,0.5,1.1,-1.4000000000000001,1.3,10.9,1.8,11.1,-33.400000000000006
1698411903335.0,16,-0.1,0.5,1.3,-1.2000000000000002,1.2000000000000002,11.100000000000001,4.0,14.200000000000001,-31.6
1698411903351.0,16,-0.1,0.4,1.3,-1.2000000000000002,1.2000000000000002,11.100000000000001,6.2,15.299999999999999,-30.7
1698411903368.0,16,0.1,0.30000000000000004,1.3,-1.0,1.1,11.100000000000001,12.000000000000002,14.0,-29.400000000000002
1698411903385.0,16,0.2,0.30000000000000004,1.3,-1.0,1.1,11.100000000000001,14.800000000000002,14.0,-29.000000000000004
1698411903401.0,16,0.30000000000000004,0.1,1.0,-1.0,1.0,10.8,22.5,13.4,-27.0
1698411903418.0,16,0.4,-0.1,0.4,-0.9,0.8,10.200000000000001,33.900000000000006,9.4,-24.1
1698411903434.0,16,0.7000000000000001,-0.30000000000000004,-0.5,-0.7000000000000001,0.8,9.3,43.0,-0.5,-22.8
1698411903451.0,16,0.8,-0.2,-0.8,-0.5,0.9,9.0,44.3,-7.699999999999999,-24.1
1698411903468.0,16,1.1,-0.1,-0.8,-0.1,1.2000000000000002,9.0,39.1,-19.3,-32.2
1698411903484.0,16,1.1,-0.30000000000000004,-0.30000000000000004,-0.1,1.1,9.5,30.000000000000004,-20.6,-45.1
1698411903501.0,16,1.0,-0.4,0.0,-0.1,1.0,9.700000000000001,26.700000000000003,-18.3,-52.2
1698411903518.0,16,0.6000000000000001,-0.6000000000000001,0.1,-0.5,0.9,9.8,21.700000000000003,-10.700000000000001,-66.0
1698411903535.0,16,0.2,-0.8,-0.1,-1.0,0.7000000000000001,9.700000000000001,15.399999999999999,-7.300000000000001,-75.80000000000001
1698411903552.0,16,-0.1,-0.9,0.0,-1.2000000000000002,0.6000000000000001,9.700000000000001,12.6,-9.0,-79.6
1698411903567.0,16,-0.5,-0.9,0.30000000000000004,-1.7000000000000002,0.6000000000000001,10.0,8.600000000000001,-15.000000000000002,-86.2
1698411903591.0,16,-1.2000000000000002,-1.0,1.1,-2.3000000000000003,0.4,10.8,2.1,-16.3,-93.2
1698411903600.0,16,-1.4000000000000001,-1.1,1.2000000000000002,-2.5,0.30000000000000004,11.0,0.8,-12.700000000000001,-94.9
1698411903617.0,16,-1.6,-1.1,1.3,-2.8000000000000003,0.30000000000000004,11.100000000000001,0.7,-8.3,-95.5
1698411903634.0,16,-1.9000000000000001,-1.1,1.1,-3.1,0.2,10.9,4.5,2.3000000000000003,-93.80000000000001
1698411903652.0,16,-2.1,-1.0,0.2,-3.5,0.30000000000000004,9.9,9.5,8.4,-89.6
1698411903667.0,16,-2.2,-1.0,-0.30000000000000004,-3.5,0.30000000000000004,9.4,10.700000000000001,8.1,-86.60000000000001
1698411903684.0,16,-2.2,-0.8,-1.0,-3.6,0.5,8.700000000000001,10.4,3.2,-81.30000000000001
1698411903701.0,16,-2.1,-0.8,-1.2000000000000002,-3.6,0.5,8.6,9.3,-1.0,-78.9
1698411903718.0,16,-2.1,-0.7000000000000001,-1.3,-3.6,0.6000000000000001,8.5,5.6,-7.0,-75.7
1698411903734.0,16,-2.1,-0.7000000000000001,-0.9,-3.6,0.6000000000000001,8.8,1.2000000000000002,-8.9,-73.4
1698411903751.0,16,-2.1,-0.7000000000000001,-0.8,-3.6,0.5,9.0,-0.1,-7.9,-72.10000000000001
1698411903768.0,16,-2.0,-0.7000000000000001,-0.6000000000000001,-3.6,0.5,9.200000000000001,-0.2,-6.6000000000000005,-67.80000000000001
1698411903784.0,16,-1.7000000000000002,-0.6000000000000001,-0.5,-3.3000000000000003,0.5,9.200000000000001,-0.8,-7.1000000000000005,-63.800000000000004
1698411903801.0,16,-1.5,-0.5,-0.4,-3.1,0.6000000000000001,9.3,-1.7,-8.3,-63.0
1698411903817.0,16,-1.2000000000000002,-0.5,-0.1,-2.7,0.6000000000000001,9.600000000000001,-3.4,-11.5,-64.10000000000001
1698411903834.0,16,-1.0,-0.5,0.2,-2.6,0.5,9.9,-4.800000000000001,-13.5,-66.60000000000001
1698411903851.0,16,-0.9,-0.5,0.5,-2.5,0.5,10.200000000000001,-5.8,-12.100000000000001,-69.7
1698411903868.0,16,-1.0,-0.5,0.5,-2.5,0.4,10.3,-5.7,-10.4,-71.2
1698411903884.0,16,-1.2000000000000002,-0.6000000000000001,0.6000000000000001,-2.7,0.2,10.4,-4.1000000000000005,-5.500000000000001,-71.8
1698411903901.0,16,-1.2000000000000002,-0.6000000000000001,0.30000000000000004,-2.8000000000000003,0.2,10.3,-1.9,-3.2,-70.5
1698411903917.0,16,-1.1,-0.6000000000000001,0.0,-2.7,0.2,9.700000000000001,4.300000000000001,-2.6,-66.4
1698411903934.0,16,-0.9,-0.30000000000000004,-0.6000000000000001,-2.5,0.5,9.200000000000001,9.8,-11.6,-63.70000000000001
1698411903951.0,16,-0.8,-0.2,-0.8,-2.3000000000000003,0.6000000000000001,8.9,10.8,-21.6,-64.7
1698411903967.0,16,-0.7000000000000001,-0.1,-0.8,-2.2,0.7000000000000001,9.0,9.4,-25.1,-66.0
1698411903984.0,16,-0.8,0.0,-0.5,-2.2,0.7000000000000001,9.200000000000001,5.6,-27.0,-69.00000000000001
1698411904001.0,16,-0.7000000000000001,0.0,-0.30000000000000004,-2.1,0.7000000000000001,9.5,2.4000000000000004,-25.3,-71.5
1698411904018.0,16,-0.6000000000000001,0.0,-0.2,-2.0,0.7000000000000001,9.600000000000001,2.6,-25.1,-72.6
1698411904034.0,16,-0.6000000000000001,0.1,-0.1,-1.9000000000000001,0.8,9.700000000000001,6.5,-28.200000000000003,-75.80000000000001
1698411904050.0,16,-0.6000000000000001,0.1,-0.1,-1.8,0.8,9.700000000000001,11.3,-34.2,-80.10000000000001
1698411904069.0,16,-0.7000000000000001,-0.1,0.0,-1.7000000000000002,0.7000000000000001,9.8,15.5,-39.300000000000004,-84.5
1698411904084.0,16,-0.7000000000000001,-0.1,-0.1,-1.7000000000000002,0.7000000000000001,9.700000000000001,16.700000000000003,-41.0,-87.10000000000001
1698411904100.0,16,-0.6000000000000001,-0.1,-0.1,-1.5,0.7000000000000001,9.700000000000001,15.299999999999999,-43.800000000000004,-94.0
1698411904117.0,16,-0.6000000000000001,-0.2,0.0,-1.4000000000000001,0.6000000000000001,9.8,12.8,-45.2,-98.7
1698411904135.0,16,-0.5,-0.4,0.6000000000000001,-1.3,0.4,10.4,7.2,-47.1,-109.10000000000001
1698411904152.0,16,-0.7000000000000001,-0.6000000000000001,1.3,-1.3,0.2,11.200000000000001,3.1,-44.9,-119.1
1698411904167.0,16,-0.8,-0.7000000000000001,1.7000000000000002,-1.4000000000000001,0.1,11.600000000000001,2.3000000000000003,-41.1,-122.7
1698411904184.0,16,-0.9,-1.0,2.1,-1.4000000000000001,-0.30000000000000004,12.0,5.7,-29.1,-127.10000000000001
1698411904201.0,16,-0.9,-1.0,1.7000000000000002,-1.4000000000000001,-0.2,11.600000000000001,11.1,-16.2,-127.50000000000001
1698411904218.0,16,-0.9,-0.9,1.4000000000000001,-1.4000000000000001,-0.1,11.3,13.200000000000001,-11.700000000000001,-127.10000000000001
1698411904235.0,16,-0.9,-0.7000000000000001,0.8,-1.4000000000000001,0.0,10.700000000000001,15.299999999999999,-6.000000000000001,-127.50000000000001
1698411904251.0,16,-1.1,-0.8,0.2,-1.6,0.0,10.100000000000001,16.700000000000003,-0.7,-124.60000000000001
1698411904267.0,16,-1.2000000000000002,-0.8,-0.1,-1.7000000000000002,0.0,9.9,17.3,0.6000000000000001,-121.1
1698411904284.0,16,-1.1,-0.6000000000000001,-0.7000000000000001,-1.7000000000000002,0.2,9.200000000000001,18.400000000000002,-1.2000000000000002,-111.10000000000001
1698411904301.0,16,-1.0,-0.30000000000000004,-1.0,-1.6,0.6000000000000001,8.9,18.1,-10.0,-101.10000000000001
1698411904318.0,16,-0.8,0.0,-0.9,-1.4000000000000001,0.9,9.0,14.500000000000002,-20.7,-93.7
1698411904334.0,16,-0.7000000000000001,0.1,-0.7000000000000001,-1.3,1.1,9.200000000000001,12.000000000000002,-23.900000000000002,-91.30000000000001
1698411904351.0,16,-0.7000000000000001,0.30000000000000004,-0.2,-1.2000000000000002,1.3,9.700000000000001,5.8,-26.3,-88.7
1698411904367.0,16,-0.8,0.4,0.1,-1.3,1.3,10.0,2.8,-26.1,-87.10000000000001
1698411904385.0,16,-1.0,0.4,0.7000000000000001,-1.4000000000000001,1.4000000000000001,10.700000000000001,-0.1,-22.7,-81.8
1698411904401.0,16,-1.1,0.6000000000000001,1.0,-1.5,1.5,10.9,6.1000000000000005,-15.100000000000001,-72.8
1698411904417.0,16,-0.9,0.8,0.2,-1.2000000000000002,1.8,10.100000000000001,20.900000000000002,-13.700000000000001,-62.50000000000001
1698411904435.0,16,-0.8,0.9,-0.4,-1.1,2.0,9.5,26.9,-15.9,-59.400000000000006
1698411904451.0,16,-0.6000000000000001,1.1,-1.2000000000000002,-0.9,2.2,8.700000000000001,31.099999999999998,-22.8,-57.1
1698411904467.0,16,-0.6000000000000001,1.0,-1.5,-0.8,2.2,8.4,29.200000000000003,-24.9,-58.2
1698411904484.0,16,-0.6000000000000001,0.9,-1.5,-0.8,2.2,8.3,27.7,-24.400000000000002,-59.300000000000004
1698411904501.0,16,-0.5,0.8,-1.6,-0.7000000000000001,2.2,8.200000000000001,24.7,-22.8,-62.6
1698411904518.0,16,-0.5,0.5,-1.6,-0.6000000000000001,2.0,8.200000000000001,21.200000000000003,-23.2,-67.80000000000001
1698411904534.0,16,-0.6000000000000001,0.4,-1.6,-0.8,1.9000000000000001,8.200000000000001,17.8,-23.0,-71.2
1698411904551.0,16,-0.9,0.0,-1.2000000000000002,-0.9,1.6,8.6,8.200000000000001,-23.6,-76.80000000000001
1698411904567.0,16,-1.1,-0.30000000000000004,-0.4,-1.1,1.3,9.4,-3.0000000000000004,-25.1,-79.39999999999999
1698411904584.0,16,-1.1,-0.30000000000000004,0.30000000000000004,-1.1,1.2000000000000002,10.100000000000001,-8.1,-25.700000000000003,-79.8
1698411904601.0,16,-1.1,-0.4,1.6,-1.1,1.0,11.4,-11.8,-20.6,-79.39999999999999
1698411904617.0,16,-1.5,-0.7000000000000001,2.4000000000000004,-1.5,0.8,12.200000000000001,-3.8,-10.1,-75.5
1698411904634.0,16,-1.6,-0.8,2.2,-1.6,0.6000000000000001,12.100000000000001,3.7000000000000006,-4.300000000000001,-70.5
1698411904651.0,16,-1.5,-0.9,1.1,-1.6,0.6000000000000001,10.9,20.0,2.4000000000000004,-55.300000000000004
1698411904668.0,16,-1.2000000000000002,-0.7000000000000001,0.30000000000000004,-1.4000000000000001,0.9,10.100000000000001,26.200000000000003,1.0,-46.900000000000006
1698411904684.0,16,-0.5,-0.2,-0.7000000000000001,-0.6000000000000001,1.4000000000000001,9.1,32.800000000000004,-9.8,-36.0
1698411904701.0,16,0.2,0.1,-1.2000000000000002,0.1,1.8,8.6,32.7,-20.1,-34.800000000000004
1698411904718.0,16,0.4,0.1,-1.3,0.4,1.9000000000000001,8.4,30.599999999999998,-23.0,-36.800000000000004
1698411904735.0,16,0.6000000000000001,0.2,-1.6,0.7000000000000001,2.1,8.1,23.0,-25.6,-44.7
1698411904751.0,16,0.6000000000000001,0.30000000000000004,-1.6,0.6000000000000001,2.2,8.1,11.5,-25.1,-54.7
1698411904767.0,16,0.30000000000000004,0.2,-1.2000000000000002,0.4,2.2,8.5,-0.5,-22.3,-64.10000000000001
1698411904784.0,16,0.1,0.2,-1.0,0.30000000000000004,2.1,8.700000000000001,-5.9,-19.9,-68.0
1698411904801.0,16,-0.2,0.1,-0.5,-0.1,2.0,9.200000000000001,-13.3,-13.8,-73.7
1698411904818.0,16,-0.7000000000000001,0.0,-0.30000000000000004,-0.30000000000000004,1.9000000000000001,9.4,-15.000000000000002,-11.3,-75.0
1698411904834.0,16,-1.0,0.0,-0.30000000000000004,-0.9,1.8,9.4,-16.2,-8.700000000000001,-74.0
1698411904851.0,16,-1.3,0.0,0.0,-1.3,1.8,9.700000000000001,-16.5,-9.9,-67.1
1698411904867.0,16,-1.3,0.2,0.4,-1.3,1.9000000000000001,10.100000000000001,-12.9,-11.6,-58.800000000000004
1698411904884.0,16,-1.3,0.30000000000000004,0.5,-1.2000000000000002,2.0,10.3,-9.700000000000001,-11.700000000000001,-55.4
1698411904901.0,16,-1.2000000000000002,0.4,0.4,-1.2000000000000002,2.1,10.100000000000001,-2.3000000000000003,-11.1,-49.5
1698411904918.0,16,-1.2000000000000002,0.6000000000000001,-0.1,-1.1,2.4000000000000004,9.700000000000001,2.8,-11.5,-45.0
1698411904934.0,16,-1.1,0.7000000000000001,-0.2,-1.1,2.5,9.5,2.9,-11.6,-44.00000000000001
1698411904951.0,16,-1.0,0.9,-0.4,-1.0,2.7,9.3,0.4,-8.4,-43.300000000000004
1698411904969.0,16,-1.0,1.0,-0.4,-1.0,2.8000000000000003,9.4,-3.7000000000000006,-2.6,-44.6
1698411904984.0,16,-1.0,1.0,-0.4,-1.0,2.8000000000000003,9.4,-4.6000000000000005,0.30000000000000004,-45.3
1698411905002.0,16,-1.2000000000000002,1.1,-0.6000000000000001,-1.2000000000000002,2.8000000000000003,9.200000000000001,-5.300000000000001,3.7000000000000006,-45.800000000000004
1698411905018.0,16,-1.4000000000000001,1.1,-0.5,-1.5,2.8000000000000003,9.200000000000001,-6.1000000000000005,3.2,-44.4
1698411905035.0,16,-1.5,1.0,-0.5,-1.6,2.8000000000000003,9.200000000000001,-5.9,4.1000000000000005,-41.1
1698411905052.0,16,-1.6,1.0,-0.4,-1.8,2.7,9.3,-6.000000000000001,5.9,-38.800000000000004
1698411905067.0,16,-1.6,1.0,-0.30000000000000004,-1.8,2.7,9.4,-5.500000000000001,10.3,-32.800000000000004
1698411905084.0,16,-1.4000000000000001,1.0,-0.4,-1.7000000000000002,2.7,9.3,-2.7,13.200000000000001,-27.5
1698411905102.0,16,-1.4000000000000001,1.1,-0.5,-1.7000000000000002,2.8000000000000003,9.3,-1.8,13.6,-25.5
1698411905118.0,16,-1.3,1.1,-0.5,-1.7000000000000002,2.8000000000000003,9.200000000000001,-0.5,14.0,-22.900000000000002
1698411905135.0,16,-1.4000000000000001,1.1,-0.5,-1.8,2.8000000000000003,9.200000000000001,-0.4,14.0,-22.000000000000004
1698411905151.0,16,-1.5,0.9,-0.30000000000000004,-2.0,2.6,9.4,-1.8,15.8,-18.0
1698411905168.0,16,-1.4000000000000001,0.8,-0.2,-2.0,2.4000000000000004,9.5,-2.5,18.6,-12.200000000000001
1698411905184.0,16,-1.2000000000000002,0.7000000000000001,-0.1,-2.0,2.4000000000000004,9.600000000000001,-2.4000000000000004,18.900000000000002,-9.9
1698411905201.0,16,-1.2000000000000002,0.7000000000000001,0.0,-1.9000000000000001,2.4000000000000004,9.700000000000001,-2.6,18.6,-6.1000000000000005
1698411905218.0,16,-1.0,0.6000000000000001,0.4,-1.8,2.3000000000000003,10.100000000000001,-1.5000000000000002,18.3,-4.300000000000001
1698411905234.0,16,-1.0,0.4,0.4,-1.9000000000000001,2.1,10.100000000000001,-0.1,18.900000000000002,-4.0
1698411905251.0,16,-1.1,0.4,0.4,-2.0,2.0,10.100000000000001,-0.8,18.2,-3.6
1698411905268.0,16,-1.1,0.1,0.8,-2.0,1.8,10.5,-3.9,16.400000000000002,-1.0999999999999999
1698411905285.0,16,-1.0,0.1,1.1,-2.0,1.8,10.8,-5.300000000000001,15.8,0.4
1698411905302.0,16,-0.8,0.0,1.6,-1.9000000000000001,1.7000000000000002,11.3,-4.5,17.8,2.1999999999999997
1698411905318.0,16,-1.1,-0.1,1.6,-2.2,1.5,11.3,2.0,22.1,3.2
1698411905334.0,16,-1.4000000000000001,-0.5,1.0,-2.6,1.2000000000000002,10.700000000000001,12.6,23.3,6.7
1698411905353.0,16,-1.5,-0.6000000000000001,0.4,-2.7,1.1,10.100000000000001,17.3,21.700000000000003,9.9
1698411905368.0,16,-1.5,-0.6000000000000001,-0.5,-2.8000000000000003,1.2000000000000002,9.200000000000001,19.400000000000002,14.200000000000001,16.700000000000003
1698411905385.0,16,-1.4000000000000001,-0.6000000000000001,-0.6000000000000001,-2.7,1.3,9.1,17.3,9.8,19.400000000000002
1698411905401.0,16,-1.1,-0.5,-0.5,-2.5,1.3,9.200000000000001,13.3,3.6,20.4
1698411905418.0,16,-1.0,-0.6000000000000001,-0.30000000000000004,-2.4000000000000004,1.3,9.3,9.200000000000001,3.2,16.6
1698411905434.0,16,-1.2000000000000002,-0.8,-0.2,-2.6,1.1,9.5,6.1000000000000005,7.0,13.200000000000001
1698411905451.0,16,-1.5,-0.9,-0.2,-2.8000000000000003,1.0,9.4,5.8,8.200000000000001,12.700000000000001
1698411905468.0,16,-1.7000000000000002,-1.0,-0.30000000000000004,-3.1,0.9,9.3,7.1000000000000005,6.000000000000001,15.6
1698411905484.0,16,-1.7000000000000002,-1.0,-0.5,-3.1,0.9,9.1,8.9,1.4,19.8
1698411905501.0,16,-1.6,-1.0,-0.5,-3.1,1.0,9.1,8.799999999999999,-2.1999999999999997,21.5
1698411905518.0,16,-1.4000000000000001,-0.9,-0.1,-2.8000000000000003,1.1,9.5,6.1000000000000005,-7.500000000000001,22.2
1698411905534.0,16,-1.3,-0.8,0.5,-2.6,1.2000000000000002,10.100000000000001,2.9,-2.6,20.3
1698411905551.0,16,-1.2000000000000002,-0.8,0.7000000000000001,-2.6,1.3,10.3,3.4,1.4,19.1
1698411905569.0,16,-1.2000000000000002,-0.8,0.4,-2.6,1.3,10.0,8.1,10.1,16.3
1698411905585.0,16,-1.4000000000000001,-0.7000000000000001,-0.30000000000000004,-2.7,1.3,9.600000000000001,11.700000000000001,14.800000000000002,14.800000000000002
1698411905601.0,16,-1.4000000000000001,-0.6000000000000001,-0.6000000000000001,-2.9000000000000004,1.5,8.9,12.3,14.100000000000001,14.500000000000002
1698411905620.0,16,-1.3,-0.6000000000000001,-1.0,-2.8000000000000003,1.6,8.6,11.4,10.2,14.900000000000002
1698411905634.0,16,-1.0,-0.4,-0.9,-2.5,1.8,8.6,9.8,7.2,14.200000000000001
1698411905651.0,16,-0.9,-0.30000000000000004,-1.0,-2.4000000000000004,1.9000000000000001,8.5,9.0,7.400000000000001,12.000000000000002
1698411905671.0,16,-0.9,-0.2,-1.1,-2.4000000000000004,2.0,8.4,4.9,7.500000000000001,5.300000000000001
1698411905684.0,16,-1.0,-0.30000000000000004,-1.0,-2.6,1.9000000000000001,8.5,-3.4,10.4,-1.3
1698411905701.0,16,-1.1,-0.4,-0.8,-2.7,1.9000000000000001,8.700000000000001,-7.2,12.000000000000002,-3.5
1698411905718.0,16,-1.4000000000000001,-0.4,-0.4,-3.1,1.7000000000000002,9.1,-10.9,12.3,-5.1
1698411905734.0,16,-1.5,-0.5,-0.2,-3.2,1.6,9.3,-10.3,9.8,-2.7
1698411905751.0,16,-1.5,-0.5,-0.1,-3.2,1.6,9.3,-9.9,7.8,-0.7
1698411905769.0,16,-1.4000000000000001,-0.30000000000000004,0.0,-3.2,1.8,9.5,-10.3,2.9,3.4
1698411905784.0,16,-1.2000000000000002,-0.1,0.6000000000000001,-3.0,1.9000000000000001,10.100000000000001,-11.1,-1.0,5.9
1698411905801.0,16,-1.2000000000000002,0.0,0.9,-3.0,2.0,10.3,-8.3,0.9,7.9
1698411905818.0,16,-1.2000000000000002,0.1,1.0,-3.0,2.1,10.5,-6.000000000000001,2.8,9.4
1698411905834.0,16,-1.0,0.2,0.6000000000000001,-2.8000000000000003,2.2,10.200000000000001,-0.1,7.0,13.8
1698411905851.0,16,-0.8,0.5,0.1,-2.6,2.5,9.600000000000001,4.800000000000001,7.8,17.8
1698411905867.0,16,-0.7000000000000001,0.6000000000000001,-0.2,-2.5,2.7,9.3,6.1000000000000005,6.5,18.7
1698411905884.0,16,-0.5,0.8,-0.5,-2.3000000000000003,2.9000000000000004,9.0,6.7,4.2,18.7
1698411905901.0,16,-0.30000000000000004,0.9,-0.7000000000000001,-2.1,3.1,8.8,5.6,1.6,17.5
1698411905917.0,16,-0.2,1.0,-0.8,-2.1,3.1,8.700000000000001,5.300000000000001,0.4,16.6
1698411905934.0,16,-0.2,1.1,-0.9,-2.0,3.3000000000000003,8.5,3.2,-2.9,14.100000000000001
1698411905951.0,16,-0.1,1.1,-0.7000000000000001,-2.0,3.3000000000000003,8.6,1.3,-5.0,12.700000000000001
1698411905968.0,16,-0.1,1.2000000000000002,-0.7000000000000001,-1.9000000000000001,3.4000000000000004,8.8,-1.8,-6.6000000000000005,8.1
1698411905985.0,16,-0.30000000000000004,1.1,-0.6000000000000001,-2.1,3.3000000000000003,8.9,-5.2,-6.000000000000001,1.6
1698411906001.0,16,-0.5,1.1,-0.5,-2.3000000000000003,3.3000000000000003,8.9,-7.699999999999999,-5.9,-0.1
1698411906018.0,16,-0.6000000000000001,0.9,-0.2,-2.4000000000000004,3.1,9.3,-10.3,-7.699999999999999,-0.5
1698411906034.0,16,-0.4,0.8,0.0,-2.2,2.9000000000000004,9.5,-9.9,-10.8,-0.6000000000000001
1698411906052.0,16,-0.30000000000000004,0.8,0.1,-2.0,2.9000000000000004,9.600000000000001,-10.3,-13.0,-2.1999999999999997
1698411906068.0,16,-0.6000000000000001,0.4,0.7000000000000001,-2.1,2.7,10.0,-12.000000000000002,-16.700000000000003,-7.500000000000001
1698411906085.0,16,-0.7000000000000001,0.2,1.0,-2.3000000000000003,2.3000000000000003,10.600000000000001,-12.9,-18.7,-10.8
1698411906101.0,16,-0.8,0.0,1.3,-2.4000000000000004,2.0,10.9,-12.4,-17.8,-10.1
1698411906118.0,16,-0.7000000000000001,-0.2,1.7000000000000002,-2.3000000000000003,1.8,11.3,-7.1000000000000005,-14.0,-4.9
1698411906134.0,16,-0.5,-0.30000000000000004,1.5,-2.0,1.7000000000000002,11.100000000000001,1.4,-12.200000000000001,0.6000000000000001
1698411906151.0,16,-0.30000000000000004,-0.4,1.3,-1.8,1.7000000000000002,10.9,8.700000000000001,-18.3,4.800000000000001
1698411906168.0,16,0.30000000000000004,-0.4,1.0,-1.1,1.7000000000000002,10.600000000000001,10.9,-22.000000000000004,5.300000000000001
1698411906184.0,16,0.7000000000000001,-0.30000000000000004,0.7000000000000001,-0.6000000000000001,1.7000000000000002,10.3,12.000000000000002,-25.3,1.5000000000000002
1698411906200.0,16,1.2000000000000002,-0.30000000000000004,0.5,0.0,1.8,10.200000000000001,6.8,-25.2,-9.4
1698411906219.0,16,1.3,-0.30000000000000004,0.5,0.1,1.8,10.200000000000001,1.5000000000000002,-23.0,-17.3
1698411906235.0,16,1.1,-0.4,1.2000000000000002,-0.1,1.6,10.8,-11.5,-16.400000000000002,-34.1
1698411906251.0,16,0.5,-0.9,1.9000000000000001,-0.7000000000000001,1.1,11.600000000000001,-15.399999999999999,-2.4000000000000004,-45.800000000000004
1698411906268.0,16,0.1,-1.2000000000000002,1.9000000000000001,-1.1,0.8,11.700000000000001,-12.200000000000001,5.4,-47.6
1698411906285.0,16,-0.30000000000000004,-1.5,1.2000000000000002,-1.6,0.4,11.0,1.0999999999999999,18.8,-41.5
1698411906301.0,16,-0.30000000000000004,-1.5,0.6000000000000001,-1.6,0.4,10.3,8.200000000000001,20.900000000000002,-35.7
1698411906319.0,16,0.1,-1.3,-0.5,-1.3,0.7000000000000001,9.200000000000001,20.8,13.100000000000001,-23.6
1698411906334.0,16,0.7000000000000001,-1.0,-1.1,-0.7000000000000001,1.0,8.5,30.100000000000005,-4.0,-17.599999999999998
1698411906351.0,16,1.1,-0.8,-1.4000000000000001,-0.2,1.3,8.3,31.7,-18.1,-18.400000000000002
1698411906368.0,16,1.3,-0.8,-1.3,0.0,1.3,8.3,29.500000000000004,-21.200000000000003,-20.8
1698411906384.0,16,1.3,-0.9,-1.1,0.1,1.3,8.5,22.6,-19.9,-27.5
1698411906401.0,16,1.2000000000000002,-1.1,-1.0,0.0,1.2000000000000002,8.700000000000001,17.0,-14.0,-34.2
1698411906418.0,16,1.0,-1.1,-1.1,-0.2,1.2000000000000002,8.5,14.4,-11.2,-36.9
1698411906434.0,16,0.7000000000000001,-1.1,-1.1,-0.5,1.2000000000000002,8.5,5.7,-7.400000000000001,-40.2
1698411906451.0,16,0.5,-0.9,-0.9,-0.7000000000000001,1.3,8.700000000000001,-3.4,-4.3999999999999995,-41.1
1698411906468.0,16,0.4,-0.8,-0.7000000000000001,-0.8,1.4000000000000001,8.9,-5.8,-3.7000000000000006,-41.2
1698411906484.0,16,0.1,-0.6000000000000001,-0.5,-1.2000000000000002,1.5,9.0,-5.300000000000001,-5.1,-39.400000000000006
1698411906501.0,16,-0.30000000000000004,-0.5,-0.6000000000000001,-1.5,1.7000000000000002,9.0,-2.9,-7.2,-35.1
1698411906519.0,16,-0.4,-0.4,-0.6000000000000001,-1.6,1.8,9.0,-1.8,-8.0,-31.6
1698411906534.0,16,-0.30000000000000004,0.0,-0.7000000000000001,-1.6,2.1,8.8,0.7,-7.400000000000001,-24.9
1698411906551.0,16,-0.2,0.30000000000000004,-1.1,-1.5,2.3000000000000003,8.700000000000001,1.6,-7.300000000000001,-22.7
1698411906568.0,16,-0.30000000000000004,0.4,-1.3,-1.5,2.5,8.3,0.7,-8.5,-20.8
1698411906584.0,16,-0.4,0.5,-1.3,-1.6,2.6,8.3,-4.800000000000001,-11.700000000000001,-21.0
1698411906602.0,16,-0.4,0.4,-0.8,-1.6,2.5,8.8,-10.4,-13.8,-20.4
1698411906618.0,16,-0.5,0.5,-0.30000000000000004,-1.7000000000000002,2.5,9.3,-15.000000000000002,-11.6,-19.500000000000004
1698411906635.0,16,-0.6000000000000001,0.5,-0.1,-1.8,2.5,9.5,-17.400000000000002,-9.3,-18.8
1698411906651.0,16,-0.7000000000000001,0.5,0.5,-1.8,2.4000000000000004,10.100000000000001,-19.6,-5.7,-15.8
1698411906667.0,16,-0.7000000000000001,0.6000000000000001,0.8,-1.9000000000000001,2.4000000000000004,10.4,-16.0,-0.8,-11.9
1698411906684.0,16,-0.8,0.6000000000000001,0.9,-2.0,2.4000000000000004,10.5,-13.0,2.1,-9.600000000000001
1698411906701.0,16,-1.0,0.6000000000000001,0.7000000000000001,-2.1,2.4000000000000004,10.3,-4.9,7.0,-3.2
1698411906717.0,16,-0.9,0.6000000000000001,-0.1,-2.2,2.4000000000000004,9.600000000000001,4.1000000000000005,7.8,4.5
1698411906735.0,16,-0.9,0.7000000000000001,-0.4,-2.1,2.5,9.200000000000001,6.4,6.3,8.1
1698411906751.0,16,-0.6000000000000001,0.9,-0.7000000000000001,-1.8,2.7,8.9,5.9,2.0,13.8
1698411906768.0,16,-0.30000000000000004,1.0,-0.6000000000000001,-1.5,2.9000000000000004,9.0,2.6,0.30000000000000004,14.600000000000001
1698411906784.0,16,-0.2,1.1,-0.5,-1.4000000000000001,3.0,9.1,0.30000000000000004,0.8,13.6
1698411906801.0,16,-0.1,1.0,0.0,-1.3,2.9000000000000004,9.600000000000001,-4.1000000000000005,3.2,10.8
1698411906818.0,16,-0.1,1.0,0.30000000000000004,-1.3,2.9000000000000004,9.9,-4.800000000000001,4.7,9.8
1698411906834.0,16,-0.1,0.9,0.7000000000000001,-1.4000000000000001,2.8000000000000003,10.3,-2.9,7.500000000000001,8.799999999999999
1698411906851.0,16,-0.1,0.7000000000000001,0.8,-1.4000000000000001,2.6,10.4,0.5,12.100000000000001,9.0
1698411906868.0,16,-0.2,0.6000000000000001,0.8,-1.5,2.5,10.4,1.9,14.800000000000002,9.3
1698411906885.0,16,-0.30000000000000004,0.5,0.6000000000000001,-1.7000000000000002,2.4000000000000004,10.200000000000001,4.9,18.900000000000002,11.9
1698411906901.0,16,-0.2,0.4,0.2,-1.6,2.4000000000000004,9.8,8.1,19.1,16.700000000000003
1698411906919.0,16,0.1,0.4,0.0,-1.4000000000000001,2.5,9.600000000000001,10.2,17.5,20.8
1698411906934.0,16,0.30000000000000004,0.4,-0.1,-1.2000000000000002,2.5,9.4,10.4,17.7,21.6
1698411906951.0,16,0.4,0.4,-0.30000000000000004,-1.2000000000000002,2.5,9.200000000000001,8.200000000000001,16.1,20.4
1698411906967.0,16,0.30000000000000004,0.2,-0.1,-1.2000000000000002,2.4000000000000004,9.4,4.6000000000000005,15.299999999999999,19.1
1698411906984.0,16,0.4,0.1,0.0,-1.2000000000000002,2.2,9.5,3.6,14.900000000000002,18.900000000000002
1698411907001.0,16,0.5,0.0,-0.1,-1.1,2.2,9.5,3.5,14.0,18.8
1698411907017.0,16,0.5,-0.1,-0.30000000000000004,-1.1,2.1,9.200000000000001,0.6000000000000001,9.4,17.5
1698411907034.0,16,0.6000000000000001,-0.2,-0.30000000000000004,-1.1,2.0,9.200000000000001,-2.1,3.7000000000000006,16.3
1698411907051.0,16,0.7000000000000001,-0.4,0.7000000000000001,-0.8,1.8,10.3,-11.6,-12.4,11.700000000000001
1698411907067.0,16,0.6000000000000001,-0.5,2.6,-0.8,1.7000000000000002,11.3,-19.700000000000003,-13.100000000000001,4.1000000000000005
1698411907084.0,16,0.4,-0.8,3.3000000000000003,-1.1,1.3,12.9,-19.6,-4.300000000000001,0.4
1698411907102.0,16,-0.30000000000000004,-1.4000000000000001,3.2,-1.9000000000000001,0.6000000000000001,12.8,-9.700000000000001,20.8,-0.4
1698411907118.0,16,-0.8,-1.6,1.3,-2.5,0.4,10.9,5.6,35.199999999999996,11.1
1698411907135.0,16,-0.8,-1.5,0.30000000000000004,-2.5,0.5,9.9,12.200000000000001,33.1,19.0
1698411907151.0,16,-0.5,-1.1,-1.2000000000000002,-2.3000000000000003,1.0,8.4,22.7,18.8,32.800000000000004
1698411907168.0,16,-0.2,-0.8,-2.2,-2.0,1.4000000000000001,7.300000000000001,28.0,0.30000000000000004,39.9
1698411907186.0,16,-0.1,-0.7000000000000001,-2.4000000000000004,-1.8,1.5,7.1000000000000005,27.5,-7.8,40.9
1698411907201.0,16,0.2,-0.5,-2.4000000000000004,-1.5,1.8,7.1000000000000005,19.6,-17.0,38.1
1698411907217.0,16,0.2,-0.5,-2.2,-1.4000000000000001,1.9000000000000001,7.300000000000001,13.3,-18.7,34.7
1698411907234.0,16,0.0,-0.6000000000000001,-1.2000000000000002,-1.5,1.8,8.3,-1.4,-18.900000000000002,19.6
1698411907252.0,16,-0.2,-0.6000000000000001,-0.9,-1.6,1.8,8.5,-5.1,-16.5,13.700000000000001
1698411907268.0,16,-0.7000000000000001,-0.7000000000000001,-0.5,-2.1,1.6,9.0,-12.3,-11.3,3.5
1698411907284.0,16,-1.1,-1.0,0.0,-2.5,1.3,9.5,-17.3,-12.000000000000002,-2.1
1698411907301.0,16,-1.2000000000000002,-1.1,0.4,-2.6,1.2000000000000002,10.0,-19.6,-14.3,-3.8
1698411907317.0,16,-1.5,-1.0,1.7000000000000002,-2.8000000000000003,1.2000000000000002,11.200000000000001,-23.6,-13.9,-6.4
1698411907334.0,16,-1.6,-1.1,2.2,-3.0,1.1,11.8,-22.3,-9.700000000000001,-7.1000000000000005
1698411907351.0,16,-1.9000000000000001,-1.2000000000000002,2.6,-3.2,0.9,12.200000000000001,-10.4,2.4000000000000004,-5.8
1698411907367.0,16,-1.9000000000000001,-1.2000000000000002,1.4000000000000001,-3.4000000000000004,0.8,11.0,6.4,20.3,-0.2
1698411907386.0,16,-1.8,-0.9,-0.4,-3.4000000000000004,1.0,9.9,11.4,25.2,3.5
1698411907402.0,16,-1.5,-0.7000000000000001,-0.9,-3.1,1.4000000000000001,8.6,14.100000000000001,22.4,10.5
1698411907418.0,16,-1.2000000000000002,-0.4,-1.5,-2.8000000000000003,1.7000000000000002,8.0,12.4,14.3,12.200000000000001
1698411907434.0,16,-0.8,-0.4,-1.6,-2.5,1.8,7.9,8.4,8.3,10.700000000000001
1698411907451.0,16,-0.7000000000000001,-0.30000000000000004,-1.6,-2.3000000000000003,1.9000000000000001,7.9,6.3,7.1000000000000005,8.799999999999999
1698411907468.0,16,-0.6000000000000001,-0.1,-1.5,-2.3000000000000003,2.1,8.0,-0.2,8.1,3.2
1698411907484.0,16,-0.8,-0.1,-1.3,-2.5,2.1,8.200000000000001,-8.799999999999999,10.0,-2.6
1698411907501.0,16,-0.9,-0.2,-1.0,-2.6,2.0,8.5,-12.3,9.700000000000001,-4.9
1698411907518.0,16,-1.2000000000000002,-0.30000000000000004,-0.30000000000000004,-3.0,1.9000000000000001,9.1,-16.700000000000003,8.600000000000001,-5.300000000000001
1698411907535.0,16,-1.2000000000000002,-0.30000000000000004,0.0,-3.0,1.8,9.5,-17.0,8.200000000000001,-3.8
1698411907551.0,16,-1.1,-0.2,0.4,-3.0,1.8,9.8,-13.5,7.9,0.6000000000000001
1698411907568.0,16,-1.0,0.0,0.4,-2.9000000000000004,2.0,9.9,-9.8,4.800000000000001,3.7000000000000006
1698411907584.0,16,-0.8,0.2,0.7000000000000001,-2.7,2.2,10.200000000000001,-8.5,0.6000000000000001,4.9
1698411907600.0,16,-0.8,0.30000000000000004,0.9,-2.7,2.3000000000000003,10.4,-5.8,0.6000000000000001,4.7
1698411907617.0,16,-0.9,0.30000000000000004,1.0,-2.7,2.3000000000000003,10.5,-3.8,2.3000000000000003,4.800000000000001
1698411907634.0,16,-0.8,0.4,0.6000000000000001,-2.7,2.3000000000000003,10.200000000000001,0.5,6.8,6.4
1698411907650.0,16,-0.8,0.5,0.30000000000000004,-2.7,2.4000000000000004,9.8,1.8,7.9,7.699999999999999
1698411907667.0,16,-0.5,0.7000000000000001,-0.1,-2.4000000000000004,2.8000000000000003,9.4,3.7000000000000006,6.5,9.200000000000001
1698411907684.0,16,-0.30000000000000004,0.9,-0.30000000000000004,-2.3000000000000003,3.0,9.200000000000001,3.7000000000000006,2.6,7.8
1698411907701.0,16,-0.30000000000000004,1.0,-0.30000000000000004,-2.3000000000000003,3.0,9.200000000000001,3.9,0.7,6.6000000000000005
1698411907718.0,16,-0.30000000000000004,1.0,-0.4,-2.2,3.1,9.1,3.4,-0.6000000000000001,3.6
1698411907735.0,16,-0.30000000000000004,1.0,-0.4,-2.3000000000000003,3.1,9.1,2.4000000000000004,-0.6000000000000001,1.9
1698411907751.0,16,-0.5,0.9,-0.30000000000000004,-2.5,3.0,9.200000000000001,0.7,-1.6,0.1
1698411907771.0,16,-0.5,0.9,0.0,-2.5,3.0,9.5,1.7,-4.9,1.4
1698411907784.0,16,-0.5,0.8,0.1,-2.4000000000000004,2.9000000000000004,9.600000000000001,4.5,-10.4,2.3000000000000003
1698411907801.0,16,-0.4,0.8,0.1,-2.3000000000000003,2.9000000000000004,9.600000000000001,5.4,-13.200000000000001,2.0
1698411907818.0,16,-0.2,0.8,0.4,-2.0,3.0,9.9,3.8,-15.7,-1.4
1698411907835.0,16,-0.2,0.8,0.7000000000000001,-2.0,3.0,10.3,-1.2000000000000002,-12.200000000000001,-7.9
1698411907853.0,16,-0.30000000000000004,0.5,1.2000000000000002,-2.1,2.6,10.700000000000001,-3.1,-4.3999999999999995,-13.3
1698411907868.0,16,-0.4,0.30000000000000004,1.2000000000000002,-2.2,2.5,10.700000000000001,-1.9,-0.7,-14.4
1698411907884.0,16,-0.6000000000000001,0.2,0.9,-2.4000000000000004,2.3000000000000003,10.4,3.5,1.8,-12.100000000000001
1698411907900.0,16,-0.5,0.1,0.5,-2.3000000000000003,2.3000000000000003,10.0,9.200000000000001,-1.7,-8.9
1698411907918.0,16,-0.30000000000000004,0.1,0.30000000000000004,-2.1,2.2,9.9,11.000000000000002,-3.8,-7.8
1698411907934.0,16,-0.1,0.0,0.0,-1.9000000000000001,2.2,9.5,11.700000000000001,-7.2,-6.6000000000000005
1698411907952.0,16,0.0,-0.1,-0.1,-1.8,2.2,9.4,10.4,-10.1,-7.0
1698411907969.0,16,0.4,-0.2,-0.1,-1.3,2.1,9.5,3.7000000000000006,-18.1,-11.3
1698411907984.0,16,0.6000000000000001,-0.2,1.3,-1.1,2.0,10.8,-9.200000000000001,-23.1,-20.7
1698411908001.0,16,0.5,-0.6000000000000001,2.8000000000000003,-1.2000000000000002,1.5,12.4,-14.600000000000001,-13.4,-29.900000000000006
1698411908018.0,16,0.30000000000000004,-0.9,3.1,-1.3,1.2000000000000002,12.8,-11.9,-5.2,-32.300000000000004
1698411908040.0,16,0.0,-1.3,2.9000000000000004,-1.7000000000000002,0.7000000000000001,12.5,1.2000000000000002,9.0,-30.000000000000004
1698411908050.0,16,0.0,-1.5,1.8,-1.7000000000000002,0.6000000000000001,11.4,18.0,15.399999999999999,-20.4
1698411908068.0,16,0.30000000000000004,-1.5,1.1,-1.5,0.6000000000000001,10.700000000000001,25.700000000000003,13.9,-14.500000000000002
1698411908084.0,16,0.9,-1.3,0.0,-0.9,0.9,9.600000000000001,37.300000000000004,6.000000000000001,-6.4
1698411908100.0,16,1.6,-1.3,-0.8,-0.2,1.1,8.8,42.800000000000004,1.6,-4.7
1698411908117.0,16,1.8,-1.3,-1.2000000000000002,0.0,1.2000000000000002,8.4,43.6,0.0,-6.1000000000000005
1698411908134.0,16,2.2,-1.3,-1.8,0.4,1.2000000000000002,7.7,41.800000000000004,-4.0,-12.6
1698411908151.0,16,2.1,-1.3,-2.1,0.30000000000000004,1.3,7.300000000000001,33.5,-5.8,-22.1
1698411908168.0,16,2.0,-1.3,-2.2,0.2,1.4000000000000001,7.2,27.2,-5.7,-26.700000000000003
1698411908187.0,16,1.7000000000000002,-1.2000000000000002,-2.2,-0.1,1.4000000000000001,7.2,12.5,-3.5,-35.7
1698411908201.0,16,1.3,-1.2000000000000002,-1.9000000000000001,-0.5,1.4000000000000001,7.5,-3.8,0.2,-43.0
1698411908218.0,16,1.0,-1.2000000000000002,-1.6,-0.8,1.4000000000000001,7.800000000000001,-9.700000000000001,1.6,-45.1
1698411908234.0,16,0.5,-1.1,-1.2000000000000002,-1.3,1.4000000000000001,8.200000000000001,-15.6,-0.4,-45.5
1698411908251.0,16,0.30000000000000004,-1.0,-0.9,-1.6,1.5,8.4,-16.2,-2.0,-44.1
1698411908269.0,16,-0.2,-0.8,-0.7000000000000001,-2.1,1.6,8.700000000000001,-15.399999999999999,-1.3,-38.800000000000004
1698411908284.0,16,-0.5,-0.5,-0.8,-2.5,1.8,8.6,-14.800000000000002,-1.3,-31.0
1698411908301.0,16,-0.6000000000000001,-0.30000000000000004,-1.0,-2.5,1.9000000000000001,8.5,-15.100000000000001,-3.5,-21.400000000000002
1698411908318.0,16,-0.6000000000000001,-0.1,-0.9,-2.6,2.1,8.5,-16.1,-6.2,-16.8
1698411908334.0,16,-0.5,0.30000000000000004,-0.5,-2.4000000000000004,2.4000000000000004,8.9,-17.599999999999998,-12.200000000000001,-9.1
1698411908351.0,16,-0.30000000000000004,0.4,-0.30000000000000004,-2.2,2.5,9.200000000000001,-17.599999999999998,-13.8,-6.8
1698411908369.0,16,-0.30000000000000004,0.7000000000000001,0.2,-2.1,2.7,9.5,-17.3,-13.100000000000001,-4.800000000000001
1698411908385.0,16,-0.4,0.7000000000000001,0.4,-2.2,2.8000000000000003,9.8,-16.700000000000003,-10.5,-3.3000000000000003
1698411908402.0,16,-0.4,0.8,0.5,-2.2,2.8000000000000003,10.0,-15.100000000000001,-9.4,-2.1999999999999997
1698411908418.0,16,-0.4,0.8,0.4,-2.2,2.8000000000000003,9.9,-11.1,-7.0,0.4
1698411908434.0,16,-0.4,1.0,0.2,-2.1,3.0,9.8,-8.700000000000001,-6.3,3.5
1698411908452.0,16,-0.30000000000000004,1.1,0.2,-2.1,3.0,9.700000000000001,-8.3,-5.4,4.2
1698411908469.0,16,-0.2,1.2000000000000002,0.1,-1.9000000000000001,3.1,9.700000000000001,-9.200000000000001,0.1,3.1
1698411908484.0,16,-0.30000000000000004,1.2000000000000002,0.1,-2.0,3.1,9.600000000000001,-9.5,1.8,2.8
1698411908501.0,16,-0.30000000000000004,1.2000000000000002,0.0,-2.0,3.1,9.600000000000001,-9.5,3.5,2.7
1698411908517.0,16,-0.4,1.2000000000000002,-0.2,-2.2,3.0,9.3,-10.1,6.8,3.7000000000000006
1698411908535.0,16,-0.5,1.1,-0.2,-2.3000000000000003,3.0,9.4,-9.1,6.7,7.0
1698411908551.0,16,-0.5,1.2000000000000002,-0.1,-2.3000000000000003,3.0,9.4,-7.6,6.5,8.700000000000001
1698411908567.0,16,-0.5,1.2000000000000002,-0.1,-2.3000000000000003,3.0,9.4,-4.300000000000001,6.4,12.4
1698411908584.0,16,-0.4,1.1,-0.2,-2.2,3.0,9.3,-1.5000000000000002,6.7,16.1
1698411908601.0,16,-0.2,1.2000000000000002,-0.30000000000000004,-2.1,3.1,9.3,-0.6000000000000001,6.2,19.200000000000003
1698411908618.0,16,-0.1,1.2000000000000002,-0.2,-1.9000000000000001,3.1,9.3,-0.7,5.2,19.700000000000003
1698411908635.0,16,0.2,1.1,0.30000000000000004,-1.7000000000000002,3.1,9.8,0.9,4.3999999999999995,19.3
1698411908651.0,16,0.30000000000000004,1.0,0.4,-1.5,3.0,9.9,4.2,8.200000000000001,17.200000000000003
1698411908668.0,16,0.30000000000000004,1.0,0.4,-1.5,3.0,9.9,5.500000000000001,10.8,15.9
1698411908684.0,16,0.2,0.9,0.2,-1.7000000000000002,2.9000000000000004,9.8,7.2,15.299999999999999,13.9
1698411908701.0,16,0.2,0.8,0.1,-1.7000000000000002,2.8000000000000003,9.600000000000001,7.9,17.5,14.200000000000001
1698411908718.0,16,0.30000000000000004,0.7000000000000001,0.0,-1.7000000000000002,2.8000000000000003,9.5,8.1,18.1,14.500000000000002
1698411908736.0,16,0.4,0.8,-0.1,-1.6,2.9000000000000004,9.4,8.4,19.400000000000002,14.3
1698411908751.0,16,0.4,0.8,-0.30000000000000004,-1.7000000000000002,3.0,9.1,7.9,21.6,12.4
1698411908768.0,16,0.30000000000000004,0.7000000000000001,-0.5,-1.8,3.0,9.0,4.6000000000000005,18.8,10.5
1698411908785.0,16,0.2,0.6000000000000001,-0.4,-1.9000000000000001,2.9000000000000004,9.0,1.4,16.3,9.700000000000001
1698411908801.0,16,0.1,0.6000000000000001,0.5,-2.1,2.8000000000000003,9.9,-5.6,10.1,9.3
1698411908818.0,16,0.0,0.4,1.1,-2.2,2.6,10.5,-6.3,9.3,9.5
1698411908834.0,16,-0.2,0.0,1.7000000000000002,-2.4000000000000004,2.2,11.100000000000001,-2.5,12.3,12.700000000000001
1698411908851.0,16,0.1,-0.30000000000000004,1.9000000000000001,-2.2,1.9000000000000001,11.4,6.7,14.4,20.8
1698411908868.0,16,0.5,-0.2,1.5,-2.0,1.9000000000000001,11.3,13.0,14.0,23.700000000000003
1698411908884.0,16,0.5,-0.2,1.1,-1.8,2.2,10.5,22.6,10.600000000000001,23.6
1698411908901.0,16,0.4,-0.5,0.7000000000000001,-1.9000000000000001,1.9000000000000001,10.100000000000001,22.6,5.9,20.7
1698411908917.0,16,0.4,-0.7000000000000001,0.5,-1.8,1.8,9.9,16.700000000000003,3.2,18.900000000000002
1698411908934.0,16,0.6000000000000001,-0.7000000000000001,0.6000000000000001,-1.7000000000000002,1.9000000000000001,10.0,12.5,1.0,17.599999999999998
1698411908951.0,16,0.8,-0.7000000000000001,1.1,-1.4000000000000001,1.9000000000000001,10.4,3.7000000000000006,-3.0000000000000004,11.9
1698411908967.0,16,0.7000000000000001,-0.9,1.7000000000000002,-1.5,1.7000000000000002,11.100000000000001,-3.3000000000000003,-1.7,2.6
1698411908984.0,16,0.4,-1.0,1.8,-1.8,1.5,11.200000000000001,-4.7,3.1,-1.4
1698411909000.0,16,-0.30000000000000004,-1.4000000000000001,1.2000000000000002,-2.6,1.1,10.600000000000001,-2.5,15.9,-4.1000000000000005
1698411909017.0,16,-1.0,-1.7000000000000002,0.0,-3.3000000000000003,0.8,9.4,4.0,22.3,3.0000000000000004
1698411909034.0,16,-1.1,-1.7000000000000002,-0.6000000000000001,-3.5,0.8,8.8,8.3,21.6,9.600000000000001
1698411909051.0,16,-1.0,-1.6,-1.8,-3.4000000000000004,0.9,7.6000000000000005,17.200000000000003,11.2,23.3
1698411909067.0,16,-0.7000000000000001,-1.4000000000000001,-2.5,-3.3000000000000003,1.1,7.1000000000000005,20.3,4.1000000000000005,28.8
1698411909084.0,16,-0.5,-1.3,-2.7,-2.9000000000000004,1.4000000000000001,6.5,21.1,-8.700000000000001,35.5
1698411909101.0,16,-0.30000000000000004,-1.1,-2.6,-2.6,1.7000000000000002,6.7,15.299999999999999,-16.2,35.6
1698411909118.0,16,-0.2,-1.0,-2.4000000000000004,-2.4000000000000004,1.9000000000000001,6.9,7.6,-16.0,30.799999999999997
1698411909135.0,16,-0.1,-0.9,-2.3000000000000003,-2.3000000000000003,1.9000000000000001,6.9,3.0000000000000004,-14.900000000000002,26.8
1698411909151.0,16,-0.2,-0.9,-2.0,-2.3000000000000003,1.9000000000000001,7.2,-9.8,-15.100000000000001,18.2
1698411909168.0,16,-0.1,-0.9,-1.6,-2.2,1.9000000000000001,7.6000000000000005,-16.3,-17.9,13.4
1698411909184.0,16,-0.30000000000000004,-0.8,-0.1,-2.3000000000000003,1.9000000000000001,9.200000000000001,-26.400000000000002,-25.3,1.8
1698411909200.0,16,-0.8,-1.0,1.5,-2.7,1.6,10.8,-31.4,-23.8,-8.799999999999999
1698411909217.0,16,-1.4000000000000001,-1.3,2.5,-3.3000000000000003,1.2000000000000002,11.9,-24.7,-9.600000000000001,-12.8
1698411909234.0,16,-1.6,-1.5,2.4000000000000004,-3.6,0.9,11.8,-17.1,-0.30000000000000004,-11.3
1698411909254.0,16,-1.8,-1.5,1.2000000000000002,-3.8000000000000003,0.9,10.600000000000001,-2.7,11.4,-2.9
1698411909267.0,16,-1.3,-1.0,-0.2,-3.3000000000000003,1.4000000000000001,9.200000000000001,2.1999999999999997,11.2,5.8
1698411909284.0,16,-1.0,-0.7000000000000001,-0.5,-3.0,1.7000000000000002,8.9,1.3,7.8,6.7
1698411909301.0,16,-0.5,-0.4,-0.8,-2.6,2.0,8.5,-3.3000000000000003,4.0,2.6
1698411909318.0,16,-0.5,-0.30000000000000004,-1.0,-2.5,2.1,8.4,-6.8,2.5,-1.2000000000000002
1698411909334.0,16,-0.7000000000000001,-0.5,-0.5,-2.7,2.0,8.6,-14.900000000000002,0.9,-8.799999999999999
1698411909353.0,16,-0.8,-0.5,-0.2,-2.9000000000000004,1.8,9.200000000000001,-21.3,3.0000000000000004,-11.6
1698411909368.0,16,-1.0,-0.5,0.2,-3.0,1.7000000000000002,9.4,-23.6,5.0,-11.3
1698411909384.0,16,-1.1,-0.4,0.4,-3.2,1.7000000000000002,9.8,-25.1,7.300000000000001,-8.1
1698411909402.0,16,-1.2000000000000002,-0.4,0.6000000000000001,-3.3000000000000003,1.7000000000000002,10.0,-20.7,4.5,-1.8
1698411909418.0,16,-0.9,-0.2,0.7000000000000001,-3.3000000000000003,1.7000000000000002,10.100000000000001,-12.700000000000001,-0.5,6.1000000000000005
1698411909436.0,16,-0.8,-0.1,0.6000000000000001,-3.0,1.9000000000000001,10.100000000000001,-9.200000000000001,-2.5,9.3
1698411909452.0,16,-0.5,0.1,0.4,-2.7,2.1,9.9,-5.2,-4.5,13.700000000000001
1698411909467.0,16,-0.2,0.4,0.4,-2.4000000000000004,2.4000000000000004,9.9,-4.800000000000001,-5.9,15.2
1698411909485.0,16,0.1,0.4,0.4,-2.2,2.4000000000000004,9.9,-4.5,-6.4,15.000000000000002
1698411909501.0,16,0.1,0.5,0.4,-1.9000000000000001,2.5,9.9,-2.5,-7.300000000000001,13.4
1698411909519.0,16,0.2,0.5,0.4,-1.9000000000000001,2.5,9.9,-1.3,-8.200000000000001,12.3
1698411909538.0,16,0.4,0.6000000000000001,0.30000000000000004,-1.6,2.7,9.8,4.6000000000000005,-7.9,7.0
1698411909552.0,16,0.4,0.6000000000000001,0.0,-1.6,2.7,9.5,6.1000000000000005,-7.400000000000001,4.7
1698411909567.0,16,0.30000000000000004,0.7000000000000001,-0.4,-1.7000000000000002,2.8000000000000003,9.1,5.500000000000001,-8.3,0.1
1698411909583.0,16,0.2,0.9,-0.30000000000000004,-1.8,3.0,9.200000000000001,2.8,-10.9,-4.6000000000000005
1698411909600.0,16,0.1,0.9,-0.30000000000000004,-1.8,2.9000000000000004,9.200000000000001,2.4000000000000004,-10.700000000000001,-7.2
1698411909617.0,16,-0.1,0.8,-0.4,-2.0,2.9000000000000004,9.1,2.4000000000000004,-10.4,-11.8
1698411909634.0,16,-0.5,0.8,-0.4,-2.4000000000000004,2.9000000000000004,9.1,1.3,-9.700000000000001,-14.500000000000002
1698411909651.0,16,-0.6000000000000001,0.8,-0.30000000000000004,-2.4000000000000004,2.9000000000000004,9.200000000000001,1.0,-10.2,-14.600000000000001
1698411909667.0,16,-0.6000000000000001,0.7000000000000001,-0.30000000000000004,-2.5,2.8000000000000003,9.3,3.5,-12.000000000000002,-13.200000000000001
1698411909684.0,16,-0.6000000000000001,0.8,-0.30000000000000004,-2.4000000000000004,2.9000000000000004,9.200000000000001,7.6,-16.3,-11.6
1698411909701.0,16,-0.6000000000000001,0.8,-0.4,-2.4000000000000004,3.0,9.200000000000001,8.9,-18.7,-11.5
1698411909717.0,16,-0.5,0.8,-0.4,-2.2,3.0,9.200000000000001,9.5,-21.3,-13.700000000000001
1698411909734.0,16,-0.6000000000000001,0.8,-0.1,-2.3000000000000003,3.0,9.4,6.8,-19.6,-17.7
1698411909751.0,16,-0.6000000000000001,0.7000000000000001,0.0,-2.3000000000000003,2.9000000000000004,9.600000000000001,6.4,-17.7,-19.3
1698411909768.0,16,-0.7000000000000001,0.4,-0.1,-2.4000000000000004,2.7,9.4,8.4,-14.800000000000002,-21.5
1698411909784.0,16,-0.8,0.30000000000000004,-0.4,-2.4000000000000004,2.6,9.1,7.0,-17.0,-23.0
1698411909801.0,16,-0.7000000000000001,0.2,-0.4,-2.3000000000000003,2.5,9.200000000000001,4.300000000000001,-19.500000000000004,-24.400000000000002
1698411909818.0,16,-0.6000000000000001,0.1,0.2,-2.2,2.3000000000000003,9.700000000000001,-2.6,-24.6,-27.3
1698411909835.0,16,-0.5,0.0,1.0,-2.0,2.2,10.600000000000001,-6.9,-23.400000000000002,-32.0
1698411909851.0,16,-0.5,-0.1,1.2000000000000002,-2.0,2.0,10.8,-7.9,-19.3,-35.1
1698411909867.0,16,-0.6000000000000001,-0.4,1.3,-2.1,1.7000000000000002,10.9,-10.9,-8.5,-38.900000000000006
1698411909884.0,16,-0.8,-0.6000000000000001,1.2000000000000002,-2.3000000000000003,1.5,10.9,-14.500000000000002,-1.0,-38.800000000000004
1698411909901.0,16,-0.8,-0.6000000000000001,1.3,-2.3000000000000003,1.4000000000000001,10.9,-15.7,1.6,-37.2
1698411909920.0,16,-0.8,-0.7000000000000001,1.3,-2.3000000000000003,1.2000000000000002,11.0,-14.800000000000002,4.6000000000000005,-31.2
1698411909934.0,16,-0.5,-0.7000000000000001,1.1,-2.2,1.1,10.9,-11.8,4.6000000000000005,-26.6
1698411909950.0,16,-0.30000000000000004,-0.6000000000000001,0.9,-1.8,1.2000000000000002,10.5,-2.4000000000000004,0.8,-16.8
1698411909968.0,16,0.4,-0.4,0.2,-1.2000000000000002,1.5,9.9,5.7,-6.000000000000001,-9.9
1698411909984.0,16,0.6000000000000001,-0.2,0.0,-0.9,1.7000000000000002,9.700000000000001,7.699999999999999,-10.1,-9.0
1698411910000.0,16,1.1,0.0,-0.1,-0.4,1.9000000000000001,9.600000000000001,7.1000000000000005,-15.7,-12.700000000000001
1698411910018.0,16,1.3,-0.1,0.1,-0.2,1.8,9.8,1.8,-13.5,-21.0
1698411910034.0,16,1.2000000000000002,-0.30000000000000004,0.4,-0.30000000000000004,1.6,10.100000000000001,-4.9,-4.3999999999999995,-29.700000000000003
1698411910050.0,16,1.1,-0.5,0.6000000000000001,-0.4,1.4000000000000001,10.3,-7.0,0.0,-32.7
1698411910067.0,16,0.9,-0.8,0.7000000000000001,-0.6000000000000001,1.0,10.4,-5.7,7.500000000000001,-33.900000000000006
1698411910084.0,16,1.0,-0.9,0.5,-0.5,0.9,10.200000000000001,0.9,9.0,-30.100000000000005
1698411910100.0,16,1.2000000000000002,-0.9,0.2,-0.5,0.8,10.100000000000001,10.600000000000001,2.1,-25.6
1698411910117.0,16,1.4000000000000001,-1.0,0.1,-0.2,0.8,9.8,15.6,-2.7,-23.8
1698411910134.0,16,1.8,-1.1,-0.30000000000000004,0.30000000000000004,0.8,9.4,22.2,-9.700000000000001,-22.7
1698411910150.0,16,2.2,-1.1,-0.5,0.7000000000000001,0.8,9.200000000000001,22.000000000000004,-10.5,-25.900000000000002
1698411910168.0,16,2.4000000000000004,-1.0,-0.6000000000000001,0.9,0.9,9.1,20.4,-9.5,-29.500000000000004
1698411910184.0,16,2.3000000000000003,-1.1,-0.9,0.8,0.9,8.8,15.299999999999999,-6.2,-39.50000000000001
1698411910201.0,16,1.9000000000000001,-1.2000000000000002,-1.2000000000000002,0.4,0.8,8.5,7.9,-2.3000000000000003,-47.5
1698411910219.0,16,1.7000000000000002,-1.2000000000000002,-1.3,0.2,0.8,8.4,3.7000000000000006,-1.0,-49.8
1698411910234.0,16,1.3,-1.1,-1.4000000000000001,-0.1,0.8,8.3,-4.6000000000000005,-0.7,-52.0
1698411910251.0,16,1.2000000000000002,-1.0,-1.3,-0.30000000000000004,0.9,8.3,-8.200000000000001,-2.0,-52.400000000000006
1698411910267.0,16,0.7000000000000001,-0.8,-1.1,-0.8,1.0,8.5,-12.8,-6.8,-51.2
1698411910284.0,16,0.4,-0.6000000000000001,-0.8,-1.1,1.1,8.9,-14.0,-10.1,-47.1
1698411910302.0,16,0.1,-0.30000000000000004,-0.8,-1.4000000000000001,1.3,8.8,-12.9,-8.700000000000001,-42.2
1698411910318.0,16,0.0,-0.2,-1.0,-1.5,1.5,8.700000000000001,-12.4,-7.9,-39.699999999999996
1698411910334.0,16,-0.2,0.1,-1.2000000000000002,-1.7000000000000002,1.6,8.5,-12.200000000000001,-8.799999999999999,-34.7
1698411910352.0,16,-0.2,0.2,-1.2000000000000002,-1.7000000000000002,1.8,8.4,-14.200000000000001,-12.6,-30.7
1698411910368.0,16,-0.30000000000000004,0.4,-1.2000000000000002,-1.7000000000000002,1.8,8.5,-16.0,-14.200000000000001,-28.900000000000002
1698411910385.0,16,-0.30000000000000004,0.6000000000000001,-0.9,-1.7000000000000002,1.9000000000000001,8.8,-21.5,-17.3,-26.9
1698411910401.0,16,-0.30000000000000004,0.7000000000000001,0.0,-1.6,2.0,9.600000000000001,-28.8,-17.8,-26.500000000000004
1698411910419.0,16,-0.30000000000000004,0.8,0.5,-1.6,2.0,10.200000000000001,-31.3,-15.8,-27.0
1698411910435.0,16,-0.6000000000000001,0.9,1.4000000000000001,-1.9000000000000001,2.0,11.200000000000001,-31.8,-7.9,-28.200000000000003
1698411910451.0,16,-0.8,0.9,1.7000000000000002,-2.2,1.9000000000000001,11.5,-29.400000000000002,-3.0000000000000004,-27.400000000000002
1698411910468.0,16,-1.2000000000000002,0.6000000000000001,1.7000000000000002,-2.6,1.6,11.5,-21.200000000000003,6.5,-21.200000000000003
1698411910485.0,16,-1.2000000000000002,0.7000000000000001,1.2000000000000002,-2.6,1.6,11.0,-11.2,9.5,-7.699999999999999
1698411910500.0,16,-0.7000000000000001,1.0,0.8,-2.1,1.9000000000000001,10.5,-0.9,2.9,4.3999999999999995
1698411910518.0,16,-0.4,1.1,0.6000000000000001,-1.8,2.0,10.4,3.2,-0.30000000000000004,8.1
1698411910534.0,16,0.1,1.2000000000000002,0.5,-1.3,2.2,10.3,8.1,-2.8,10.600000000000001
1698411910551.0,16,0.5,1.2000000000000002,0.30000000000000004,-0.9,2.3000000000000003,10.100000000000001,8.4,2.1,9.1
1698411910567.0,16,0.6000000000000001,1.2000000000000002,0.30000000000000004,-0.8,2.3000000000000003,10.0,7.8,5.1,7.300000000000001
1698411910583.0,16,0.7000000000000001,1.1,-0.1,-0.8,2.2,9.700000000000001,7.400000000000001,9.8,2.6
1698411910600.0,16,0.6000000000000001,1.0,-0.2,-0.9,2.1,9.600000000000001,5.6,11.6,-1.4
1698411910617.0,16,0.5,0.9,-0.2,-1.0,2.1,9.600000000000001,4.7,12.5,-2.6
1698411910634.0,16,0.4,0.8,0.0,-1.1,1.9000000000000001,9.700000000000001,5.1,14.4,-3.7000000000000006
1698411910651.0,16,0.30000000000000004,0.6000000000000001,-0.1,-1.3,1.7000000000000002,9.700000000000001,7.400000000000001,16.5,-2.5
1698411910668.0,16,0.30000000000000004,0.5,-0.1,-1.3,1.7000000000000002,9.600000000000001,8.600000000000001,16.5,-1.0
1698411910686.0,16,0.30000000000000004,0.4,-0.4,-1.3,1.6,9.3,10.0,15.5,2.8
1698411910701.0,16,0.7000000000000001,0.4,-0.2,-1.0,1.7000000000000002,9.5,9.5,12.3,6.4
1698411910717.0,16,0.9,0.5,-0.1,-0.9,1.8,9.600000000000001,9.5,10.5,7.1000000000000005
1698411910734.0,16,1.2000000000000002,0.5,0.2,-0.6000000000000001,1.8,9.9,9.3,7.300000000000001,4.800000000000001
1698411910751.0,16,1.5,0.4,0.5,-0.30000000000000004,1.7000000000000002,10.200000000000001,7.400000000000001,1.5000000000000002,-0.30000000000000004
1698411910768.0,16,1.5,0.4,1.0,-0.2,1.7000000000000002,10.600000000000001,4.9,-1.5000000000000002,-4.6000000000000005
1698411910785.0,16,1.4000000000000001,0.1,2.0,-0.4,1.4000000000000001,11.700000000000001,0.7,-0.4,-13.100000000000001
1698411910801.0,16,1.2000000000000002,-0.2,2.4000000000000004,-0.5,1.2000000000000002,12.100000000000001,1.3,4.2,-16.6
1698411910818.0,16,0.8,-0.7000000000000001,2.4000000000000004,-0.9,0.7000000000000001,12.100000000000001,9.200000000000001,17.599999999999998,-18.7
1698411910834.0,16,0.9,-0.8,1.4000000000000001,-0.9,0.6000000000000001,11.100000000000001,24.3,24.000000000000004,-14.0
1698411910851.0,16,1.3,-0.7000000000000001,-0.1,-0.6000000000000001,0.8,9.600000000000001,37.5,16.400000000000002,-11.1
1698411910867.0,16,1.7000000000000002,-0.5,-0.9,-0.2,1.1,8.8,39.9,0.9,-14.700000000000001
1698411910884.0,16,1.8,-0.5,-1.0,-0.1,1.2000000000000002,8.6,38.0,-5.2,-19.200000000000003
1698411910900.0,16,1.8,-0.6000000000000001,-0.9,-0.1,1.2000000000000002,8.700000000000001,29.600000000000005,-10.700000000000001,-31.5
1698411910918.0,16,1.6,-0.8,-0.5,-0.2,1.1,8.9,18.900000000000002,-7.9,-45.1
1698411910934.0,16,1.4000000000000001,-0.9,-0.30000000000000004,-0.5,0.9,9.3,13.3,-3.2,-51.5
1698411910951.0,16,0.8,-1.1,-0.1,-1.1,0.7000000000000001,9.4,2.5,6.2,-62.0
1698411910968.0,16,0.0,-1.3,0.1,-1.9000000000000001,0.4,9.700000000000001,-2.3000000000000003,5.300000000000001,-66.7
1698411910986.0,16,-0.30000000000000004,-1.5,0.30000000000000004,-2.3000000000000003,0.2,9.9,-1.8,0.6000000000000001,-66.1
1698411911000.0,16,-0.7000000000000001,-1.5,0.8,-2.7,0.1,10.4,2.3000000000000003,-8.200000000000001,-60.900000000000006
1698411911018.0,16,-0.8,-1.5,1.1,-2.8000000000000003,0.1,10.600000000000001,5.0,-9.1,-57.2
1698411911034.0,16,-0.8,-1.4000000000000001,0.9,-2.8000000000000003,0.2,10.5,12.6,-5.6,-50.300000000000004
1698411911051.0,16,-0.8,-1.3,0.2,-2.8000000000000003,0.4,9.8,16.900000000000002,0.1,-46.1
1698411911067.0,16,-0.6000000000000001,-1.2000000000000002,-0.5,-2.7,0.5,9.0,16.700000000000003,0.4,-41.9
1698411911084.0,16,-0.6000000000000001,-1.1,-0.7000000000000001,-2.7,0.6000000000000001,8.9,17.5,-6.6000000000000005,-40.1
1698411911101.0,16,-0.5,-0.9,-1.0,-2.6,0.8,8.6,17.599999999999998,-10.9,-40.1
1698411911117.0,16,-0.6000000000000001,-0.8,-1.1,-2.7,0.9,8.5,16.1,-19.500000000000004,-40.8
1698411911134.0,16,-0.6000000000000001,-0.8,-1.0,-2.7,0.9,8.6,14.3,-23.5,-41.2
1698411911150.0,16,-0.5,-0.8,-0.5,-2.5,0.9,9.1,8.799999999999999,-28.200000000000003,-42.300000000000004
1698411911167.0,16,-0.2,-0.6000000000000001,0.30000000000000004,-2.1,1.0,9.9,2.1,-30.299999999999997,-48.1
1698411911184.0,16,-0.2,-0.6000000000000001,0.7000000000000001,-2.1,1.1,10.3,-1.9,-29.1,-53.2
1698411911201.0,16,-0.5,-0.6000000000000001,1.8,-2.3000000000000003,0.9,11.4,-9.3,-20.6,-63.0
1698411911218.0,16,-0.9,-0.9,2.3000000000000003,-2.8000000000000003,0.6000000000000001,11.9,-7.400000000000001,-6.3,-67.5
1698411911235.0,16,-1.2000000000000002,-1.0,2.2,-3.0,0.4,11.9,-1.4,0.0,-66.80000000000001
1698411911251.0,16,-1.2000000000000002,-1.0,2.2,-3.0,0.4,11.9,-1.4,0.0,-66.80000000000001
1698411911268.0,16,-0.9,-0.7000000000000001,-0.4,-2.9000000000000004,0.8,9.3,22.5,5.1,-53.1
1698411911284.0,16,-0.7000000000000001,-0.5,-0.8,-2.7,1.0,8.9,23.400000000000002,1.2000000000000002,-51.1
1698411911301.0,16,-0.30000000000000004,-0.2,-1.4000000000000001,-2.4000000000000004,1.3,8.200000000000001,21.6,-3.4,-52.2
1698411911317.0,16,-0.1,0.0,-1.7000000000000002,-2.1,1.5,7.9,14.600000000000001,-5.7,-56.900000000000006
1698411911334.0,16,0.0,0.0,-1.7000000000000002,-2.0,1.5,7.9,9.8,-6.7,-60.1
1698411911351.0,16,0.0,0.0,-1.2000000000000002,-2.1,1.5,8.4,0.6000000000000001,-9.1,-67.4
1698411911368.0,16,-0.30000000000000004,-0.1,-0.4,-2.4000000000000004,1.3,9.1,-3.2,-12.000000000000002,-72.2
1698411911385.0,16,-0.5,-0.2,-0.1,-2.5,1.2000000000000002,9.5,-2.7,-13.100000000000001,-73.2
1698411911400.0,16,-0.6000000000000001,-0.30000000000000004,0.2,-2.7,1.0,9.9,0.8,-12.8,-71.9
1698411911417.0,16,-0.6000000000000001,-0.30000000000000004,0.30000000000000004,-2.6,1.0,9.9,2.9,-13.8,-69.9
1698411911434.0,16,-0.5,-0.2,0.30000000000000004,-2.5,1.1,9.9,2.6,-15.299999999999999,-69.9
1698411911451.0,16,-0.6000000000000001,-0.1,0.5,-2.6,1.1,10.200000000000001,1.7,-17.400000000000002,-71.8
1698411911468.0,16,-0.8,-0.2,0.7000000000000001,-2.8000000000000003,1.0,10.4,2.3000000000000003,-15.7,-73.30000000000001
1698411911484.0,16,-1.1,-0.2,0.5,-3.1,1.0,10.200000000000001,4.3999999999999995,-10.4,-72.8
1698411911502.0,16,-1.2000000000000002,-0.1,0.4,-3.2,1.0,10.0,5.6,-8.0,-71.30000000000001
1698411911517.0,16,-1.3,-0.1,0.0,-3.3000000000000003,1.1,9.700000000000001,8.799999999999999,-7.6,-66.60000000000001
1698411911534.0,16,-1.2000000000000002,0.1,-0.2,-3.2,1.2000000000000002,9.5,12.3,-12.6,-61.599999999999994
1698411911551.0,16,-1.1,0.1,-0.2,-3.1,1.3,9.5,14.4,-16.0,-59.7
1698411911567.0,16,-0.9,0.30000000000000004,-0.30000000000000004,-2.9000000000000004,1.4000000000000001,9.4,18.900000000000002,-20.0,-58.1
1698411911587.0,16,-0.8,0.30000000000000004,-0.6000000000000001,-2.8000000000000003,1.5,9.1,20.0,-19.6,-58.3
1698411911601.0,16,-0.8,0.30000000000000004,-0.7000000000000001,-2.7,1.5,9.0,19.200000000000003,-19.200000000000003,-58.9
