timestamp,interval,accx,accy,accz,accGx,accGy,accGz,alpha,beta,gamma
1698672752.001,0.01666666753590107,0.17714197075171395,0.12722411189973354,-1.3792922114402055,0.3550899606566876,-6.463297019195556,-8.63902719334066,13.022118506428967,20.471904018131195,-9.801300968400788
1698672752.174,0.01666666753590107,-0.16620302717871963,-0.317550868922472,0.3688274671733379,0.530914072009176,-5.223848162731528,-8.093598712158203,-2.256086614936082,1.8999876589248854,1.8714769552253712
1698672752.19,0.01666666753590107,-0.2690283916853368,-0.2516562549933791,0.46759296182990073,0.42796347368769344,-5.152021820665896,-7.998280143085122,-3.4329907478488666,0.19324157962785193,1.1884563306768037
1698672752.207,0.01666666753590107,-0.3287938552096486,-0.21594284431636332,0.5388701455801725,0.36960473515614867,-5.108776553179323,-7.931241912078857,-2.8082960968307997,1.6459088906686423,-1.0560658134990946
1698672752.224,0.01666666753590107,-0.4869442896403372,-0.42918665880709883,0.7026935110807419,0.2280476350646466,-5.31811985310018,-7.768286561584472,0.8156096440990303,6.607790099787496,-3.5478245839301756
1698672752.24,0.01666666753590107,-0.5158348685599863,-0.5512018038868903,0.7485486688047647,0.2202664796691388,-5.443366527447104,-7.71875709926188,2.2676514058613826,7.143999223221225,-4.487476119607043
1698672752.258,0.01666666753590107,-0.5012915255531668,-0.6484113012731075,0.7294546767562627,0.253036968762055,-5.542875241686404,-7.734917375946044,0.2943514845933423,3.7065575399110373,-3.991605239637764
1698672752.274,0.01666666753590107,-0.09781579271629452,-0.35591537863016126,0.5024363116741181,0.40402142055351287,-5.6651288716971875,-7.727436080279946,-4.524771513796252,-2.625270078962907,-1.1558829450816013
1698672752.29,0.01666666753590107,0.03947236135173589,-0.36233459802269935,0.567549127575755,0.4547485682280734,-5.68847233788371,-7.6562079963684075,-7.78177283272622,-5.792898586046669,1.2497810774180573
1698672752.307,0.01666666753590107,0.07070080863442271,-0.3443284012109041,0.5871341180115938,0.4335000284941867,-5.698947554668784,-7.620594831195473,-8.931042660587368,-8.790638730687647,2.387488782396549
1698672752.324,0.01666666753590107,-0.02483874624557793,-0.13305004157423972,0.6235019009441137,0.2811689478667453,-5.54197770832479,-7.550863707843423,-6.352427682854114,-2.83524524853132,0.9316245692982223
1698672752.34,0.01666666753590107,-0.18907748761400578,-0.0008989946663379669,0.6948930664628744,0.11552013877099379,-5.460425214275717,-7.445818110004067,-3.380717389140055,-1.1642857853080095,-2.2096718509878484
1698672752.357,0.01666666753590107,-0.2343327066835016,0.02411971125602722,0.649266456797719,0.08319839809257537,-5.456235361370444,-7.476942731586099,-1.2572233155707266,-2.248413751177219,-5.758923944454557
1698672752.373,0.01666666753590107,-0.16056125843208283,-0.08386603168845176,0.7011965505212545,0.18330595500785857,-5.6091644078910345,-7.393444948688149,1.267558352280308,-4.9117589331117735,-8.506095611185854
1698672752.39,0.01666666753590107,0.0029006898775696755,-0.41237843960821624,0.9117746529340743,0.3574841257842257,-5.973382335442304,-7.157915360370278,0.946512033811323,-3.751999642232778,-6.727154912609462
1698672752.407,0.01666666753590107,0.0708864308670163,-0.5485965898245573,0.9636398647278547,0.4246714098723605,-6.119278999108076,-7.09940647277832,-2.233481890434513,-1.5199015054354275,-3.2222913647850207
1698672752.423,0.01666666753590107,0.11421013388466089,-0.5886392618775368,0.7745657381147146,0.44577031200248746,-6.168809630474448,-7.282862759509682,-4.8049019042073935,-3.6176096938972537,-0.09676355677583509
1698672752.44,0.01666666753590107,-0.04094725620988756,-0.5761667337954044,0.4479045110195875,0.2608182520217262,-6.165367965587973,-7.604433969989419,-2.596512634679626,-5.297419588181019,-2.1840744364127564
1698672752.458,0.01666666753590107,-0.09139339498598129,-0.5411638094753026,0.343133053946495,0.20081357291406018,-6.143820735168457,-7.700202036395669,1.627484455382533,-5.684148314081726,-6.819030775343066
1698672752.474,0.01666666753590107,-0.09651903090402483,-0.5755827964276075,0.2084896057009697,0.20635012772055342,-6.248715526360273,-7.784896335601807,8.051703616272416,-6.932963453340756,-9.872745600892767
1698672752.49,0.01666666753590107,-0.07872523473389446,-0.8411258302152156,0.025768647506833074,0.250044326284714,-6.624006636589765,-7.887548316302895,8.881293270220288,-14.665630214142347,-8.894962186296775
1698672752.508,0.01666666753590107,-0.07201722499523311,-0.872820945161581,-0.10788988135457038,0.2467522990019992,-6.70391370151937,-7.986159497180581,6.889115346416567,-18.34811304477638,-7.593398776738207
1698672752.523,0.01666666753590107,-0.020415559508465228,-0.8594687116354703,-0.17715572528243065,0.27353743007499726,-6.752396285137534,-8.010250566864013,8.210650655995076,-9.411701855501382,-8.49224142622813
1698672752.54,0.01666666753590107,-0.06679223862225189,-0.5183972663938999,-0.23734335974156856,0.21832113602133466,-6.451175204247236,-8.040627000427246,11.32579321473211,1.813426110252375,-11.75864450055062
1698672752.558,0.01666666753590107,-0.07709595303162932,-0.3340279564708471,-0.39963527789115905,0.232836001852341,-6.300939634594321,-8.175899978747964,12.796665914757893,7.283712023354306,-15.20060819597818
1698672752.574,0.01666666753590107,-0.02863280476629734,-0.2137041254788637,-1.076664186361432,0.3215710643492639,-6.234051625713706,-8.8099139213562,15.871681112121102,1.0424307282033392,-18.6811991724831
1698672752.591,0.01666666753590107,0.19803492024727165,-0.15413842231035232,-1.4897230094492435,0.5759550272734836,-6.209810333904624,-9.194033650207519,21.60657431664144,-2.4488785226566234,-19.076236823509127
1698672752.607,0.01666666753590107,0.3000089286215603,-0.01946808605790138,-1.6498720703512428,0.7041944171629846,-6.124367262157797,-9.313893955340982,29.117724809168,-0.0294312584531585,-17.581873395380377
1698672752.624,0.01666666753590107,0.5529036028360947,0.44667000078856944,-1.964582747411728,0.9980827074797823,-5.735908042797446,-9.56378875361979,28.303250363853365,4.342901932332207,-14.445279773781273
1698672752.64,0.01666666753590107,0.6881472454644739,0.9540192189455032,-2.6277497192680834,1.1637314252439885,-5.273976175469159,-10.187926614379883,18.64710628324098,4.144705210544069,-11.514508780178623
1698672752.657,0.01666666753590107,0.5978444587267935,1.5132055918455123,-3.4027684618473053,1.0974420398436486,-4.742463991436362,-10.938508834838867,4.152223541272961,-0.04740612855366354,-6.292597787045741
1698672752.674,0.01666666753590107,0.5370250657027587,1.8249281930059194,-3.8794840568095443,1.046116341754049,-4.4366047293514015,-11.409717649078368,4.974056234757813,0.3582935544884596,-5.995927666672591
1698672752.69,0.01666666753590107,0.7127327476013451,2.6920424509584904,-4.648547690376639,1.2330137088499962,-3.590553717693686,-12.160450091663002,18.381589509445906,0.6533369425808095,-5.726583425621369
1698672752.707,0.01666666753590107,0.8078035524584353,3.1343291220963,-4.938644150662422,1.3355154674254357,-3.2190029630362984,-12.390293451038001,34.30380206859405,-4.7616958350651855,-4.692614021139207
1698672752.724,0.01666666753590107,0.8364771276265383,3.113653413814306,-4.898120417094231,1.3603553096495569,-3.3081869748771187,-12.291083135223388,34.83798433339158,-5.254288224232859,-2.79225475723479
1698672752.741,0.01666666753590107,0.9901967400029301,3.392906993046403,-4.398869749718904,1.5053541476927697,-3.0859757178157565,-11.742511679840087,23.32098594926049,-6.857559872451108,-0.32815862646823113
1698672752.757,0.01666666753590107,1.006055768718198,3.346292541387677,-4.026524629813433,1.4996679187498987,-3.1625907554626465,-11.345074788776039,-0.13004668173512376,-7.443752747117813,1.4496617610017204
1698672752.774,0.01666666753590107,0.9757575880229472,3.2755507796883583,-3.928435426983237,1.455973774984665,-3.219751735576987,-11.259930992236733,-13.148774119303098,-2.520591666960349,2.351453558109208
1698672752.79,0.01666666753590107,0.9738688516668975,3.3900819987535473,-4.0955712780326605,1.4493897204192354,-3.074004709514975,-11.454908789935708,-18.89781008427359,1.9044680495770023,2.484120591226597
1698672752.807,0.01666666753590107,0.8776334600098431,3.2228350885450836,-4.291220691382884,1.356913608230464,-3.18578399952352,-11.698668446460365,-24.661077602153455,2.902410340621463,0.2884438512089573
1698672752.824,0.01666666753590107,0.8816854388143867,3.031315906867385,-4.31290060827136,1.3655926623137666,-3.324498642730713,-11.765406233215332,-29.8487053145211,0.9798158227608935,-1.3248590503833664
1698672752.84,0.01666666753590107,0.9256499604862183,2.6253227843821048,-4.05002825499773,1.4155715854369104,-3.666719258007407,-11.556063810077308,-34.844630107454,1.7935517538715189,-3.325408224788584
1698672752.857,0.01666666753590107,1.1060568695843218,2.148902957496047,-3.5842777061641216,1.6178816257201134,-4.046349274224043,-11.168950744628905,-37.478590108031874,7.364449128212087,-5.370749352883923
1698672752.874,0.01666666753590107,1.1728664064012466,1.8551935674101112,-3.390200072175264,1.710806577654928,-4.26512003544271,-11.033678350830078,-37.17065444439643,10.483375611749308,-3.8165914605531195
1698672752.891,0.01666666753590107,1.273113664048165,1.405848794454336,-3.13190452529788,1.8394949534209444,-4.611830363354087,-10.854413086047767,-40.896737787597246,9.550201016396317,4.232795867817017
1698672752.907,0.01666666753590107,1.071387999524176,1.2630951049894095,-3.0242104587763547,1.6403273028166965,-4.665400625500083,-10.81520744934082,-48.53649903464785,3.7510105454635956,9.576039622026475
1698672752.924,0.01666666753590107,0.8556937231414019,1.3759405629247425,-2.9835856029212473,1.411232058395259,-4.4460307293444865,-10.855459964752196,-56.69288896032905,-0.30472061888792085,9.919962698625065
1698672752.94,0.01666666753590107,0.40684334610644723,1.5721277364134787,-2.8733488661795854,0.9617207332335412,-4.084955775994062,-10.864587858581542,-63.08907766519544,14.5215081000132,4.687000032528279
1698672752.957,0.01666666753590107,0.23989903557375072,1.8114555479705332,-3.0755005010306835,0.8391675722869113,-3.7113106794059276,-11.156980320850014,-64.03247705373595,27.990975822547675,-3.1552389708161828
1698672752.974,0.01666666753590107,0.2934220245119184,1.7751099768698215,-3.3468080896943806,0.9683047147337347,-3.6179368146598336,-11.509525930786133,-56.17234316820946,34.27330185885536,-8.057036286466904
1698672752.99,0.01666666753590107,0.5865739268455654,1.5416291377753017,-3.7049709549903866,1.3434462604247033,-3.743632401818037,-11.930755785369872,-43.055897188021675,31.32901562843255,-5.6255320575115
1698672753.007,0.01666666753590107,0.7732114008963108,1.570698580393195,-3.6114158884584904,1.6063595302306115,-3.6089585584342476,-11.896788633838295,-31.58345383539387,18.759375810175772,0.8340172173556262
1698672753.024,0.01666666753590107,0.7593864352919161,1.5917401993781328,-3.3480203880935906,1.618779451342672,-3.5244138968318697,-11.67008707962036,-28.04480112830196,8.45642220667329,4.68178731753109
1698672753.041,0.01666666753590107,0.636230888005346,1.7223732429385183,-2.817794152218103,1.485302708788961,-3.3152199422538278,-11.188702908325194,-27.130650317334748,-6.157477008469025,7.3608871845599255
1698672753.057,0.01666666753590107,0.3392722868651151,2.0054753142923114,-1.9050965392202137,1.1632825124327093,-2.9780864209830757,-10.31077908706665,-23.09395387634385,-6.316030885427585,8.042222459930793
1698672753.074,0.01666666753590107,0.10034633410722017,2.126173823815584,-1.3671692274481058,0.9059059070311486,-2.8160294806331394,-9.799018482208252,-15.57288424159514,-1.7006665172446347,4.835635194151512
1698672753.091,0.01666666753590107,-0.27753355050645767,2.556220022061467,-0.543580222967267,0.5389945756774396,-2.360382977184653,-8.98932940826416,-1.4882619347658128,7.856769163586606,-8.55722896863351
1698672753.107,0.01666666753590107,-0.12429894516803323,2.515321025440097,0.22930910636782645,0.7350198366027325,-2.4052736737906932,-8.20986771480143,7.543835509026009,14.885106390289659,-17.92442958037132
1698672753.124,0.01666666753590107,0.15437968372032046,2.258070603701472,0.618061171194911,1.078138788958639,-2.6846470800101754,-7.801356472015381,16.3201598707606,22.47207198260336,-16.37142214802884
1698672753.14,0.01666666753590107,0.5806802656970917,1.8757202226102352,1.3640887970894575,1.5884030177794395,-3.120841279491782,-7.013814347949624,20.31028808199035,20.5886797623709,-3.1200026652183213
1698672753.157,0.01666666753590107,0.4393795515194535,2.119965616825223,1.7864011862128972,1.4758754666868596,-2.9158371778190135,-6.564452039337158,14.965912650812786,4.951625893523492,3.5639267548984805
1698672753.174,0.01666666753590107,0.25771957362033426,2.5484756915450095,1.9393255565583705,1.277156801959127,-2.5133126082271335,-6.397905970874429,7.9309851453343185,-13.118502720901601,6.889961436100002
1698672753.19,0.01666666753590107,-0.4110136540610343,2.8600077385693785,2.6107915702044964,0.5418376170836389,-2.2134382657706735,-5.727229646301269,0.09915057448862233,-23.164067475721325,2.8026761318043487
1698672753.207,0.01666666753590107,-0.6614730274200439,3.025414573869109,3.2916374066144227,0.2536355191770941,-2.0412053838431836,-5.054758255004883,-3.3831068881325015,-14.844432613782232,-12.697978218987672
1698672753.224,0.01666666753590107,-0.4024388640698045,2.859223894715309,3.4632851821303365,0.5297169711790979,-2.1998218283504247,-4.885817984881997,2.994627712813567,7.809418023391847,-24.735869881112386
1698672753.24,0.01666666753590107,0.23576997294500468,2.1179314806491134,3.6872879987835883,1.2762589763365686,-2.9589333922237158,-4.638167166137695,15.184285751409142,31.53095017124398,-24.495583826111336
1698672753.257,0.01666666753590107,0.8666816386889665,1.4596943664103745,3.075430358403921,2.0085853360716253,-3.6462183217704296,-5.218910706329345,18.05495108031568,34.15199769919594,-15.755960632108161
1698672753.274,0.01666666753590107,1.012999085050076,1.3135299917191265,2.748511941677332,2.231246236596629,-3.825035258263349,-5.514744248962402,15.641367133308272,22.155694205153782,-3.058774928507623
1698672753.29,0.01666666753590107,0.9925558703497052,1.303860830619931,2.1531553542435167,2.2321439891539514,-3.8726206007808446,-6.083218090167641,12.276343811333614,-1.6180769370178982,8.783758168872506
1698672753.306,0.01666666753590107,0.5910343403205275,1.3780992022633551,1.871475424647331,1.8065746440611778,-3.8307220717281103,-6.348076064300537,19.235694419872246,-5.776860874988657,13.367782427492264
1698672753.324,0.01666666753590107,0.38117929148525,1.4578718271583317,1.8955495431959628,1.572092518969625,-3.810520995220542,-6.289567761230469,33.50388104885343,3.3367984190032267,16.94141338709745
1698672753.34,0.01666666753590107,-0.04311199649572372,1.3800515053749083,1.8656354664474724,1.1490670131407676,-4.002506040844321,-6.244676480102538,42.23266473264379,17.20186899071755,17.524544202581875
1698672753.357,0.01666666753590107,-0.3495372219003737,1.296723818346858,1.5029939944326878,0.8556276721678674,-4.16890305622518,-6.5496385010868305,35.44448805621579,15.817148881787721,18.401405595775405
1698672753.374,0.01666666753590107,-0.35909649288430806,1.3034767997384071,1.2290619024842977,0.847696952233836,-4.227710634502769,-6.778434397235513,24.612337372236244,10.388587953995163,20.545302938499443
1698672753.39,0.01666666753590107,-0.3822779003769159,1.4112187970548868,0.833269856017828,0.7990647310119122,-4.16935196903646,-7.1436997880131,11.591577219678463,0.27538799797133084,24.593759257693808
1698672753.408,0.01666666753590107,-0.4807726152680814,1.696597581169009,0.3214537215799093,0.6664857410155236,-3.895215878948569,-7.652617278400063,7.331877663607589,-3.3199760899643085,25.11784308780347
1698672753.424,0.01666666753590107,-0.5615809398863464,1.9355325940161943,0.05013502700030804,0.5469252225462347,-3.668813599938154,-7.920617642211914,9.18043848039392,-5.73181278920466,20.634148331675675
1698672753.441,0.01666666753590107,-0.7638705219034105,2.622194423228502,-0.4541881213337183,0.3124432435851544,-2.973149549102783,-8.435670858874916,9.966833164256986,-8.867752420190737,6.996839382458715
1698672753.457,0.01666666753590107,-0.8416044805776327,2.9989076752156016,-0.7122855152904987,0.23508052937611937,-2.567182145580649,-8.71414643947184,10.265737610262375,-6.804779585639834,-6.389878890733764
1698672753.474,0.01666666753590107,-0.7644220183063298,3.0494542056262492,-0.6394605175763368,0.3306990312438458,-2.511816232189536,-8.642170752063393,11.592448068797639,0.9968598127827198,-16.436734124419797
1698672753.491,0.01666666753590107,-0.5092573168005794,2.920869911289215,-0.506623241969943,0.6474817653380334,-2.639606745800376,-8.501210960277914,12.158572567022377,6.142973528653326,-25.435873771032192
1698672753.507,0.01666666753590107,-0.2481201898217201,2.6155460712552068,-0.553947887724638,0.9617208062987774,-2.9448674574702975,-8.540716456714271,10.02105718230407,2.1410433908680297,-28.960029401610743
1698672753.524,0.01666666753590107,-0.16730696983262897,2.4634552291244267,-0.4886497783839702,1.0865184947691857,-3.0995927397578953,-8.466795480456948,7.2003008994364635,-2.2443593935745816,-30.035077271308655
1698672753.54,0.01666666753590107,-0.019685089809447526,2.0024521670788524,-0.12706103029251098,1.2832919437132775,-3.547907000622153,-8.106168270874022,0.991428211566973,-5.4212539060411125,-30.363940634561015
1698672753.557,0.01666666753590107,0.1173196807399392,1.7341940291136502,0.16603987250626087,1.4550759128294883,-3.7978017989009616,-7.820061757007241,-1.1551324780465462,-2.674259824228235,-27.140219412361933
1698672753.576,0.01666666753590107,0.118330903609097,1.6527835738837717,0.216941207703948,1.4881458232603966,-3.8624452437251806,-7.775320113483071,-3.211994641167815,-2.7383336153887132,-23.758512499565875
1698672753.59,0.01666666753590107,0.05310556724369526,1.5851163973242044,0.23172318177223203,1.456572288867086,-3.8992560942500827,-7.77591807937622,-7.253906785363662,-4.88171335783971,-21.645950357206562
1698672753.607,0.01666666753590107,-0.06315539822354913,1.5859873349398375,0.3572562718451023,1.3606545848570764,-3.8648394453853365,-7.669675965228676,-12.454019229760448,-6.196309195221486,-22.36129655954951
1698672753.624,0.01666666753590107,-0.10294570295065641,1.5548884323209524,0.45498248658180235,1.3423986510679125,-3.8512224234431978,-7.598298243713378,-19.568334877735623,-4.955349627281618,-24.809596650560795
1698672753.64,0.01666666753590107,-0.09915814723595977,1.3191285423785448,0.6156172851741314,1.3910310184203087,-4.00340328194499,-7.485022577667236,-26.854331599367296,4.1809193004103005,-24.1625472172761
1698672753.657,0.01666666753590107,-0.0003707330085337162,0.7482055544555187,0.4385667738318443,1.5388729709349571,-4.5037920134395355,-7.69885529796183,-27.11304550474904,12.196650871645199,-19.30469811350959
1698672753.674,0.01666666753590107,0.023663053529709575,0.5640981103390454,0.024120880299806594,1.612494671984762,-4.626943761333823,-8.142830068317055,-21.16868235121546,11.496416462840905,-14.539502233381597
1698672753.689,0.01666666753590107,0.06720818074569106,0.7200187398910523,-0.6793857007294893,1.6989852069579063,-4.411465611919761,-8.875455191802978,-14.44204397166198,1.1711351843850628,-10.909576000863519
1698672753.707,0.01666666753590107,-0.06059899173900485,0.8023164993494749,-1.015716088923812,1.5774793265745042,-4.291754944390059,-9.233837252807616,-13.140470316819655,-8.465283523347736,-10.013792422348116
1698672753.724,0.01666666753590107,-0.12017960021570324,0.7133148583382367,-0.9018027094960213,1.504605959673971,-4.345176153454184,-9.144503603363036,-15.223750584433475,-14.765559296794217,-8.135307693034312
1698672753.74,0.01666666753590107,-0.2863146036595106,0.2936865937322378,-0.4964812026619911,1.3084310611449181,-4.704904952892661,-8.781482776641845,-21.06995538185751,-14.25017285881892,-6.176406877753715
1698672753.757,0.01666666753590107,-0.3766124219611287,0.017153379374742508,-0.2737485520750284,1.1942574233457446,-4.925170921105146,-8.596980195727944,-24.333674191836185,-14.650395477198632,-5.497939854947431
1698672753.774,0.01666666753590107,-0.3674973876133561,-0.05815612863153219,-0.22631167811751365,1.1810894603453577,-4.9432776556819675,-8.587403389087319,-23.47474204521394,-12.061219319461246,-6.047706050109988
1698672753.79,0.01666666753590107,-0.3445950893230736,-0.06657967358380555,-0.15931670173108578,1.193659019061178,-4.888659930309653,-8.558822606769203,-13.19604500477511,-2.377114578820946,-7.405874225528215
1698672753.807,0.01666666753590107,-0.2714351605661213,0.06142009886354208,-0.17859423365294932,1.2783539027892052,-4.735730299267172,-8.590245919036864,-2.990735572203718,2.8291497315839065,-8.000120320113188
1698672753.824,0.01666666753590107,-0.2087887347780168,0.1356368431970477,-0.2716571327537298,1.357661832781881,-4.658966208538413,-8.681675079455971,4.870978861785389,1.8357194208164735,-8.301340200247212
1698672753.84,0.01666666753590107,-0.07043225735872984,0.2768985405385494,-0.3844306944966316,1.5029599460326135,-4.528182650591432,-8.787169005584717,6.437366634711923,-5.978806516857484,-5.816550250481955
1698672753.857,0.01666666753590107,-0.020030249985307454,0.14263152438998222,-0.17748013493120668,1.540967897387594,-4.667794827160239,-8.579472011566162,3.3281592969202185,-9.665833557723694,-2.4042274416181346
1698672753.874,0.01666666753590107,-0.06024520986527204,0.04876227734237909,-0.012882862448692321,1.4811128558836877,-4.761467967113852,-8.418612172046304,-1.644545734320696,-8.210391108806615,1.5394059643840452
1698672753.891,0.01666666753590107,-0.14751520477831362,0.13809125061184166,0.10563362686038016,1.3693335658751427,-4.656871282085776,-8.313266714477539,-6.304986469539675,-5.2641762037169215,4.158048838861336
1698672753.907,0.01666666753590107,-0.2917743303701281,0.3777358730331063,-0.05286357518136501,1.2023377078182995,-4.377946496416628,-8.498069155120849,-6.136668837162581,-4.054566777180588,3.4942560506
1698672753.924,0.01666666753590107,-0.34462840707078574,0.3984390538439154,-0.09481588024795055,1.1364974544249475,-4.321084499248862,-8.562562962341309,-2.7736015106114853,-3.384751469618594,1.4108513454772384
1698672753.94,0.01666666753590107,-0.3482116723850369,0.2793991251826286,-0.0806663588643074,1.1347016570493578,-4.4189474921077485,-8.559869485473632,4.375626222419385,0.8514215532170236,0.37769323940242633
1698672753.957,0.01666666753590107,-0.3922039588466286,-0.13954232620298862,0.051556584236025806,1.093102403204143,-4.8630716078057885,-8.413224633789062,5.948929134993733,3.9599724991573195,2.62628927125312
1698672753.974,0.01666666753590107,-0.4284614132724702,-0.4294532007887959,-0.0036859950363636014,1.0492585853025316,-5.161299644359946,-8.4651488822937,0.5286477304965542,3.51680634703162,5.553672064140619
1698672753.99,0.01666666753590107,-0.46553281442970035,-0.3969786259025335,-0.09942717343568801,1.0016739734373987,-5.118652927288413,-8.56839882888794,-3.1028960295552013,0.7908849996338189,5.318097132119587
1698672754.008,0.01666666753590107,-0.5100862419053912,-0.3053495589971542,-0.210924723893404,0.9337383551999926,-5.004928348430991,-8.696189342498778,-2.4092745245279508,-0.7769212114842566,2.919720814742626
1698672754.024,0.01666666753590107,-0.42230888199210165,-0.3709028121426701,-0.2576414668828249,1.0067616519652307,-5.067476866802573,-8.747066712298988,5.7217681422565105,2.5836629144167165,-1.6733745754251446
1698672754.04,0.01666666753590107,-0.35872912087664005,-0.460544504623115,-0.25539047308564183,1.0761935001097618,-5.182547891832888,-8.729708165740966,14.359026437395059,5.974382688709432,-2.8651565678975097
1698672754.057,0.01666666753590107,-0.2379230593256652,-0.5688236775562167,-0.2614016961991787,1.200991115514934,-5.337422811724245,-8.708908538818358,17.73900189723652,6.323045916592012,-2.734068375695452
1698672754.074,0.01666666753590107,-0.1358751819975674,-0.5468859865143895,-0.26299919452369214,1.3054381629392504,-5.368098812755942,-8.680178118896483,13.763226474773907,4.28280523225938,-1.4928477664632416
1698672754.09,0.01666666753590107,-0.10576324458941817,-0.5200388961210847,-0.2344447156906128,1.3380590144284068,-5.368397795702517,-8.635586112976073,10.317077580932423,4.424151728264563,0.13959844782533537
1698672754.107,0.01666666753590107,-0.068104398933053,-0.44961189945936203,-0.29812019226551056,1.3753190700255333,-5.319167024065554,-8.687062033191323,8.656889966360458,6.1036021838432575,1.225893878178113
1698672754.124,0.01666666753590107,-0.06836392665207386,-0.4745347437918186,-0.47536885652840133,1.39028283040151,-5.371540477642417,-8.845677308654786,7.376521487570085,9.978838929270575,1.3348582338848536
1698672754.14,0.01666666753590107,-0.03490384785979986,-0.4118430175572633,-0.6777186443001032,1.4434041797362267,-5.323955719646811,-9.035717649951577,4.638903121053519,11.460908870666948,1.2138838442962918
1698672754.157,0.01666666753590107,0.1761578002862632,-0.15603987201750277,-1.2743874833762645,1.6802805064879356,-5.079747150310873,-9.62094973373413,5.094026799981795,15.191484770794336,-0.16879128998777812
1698672754.174,0.01666666753590107,0.4625596438378095,0.2382686578929424,-1.9200059390604496,2.0073883083067834,-4.714930087822675,-10.241646514129638,16.826416907136533,12.38049224334526,-0.7600072085000721
1698672754.19,0.01666666753590107,0.5740044411949813,0.4276695322424173,-2.042960703077912,2.143408743993938,-4.576665526470542,-10.32933414993286,29.733032645832353,10.46732210587884,0.7701609783923836
1698672754.207,0.01666666753590107,0.5081118730925023,0.7764210105925798,-1.6597651033341885,2.0904371783934534,-4.295346831402182,-9.9025682885319,34.23518598819211,2.002310509437435,2.968088372463248
1698672754.223,0.01666666753590107,0.21625907065868377,1.196324585008621,-0.9936217460155486,1.7865230590268968,-3.9519285307735204,-9.191191120257972,19.66871987551459,-6.052052184856232,0.9385469660220302
1698672754.24,0.01666666753590107,0.042332974947243925,1.3765601561278105,-0.5110223537117242,1.6071075721189378,-3.788074770134687,-8.699331732177734,-0.4426791809822184,-0.73286179558262,-4.890763785376801
1698672754.257,0.01666666753590107,-0.2547312785245478,1.5586480771154165,0.08886252480149269,1.351227415820211,-3.5526954039424656,-8.124872971343994,-26.513815933390894,14.547442328291737,-16.486893326137075
1698672754.274,0.01666666753590107,-0.12558920417428016,1.4299772735387086,-0.37454701386392114,1.5481502101071178,-3.60087871235311,-8.624363292694092,-32.77164378869304,23.868761998053635,-23.156188852513715
1698672754.29,0.01666666753590107,0.1599925551660359,1.3614081797033548,-0.616153291746974,1.9322700850889085,-3.5932466100394724,-8.891466999927163,-23.685562664135553,36.157324164038755,-24.805293631383687
1698672754.307,0.01666666753590107,0.6075074823461473,1.1355369388297198,-1.4201894544959068,2.5204956515990196,-3.767574710680544,-9.694871294513344,3.0038806981482304,30.294897667335942,-18.512008556552715
1698672754.324,0.01666666753590107,1.113710599207878,0.9772387664914131,-1.8638082510203122,3.095852091924846,-3.941902811321616,-10.11265948421061,22.897633749030174,15.966216052875957,-6.771811543176652
1698672754.34,0.01666666753590107,1.151086536269635,0.9299988764107227,-1.7038573430389166,3.1498712668821214,-4.044703845104575,-9.91528748485148,32.56247266045598,-2.2781880398731853,5.012939221042227
1698672754.357,0.01666666753590107,0.9523964400492608,1.0472972221016883,-0.7279764208972453,2.9104512469969688,-4.006396618542075,-8.900894168964028,28.889815056943014,-12.73759929258927,18.131730944323085
1698672754.373,0.01666666753590107,0.5043010826326907,1.1935294013321398,0.3577110298752785,2.4151507785521447,-3.901650295910239,-7.800608868518471,17.325041207114975,-9.216115119749837,24.68014749031613
1698672754.39,0.01666666753590107,0.3208177617639303,1.310370066383481,0.6426420702219009,2.189347488348186,-3.811418236321211,-7.508815541186928,4.957692809053755,-0.6537374691426073,27.518342099908427
1698672754.407,0.01666666753590107,-0.040547845096141094,1.478509541517496,0.5105722718566655,1.7868224803648889,-3.654448974499106,-7.643190109363198,-0.9130483757464917,2.529349250136775,28.757712368205798
1698672754.423,0.01666666753590107,-0.1968748634919524,1.92765148537755,-0.13932546858191489,1.5948374347411096,-3.214813110131025,-8.295011511340737,2.185284233669495,-1.2264299413062532,29.73742445746867
1698672754.44,0.01666666753590107,-0.20503274324536322,2.122318901953101,-0.35262101325988765,1.540818259783834,-3.040485886272788,-8.505401982226967,5.470969572349166,-4.978554768099913,29.314215691210926
1698672754.456,0.01666666753590107,-0.28959742472246286,2.4699106888741253,-0.4636170439362526,1.4068924582883715,-2.7139766348689793,-8.613440332141518,4.9248267925413005,-6.127098888361747,27.397621921423035
1698672754.473,0.01666666753590107,-0.34747108315080405,2.9513901372373104,-0.3858651112139225,1.2930182418271898,-2.2480045522391796,-8.537274207305908,-3.6081456130285545,-1.2461827416642242,21.37112403557276
1698672754.493,0.01666666753590107,-0.3008675912775099,3.1953081991940735,-0.431153867226839,1.3223473582945764,-1.9906284582942724,-8.594585409545898,-14.982986416190526,7.432425732152993,14.102990819941606
1698672754.506,0.01666666753590107,-0.07109203644171357,3.4848879421293733,-0.9141863902509212,1.561468249102682,-1.6630711591422558,-9.099761959838867,-21.089107232290225,11.9832868610314,5.89504406508421
1698672754.524,0.01666666753590107,0.26512407772317526,3.283648745948076,-1.5866379078030586,1.925835814257711,-1.812110797008872,-9.799168704333901,-11.8791503818508,8.711676621240422,-0.4562738187514826
1698672754.54,0.01666666753590107,0.4294922176249325,3.1296412565410137,-1.7311410712838171,2.1037549251280723,-1.9541168829768896,-9.948356810760497,2.1297524478397643,2.0347327770972505,-0.8987652762532314
1698672754.557,0.01666666753590107,0.6480510896585882,2.9016327113777396,-1.6023761596828698,2.315641625921428,-2.2080513120353222,-9.804854348754882,15.283545475522352,-6.8664177740309675,0.41290990820642365
1698672754.574,0.01666666753590107,0.5913360997460783,2.8376123668879267,-0.8632382933020591,2.239925144549459,-2.3020243117183448,-9.050831047931313,13.211646010613066,-11.090692127084747,-0.4059072300794416
1698672754.59,0.01666666753590107,0.5069941211089491,2.8100317015230654,-0.45957799767851826,2.1324853450499472,-2.347513558739424,-8.640524738422036,4.998586432275091,-12.696939176460184,-4.034687511601266
1698672754.607,0.01666666753590107,0.42785161081105466,2.589991358759999,0.2978425443679094,2.0388120589658616,-2.561495916637778,-7.889792880359291,-3.162173320371038,-4.650437603014378,-9.529560184724538
1698672754.624,0.01666666753590107,0.41360578944608567,1.981741972005367,0.745123955053091,2.0413558982297775,-3.1570535796016452,-7.447164263916015,-1.9850830648033702,5.36708751771515,-13.157763502024482
1698672754.64,0.01666666753590107,0.38444253106489773,1.7022347102731465,0.7863415161043406,2.0512321262083946,-3.4277480048030613,-7.4036203057438135,0.26330243180224283,12.03040577479438,-15.605684517536833
1698672754.657,0.01666666753590107,0.5081378843165933,1.3924088826447725,0.6711047791182995,2.2415711581908164,-3.7279210379451513,-7.511059520721435,0.13631558143379222,11.736315758380202,-17.70788697047253
1698672754.674,0.01666666753590107,0.6979223511561751,0.9836498025774956,0.5733768108159303,2.4747065448485315,-4.1256572042167186,-7.606379258838295,-1.6459567019928325,6.448473802962833,-16.37001000641794
1698672754.69,0.01666666753590107,0.8033534411817789,0.7884808662205934,0.6118202309787273,2.6089313292905687,-4.306420014080405,-7.570615287017822,-2.9046647299343906,1.9258640440388903,-11.045711062531982
1698672754.707,0.01666666753590107,0.8657138896353542,0.4426718710631132,0.7897773357719182,2.6837501311704517,-4.634724332207441,-7.400776606750488,-6.157112874008899,-1.035943115708885,-2.182610001166023
1698672754.724,0.01666666753590107,0.7439087340444326,0.2073258226186037,0.8676374050438403,2.559700557653606,-4.850950669640302,-7.33523533630371,-10.68955938599813,-1.5577785329211447,3.4010564118278834
1698672754.74,0.01666666753590107,0.6364645506307482,0.19863982733786104,0.8522580496042966,2.442983372851461,-4.830750177654624,-7.370400173187256,-18.114563263844257,-1.4723409772539247,7.50636509123932
1698672754.757,0.01666666753590107,0.4368886114865541,0.18237433671355247,0.6110451549530029,2.227804498644918,-4.783763970074057,-7.653364881896972,-28.057985100947377,-0.10583005926985845,9.434727276967141
1698672754.774,0.01666666753590107,0.32828371373042464,0.38811902762055395,0.16634499293267727,2.1074958652220666,-4.516660847362876,-8.137143839374184,-30.90638742825426,-0.5273998869517046,8.13867668384242
1698672754.79,0.01666666753590107,0.3234370043516159,0.46079847938418383,-0.061602177432179446,2.092232683508098,-4.380640557806194,-8.404396599689125,-29.093552769695325,-1.5234121159471081,5.298174750971129
1698672754.807,0.01666666753590107,0.28101269785910843,0.46521571130454537,-0.31538579984307286,2.042104232379049,-4.301930885967612,-8.702474121856689,-21.340854344718554,-0.7124799774907731,-0.4896489511613681
1698672754.824,0.01666666753590107,0.24320611429512498,0.24769641145169732,-0.3469043891787529,2.009632726232707,-4.479251446422935,-8.755595471191405,-13.394623363383122,2.891253866942482,-3.797260744541514
1698672754.84,0.01666666753590107,0.2527498954489827,0.05867372276484966,-0.32592765212357044,2.033874310302734,-4.6440024481624365,-8.745120838928223,-6.642543809831814,4.0031269149939295,-5.769675515981803
1698672754.857,0.01666666753590107,0.3061509385079145,-0.1264224401280284,-0.34758068100512024,2.108992241259664,-4.814289748980104,-8.770409593963622,-0.22264380977703788,3.881392453416792,-7.616032316100337
1698672754.874,0.01666666753590107,0.3657427990309894,-0.27479864564985035,-0.1713227813452482,2.1896467635557055,-4.961533443340659,-8.590246503558754,3.6246003925127614,5.6808156086535835,-8.178440337642941
1698672754.89,0.01666666753590107,0.36968846791684623,-0.28350597597956656,-0.13275778062939644,2.216581532232463,-4.9776940122857685,-8.54251210795939,7.306913322191193,5.692267274570756,-8.268276108248827
1698672754.907,0.01666666753590107,0.3989103246174752,-0.4515089652523398,-0.1724959167778492,2.2704512157164514,-5.166836235699058,-8.564957164001465,10.872991800121639,1.4640909625101954,-6.113540535972449
1698672754.924,0.01666666753590107,0.24126360192522406,-0.7652230324909091,-0.2775929525434971,2.1140797736570236,-5.502173813463747,-8.65758342525065,11.953096571126299,-6.568295811572367,-3.3955521331304994
1698672754.941,0.01666666753590107,0.17738997242972254,-0.8505001000210642,-0.2997030775427818,2.029235398455709,-5.611708539415895,-8.670601896777749,11.478393301168534,-15.297129014234216,-1.7699030776439961
1698672754.957,0.01666666753590107,-0.016351707603037356,-0.7077279981166124,-0.20910393820703027,1.7890670444212853,-5.496038963970542,-8.574683608245849,8.410497722241418,-19.066304020908635,-3.074935796414108
1698672754.974,0.01666666753590107,-0.13419438930377364,-0.3748100487142801,-0.15719430274963378,1.640177482549846,-5.176562387682497,-8.521712481036781,5.560888158998738,-20.441456742358568,-5.992340109811042
1698672754.99,0.01666666753590107,-0.07292612000107765,-0.20787965710908174,-0.2831032403975725,1.6707036998473106,-5.017347977282107,-8.649652632251382,5.406267617228458,-17.48202115235667,-10.736173719536174
1698672755.007,0.01666666753590107,0.16993424959629774,-0.29958792673051354,-0.10773030687868594,1.9098244445249437,-5.1270323408380145,-8.464700554004311,12.254535017313763,-3.0768292529180825,-12.739860085204544
1698672755.024,0.01666666753590107,0.3559958965204656,-0.5932616609811783,-0.41751697154045103,2.1067476772032676,-5.445760729107261,-8.757690982165933,16.140134867259285,-2.130814542255701,-10.742314059600016
1698672755.04,0.01666666753590107,0.49981166225895285,-0.7405746211856603,-0.6496054794937371,2.249352167455852,-5.62143498366028,-8.973468406787514,13.551629775607852,-11.666943234527675,-7.530641291096837
1698672755.056,0.01666666753590107,0.5591553932398557,-0.7471335413098334,-1.010014662411809,2.259527524511516,-5.653607360729575,-9.329007353320717,8.062427013269337,-28.22123857494173,-6.399421091891094
1698672755.074,0.01666666753590107,0.6419570105671882,-0.517667783075571,-0.9287667042672634,2.2866119307920334,-5.436782472881674,-9.251495074573159,9.370868423322108,-29.991944626700025,-7.712912573061444
1698672755.091,0.01666666753590107,0.6884099880538881,-0.366725526458025,-0.8322884437650442,2.2909515674315393,-5.312134348949789,-9.147645993041992,19.35416575857341,-16.78965341392894,-8.884623841214315
1698672755.107,0.01666666753590107,0.5661148569889366,-0.14609715467393397,-0.5538268916934729,2.166004168292135,-5.152022112926841,-8.833407609668374,25.022199948855782,-0.494222082975809,-11.304379717910473
1698672755.124,0.01666666753590107,0.5286556255578995,0.10958265674710273,-0.9387702118873595,2.1450547576352954,-4.940134681481123,-9.188497058868407,21.665039028389455,-0.9469844908028174,-13.621770695742004
1698672755.14,0.01666666753590107,0.5714205621816217,0.08901333144903183,-1.0360551125973463,2.200719800103456,-4.993106977733969,-9.26331586074829,14.15873455507902,-3.9608506053524892,-12.488848071885636
1698672755.157,0.01666666753590107,0.8355740413069724,0.22682956451177597,-1.118393788588047,2.4660274176999923,-4.871900518688559,-9.335142495074868,2.305667598451439,-6.871586519685375,-5.836080749526783
1698672755.174,0.01666666753590107,0.9750956169828772,0.597312982198596,-1.1809271093904972,2.594566119329631,-4.491372092327476,-9.406070719256997,-8.01687221282629,-8.320088215745251,-0.6661282860706567
1698672755.191,0.01666666753590107,0.9626876785695552,0.8964800531685352,-1.3368068224102259,2.5608978046141564,-4.1656110289424655,-9.58249286956787,-14.573745386785458,-11.14415799413396,1.434854764654779
1698672755.207,0.01666666753590107,0.8828104242563247,1.5151836139202117,-1.739462909427285,2.446275400134176,-3.508253035625815,-10.015395041766762,-7.9679014640245915,-10.687985881168087,2.7320389557383113
1698672755.224,0.01666666753590107,0.6059492931187153,1.7799995024770496,-1.8882669849723577,2.145952583257854,-3.238455851525068,-10.171616115570068,7.225271217268384,-9.333012953620958,1.7403260106603136
1698672755.241,0.01666666753590107,0.5023343126043677,1.886246292799711,-1.8101140702337026,2.0250453994199633,-3.1627398085445164,-10.078092613220214,22.81836598861759,-7.806253084485192,-1.5068747338626265
1698672755.257,0.01666666753590107,0.4376341691568494,1.9187761050045489,-1.4420774611771106,1.9440916019164025,-3.2023931890189647,-9.668534491729735,30.961797337895987,-9.297597569000796,-3.8600156688619447
1698672755.274,0.01666666753590107,0.6366445833727717,1.768001021647453,-0.8878916730433702,2.1305400562010703,-3.4091929419368503,-9.081506756702066,29.925176112468566,-8.748586109741526,-1.655471795836895
1698672755.291,0.01666666753590107,0.7576099271386861,1.9133996726632116,-0.4956096805244684,2.230048916570842,-3.336618119591474,-8.646659880176186,27.22431099387584,-6.323281131231554,4.641867850040128
1698672755.307,0.01666666753590107,0.7388128722101449,2.067721050325036,-0.3657727557778358,2.1918914737425745,-3.237558610424399,-8.4844527177006,25.71828160264471,-4.662944960045141,9.104483361728795
1698672755.324,0.01666666753590107,0.41783831244930625,2.3357103082209822,-0.2996235825657844,1.8450315082274376,-3.0177403859794136,-8.391228490558266,21.499029573065002,-8.026269699350582,12.100699520411213
1698672755.34,0.01666666753590107,0.03881006151810288,2.581221776849031,-0.28619594571590423,1.4169181777402757,-2.8248580992549654,-8.35127466583252,14.713962340256648,-9.438813437638101,13.593376745588616
1698672755.357,0.01666666753590107,-0.08199336968436836,2.78838919403553,-0.2971761894136667,1.2605468818113208,-2.647387316673994,-8.348281913757324,11.14661344714058,-7.216256221337613,11.985617663085668
1698672755.374,0.01666666753590107,-0.2856670995362103,3.177401371103525,-0.2961211274027824,1.033995695849508,-2.27942903355062,-8.336759818267822,8.52461908421493,-1.2046748283044104,8.522742489740468
1698672755.391,0.01666666753590107,-0.41948374156877394,3.2514392517387867,-0.35314416035115714,0.8967778670713304,-2.2264561527758837,-8.380005085754394,6.743359536415317,4.908675102701513,3.095454751897884
1698672755.407,0.01666666753590107,-0.46062619155719875,3.244748814189434,-0.39109833569228647,0.8653539702817797,-2.2456103505790233,-8.40783768005371,5.41457953056154,5.735403761160795,0.059284494530976846
1698672755.424,0.01666666753590107,-0.5139820803001522,3.024114597186446,-0.38680443789064883,0.8249519633971154,-2.4732097304195166,-8.396614859771727,3.0234397986102084,5.060381288130312,-1.5334000936694883
1698672755.44,0.01666666753590107,-0.5611443750999867,2.8192186320632695,-0.3285235138356685,0.795922268267721,-2.6779139723628758,-8.335413664355874,-1.313295433396829,4.231633028110822,-3.4669293175044253
1698672755.457,0.01666666753590107,-0.569240003272146,2.6745857047230004,-0.3168821758806705,0.8026556681759655,-2.8149814328849314,-8.326434823608398,-3.427605357131723,4.078863894492439,-4.944023892977267
1698672755.474,0.01666666753590107,-0.4701297868311405,2.3448393710941073,-0.2522282096624374,0.9169790897093713,-3.129071347698569,-8.269872393909097,-4.569435828326258,5.2056342254539185,-4.48528362888347
1698672755.49,0.01666666753590107,-0.4222419542357325,1.9312310974299907,-0.22278642660081385,0.9858123874388635,-3.520672956737876,-8.251766243854165,-6.6559698273059436,6.387430694803137,-1.6584015201040072
1698672755.507,0.01666666753590107,-0.39812458106726406,1.737269783297181,-0.22309914581179618,1.0206779491148887,-3.694851127514243,-8.263587030029296,-9.764440998771168,3.8346124877913748,0.843718167050307
1698672755.524,0.01666666753590107,-0.38665538480877876,1.6147493190437554,-0.3094160777837038,1.029506567736715,-3.7891222333610055,-8.369380815887451,-13.12588530162074,-1.3250242555839162,3.2518727006369343
1698672755.54,0.01666666753590107,-0.3771048816531896,1.5656091482996939,-0.24460312161147593,1.0158893996641039,-3.795557234844565,-8.337059677997232,-14.493907305577178,-7.0136271336649605,4.437202939107988
1698672755.557,0.01666666753590107,-0.3642814943067729,1.5563731179207563,-0.11542846016585827,1.0063125930234789,-3.7744577481925483,-8.231714220428467,-13.447518055862993,-7.444756784925804,3.4292674409775636
1698672755.574,0.01666666753590107,-0.33019963035434485,1.4211872333616018,0.10586626657247543,1.0163383124753833,-3.872770238384604,-8.03853207397461,-9.778379707319871,-4.330887629582154,1.6071498082846414
1698672755.59,0.01666666753590107,-0.22971198808029292,1.023326563927531,0.28600305349230765,1.1076173968993126,-4.250156275066733,-7.873182521820068,-6.98583808213994,-0.18197697018048772,2.9304683308450525
1698672755.607,0.01666666753590107,-0.15061054044514893,0.9471054940342902,0.2575952896535396,1.1806405475340782,-4.312106827545166,-7.911789608111977,-6.17317491761583,0.19181721838163981,5.538966666857582
1698672755.624,0.01666666753590107,-0.08354732112810015,0.942413536825776,0.14171791667640207,1.2337617507383227,-4.300134650200605,-8.040627000427246,-8.120764512744062,-3.732998909735449,7.149931242515381
1698672755.64,0.01666666753590107,-0.08725669704005122,1.026812652477622,0.08442132748365402,1.195155248968303,-4.185213555034995,-8.122928267017006,-11.71945202131944,-10.884182211303058,4.824946801874088
1698672755.657,0.01666666753590107,-0.016864917822182177,0.9957838924854994,0.21220248874425887,1.2361558062680065,-4.191497749871015,-8.015338245391845,-10.506975622878995,-9.743225577435462,3.5521504415523206
1698672755.674,0.01666666753590107,0.03137041303664446,0.6357657547116279,0.5883779805928468,1.2589008681699634,-4.523094679802656,-7.660846762084961,-9.774944975941,-2.4975049872354713,4.283034897370222
1698672755.69,0.01666666753590107,-0.039684798526018854,0.16030162111520765,0.7552174790441989,1.1824361987791954,-4.973205176433921,-7.510610607910156,-14.11657435865347,3.2258225725859173,6.55638054656528
1698672755.707,0.01666666753590107,-0.05330138207674026,0.01979308022856712,0.737074504110217,1.1698666400633753,-5.077202726525068,-7.551162398529052,-21.524822074918262,6.959841528385225,9.868195841131893
1698672755.724,0.01666666753590107,-0.08217281790450215,-0.037782325905561444,0.296744812259078,1.1426325231138617,-5.064035201916099,-8.034342805591224,-27.91632527001402,6.717924765719836,12.328710017926456
1698672755.74,0.01666666753590107,-0.16876842068731784,0.09608429274857044,-0.25638065316677094,1.0532988736692814,-4.872199793896079,-8.622567641448974,-27.445323962586404,4.669810580821473,11.5468232589156
1698672755.757,0.01666666753590107,-0.1951703245963901,0.11317921993434428,-0.47904140756130215,1.0211268619261682,-4.802468086022138,-8.877101789966225,-22.67856567668577,2.662817976707994,9.582511226265062
1698672755.774,0.01666666753590107,-0.18031397011764347,0.09366378760337829,-0.6944920844465494,1.031302145916596,-4.772391512188315,-9.122058547320961,-12.980632791183956,4.393050034992087,6.888954836971071
1698672755.79,0.01666666753590107,-0.10014189757630228,-0.09849398423880339,-0.6320423502743244,1.1177927539549768,-4.943128018078208,-9.071031539916993,-8.01734605719996,8.26495236744397,5.732735291629435
1698672755.807,0.01666666753590107,-0.0644460225559771,-0.15882570334374904,-0.580615529897809,1.1682204802915452,-4.9904135008662935,-9.024943742480874,-5.560790828803065,11.34122005074623,5.800258114877359
1698672755.824,0.01666666753590107,0.006521510723233223,-0.2186857132837176,-0.5109329218626022,1.2650361560545862,-5.03739970844686,-8.958803921619056,-4.4110676471357575,12.291182397305468,6.533043497718639
1698672755.84,0.01666666753590107,0.024522885229438542,-0.33516514380723234,-0.42868660033047196,1.3012484561644493,-5.148131535229086,-8.877101205444335,-1.859612062863413,11.948675731186007,7.523123814141592
1698672755.857,0.01666666753590107,-0.03251841402798891,-0.5123366511806845,-0.33810032047629357,1.2590505057737231,-5.327547022137045,-8.782979737201332,1.9781058131227907,10.774538038330489,9.320237938552095
1698672755.874,0.01666666753590107,-0.09444836210981011,-0.7785556845337152,-0.23367139323055744,1.205480243627727,-5.611708539415895,-8.667010009765624,6.6953906909874945,6.943053350292157,12.722750461333662
1698672755.89,0.01666666753590107,-0.13590236226543784,-0.7107981993421911,-0.18938859938979147,1.1574467189513147,-5.561879509624839,-8.613440332141518,5.567445567488773,2.528258554303689,14.626588852846552
1698672755.907,0.01666666753590107,-0.17595204858109353,-0.6092594405800104,-0.18795476719439028,1.1002851543150842,-5.47508940718323,-8.6061075050354,3.7374257260912636,-0.03922025355510904,15.502488896914404
1698672755.924,0.01666666753590107,-0.32626462899297476,-0.34977205356955526,0.007706921115517616,0.9280522723875939,-5.231479680523276,-8.404546237292886,2.896891547772093,3.7064350233928,14.702337358289288
1698672755.941,0.01666666753590107,-0.46036038022786374,-0.23529431825727223,0.13467150529623031,0.7893382137022912,-5.1273316160455344,-8.272266595569253,0.3428909176211255,8.96663136125772,11.696415500796281
1698672755.957,0.01666666753590107,-0.4385619515262544,-0.12159282801449298,0.07946691994667053,0.8228570369444786,-5.016001531109214,-8.324339897155761,-2.819347556351292,14.14838681848645,8.00680024512146
1698672755.974,0.01666666753590107,-0.16810966451764106,-0.05254267266392708,-0.26733342433571816,1.1299133998595177,-4.938040339550375,-8.670750949859618,-3.5945919563943107,16.506087865252105,4.190852529897614
1698672755.99,0.01666666753590107,0.23634002791792152,-0.11613602391332387,-0.7502052038401364,1.5680523036681115,-4.999241827227175,-9.149740919494628,2.140713620797165,18.04148706991429,3.2804523465583837
1698672756.007,0.01666666753590107,0.3910121187135577,-0.1492573722705245,-0.8782973307460546,1.757343872424215,-5.047724410845339,-9.26331586074829,11.367395043193012,16.975393578218267,3.922787668655301
1698672756.024,0.01666666753590107,0.6109850953288376,-0.40848318573534487,-1.0599696566700936,2.008884684344381,-5.358372368511557,-9.409511799621582,21.377477819048163,10.310989321061003,7.442045199825309
1698672756.041,0.01666666753590107,0.5403289660863578,-0.7325368606805801,-0.825895527857542,1.940649937029928,-5.7315685522884126,-9.145701288715005,20.298345496226585,2.6876627898139156,11.376205133448682
1698672756.057,0.01666666753590107,0.45134369168803096,-0.7449275556981563,-0.6359264982312918,1.83710071522817,-5.783792076000571,-8.934113716998695,12.235319987631225,0.29691560697687386,13.611650916712986
1698672756.074,0.01666666753590107,0.18787629513069987,-0.842846662658453,-0.2606733819246292,1.5623660747252404,-5.907692011913657,-8.544905725097657,2.923629817381989,11.861209182448471,15.77244017102811
1698672756.091,0.01666666753590107,-0.1549868558332324,-0.951050432267785,-0.36249358797669406,1.2381013873778284,-6.024857671135663,-8.63813053676188,1.4777832506402495,24.282688537229333,17.54259810010551
1698672756.107,0.01666666753590107,-0.38673970209136604,-0.7996440652698278,-0.6957581588596106,1.0401308376036584,-5.8836003577083344,-8.959401887512206,2.4891089771982333,26.400586764877715,16.995675824958617
1698672756.124,0.01666666753590107,-0.7704869443684816,-0.30086101540625093,-1.437511176174879,0.6940189139768481,-5.397427783092856,-9.686790863910316,1.7528209879732057,16.244831421951826,11.045674350265193
1698672756.14,0.01666666753590107,-0.9175089588023722,0.27348434818089007,-1.6188146687865257,0.5650312995359301,-4.827458150371909,-9.862166135516762,0.9653665575717316,9.789859547767369,3.231055137820382
1698672756.157,0.01666666753590107,-0.8897155274696648,0.528290883898735,-1.4956021306157112,0.6154593181334436,-4.57172748554647,-9.73542308513224,-0.8022302640103274,10.392157581610142,-6.240789094643902
1698672756.174,0.01666666753590107,-0.5679061243198812,0.7867150255918502,-1.2157885794132948,0.9994294093810021,-4.300135234722495,-9.452159101215004,-2.8581080261174683,19.851675030169844,-12.975881540842565
1698672756.19,0.01666666753590107,0.026546061620116232,0.8770587288618087,-1.3440642461925745,1.6575352984555065,-4.197333616417646,-9.57575917739868,-1.5486291743627953,21.618597157127954,-11.651204771132674
1698672756.209,0.01666666753590107,0.21491993100941179,0.9059124829024076,-1.5460837790966033,1.8989010455809532,-4.1650124785274265,-9.769241183581947,3.772620837110693,13.662660476981932,-8.3303949712028
1698672756.224,0.01666666753590107,0.4171557370126247,1.177199028778076,-1.782382598221302,2.129492592974752,-3.914519129833579,-9.986814259448646,15.34353161190799,-0.6416181522340659,-3.5004826218021132
1698672756.24,0.01666666753590107,0.3954756739936769,1.5707897658079861,-1.3295382927119732,2.104652750750631,-3.5595787337154148,-9.510517766681312,23.898360622821883,-5.737691020759103,-1.6779452526403524
1698672756.257,0.01666666753590107,0.32624314781352876,1.7033517316043376,-0.9808487736821174,2.025644095965475,-3.480420441326499,-9.13013897792399,27.34212492686939,-4.475589882903929,-0.3560584551238523
1698672756.274,0.01666666753590107,0.22378902777209878,1.672899310195446,-0.2588239546656608,1.9211969024106859,-3.5827725622981785,-8.362347848510742,22.989358066941566,4.321799209117806,3.017178436132011
1698672756.29,0.01666666753590107,0.2916160710684955,1.6417302649497985,0.036567104896903034,1.9985596896849571,-3.6501088994681834,-8.041375772967934,10.38221111863131,10.44213066067254,8.78292573956741
1698672756.307,0.01666666753590107,0.36133082780763504,1.6715046409666536,-0.07951777335107325,2.074276171056926,-3.630207682690024,-8.149712813568115,-4.762590162959634,9.798574869148306,15.81364840983809
1698672756.324,0.01666666753590107,0.42203678705245257,2.002785344555974,-0.5962737022787332,2.116025062505901,-3.2758652524650094,-8.685565072631835,-16.27553141472374,0.3873277281548318,22.075536812601808
1698672756.34,0.01666666753590107,0.4034114354290068,2.5970868699789045,-1.0410679723232983,2.0594620482847095,-2.6536726805537936,-9.156325558581948,-16.181722181568198,-7.0827298650452715,22.30225128172204
1698672756.357,0.01666666753590107,0.4016049705289304,2.878886042040586,-1.0891600953191518,2.011727652685344,-2.351703411644697,-9.226654647827148,-9.416905605875286,-9.119447452426646,18.397800963440933
1698672756.374,0.01666666753590107,0.3773588564142585,3.285765884232521,-0.8944353955984115,1.9452887027464807,-1.9428940626949072,-9.041403878894448,4.180686220204874,-1.2214137009694077,9.798895888039297
1698672756.39,0.01666666753590107,0.41722412607371806,3.38243119173944,-0.5372217938512563,1.9829975250244138,-1.8661299719661473,-8.671798997607826,13.263892688895432,6.629019608388365,3.95966257932373
1698672756.408,0.01666666753590107,0.4046475530952215,3.248629455015063,-0.42134500539600844,1.9861397685728965,-2.0350708266109225,-8.530092186847329,19.341365984068805,9.384153141257782,-0.44794669757532635
1698672756.423,0.01666666753590107,0.37651290710940954,2.879305728757381,-0.11276771652400493,1.9885338241025805,-2.460340311974287,-8.178742508697509,22.44355765036585,7.424506127810363,-4.902150991383681
1698672756.44,0.01666666753590107,0.3645474517665803,2.5023931548058984,0.326491715747118,1.9994576614379882,-2.882767851909995,-7.704541526904702,24.44873555859422,5.861078815002206,-7.396560408821256
1698672756.457,0.01666666753590107,0.2965726705625653,2.3327000204890966,0.5457604896157979,1.957708623858541,-3.099593324279785,-7.448062674060464,24.793129064471895,7.552248594536173,-9.785157816297463
1698672756.474,0.01666666753590107,0.25500381185561416,2.04645205232501,0.8846937537848949,1.9601029716491698,-3.445854154857993,-7.058705629077553,22.91498584461659,9.183894556113948,-10.458047562759608
1698672756.49,0.01666666753590107,0.16094824845567346,1.7113684493213892,0.9899217224538326,1.8989008994504808,-3.817553378075361,-6.92088881149292,17.303688328222222,8.460535688100931,-8.24009133263877
1698672756.507,0.01666666753590107,0.11136720207631587,1.5449965683817863,0.9439981756687164,1.8730138862609862,-4.0071448065608735,-6.945280325427651,7.570228213752585,5.424307854373755,-3.904747858396828
1698672756.524,0.01666666753590107,-0.013646248036623,1.3108856146901846,0.858490221992135,1.755997133990377,-4.233696138653159,-7.034314115142822,-12.994145466683179,-1.4317443605397786,1.6806377345555126
1698672756.54,0.01666666753590107,-0.07896744599193334,1.3686205953001975,0.6056997022718191,1.67908355178833,-4.133887272423506,-7.319074475097656,-26.856705090103876,-6.576070274395134,1.878832642074652
1698672756.556,0.01666666753590107,-0.09744929749146103,1.4563842189490794,0.47881695115566253,1.6461631328307091,-3.982902930229902,-7.492654095458984,-32.215686880821515,-6.25859198271554,-1.8844854773864836
1698672756.574,0.01666666753590107,0.04042597228214145,1.5717869601517915,0.11543079825341701,1.7841288573667407,-3.780592889946699,-7.914632138061523,-25.168859478261588,0.37848572810913295,-7.387407955333439
1698672756.59,0.01666666753590107,0.25328078745529053,1.4231231698602438,-0.25778350570201874,2.0142716380797325,-3.882945595440268,-8.314763090515136,-15.088140593557457,3.864676419196832,-8.243090639458051
1698672756.607,0.01666666753590107,0.3102504827812314,1.264539458578825,-0.4939122289568186,2.0881926143370566,-4.012831035503745,-8.566004042705893,-8.865515533237557,0.6633784945994918,-8.224091614508014
1698672756.624,0.01666666753590107,0.4376910139106214,1.0515461117178202,-0.6767074214309453,2.222567036382854,-4.202720570152998,-8.762329163360596,-4.155272793850549,-6.437828953141368,-6.578451022207707
1698672756.641,0.01666666753590107,0.4548072761453688,0.9471206916034222,-0.4612789563775062,2.229001599474996,-4.29654393223226,-8.556129129901528,-3.07064643761534,-11.304046746188435,-5.361645564493942
1698672756.657,0.01666666753590107,0.47371159084066744,0.8192927685916424,-0.058220718300342554,2.224362979888916,-4.410867061504721,-8.166921722522378,-4.431000700454793,-11.043919845422145,-4.820782520914496
1698672756.674,0.01666666753590107,0.5235460274592042,0.7638456066578626,0.10214578474462031,2.2599765834532675,-4.450670079582929,-8.019677735900878,-8.461208461734177,-8.5700543563475,-4.013999295492121
1698672756.69,0.01666666753590107,0.5844536467559636,0.4921440502405166,0.20609072786569593,2.3078604705259202,-4.696375024956464,-7.935132489776611,-14.33576622817658,-7.913270195948244,-1.5565101454479322
1698672756.707,0.01666666753590107,0.5394802403025328,0.20723580624759197,0.098517072853446,2.23932659413442,-4.926368606457114,-8.08237647639811,-23.40057814365865,-8.665554915096266,1.9822581412513354
1698672756.724,0.01666666753590107,0.5222264692932367,0.1852349868416786,-0.040242578539252276,2.1983258907042442,-4.895992172893881,-8.258648989105223,-25.4912648976537,-10.301258862814674,3.1808218712392886
1698672756.74,0.01666666753590107,0.3811841137908399,0.35989714174270626,-0.300834711921215,2.0322281505309046,-4.668243739971518,-8.556876733398436,-23.327715393140245,-9.886658696232082,0.5802875357989943
1698672756.757,0.01666666753590107,0.3860007202923298,0.44058103626370426,-0.3606330548018217,2.0217535182677207,-4.530577144512534,-8.654141175842284,-13.449468928644679,-3.3595512732324204,-6.738589076166887
1698672756.774,0.01666666753590107,0.4417684924826026,0.3733902450442314,-0.3102121965974569,2.0898387741088866,-4.574420962414146,-8.615235398864746,-4.512676102549806,3.6590258265900952,-10.398825553787367
1698672756.79,0.01666666753590107,0.6806359930515289,0.0995627825140953,-0.3672802377313375,2.353500085803121,-4.841523500603437,-8.671350084796547,3.025638479192718,4.8734270577160155,-10.518241166141285
1698672756.807,0.01666666753590107,0.8083670315600932,-0.29777941600382324,-0.3566027763724327,2.499097474261373,-5.252279891967773,-8.649053497314453,8.932415528610541,-3.037510842074081,-3.8091303326585266
1698672756.824,0.01666666753590107,0.8476654611170291,-0.42522681526541706,-0.2937561518371105,2.5233387660704554,-5.400569588249922,-8.576778534698486,10.528852718790546,-11.087941268396525,3.0084255487106395
1698672756.841,0.01666666753590107,0.625271248704195,-0.4642682013213634,0.05602934573590755,2.26476498677358,-5.464166154369711,-8.219444521442055,10.972899538432353,-15.5427135884839,7.000384250637952
1698672756.857,0.01666666753590107,0.23035408537611363,-0.27981998094320293,0.365005863058567,1.8095672500059008,-5.315127101024985,-7.9007158409118645,10.655395633543373,-16.45765157875296,7.841028138870666
1698672756.874,0.01666666753590107,0.06311915786638855,-0.26032734496593474,0.4596405415207147,1.600523809814453,-5.316772530144453,-7.80105778132975,6.571651995775782,-14.06294798215876,5.163037323808311
1698672756.89,0.01666666753590107,-0.04567001041546464,-0.2278039625018835,0.42608489339947697,1.4504370009824632,-5.297170004051924,-7.834276744842529,2.47073043224561,-11.577687176227595,1.6175356445261746
1698672756.907,0.01666666753590107,0.00389978391751647,-0.27417759114205836,0.10154314267635345,1.4742295261107383,-5.349094837078452,-8.160038392749428,4.0259060227627455,-12.426457708912155,-0.4953030137728164
1698672756.924,0.01666666753590107,0.09316387525722383,-0.3828016319900751,-0.0634299773812294,1.5463548511229455,-5.474191873821616,-8.31790606471598,10.403502525821533,-16.23985733668876,-1.082379437441686
1698672756.94,0.01666666753590107,0.1699158371567726,-0.5781535236984491,-0.10681143846809864,1.5767312846861778,-5.712414939007163,-8.342745322418212,17.552307214010685,-22.314888839233856,-0.02815796178148003
1698672756.957,0.01666666753590107,0.1796120323933661,-0.7384124747157096,0.2635708569318056,1.53707731968984,-5.910235851177573,-7.9571298020511865,17.366491917640488,-22.46825219931003,0.6666718197182017
1698672756.974,0.01666666753590107,0.1986583859078586,-0.6789023011267185,0.4774269581019878,1.5095440005980432,-5.883749995312094,-7.729979335021972,13.397872825880755,-19.87699283387579,0.9084569945203622
1698672756.991,0.01666666753590107,0.26021540902405976,-0.6747434278815985,0.6268319221496582,1.5167266055785118,-5.9097869383662935,-7.569867683520913,7.976802054286764,-16.862606664453846,1.8605693565642725
1698672757.007,0.01666666753590107,0.34242044869773086,-0.8210346438229084,0.42924891038835045,1.563263900347799,-6.069749536785483,-7.764096708679198,4.831858953314141,-13.436962852274386,3.8092690708760424
1698672757.024,0.01666666753590107,0.33698300688415767,-0.924794878026843,0.29031740956008434,1.5228617473326622,-6.1830246183097355,-7.902062579345703,3.1297918204028305,-14.40001781769889,4.889841282952026
1698672757.04,0.01666666753590107,0.4892616997372359,-0.4960626849889755,-0.05456511840224266,1.6208743777953087,-5.75850332096517,-8.251915296936035,-2.0207191499110886,-15.856659818588952,6.174633589890451
1698672757.056,0.01666666753590107,0.5577708800788969,-0.23537702810466288,-0.2801280239790678,1.649305449444428,-5.488406277135014,-8.488941261291503,-7.6327970154181335,-13.338900972586865,6.27890795351492
1698672757.074,0.01666666753590107,0.5421005058035254,-0.17703180664181709,-0.37237668408751484,1.6018704021178185,-5.409249153789878,-8.598625624847411,-13.217435449708297,-7.821241080845138,6.732896113493681
1698672757.09,0.01666666753590107,0.5208619760069996,-0.020456512573361396,-0.7916904759168625,1.5530885432921349,-5.205442737469077,-9.051279376220702,-20.328410281405688,-4.0753339673520115,6.120278090701843
1698672757.107,0.01666666753590107,0.5931398612324148,0.34552842465043065,-1.3488099794149397,1.6103998185973614,-4.793041501507163,-9.639206105914711,-22.83326263119739,-3.51916617738986,4.07708036134542
1698672757.124,0.01666666753590107,0.7258725074205548,0.4729541966021061,-1.5388316160112618,1.7337012040954083,-4.6161704383850095,-9.860818812561035,-22.88526256889599,-0.9439325701825854,2.3487466687637673
1698672757.14,0.01666666753590107,1.0092249002736062,0.7000719304054975,-1.8396411934912205,2.020855692645162,-4.3246758017390965,-10.200196897888183,-20.813186372841926,6.463828068217022,2.7922918963884023
1698672757.157,0.01666666753590107,1.227095570847392,0.9804454535782336,-2.0971067192852497,2.2526444869995115,-4.002056543511152,-10.481216902270912,-17.75804104954793,9.719641788005054,4.256113279869794
1698672757.174,0.01666666753590107,1.2884706615254282,1.1101941155195236,-2.2419430602431296,2.3286602435790003,-3.839400468224287,-10.643722755432128,-12.636883030635554,9.580428018568208,6.933296851949617
1698672757.19,0.01666666753590107,1.2895457434110342,1.1398200229763984,-2.442189738255739,2.334944949871674,-3.7960055631339547,-10.851419749450683,2.871743858465164,4.30913433084931,12.588818135672527
1698672757.207,0.01666666753590107,1.0289148854538799,1.3056021213293074,-2.2945178816109895,2.0602103093687445,-3.6535505643546577,-10.691756426239014,15.765587783743294,-0.7994164395156936,15.31124530770134
1698672757.224,0.01666666753590107,0.8140214771252126,1.4007768980175257,-1.9721043750882148,1.8213886937681585,-3.605666531151533,-10.344148272705077,23.07977781872149,-1.7286035917755735,15.667806795585392
1698672757.24,0.01666666753590107,0.3485799211755395,1.4039607887506484,-1.0798264497846364,1.3364132930479944,-3.6725551245540378,-9.411906585803628,20.88143020793411,7.0534812874719846,13.688520426953247
1698672757.257,0.01666666753590107,-0.10011347519941627,1.5784662917852401,-0.40921559166312216,0.8964787379942833,-3.537731643566489,-8.715942090716958,13.776547051202725,15.572300260421104,11.546288796613046
1698672757.274,0.01666666753590107,-0.3465772030510008,1.645160823920369,-0.30871582055985924,0.6751647950988262,-3.4952345640987157,-8.597429108539224,7.242208378862722,18.419403144238387,7.8743731223986675
1698672757.29,0.01666666753590107,-0.7581365813612937,1.915911363223195,-0.42427404458522794,0.30301607454828916,-3.240401724895835,-8.698135215869545,4.791662009388147,13.647714315530653,1.2212677056758987
1698672757.307,0.01666666753590107,-1.0807700873102992,2.1204361569464205,-0.39962943267226214,0.00912767463363707,-3.046022477611899,-8.66341870727539,6.52350428476907,10.658365058285035,-5.250518813584658
1698672757.324,0.01666666753590107,-1.1890609506811947,2.1472329784572124,-0.257087340131402,-0.06359612772837281,-3.031058132714033,-8.508694009509682,7.149337869831236,12.220282472399797,-11.729909894712376
1698672757.34,0.01666666753590107,-1.310424134658277,2.1462480590730904,0.07178747135996819,-0.11207863828130066,-3.0428800879329443,-8.162731285095214,5.116049037413209,19.69398474525447,-18.84636168435047
1698672757.357,0.01666666753590107,-1.3242248426042496,2.1153993318229913,0.21150632317364215,-0.048183600671589374,-3.072358111351728,-8.012195855712891,0.8977614518886512,25.054182309644368,-23.205256931511087
1698672757.374,0.01666666753590107,-1.315221744198352,2.1332114673674107,0.08342647122740746,0.05072700154408812,-3.0434786383479833,-8.13280434886515,-2.208985630419674,26.41239103931079,-26.44030431490134
1698672757.39,0.01666666753590107,-1.0931753223098815,2.0753426312446592,-0.20356617782413958,0.3945942149840295,-3.080288904350996,-8.411877895355223,-1.548435901353625,24.136315875768666,-27.26788077059135
1698672757.407,0.01666666753590107,-0.7737010841093956,1.9883160896986722,-0.41688861050903797,0.796819947759807,-3.153611330193281,-8.6183777885437,-0.6450697456424496,19.36110864586473,-25.373227275964833
1698672757.424,0.01666666753590107,-0.7018738652609289,1.8661112672656774,-0.5436451048970222,0.9361327029906212,-3.2635955534785985,-8.739584832111001,-1.1757348899042435,13.913535032743793,-21.69615566270074
1698672757.44,0.01666666753590107,-0.4987495859853923,1.8783464794605969,-0.6442442447215319,1.200093436022848,-3.2311241934627293,-8.840440577045083,-5.801740265927251,5.458864769592611,-15.65136482270588
1698672757.457,0.01666666753590107,-0.443248501907289,2.0442063192248345,-0.7121399693399667,1.281496146337688,-3.039886751335859,-8.91870045928955,-10.650795501137369,1.1782639808878521,-13.482309331947747
1698672757.474,0.01666666753590107,-0.4281508860185742,2.059642373287678,-0.7161299157589673,1.3144165652953088,-2.993050765880942,-8.938303569903969,-11.924641149270379,-0.5492007835653274,-12.522580668649036
1698672757.49,0.01666666753590107,-0.3611763678982854,2.0211551139831543,-0.6678700349807739,1.397614926855266,-2.9946967795222994,-8.909123652648926,-6.611915960933008,-2.894138981536578,-11.86141408812357
1698672757.507,0.01666666753590107,-0.2948930469125509,1.7721330068856476,-0.54180269190073,1.4712366279050706,-3.23067528065145,-8.789413569641113,0.013389331887767066,-4.434315049749542,-11.030008457630123
1698672757.525,0.01666666753590107,-0.251781342677772,1.793289192160964,-0.4553764543354511,1.5152300834104417,-3.2080794179618355,-8.703671222686767,2.6547517367416207,-7.5785986105804355,-9.877933983341038
1698672757.54,0.01666666753590107,-0.20269582473039627,1.8533125759690998,-0.2324140866458416,1.5556322364255786,-3.1456811217159033,-8.484003804889321,-0.4037285331363398,-9.638489749155193,-9.905433178713155
1698672757.557,0.01666666753590107,-0.12356003643423318,1.9223270754843949,0.0486550175756216,1.6282067665100097,-3.066522829326987,-8.210465680694579,-3.445272922080431,-8.416436571724743,-10.607902766923335
1698672757.574,0.01666666753590107,-0.06458543102666735,1.892824502146244,0.20446867962181567,1.6862657183773815,-3.0808874547660348,-8.06397046661377,-5.375721730599692,-5.715750318710906,-11.412199376601002
1698672757.59,0.01666666753590107,0.02111673004776239,1.6375024181216955,0.32893735533356666,1.7796400215148924,-3.310581761059165,-7.953238639831542,-6.574162090295761,-3.9063427075680255,-12.470209339414318
1698672757.607,0.01666666753590107,0.15817103882730008,1.405595111954212,0.42986733454763887,1.921795452825725,-3.513639404839277,-7.868394118499755,-9.118840419364162,-3.640870330002555,-13.057153961776548
1698672757.624,0.01666666753590107,0.21171149035692213,1.227628947071731,0.44879123072624205,1.985241942950338,-3.660284841045737,-7.865850863757729,-11.654866606301447,-1.4620374234475488,-13.013497953922764
1698672757.64,0.01666666753590107,0.4001758145086467,1.0221756403267384,0.34650165359675883,2.1948840796872973,-3.8209956274837253,-7.989750799670815,-10.213525082925859,2.266280458828914,-10.647096099928161
1698672757.657,0.01666666753590107,0.4866708795264363,0.8733554904296994,0.17120879957675933,2.300678011675924,-3.9410046934381127,-8.17754540786743,-9.261994354178459,4.200882662693778,-8.811935260519746
1698672757.674,0.01666666753590107,0.5178275036819279,0.7776236643806099,0.058165773242712014,2.3526022601805625,-4.010735816790163,-8.300996430969239,-10.03391501341662,5.319815351582668,-6.471699007461815
1698672757.689,0.01666666753590107,0.6414391241729259,0.6643085431069136,-0.09714987615346908,2.497451606750488,-4.086153169085085,-8.473229312896729,-13.053167692622198,2.805121339527213,-1.592211864404706
1698672757.707,0.01666666753590107,0.6718425918735563,0.4027303212970495,-0.2747819867759943,2.5341125274106857,-4.313751964403688,-8.668656607928872,-15.936789890384249,0.7986823009016231,2.3281982580891953
1698672757.724,0.01666666753590107,0.6655186495490372,0.2295984447032213,-0.33493571896553037,2.5258826053343713,-4.4509696470513935,-8.749310691833495,-17.28456550609348,-0.3912418267556458,7.107408619176997
1698672757.74,0.01666666753590107,0.5477713910467923,0.2453685530260205,-0.4855985741198063,2.3907597030088303,-4.391713155962527,-8.927828937640786,-15.43665270350465,-0.6616254304994729,11.122579718998598
1698672757.757,0.01666666753590107,0.24604849811419843,0.2603583246260881,-0.5632955617845058,2.0748748676024378,-4.350413469585776,-9.022997869110107,-11.950536957734837,-0.12028763541185815,9.982797877668244
1698672757.774,0.01666666753590107,0.10384805861786008,0.2706482479721308,-0.5499123485982418,1.9250876262389123,-4.325124422289431,-9.019407151141762,-4.536917297687827,3.0486668888662387,7.393307531229037
1698672757.79,0.01666666753590107,-0.10737725565731525,0.10619769048392771,-0.33923137033283707,1.734748448126018,-4.492568900896608,-8.802581678771972,5.279571876992953,6.984112178714042,3.939735502420218
1698672757.807,0.01666666753590107,-0.1740007683828473,-0.2306406472325325,-0.05045242238640785,1.709160417883098,-4.841972997936606,-8.49791951751709,7.951783071357007,7.909359058874766,3.786293168281766
1698672757.824,0.01666666753590107,-0.22500892495587466,-0.43812078363001344,0.12899229061603545,1.6756418869018554,-5.064933027538657,-8.30608410949707,5.7092355989031836,6.469560731364778,6.19382001815584
1698672757.84,0.01666666753590107,-0.32811712499186396,-0.6189259713307023,0.3617038989037275,1.5767311385557055,-5.250782639147341,-8.06965669555664,-2.411705218098829,3.022813555640683,9.819842370676433
1698672757.857,0.01666666753590107,-0.5361800297133624,-0.5228410940602422,0.3887263458639383,1.3546689345762133,-5.141996101213992,-8.052747646331786,-7.834069883653715,0.8878236333679884,10.047404637027395
1698672757.874,0.01666666753590107,-0.6244269068345427,-0.3875409354716539,0.3454179500132799,1.2520176845274864,-4.98966502058655,-8.108563057056069,-9.451367325332585,-0.12148267839277238,7.755432208192066
1698672757.89,0.01666666753590107,-0.7308340022854507,-0.18106793029010296,0.11073591843545436,1.1320083263121545,-4.764011806377768,-8.35666220408976,-5.682377587539401,1.3425838181663727,3.469377513435052
1698672757.907,0.01666666753590107,-0.6492847231067717,-0.16181699411422013,-0.12506605708301066,1.21146589390859,-4.745007830700278,-8.59279034282267,-1.8749737986370063,2.3425837036983,0.1507129131728783
1698672757.924,0.01666666753590107,-0.5503748515434563,-0.15277823987305164,-0.22188158671557903,1.313967506353557,-4.741416528210044,-8.685864347839354,1.3798463420702003,2.681866947416337,-1.6165977741757673
1698672757.94,0.01666666753590107,-0.3024018151074648,-0.20803163280040024,-0.34497254433333874,1.5515921672545372,-4.82027554539144,-8.798391825866698,6.263255294371366,0.1853878225776893,-1.2064495035498501
1698672757.957,0.01666666753590107,-0.02990121726691723,-0.34357845962643624,-0.1816056904286146,1.7952020400449633,-4.983230311363935,-8.626308581542968,10.277239648824677,-0.42115005119236804,2.183150866770924
1698672757.974,0.01666666753590107,0.07846446490585804,-0.3595584113076329,0.05662263545393943,1.8590974429808556,-5.036202607616782,-8.377161971282959,9.173788437463267,-3.936096719139894,5.491743165822936
1698672757.99,0.01666666753590107,0.07509352716803551,-0.4028668071582913,0.1840589287996292,1.8257282573424278,-5.098451850780845,-8.245480879974364,4.306082090063961,-2.8811193603180643,7.442777737613794
1698672758.007,0.01666666753590107,-0.10056845242530107,-0.6590265110507607,0.32678514573574063,1.6202758273802698,-5.362711859020591,-8.104372619628906,0.2792722411749525,1.3910668487726503,8.498304926663808
1698672758.024,0.01666666753590107,-0.18403949344679713,-0.4988315651804208,-0.08740823433995247,1.5234601516172288,-5.2097819357171655,-8.5172227684021,2.494934701673431,2.290157306063398,6.829719594507313
1698672758.04,0.01666666753590107,-0.21048983960747716,-0.48491263768225906,-0.32580782513618467,1.4939816898070275,-5.209034039959311,-8.748861779022215,6.622911711723082,0.5400620971775562,3.7931972088721793
1698672758.058,0.01666666753590107,-0.03352101519927382,-0.5246490202650428,-0.4931476743251085,1.668907902471721,-5.274575018145144,-8.902090685272217,13.392980702887733,-1.0149932179771632,2.578212423459046
1698672758.074,0.01666666753590107,0.1792893763102591,-0.7681281062826514,-0.18845336436629295,1.8749590289793907,-5.571156748796999,-8.568549051013589,16.978658408641532,0.20378048147590228,5.322111148917439
1698672758.09,0.01666666753590107,0.3066070117123425,-0.8090230112507939,-0.08048866420984267,1.9915267223082482,-5.649716783031821,-8.441057228088379,11.335763583373035,-0.3192164681016564,11.004709436944395
1698672758.107,0.01666666753590107,0.4019140364781022,-0.7072635954752564,0.0019406126737594603,2.0654476985655723,-5.571605661608278,-8.349180323901772,2.0741824556393635,-0.7234217804585749,17.53364030700904
1698672758.124,0.01666666753590107,0.3516276183083653,-0.32267069615423677,-0.3785188401043415,1.9723731090269983,-5.190030064281821,-8.736292220306396,-5.9354271316650875,-3.423976392248331,22.180702942799787
1698672758.14,0.01666666753590107,0.2826968515537679,-0.08360445814281701,-0.6173796186715365,1.8656813514158128,-4.952405257250368,-8.981548252868652,-0.5294215162243225,-4.478587482175918,22.979425264341078
1698672758.157,0.01666666753590107,-0.07985460409000515,0.350884106464684,-0.9016665158957242,1.4645032279968262,-4.5364127187982195,-9.262268982043862,8.925459834714529,-5.487395750416224,20.949875533606807
1698672758.173,0.01666666753590107,-0.30875089187324045,0.6491875463426112,-0.841302355825901,1.1893195285521447,-4.285171474346519,-9.182661776843666,15.7080519777224,-4.801482540754155,14.538696271059537
1698672758.19,0.01666666753590107,-0.369642290687561,0.7816255934983491,-0.6892407397896051,1.1065699336729944,-4.188955079650879,-9.012972734180092,12.778630800254474,-0.982995489262946,8.954845016071216
1698672758.207,0.01666666753590107,-0.3689624917298555,0.9406915353387594,-0.38609307475090027,1.106121020861715,-4.05398137653768,-8.69559079208374,1.8108156973289609,6.428067759043774,3.0976203487516014
1698672758.224,0.01666666753590107,-0.09714739193543791,0.8596797240376471,-0.4326221862137317,1.3910310184203087,-4.1290994536250825,-8.743325187683105,-7.18243995475688,7.400967588383207,2.2580208391316647
1698672758.24,0.01666666753590107,0.09621259530335664,0.888237125480175,-0.5965957738399505,1.5934906963072717,-4.08001831959188,-8.917952855792642,-11.562057142085667,3.964092383887307,4.224571466282675
1698672758.257,0.01666666753590107,0.397257442843914,1.1297282525509595,-0.9335545230656862,1.885433515112102,-3.809772807201743,-9.273641439929603,-8.51808430072652,-3.4460253101061897,6.578255934929538
1698672758.274,0.01666666753590107,0.5184633173674345,1.5793348913133143,-1.0027361958414316,1.99032962147817,-3.3517321020931004,-9.350704221343994,-0.7157740496614233,-3.0866175543289454,6.946054791545555
1698672758.29,0.01666666753590107,0.5191059991851449,1.7737340123414993,-0.853943226212263,1.9779097003661095,-3.1661814734309908,-9.198972275653482,6.014341856674945,-0.9208061899831568,7.250000770932061
1698672758.307,0.01666666753590107,0.46705037938579913,1.9896464615195988,-0.581370732179284,1.9113208205625414,-2.9677614263236523,-8.918550821685791,4.96669884036124,0.12833317136731004,7.737210117260118
1698672758.324,0.01666666753590107,0.44822307544946666,2.0156711296141148,-0.39432781913280485,1.8827401843748985,-2.943819994243979,-8.731952729797364,-0.9128174299751807,-1.5031518538781463,9.057004155487096
1698672758.34,0.01666666753590107,0.5048715759970247,2.029285228946805,-0.3237204974681139,1.9243394382201133,-2.921224716076255,-8.66925515834391,-7.333415309944488,-1.8612939969465285,11.02973098119509
1698672758.357,0.01666666753590107,0.6467544739767909,2.0470202076017854,-0.2907680759370327,2.0489874160215256,-2.8703473462760445,-8.658779941558837,-12.674455901259794,2.0067889790988476,14.720942793588401
1698672758.373,0.01666666753590107,0.7244052844122052,2.0664874168768526,-0.6171440563499927,2.1199159324645995,-2.8193212156549095,-9.004742665973305,-11.260418059091332,4.187259423507364,17.123113494492717
1698672758.39,0.01666666753590107,0.7656161234617233,2.214957145901024,-0.8486258305817842,2.148646206256002,-2.6488839849725365,-9.25104557723999,-9.341392741958918,1.3055072034740163,19.590213681194463
1698672758.407,0.01666666753590107,0.751726129797101,2.549358027337491,-1.3282915075212716,2.1019591277524827,-2.281523375481367,-9.75502502670288,-8.172626992885615,-7.746435995281512,20.562089835932042
1698672758.424,0.01666666753590107,0.6869682648129761,2.6199574579566716,-1.3275813134253025,1.9952676624022423,-2.1953324079766867,-9.769839149475096,-4.829975955537333,-11.815741466917341,20.640490162320035
1698672758.44,0.01666666753590107,0.6127838153138756,2.53447843811363,-1.1344096883654593,1.8701704795286058,-2.2783812780633568,-9.585784896850585,-3.6052850444267888,-10.989449086791295,19.63813258086398
1698672758.457,0.01666666753590107,0.5574946204207837,2.4227833192571997,-0.7849328183501958,1.755398583575338,-2.3877666586726902,-9.246257758441567,-2.769191342841773,-9.171444828804306,17.09692996430947
1698672758.475,0.01666666753590107,0.44568807707913216,2.3756360758960247,-0.4515145182102918,1.6044143144469707,-2.433406127819419,-8.91914995662272,-2.379678674524051,-8.334274518651368,14.36750611724963
1698672758.49,0.01666666753590107,0.4388953481990844,2.28622731538862,-0.2549433138400316,1.5656581020079552,-2.521542384172976,-8.72761323928833,-1.8201423206406133,-6.26976062266898,10.438625919854678
1698672758.507,0.01666666753590107,0.39703159819878636,2.2239348176047207,0.06920972982645035,1.5017628452025353,-2.5788535864129662,-8.409185003009439,-3.867261645797682,0.36621870835979004,4.447509267678714
1698672758.523,0.01666666753590107,0.5276737018484622,2.185443758907914,0.14357026654481886,1.639279876122996,-2.6051900969356296,-8.340800618091226,-6.986890358158945,7.561500085766955,-0.631378631451159
1698672758.54,0.01666666753590107,0.6801376881405711,2.167696797554195,0.052661915129423136,1.8180967395506797,-2.6051900969356296,-8.438214698138832,-7.631476227587382,13.013073628420578,-3.2695366370476453
1698672758.556,0.01666666753590107,1.071071553986147,1.9800188014745712,-0.2697533449590206,2.2442646350584923,-2.776225293511152,-8.765172277832031,-5.659072128317671,13.553809459726732,-3.70143660558082
1698672758.574,0.01666666753590107,1.359130297899246,1.6065958232045172,-0.3867664439678192,2.571671858215332,-3.1352064894527194,-8.884732723236084,-3.531324127555894,9.85559841098145,-0.5115818091641897
1698672758.59,0.01666666753590107,1.4295067334175109,1.4833409071967005,-0.31589491840898987,2.6616037658140064,-3.2438430975213643,-8.819191452789306,-6.7553093792550785,8.453228239462664,4.125175565272888
1698672758.607,0.01666666753590107,1.5145586138896643,1.2982517585664988,-0.17344108867347238,2.7691933490477503,-3.3907875166743993,-8.69454332885742,-15.88273065065089,13.779952754277623,11.077391187449793
1698672758.624,0.01666666753590107,1.439128986635059,1.2235454771503806,-0.1552946066081524,2.723703371374309,-3.4195176443353295,-8.697086583599448,-21.823388426559738,21.20010292894481,15.265576955363342
1698672758.64,0.01666666753590107,1.3404988087959586,1.3150383504554628,-0.3083130849778652,2.660855870056152,-3.2793075018733737,-8.870966063690185,-25.71797765922664,27.807996762230324,16.82287033141
1698672758.657,0.01666666753590107,1.346680712301284,1.402025729034841,-0.8791045554757118,2.727893516540527,-3.125480045208335,-9.467720827484131,-22.798845307969696,29.63166922345478,17.454293999421
1698672758.673,0.01666666753590107,1.5301212169416247,1.3626353834107516,-1.2953326562494039,2.9544448486328125,-3.1262282332271334,-9.897180750274657,-16.87385257092227,27.65313076053675,20.152713910290863
1698672758.69,0.01666666753590107,1.5983851903505621,1.2608610623270273,-1.3674848692685364,3.0554500850401816,-3.2068826093927023,-9.974842666625976,-9.116240678611325,24.21097838113337,24.06569684239261
1698672758.707,0.01666666753590107,1.7052324307844042,1.221314357097447,-1.1234358744084834,3.1871311763487755,-3.241449188122153,-9.72913772125244,-4.399532311401252,20.24258895448448,30.40200186371091
1698672758.724,0.01666666753590107,1.5377889750905334,1.1990350130110978,-0.5494920773595571,3.0252234352111813,-3.263745191082358,-9.154230047607422,-7.044261812752937,17.78801362717324,33.74865112304459
1698672758.74,0.01666666753590107,1.3935044227965174,1.2171148595809935,-0.2666676539033651,2.8806733638487754,-3.2359123045220968,-8.876502655029297,-13.482238468735106,18.152033681630947,34.49465462947714
1698672758.757,0.01666666753590107,1.190018324471265,1.3289274673372506,0.16276830348968505,2.693027954864502,-3.0906141912713645,-8.461557579803467,-18.89909757493214,28.116053661723534,31.950064239094303
1698672758.774,0.01666666753590107,1.2718800305999816,1.4684373525753616,0.1963116766512394,2.8149824557982384,-2.9207752187430858,-8.436418462371826,-17.65390286282004,38.62566915271674,30.47690854833844
1698672758.79,0.01666666753590107,1.34636185561046,1.4357210778877139,0.10185819997489452,2.9507037624083456,-2.9309508680596945,-8.531139650073648,-13.1159405461892,45.90082465658831,31.371980933406515
1698672758.807,0.01666666753590107,1.5968512587815522,1.4258373972550034,-0.21188860048949718,3.289483297320455,-2.9269106527581807,-8.83505303878784,-9.252940938433607,44.0008845955442,35.656777165808954
1698672758.824,0.01666666753590107,1.78551008259207,1.3995067319512366,-0.3934814314365387,3.5248633941650387,-2.949206947979331,-9.009380847167968,-9.601009939858395,35.20306135962335,41.57016711900382
1698672758.84,0.01666666753590107,1.7969941841587422,1.3922946086153387,-0.3246744371920824,3.5535938140869137,-2.952798250469565,-8.938901535797118,-11.880624848937877,24.997522475384528,47.28515715228274
1698672758.857,0.01666666753590107,1.6522596961401401,1.296148941068351,0.102909170332551,3.4030583847045897,-3.0350989325374362,-8.519467916980386,-16.477129570718542,21.95891304007113,52.18609108933369
1698672758.874,0.01666666753590107,1.4804044153533875,1.4968582681566476,0.7299526894062757,3.2227450721740722,-2.819770128466189,-7.901464028930664,-17.97634926334717,24.764928920936207,54.616996396076246
1698672758.89,0.01666666753590107,1.372867585220188,1.3188187457770109,0.9838555542826652,3.117400199127197,-2.978984831127524,-7.6565072715759275,-20.528365776905105,31.74439358280688,55.0865548260417
1698672758.907,0.01666666753590107,1.1274661528378724,1.1643804637372492,1.2727800481796263,2.8927940097533167,-3.101687666210532,-7.379079154205322,-23.10445187709816,34.58805405128248,54.75534870790403
1698672758.924,0.01666666753590107,0.9011477527186273,1.1055112184002995,1.228296763330698,2.6843489738464354,-3.127873954607546,-7.435941443634033,-27.902837353950538,34.100918129487994,53.64565470364122
1698672758.94,0.01666666753590107,0.7996227302208543,0.9848024797439575,1.1863994033217429,2.601898800305277,-3.202543118883669,-7.4962453979492185,-34.50889215880203,34.290582237455496,52.922119104483436
1698672758.957,0.01666666753590107,0.7339476042613386,0.904600815781951,0.9543500583350658,2.571821641949564,-3.197306095013022,-7.761552869415283,-43.187723254097506,40.41473475296403,51.79478272159449
1698672758.974,0.01666666753590107,0.8069874137699603,0.9461188210844993,0.4476525820851326,2.6912323036193846,-3.0783442000240084,-8.294412376403809,-45.91001467611656,47.07038185383169,51.17656522434371
1698672758.99,0.01666666753590107,0.8268613041497767,0.987572821240127,0.042537411478161806,2.7675471892759202,-2.9556410726800557,-8.724171574401854,-47.30535402165847,47.47221895817646,51.25762249431884
1698672759.007,0.01666666753590107,0.9428227021485567,0.9582824293479323,-0.8861357692867516,2.9439703625001012,-2.8779794485896826,-9.686640641784667,-44.12177211366426,35.15293801639921,52.58766523139542
1698672759.024,0.01666666753590107,0.9877999079942703,0.8540782507687806,-1.4038321939349174,3.001431202343851,-2.9168849333062767,-10.229675505828856,-36.25949696383297,22.125262297306794,54.68934858995419
1698672759.041,0.01666666753590107,0.9394593631953001,0.7707932338386774,-1.347520524126291,2.941875289916992,-2.956688535906374,-10.194361615863443,-26.424183360912817,15.698662175160925,54.607577565210796
1698672759.056,0.01666666753590107,0.7415893511861562,0.7034592347562313,-0.7843173168003559,2.726546924237162,-2.9934996786922214,-9.647884502410887,-18.14507713396129,18.492160026824656,51.64285540879131
1698672759.074,0.01666666753590107,0.47850467033609745,0.4718175937876105,-0.2837748560488224,2.4621371322631833,-3.2118206503167746,-9.153182584381103,-16.08153696682245,21.183181135276104,48.674038553964394
1698672759.09,0.01666666753590107,0.38979046796411276,0.27549188861101864,-0.16612404365837574,2.3775921783998606,-3.3949773695796726,-9.04005655593872,-16.262152781686975,21.398989499839118,46.68289497693311
1698672759.107,0.01666666753590107,0.34724443478807804,-0.14062398395985365,-0.04851765493154526,2.3406315441407264,-3.794659116961062,-8.927977990722656,-14.400851100777631,19.44060863270909,45.97923864335464
1698672759.124,0.01666666753590107,0.3985191333428025,-0.3133534172326326,-0.06874912657737732,2.3898623157776893,-3.959111135753989,-8.952070229449868,-13.165103394061306,15.908900520455795,45.4946674575935
1698672759.141,0.01666666753590107,0.46787002520561216,-0.4147036676853895,-0.06597089403569698,2.4509144581116735,-4.053831446672976,-8.953865296173095,-12.974630762450806,14.771817457621243,46.388223540665834
1698672759.157,0.01666666753590107,0.5354883941873908,-0.5286138322427869,-0.030875615257024765,2.5058314586915076,-4.157979511150717,-8.9255837890625,-15.17723699618569,15.736303347676865,50.447534737998645
1698672759.174,0.01666666753590107,0.5899512212589383,-0.4284995533257723,-0.31390579041838645,2.547131437329203,-4.046050291277468,-9.216329653167724,-17.6566451837718,14.490965201592195,53.422693423469916
1698672759.191,0.01666666753590107,0.6337457931913435,-0.25554917077869177,-0.5411597178220748,2.5700259907044467,-3.8591532164424653,-9.453804530334471,-17.698814771707458,11.382376209363787,56.3068774042912
1698672759.207,0.01666666753590107,0.6231222539767622,0.20944383768588304,-0.9519073413580655,2.5139120354250073,-3.3849513578668233,-9.878027721515297,-12.240793530477344,5.839106096442275,59.76274138845338
1698672759.224,0.01666666753590107,0.5750279390238225,0.6572039717987179,-1.1858669038802385,2.418891864776611,-2.9457649908319112,-10.11834512863159,-5.267007744014714,2.056269217323947,60.84523074925202
1698672759.241,0.01666666753590107,0.5679214680194854,0.8769234120443463,-1.2095423785001038,2.3555953045167026,-2.751386035808921,-10.143184970855712,2.38283187404307,-1.7092554801259257,59.90265098341192
1698672759.257,0.01666666753590107,0.6090181791700422,1.2170508544340728,-1.148136600422859,2.309656706292927,-2.4661767630428075,-10.076296961975098,9.500114385438966,-6.387882341062004,57.11403500945745
1698672759.274,0.01666666753590107,0.7374053434997797,1.1976873977944253,-0.8050164059579372,2.3671174000062045,-2.5339625975459814,-9.726295191302896,10.903421146647691,-7.727099729741207,55.94609998214195
1698672759.29,0.01666666753590107,0.9662291505686939,0.9713421096682548,-0.3979898487716913,2.50268892288208,-2.8229125181451438,-9.309404242706298,9.248164074882828,-4.862164075774665,56.623190294943655
1698672759.307,0.01666666753590107,1.0551257237702607,0.9528808625653385,-0.29839900920689105,2.5273792736329135,-2.883964660479128,-9.202413356018067,8.771752403858915,-2.1869379932222843,56.6609441655809
1698672759.324,0.01666666753590107,1.1290171816721557,0.9556646480649709,-0.28571137706935407,2.542343180139363,-2.925713551928103,-9.1799677154541,11.989037880312551,-0.7004725582907435,55.31768159736576
1698672759.341,0.01666666753590107,1.2349468688696623,1.0031018142834305,-0.2798807712197304,2.5748145401552316,-2.9502544112056492,-9.153781719318031,17.843703574570938,0.4448929893665224,53.09115262606291
1698672759.357,0.01666666753590107,1.3188110008619724,0.9674313659653067,-0.2586906836748123,2.6071361164368687,-3.049314504894614,-9.111732968139648,21.227727629042928,1.7922881688750665,52.527293189321675
1698672759.374,0.01666666753590107,1.4906567831680178,0.7848103610143065,-0.1644569872289896,2.727295258386433,-3.298760390362143,-8.994267449188232,21.078691193805955,0.855361131625093,54.31950067658717
1698672759.39,0.01666666753590107,1.6339052704125643,0.7408671743914484,-0.12074585579633712,2.787748704174906,-3.425503440746665,-8.923039949798584,17.491095058669032,-1.5264219882152623,59.9554073645611
1698672759.407,0.01666666753590107,1.6096255462892353,0.7059495902672409,-0.011484686088562011,2.6952728842470792,-3.515286003002524,-8.796296899414061,14.527713326874157,1.5639901630844482,64.89865432352028
1698672759.424,0.01666666753590107,1.280186086652428,0.7124345683723687,0.0833721106916666,2.299930188983306,-3.557034602190554,-8.686013985443115,12.1541944157644,4.806879670858935,68.12121953620233
1698672759.44,0.01666666753590107,0.7792866291567683,1.0286769850447772,0.18633388799428938,1.725471428149566,-3.299059957830608,-8.562712599945067,10.683185965728862,16.70083021886751,69.01221088324132
1698672759.458,0.01666666753590107,0.5130694954998791,1.186054535406828,0.24715689774751662,1.4281417286746203,-3.1789003774896263,-8.486696697235107,6.842002835955935,21.07361124061076,67.81785668421621
1698672759.474,0.01666666753590107,0.04804850304983556,1.7355860679939388,-0.20011223797798156,0.9268556099489331,-2.6526249250665304,-8.926032701873778,-0.11945021686701757,12.1086515681524,63.8857099488507
1698672759.491,0.01666666753590107,-0.2923018613755703,2.134329073220491,-0.28132044863402844,0.5180456764772534,-2.258928974096477,-9.011326136016844,-6.538787259923796,3.4781611367076883,54.547861221297374
1698672759.506,0.01666666753590107,-0.390565836250782,2.236791084307432,-0.1831131723821163,0.3679592329714447,-2.153434171184897,-8.91929900970459,-4.2066524649951464,1.9952209865223731,45.61498123982328
1698672759.524,0.01666666753590107,-0.5873547750249505,2.262517061716318,0.22587854739725588,0.13721819410435854,-2.1321856314510104,-8.51093857356608,1.274762067420556,10.257611392697353,35.9280176381285
1698672759.54,0.01666666753590107,-0.4654211707487702,1.8539800999671219,0.6165192024499178,0.2759321797244251,-2.5605980910152195,-8.108862332263588,5.7056331010028245,31.319204061689828,27.337475275591903
1698672759.557,0.01666666753590107,-0.28905469614788887,1.6896312492877243,0.5680325271785259,0.5030820622317492,-2.7421085043758153,-8.144176806750894,4.263709730887317,38.97963004607431,26.910463801513753
1698672759.574,0.01666666753590107,0.15633578622415661,1.4959034516498446,0.1858452276945114,1.0302553402774035,-2.952199700054526,-8.51018980102539,0.48242597275322674,42.56310586959442,32.500355505049306
1698672759.59,0.01666666753590107,0.4464066736772656,1.3758423632472754,-0.3090525051683187,1.3681369034364819,-3.078194270159304,-8.997110563659668,-2.165687567167082,34.604921203437826,39.40210115190169
1698672759.607,0.01666666753590107,0.5004945299565792,1.3629092319160698,-0.48719548792243,1.4383171587955206,-3.093457598003745,-9.172336197662354,-5.590234920541343,24.271796093050455,47.99174022192056
1698672759.624,0.01666666753590107,0.38593868790678676,1.1584613028213382,-0.5760790555119514,1.2996030270449817,-3.2833477171748875,-9.271246069225668,-15.605250800524537,14.461877133464403,56.30995440451229
1698672759.64,0.01666666753590107,0.2581586226247251,1.420936765731871,-0.46354456322193144,1.1370964432314037,-2.99140504450053,-9.177274238586426,-21.43189564371295,14.69994508453249,59.57750665816263
1698672759.657,0.01666666753590107,0.2178263199754059,1.4729048533782363,-0.39097266348600385,1.0661683651797473,-2.9032682036250828,-9.125948540496825,-21.13540225448457,19.070926351429442,61.197449944371236
1698672759.674,0.01666666753590107,0.15596403030231595,1.5043936320975422,-0.3186345725059509,0.9704004449039697,-2.8357816443294284,-9.074772480010985,-14.340714700230254,19.328217869916532,63.29489175545543
1698672759.69,0.01666666753590107,0.07271620357744395,1.4975728461667894,-0.10304010323584079,0.8583217335574328,-2.8262048376888034,-8.869918015941977,-12.052542417894392,18.47721728046796,63.910776743104655
1698672759.707,0.01666666753590107,0.048430561169981956,1.4087299028486013,0.2147457434862852,0.8083428469669073,-2.900275743810832,-8.56166513671875,-12.427315751426638,21.30240550233326,62.6936097122517
1698672759.724,0.01666666753590107,0.16925613113902507,0.9303837840750813,0.7039157463520765,0.9050085198000073,-3.3506849311277267,-8.08821117390096,-16.93925675486702,23.918441378981722,63.589949097410816
1698672759.74,0.01666666753590107,0.2880800789620727,0.486917547763884,0.8440186290472745,1.0124485384952275,-3.7617388441339132,-7.964760735321044,-22.328142821318266,28.15234245678381,66.08539969181
1698672759.757,0.01666666753590107,0.3200472888480872,0.355981137342751,0.7727215715527535,1.03504367053248,-3.8456855398431418,-8.059331700897216,-29.783955121189383,27.202635388544802,68.65262874419683
1698672759.774,0.01666666753590107,0.3168528036557138,0.3717845634132623,0.371235112836957,1.0075104975711553,-3.738695237676799,-8.505551035308837,-40.268152063186385,22.382345495024193,70.50257182051645
1698672759.79,0.01666666753590107,0.23460677438452837,0.4095940695866942,-0.035244331860542294,0.9020159869205207,-3.6138974761411546,-8.953566020965576,-44.42180866352458,22.682962610963965,71.35057395691938
1698672759.807,0.01666666753590107,0.21072394062429664,0.3581938449561596,-0.22039807015955448,0.8607160082828254,-3.5761887999936937,-9.179668440246582,-41.32943027151755,26.125379660197684,71.30481851966947
1698672759.824,0.01666666753590107,0.13346936296485365,0.34573154600709677,-0.6735153473913669,0.7799117753177881,-3.4889497847408055,-9.676165424999594,-31.991417619424144,31.42391427676071,68.59387545695638
1698672759.84,0.01666666753590107,0.10744842119738458,0.41760289625823493,-1.0314905811607837,0.7628529423587024,-3.3625060095638033,-10.056544798278807,-24.627223769532286,32.31431139734191,66.61475301286433
1698672759.857,0.01666666753590107,0.10830635320097208,0.3882862008810043,-1.0992185479968786,0.7730283724796027,-3.3515827567502856,-10.140341856384277,-19.670073960517545,30.39519899529758,66.15133150786812
1698672759.874,0.01666666753590107,0.1670918657772243,0.28777123220860956,-0.981395886170864,0.8400660189639776,-3.411886711065471,-10.038438648223876,-16.007260367145857,29.746559835483563,68.02328828388269
1698672759.89,0.01666666753590107,0.18490502423495053,0.3178197489917278,-0.6819120043367147,0.8631102099429816,-3.357568260900676,-9.74844097213745,-14.971149698358895,30.224632096249437,68.96925582355111
1698672759.907,0.01666666753590107,0.13992825678065418,0.274851544880867,-0.5488315676242113,0.8262993594180792,-3.3777693374082443,-9.623942485809325,-14.84997701984099,32.96267734958913,69.89378339941487
1698672759.924,0.01666666753590107,0.15648951548114418,0.15999650068879126,-0.40751054131090636,0.8634094851505011,-3.464259580120444,-9.492411032104492,-14.01825720064572,36.33074266706538,72.58122378119394
1698672759.94,0.01666666753590107,0.21297098889872432,0.1918845078587532,-0.5061468566298485,0.9389765481144189,-3.413981345257163,-9.596858079528808,-13.290016454923437,37.889200590365526,75.62229720725041
1698672759.957,0.01666666753590107,0.19901786687001585,0.21554215456098316,-0.5789736079096793,0.9430166172854602,-3.3725320212766525,-9.675268183898925,-14.20452328950114,37.82248330255285,78.56519349417712
1698672759.974,0.01666666753590107,0.1949973791822791,0.3807824011221528,-0.7557704367518424,0.9588783494144677,-3.1823426268979906,-9.860220262145996,-14.466275775289892,37.51125548773746,81.81173267084593
1698672759.991,0.01666666753590107,0.1743057426787913,0.4858762220174074,-0.8501116852253675,0.9512468316227197,-3.0623332686826585,-9.959280355834961,-11.984276384687407,37.79610511197826,83.91340919921554
1698672760.007,0.01666666753590107,0.20429756083860992,0.4733209840878844,-0.8193278399050236,0.9929956500064581,-3.0681691352292892,-9.930101023101805,-8.304310478762522,38.05547130042574,86.51961131100647
1698672760.024,0.01666666753590107,0.27719372409284115,0.40718905427157875,-0.7194564298331737,1.0799351708561182,-3.1432875045776365,-9.82550433807373,-1.4946876486709137,40.036420820120775,91.77471787727926
1698672760.041,0.01666666753590107,0.30721374543383717,0.34662411093264817,-0.4877396778017282,1.120187686267495,-3.226186444799602,-9.584138883209228,3.0609610159288505,41.414503692724644,95.63163690912626
1698672760.057,0.01666666753590107,0.3139208418570459,0.4417719996139407,-0.34423487770855427,1.1360492722660303,-3.1607948119565843,-9.428066862487793,4.084456111875387,42.21253958025435,97.69837018970208
1698672760.074,0.01666666753590107,0.3318620106086135,0.4376373840272426,-0.0008697685718536376,1.1652286049991845,-3.2029923239558933,-9.068487700653076,1.3831995380658535,43.848950452551854,99.72631482598139
1698672760.09,0.01666666753590107,0.563460250826925,0.2847413629934192,0.2832674910485744,1.4085393487125635,-3.3777693374082443,-8.774449809265136,-1.9843012215868154,47.5588086813793,103.53822974138716
1698672760.107,0.01666666753590107,0.7038061484977602,0.24510697948038576,0.3123158908784389,1.5655091950565576,-3.4326863379880783,-8.737639543262123,-5.179766591519788,52.21645811038356,109.24878698189474
1698672760.124,0.01666666753590107,0.9201152688432485,0.21458353866189717,0.1675192974090576,1.8043307375919073,-3.474285591833293,-8.875753882488608,-10.263391440282476,52.7133065611778,118.19011249227756
1698672760.141,0.01666666753590107,0.9585179916694759,0.47367111269980666,-0.2747206119775772,1.8439847025882452,-3.215412537328899,-9.317783948516846,-13.19721382089683,45.60664840903586,122.84450392104773
1698672760.157,0.01666666753590107,0.9349421780318021,0.6891361103713513,-0.41947161273956296,1.7989439299870282,-2.9970915657043453,-9.465775538635253,-13.052787763349617,37.49449078841966,124.87449078388889
1698672760.174,0.01666666753590107,0.7840262979645282,1.0710670970067382,-0.32507308112084865,1.599476784979552,-2.6134204574033615,-9.376590942272543,-11.636175793637706,34.619565129018326,124.43697618641454
1698672760.19,0.01666666753590107,0.5490891956470907,1.3014315576463937,0.0778039551705122,1.3298299691349267,-2.3808839134216306,-8.977657675170898,-12.357401935082388,35.79647160980864,121.72668882186179
1698672760.207,0.01666666753590107,0.4187861877586692,1.3214300973191857,0.2747422392874956,1.1719622241031378,-2.3518539260312914,-8.786719508251547,-16.275200150548994,38.02663082665536,116.43654338514683
1698672760.224,0.01666666753590107,0.18255466171652077,1.1989847441285848,0.6020616380304098,0.9252098155032843,-2.4425346061706543,-8.473079675292968,-21.4069654532424,45.02618819751691,105.16576136776365
1698672760.241,0.01666666753590107,0.13725691867955028,0.9303595264166593,0.8484650870621204,0.9002203356754034,-2.6797102081298827,-8.237549502453207,-22.076643303247348,52.92376859516799,98.22859094478099
1698672760.257,0.01666666753590107,0.16732026770561934,0.6655526979491114,0.8888958816498518,0.9742909495364874,-2.910600738470256,-8.206724156078696,-23.3387034599675,58.459070011762215,92.78206149682941
1698672760.274,0.01666666753590107,0.332335254143551,0.2858946246817708,0.7918921359688044,1.2141600283633918,-3.2353143386289474,-8.31820417087972,-29.242222082264405,57.684820258017076,88.36947925524521
1698672760.29,0.01666666753590107,0.5775684172868728,0.19693565376847982,0.6264309401333331,1.5117892222415654,-3.2671874404907224,-8.500313719177246,-36.82585966490502,53.099792815362974,87.65768475127068
1698672760.307,0.01666666753590107,0.6814014244660734,0.1642389605641365,0.5480237583726644,1.6585836384646593,-3.2248399986267087,-8.602366564941406,-44.35521090402237,49.01164455935437,88.39122657756253
1698672760.324,0.01666666753590107,0.8214595912367105,0.14340426232814787,0.28523791433870793,1.8445832530032842,-3.127276280975342,-8.903138148498535,-47.84237081496155,43.3958835143374,88.45111367620521
1698672760.34,0.01666666753590107,0.9155263336177915,0.3051785863444209,-0.08026654589176177,1.9627968869082628,-2.8764833648130295,-9.297133374676108,-45.54798391425462,38.30410043149795,87.00009462854936
1698672760.358,0.01666666753590107,0.9219722218215465,0.2980550180748105,-0.1336123516321182,1.9928740452639757,-2.8051068123415113,-9.374496600341796,-39.172299437276614,40.50610902368046,85.3470659060012
1698672760.374,0.01666666753590107,0.9547212297350167,0.10585282256901264,-0.028840894559025762,2.0729302363406865,-2.916137622070312,-9.290998817443848,-31.995041034778836,45.877342466221805,84.03726101943538
1698672760.39,0.01666666753590107,1.0251724840551615,-0.06899725611954927,0.11529986535012722,2.197129447461292,-3.0425813972473144,-9.155875476726889,-29.918485942176538,51.91307476782994,84.62439091067884
1698672760.406,0.01666666753590107,0.9759105866275727,-0.2030889157012105,0.09966624288856983,2.2080529194705187,-3.1302690330505367,-9.178470754894613,-31.32710317546495,51.27531951445834,86.83692823946693
1698672760.423,0.01666666753590107,0.8635575883843004,-0.3149377638146281,-0.09671557638943194,2.16241345032379,-3.172766404779255,-9.387365434265137,-35.84235682065279,43.9832558772964,89.57909209687612
1698672760.441,0.01666666753590107,0.7047843458801507,-0.310521700938046,-0.28921967745125293,2.035670399939269,-3.1099186112001536,-9.593117139434813,-37.5922649463884,36.735848016928,88.97362314771118
1698672760.457,0.01666666753590107,0.6616153585001826,-0.35969022099375725,-0.34796821901798247,2.008885268866271,-3.099144411468506,-9.667337390899657,-36.7905373416123,29.03150391618034,87.0029769683791
1698672760.474,0.01666666753590107,0.6510289364255964,-0.40048984889388084,-0.4410229348123073,2.010830411584675,-3.0743045692443847,-9.777619720348715,-26.0791392795167,31.459595184984856,84.13028136574178
1698672760.49,0.01666666753590107,0.625400866433233,-0.5474246234357357,-0.16186521717011929,2.0166664242617784,-3.206285228021443,-9.498097261047363,-11.106297401790934,41.46322684716893,82.58277906587033
1698672760.506,0.01666666753590107,0.5042326935715973,-0.5525730922400951,-0.0689461104542017,1.946187112890929,-3.2269352173402903,-9.393051078686117,-2.8761083493448023,45.21010128620326,80.46830276299612
1698672760.524,0.01666666753590107,0.3147824271224439,-0.706087537433207,-0.03253799551129341,1.8185460907533764,-3.407098892267048,-9.339181541332602,-8.074263731100968,36.73080050713136,77.16509350678372
1698672760.54,0.01666666753590107,0.33467019989714025,-0.8751192852318287,0.1502396613061428,1.8658317196719347,-3.580079962213337,-9.150787798199056,-13.705291102686568,30.930935128131285,76.80557966963093
1698672760.557,0.01666666753590107,0.3814630768626928,-0.9529244094461202,0.3251280261784792,1.9325700909487902,-3.653851008605957,-8.973767097473145,-14.691610546197783,30.91267120229067,77.08924425605073
1698672760.574,0.01666666753590107,0.4394295281410217,-0.9731362996086478,0.4389648332387209,2.0214546814516186,-3.674800273132324,-8.854505342754722,-10.221170625928043,31.637928009119303,76.2398760818138
1698672760.59,0.01666666753590107,0.4216074557244777,-0.9149421770542859,0.3286304813414812,2.0241483044497666,-3.631405368041992,-8.95700768585205,-3.884227835695994,29.29997474679145,75.10163871700951
1698672760.607,0.01666666753590107,0.37995983269289135,-0.9655556352213025,0.4076432277798652,2.0002061417177317,-3.7107132980346678,-8.866476351055502,0.6486857438385896,29.40924411313331,74.63448109853732
1698672760.624,0.01666666753590107,0.3130722622036934,-0.9908023046806455,0.6116951432943344,1.955314860589802,-3.778798407745361,-8.645761470031738,-2.1942437343132593,28.33403231889532,74.11245657046241
1698672760.64,0.01666666753590107,0.2539981419444084,-0.9034858402773738,0.6819400613874197,1.908777565820515,-3.7101150398805736,-8.56765005634725,-9.228956729163107,26.228213280794105,72.85152168740802
1698672760.657,0.01666666753590107,0.24318054146245122,-0.7161001051425934,0.5993687456846237,1.906981914575398,-3.5232179650455713,-8.648454946899413,-15.492019924464067,23.793930445506973,71.08432635288311
1698672760.674,0.01666666753590107,0.26826106057465077,-0.6235176830351352,0.5695353329569101,1.9378072609499095,-3.4229604782655834,-8.679578983959555,-15.827365137238768,22.852107123117452,68.38961181963798
1698672760.69,0.01666666753590107,0.26045155586749313,-0.49860067903399463,0.4355605777531862,1.9358619721010326,-3.291728299768269,-8.814402464947104,-13.690037582722637,22.52941995842208,64.49325527552334
1698672760.707,0.01666666753590107,0.24418548072129487,-0.5151236515507102,0.4739192422419786,1.93750798574239,-3.3066920601442455,-8.773252708435058,-10.416626734311713,26.222723516248706,58.71576901133881
1698672760.724,0.01666666753590107,0.20613427474647758,-0.49111353814899916,0.4420183755904436,1.925087918499857,-3.2854435204103587,-8.799588926696776,-8.701165813881419,28.843718110234597,54.49353731173368
1698672760.74,0.01666666753590107,0.257889304164052,-0.3264797330483794,0.32566169466376305,2.007987150982767,-3.123535925403237,-8.909273290252685,-9.516581117754221,27.984755227761084,50.83768197357894
1698672760.757,0.01666666753590107,0.25250848790854213,-0.4447735195174813,0.23090835825800896,2.0373162674501537,-3.2402532563358544,-8.997858751678466,-10.223107838331387,23.020872559772005,47.07765942039234
1698672760.774,0.01666666753590107,0.22787936582565307,-0.4754340307191014,0.2527794138044119,2.0307320667542514,-3.269133021600544,-8.973018909454344,-9.082383430895572,19.721542851008177,44.717600250815735
1698672760.791,0.01666666753590107,0.1807604717761278,-0.5577125009551644,0.4409650671452284,1.9978119400575756,-3.352780442102253,-8.781632414245605,-7.436766317370536,18.60659984636822,41.579381044194164
1698672760.807,0.01666666753590107,0.16609160269349812,-0.7256082304611802,0.7044225268304347,2.007987150982767,-3.5218709343507886,-8.512882693371177,-8.499057101246157,21.173407134573814,37.61099332509257
1698672760.824,0.01666666753590107,0.18589418140277264,-0.8068097191154956,0.7434393629670143,2.0534771286562084,-3.5984853874757885,-8.470086923217773,-10.215428998157,21.83179297433344,35.624340597440565
1698672760.84,0.01666666753590107,0.31225466221049425,-0.9127274236142635,0.6080623397499323,2.2049102375306187,-3.695750122180581,-8.602965115356445,-11.644323355543886,19.82579715095196,35.44478858453927
1698672760.857,0.01666666753590107,0.262326117567718,-0.8573068574264645,0.2862064671099186,2.175132208251953,-3.6279639954164624,-8.924386103710532,-10.304788363068278,13.559515229004631,34.46190728750151
1698672760.874,0.01666666753590107,0.18668869278132916,-0.8007111099794506,0.19514087930619717,2.1019594200134275,-3.5679590240478514,-9.015964317211509,-6.225355001553789,8.684768237231511,31.89583936727357
1698672760.89,0.01666666753590107,-0.019998539672791957,-0.7897323275864124,0.12732874131798744,1.8897734440125524,-3.569306054742634,-9.081206896972656,0.7847986607531028,6.641189297942035,27.573337075558076
1698672760.907,0.01666666753590107,-0.11214549297243356,-0.7123156181678175,0.23880174185633657,1.7966988544739781,-3.5088527550846336,-8.964788841247557,1.0203676163586113,8.843121904270024,24.42850283072535
1698672760.924,0.01666666753590107,-0.12098755559772252,-0.6684077951192855,0.2881044096857309,1.7978961014345287,-3.4730890755251047,-8.910918719372154,-4.37015054513915,13.595135519299895,21.499044940990636
1698672760.941,0.01666666753590107,0.018322569284588096,-0.5748211644053459,0.1863075845092535,1.9598038425721227,-3.371934055383503,-9.010278672790527,-10.969760212735087,17.318325423613558,20.317159252295383
1698672760.957,0.01666666753590107,0.20858459050804376,-0.5141512993872165,-0.4215583558857441,2.1838113354004918,-3.2817025803163644,-9.619901685985923,-15.447980572243116,14.929594827448536,20.7210368756547
1698672760.973,0.01666666753590107,0.2356149285137653,-0.47821752395778894,-0.7198591654151678,2.2245129097536207,-3.223194277246296,-9.922020592498779,-11.29695274096173,8.42021366633576,21.775430253302495
1698672760.99,0.01666666753590107,0.2135616482682526,-0.49496904453337187,-1.0608902786463499,2.190096114758402,-3.2478847741276025,-10.263343966674803,7.4334451378866175,-2.750561361550328,23.157302173348427
1698672761.006,0.01666666753590107,0.07703603953793645,-0.4193219751358032,-0.7912064917922019,2.0238487369813023,-3.2184061661869285,-9.98606548690796,19.655093648120417,-7.602178131142612,22.730015784156183
1698672761.024,0.01666666753590107,0.012001111178100108,-0.3517442304253578,-0.433069345459342,1.9231426296509802,-3.2152634842470285,-9.615562195476889,23.570359570952238,-8.537182363419522,20.00613805070239
1698672761.04,0.01666666753590107,-0.13340206988230346,-0.39123219120502467,0.2770283043980598,1.7350481617249547,-3.3394626953676343,-8.88742561558187,20.33815183870942,-6.224967815205214,17.37353384267477
1698672761.057,0.01666666753590107,-0.15253537102788686,-0.48798283890783783,0.7652513818025588,1.6901567344665527,-3.4879029060363766,-8.387636019024253,15.28099269232006,-4.340522892066927,16.348068023709274
1698672761.074,0.01666666753590107,-0.18345453316569327,-0.569087881450355,0.8658207110106945,1.6376340816773474,-3.6061169052675366,-8.279149340820313,9.341963062754614,-3.5012587020465555,14.95437304621005
1698672761.09,0.01666666753590107,-0.2840741312563419,-0.5606926858097314,0.841505769443512,1.5128364662721752,-3.627515082605183,-8.298302369579673,4.581660586280112,-3.0448063378813006,10.682283526984774
1698672761.107,0.01666666753590107,-0.3521599716193974,-0.408208752708137,0.7105775423288345,1.432031867980957,-3.489100006866455,-8.42699070881307,3.7648630228740276,-1.439510819234612,6.726734855975507
1698672761.124,0.01666666753590107,-0.35895635376125573,-0.33768998610973355,0.6625836190104484,1.4218566570557654,-3.4310412011295557,-8.471433661651611,4.562136063650807,1.848991545590866,3.0082637586046745
1698672761.14,0.01666666753590107,-0.3263870863288641,-0.3776324126586318,0.5425953035831451,1.4616604057863354,-3.4879031982973214,-8.584259830364584,4.190830758669635,3.250574537807809,1.3946877028064033
1698672761.157,0.01666666753590107,-0.37139307987764475,-0.6380594186067581,0.3975385978728533,1.4215575279787183,-3.7562037140995264,-8.725667365917563,0.9877665898416115,1.3727060196231866,1.8361702133016944
1698672761.174,0.01666666753590107,-0.37394276436045765,-0.5690083864733576,0.279568052008748,1.4151228187561034,-3.686920919036865,-8.844479623302817,-1.7605548965477757,-3.1011620152796646,2.5769413679431894
1698672761.19,0.01666666753590107,-0.43986338951364157,-0.4473591520965099,0.13481822029054163,1.3284826461791992,-3.5711017059877515,-8.991274697113036,4.4671281322959295,-5.691992359456663,1.0555743600439709
1698672761.208,0.01666666753590107,-0.44615050695911046,-0.2724596813082695,0.17293489271700382,1.3039419330321251,-3.422661203058064,-8.947579932293296,15.610366612212877,-6.481036302944046,-1.0724013848379437
1698672761.224,0.01666666753590107,-0.4394133076585829,-0.26437369774729014,0.30930443410277364,1.296161069897562,-3.4632129936769602,-8.797044502910971,23.409191012202033,-5.218641893841385,-1.977586078415635
1698672761.24,0.01666666753590107,-0.36023894091770053,-0.5499526806086301,0.7370973004639149,1.3581110378541053,-3.824887081964314,-8.345438799285889,19.695837434066835,-3.4036109025774683,1.4536420537405452
1698672761.257,0.01666666753590107,-0.3926971491910517,-0.9831149650484323,1.0521756417930126,1.3103766422547398,-4.296245533807576,-8.01937787617147,7.8096980611478175,-2.4577795398056197,6.937986203701654
1698672761.274,0.01666666753590107,-0.4104302281498909,-1.113869004639983,1.063027290675044,1.2743141258791089,-4.4345106796815985,-8.009203103637695,-5.435154621662558,-4.047957288498131,12.597685428762496
1698672761.29,0.01666666753590107,-0.5465649378664791,-1.0383750799775122,0.7696031472712754,1.0953474056519568,-4.337395582580566,-8.31835439300537,-12.424791996528318,-7.838206416969804,17.013818514941466
1698672761.307,0.01666666753590107,-0.7379767136469483,-0.7997232679858803,0.43129415248036385,0.8656535377502441,-4.0824131057739255,-8.669403626903891,-9.200457764851228,-7.948733391892596,17.456503565617503
1698672761.324,0.01666666753590107,-0.7918173171669244,-0.7213534956261515,0.3271270910412073,0.7781156856812537,-3.9992148903444407,-8.781183501434326,-2.858326378727497,-7.517080804273423,14.671159252275471
1698672761.34,0.01666666753590107,-0.7904087655432522,-0.5462175857335329,0.29814065053164956,0.7420528770446777,-3.8308725861147046,-8.814103189739585,1.2262289843342666,-7.25116702573284,10.673379521628016
1698672761.356,0.01666666753590107,-0.6224398246705531,-0.7177025719031691,0.5199889194995164,0.8833110672548413,-4.006996045739949,-8.595034322357177,-1.579740365867086,-8.121818069423536,10.037042386282838
1698672761.374,0.01666666753590107,-0.4889493458524346,-0.8482149116933345,0.679807725533843,0.9867105053223669,-4.133290475574135,-8.441655193981529,-5.5332583362587435,-9.845718542347027,10.908119463023015
1698672761.39,0.01666666753590107,-0.3182948191575706,-1.00442692540735,0.9275906462252139,1.1082162395752966,-4.273800185504555,-8.207323291015625,-7.306038204203785,-12.710134248163001,11.630813241365601
1698672761.407,0.01666666753590107,-0.31039398290514947,-1.1362877571970225,1.2385878557205199,1.0761937923707068,-4.393809251458943,-7.906701345062255,-6.2912676077048815,-12.002203069937751,11.349411155108367
1698672761.424,0.01666666753590107,-0.3125846248172223,-1.2307020709067582,1.3988994137078523,1.0401311298646032,-4.478354789844155,-7.754968230327964,-5.767840329529185,-8.076540745415521,11.034231222084482
1698672761.44,0.01666666753590107,-0.33349706446453925,-1.2927148749664426,1.5503525424569844,0.9895536197938024,-4.525490342767537,-7.613112366485595,-7.743426443178476,-3.3054077233514945,11.303198095184062
1698672761.457,0.01666666753590107,-0.3556982287481427,-1.3023030797839164,1.4735048650979994,0.9518450897768139,-4.516961291614175,-7.698555438232422,-11.373368043622188,-1.6080244993852262,12.06335289980323
1698672761.474,0.01666666753590107,-0.3585268763028085,-1.3449746390357613,1.3772884704023598,0.9355342987060546,-4.532074105072021,-7.806293928417563,-15.369158481673876,-1.0667907045998954,13.381002258630824
1698672761.49,0.01666666753590107,-0.2801522816374898,-1.2612690586060284,1.0902093121111391,0.9928457932069897,-4.3962034531190985,-8.11424870147705,-21.27442221730372,-2.32048953583719,15.479382366952251
1698672761.507,0.01666666753590107,-0.17863237370625137,-1.279326693344116,0.7773685205757618,1.075744733428955,-4.366275640106201,-8.4458450468868,-23.028513833905958,-1.9713102017854511,17.466644688987678
1698672761.524,0.01666666753590107,-0.14262436399683356,-1.2888780732825398,0.6548311051875353,1.0925042911805212,-4.327669430597126,-8.586953891754149,-21.99273101419916,-1.4244852568342303,19.88513954200832
1698672761.54,0.01666666753590107,-0.12137465521916746,-1.227352760478854,0.3565367253988981,1.0854713968690484,-4.2097549988344305,-8.907327416881918,-18.095501913418044,-2.8151907459111047,20.87874252849571
1698672761.556,0.01666666753590107,-0.12173391698561609,-1.0975813021838665,0.15976269193291665,1.0616789448060096,-4.048744937188923,-9.117119921875,-13.312785744295322,-3.143102151547893,21.02992705822665
1698672761.574,0.01666666753590107,-0.11119966348968445,-1.0998854874730108,0.13892740917503832,1.0495583719667048,-4.03138697515279,-9.147047442626953,-8.453602192319721,-2.025710097203664,20.743467216889023
1698672761.59,0.01666666753590107,-0.11419921063184738,-1.318480892124772,0.22592706271409987,1.0253170070923865,-4.238186143548786,-9.06639277420044,-5.374455157395477,2.2558851243555664,21.984568938140992
1698672761.608,0.01666666753590107,-0.1467136060718447,-1.5571575462967155,0.28073534222245217,0.9828200006898492,-4.4701244293764235,-9.01491743850708,-6.284190677951102,3.4521430251684055,23.586156090955186
1698672761.623,0.01666666753590107,-0.15827544904984533,-1.6040236346289514,0.24454993011951445,0.9600750118531286,-4.507833105523884,-9.055319007000326,-6.90624161887355,2.2889099427662245,25.217548481760026
1698672761.64,0.01666666753590107,-0.2185715123195201,-1.5848156608119606,0.2162970645815134,0.8770261417664587,-4.480898629108071,-9.088688192638754,-3.6016159521820224,-0.1032770492839414,25.468764546980385
1698672761.656,0.01666666753590107,-0.35079869320355356,-1.5527318388089537,0.3997936833232641,0.7260417995728552,-4.451868933978677,-8.90643017578125,-0.12599964790954576,0.5478154291025785,24.56511002922019
1698672761.673,0.01666666753590107,-0.4309573948066681,-1.5578776772648095,0.5610621036440133,0.6341643839295953,-4.46578493886739,-8.743774100494385,1.2906720325967485,4.6378576752236835,22.636230456662737
1698672761.691,0.01666666753590107,-0.5706321152176708,-1.7304557193681596,0.7852543053895235,0.49799401837773616,-4.649390570941567,-8.5157263923645,-0.3744078383703709,10.733532997648318,19.730002040295236
1698672761.707,0.01666666753590107,-0.6487112340677529,-1.9145710545301435,0.7635399017095565,0.43589441281743346,-4.834342064666748,-8.53532833393514,-3.6449411227478827,13.65076484876871,17.765784776519432
1698672761.724,0.01666666753590107,-0.622948870171234,-1.9640125463083384,0.6210463244855403,0.48198279477544126,-4.878186174829304,-8.677184782299399,-4.609976416144868,13.364340012150578,16.064169503310403
1698672761.741,0.01666666753590107,-0.48716881911121307,-1.9502400415435432,0.4209124591976404,0.6426935812134296,-4.8612768333435055,-8.875304969677329,-0.2881601048737109,11.188621671857097,14.661508194978243
1698672761.757,0.01666666753590107,-0.41376317196488377,-2.0990072922095657,0.44126141974329947,0.7278373777527362,-5.021688929095864,-8.849867161560057,6.283464543464965,7.643486261469203,14.409202714585264
1698672761.774,0.01666666753590107,-0.5129819633468985,-2.260943236528337,0.5915080953121185,0.6340146732605993,-5.210830567987263,-8.690352891430258,11.484870881822646,6.550287590938805,15.098433688636666
